base	baseline_log_odds	dat_id	record_date	part_id	part_gender	part_yob	part_edu	list_number	trial_kind	trial_index	stimulus	choice1	choice2	response	response_string	esp_response	esp_match	rt	time_elapsed	file_name	variation	column	log_odds	variant1	variant2	nsyl	suffix	sample_number	word_rank	top_20	bottom_20	reg_rate	reg_dist	picked_left	picked_v1	esp_v1	picked_majority	i
aglik	-0.2076393647782445	hungarian-esp-sleep-2_esp_participant_SESSION_2023-06-20_09h13.53.182.csv	2023-06-20T09:13:00Z	5fd7cd077541e708f2a10aed	NA	NA	NA	8	second posttest trial	6	Te bizony sokat aglasz. Én is sokat...	aglok	aglom	1	aglom	NA	NA	4873	35558	lakok_3_high_reversed	lakok/lakom	33	-0.2076393647782445	aglok	aglom	1	NA	3	38	FALSE	FALSE	NA	NA	FALSE	FALSE	NA	NA	1
brarlik	1.1451323043030026	hungarian-esp-sleep-2_esp_participant_SESSION_2023-06-20_08h16.02.189.csv	2023-06-20T08:16:00Z	607cabdfb9addc46d23a0f19	NA	NA	NA	8	second posttest trial	6	Te bizony sokat brarlasz. Én is sokat...	brarlok	brarlom	0	brarlok	NA	NA	7339	55080	lakok_3_high_reversed	lakok/lakom	33	1.1451323043030026	brarlok	brarlom	1	NA	3	7	TRUE	FALSE	NA	NA	TRUE	TRUE	NA	NA	1
brüszlik / brüszözik	-0.2076393647782445	hungarian-esp-sleep-2_esp_participant_SESSION_2023-06-21_12h09.46.148.csv	2023-06-21T12:09:00Z	5d3c6e745602310001bca8aa	NA	NA	NA	8	second posttest trial	6	János imád brüszözni, ezért sokat brüszlik. Ti ritkán...	brüszöztök	brüszlötök	0	brüszöztök	NA	NA	6872	317140	cselekszenek_3_high_reversed	cselekszenek/cselekednek	9	-0.2076393647782445	brüszlötök	brüszöztök	1	tek	3	39	FALSE	FALSE	NA	NA	TRUE	FALSE	NA	NA	1
csólorzik	-0.5978370007556204	hungarian-esp-sleep-2_esp_participant_SESSION_2023-06-20_11h44.38.546.csv	2023-06-20T11:44:00Z	610032aa2ae56976d71d296d	NA	NA	NA	8	second posttest trial	6	Te bizony sokat csólorzol. Én is sokat...	csólorzom	csólorzok	0	csólorzom	NA	NA	3023	163453	lakok_3_high_reversed	lakok/lakom	33	-0.5978370007556204	csólorzok	csólorzom	2	NA	3	47	FALSE	TRUE	NA	NA	TRUE	FALSE	NA	NA	1
diránylik / dirányozik	-0.06899287148695143	hungarian-esp-sleep-2_esp_participant_SESSION_2023-06-21_11h51.47.417.csv	2023-06-21T11:51:00Z	607b14f74a8418d7b787ce33	NA	NA	NA	8	second posttest trial	6	János imád dirányozni, ezért sokat diránylik. Ők ritkán...	dirányoznak	diránylanak	0	dirányoznak	NA	NA	3934	47361	cselekszenek_3_high_reversed	cselekszenek/cselekednek	9	-0.06899287148695143	diránylanak	dirányoznak	2	nek	3	35	FALSE	FALSE	NA	NA	TRUE	FALSE	NA	NA	1
frivamlik / frivamozik	0.7419373447293773	hungarian-esp-sleep-2_esp_participant_SESSION_2023-06-21_13h14.12.882.csv	2023-06-21T13:14:00Z	61080f315a313dab03ea1cde	NA	NA	NA	8	second posttest trial	6	János imád frivamozni, ezért sokat frivamlik. Mi ritkán...	frivamlunk	frivamozunk	0	frivamlunk	NA	NA	2731	20778	cselekszenek_3_high_reversed	cselekszenek/cselekednek	9	0.7419373447293773	frivamlunk	frivamozunk	2	ünk	3	4	TRUE	FALSE	NA	NA	TRUE	TRUE	NA	NA	1
gibemlik / gibemezik	0.4353180712578455	hungarian-esp-sleep-2_esp_participant_SESSION_2023-06-21_11h31.31.484.csv	2023-06-21T11:31:00Z	566f3979744e3e0005b63481	NA	NA	NA	8	second posttest trial	6	János imád gibemezni, ezért sokat gibemlik. Mi ritkán...	gibemezünk	gibemlünk	1	gibemlünk	NA	NA	3121	39239	cselekszenek_3_high_reversed	cselekszenek/cselekednek	9	0.4353180712578455	gibemlünk	gibemezünk	2	ünk	3	14	TRUE	FALSE	NA	NA	FALSE	TRUE	NA	NA	1
gyivepszik / gyivepedik	0.20763936477824457	hungarian-esp-sleep-2_esp_participant_SESSION_2023-06-21_13h08.08.328.csv	2023-06-21T13:08:00Z	5e8aefb03d71b0799a8d0f48	NA	NA	NA	8	second posttest trial	6	János imád gyivepedni, ezért sokat gyivepszik. Ők ritkán...	gyivepszenek	gyivepednek	0	gyivepszenek	NA	NA	3433	53895	cselekszenek_3_high_reversed	cselekszenek/cselekednek	9	0.20763936477824457	gyivepszenek	gyivepednek	2	nek	3	21	FALSE	FALSE	NA	NA	TRUE	TRUE	NA	NA	1
ibáglik	0.6418538861723947	hungarian-esp-sleep-2_esp_participant_SESSION_2023-06-20_12h37.10.182.csv	2023-06-20T12:37:00Z	5f632ea32e85353d93872c67	NA	NA	NA	8	second posttest trial	6	Te bizony sokat ibáglasz. Én is sokat...	ibáglok	ibáglom	1	ibáglom	NA	NA	3692	65941	lakok_3_high_reversed	lakok/lakom	33	0.6418538861723947	ibáglok	ibáglom	2	NA	3	18	FALSE	FALSE	NA	NA	FALSE	FALSE	NA	NA	1
kumlik	1.6486586255873816	hungarian-esp-sleep-2_esp_participant_SESSION_2023-06-20_10h48.54.386.csv	2023-06-20T10:48:00Z	608adf0cc8637f7f395352b1	NA	NA	NA	8	second posttest trial	6	Te bizony sokat kumlasz. Én is sokat...	kumlok	kumlom	0	kumlok	NA	NA	2951	97983	lakok_3_high_reversed	lakok/lakom	33	1.6486586255873816	kumlok	kumlom	1	NA	3	3	TRUE	FALSE	NA	NA	TRUE	TRUE	NA	NA	1
livaklik	-0.9650808960435872	hungarian-esp-sleep-2_esp_participant_SESSION_2023-06-20_15h13.44.238.csv	2023-06-20T15:13:00Z	5e1dff99f0b71e166a571d7f	NA	NA	NA	8	second posttest trial	6	Te bizony sokat livaklasz. Én is sokat...	livaklom	livaklok	0	livaklom	NA	NA	6741	46986	lakok_3_high_reversed	lakok/lakom	33	-0.9650808960435872	livaklok	livaklom	2	NA	3	53	FALSE	TRUE	NA	NA	TRUE	FALSE	NA	NA	1
mihágzik / mihágozik	-0.7419373447293773	hungarian-esp-sleep-2_esp_participant_SESSION_2023-06-21_08h12.22.832.csv	2023-06-21T08:12:00Z	5f338ba6ea047119dbd6e49e	NA	NA	NA	8	second posttest trial	6	János imád mihágozni, ezért sokat mihágzik. Ti ritkán...	mihágzotok	mihágoztok	1	mihágoztok	NA	NA	3729	59495	cselekszenek_3_high_reversed	cselekszenek/cselekednek	9	-0.7419373447293773	mihágzotok	mihágoztok	2	tek	3	51	FALSE	TRUE	NA	NA	FALSE	FALSE	NA	NA	1
míslik / mísozik	0.3483066942682158	hungarian-esp-sleep-2_esp_participant_SESSION_2023-06-21_11h03.01.204.csv	2023-06-21T11:03:00Z	5f99dc8aa866bf0bf2d60f46	NA	NA	NA	8	second posttest trial	6	János imád mísozni, ezért sokat míslik. Mi ritkán...	míslunk	mísozunk	0	míslunk	NA	NA	7821	39547	cselekszenek_3_high_reversed	cselekszenek/cselekednek	9	0.3483066942682158	míslunk	mísozunk	1	ünk	3	16	FALSE	FALSE	NA	NA	TRUE	TRUE	NA	NA	1
prazlik / prazozik	-0.1941560144409575	hungarian-esp-sleep-2_esp_participant_SESSION_2023-06-21_11h59.24.738.csv	2023-06-21T11:59:00Z	6044cde18ec25456d2bd9d99	NA	NA	NA	8	second posttest trial	6	János imád prazozni, ezért sokat prazlik. Mi ritkán...	prazozunk	prazlunk	1	prazlunk	NA	NA	4332	331569	cselekszenek_3_high_reversed	cselekszenek/cselekednek	9	-0.1941560144409575	prazlunk	prazozunk	1	ünk	3	38	FALSE	FALSE	NA	NA	FALSE	TRUE	NA	NA	1
préleglik	0.6418538861723947	hungarian-esp-sleep-2_esp_participant_SESSION_2023-06-20_09h11.20.328.csv	2023-06-20T09:11:00Z	5f325435f0fc671a7434cabe	NA	NA	NA	8	second posttest trial	6	Te bizony sokat préleglesz. Én is sokat...	préleglek	préleglem	0	préleglek	NA	NA	5784	193116	lakok_3_high_reversed	lakok/lakom	33	0.6418538861723947	préleglek	préleglem	2	NA	3	19	FALSE	FALSE	NA	NA	TRUE	TRUE	NA	NA	1
prilepszik / prilepedik	0.8938178760220965	hungarian-esp-sleep-2_esp_participant_SESSION_2023-06-21_09h17.44.350.csv	2023-06-21T09:17:00Z	60ef5b1cf52939a80af77543	NA	NA	NA	8	second posttest trial	6	János imád prilepedni, ezért sokat prilepszik. Mi ritkán...	prilepedünk	prilepszünk	1	prilepszünk	NA	NA	5919	24018	cselekszenek_3_high_reversed	cselekszenek/cselekednek	9	0.8938178760220965	prilepszünk	prilepedünk	2	ünk	3	2	TRUE	FALSE	NA	NA	FALSE	TRUE	NA	NA	1
pugoslik	0.965080896043587	hungarian-esp-sleep-2_esp_participant_SESSION_2023-06-20_13h06.15.947.csv	2023-06-20T13:06:00Z	612058b64e8bd208d39fbe68	NA	NA	NA	8	second posttest trial	6	Te bizony sokat pugoslasz. Én is sokat...	pugoslom	pugoslok	1	pugoslok	NA	NA	2767	76041	lakok_3_high_reversed	lakok/lakom	33	0.965080896043587	pugoslok	pugoslom	2	NA	3	10	TRUE	FALSE	NA	NA	FALSE	TRUE	NA	NA	1
spalárzik / spalározik	-0.1431008436406733	hungarian-esp-sleep-2_esp_participant_SESSION_2023-06-21_11h37.17.295.csv	2023-06-21T11:37:00Z	5f452661c5a1b50a817ab094	NA	NA	NA	8	second posttest trial	6	János imád spalározni, ezért sokat spalárzik. Ők ritkán...	spalároznak	spalárzanak	0	spalároznak	NA	NA	3302	33659	cselekszenek_3_high_reversed	cselekszenek/cselekednek	9	-0.1431008436406733	spalárzanak	spalároznak	2	nek	3	37	FALSE	FALSE	NA	NA	TRUE	FALSE	NA	NA	1
spélszik	0.3483066942682158	hungarian-esp-sleep-2_esp_participant_SESSION_2023-06-20_14h51.24.919.csv	2023-06-20T14:51:00Z	60febbf6684ed23d1eec2db6	NA	NA	NA	8	second posttest trial	6	Te bizony sokat spélszel. Én is sokat...	spélszem	spélszek	0	spélszem	NA	NA	4040	36467	lakok_3_high_reversed	lakok/lakom	33	0.3483066942682158	spélszek	spélszem	1	NA	3	25	FALSE	FALSE	NA	NA	TRUE	FALSE	NA	NA	1
spöklik / spöközik	0.5978370007556204	hungarian-esp-sleep-2_esp_participant_SESSION_2023-06-21_11h12.42.107.csv	2023-06-21T11:12:00Z	60fddc9ee6bb457b10b9a7ae	NA	NA	NA	8	second posttest trial	6	János imád spöközni, ezért sokat spöklik. Mi ritkán...	spöközünk	spöklünk	0	spöközünk	NA	NA	5991	136307	cselekszenek_3_high_reversed	cselekszenek/cselekednek	9	0.5978370007556204	spöklünk	spöközünk	1	ünk	3	8	TRUE	FALSE	NA	NA	TRUE	FALSE	NA	NA	1
sponylik / sponyozik	0.7419373447293773	hungarian-esp-sleep-2_esp_participant_SESSION_2023-06-21_08h42.05.689.csv	2023-06-21T08:42:00Z	6139181353b6c04cb2d95d8d	NA	NA	NA	8	second posttest trial	6	János imád sponyozni, ezért sokat sponylik. Ők ritkán...	sponyoznak	sponylanak	0	sponyoznak	NA	NA	3309	31170	cselekszenek_3_high_reversed	cselekszenek/cselekednek	9	0.7419373447293773	sponylanak	sponyoznak	1	nek	3	5	TRUE	FALSE	NA	NA	TRUE	FALSE	NA	NA	1
spülöklik	0.28768207245178085	hungarian-esp-sleep-2_esp_participant_SESSION_2023-06-20_16h31.46.693.csv	2023-06-20T16:31:00Z	60d3acd071e98de7a42743ac	NA	NA	NA	8	second posttest trial	6	Te bizony sokat spülöklesz. Én is sokat...	spülöklök	spülöklöm	0	spülöklök	NA	NA	4704	68458	lakok_3_high_reversed	lakok/lakom	33	0.28768207245178085	spülöklök	spülöklöm	2	NA	3	26	FALSE	FALSE	NA	NA	TRUE	TRUE	NA	NA	1
spüszlik	0.14310084364067324	hungarian-esp-sleep-2_esp_participant_SESSION_2023-06-20_09h23.38.663.csv	2023-06-20T09:23:00Z	600e8770316e2671811f49ac	NA	NA	NA	8	second posttest trial	6	Te bizony sokat spüszlesz. Én is sokat...	spüszlök	spüszlöm	1	spüszlöm	NA	NA	4906	19714	lakok_3_high_reversed	lakok/lakom	33	0.14310084364067324	spüszlök	spüszlöm	1	NA	3	28	FALSE	FALSE	NA	NA	FALSE	FALSE	NA	NA	1
sztruglik	0.4353180712578455	hungarian-esp-sleep-2_esp_participant_SESSION_2023-06-20_09h05.09.759.csv	2023-06-20T09:05:00Z	6107aa76ee9845023fb0cb80	NA	NA	NA	8	second posttest trial	6	Te bizony sokat sztruglasz. Én is sokat...	sztruglok	sztruglom	1	sztruglom	NA	NA	4112	55108	lakok_3_high_reversed	lakok/lakom	33	0.4353180712578455	sztruglok	sztruglom	1	NA	3	23	FALSE	FALSE	NA	NA	FALSE	FALSE	NA	NA	1
sztruglik	0.4353180712578455	hungarian-esp-sleep-2_esp_participant_SESSION_2023-06-20_11h36.07.341.csv	2023-06-20T11:36:00Z	5df97fcd11d8796fd29e85e3	NA	NA	NA	8	second posttest trial	6	Te bizony sokat sztruglasz. Én is sokat...	sztruglok	sztruglom	1	sztruglom	NA	NA	2773	62213	lakok_3_high_reversed	lakok/lakom	33	0.4353180712578455	sztruglok	sztruglom	1	NA	3	23	FALSE	FALSE	NA	NA	FALSE	FALSE	NA	NA	1
sztruglik	0.4353180712578455	hungarian-esp-sleep-2_esp_participant_SESSION_2023-06-20_13h28.37.951.csv	2023-06-20T13:28:00Z	605896a739d40fa144496f26	NA	NA	NA	8	second posttest trial	6	Te bizony sokat sztruglasz. Én is sokat...	sztruglok	sztruglom	1	sztruglom	NA	NA	3049	85367	lakok_3_high_reversed	lakok/lakom	33	0.4353180712578455	sztruglok	sztruglom	1	NA	3	23	FALSE	FALSE	NA	NA	FALSE	FALSE	NA	NA	1
sztruglik	0.4353180712578455	hungarian-esp-sleep-2_esp_participant_SESSION_2023-06-20_16h28.04.251.csv	2023-06-20T16:28:00Z	5ca9f1578d77140001bac8dc	NA	NA	NA	8	second posttest trial	6	Te bizony sokat sztruglasz. Én is sokat...	sztruglok	sztruglom	0	sztruglok	NA	NA	3922	38580	lakok_3_high_reversed	lakok/lakom	33	0.4353180712578455	sztruglok	sztruglom	1	NA	3	23	FALSE	FALSE	NA	NA	TRUE	TRUE	NA	NA	1
szűslik	0.8938178760220965	hungarian-esp-sleep-2_esp_participant_SESSION_2023-06-20_17h13.50.637.csv	2023-06-20T17:13:00Z	5ef5f78600093427dfd5e120	NA	NA	NA	8	second posttest trial	6	Te bizony sokat szűslesz. Én is sokat...	szűslök	szűslöm	0	szűslök	NA	NA	4382	90495	lakok_3_high_reversed	lakok/lakom	33	0.8938178760220965	szűslök	szűslöm	1	NA	3	13	TRUE	FALSE	NA	NA	TRUE	TRUE	NA	NA	1
trűnylik / trűnyözik	0	hungarian-esp-sleep-2_esp_participant_SESSION_2023-06-21_08h04.54.575.csv	2023-06-21T08:04:00Z	6151b07ac0d164fdd7e53100	NA	NA	NA	8	second posttest trial	6	János imád trűnyözni, ezért sokat trűnylik. Ők ritkán...	trűnylenek	trűnyöznek	1	trűnyöznek	NA	NA	2551	24676	cselekszenek_3_high_reversed	cselekszenek/cselekednek	9	0	trűnylenek	trűnyöznek	1	nek	3	32	FALSE	FALSE	NA	NA	FALSE	FALSE	NA	NA	1
zödlik	0.7472144018302211	hungarian-esp-sleep-2_esp_participant_SESSION_2023-06-20_10h28.38.451.csv	2023-06-20T10:28:00Z	6140ff9c5750f0081ca8d71f	NA	NA	NA	8	second posttest trial	6	Te bizony sokat zödlesz. Én is sokat...	zödlök	zödlöm	0	zödlök	NA	NA	3347	158021	lakok_3_high_reversed	lakok/lakom	33	0.7472144018302211	zödlök	zödlöm	1	NA	3	15	TRUE	FALSE	NA	NA	TRUE	TRUE	NA	NA	1
brilegzik / brilegezik	0.28768207245178085	hungarian-esp-sleep-2_esp_participant_SESSION_2023-06-21_08h12.22.832.csv	2023-06-21T08:12:00Z	5f338ba6ea047119dbd6e49e	NA	NA	NA	8	second posttest trial	7	János imád brilegezni, ezért sokat brilegzik. Mi ritkán...	brilegzünk	brilegezünk	1	brilegezünk	NA	NA	5762	65767	cselekszenek_3_high_reversed	cselekszenek/cselekednek	9	0.28768207245178085	brilegzünk	brilegezünk	2	ünk	3	19	FALSE	FALSE	NA	NA	FALSE	FALSE	NA	NA	2
briváglik / brivágozik	-0.2876820724517809	hungarian-esp-sleep-2_esp_participant_SESSION_2023-06-21_11h12.42.107.csv	2023-06-21T11:12:00Z	60fddc9ee6bb457b10b9a7ae	NA	NA	NA	8	second posttest trial	7	János imád brivágozni, ezért sokat briváglik. Ők ritkán...	briváglanak	brivágoznak	0	briváglanak	NA	NA	3691	140509	cselekszenek_3_high_reversed	cselekszenek/cselekednek	9	-0.2876820724517809	briváglanak	brivágoznak	2	nek	3	40	FALSE	TRUE	NA	NA	TRUE	TRUE	NA	NA	2
diránylik / dirányozik	-0.06899287148695143	hungarian-esp-sleep-2_esp_participant_SESSION_2023-06-21_11h37.17.295.csv	2023-06-21T11:37:00Z	5f452661c5a1b50a817ab094	NA	NA	NA	8	second posttest trial	7	János imád dirányozni, ezért sokat diránylik. Ők ritkán...	diránylanak	dirányoznak	1	dirányoznak	NA	NA	1979	36150	cselekszenek_3_high_reversed	cselekszenek/cselekednek	9	-0.06899287148695143	diránylanak	dirányoznak	2	nek	3	35	FALSE	FALSE	NA	NA	FALSE	FALSE	NA	NA	2
diránylik / dirányozik	-0.06899287148695143	hungarian-esp-sleep-2_esp_participant_SESSION_2023-06-21_13h14.12.882.csv	2023-06-21T13:14:00Z	61080f315a313dab03ea1cde	NA	NA	NA	8	second posttest trial	7	János imád dirányozni, ezért sokat diránylik. Ők ritkán...	dirányoznak	diránylanak	0	dirányoznak	NA	NA	2717	24000	cselekszenek_3_high_reversed	cselekszenek/cselekednek	9	-0.06899287148695143	diránylanak	dirányoznak	2	nek	3	35	FALSE	FALSE	NA	NA	TRUE	FALSE	NA	NA	2
drügzik	0.06899287148695142	hungarian-esp-sleep-2_esp_participant_SESSION_2023-06-20_09h23.38.663.csv	2023-06-20T09:23:00Z	600e8770316e2671811f49ac	NA	NA	NA	8	second posttest trial	7	Te bizony sokat drügzöl. Én is sokat...	drügzök	drügzöm	1	drügzöm	NA	NA	1762	21986	lakok_3_high_reversed	lakok/lakom	33	0.06899287148695142	drügzök	drügzöm	1	NA	3	29	FALSE	FALSE	NA	NA	FALSE	FALSE	NA	NA	2
fivénylik	0.7419373447293773	hungarian-esp-sleep-2_esp_participant_SESSION_2023-06-20_08h16.02.189.csv	2023-06-20T08:16:00Z	607cabdfb9addc46d23a0f19	NA	NA	NA	8	second posttest trial	7	Te bizony sokat fivénylesz. Én is sokat...	fivénylem	fivénylek	1	fivénylek	NA	NA	3192	58782	lakok_3_high_reversed	lakok/lakom	33	0.7419373447293773	fivénylek	fivénylem	2	NA	3	16	FALSE	FALSE	NA	NA	FALSE	TRUE	NA	NA	2
fivénylik	0.7419373447293773	hungarian-esp-sleep-2_esp_participant_SESSION_2023-06-20_17h13.50.637.csv	2023-06-20T17:13:00Z	5ef5f78600093427dfd5e120	NA	NA	NA	8	second posttest trial	7	Te bizony sokat fivénylesz. Én is sokat...	fivénylem	fivénylek	1	fivénylek	NA	NA	3046	94053	lakok_3_high_reversed	lakok/lakom	33	0.7419373447293773	fivénylek	fivénylem	2	NA	3	16	FALSE	FALSE	NA	NA	FALSE	TRUE	NA	NA	2
fliraklik	0	hungarian-esp-sleep-2_esp_participant_SESSION_2023-06-20_16h31.46.693.csv	2023-06-20T16:31:00Z	60d3acd071e98de7a42743ac	NA	NA	NA	8	second posttest trial	7	Te bizony sokat fliraklasz. Én is sokat...	fliraklom	fliraklok	0	fliraklom	NA	NA	4156	73121	lakok_3_high_reversed	lakok/lakom	33	0	fliraklok	fliraklom	2	NA	3	32	FALSE	FALSE	NA	NA	TRUE	FALSE	NA	NA	2
fröjlik / fröjözik	0.32542240043462795	hungarian-esp-sleep-2_esp_participant_SESSION_2023-06-21_11h03.01.204.csv	2023-06-21T11:03:00Z	5f99dc8aa866bf0bf2d60f46	NA	NA	NA	8	second posttest trial	7	János imád fröjözni, ezért sokat fröjlik. Mi ritkán...	fröjlünk	fröjözünk	0	fröjlünk	NA	NA	4561	44625	cselekszenek_3_high_reversed	cselekszenek/cselekednek	9	0.32542240043462795	fröjlünk	fröjözünk	1	ünk	3	18	FALSE	FALSE	NA	NA	TRUE	TRUE	NA	NA	2
fröjlik / fröjözik	0.32542240043462795	hungarian-esp-sleep-2_esp_participant_SESSION_2023-06-21_11h59.24.738.csv	2023-06-21T11:59:00Z	6044cde18ec25456d2bd9d99	NA	NA	NA	8	second posttest trial	7	János imád fröjözni, ezért sokat fröjlik. Mi ritkán...	fröjözünk	fröjlünk	0	fröjözünk	NA	NA	3772	335852	cselekszenek_3_high_reversed	cselekszenek/cselekednek	9	0.32542240043462795	fröjlünk	fröjözünk	1	ünk	3	18	FALSE	FALSE	NA	NA	TRUE	FALSE	NA	NA	2
fröjlik / fröjözik	0.32542240043462795	hungarian-esp-sleep-2_esp_participant_SESSION_2023-06-21_13h08.08.328.csv	2023-06-21T13:08:00Z	5e8aefb03d71b0799a8d0f48	NA	NA	NA	8	second posttest trial	7	János imád fröjözni, ezért sokat fröjlik. Mi ritkán...	fröjlünk	fröjözünk	1	fröjözünk	NA	NA	2691	57088	cselekszenek_3_high_reversed	cselekszenek/cselekednek	9	0.32542240043462795	fröjlünk	fröjözünk	1	ünk	3	18	FALSE	FALSE	NA	NA	FALSE	FALSE	NA	NA	2
gatáglik / gatágozik	-0.7985076962177716	hungarian-esp-sleep-2_esp_participant_SESSION_2023-06-21_09h05.41.844.csv	2023-06-21T09:05:00Z	61717173748006894b2b54ff	NA	NA	NA	8	second posttest trial	7	János imád gatágozni, ezért sokat gatáglik. Mi ritkán...	gatágozunk	gatáglunk	0	gatágozunk	NA	NA	6381	50062	cselekszenek_3_high_reversed	cselekszenek/cselekednek	9	-0.7985076962177716	gatáglunk	gatágozunk	2	ünk	3	52	FALSE	TRUE	NA	NA	TRUE	FALSE	NA	NA	1
gilárzik	-0.8938178760220964	hungarian-esp-sleep-2_esp_participant_SESSION_2023-06-20_12h41.55.226.csv	2023-06-20T12:41:00Z	5df2235d5a34251266ea645e	NA	NA	NA	8	second posttest trial	7	Te bizony sokat gilárzol. Én is sokat...	gilárzok	gilárzom	1	gilárzom	NA	NA	2700	38518	lakok_3_high_reversed	lakok/lakom	33	-0.8938178760220964	gilárzok	gilárzom	2	NA	3	52	FALSE	TRUE	NA	NA	FALSE	FALSE	NA	NA	1
gilárzik	-0.8938178760220964	hungarian-esp-sleep-2_esp_participant_SESSION_2023-06-20_13h06.15.947.csv	2023-06-20T13:06:00Z	612058b64e8bd208d39fbe68	NA	NA	NA	8	second posttest trial	7	Te bizony sokat gilárzol. Én is sokat...	gilárzok	gilárzom	1	gilárzom	NA	NA	3778	80321	lakok_3_high_reversed	lakok/lakom	33	-0.8938178760220964	gilárzok	gilárzom	2	NA	3	52	FALSE	TRUE	NA	NA	FALSE	FALSE	NA	NA	2
gyivádzik	-0.6418538861723948	hungarian-esp-sleep-2_esp_participant_SESSION_2023-06-20_11h36.07.341.csv	2023-06-20T11:36:00Z	5df97fcd11d8796fd29e85e3	NA	NA	NA	8	second posttest trial	7	Te bizony sokat gyivádzol. Én is sokat...	gyivádzok	gyivádzom	1	gyivádzom	NA	NA	2289	65003	lakok_3_high_reversed	lakok/lakom	33	-0.6418538861723948	gyivádzok	gyivádzom	2	NA	3	49	FALSE	TRUE	NA	NA	FALSE	FALSE	NA	NA	2
kumlik	1.6486586255873816	hungarian-esp-sleep-2_esp_participant_SESSION_2023-06-20_11h44.38.546.csv	2023-06-20T11:44:00Z	610032aa2ae56976d71d296d	NA	NA	NA	8	second posttest trial	7	Te bizony sokat kumlasz. Én is sokat...	kumlom	kumlok	1	kumlok	NA	NA	2802	166765	lakok_3_high_reversed	lakok/lakom	33	1.6486586255873816	kumlok	kumlom	1	NA	3	3	TRUE	FALSE	NA	NA	FALSE	TRUE	NA	NA	2
livaklik	-0.9650808960435872	hungarian-esp-sleep-2_esp_participant_SESSION_2023-06-20_10h48.54.386.csv	2023-06-20T10:48:00Z	608adf0cc8637f7f395352b1	NA	NA	NA	8	second posttest trial	7	Te bizony sokat livaklasz. Én is sokat...	livaklok	livaklom	0	livaklok	NA	NA	3651	102136	lakok_3_high_reversed	lakok/lakom	33	-0.9650808960435872	livaklok	livaklom	2	NA	3	53	FALSE	TRUE	NA	NA	TRUE	TRUE	NA	NA	2
livénylik / livényezik	0.4595323293784402	hungarian-esp-sleep-2_esp_participant_SESSION_2023-06-21_11h31.31.484.csv	2023-06-21T11:31:00Z	566f3979744e3e0005b63481	NA	NA	NA	8	second posttest trial	7	János imád livényezni, ezért sokat livénylik. Mi ritkán...	livénylünk	livényezünk	0	livénylünk	NA	NA	2555	42295	cselekszenek_3_high_reversed	cselekszenek/cselekednek	9	0.4595323293784402	livénylünk	livényezünk	2	ünk	3	12	TRUE	FALSE	NA	NA	TRUE	TRUE	NA	NA	2
péleslik	0.7419373447293773	hungarian-esp-sleep-2_esp_participant_SESSION_2023-06-20_12h37.10.182.csv	2023-06-20T12:37:00Z	5f632ea32e85353d93872c67	NA	NA	NA	8	second posttest trial	7	Te bizony sokat péleslesz. Én is sokat...	péleslem	péleslek	1	péleslek	NA	NA	4012	70455	lakok_3_high_reversed	lakok/lakom	33	0.7419373447293773	péleslek	péleslem	2	NA	3	17	FALSE	FALSE	NA	NA	FALSE	TRUE	NA	NA	2
plágadzik	-0.4353180712578455	hungarian-esp-sleep-2_esp_participant_SESSION_2023-06-20_09h05.09.759.csv	2023-06-20T09:05:00Z	6107aa76ee9845023fb0cb80	NA	NA	NA	8	second posttest trial	7	Te bizony sokat plágadzol. Én is sokat...	plágadzok	plágadzom	1	plágadzom	NA	NA	5326	60938	lakok_3_high_reversed	lakok/lakom	33	-0.4353180712578455	plágadzok	plágadzom	2	NA	3	44	FALSE	TRUE	NA	NA	FALSE	FALSE	NA	NA	2
plágadzik	-0.4353180712578455	hungarian-esp-sleep-2_esp_participant_SESSION_2023-06-20_14h51.24.919.csv	2023-06-20T14:51:00Z	60febbf6684ed23d1eec2db6	NA	NA	NA	8	second posttest trial	7	Te bizony sokat plágadzol. Én is sokat...	plágadzom	plágadzok	0	plágadzom	NA	NA	2274	39242	lakok_3_high_reversed	lakok/lakom	33	-0.4353180712578455	plágadzok	plágadzom	2	NA	3	44	FALSE	TRUE	NA	NA	TRUE	FALSE	NA	NA	2
préleglik	0.6418538861723947	hungarian-esp-sleep-2_esp_participant_SESSION_2023-06-20_13h28.37.951.csv	2023-06-20T13:28:00Z	605896a739d40fa144496f26	NA	NA	NA	8	second posttest trial	7	Te bizony sokat préleglesz. Én is sokat...	préleglem	préleglek	0	préleglem	NA	NA	826	86695	lakok_3_high_reversed	lakok/lakom	33	0.6418538861723947	préleglek	préleglem	2	NA	3	19	FALSE	FALSE	NA	NA	TRUE	FALSE	NA	NA	2
préleglik	0.6418538861723947	hungarian-esp-sleep-2_esp_participant_SESSION_2023-06-20_16h38.46.274.csv	2023-06-20T16:38:00Z	605bb95e25fb0eb3edfe7c73	NA	NA	NA	8	second posttest trial	7	Te bizony sokat préleglesz. Én is sokat...	préleglem	préleglek	0	préleglem	NA	NA	3966	175977	lakok_3_high_reversed	lakok/lakom	33	0.6418538861723947	préleglek	préleglem	2	NA	3	19	FALSE	FALSE	NA	NA	TRUE	FALSE	NA	NA	1
prohódzik	-1.0560526742493137	hungarian-esp-sleep-2_esp_participant_SESSION_2023-06-20_10h28.38.451.csv	2023-06-20T10:28:00Z	6140ff9c5750f0081ca8d71f	NA	NA	NA	8	second posttest trial	7	Te bizony sokat prohódzol. Én is sokat...	prohódzok	prohódzom	1	prohódzom	NA	NA	4604	163131	lakok_3_high_reversed	lakok/lakom	33	-1.0560526742493137	prohódzok	prohódzom	2	NA	3	54	FALSE	TRUE	NA	NA	FALSE	FALSE	NA	NA	2
spibádzik	-0.2076393647782445	hungarian-esp-sleep-2_esp_participant_SESSION_2023-06-20_09h11.20.328.csv	2023-06-20T09:11:00Z	5f325435f0fc671a7434cabe	NA	NA	NA	8	second posttest trial	7	Te bizony sokat spibádzol. Én is sokat...	spibádzok	spibádzom	1	spibádzom	NA	NA	6266	199884	lakok_3_high_reversed	lakok/lakom	33	-0.2076393647782445	spibádzok	spibádzom	2	NA	3	39	FALSE	FALSE	NA	NA	FALSE	FALSE	NA	NA	2
spibamlik / spibamozik	0.5877866649021191	hungarian-esp-sleep-2_esp_participant_SESSION_2023-06-21_12h09.46.148.csv	2023-06-21T12:09:00Z	5d3c6e745602310001bca8aa	NA	NA	NA	8	second posttest trial	7	János imád spibamozni, ezért sokat spibamlik. Ők ritkán...	spibamoznak	spibamlanak	0	spibamoznak	NA	NA	5386	323028	cselekszenek_3_high_reversed	cselekszenek/cselekednek	9	0.5877866649021191	spibamlanak	spibamoznak	2	nek	3	9	TRUE	FALSE	NA	NA	TRUE	FALSE	NA	NA	2
spöklik / spöközik	0.5978370007556204	hungarian-esp-sleep-2_esp_participant_SESSION_2023-06-21_09h17.44.350.csv	2023-06-21T09:17:00Z	60ef5b1cf52939a80af77543	NA	NA	NA	8	second posttest trial	7	János imád spöközni, ezért sokat spöklik. Mi ritkán...	spöközünk	spöklünk	1	spöklünk	NA	NA	3065	27597	cselekszenek_3_high_reversed	cselekszenek/cselekednek	9	0.5978370007556204	spöklünk	spöközünk	1	ünk	3	8	TRUE	FALSE	NA	NA	FALSE	TRUE	NA	NA	2
spüszlik	0.14310084364067324	hungarian-esp-sleep-2_esp_participant_SESSION_2023-06-20_15h13.44.238.csv	2023-06-20T15:13:00Z	5e1dff99f0b71e166a571d7f	NA	NA	NA	8	second posttest trial	7	Te bizony sokat spüszlesz. Én is sokat...	spüszlöm	spüszlök	0	spüszlöm	NA	NA	6616	54091	lakok_3_high_reversed	lakok/lakom	33	0.14310084364067324	spüszlök	spüszlöm	1	NA	3	28	FALSE	FALSE	NA	NA	TRUE	FALSE	NA	NA	2
sztrajlik / sztrajozik	0.49247648509779424	hungarian-esp-sleep-2_esp_participant_SESSION_2023-06-21_11h51.47.417.csv	2023-06-21T11:51:00Z	607b14f74a8418d7b787ce33	NA	NA	NA	8	second posttest trial	7	János imád sztrajozni, ezért sokat sztrajlik. Ők ritkán...	sztrajlanak	sztrajoznak	1	sztrajoznak	NA	NA	2979	50851	cselekszenek_3_high_reversed	cselekszenek/cselekednek	9	0.49247648509779424	sztrajlanak	sztrajoznak	1	nek	3	11	TRUE	FALSE	NA	NA	FALSE	FALSE	NA	NA	2
sztritlik / sztritozik	0.14310084364067324	hungarian-esp-sleep-2_esp_participant_SESSION_2023-06-21_08h04.54.575.csv	2023-06-21T08:04:00Z	6151b07ac0d164fdd7e53100	NA	NA	NA	8	second posttest trial	7	János imád sztritozni, ezért sokat sztritlik. Ők ritkán...	sztritlanak	sztritoznak	0	sztritlanak	NA	NA	1106	26286	cselekszenek_3_high_reversed	cselekszenek/cselekednek	9	0.14310084364067324	sztritlanak	sztritoznak	1	nek	3	25	FALSE	FALSE	NA	NA	TRUE	TRUE	NA	NA	2
tágarzik / tágarozik	-0.06899287148695143	hungarian-esp-sleep-2_esp_participant_SESSION_2023-06-21_12h11.19.959.csv	2023-06-21T12:11:00Z	5c7cf1adc8c9920015d0bc60	NA	NA	NA	8	second posttest trial	7	János imád tágarozni, ezért sokat tágarzik. Mi ritkán...	tágarozunk	tágarzunk	0	tágarozunk	NA	NA	3121	50984	cselekszenek_3_high_reversed	cselekszenek/cselekednek	9	-0.06899287148695143	tágarzunk	tágarozunk	2	ünk	3	36	FALSE	FALSE	NA	NA	TRUE	FALSE	NA	NA	1
tribejlik / tribejezik	-0.5978370007556204	hungarian-esp-sleep-2_esp_participant_SESSION_2023-06-21_08h42.05.689.csv	2023-06-21T08:42:00Z	6139181353b6c04cb2d95d8d	NA	NA	NA	8	second posttest trial	7	János imád tribejezni, ezért sokat tribejlik. Ti ritkán...	tribejeztek	tribejletek	0	tribejeztek	NA	NA	3947	35620	cselekszenek_3_high_reversed	cselekszenek/cselekednek	9	-0.5978370007556204	tribejletek	tribejeztek	2	tek	3	50	FALSE	TRUE	NA	NA	TRUE	FALSE	NA	NA	2
vihepszik	-0.7472144018302211	hungarian-esp-sleep-2_esp_participant_SESSION_2023-06-20_09h13.53.182.csv	2023-06-20T09:13:00Z	5fd7cd077541e708f2a10aed	NA	NA	NA	8	second posttest trial	7	Te bizony sokat vihepszel. Én is sokat...	vihepszem	vihepszek	1	vihepszek	NA	NA	4975	41045	lakok_3_high_reversed	lakok/lakom	33	-0.7472144018302211	vihepszek	vihepszem	2	NA	3	51	FALSE	TRUE	NA	NA	FALSE	TRUE	NA	NA	2
vihepszik	-0.7472144018302211	hungarian-esp-sleep-2_esp_participant_SESSION_2023-06-20_16h28.04.251.csv	2023-06-20T16:28:00Z	5ca9f1578d77140001bac8dc	NA	NA	NA	8	second posttest trial	7	Te bizony sokat vihepszel. Én is sokat...	vihepszek	vihepszem	0	vihepszek	NA	NA	5570	44666	lakok_3_high_reversed	lakok/lakom	33	-0.7472144018302211	vihepszek	vihepszem	2	NA	3	51	FALSE	TRUE	NA	NA	TRUE	TRUE	NA	NA	2
zödlik	0.7472144018302211	hungarian-esp-sleep-2_esp_participant_SESSION_2023-06-20_08h56.52.861.csv	2023-06-20T08:56:00Z	60bf79a315a10bd3d21b3a96	NA	NA	NA	8	second posttest trial	7	Te bizony sokat zödlesz. Én is sokat...	zödlök	zödlöm	1	zödlöm	NA	NA	4279	56013	lakok_3_high_reversed	lakok/lakom	33	0.7472144018302211	zödlök	zödlöm	1	NA	3	15	TRUE	FALSE	NA	NA	FALSE	FALSE	NA	NA	1
aglik	-0.2076393647782445	hungarian-esp-sleep-2_esp_participant_SESSION_2023-06-20_13h06.15.947.csv	2023-06-20T13:06:00Z	612058b64e8bd208d39fbe68	NA	NA	NA	8	second posttest trial	8	Te bizony sokat aglasz. Én is sokat...	aglok	aglom	0	aglok	NA	NA	4770	85593	lakok_3_high_reversed	lakok/lakom	33	-0.2076393647782445	aglok	aglom	1	NA	3	38	FALSE	FALSE	NA	NA	TRUE	TRUE	NA	NA	3
brarlik	1.1451323043030026	hungarian-esp-sleep-2_esp_participant_SESSION_2023-06-20_08h56.52.861.csv	2023-06-20T08:56:00Z	60bf79a315a10bd3d21b3a96	NA	NA	NA	8	second posttest trial	8	Te bizony sokat brarlasz. Én is sokat...	brarlok	brarlom	1	brarlom	NA	NA	2569	59089	lakok_3_high_reversed	lakok/lakom	33	1.1451323043030026	brarlok	brarlom	1	NA	3	7	TRUE	FALSE	NA	NA	FALSE	FALSE	NA	NA	2
briváglik / brivágozik	-0.2876820724517809	hungarian-esp-sleep-2_esp_participant_SESSION_2023-06-21_11h37.17.295.csv	2023-06-21T11:37:00Z	5f452661c5a1b50a817ab094	NA	NA	NA	8	second posttest trial	8	János imád brivágozni, ezért sokat briváglik. Ők ritkán...	briváglanak	brivágoznak	1	brivágoznak	NA	NA	3484	40149	cselekszenek_3_high_reversed	cselekszenek/cselekednek	9	-0.2876820724517809	briváglanak	brivágoznak	2	nek	3	40	FALSE	TRUE	NA	NA	FALSE	FALSE	NA	NA	3
brivepszik / brivepedik	0.9162907318741552	hungarian-esp-sleep-2_esp_participant_SESSION_2023-06-21_12h09.46.148.csv	2023-06-21T12:09:00Z	5d3c6e745602310001bca8aa	NA	NA	NA	8	second posttest trial	8	János imád brivepedni, ezért sokat brivepszik. Mi ritkán...	brivepszünk	brivepedünk	0	brivepszünk	NA	NA	8384	331915	cselekszenek_3_high_reversed	cselekszenek/cselekednek	9	0.9162907318741552	brivepszünk	brivepedünk	2	ünk	3	1	TRUE	FALSE	NA	NA	TRUE	TRUE	NA	NA	3
drojzik / drojozik	0.32542240043462795	hungarian-esp-sleep-2_esp_participant_SESSION_2023-06-21_13h08.08.328.csv	2023-06-21T13:08:00Z	5e8aefb03d71b0799a8d0f48	NA	NA	NA	8	second posttest trial	8	János imád drojozni, ezért sokat drojzik. Mi ritkán...	drojzunk	drojozunk	1	drojozunk	NA	NA	3911	61501	cselekszenek_3_high_reversed	cselekszenek/cselekednek	9	0.32542240043462795	drojzunk	drojozunk	1	ünk	3	17	FALSE	FALSE	NA	NA	FALSE	FALSE	NA	NA	3
filánylik / filányozik	0	hungarian-esp-sleep-2_esp_participant_SESSION_2023-06-21_11h59.24.738.csv	2023-06-21T11:59:00Z	6044cde18ec25456d2bd9d99	NA	NA	NA	8	second posttest trial	8	János imád filányozni, ezért sokat filánylik. Mi ritkán...	filánylunk	filányozunk	0	filánylunk	NA	NA	885	337246	cselekszenek_3_high_reversed	cselekszenek/cselekednek	9	0	filánylunk	filányozunk	2	ünk	3	30	FALSE	FALSE	NA	NA	TRUE	TRUE	NA	NA	3
fivénylik	0.7419373447293773	hungarian-esp-sleep-2_esp_participant_SESSION_2023-06-20_09h13.53.182.csv	2023-06-20T09:13:00Z	5fd7cd077541e708f2a10aed	NA	NA	NA	8	second posttest trial	8	Te bizony sokat fivénylesz. Én is sokat...	fivénylem	fivénylek	1	fivénylek	NA	NA	5528	47078	lakok_3_high_reversed	lakok/lakom	33	0.7419373447293773	fivénylek	fivénylem	2	NA	3	16	FALSE	FALSE	NA	NA	FALSE	TRUE	NA	NA	3
fivénylik	0.7419373447293773	hungarian-esp-sleep-2_esp_participant_SESSION_2023-06-20_13h28.37.951.csv	2023-06-20T13:28:00Z	605896a739d40fa144496f26	NA	NA	NA	8	second posttest trial	8	Te bizony sokat fivénylesz. Én is sokat...	fivénylem	fivénylek	0	fivénylem	NA	NA	1755	88957	lakok_3_high_reversed	lakok/lakom	33	0.7419373447293773	fivénylek	fivénylem	2	NA	3	16	FALSE	FALSE	NA	NA	TRUE	FALSE	NA	NA	3
flözlik	0.965080896043587	hungarian-esp-sleep-2_esp_participant_SESSION_2023-06-20_16h28.04.251.csv	2023-06-20T16:28:00Z	5ca9f1578d77140001bac8dc	NA	NA	NA	8	second posttest trial	8	Te bizony sokat flözlesz. Én is sokat...	flözlöm	flözlök	1	flözlök	NA	NA	1838	47007	lakok_3_high_reversed	lakok/lakom	33	0.965080896043587	flözlök	flözlöm	1	NA	3	9	TRUE	FALSE	NA	NA	FALSE	TRUE	NA	NA	3
frivajlik	1.2992829841302609	hungarian-esp-sleep-2_esp_participant_SESSION_2023-06-20_10h28.38.451.csv	2023-06-20T10:28:00Z	6140ff9c5750f0081ca8d71f	NA	NA	NA	8	second posttest trial	8	Te bizony sokat frivajlasz. Én is sokat...	frivajlok	frivajlom	0	frivajlok	NA	NA	5273	168919	lakok_3_high_reversed	lakok/lakom	33	1.2992829841302609	frivajlok	frivajlom	2	NA	3	6	TRUE	FALSE	NA	NA	TRUE	TRUE	NA	NA	3
fröjlik / fröjözik	0.32542240043462795	hungarian-esp-sleep-2_esp_participant_SESSION_2023-06-21_12h11.19.959.csv	2023-06-21T12:11:00Z	5c7cf1adc8c9920015d0bc60	NA	NA	NA	8	second posttest trial	8	János imád fröjözni, ezért sokat fröjlik. Mi ritkán...	fröjözünk	fröjlünk	0	fröjözünk	NA	NA	6450	57936	cselekszenek_3_high_reversed	cselekszenek/cselekednek	9	0.32542240043462795	fröjlünk	fröjözünk	1	ünk	3	18	FALSE	FALSE	NA	NA	TRUE	FALSE	NA	NA	2
galárzik / galározik	-0.49247648509779407	hungarian-esp-sleep-2_esp_participant_SESSION_2023-06-21_08h12.22.832.csv	2023-06-21T08:12:00Z	5f338ba6ea047119dbd6e49e	NA	NA	NA	8	second posttest trial	8	János imád galározni, ezért sokat galárzik. Ők ritkán...	galárzanak	galároznak	1	galároznak	NA	NA	3954	70223	cselekszenek_3_high_reversed	cselekszenek/cselekednek	9	-0.49247648509779407	galárzanak	galároznak	2	nek	3	48	FALSE	TRUE	NA	NA	FALSE	FALSE	NA	NA	3
galárzik / galározik	-0.49247648509779407	hungarian-esp-sleep-2_esp_participant_SESSION_2023-06-21_11h03.01.204.csv	2023-06-21T11:03:00Z	5f99dc8aa866bf0bf2d60f46	NA	NA	NA	8	second posttest trial	8	János imád galározni, ezért sokat galárzik. Ők ritkán...	galároznak	galárzanak	0	galároznak	NA	NA	7785	52924	cselekszenek_3_high_reversed	cselekszenek/cselekednek	9	-0.49247648509779407	galárzanak	galároznak	2	nek	3	48	FALSE	TRUE	NA	NA	TRUE	FALSE	NA	NA	3
gilárzik	-0.8938178760220964	hungarian-esp-sleep-2_esp_participant_SESSION_2023-06-20_11h44.38.546.csv	2023-06-20T11:44:00Z	610032aa2ae56976d71d296d	NA	NA	NA	8	second posttest trial	8	Te bizony sokat gilárzol. Én is sokat...	gilárzok	gilárzom	1	gilárzom	NA	NA	2497	169769	lakok_3_high_reversed	lakok/lakom	33	-0.8938178760220964	gilárzok	gilárzom	2	NA	3	52	FALSE	TRUE	NA	NA	FALSE	FALSE	NA	NA	3
gyibakszik	-0.587786664902119	hungarian-esp-sleep-2_esp_participant_SESSION_2023-06-20_12h37.10.182.csv	2023-06-20T12:37:00Z	5f632ea32e85353d93872c67	NA	NA	NA	8	second posttest trial	8	Te bizony sokat gyibakszol. Én is sokat...	gyibakszok	gyibakszom	1	gyibakszom	NA	NA	3917	74873	lakok_3_high_reversed	lakok/lakom	33	-0.587786664902119	gyibakszok	gyibakszom	2	NA	3	46	FALSE	TRUE	NA	NA	FALSE	FALSE	NA	NA	3
gyibakszik	-0.587786664902119	hungarian-esp-sleep-2_esp_participant_SESSION_2023-06-20_16h38.46.274.csv	2023-06-20T16:38:00Z	605bb95e25fb0eb3edfe7c73	NA	NA	NA	8	second posttest trial	8	Te bizony sokat gyibakszol. Én is sokat...	gyibakszok	gyibakszom	0	gyibakszok	NA	NA	3660	180145	lakok_3_high_reversed	lakok/lakom	33	-0.587786664902119	gyibakszok	gyibakszom	2	NA	3	46	FALSE	TRUE	NA	NA	TRUE	TRUE	NA	NA	2
gyivepszik / gyivepedik	0.20763936477824457	hungarian-esp-sleep-2_esp_participant_SESSION_2023-06-21_09h05.41.844.csv	2023-06-21T09:05:00Z	61717173748006894b2b54ff	NA	NA	NA	8	second posttest trial	8	János imád gyivepedni, ezért sokat gyivepszik. Ők ritkán...	gyivepednek	gyivepszenek	0	gyivepednek	NA	NA	7361	57926	cselekszenek_3_high_reversed	cselekszenek/cselekednek	9	0.20763936477824457	gyivepszenek	gyivepednek	2	nek	3	21	FALSE	FALSE	NA	NA	TRUE	FALSE	NA	NA	2
kluzlik / kluzozik	-0.325422400434628	hungarian-esp-sleep-2_esp_participant_SESSION_2023-06-21_11h51.47.417.csv	2023-06-21T11:51:00Z	607b14f74a8418d7b787ce33	NA	NA	NA	8	second posttest trial	8	János imád kluzozni, ezért sokat kluzlik. Ti ritkán...	kluzoztok	kluzlotok	0	kluzoztok	NA	NA	2967	54330	cselekszenek_3_high_reversed	cselekszenek/cselekednek	9	-0.325422400434628	kluzlotok	kluzoztok	1	tek	3	43	FALSE	TRUE	NA	NA	TRUE	FALSE	NA	NA	3
lihadzik	0.1941560144409574	hungarian-esp-sleep-2_esp_participant_SESSION_2023-06-20_09h11.20.328.csv	2023-06-20T09:11:00Z	5f325435f0fc671a7434cabe	NA	NA	NA	8	second posttest trial	8	Te bizony sokat lihadzol. Én is sokat...	lihadzok	lihadzom	1	lihadzom	NA	NA	2646	203052	lakok_3_high_reversed	lakok/lakom	33	0.1941560144409574	lihadzok	lihadzom	2	NA	3	27	FALSE	FALSE	NA	NA	FALSE	FALSE	NA	NA	3
mihágzik / mihágozik	-0.7419373447293773	hungarian-esp-sleep-2_esp_participant_SESSION_2023-06-21_11h31.31.484.csv	2023-06-21T11:31:00Z	566f3979744e3e0005b63481	NA	NA	NA	8	second posttest trial	8	János imád mihágozni, ezért sokat mihágzik. Ti ritkán...	mihágzotok	mihágoztok	0	mihágzotok	NA	NA	4603	47400	cselekszenek_3_high_reversed	cselekszenek/cselekednek	9	-0.7419373447293773	mihágzotok	mihágoztok	2	tek	3	51	FALSE	TRUE	NA	NA	TRUE	TRUE	NA	NA	3
míjzik / míjozik	0.1941560144409574	hungarian-esp-sleep-2_esp_participant_SESSION_2023-06-21_08h04.54.575.csv	2023-06-21T08:04:00Z	6151b07ac0d164fdd7e53100	NA	NA	NA	8	second posttest trial	8	János imád míjozni, ezért sokat míjzik. Mi ritkán...	míjzunk	míjozunk	1	míjozunk	NA	NA	2502	29293	cselekszenek_3_high_reversed	cselekszenek/cselekednek	9	0.1941560144409574	míjzunk	míjozunk	1	ünk	3	23	FALSE	FALSE	NA	NA	FALSE	FALSE	NA	NA	3
plövőrzik	0.06899287148695142	hungarian-esp-sleep-2_esp_participant_SESSION_2023-06-20_14h51.24.919.csv	2023-06-20T14:51:00Z	60febbf6684ed23d1eec2db6	NA	NA	NA	8	second posttest trial	8	Te bizony sokat plövőrzöl. Én is sokat...	plövőrzök	plövőrzöm	0	plövőrzök	NA	NA	2705	42449	lakok_3_high_reversed	lakok/lakom	33	0.06899287148695142	plövőrzök	plövőrzöm	2	NA	3	30	FALSE	FALSE	NA	NA	TRUE	TRUE	NA	NA	3
prohódzik	-1.0560526742493137	hungarian-esp-sleep-2_esp_participant_SESSION_2023-06-20_08h16.02.189.csv	2023-06-20T08:16:00Z	607cabdfb9addc46d23a0f19	NA	NA	NA	8	second posttest trial	8	Te bizony sokat prohódzol. Én is sokat...	prohódzok	prohódzom	1	prohódzom	NA	NA	5761	65057	lakok_3_high_reversed	lakok/lakom	33	-1.0560526742493137	prohódzok	prohódzom	2	NA	3	54	FALSE	TRUE	NA	NA	FALSE	FALSE	NA	NA	3
spatszik	-0.3483066942682157	hungarian-esp-sleep-2_esp_participant_SESSION_2023-06-20_11h36.07.341.csv	2023-06-20T11:36:00Z	5df97fcd11d8796fd29e85e3	NA	NA	NA	8	second posttest trial	8	Te bizony sokat spatszol. Én is sokat...	spatszok	spatszom	0	spatszok	NA	NA	4476	69979	lakok_3_high_reversed	lakok/lakom	33	-0.3483066942682157	spatszok	spatszom	1	NA	3	43	FALSE	TRUE	NA	NA	TRUE	TRUE	NA	NA	3
spatszik	-0.3483066942682157	hungarian-esp-sleep-2_esp_participant_SESSION_2023-06-20_17h13.50.637.csv	2023-06-20T17:13:00Z	5ef5f78600093427dfd5e120	NA	NA	NA	8	second posttest trial	8	Te bizony sokat spatszol. Én is sokat...	spatszok	spatszom	1	spatszom	NA	NA	4167	98725	lakok_3_high_reversed	lakok/lakom	33	-0.3483066942682157	spatszok	spatszom	1	NA	3	43	FALSE	TRUE	NA	NA	FALSE	FALSE	NA	NA	3
sprálszik	-0.2876820724517809	hungarian-esp-sleep-2_esp_participant_SESSION_2023-06-20_10h48.54.386.csv	2023-06-20T10:48:00Z	608adf0cc8637f7f395352b1	NA	NA	NA	8	second posttest trial	8	Te bizony sokat sprálszol. Én is sokat...	sprálszom	sprálszok	1	sprálszok	NA	NA	3856	106494	lakok_3_high_reversed	lakok/lakom	33	-0.2876820724517809	sprálszok	sprálszom	1	NA	3	40	FALSE	TRUE	NA	NA	FALSE	TRUE	NA	NA	3
spülöklik	0.28768207245178085	hungarian-esp-sleep-2_esp_participant_SESSION_2023-06-20_09h05.09.759.csv	2023-06-20T09:05:00Z	6107aa76ee9845023fb0cb80	NA	NA	NA	8	second posttest trial	8	Te bizony sokat spülöklesz. Én is sokat...	spülöklök	spülöklöm	0	spülöklök	NA	NA	3086	64529	lakok_3_high_reversed	lakok/lakom	33	0.28768207245178085	spülöklök	spülöklöm	2	NA	3	26	FALSE	FALSE	NA	NA	TRUE	TRUE	NA	NA	3
spülőrzik	0.5877866649021191	hungarian-esp-sleep-2_esp_participant_SESSION_2023-06-20_15h13.44.238.csv	2023-06-20T15:13:00Z	5e1dff99f0b71e166a571d7f	NA	NA	NA	8	second posttest trial	8	Te bizony sokat spülőrzöl. Én is sokat...	spülőrzök	spülőrzöm	1	spülőrzöm	NA	NA	5052	59659	lakok_3_high_reversed	lakok/lakom	33	0.5877866649021191	spülőrzök	spülőrzöm	2	NA	3	20	FALSE	FALSE	NA	NA	FALSE	FALSE	NA	NA	3
spüszlik	0.14310084364067324	hungarian-esp-sleep-2_esp_participant_SESSION_2023-06-20_16h31.46.693.csv	2023-06-20T16:31:00Z	60d3acd071e98de7a42743ac	NA	NA	NA	8	second posttest trial	8	Te bizony sokat spüszlesz. Én is sokat...	spüszlök	spüszlöm	1	spüszlöm	NA	NA	5170	78801	lakok_3_high_reversed	lakok/lakom	33	0.14310084364067324	spüszlök	spüszlöm	1	NA	3	28	FALSE	FALSE	NA	NA	FALSE	FALSE	NA	NA	3
sztrajlik / sztrajozik	0.49247648509779424	hungarian-esp-sleep-2_esp_participant_SESSION_2023-06-21_09h17.44.350.csv	2023-06-21T09:17:00Z	60ef5b1cf52939a80af77543	NA	NA	NA	8	second posttest trial	8	János imád sztrajozni, ezért sokat sztrajlik. Ők ritkán...	sztrajoznak	sztrajlanak	0	sztrajoznak	NA	NA	3153	31259	cselekszenek_3_high_reversed	cselekszenek/cselekednek	9	0.49247648509779424	sztrajlanak	sztrajoznak	1	nek	3	11	TRUE	FALSE	NA	NA	TRUE	FALSE	NA	NA	3
sztrajlik / sztrajozik	0.49247648509779424	hungarian-esp-sleep-2_esp_participant_SESSION_2023-06-21_11h12.42.107.csv	2023-06-21T11:12:00Z	60fddc9ee6bb457b10b9a7ae	NA	NA	NA	8	second posttest trial	8	János imád sztrajozni, ezért sokat sztrajlik. Ők ritkán...	sztrajoznak	sztrajlanak	1	sztrajlanak	NA	NA	5586	146606	cselekszenek_3_high_reversed	cselekszenek/cselekednek	9	0.49247648509779424	sztrajlanak	sztrajoznak	1	nek	3	11	TRUE	FALSE	NA	NA	FALSE	TRUE	NA	NA	3
tibarzik / tibarozik	0	hungarian-esp-sleep-2_esp_participant_SESSION_2023-06-21_08h42.05.689.csv	2023-06-21T08:42:00Z	6139181353b6c04cb2d95d8d	NA	NA	NA	8	second posttest trial	8	János imád tibarozni, ezért sokat tibarzik. Ők ritkán...	tibarzanak	tibaroznak	0	tibarzanak	NA	NA	2280	38416	cselekszenek_3_high_reversed	cselekszenek/cselekednek	9	0	tibarzanak	tibaroznak	2	nek	3	31	FALSE	FALSE	NA	NA	TRUE	TRUE	NA	NA	3
tibarzik / tibarozik	0	hungarian-esp-sleep-2_esp_participant_SESSION_2023-06-21_13h14.12.882.csv	2023-06-21T13:14:00Z	61080f315a313dab03ea1cde	NA	NA	NA	8	second posttest trial	8	János imád tibarozni, ezért sokat tibarzik. Ők ritkán...	tibaroznak	tibarzanak	0	tibaroznak	NA	NA	2076	26584	cselekszenek_3_high_reversed	cselekszenek/cselekednek	9	0	tibarzanak	tibaroznak	2	nek	3	31	FALSE	FALSE	NA	NA	TRUE	FALSE	NA	NA	3
trihagzik	-0.6418538861723948	hungarian-esp-sleep-2_esp_participant_SESSION_2023-06-20_12h41.55.226.csv	2023-06-20T12:41:00Z	5df2235d5a34251266ea645e	NA	NA	NA	8	second posttest trial	8	Te bizony sokat trihagzol. Én is sokat...	trihagzok	trihagzom	1	trihagzom	NA	NA	1386	40405	lakok_3_high_reversed	lakok/lakom	33	-0.6418538861723948	trihagzok	trihagzom	2	NA	3	50	FALSE	TRUE	NA	NA	FALSE	FALSE	NA	NA	2
vihepszik	-0.7472144018302211	hungarian-esp-sleep-2_esp_participant_SESSION_2023-06-20_09h23.38.663.csv	2023-06-20T09:23:00Z	600e8770316e2671811f49ac	NA	NA	NA	8	second posttest trial	8	Te bizony sokat vihepszel. Én is sokat...	vihepszem	vihepszek	1	vihepszek	NA	NA	1591	24082	lakok_3_high_reversed	lakok/lakom	33	-0.7472144018302211	vihepszek	vihepszem	2	NA	3	51	FALSE	TRUE	NA	NA	FALSE	TRUE	NA	NA	3
brüszlik / brüszözik	-0.2076393647782445	hungarian-esp-sleep-2_esp_participant_SESSION_2023-06-21_11h31.31.484.csv	2023-06-21T11:31:00Z	566f3979744e3e0005b63481	NA	NA	NA	8	second posttest trial	9	János imád brüszözni, ezért sokat brüszlik. Ti ritkán...	brüszlötök	brüszöztök	0	brüszlötök	NA	NA	3531	51447	cselekszenek_3_high_reversed	cselekszenek/cselekednek	9	-0.2076393647782445	brüszlötök	brüszöztök	1	tek	3	39	FALSE	FALSE	NA	NA	TRUE	TRUE	NA	NA	4
féjzik	0.4353180712578455	hungarian-esp-sleep-2_esp_participant_SESSION_2023-06-20_09h13.53.182.csv	2023-06-20T09:13:00Z	5fd7cd077541e708f2a10aed	NA	NA	NA	8	second posttest trial	9	Te bizony sokat féjzel. Én is sokat...	féjzek	féjzem	0	féjzek	NA	NA	3283	50861	lakok_3_high_reversed	lakok/lakom	33	0.4353180712578455	féjzek	féjzem	1	NA	3	22	FALSE	FALSE	NA	NA	TRUE	TRUE	NA	NA	4
filánylik / filányozik	0	hungarian-esp-sleep-2_esp_participant_SESSION_2023-06-21_08h42.05.689.csv	2023-06-21T08:42:00Z	6139181353b6c04cb2d95d8d	NA	NA	NA	8	second posttest trial	9	János imád filányozni, ezért sokat filánylik. Mi ritkán...	filányozunk	filánylunk	1	filánylunk	NA	NA	2772	41701	cselekszenek_3_high_reversed	cselekszenek/cselekednek	9	0	filánylunk	filányozunk	2	ünk	3	30	FALSE	FALSE	NA	NA	FALSE	TRUE	NA	NA	4
fivénylik	0.7419373447293773	hungarian-esp-sleep-2_esp_participant_SESSION_2023-06-20_11h36.07.341.csv	2023-06-20T11:36:00Z	5df97fcd11d8796fd29e85e3	NA	NA	NA	8	second posttest trial	9	Te bizony sokat fivénylesz. Én is sokat...	fivénylek	fivénylem	0	fivénylek	NA	NA	2203	72683	lakok_3_high_reversed	lakok/lakom	33	0.7419373447293773	fivénylek	fivénylem	2	NA	3	16	FALSE	FALSE	NA	NA	TRUE	TRUE	NA	NA	4
frivamlik / frivamozik	0.7419373447293773	hungarian-esp-sleep-2_esp_participant_SESSION_2023-06-21_11h37.17.295.csv	2023-06-21T11:37:00Z	5f452661c5a1b50a817ab094	NA	NA	NA	8	second posttest trial	9	János imád frivamozni, ezért sokat frivamlik. Mi ritkán...	frivamlunk	frivamozunk	1	frivamozunk	NA	NA	2227	42886	cselekszenek_3_high_reversed	cselekszenek/cselekednek	9	0.7419373447293773	frivamlunk	frivamozunk	2	ünk	3	4	TRUE	FALSE	NA	NA	FALSE	FALSE	NA	NA	4
galárzik / galározik	-0.49247648509779407	hungarian-esp-sleep-2_esp_participant_SESSION_2023-06-21_11h01.50.895.csv	2023-06-21T11:01:00Z	6153f8761fb770e105403eaa	NA	NA	NA	8	second posttest trial	9	János imád galározni, ezért sokat galárzik. Ők ritkán...	galárzanak	galároznak	1	galároznak	NA	NA	8891	114337	cselekszenek_3_high_reversed	cselekszenek/cselekednek	9	-0.49247648509779407	galárzanak	galároznak	2	nek	3	48	FALSE	TRUE	NA	NA	FALSE	FALSE	NA	NA	1
gilárzik	-0.8938178760220964	hungarian-esp-sleep-2_esp_participant_SESSION_2023-06-20_08h16.02.189.csv	2023-06-20T08:16:00Z	607cabdfb9addc46d23a0f19	NA	NA	NA	8	second posttest trial	9	Te bizony sokat gilárzol. Én is sokat...	gilárzok	gilárzom	0	gilárzok	NA	NA	4437	70009	lakok_3_high_reversed	lakok/lakom	33	-0.8938178760220964	gilárzok	gilárzom	2	NA	3	52	FALSE	TRUE	NA	NA	TRUE	TRUE	NA	NA	4
gilárzik	-0.8938178760220964	hungarian-esp-sleep-2_esp_participant_SESSION_2023-06-20_09h23.38.663.csv	2023-06-20T09:23:00Z	600e8770316e2671811f49ac	NA	NA	NA	8	second posttest trial	9	Te bizony sokat gilárzol. Én is sokat...	gilárzom	gilárzok	1	gilárzok	NA	NA	1288	25874	lakok_3_high_reversed	lakok/lakom	33	-0.8938178760220964	gilárzok	gilárzom	2	NA	3	52	FALSE	TRUE	NA	NA	FALSE	TRUE	NA	NA	4
gyivádzik	-0.6418538861723948	hungarian-esp-sleep-2_esp_participant_SESSION_2023-06-20_16h38.46.274.csv	2023-06-20T16:38:00Z	605bb95e25fb0eb3edfe7c73	NA	NA	NA	8	second posttest trial	9	Te bizony sokat gyivádzol. Én is sokat...	gyivádzok	gyivádzom	0	gyivádzok	NA	NA	2978	183626	lakok_3_high_reversed	lakok/lakom	33	-0.6418538861723948	gyivádzok	gyivádzom	2	NA	3	49	FALSE	TRUE	NA	NA	TRUE	TRUE	NA	NA	3
gyivepszik / gyivepedik	0.20763936477824457	hungarian-esp-sleep-2_esp_participant_SESSION_2023-06-21_11h03.01.204.csv	2023-06-21T11:03:00Z	5f99dc8aa866bf0bf2d60f46	NA	NA	NA	8	second posttest trial	9	János imád gyivepedni, ezért sokat gyivepszik. Ők ritkán...	gyivepszenek	gyivepednek	0	gyivepszenek	NA	NA	6628	60054	cselekszenek_3_high_reversed	cselekszenek/cselekednek	9	0.20763936477824457	gyivepszenek	gyivepednek	2	nek	3	21	FALSE	FALSE	NA	NA	TRUE	TRUE	NA	NA	4
hákszik / hákodik	0.06453852113757116	hungarian-esp-sleep-2_esp_participant_SESSION_2023-06-21_11h12.42.107.csv	2023-06-21T11:12:00Z	60fddc9ee6bb457b10b9a7ae	NA	NA	NA	8	second posttest trial	9	János imád hákodni, ezért sokat hákszik. Ők ritkán...	hákszanak	hákodnak	0	hákszanak	NA	NA	5443	152559	cselekszenek_3_high_reversed	cselekszenek/cselekednek	9	0.06453852113757116	hákszanak	hákodnak	1	nek	3	29	FALSE	FALSE	NA	NA	TRUE	TRUE	NA	NA	4
huklik	-0.06899287148695143	hungarian-esp-sleep-2_esp_participant_SESSION_2023-06-20_16h31.46.693.csv	2023-06-20T16:31:00Z	60d3acd071e98de7a42743ac	NA	NA	NA	8	second posttest trial	9	Te bizony sokat huklasz. Én is sokat...	huklok	huklom	0	huklok	NA	NA	3962	83273	lakok_3_high_reversed	lakok/lakom	33	-0.06899287148695143	huklok	huklom	1	NA	3	35	FALSE	FALSE	NA	NA	TRUE	TRUE	NA	NA	4
kumlik	1.6486586255873816	hungarian-esp-sleep-2_esp_participant_SESSION_2023-06-20_15h13.44.238.csv	2023-06-20T15:13:00Z	5e1dff99f0b71e166a571d7f	NA	NA	NA	8	second posttest trial	9	Te bizony sokat kumlasz. Én is sokat...	kumlok	kumlom	1	kumlom	NA	NA	7138	67299	lakok_3_high_reversed	lakok/lakom	33	1.6486586255873816	kumlok	kumlom	1	NA	3	3	TRUE	FALSE	NA	NA	FALSE	FALSE	NA	NA	4
lihadzik	0.1941560144409574	hungarian-esp-sleep-2_esp_participant_SESSION_2023-06-20_17h13.50.637.csv	2023-06-20T17:13:00Z	5ef5f78600093427dfd5e120	NA	NA	NA	8	second posttest trial	9	Te bizony sokat lihadzol. Én is sokat...	lihadzok	lihadzom	1	lihadzom	NA	NA	4002	103232	lakok_3_high_reversed	lakok/lakom	33	0.1941560144409574	lihadzok	lihadzom	2	NA	3	27	FALSE	FALSE	NA	NA	FALSE	FALSE	NA	NA	4
plágadzik	-0.4353180712578455	hungarian-esp-sleep-2_esp_participant_SESSION_2023-06-20_16h28.04.251.csv	2023-06-20T16:28:00Z	5ca9f1578d77140001bac8dc	NA	NA	NA	8	second posttest trial	9	Te bizony sokat plágadzol. Én is sokat...	plágadzok	plágadzom	0	plágadzok	NA	NA	2575	50085	lakok_3_high_reversed	lakok/lakom	33	-0.4353180712578455	plágadzok	plágadzom	2	NA	3	44	FALSE	TRUE	NA	NA	TRUE	TRUE	NA	NA	4
pörzik / pörözik	-0.3483066942682157	hungarian-esp-sleep-2_esp_participant_SESSION_2023-06-21_08h12.22.832.csv	2023-06-21T08:12:00Z	5f338ba6ea047119dbd6e49e	NA	NA	NA	8	second posttest trial	9	János imád pörözni, ezért sokat pörzik. Ti ritkán...	pörzötök	pöröztök	1	pöröztök	NA	NA	8106	78839	cselekszenek_3_high_reversed	cselekszenek/cselekednek	9	-0.3483066942682157	pörzötök	pöröztök	1	tek	3	45	FALSE	TRUE	NA	NA	FALSE	FALSE	NA	NA	4
prazlik / prazozik	-0.1941560144409575	hungarian-esp-sleep-2_esp_participant_SESSION_2023-06-21_12h11.19.959.csv	2023-06-21T12:11:00Z	5c7cf1adc8c9920015d0bc60	NA	NA	NA	8	second posttest trial	9	János imád prazozni, ezért sokat prazlik. Mi ritkán...	prazlunk	prazozunk	1	prazozunk	NA	NA	4125	62576	cselekszenek_3_high_reversed	cselekszenek/cselekednek	9	-0.1941560144409575	prazlunk	prazozunk	1	ünk	3	38	FALSE	FALSE	NA	NA	FALSE	FALSE	NA	NA	3
préleglik	0.6418538861723947	hungarian-esp-sleep-2_esp_participant_SESSION_2023-06-20_11h44.38.546.csv	2023-06-20T11:44:00Z	610032aa2ae56976d71d296d	NA	NA	NA	8	second posttest trial	9	Te bizony sokat préleglesz. Én is sokat...	préleglek	préleglem	1	préleglem	NA	NA	3924	174205	lakok_3_high_reversed	lakok/lakom	33	0.6418538861723947	préleglek	préleglem	2	NA	3	19	FALSE	FALSE	NA	NA	FALSE	FALSE	NA	NA	4
préleglik	0.6418538861723947	hungarian-esp-sleep-2_esp_participant_SESSION_2023-06-20_12h37.10.182.csv	2023-06-20T12:37:00Z	5f632ea32e85353d93872c67	NA	NA	NA	8	second posttest trial	9	Te bizony sokat préleglesz. Én is sokat...	préleglek	préleglem	1	préleglem	NA	NA	4086	79461	lakok_3_high_reversed	lakok/lakom	33	0.6418538861723947	préleglek	préleglem	2	NA	3	19	FALSE	FALSE	NA	NA	FALSE	FALSE	NA	NA	4
prezlik	0.9162907318741552	hungarian-esp-sleep-2_esp_participant_SESSION_2023-06-20_10h48.54.386.csv	2023-06-20T10:48:00Z	608adf0cc8637f7f395352b1	NA	NA	NA	8	second posttest trial	9	Te bizony sokat prezlesz. Én is sokat...	prezlek	prezlem	1	prezlem	NA	NA	4111	111114	lakok_3_high_reversed	lakok/lakom	33	0.9162907318741552	prezlek	prezlem	1	NA	3	11	TRUE	FALSE	NA	NA	FALSE	FALSE	NA	NA	4
pugoslik	0.965080896043587	hungarian-esp-sleep-2_esp_participant_SESSION_2023-06-20_09h11.20.328.csv	2023-06-20T09:11:00Z	5f325435f0fc671a7434cabe	NA	NA	NA	8	second posttest trial	9	Te bizony sokat pugoslasz. Én is sokat...	pugoslom	pugoslok	1	pugoslok	NA	NA	1888	205444	lakok_3_high_reversed	lakok/lakom	33	0.965080896043587	pugoslok	pugoslom	2	NA	3	10	TRUE	FALSE	NA	NA	FALSE	TRUE	NA	NA	4
spalárzik / spalározik	-0.1431008436406733	hungarian-esp-sleep-2_esp_participant_SESSION_2023-06-21_11h59.24.738.csv	2023-06-21T11:59:00Z	6044cde18ec25456d2bd9d99	NA	NA	NA	8	second posttest trial	9	János imád spalározni, ezért sokat spalárzik. Ők ritkán...	spalárzanak	spalároznak	1	spalároznak	NA	NA	2101	339860	cselekszenek_3_high_reversed	cselekszenek/cselekednek	9	-0.1431008436406733	spalárzanak	spalároznak	2	nek	3	37	FALSE	FALSE	NA	NA	FALSE	FALSE	NA	NA	4
spalárzik / spalározik	-0.1431008436406733	hungarian-esp-sleep-2_esp_participant_SESSION_2023-06-21_12h09.46.148.csv	2023-06-21T12:09:00Z	5d3c6e745602310001bca8aa	NA	NA	NA	8	second posttest trial	9	János imád spalározni, ezért sokat spalárzik. Ők ritkán...	spalárzanak	spalároznak	1	spalároznak	NA	NA	6063	338481	cselekszenek_3_high_reversed	cselekszenek/cselekednek	9	-0.1431008436406733	spalárzanak	spalároznak	2	nek	3	37	FALSE	FALSE	NA	NA	FALSE	FALSE	NA	NA	4
spatszik	-0.3483066942682157	hungarian-esp-sleep-2_esp_participant_SESSION_2023-06-20_13h06.15.947.csv	2023-06-20T13:06:00Z	612058b64e8bd208d39fbe68	NA	NA	NA	8	second posttest trial	9	Te bizony sokat spatszol. Én is sokat...	spatszok	spatszom	1	spatszom	NA	NA	3700	89801	lakok_3_high_reversed	lakok/lakom	33	-0.3483066942682157	spatszok	spatszom	1	NA	3	43	FALSE	TRUE	NA	NA	FALSE	FALSE	NA	NA	4
spírzik	0	hungarian-esp-sleep-2_esp_participant_SESSION_2023-06-20_12h41.55.226.csv	2023-06-20T12:41:00Z	5df2235d5a34251266ea645e	NA	NA	NA	8	second posttest trial	9	Te bizony sokat spírzol. Én is sokat...	spírzom	spírzok	0	spírzom	NA	NA	1414	42319	lakok_3_high_reversed	lakok/lakom	33	0	spírzok	spírzom	1	NA	3	34	FALSE	FALSE	NA	NA	TRUE	FALSE	NA	NA	3
spöklik / spöközik	0.5978370007556204	hungarian-esp-sleep-2_esp_participant_SESSION_2023-06-21_13h08.08.328.csv	2023-06-21T13:08:00Z	5e8aefb03d71b0799a8d0f48	NA	NA	NA	8	second posttest trial	9	János imád spöközni, ezért sokat spöklik. Mi ritkán...	spöközünk	spöklünk	1	spöklünk	NA	NA	3442	65444	cselekszenek_3_high_reversed	cselekszenek/cselekednek	9	0.5978370007556204	spöklünk	spöközünk	1	ünk	3	8	TRUE	FALSE	NA	NA	FALSE	TRUE	NA	NA	4
sprédlik	2.159484249353372	hungarian-esp-sleep-2_esp_participant_SESSION_2023-06-20_13h28.37.951.csv	2023-06-20T13:28:00Z	605896a739d40fa144496f26	NA	NA	NA	8	second posttest trial	9	Te bizony sokat sprédlesz. Én is sokat...	sprédlek	sprédlem	1	sprédlem	NA	NA	1436	90902	lakok_3_high_reversed	lakok/lakom	33	2.159484249353372	sprédlek	sprédlem	1	NA	3	1	TRUE	FALSE	NA	NA	FALSE	FALSE	NA	NA	4
sprigzik / sprigozik	-1.4271163556401458	hungarian-esp-sleep-2_esp_participant_SESSION_2023-06-21_13h14.12.882.csv	2023-06-21T13:14:00Z	61080f315a313dab03ea1cde	NA	NA	NA	8	second posttest trial	9	János imád sprigozni, ezért sokat sprigzik. Ti ritkán...	sprigzotok	sprigoztok	1	sprigoztok	NA	NA	1425	28516	cselekszenek_3_high_reversed	cselekszenek/cselekednek	9	-1.4271163556401458	sprigzotok	sprigoztok	1	tek	3	54	FALSE	TRUE	NA	NA	FALSE	FALSE	NA	NA	4
spülőrzik	0.5877866649021191	hungarian-esp-sleep-2_esp_participant_SESSION_2023-06-20_14h51.24.919.csv	2023-06-20T14:51:00Z	60febbf6684ed23d1eec2db6	NA	NA	NA	8	second posttest trial	9	Te bizony sokat spülőrzöl. Én is sokat...	spülőrzök	spülőrzöm	1	spülőrzöm	NA	NA	2052	45001	lakok_3_high_reversed	lakok/lakom	33	0.5877866649021191	spülőrzök	spülőrzöm	2	NA	3	20	FALSE	FALSE	NA	NA	FALSE	FALSE	NA	NA	4
sztrajlik / sztrajozik	0.49247648509779424	hungarian-esp-sleep-2_esp_participant_SESSION_2023-06-21_08h04.54.575.csv	2023-06-21T08:04:00Z	6151b07ac0d164fdd7e53100	NA	NA	NA	8	second posttest trial	9	János imád sztrajozni, ezért sokat sztrajlik. Ők ritkán...	sztrajoznak	sztrajlanak	1	sztrajlanak	NA	NA	2573	32380	cselekszenek_3_high_reversed	cselekszenek/cselekednek	9	0.49247648509779424	sztrajlanak	sztrajoznak	1	nek	3	11	TRUE	FALSE	NA	NA	FALSE	TRUE	NA	NA	4
sztritlik / sztritozik	0.14310084364067324	hungarian-esp-sleep-2_esp_participant_SESSION_2023-06-21_11h51.47.417.csv	2023-06-21T11:51:00Z	607b14f74a8418d7b787ce33	NA	NA	NA	8	second posttest trial	9	János imád sztritozni, ezért sokat sztritlik. Ők ritkán...	sztritlanak	sztritoznak	1	sztritoznak	NA	NA	2614	57445	cselekszenek_3_high_reversed	cselekszenek/cselekednek	9	0.14310084364067324	sztritlanak	sztritoznak	1	nek	3	25	FALSE	FALSE	NA	NA	FALSE	FALSE	NA	NA	4
sztruglik	0.4353180712578455	hungarian-esp-sleep-2_esp_participant_SESSION_2023-06-20_08h56.52.861.csv	2023-06-20T08:56:00Z	60bf79a315a10bd3d21b3a96	NA	NA	NA	8	second posttest trial	9	Te bizony sokat sztruglasz. Én is sokat...	sztruglom	sztruglok	1	sztruglok	NA	NA	1948	61541	lakok_3_high_reversed	lakok/lakom	33	0.4353180712578455	sztruglok	sztruglom	1	NA	3	23	FALSE	FALSE	NA	NA	FALSE	TRUE	NA	NA	3
táklik	-0.2876820724517809	hungarian-esp-sleep-2_esp_participant_SESSION_2023-06-20_10h28.38.451.csv	2023-06-20T10:28:00Z	6140ff9c5750f0081ca8d71f	NA	NA	NA	8	second posttest trial	9	Te bizony sokat táklasz. Én is sokat...	táklok	táklom	1	táklom	NA	NA	2078	171505	lakok_3_high_reversed	lakok/lakom	33	-0.2876820724517809	táklok	táklom	1	NA	3	41	FALSE	TRUE	NA	NA	FALSE	FALSE	NA	NA	4
tribejlik / tribejezik	-0.5978370007556204	hungarian-esp-sleep-2_esp_participant_SESSION_2023-06-21_09h17.44.350.csv	2023-06-21T09:17:00Z	60ef5b1cf52939a80af77543	NA	NA	NA	8	second posttest trial	9	János imád tribejezni, ezért sokat tribejlik. Ti ritkán...	tribejeztek	tribejletek	0	tribejeztek	NA	NA	3268	35030	cselekszenek_3_high_reversed	cselekszenek/cselekednek	9	-0.5978370007556204	tribejletek	tribejeztek	2	tek	3	50	FALSE	TRUE	NA	NA	TRUE	FALSE	NA	NA	4
zödlik	0.7472144018302211	hungarian-esp-sleep-2_esp_participant_SESSION_2023-06-20_09h05.09.759.csv	2023-06-20T09:05:00Z	6107aa76ee9845023fb0cb80	NA	NA	NA	8	second posttest trial	9	Te bizony sokat zödlesz. Én is sokat...	zödlök	zödlöm	1	zödlöm	NA	NA	2901	67935	lakok_3_high_reversed	lakok/lakom	33	0.7472144018302211	zödlök	zödlöm	1	NA	3	15	TRUE	FALSE	NA	NA	FALSE	FALSE	NA	NA	4
bregzik / bregezik	0.49247648509779424	hungarian-esp-sleep-2_esp_participant_SESSION_2023-06-21_08h42.05.689.csv	2023-06-21T08:42:00Z	6139181353b6c04cb2d95d8d	NA	NA	NA	8	second posttest trial	10	János imád bregezni, ezért sokat bregzik. Mi ritkán...	bregezünk	bregzünk	1	bregzünk	NA	NA	2673	44886	cselekszenek_3_high_reversed	cselekszenek/cselekednek	9	0.49247648509779424	bregzünk	bregezünk	1	ünk	3	10	TRUE	FALSE	NA	NA	FALSE	TRUE	NA	NA	5
bregzik / bregezik	0.49247648509779424	hungarian-esp-sleep-2_esp_participant_SESSION_2023-06-21_09h17.44.350.csv	2023-06-21T09:17:00Z	60ef5b1cf52939a80af77543	NA	NA	NA	8	second posttest trial	10	János imád bregezni, ezért sokat bregzik. Mi ritkán...	bregzünk	bregezünk	0	bregzünk	NA	NA	2838	38369	cselekszenek_3_high_reversed	cselekszenek/cselekednek	9	0.49247648509779424	bregzünk	bregezünk	1	ünk	3	10	TRUE	FALSE	NA	NA	TRUE	TRUE	NA	NA	5
drivegzik / drivegezik	-0.4353180712578455	hungarian-esp-sleep-2_esp_participant_SESSION_2023-06-21_11h37.17.295.csv	2023-06-21T11:37:00Z	5f452661c5a1b50a817ab094	NA	NA	NA	8	second posttest trial	10	János imád drivegezni, ezért sokat drivegzik. Ti ritkán...	drivegzetek	drivegeztek	1	drivegeztek	NA	NA	2879	46279	cselekszenek_3_high_reversed	cselekszenek/cselekednek	9	-0.4353180712578455	drivegzetek	drivegeztek	2	tek	3	46	FALSE	TRUE	NA	NA	FALSE	FALSE	NA	NA	5
drojzik / drojozik	0.32542240043462795	hungarian-esp-sleep-2_esp_participant_SESSION_2023-06-21_12h09.46.148.csv	2023-06-21T12:09:00Z	5d3c6e745602310001bca8aa	NA	NA	NA	8	second posttest trial	10	János imád drojozni, ezért sokat drojzik. Mi ritkán...	drojozunk	drojzunk	1	drojzunk	NA	NA	8432	347415	cselekszenek_3_high_reversed	cselekszenek/cselekednek	9	0.32542240043462795	drojzunk	drojozunk	1	ünk	3	17	FALSE	FALSE	NA	NA	FALSE	TRUE	NA	NA	5
féjzik	0.4353180712578455	hungarian-esp-sleep-2_esp_participant_SESSION_2023-06-20_08h16.02.189.csv	2023-06-20T08:16:00Z	607cabdfb9addc46d23a0f19	NA	NA	NA	8	second posttest trial	10	Te bizony sokat féjzel. Én is sokat...	féjzek	féjzem	0	féjzek	NA	NA	4977	75488	lakok_3_high_reversed	lakok/lakom	33	0.4353180712578455	féjzek	féjzem	1	NA	3	22	FALSE	FALSE	NA	NA	TRUE	TRUE	NA	NA	5
féjzik	0.4353180712578455	hungarian-esp-sleep-2_esp_participant_SESSION_2023-06-20_16h28.04.251.csv	2023-06-20T16:28:00Z	5ca9f1578d77140001bac8dc	NA	NA	NA	8	second posttest trial	10	Te bizony sokat féjzel. Én is sokat...	féjzem	féjzek	1	féjzek	NA	NA	2312	52905	lakok_3_high_reversed	lakok/lakom	33	0.4353180712578455	féjzek	féjzem	1	NA	3	22	FALSE	FALSE	NA	NA	FALSE	TRUE	NA	NA	5
fliraklik	0	hungarian-esp-sleep-2_esp_participant_SESSION_2023-06-20_10h48.54.386.csv	2023-06-20T10:48:00Z	608adf0cc8637f7f395352b1	NA	NA	NA	8	second posttest trial	10	Te bizony sokat fliraklasz. Én is sokat...	fliraklom	fliraklok	1	fliraklok	NA	NA	4191	115807	lakok_3_high_reversed	lakok/lakom	33	0	fliraklok	fliraklom	2	NA	3	32	FALSE	FALSE	NA	NA	FALSE	TRUE	NA	NA	5
floglik	0.4595323293784402	hungarian-esp-sleep-2_esp_participant_SESSION_2023-06-20_11h44.38.546.csv	2023-06-20T11:44:00Z	610032aa2ae56976d71d296d	NA	NA	NA	8	second posttest trial	10	Te bizony sokat floglasz. Én is sokat...	floglom	floglok	0	floglom	NA	NA	2392	177109	lakok_3_high_reversed	lakok/lakom	33	0.4595323293784402	floglok	floglom	1	NA	3	21	FALSE	FALSE	NA	NA	TRUE	FALSE	NA	NA	5
floglik	0.4595323293784402	hungarian-esp-sleep-2_esp_participant_SESSION_2023-06-20_12h37.10.182.csv	2023-06-20T12:37:00Z	5f632ea32e85353d93872c67	NA	NA	NA	8	second posttest trial	10	Te bizony sokat floglasz. Én is sokat...	floglok	floglom	0	floglok	NA	NA	3497	83459	lakok_3_high_reversed	lakok/lakom	33	0.4595323293784402	floglok	floglom	1	NA	3	21	FALSE	FALSE	NA	NA	TRUE	TRUE	NA	NA	5
fluboklik / flubokozik	-0.5978370007556204	hungarian-esp-sleep-2_esp_participant_SESSION_2023-06-21_08h12.22.832.csv	2023-06-21T08:12:00Z	5f338ba6ea047119dbd6e49e	NA	NA	NA	8	second posttest trial	10	János imád flubokozni, ezért sokat fluboklik. Ti ritkán...	flubokoztok	fluboklotok	0	flubokoztok	NA	NA	3644	82997	cselekszenek_3_high_reversed	cselekszenek/cselekednek	9	-0.5978370007556204	fluboklotok	flubokoztok	2	tek	3	49	FALSE	TRUE	NA	NA	TRUE	FALSE	NA	NA	5
fréslik / frésezik	0.5978370007556204	hungarian-esp-sleep-2_esp_participant_SESSION_2023-06-21_11h03.01.204.csv	2023-06-21T11:03:00Z	5f99dc8aa866bf0bf2d60f46	NA	NA	NA	8	second posttest trial	10	János imád frésezni, ezért sokat fréslik. Mi ritkán...	fréslünk	frésezünk	0	fréslünk	NA	NA	4482	65054	cselekszenek_3_high_reversed	cselekszenek/cselekednek	9	0.5978370007556204	fréslünk	frésezünk	1	ünk	3	7	TRUE	FALSE	NA	NA	TRUE	TRUE	NA	NA	5
friszlik	0.06453852113757116	hungarian-esp-sleep-2_esp_participant_SESSION_2023-06-20_15h13.44.238.csv	2023-06-20T15:13:00Z	5e1dff99f0b71e166a571d7f	NA	NA	NA	8	second posttest trial	10	Te bizony sokat friszlasz. Én is sokat...	friszlom	friszlok	0	friszlom	NA	NA	1572	69379	lakok_3_high_reversed	lakok/lakom	33	0.06453852113757116	friszlok	friszlom	1	NA	3	31	FALSE	FALSE	NA	NA	TRUE	FALSE	NA	NA	5
galárzik / galározik	-0.49247648509779407	hungarian-esp-sleep-2_esp_participant_SESSION_2023-06-21_12h11.19.959.csv	2023-06-21T12:11:00Z	5c7cf1adc8c9920015d0bc60	NA	NA	NA	8	second posttest trial	10	János imád galározni, ezért sokat galárzik. Ők ritkán...	galárzanak	galároznak	1	galároznak	NA	NA	3534	66624	cselekszenek_3_high_reversed	cselekszenek/cselekednek	9	-0.49247648509779407	galárzanak	galároznak	2	nek	3	48	FALSE	TRUE	NA	NA	FALSE	FALSE	NA	NA	4
gatáglik / gatágozik	-0.7985076962177716	hungarian-esp-sleep-2_esp_participant_SESSION_2023-06-21_13h08.08.328.csv	2023-06-21T13:08:00Z	5e8aefb03d71b0799a8d0f48	NA	NA	NA	8	second posttest trial	10	János imád gatágozni, ezért sokat gatáglik. Mi ritkán...	gatáglunk	gatágozunk	1	gatágozunk	NA	NA	9008	74955	cselekszenek_3_high_reversed	cselekszenek/cselekednek	9	-0.7985076962177716	gatáglunk	gatágozunk	2	ünk	3	52	FALSE	TRUE	NA	NA	FALSE	FALSE	NA	NA	5
gyivepszik / gyivepedik	0.20763936477824457	hungarian-esp-sleep-2_esp_participant_SESSION_2023-06-21_13h14.12.882.csv	2023-06-21T13:14:00Z	61080f315a313dab03ea1cde	NA	NA	NA	8	second posttest trial	10	János imád gyivepedni, ezért sokat gyivepszik. Ők ritkán...	gyivepednek	gyivepszenek	1	gyivepszenek	NA	NA	736	29760	cselekszenek_3_high_reversed	cselekszenek/cselekednek	9	0.20763936477824457	gyivepszenek	gyivepednek	2	nek	3	21	FALSE	FALSE	NA	NA	FALSE	TRUE	NA	NA	5
huklik	-0.06899287148695143	hungarian-esp-sleep-2_esp_participant_SESSION_2023-06-20_13h28.37.951.csv	2023-06-20T13:28:00Z	605896a739d40fa144496f26	NA	NA	NA	8	second posttest trial	10	Te bizony sokat huklasz. Én is sokat...	huklom	huklok	0	huklom	NA	NA	1871	93289	lakok_3_high_reversed	lakok/lakom	33	-0.06899287148695143	huklok	huklom	1	NA	3	35	FALSE	FALSE	NA	NA	TRUE	FALSE	NA	NA	5
klidlik	0.8938178760220965	hungarian-esp-sleep-2_esp_participant_SESSION_2023-06-20_14h51.24.919.csv	2023-06-20T14:51:00Z	60febbf6684ed23d1eec2db6	NA	NA	NA	8	second posttest trial	10	Te bizony sokat klidlasz. Én is sokat...	klidlom	klidlok	0	klidlom	NA	NA	1961	47464	lakok_3_high_reversed	lakok/lakom	33	0.8938178760220965	klidlok	klidlom	1	NA	3	12	TRUE	FALSE	NA	NA	TRUE	FALSE	NA	NA	5
lírlik / lírozik	-0.06453852113757118	hungarian-esp-sleep-2_esp_participant_SESSION_2023-06-21_11h59.24.738.csv	2023-06-21T11:59:00Z	6044cde18ec25456d2bd9d99	NA	NA	NA	8	second posttest trial	10	János imád lírozni, ezért sokat lírlik. Ők ritkán...	lírlanak	líroznak	1	líroznak	NA	NA	3679	344048	cselekszenek_3_high_reversed	cselekszenek/cselekednek	9	-0.06453852113757118	lírlanak	líroznak	1	nek	3	33	FALSE	FALSE	NA	NA	FALSE	FALSE	NA	NA	5
plövőrzik	0.06899287148695142	hungarian-esp-sleep-2_esp_participant_SESSION_2023-06-20_09h05.09.759.csv	2023-06-20T09:05:00Z	6107aa76ee9845023fb0cb80	NA	NA	NA	8	second posttest trial	10	Te bizony sokat plövőrzöl. Én is sokat...	plövőrzök	plövőrzöm	0	plövőrzök	NA	NA	2841	71280	lakok_3_high_reversed	lakok/lakom	33	0.06899287148695142	plövőrzök	plövőrzöm	2	NA	3	30	FALSE	FALSE	NA	NA	TRUE	TRUE	NA	NA	5
plövőrzik	0.06899287148695142	hungarian-esp-sleep-2_esp_participant_SESSION_2023-06-20_09h23.38.663.csv	2023-06-20T09:23:00Z	600e8770316e2671811f49ac	NA	NA	NA	8	second posttest trial	10	Te bizony sokat plövőrzöl. Én is sokat...	plövőrzöm	plövőrzök	1	plövőrzök	NA	NA	1238	27626	lakok_3_high_reversed	lakok/lakom	33	0.06899287148695142	plövőrzök	plövőrzöm	2	NA	3	30	FALSE	FALSE	NA	NA	FALSE	TRUE	NA	NA	5
pörzik / pörözik	-0.3483066942682157	hungarian-esp-sleep-2_esp_participant_SESSION_2023-06-21_09h05.41.844.csv	2023-06-21T09:05:00Z	61717173748006894b2b54ff	NA	NA	NA	8	second posttest trial	10	János imád pörözni, ezért sokat pörzik. Ti ritkán...	pöröztök	pörzötök	0	pöröztök	NA	NA	6207	74216	cselekszenek_3_high_reversed	cselekszenek/cselekednek	9	-0.3483066942682157	pörzötök	pöröztök	1	tek	3	45	FALSE	TRUE	NA	NA	TRUE	FALSE	NA	NA	3
prilepszik / prilepedik	0.8938178760220965	hungarian-esp-sleep-2_esp_participant_SESSION_2023-06-21_08h04.54.575.csv	2023-06-21T08:04:00Z	6151b07ac0d164fdd7e53100	NA	NA	NA	8	second posttest trial	10	János imád prilepedni, ezért sokat prilepszik. Mi ritkán...	prilepedünk	prilepszünk	0	prilepedünk	NA	NA	935	33823	cselekszenek_3_high_reversed	cselekszenek/cselekednek	9	0.8938178760220965	prilepszünk	prilepedünk	2	ünk	3	2	TRUE	FALSE	NA	NA	TRUE	FALSE	NA	NA	5
prohódzik	-1.0560526742493137	hungarian-esp-sleep-2_esp_participant_SESSION_2023-06-20_17h13.50.637.csv	2023-06-20T17:13:00Z	5ef5f78600093427dfd5e120	NA	NA	NA	8	second posttest trial	10	Te bizony sokat prohódzol. Én is sokat...	prohódzok	prohódzom	1	prohódzom	NA	NA	3989	107725	lakok_3_high_reversed	lakok/lakom	33	-1.0560526742493137	prohódzok	prohódzom	2	NA	3	54	FALSE	TRUE	NA	NA	FALSE	FALSE	NA	NA	5
pugoslik	0.965080896043587	hungarian-esp-sleep-2_esp_participant_SESSION_2023-06-20_12h41.55.226.csv	2023-06-20T12:41:00Z	5df2235d5a34251266ea645e	NA	NA	NA	8	second posttest trial	10	Te bizony sokat pugoslasz. Én is sokat...	pugoslok	pugoslom	1	pugoslom	NA	NA	2596	45417	lakok_3_high_reversed	lakok/lakom	33	0.965080896043587	pugoslok	pugoslom	2	NA	3	10	TRUE	FALSE	NA	NA	FALSE	FALSE	NA	NA	4
spibádzik	-0.2076393647782445	hungarian-esp-sleep-2_esp_participant_SESSION_2023-06-20_13h06.15.947.csv	2023-06-20T13:06:00Z	612058b64e8bd208d39fbe68	NA	NA	NA	8	second posttest trial	10	Te bizony sokat spibádzol. Én is sokat...	spibádzom	spibádzok	0	spibádzom	NA	NA	2914	93217	lakok_3_high_reversed	lakok/lakom	33	-0.2076393647782445	spibádzok	spibádzom	2	NA	3	39	FALSE	FALSE	NA	NA	TRUE	FALSE	NA	NA	5
sprálszik	-0.2876820724517809	hungarian-esp-sleep-2_esp_participant_SESSION_2023-06-20_08h56.52.861.csv	2023-06-20T08:56:00Z	60bf79a315a10bd3d21b3a96	NA	NA	NA	8	second posttest trial	10	Te bizony sokat sprálszol. Én is sokat...	sprálszok	sprálszom	1	sprálszom	NA	NA	5031	67089	lakok_3_high_reversed	lakok/lakom	33	-0.2876820724517809	sprálszok	sprálszom	1	NA	3	40	FALSE	TRUE	NA	NA	FALSE	FALSE	NA	NA	4
sztruglik	0.4353180712578455	hungarian-esp-sleep-2_esp_participant_SESSION_2023-06-20_10h28.38.451.csv	2023-06-20T10:28:00Z	6140ff9c5750f0081ca8d71f	NA	NA	NA	8	second posttest trial	10	Te bizony sokat sztruglasz. Én is sokat...	sztruglom	sztruglok	0	sztruglom	NA	NA	4291	176312	lakok_3_high_reversed	lakok/lakom	33	0.4353180712578455	sztruglok	sztruglom	1	NA	3	23	FALSE	FALSE	NA	NA	TRUE	FALSE	NA	NA	5
sztruglik	0.4353180712578455	hungarian-esp-sleep-2_esp_participant_SESSION_2023-06-20_16h38.46.274.csv	2023-06-20T16:38:00Z	605bb95e25fb0eb3edfe7c73	NA	NA	NA	8	second posttest trial	10	Te bizony sokat sztruglasz. Én is sokat...	sztruglok	sztruglom	1	sztruglom	NA	NA	3490	187626	lakok_3_high_reversed	lakok/lakom	33	0.4353180712578455	sztruglok	sztruglom	1	NA	3	23	FALSE	FALSE	NA	NA	FALSE	FALSE	NA	NA	4
trűnylik / trűnyözik	0	hungarian-esp-sleep-2_esp_participant_SESSION_2023-06-21_11h31.31.484.csv	2023-06-21T11:31:00Z	566f3979744e3e0005b63481	NA	NA	NA	8	second posttest trial	10	János imád trűnyözni, ezért sokat trűnylik. Ők ritkán...	trűnylenek	trűnyöznek	0	trűnylenek	NA	NA	3642	55591	cselekszenek_3_high_reversed	cselekszenek/cselekednek	9	0	trűnylenek	trűnyöznek	1	nek	3	32	FALSE	FALSE	NA	NA	TRUE	TRUE	NA	NA	5
tuboklik	0.4353180712578455	hungarian-esp-sleep-2_esp_participant_SESSION_2023-06-20_09h13.53.182.csv	2023-06-20T09:13:00Z	5fd7cd077541e708f2a10aed	NA	NA	NA	8	second posttest trial	10	Te bizony sokat tuboklasz. Én is sokat...	tuboklok	tuboklom	0	tuboklok	NA	NA	4326	55693	lakok_3_high_reversed	lakok/lakom	33	0.4353180712578455	tuboklok	tuboklom	2	NA	3	24	FALSE	FALSE	NA	NA	TRUE	TRUE	NA	NA	5
vobzik / vobozik	-0.2876820724517809	hungarian-esp-sleep-2_esp_participant_SESSION_2023-06-21_11h51.47.417.csv	2023-06-21T11:51:00Z	607b14f74a8418d7b787ce33	NA	NA	NA	8	second posttest trial	10	János imád vobozni, ezért sokat vobzik. Ti ritkán...	voboztok	vobzotok	0	voboztok	NA	NA	2585	60543	cselekszenek_3_high_reversed	cselekszenek/cselekednek	9	-0.2876820724517809	vobzotok	voboztok	1	tek	3	42	FALSE	TRUE	NA	NA	TRUE	FALSE	NA	NA	5
zödlik	0.7472144018302211	hungarian-esp-sleep-2_esp_participant_SESSION_2023-06-20_11h36.07.341.csv	2023-06-20T11:36:00Z	5df97fcd11d8796fd29e85e3	NA	NA	NA	8	second posttest trial	10	Te bizony sokat zödlesz. Én is sokat...	zödlök	zödlöm	0	zödlök	NA	NA	6228	79415	lakok_3_high_reversed	lakok/lakom	33	0.7472144018302211	zödlök	zödlöm	1	NA	3	15	TRUE	FALSE	NA	NA	TRUE	TRUE	NA	NA	5
böjzik	0.14310084364067324	hungarian-esp_esp_participant_SESSION_2023-06-19_17h24.45.272.csv	2023-06-19T17:24:00Z	612058b64e8bd208d39fbe68	Nő	2000	16	2	esp trial	11	Te bizony sokat böjzöl. Én is sokat...	böjzöm	böjzök	0	böjzöm	böjzöm	TRUE	5749	161920	lakok_1_low_reversed	lakok/lakom	27	0.14310084364067324	böjzök	böjzöm	1	NA	1	28	FALSE	FALSE	low	reversed	TRUE	FALSE	FALSE	TRUE	1
brágaklik	-0.325422400434628	hungarian-esp_esp_participant_SESSION_2023-06-19_17h25.58.14.csv	2023-06-19T17:25:00Z	610032aa2ae56976d71d296d	nő	2001	16	2	esp trial	11	Te bizony sokat brágaklasz. Én is sokat...	brágaklok	brágaklom	0	brágaklok	brágaklok	TRUE	7873	92795	lakok_1_low_reversed	lakok/lakom	27	-0.325422400434628	brágaklok	brágaklom	2	NA	1	42	FALSE	TRUE	low	reversed	TRUE	TRUE	TRUE	FALSE	1
brárlik / brározik	0.14310084364067324	hungarian-esp-sleep-2_esp_participant_SESSION_2023-06-21_13h14.12.882.csv	2023-06-21T13:14:00Z	61080f315a313dab03ea1cde	NA	NA	NA	8	second posttest trial	11	János imád brározni, ezért sokat brárlik. Ők ritkán...	brároznak	brárlanak	0	brároznak	NA	NA	719	30986	cselekszenek_3_high_reversed	cselekszenek/cselekednek	9	0.14310084364067324	brárlanak	brároznak	1	nek	3	24	FALSE	FALSE	NA	NA	TRUE	FALSE	NA	NA	6
bribaslik / bribasozik	-0.3483066942682157	hungarian-esp_esp_participant_SESSION_2023-06-20_18h47.41.894.csv	2023-06-20T18:47:00Z	6139181353b6c04cb2d95d8d	férfi	2003	14	2	esp trial	11	János imád bribasozni, ezért sokat bribaslik. Ők ritkán...	bribaslanak	bribasoznak	1	bribasoznak	bribaslanak	FALSE	10773	173325	cselekszenek_1_low_reversed	cselekszenek/cselekednek	3	-0.3483066942682157	bribaslanak	bribasoznak	2	nek	1	44	FALSE	TRUE	low	reversed	FALSE	FALSE	TRUE	TRUE	1
bribékszik / bribékedik	-0.1941560144409575	hungarian-esp_esp_participant_SESSION_2023-06-20_19h53.44.72.csv	2023-06-20T19:53:00Z	5f338ba6ea047119dbd6e49e	Férfi	1995	16	2	esp trial	11	János imád bribékedni, ezért sokat bribékszik. Ti ritkán...	bribékedtek	bribékszetek	0	bribékedtek	bribékedtek	TRUE	3466	146385	cselekszenek_1_low_reversed	cselekszenek/cselekednek	3	-0.1941560144409575	bribékszetek	bribékedtek	2	tek	1	38	FALSE	FALSE	low	reversed	TRUE	FALSE	FALSE	TRUE	1
briváglik / brivágozik	-0.2876820724517809	hungarian-esp-sleep-2_esp_participant_SESSION_2023-06-21_12h09.46.148.csv	2023-06-21T12:09:00Z	5d3c6e745602310001bca8aa	NA	NA	NA	8	second posttest trial	11	János imád brivágozni, ezért sokat briváglik. Ők ritkán...	briváglanak	brivágoznak	1	brivágoznak	NA	NA	4205	352122	cselekszenek_3_high_reversed	cselekszenek/cselekednek	9	-0.2876820724517809	briváglanak	brivágoznak	2	nek	3	40	FALSE	TRUE	NA	NA	FALSE	FALSE	NA	NA	6
brürzik / brürözik	-0.1431008436406733	hungarian-esp_esp_participant_SESSION_2023-06-20_18h50.39.987.csv	2023-06-20T18:50:00Z	5f452661c5a1b50a817ab094	férfi	1999	12	2	esp trial	11	János imád brürözni, ezért sokat brürzik. Ők ritkán...	brüröznek	brürzenek	0	brüröznek	brüröznek	TRUE	3539	90158	cselekszenek_1_low_reversed	cselekszenek/cselekednek	3	-0.1431008436406733	brürzenek	brüröznek	1	nek	1	37	FALSE	FALSE	low	reversed	TRUE	FALSE	FALSE	TRUE	1
dibáglik / dibágozik	0.1941560144409574	hungarian-esp_esp_participant_SESSION_2023-06-20_19h37.21.139.csv	2023-06-20T19:37:00Z	5f99dc8aa866bf0bf2d60f46	férfi	2001	15	2	esp trial	11	János imád dibágozni, ezért sokat dibáglik. Ti ritkán...	dibágoztok	dibáglotok	1	dibáglotok	dibágoztok	FALSE	7428	452076	cselekszenek_1_low_reversed	cselekszenek/cselekednek	3	0.1941560144409574	dibáglotok	dibágoztok	2	tek	1	23	FALSE	FALSE	low	reversed	FALSE	TRUE	FALSE	FALSE	1
féjzik	0.4353180712578455	hungarian-esp-sleep-2_esp_participant_SESSION_2023-06-20_11h44.38.546.csv	2023-06-20T11:44:00Z	610032aa2ae56976d71d296d	NA	NA	NA	8	second posttest trial	11	Te bizony sokat féjzel. Én is sokat...	féjzem	féjzek	1	féjzek	NA	NA	1033	178661	lakok_3_high_reversed	lakok/lakom	33	0.4353180712578455	féjzek	féjzem	1	NA	3	22	FALSE	FALSE	NA	NA	FALSE	TRUE	NA	NA	6
fivénylik	0.7419373447293773	hungarian-esp-sleep-2_esp_participant_SESSION_2023-06-20_09h05.09.759.csv	2023-06-20T09:05:00Z	6107aa76ee9845023fb0cb80	NA	NA	NA	8	second posttest trial	11	Te bizony sokat fivénylesz. Én is sokat...	fivénylek	fivénylem	0	fivénylek	NA	NA	2443	74229	lakok_3_high_reversed	lakok/lakom	33	0.7419373447293773	fivénylek	fivénylem	2	NA	3	16	FALSE	FALSE	NA	NA	TRUE	TRUE	NA	NA	6
flagánylik	1.0560526742493137	hungarian-esp_esp_participant_SESSION_2023-06-19_17h21.38.129.csv	2023-06-19T17:21:00Z	6140ff9c5750f0081ca8d71f	férfi	2001	15	2	esp trial	11	Te bizony sokat flagánylasz. Én is sokat...	flagánylok	flagánylom	0	flagánylok	flagánylom	FALSE	5365	283368	lakok_1_low_reversed	lakok/lakom	27	1.0560526742493137	flagánylok	flagánylom	2	NA	1	9	TRUE	FALSE	low	reversed	TRUE	TRUE	FALSE	FALSE	1
flérlik	1.5686159179138452	hungarian-esp-sleep-2_esp_participant_SESSION_2023-06-20_11h36.07.341.csv	2023-06-20T11:36:00Z	5df97fcd11d8796fd29e85e3	NA	NA	NA	8	second posttest trial	11	Te bizony sokat flérlesz. Én is sokat...	flérlek	flérlem	0	flérlek	NA	NA	4136	84053	lakok_3_high_reversed	lakok/lakom	33	1.5686159179138452	flérlek	flérlem	1	NA	3	4	TRUE	FALSE	NA	NA	TRUE	TRUE	NA	NA	6
flözlik	0.965080896043587	hungarian-esp-sleep-2_esp_participant_SESSION_2023-06-20_15h13.44.238.csv	2023-06-20T15:13:00Z	5e1dff99f0b71e166a571d7f	NA	NA	NA	8	second posttest trial	11	Te bizony sokat flözlesz. Én is sokat...	flözlöm	flözlök	0	flözlöm	NA	NA	1080	70971	lakok_3_high_reversed	lakok/lakom	33	0.965080896043587	flözlök	flözlöm	1	NA	3	9	TRUE	FALSE	NA	NA	TRUE	FALSE	NA	NA	6
flözlik	0.965080896043587	hungarian-esp-sleep-2_esp_participant_SESSION_2023-06-20_17h13.50.637.csv	2023-06-20T17:13:00Z	5ef5f78600093427dfd5e120	NA	NA	NA	8	second posttest trial	11	Te bizony sokat flözlesz. Én is sokat...	flözlök	flözlöm	0	flözlök	NA	NA	2818	111048	lakok_3_high_reversed	lakok/lakom	33	0.965080896043587	flözlök	flözlöm	1	NA	3	9	TRUE	FALSE	NA	NA	TRUE	TRUE	NA	NA	6
flűröklik	0.32542240043462795	hungarian-esp_esp_participant_SESSION_2023-06-19_17h24.08.75.csv	2023-06-19T17:24:00Z	605896a739d40fa144496f26	férfi	1999	16	2	esp trial	11	Te bizony sokat flűröklesz. Én is sokat...	flűröklöm	flűröklök	1	flűröklök	flűröklöm	FALSE	7177	235258	lakok_1_low_reversed	lakok/lakom	27	0.32542240043462795	flűröklök	flűröklöm	2	NA	1	26	FALSE	FALSE	low	reversed	FALSE	TRUE	FALSE	FALSE	1
frilegszik	-0.2876820724517809	hungarian-esp_esp_participant_SESSION_2023-06-19_17h25.05.820.csv	2023-06-19T17:25:00Z	608adf0cc8637f7f395352b1	férfi	2000	145	2	esp trial	11	Te bizony sokat frilegszel. Én is sokat...	frilegszek	frilegszem	0	frilegszek	frilegszek	TRUE	7422	178465	lakok_1_low_reversed	lakok/lakom	27	-0.2876820724517809	frilegszek	frilegszem	2	NA	1	40	FALSE	TRUE	low	reversed	TRUE	TRUE	TRUE	FALSE	1
friszlik	0.06453852113757116	hungarian-esp-sleep-2_esp_participant_SESSION_2023-06-20_08h56.52.861.csv	2023-06-20T08:56:00Z	60bf79a315a10bd3d21b3a96	NA	NA	NA	8	second posttest trial	11	Te bizony sokat friszlasz. Én is sokat...	friszlom	friszlok	1	friszlok	NA	NA	2498	70101	lakok_3_high_reversed	lakok/lakom	33	0.06453852113757116	friszlok	friszlom	1	NA	3	31	FALSE	FALSE	NA	NA	FALSE	TRUE	NA	NA	5
frivamlik / frivamozik	0.7419373447293773	hungarian-esp-sleep-2_esp_participant_SESSION_2023-06-21_11h59.24.738.csv	2023-06-21T11:59:00Z	6044cde18ec25456d2bd9d99	NA	NA	NA	8	second posttest trial	11	János imád frivamozni, ezért sokat frivamlik. Mi ritkán...	frivamlunk	frivamozunk	0	frivamlunk	NA	NA	2009	346566	cselekszenek_3_high_reversed	cselekszenek/cselekednek	9	0.7419373447293773	frivamlunk	frivamozunk	2	ünk	3	4	TRUE	FALSE	NA	NA	TRUE	TRUE	NA	NA	6
gihamlik / gihamozik	0.32542240043462795	hungarian-esp_esp_participant_SESSION_2023-06-20_18h56.11.750.csv	2023-06-20T18:56:00Z	60da38f17aa096bb17c836e5	férfi	2003	14	2	esp trial	11	János imád gihamozni, ezért sokat gihamlik. Ők ritkán...	gihamlanak	gihamoznak	0	gihamlanak	gihamoznak	FALSE	8704	145980	cselekszenek_1_low_reversed	cselekszenek/cselekednek	3	0.32542240043462795	gihamlanak	gihamoznak	2	nek	1	19	FALSE	FALSE	low	reversed	TRUE	TRUE	FALSE	FALSE	1
gyivepszik / gyivepedik	0.20763936477824457	hungarian-esp-sleep-2_esp_participant_SESSION_2023-06-21_08h42.05.689.csv	2023-06-21T08:42:00Z	6139181353b6c04cb2d95d8d	NA	NA	NA	8	second posttest trial	11	János imád gyivepedni, ezért sokat gyivepszik. Ők ritkán...	gyivepednek	gyivepszenek	1	gyivepszenek	NA	NA	3969	49372	cselekszenek_3_high_reversed	cselekszenek/cselekednek	9	0.20763936477824457	gyivepszenek	gyivepednek	2	nek	3	21	FALSE	FALSE	NA	NA	FALSE	TRUE	NA	NA	6
hilarzik	0.06899287148695142	hungarian-esp_esp_participant_SESSION_2023-06-19_17h22.40.51.csv	2023-06-19T17:22:00Z	5f632ea32e85353d93872c67	Férfi	1999	13	2	esp trial	11	Te bizony sokat hilarzol. Én is sokat...	hilarzom	hilarzok	1	hilarzok	hilarzom	FALSE	4443	227613	lakok_1_low_reversed	lakok/lakom	27	0.06899287148695142	hilarzok	hilarzom	2	NA	1	30	FALSE	FALSE	low	reversed	FALSE	TRUE	FALSE	FALSE	1
ibáglik	0.6418538861723947	hungarian-esp-sleep-2_esp_participant_SESSION_2023-06-20_16h28.04.251.csv	2023-06-20T16:28:00Z	5ca9f1578d77140001bac8dc	NA	NA	NA	8	second posttest trial	11	Te bizony sokat ibáglasz. Én is sokat...	ibáglok	ibáglom	0	ibáglok	NA	NA	3533	56940	lakok_3_high_reversed	lakok/lakom	33	0.6418538861723947	ibáglok	ibáglom	2	NA	3	18	FALSE	FALSE	NA	NA	TRUE	TRUE	NA	NA	6
jurlik / jurozik	0.06899287148695142	hungarian-esp_esp_participant_SESSION_2023-06-20_21h04.43.810.csv	2023-06-20T21:04:00Z	61717173748006894b2b54ff	Férfi	2003	12	2	esp trial	11	János imád jurozni, ezért sokat jurlik. Mi ritkán...	jurlunk	jurozunk	0	jurlunk	jurozunk	FALSE	11347	112322	cselekszenek_1_low_reversed	cselekszenek/cselekednek	3	0.06899287148695142	jurlunk	jurozunk	1	ünk	1	28	FALSE	FALSE	low	reversed	TRUE	TRUE	FALSE	FALSE	1
jüslik	0.965080896043587	hungarian-esp_esp_participant_SESSION_2023-06-19_17h21.19.780.csv	2023-06-19T17:21:00Z	607cabdfb9addc46d23a0f19	férfi	1997	16	2	esp trial	11	Te bizony sokat jüslesz. Én is sokat...	jüslök	jüslöm	0	jüslök	jüslöm	FALSE	9062	151772	lakok_1_low_reversed	lakok/lakom	27	0.965080896043587	jüslök	jüslöm	1	NA	1	10	TRUE	FALSE	low	reversed	TRUE	TRUE	FALSE	FALSE	1
klárzik	0	hungarian-esp-sleep-2_esp_participant_SESSION_2023-06-20_13h28.37.951.csv	2023-06-20T13:28:00Z	605896a739d40fa144496f26	NA	NA	NA	8	second posttest trial	11	Te bizony sokat klárzol. Én is sokat...	klárzom	klárzok	1	klárzok	NA	NA	2057	95852	lakok_3_high_reversed	lakok/lakom	33	0	klárzok	klárzom	1	NA	3	33	FALSE	FALSE	NA	NA	FALSE	TRUE	NA	NA	6
klidlik	0.8938178760220965	hungarian-esp-sleep-2_esp_participant_SESSION_2023-06-20_16h31.46.693.csv	2023-06-20T16:31:00Z	60d3acd071e98de7a42743ac	NA	NA	NA	8	second posttest trial	11	Te bizony sokat klidlasz. Én is sokat...	klidlom	klidlok	1	klidlok	NA	NA	4050	97361	lakok_3_high_reversed	lakok/lakom	33	0.8938178760220965	klidlok	klidlom	1	NA	3	12	TRUE	FALSE	NA	NA	FALSE	TRUE	NA	NA	5
klihaslik / klihasozik	-0.2076393647782445	hungarian-esp_esp_participant_SESSION_2023-06-20_21h15.51.957.csv	2023-06-20T21:15:00Z	61080f315a313dab03ea1cde	Férfi	1997	12	2	esp trial	11	János imád klihasozni, ezért sokat klihaslik. Ti ritkán...	klihasoztok	klihaslotok	0	klihasoztok	klihaslotok	FALSE	11201	125881	cselekszenek_1_low_reversed	cselekszenek/cselekednek	3	-0.2076393647782445	klihaslotok	klihasoztok	2	tek	1	40	FALSE	TRUE	low	reversed	TRUE	FALSE	TRUE	TRUE	1
kluzlik / kluzozik	-0.325422400434628	hungarian-esp-sleep-2_esp_participant_SESSION_2023-06-21_11h37.17.295.csv	2023-06-21T11:37:00Z	5f452661c5a1b50a817ab094	NA	NA	NA	8	second posttest trial	11	János imád kluzozni, ezért sokat kluzlik. Ti ritkán...	kluzoztok	kluzlotok	0	kluzoztok	NA	NA	5098	51883	cselekszenek_3_high_reversed	cselekszenek/cselekednek	9	-0.325422400434628	kluzlotok	kluzoztok	1	tek	3	43	FALSE	TRUE	NA	NA	TRUE	FALSE	NA	NA	6
lírlik / lírozik	-0.06453852113757118	hungarian-esp-sleep-2_esp_participant_SESSION_2023-06-21_08h04.54.575.csv	2023-06-21T08:04:00Z	6151b07ac0d164fdd7e53100	NA	NA	NA	8	second posttest trial	11	János imád lírozni, ezért sokat lírlik. Ők ritkán...	líroznak	lírlanak	1	lírlanak	NA	NA	1206	35531	cselekszenek_3_high_reversed	cselekszenek/cselekednek	9	-0.06453852113757118	lírlanak	líroznak	1	nek	3	33	FALSE	FALSE	NA	NA	FALSE	TRUE	NA	NA	6
livaklik	-0.9650808960435872	hungarian-esp-sleep-2_esp_participant_SESSION_2023-06-20_12h41.55.226.csv	2023-06-20T12:41:00Z	5df2235d5a34251266ea645e	NA	NA	NA	8	second posttest trial	11	Te bizony sokat livaklasz. Én is sokat...	livaklok	livaklom	1	livaklom	NA	NA	979	46904	lakok_3_high_reversed	lakok/lakom	33	-0.9650808960435872	livaklok	livaklom	2	NA	3	53	FALSE	TRUE	NA	NA	FALSE	FALSE	NA	NA	5
málapszik	-0.06899287148695143	hungarian-esp_esp_participant_SESSION_2023-06-19_17h19.19.189.csv	2023-06-19T17:19:00Z	5df2235d5a34251266ea645e	férfi	1997	16	2	esp trial	11	Te bizony sokat málapszol. Én is sokat...	málapszok	málapszom	0	málapszok	málapszom	FALSE	8907	195850	lakok_1_low_reversed	lakok/lakom	27	-0.06899287148695143	málapszok	málapszom	2	NA	1	36	FALSE	FALSE	low	reversed	TRUE	TRUE	FALSE	FALSE	1
málapszik	-0.06899287148695143	hungarian-esp_esp_participant_SESSION_2023-06-19_17h21.25.415.csv	2023-06-19T17:21:00Z	5f325435f0fc671a7434cabe	férfi	1995	12	2	esp trial	11	Te bizony sokat málapszol. Én is sokat...	málapszok	málapszom	0	málapszok	málapszom	FALSE	5003	108090	lakok_1_low_reversed	lakok/lakom	27	-0.06899287148695143	málapszok	málapszom	2	NA	1	36	FALSE	FALSE	low	reversed	TRUE	TRUE	FALSE	FALSE	1
marzik	0.7985076962177716	hungarian-esp_esp_participant_SESSION_2023-06-19_17h33.43.402.csv	2023-06-19T17:33:00Z	5ca9f1578d77140001bac8dc	Férfi	2003	12	2	esp trial	11	Te bizony sokat marzol. Én is sokat...	marzom	marzok	1	marzok	marzom	FALSE	6341	215135	lakok_1_low_reversed	lakok/lakom	27	0.7985076962177716	marzok	marzom	1	NA	1	14	TRUE	FALSE	low	reversed	FALSE	TRUE	FALSE	FALSE	1
mihágzik / mihágozik	-0.7419373447293773	hungarian-esp-sleep-2_esp_participant_SESSION_2023-06-21_12h11.19.959.csv	2023-06-21T12:11:00Z	5c7cf1adc8c9920015d0bc60	NA	NA	NA	8	second posttest trial	11	János imád mihágozni, ezért sokat mihágzik. Ti ritkán...	mihágoztok	mihágzotok	0	mihágoztok	NA	NA	6241	73368	cselekszenek_3_high_reversed	cselekszenek/cselekednek	9	-0.7419373447293773	mihágzotok	mihágoztok	2	tek	3	51	FALSE	TRUE	NA	NA	TRUE	FALSE	NA	NA	5
míslik / mísozik	0.3483066942682158	hungarian-esp-sleep-2_esp_participant_SESSION_2023-06-21_08h12.22.832.csv	2023-06-21T08:12:00Z	5f338ba6ea047119dbd6e49e	NA	NA	NA	8	second posttest trial	11	János imád mísozni, ezért sokat míslik. Mi ritkán...	mísozunk	míslunk	0	mísozunk	NA	NA	2744	86243	cselekszenek_3_high_reversed	cselekszenek/cselekednek	9	0.3483066942682158	míslunk	mísozunk	1	ünk	3	16	FALSE	FALSE	NA	NA	TRUE	FALSE	NA	NA	6
nivárzik / nivározik	-0.916290731874155	hungarian-esp_esp_participant_SESSION_2023-06-20_21h25.10.912.csv	2023-06-20T21:25:00Z	60ef5b1cf52939a80af77543	Férfi	2003	13	2	esp trial	11	János imád nivározni, ezért sokat nivárzik. Ti ritkán...	nivároztok	nivárzotok	1	nivárzotok	nivárzotok	TRUE	7355	360937	cselekszenek_1_low_reversed	cselekszenek/cselekednek	3	-0.916290731874155	nivárzotok	nivároztok	2	tek	1	54	FALSE	TRUE	low	reversed	FALSE	TRUE	TRUE	FALSE	1
nuroklik / nurokozik	0.7419373447293773	hungarian-esp_esp_participant_SESSION_2023-06-20_19h45.34.709.csv	2023-06-20T19:45:00Z	6102d6a4846fa9b51f427c47	nő	1997	16	2	esp trial	11	János imád nurokozni, ezért sokat nuroklik. Mi ritkán...	nuroklunk	nurokozunk	0	nuroklunk	nurokozunk	FALSE	4696	185589	cselekszenek_1_low_reversed	cselekszenek/cselekednek	3	0.7419373447293773	nuroklunk	nurokozunk	2	ünk	1	5	TRUE	FALSE	low	reversed	TRUE	TRUE	FALSE	FALSE	1
nyizlik / nyizozik	0.6418538861723947	hungarian-esp_esp_participant_SESSION_2023-06-20_18h46.41.723.csv	2023-06-20T18:46:00Z	5e8aefb03d71b0799a8d0f48	Férfi	1995	19	2	esp trial	11	János imád nyizozni, ezért sokat nyizlik. Mi ritkán...	nyizlunk	nyizozunk	0	nyizlunk	nyizozunk	FALSE	3510	173530	cselekszenek_1_low_reversed	cselekszenek/cselekednek	3	0.6418538861723947	nyizlunk	nyizozunk	1	ünk	1	7	TRUE	FALSE	low	reversed	TRUE	TRUE	FALSE	FALSE	1
pebzik	0.49247648509779424	hungarian-esp_esp_participant_SESSION_2023-06-19_17h23.34.697.csv	2023-06-19T17:23:00Z	60bf79a315a10bd3d21b3a96	nő	1998	17	2	esp trial	11	Te bizony sokat pebzel. Én is sokat...	pebzem	pebzek	1	pebzek	pebzem	FALSE	5808	117789	lakok_1_low_reversed	lakok/lakom	27	0.49247648509779424	pebzek	pebzem	1	NA	1	21	FALSE	FALSE	low	reversed	FALSE	TRUE	FALSE	FALSE	1
plibzik / plibozik	-0.49247648509779407	hungarian-esp_esp_participant_SESSION_2023-06-20_19h57.35.629.csv	2023-06-20T19:57:00Z	6151b07ac0d164fdd7e53100	férfi	2000	16	2	esp trial	11	János imád plibozni, ezért sokat plibzik. Ti ritkán...	plibzotok	pliboztok	1	pliboztok	plibzotok	FALSE	7997	117809	cselekszenek_1_low_reversed	cselekszenek/cselekednek	3	-0.49247648509779407	plibzotok	pliboztok	1	tek	1	49	FALSE	TRUE	low	reversed	FALSE	FALSE	TRUE	TRUE	1
plibzik / plibozik	-0.49247648509779407	hungarian-esp_esp_participant_SESSION_2023-06-20_20h55.58.469.csv	2023-06-20T20:55:00Z	60fd5bfe72f9b6d7779b4691	nő	2000.12.21	13	2	esp trial	11	János imád plibozni, ezért sokat plibzik. Ti ritkán...	plibzotok	pliboztok	1	pliboztok	plibzotok	FALSE	9764	111162	cselekszenek_1_low_reversed	cselekszenek/cselekednek	3	-0.49247648509779407	plibzotok	pliboztok	1	tek	1	49	FALSE	TRUE	low	reversed	FALSE	FALSE	TRUE	TRUE	1
praslik	1.4271163556401458	hungarian-esp-sleep-2_esp_participant_SESSION_2023-06-20_12h37.10.182.csv	2023-06-20T12:37:00Z	5f632ea32e85353d93872c67	NA	NA	NA	8	second posttest trial	11	Te bizony sokat praslasz. Én is sokat...	praslom	praslok	1	praslok	NA	NA	2661	86621	lakok_3_high_reversed	lakok/lakom	33	1.4271163556401458	praslok	praslom	1	NA	3	5	TRUE	FALSE	NA	NA	FALSE	TRUE	NA	NA	6
préleglik	0.6418538861723947	hungarian-esp-sleep-2_esp_participant_SESSION_2023-06-20_10h28.38.451.csv	2023-06-20T10:28:00Z	6140ff9c5750f0081ca8d71f	NA	NA	NA	8	second posttest trial	11	Te bizony sokat préleglesz. Én is sokat...	préleglek	préleglem	1	préleglem	NA	NA	7119	183937	lakok_3_high_reversed	lakok/lakom	33	0.6418538861723947	préleglek	préleglem	2	NA	3	19	FALSE	FALSE	NA	NA	FALSE	FALSE	NA	NA	6
prihegszik / prihegedik	-0.1941560144409575	hungarian-esp_esp_participant_SESSION_2023-06-20_18h54.16.43.csv	2023-06-20T18:54:00Z	5d3c6e745602310001bca8aa	nő	1996	18	2	esp trial	11	János imád prihegedni, ezért sokat prihegszik. Ők ritkán...	prihegszenek	prihegednek	0	prihegszenek	prihegednek	FALSE	6292	256175	cselekszenek_1_low_reversed	cselekszenek/cselekednek	3	-0.1941560144409575	prihegszenek	prihegednek	2	nek	1	39	FALSE	FALSE	low	reversed	TRUE	TRUE	FALSE	FALSE	1
prihegszik / prihegedik	-0.1941560144409575	hungarian-esp_esp_participant_SESSION_2023-06-20_19h54.21.103.csv	2023-06-20T19:54:00Z	5e8a66381afb2c714058b57b	férfi	1997	11	2	esp trial	11	János imád prihegedni, ezért sokat prihegszik. Ők ritkán...	prihegszenek	prihegednek	1	prihegednek	prihegednek	TRUE	9207	230668	cselekszenek_1_low_reversed	cselekszenek/cselekednek	3	-0.1941560144409575	prihegszenek	prihegednek	2	nek	1	39	FALSE	FALSE	low	reversed	FALSE	FALSE	FALSE	TRUE	1
prihegszik / prihegedik	-0.1941560144409575	hungarian-esp_esp_participant_SESSION_2023-06-20_21h18.29.864.csv	2023-06-20T21:18:00Z	6153f8761fb770e105403eaa	férfi	1994	18	2	esp trial	11	János imád prihegedni, ezért sokat prihegszik. Ők ritkán...	prihegszenek	prihegednek	0	prihegszenek	prihegednek	FALSE	10708	296049	cselekszenek_1_low_reversed	cselekszenek/cselekednek	3	-0.1941560144409575	prihegszenek	prihegednek	2	nek	1	39	FALSE	FALSE	low	reversed	TRUE	TRUE	FALSE	FALSE	1
prihekszik	-0.1941560144409575	hungarian-esp-sleep-2_esp_participant_SESSION_2023-06-20_09h13.53.182.csv	2023-06-20T09:13:00Z	5fd7cd077541e708f2a10aed	NA	NA	NA	8	second posttest trial	11	Te bizony sokat prihekszel. Én is sokat...	prihekszek	prihekszem	0	prihekszek	NA	NA	3317	59517	lakok_3_high_reversed	lakok/lakom	33	-0.1941560144409575	prihekszek	prihekszem	2	NA	3	37	FALSE	FALSE	NA	NA	TRUE	TRUE	NA	NA	6
pugoslik	0.965080896043587	hungarian-esp-sleep-2_esp_participant_SESSION_2023-06-20_09h23.38.663.csv	2023-06-20T09:23:00Z	600e8770316e2671811f49ac	NA	NA	NA	8	second posttest trial	11	Te bizony sokat pugoslasz. Én is sokat...	pugoslok	pugoslom	0	pugoslok	NA	NA	1343	29481	lakok_3_high_reversed	lakok/lakom	33	0.965080896043587	pugoslok	pugoslom	2	NA	3	10	TRUE	FALSE	NA	NA	TRUE	TRUE	NA	NA	6
ribegszik / ribegedik	-0.2876820724517809	hungarian-esp_esp_participant_SESSION_2023-06-20_21h42.09.839.csv	2023-06-20T21:42:00Z	606b510f116c085254237946	Férfi	2002	14	2	esp trial	11	János imád ribegedni, ezért sokat ribegszik. Ti ritkán...	ribegedtek	ribegszetek	0	ribegedtek	ribegszetek	FALSE	10385	79825	cselekszenek_1_low_reversed	cselekszenek/cselekednek	3	-0.2876820724517809	ribegszetek	ribegedtek	2	tek	1	42	FALSE	TRUE	low	reversed	TRUE	FALSE	TRUE	TRUE	1
ribegzik	-0.1941560144409575	hungarian-esp_esp_participant_SESSION_2023-06-19_16h50.46.22.csv	2023-06-19T16:50:00Z	6107aa76ee9845023fb0cb80	nő	1999	17	2	esp trial	11	Te bizony sokat ribegzel. Én is sokat...	ribegzek	ribegzem	1	ribegzem	ribegzem	TRUE	8435	226377	lakok_1_low_reversed	lakok/lakom	27	-0.1941560144409575	ribegzek	ribegzem	2	NA	1	38	FALSE	FALSE	low	reversed	FALSE	FALSE	FALSE	TRUE	1
ribegzik	-0.1941560144409575	hungarian-esp_esp_participant_SESSION_2023-06-19_18h35.41.386.csv	2023-06-19T18:35:00Z	60febbf6684ed23d1eec2db6	nő	1998	17	2	esp trial	11	Te bizony sokat ribegzel. Én is sokat...	ribegzek	ribegzem	1	ribegzem	ribegzem	TRUE	5846	235354	lakok_1_low_reversed	lakok/lakom	27	-0.1941560144409575	ribegzek	ribegzem	2	NA	1	38	FALSE	FALSE	low	reversed	FALSE	FALSE	FALSE	TRUE	1
sojzik	-0.4595323293784402	hungarian-esp_esp_participant_SESSION_2023-06-19_16h41.14.732.csv	2023-06-19T16:41:00Z	600e8770316e2671811f49ac	Férfi	1997	17	2	esp trial	11	Te bizony sokat sojzol. Én is sokat...	sojzok	sojzom	0	sojzok	sojzok	TRUE	3789	117693	lakok_1_low_reversed	lakok/lakom	27	-0.4595323293784402	sojzok	sojzom	1	NA	1	46	FALSE	TRUE	low	reversed	TRUE	TRUE	TRUE	FALSE	1
sojzik	-0.4595323293784402	hungarian-esp_esp_participant_SESSION_2023-06-19_17h17.57.112.csv	2023-06-19T17:17:00Z	5fd7cd077541e708f2a10aed	nő	1994	17	2	esp trial	11	Te bizony sokat sojzol. Én is sokat...	sojzom	sojzok	0	sojzom	sojzok	FALSE	5602	214732	lakok_1_low_reversed	lakok/lakom	27	-0.4595323293784402	sojzok	sojzom	1	NA	1	46	FALSE	TRUE	low	reversed	TRUE	FALSE	TRUE	TRUE	1
spatszik	-0.3483066942682157	hungarian-esp-sleep-2_esp_participant_SESSION_2023-06-20_16h38.46.274.csv	2023-06-20T16:38:00Z	605bb95e25fb0eb3edfe7c73	NA	NA	NA	8	second posttest trial	11	Te bizony sokat spatszol. Én is sokat...	spatszok	spatszom	0	spatszok	NA	NA	3413	191550	lakok_3_high_reversed	lakok/lakom	33	-0.3483066942682157	spatszok	spatszom	1	NA	3	43	FALSE	TRUE	NA	NA	TRUE	TRUE	NA	NA	5
spélszik	0.3483066942682158	hungarian-esp-sleep-2_esp_participant_SESSION_2023-06-20_13h06.15.947.csv	2023-06-20T13:06:00Z	612058b64e8bd208d39fbe68	NA	NA	NA	8	second posttest trial	11	Te bizony sokat spélszel. Én is sokat...	spélszek	spélszem	0	spélszek	NA	NA	2197	95929	lakok_3_high_reversed	lakok/lakom	33	0.3483066942682158	spélszek	spélszem	1	NA	3	25	FALSE	FALSE	NA	NA	TRUE	TRUE	NA	NA	6
spöklik / spöközik	0.5978370007556204	hungarian-esp-sleep-2_esp_participant_SESSION_2023-06-21_11h51.47.417.csv	2023-06-21T11:51:00Z	607b14f74a8418d7b787ce33	NA	NA	NA	8	second posttest trial	11	János imád spöközni, ezért sokat spöklik. Mi ritkán...	spöklünk	spöközünk	0	spöklünk	NA	NA	2384	63442	cselekszenek_3_high_reversed	cselekszenek/cselekednek	9	0.5978370007556204	spöklünk	spöközünk	1	ünk	3	8	TRUE	FALSE	NA	NA	TRUE	TRUE	NA	NA	6
sprigzik / sprigozik	-1.4271163556401458	hungarian-esp-sleep-2_esp_participant_SESSION_2023-06-21_11h31.31.484.csv	2023-06-21T11:31:00Z	566f3979744e3e0005b63481	NA	NA	NA	8	second posttest trial	11	János imád sprigozni, ezért sokat sprigzik. Ti ritkán...	sprigzotok	sprigoztok	0	sprigzotok	NA	NA	4874	60967	cselekszenek_3_high_reversed	cselekszenek/cselekednek	9	-1.4271163556401458	sprigzotok	sprigoztok	1	tek	3	54	FALSE	TRUE	NA	NA	TRUE	TRUE	NA	NA	6
spülöklik	0.28768207245178085	hungarian-esp-sleep-2_esp_participant_SESSION_2023-06-20_10h48.54.386.csv	2023-06-20T10:48:00Z	608adf0cc8637f7f395352b1	NA	NA	NA	8	second posttest trial	11	Te bizony sokat spülöklesz. Én is sokat...	spülöklöm	spülöklök	1	spülöklök	NA	NA	4182	120503	lakok_3_high_reversed	lakok/lakom	33	0.28768207245178085	spülöklök	spülöklöm	2	NA	3	26	FALSE	FALSE	NA	NA	FALSE	TRUE	NA	NA	6
sűzlik	0.14310084364067324	hungarian-esp_esp_participant_SESSION_2023-06-19_17h24.12.147.csv	2023-06-19T17:24:00Z	5e1dff99f0b71e166a571d7f	nő	1996	17	2	esp trial	11	Te bizony sokat sűzlesz. Én is sokat...	sűzlöm	sűzlök	0	sűzlöm	sűzlöm	TRUE	7085	135025	lakok_1_low_reversed	lakok/lakom	27	0.14310084364067324	sűzlök	sűzlöm	1	NA	1	29	FALSE	FALSE	low	reversed	TRUE	FALSE	FALSE	TRUE	1
sztritlik / sztritozik	0.14310084364067324	hungarian-esp-sleep-2_esp_participant_SESSION_2023-06-21_11h01.50.895.csv	2023-06-21T11:01:00Z	6153f8761fb770e105403eaa	NA	NA	NA	8	second posttest trial	11	János imád sztritozni, ezért sokat sztritlik. Ők ritkán...	sztritlanak	sztritoznak	1	sztritoznak	NA	NA	6338	132690	cselekszenek_3_high_reversed	cselekszenek/cselekednek	9	0.14310084364067324	sztritlanak	sztritoznak	1	nek	3	25	FALSE	FALSE	NA	NA	FALSE	FALSE	NA	NA	2
tágarzik / tágarozik	-0.06899287148695143	hungarian-esp-sleep-2_esp_participant_SESSION_2023-06-21_13h08.08.328.csv	2023-06-21T13:08:00Z	5e8aefb03d71b0799a8d0f48	NA	NA	NA	8	second posttest trial	11	János imád tágarozni, ezért sokat tágarzik. Mi ritkán...	tágarozunk	tágarzunk	1	tágarzunk	NA	NA	3355	78821	cselekszenek_3_high_reversed	cselekszenek/cselekednek	9	-0.06899287148695143	tágarzunk	tágarozunk	2	ünk	3	36	FALSE	FALSE	NA	NA	FALSE	TRUE	NA	NA	6
tomlik	2.2335922215070942	hungarian-esp_esp_participant_SESSION_2023-06-19_17h16.40.212.csv	2023-06-19T17:16:00Z	60d3acd071e98de7a42743ac	nő	2003	14	2	esp trial	11	Te bizony sokat tomlasz. Én is sokat...	tomlok	tomlom	0	tomlok	tomlom	FALSE	6959	193732	lakok_1_low_reversed	lakok/lakom	27	2.2335922215070942	tomlok	tomlom	1	NA	1	1	TRUE	FALSE	low	reversed	TRUE	TRUE	FALSE	FALSE	1
trilekszik / trilekedik	0.14310084364067324	hungarian-esp_esp_participant_SESSION_2023-06-20_19h36.31.354.csv	2023-06-20T19:36:00Z	5c7cf1adc8c9920015d0bc60	férfi	1995	21	2	esp trial	11	János imád trilekedni, ezért sokat trilekszik. Ti ritkán...	trilekszetek	trilekedtek	0	trilekszetek	trilekedtek	FALSE	9212	137441	cselekszenek_1_low_reversed	cselekszenek/cselekednek	3	0.14310084364067324	trilekszetek	trilekedtek	2	tek	1	26	FALSE	FALSE	low	reversed	TRUE	TRUE	FALSE	FALSE	1
trilszik	0.28768207245178085	hungarian-esp_esp_participant_SESSION_2023-06-19_17h27.46.511.csv	2023-06-19T17:27:00Z	5df97fcd11d8796fd29e85e3	Férfi	1998	14	2	esp trial	11	Te bizony sokat trilszol. Én is sokat...	trilszom	trilszok	0	trilszom	trilszom	TRUE	5505	154100	lakok_1_low_reversed	lakok/lakom	27	0.28768207245178085	trilszok	trilszom	1	NA	1	27	FALSE	FALSE	low	reversed	TRUE	FALSE	FALSE	TRUE	1
trírzik / trírozik	-0.06453852113757118	hungarian-esp-sleep-2_esp_participant_SESSION_2023-06-21_09h17.44.350.csv	2023-06-21T09:17:00Z	60ef5b1cf52939a80af77543	NA	NA	NA	8	second posttest trial	11	János imád trírozni, ezért sokat trírzik. Mi ritkán...	trírozunk	trírzunk	0	trírozunk	NA	NA	317	39187	cselekszenek_3_high_reversed	cselekszenek/cselekednek	9	-0.06453852113757118	trírzunk	trírozunk	1	ünk	3	34	FALSE	FALSE	NA	NA	TRUE	FALSE	NA	NA	6
tuboklik	0.4353180712578455	hungarian-esp-sleep-2_esp_participant_SESSION_2023-06-20_09h11.20.328.csv	2023-06-20T09:11:00Z	5f325435f0fc671a7434cabe	NA	NA	NA	8	second posttest trial	11	Te bizony sokat tuboklasz. Én is sokat...	tuboklok	tuboklom	0	tuboklok	NA	NA	1931	220335	lakok_3_high_reversed	lakok/lakom	33	0.4353180712578455	tuboklok	tuboklom	2	NA	3	24	FALSE	FALSE	NA	NA	TRUE	TRUE	NA	NA	5
vihepszik	-0.7472144018302211	hungarian-esp-sleep-2_esp_participant_SESSION_2023-06-20_14h51.24.919.csv	2023-06-20T14:51:00Z	60febbf6684ed23d1eec2db6	NA	NA	NA	8	second posttest trial	11	Te bizony sokat vihepszel. Én is sokat...	vihepszem	vihepszek	1	vihepszek	NA	NA	2010	49975	lakok_3_high_reversed	lakok/lakom	33	-0.7472144018302211	vihepszek	vihepszem	2	NA	3	51	FALSE	TRUE	NA	NA	FALSE	TRUE	NA	NA	6
aglik	-0.2076393647782445	hungarian-esp-sleep-2_esp_participant_SESSION_2023-06-20_17h13.50.637.csv	2023-06-20T17:13:00Z	5ef5f78600093427dfd5e120	NA	NA	NA	8	second posttest trial	12	Te bizony sokat aglasz. Én is sokat...	aglok	aglom	0	aglok	NA	NA	4472	116030	lakok_3_high_reversed	lakok/lakom	33	-0.2076393647782445	aglok	aglom	1	NA	3	38	FALSE	FALSE	NA	NA	TRUE	TRUE	NA	NA	7
bivejlik	0.7472144018302211	hungarian-esp-sleep-2_esp_participant_SESSION_2023-06-20_13h28.37.951.csv	2023-06-20T13:28:00Z	605896a739d40fa144496f26	NA	NA	NA	8	second posttest trial	12	Te bizony sokat bivejlesz. Én is sokat...	bivejlek	bivejlem	0	bivejlek	NA	NA	1984	98352	lakok_3_high_reversed	lakok/lakom	33	0.7472144018302211	bivejlek	bivejlem	2	NA	3	14	TRUE	FALSE	NA	NA	TRUE	TRUE	NA	NA	7
brárlik / brározik	0.14310084364067324	hungarian-esp-sleep-2_esp_participant_SESSION_2023-06-21_08h04.54.575.csv	2023-06-21T08:04:00Z	6151b07ac0d164fdd7e53100	NA	NA	NA	8	second posttest trial	12	János imád brározni, ezért sokat brárlik. Ők ritkán...	brárlanak	brároznak	0	brárlanak	NA	NA	411	36459	cselekszenek_3_high_reversed	cselekszenek/cselekednek	9	0.14310084364067324	brárlanak	brároznak	1	nek	3	24	FALSE	FALSE	NA	NA	TRUE	TRUE	NA	NA	7
flézlik / flézezik	-0.4595323293784402	hungarian-esp-sleep-2_esp_participant_SESSION_2023-06-21_13h08.08.328.csv	2023-06-21T13:08:00Z	5e8aefb03d71b0799a8d0f48	NA	NA	NA	8	second posttest trial	12	János imád flézezni, ezért sokat flézlik. Ti ritkán...	flézletek	flézeztek	1	flézeztek	NA	NA	5856	85178	cselekszenek_3_high_reversed	cselekszenek/cselekednek	9	-0.4595323293784402	flézletek	flézeztek	1	tek	3	47	FALSE	TRUE	NA	NA	FALSE	FALSE	NA	NA	7
flözlik	0.965080896043587	hungarian-esp-sleep-2_esp_participant_SESSION_2023-06-20_12h37.10.182.csv	2023-06-20T12:37:00Z	5f632ea32e85353d93872c67	NA	NA	NA	8	second posttest trial	12	Te bizony sokat flözlesz. Én is sokat...	flözlök	flözlöm	1	flözlöm	NA	NA	3302	90425	lakok_3_high_reversed	lakok/lakom	33	0.965080896043587	flözlök	flözlöm	1	NA	3	9	TRUE	FALSE	NA	NA	FALSE	FALSE	NA	NA	7
