dat_id	part_id	part_gender	part_yob	part_edu	list_number	trial_kind	trial_index	stimulus	choice1	choice2	response	response_string	esp_response	esp_match	rt	time_elapsed	file_name	variation	column	base	log_odds	variant1	variant2	nsyl	suffix	sample_number	word_rank	top_20	bottom_20	reg_rate	reg_dist	picked_left	picked_v1	esp_v1	picked_majority
hungarian-esp_esp_participant_SESSION_2023-05-26_09h55.16.453.csv	BCA9Y5	nő	1983	14	3	esp trial	11	János imád frinyozni, ezért sokat frinylik. Mi ritkán...	frinyozunk	frinylunk	0	frinyozunk	frinyozunk	TRUE	11714	205492	cselekszenek_1_low_typical	cselekszenek/cselekednek	4	frinylik / frinyozik	-0.06899287148695143	frinylunk	frinyozunk	1	ünk	1	36	FALSE	FALSE	low	typical	TRUE	FALSE	FALSE	TRUE
hungarian-esp_esp_participant_SESSION_2023-05-26_09h55.16.453.csv	BCA9Y5	nő	1983	14	3	esp trial	13	János imád bribasozni, ezért sokat bribaslik. Ők ritkán...	bribasoznak	bribaslanak	0	bribasoznak	bribasoznak	TRUE	13833	223332	cselekszenek_1_low_typical	cselekszenek/cselekednek	4	bribaslik / bribasozik	-0.3483066942682157	bribaslanak	bribasoznak	2	nek	1	44	FALSE	TRUE	low	typical	TRUE	FALSE	FALSE	TRUE
hungarian-esp_esp_participant_SESSION_2023-05-26_09h55.16.453.csv	BCA9Y5	nő	1983	14	3	esp trial	15	János imád trálakozni, ezért sokat trálaklik. Ők ritkán...	trálakoznak	trálaklanak	0	trálakoznak	trálakoznak	TRUE	8922	236259	cselekszenek_1_low_typical	cselekszenek/cselekednek	4	trálaklik / trálakozik	0	trálaklanak	trálakoznak	2	nek	1	32	FALSE	FALSE	low	typical	TRUE	FALSE	FALSE	TRUE
hungarian-esp_esp_participant_SESSION_2023-05-26_09h55.16.453.csv	BCA9Y5	nő	1983	14	3	esp trial	17	János imád frélegezni, ezért sokat frélegzik. Mi ritkán...	frélegezünk	frélegzünk	1	frélegzünk	frélegzünk	TRUE	6588	246852	cselekszenek_1_low_typical	cselekszenek/cselekednek	4	frélegzik / frélegezik	0.7985076962177716	frélegzünk	frélegezünk	2	ünk	1	3	TRUE	FALSE	low	typical	FALSE	TRUE	TRUE	FALSE
hungarian-esp_esp_participant_SESSION_2023-05-26_09h55.16.453.csv	BCA9Y5	nő	1983	14	3	esp trial	19	János imád sűjözni, ezért sokat sűjlik. Mi ritkán...	sűjözünk	sűjlünk	1	sűjlünk	sűjlünk	TRUE	11460	262317	cselekszenek_1_low_typical	cselekszenek/cselekednek	4	sűjlik / sűjözik	0.5877866649021191	sűjlünk	sűjözünk	1	ünk	1	10	TRUE	FALSE	low	typical	FALSE	TRUE	TRUE	FALSE
hungarian-esp_esp_participant_SESSION_2023-05-26_09h55.16.453.csv	BCA9Y5	nő	1983	14	3	esp trial	21	János imád klihasozni, ezért sokat klihaslik. Ti ritkán...	klihaslotok	klihasoztok	0	klihaslotok	klihasoztok	FALSE	14082	280404	cselekszenek_1_low_typical	cselekszenek/cselekednek	4	klihaslik / klihasozik	-0.2076393647782445	klihaslotok	klihasoztok	2	tek	1	40	FALSE	TRUE	low	typical	TRUE	TRUE	FALSE	FALSE
hungarian-esp_esp_participant_SESSION_2023-05-26_09h55.16.453.csv	BCA9Y5	nő	1983	14	3	esp trial	23	János imád tögözni, ezért sokat töglik. Ők ritkán...	tögöznek	töglenek	0	tögöznek	töglenek	FALSE	12459	296867	cselekszenek_1_low_typical	cselekszenek/cselekednek	4	töglik / tögözik	1.2321436812926323	töglenek	tögöznek	1	nek	1	1	TRUE	FALSE	low	typical	TRUE	FALSE	TRUE	TRUE
hungarian-esp_esp_participant_SESSION_2023-05-26_09h55.16.453.csv	BCA9Y5	nő	1983	14	3	esp trial	25	János imád klégezni, ezért sokat kléglik. Mi ritkán...	klégezünk	kléglünk	1	kléglünk	kléglünk	TRUE	11597	312469	cselekszenek_1_low_typical	cselekszenek/cselekednek	4	kléglik / klégezik	0.4353180712578455	kléglünk	klégezünk	1	ünk	1	15	TRUE	FALSE	low	typical	FALSE	TRUE	TRUE	FALSE
hungarian-esp_esp_participant_SESSION_2023-05-26_09h55.16.453.csv	BCA9Y5	nő	1983	14	3	esp trial	27	János imád klűmözni, ezért sokat klűmlik. Ti ritkán...	klűmöztök	klűmlötök	0	klűmöztök	klűmöztök	TRUE	16643	333116	cselekszenek_1_low_typical	cselekszenek/cselekednek	4	klűmlik / klűmözik	-0.4595323293784402	klűmlötök	klűmöztök	1	tek	1	48	FALSE	TRUE	low	typical	TRUE	FALSE	FALSE	TRUE
hungarian-esp_esp_participant_SESSION_2023-05-26_09h55.16.453.csv	BCA9Y5	nő	1983	14	3	esp trial	29	János imád bresezni, ezért sokat breslik. Ők ritkán...	breseznek	breslenek	0	breseznek	breseznek	TRUE	8637	345755	cselekszenek_1_low_typical	cselekszenek/cselekednek	4	breslik / bresezik	0.06899287148695142	breslenek	breseznek	1	nek	1	27	FALSE	FALSE	low	typical	TRUE	FALSE	FALSE	TRUE
hungarian-esp_esp_participant_SESSION_2023-05-26_09h55.16.453.csv	BCA9Y5	nő	1983	14	3	esp trial	31	János imád nivározni, ezért sokat nivárzik. Ti ritkán...	nivároztok	nivárzotok	0	nivároztok	nivároztok	TRUE	6981	356740	cselekszenek_1_low_typical	cselekszenek/cselekednek	4	nivárzik / nivározik	-0.916290731874155	nivárzotok	nivároztok	2	tek	1	54	FALSE	TRUE	low	typical	TRUE	FALSE	FALSE	TRUE
hungarian-esp_esp_participant_SESSION_2023-05-26_09h55.16.453.csv	BCA9Y5	nő	1983	14	3	esp trial	33	János imád flugonyozni, ezért sokat flugonylik. Ők ritkán...	flugonyoznak	flugonylanak	0	flugonyoznak	flugonyoznak	TRUE	8603	369349	cselekszenek_1_low_typical	cselekszenek/cselekednek	4	flugonylik / flugonyozik	0	flugonylanak	flugonyoznak	2	nek	1	31	FALSE	FALSE	low	typical	TRUE	FALSE	FALSE	TRUE
hungarian-esp_esp_participant_SESSION_2023-05-26_09h55.16.453.csv	BCA9Y5	nő	1983	14	3	esp trial	35	János imád vehékedni, ezért sokat vehékszik. Mi ritkán...	vehékedünk	vehékszünk	1	vehékszünk	vehékszünk	TRUE	5628	378980	cselekszenek_1_low_typical	cselekszenek/cselekednek	4	vehékszik / vehékedik	0.7472144018302211	vehékszünk	vehékedünk	2	ünk	1	4	TRUE	FALSE	low	typical	FALSE	TRUE	TRUE	FALSE
hungarian-esp_esp_participant_SESSION_2023-05-26_09h55.16.453.csv	BCA9Y5	nő	1983	14	3	esp trial	37	János imád jurozni, ezért sokat jurlik. Mi ritkán...	jurlunk	jurozunk	0	jurlunk	jurozunk	FALSE	6539	389524	cselekszenek_1_low_typical	cselekszenek/cselekednek	4	jurlik / jurozik	0.06899287148695142	jurlunk	jurozunk	1	ünk	1	28	FALSE	FALSE	low	typical	TRUE	TRUE	FALSE	FALSE
hungarian-esp_esp_participant_SESSION_2023-05-26_09h55.16.453.csv	BCA9Y5	nő	1983	14	3	esp trial	39	János imád kláragodni, ezért sokat kláragszik. Ti ritkán...	kláragszotok	kláragodtok	0	kláragszotok	kláragodtok	FALSE	7243	400772	cselekszenek_1_low_typical	cselekszenek/cselekednek	4	kláragszik / kláragodik	0.28768207245178085	kláragszotok	kláragodtok	2	tek	1	20	FALSE	FALSE	low	typical	TRUE	TRUE	FALSE	FALSE
hungarian-esp_esp_participant_SESSION_2023-05-26_09h55.16.453.csv	BCA9Y5	nő	1983	14	3	esp trial	41	János imád bribékedni, ezért sokat bribékszik. Ti ritkán...	bribékszetek	bribékedtek	0	bribékszetek	bribékedtek	FALSE	7268	412045	cselekszenek_1_low_typical	cselekszenek/cselekednek	4	bribékszik / bribékedik	-0.1941560144409575	bribékszetek	bribékedtek	2	tek	1	38	FALSE	FALSE	low	typical	TRUE	TRUE	FALSE	FALSE
hungarian-esp_esp_participant_SESSION_2023-05-26_09h55.16.453.csv	BCA9Y5	nő	1983	14	3	esp trial	43	János imád pibegezni, ezért sokat pibegzik. Ők ritkán...	pibegeznek	pibegzenek	0	pibegeznek	pibegeznek	TRUE	8134	424181	cselekszenek_1_low_typical	cselekszenek/cselekednek	4	pibegzik / pibegezik	-0.7472144018302211	pibegzenek	pibegeznek	2	nek	1	52	FALSE	TRUE	low	typical	TRUE	FALSE	FALSE	TRUE
hungarian-esp_esp_participant_SESSION_2023-05-26_09h55.16.453.csv	BCA9Y5	nő	1983	14	3	esp trial	45	János imád bötőrözni, ezért sokat bötőrzik. Mi ritkán...	bötőrzünk	bötőrözünk	0	bötőrzünk	bötőrözünk	FALSE	6277	434462	cselekszenek_1_low_typical	cselekszenek/cselekednek	4	bötőrzik / bötőrözik	0.3483066942682158	bötőrzünk	bötőrözünk	2	ünk	1	16	FALSE	FALSE	low	typical	TRUE	TRUE	FALSE	FALSE
hungarian-esp_esp_participant_SESSION_2023-05-26_09h55.16.453.csv	BCA9Y5	nő	1983	14	3	esp trial	47	János imád döjözni, ezért sokat döjlik. Ők ritkán...	döjlenek	döjöznek	0	döjlenek	döjlenek	TRUE	5595	444060	cselekszenek_1_low_typical	cselekszenek/cselekednek	4	döjlik / döjözik	0.5877866649021191	döjlenek	döjöznek	1	nek	1	9	TRUE	FALSE	low	typical	TRUE	TRUE	TRUE	FALSE
hungarian-esp_esp_participant_SESSION_2023-05-26_09h55.16.453.csv	BCA9Y5	nő	1983	14	3	esp trial	49	János imád frorozni, ezért sokat frorlik. Ők ritkán...	frorlanak	froroznak	1	froroznak	frorlanak	FALSE	9180	457244	cselekszenek_1_low_typical	cselekszenek/cselekednek	4	frorlik / frorozik	0.49247648509779424	frorlanak	froroznak	1	nek	1	11	TRUE	FALSE	low	typical	FALSE	FALSE	TRUE	TRUE
hungarian-esp_esp_participant_SESSION_2023-05-26_09h55.16.453.csv	BCA9Y5	nő	1983	14	3	esp trial	51	János imád játozni, ezért sokat játlik. Mi ritkán...	játlunk	játozunk	0	játlunk	játlunk	TRUE	6165	467412	cselekszenek_1_low_typical	cselekszenek/cselekednek	4	játlik / játozik	0.5978370007556204	játlunk	játozunk	1	ünk	1	8	TRUE	FALSE	low	typical	TRUE	TRUE	TRUE	FALSE
hungarian-esp_esp_participant_SESSION_2023-05-26_09h55.16.453.csv	BCA9Y5	nő	1983	14	3	esp trial	53	János imád trálodni, ezért sokat trálszik. Mi ritkán...	trálodunk	trálszunk	1	trálszunk	trálszunk	TRUE	6475	477892	cselekszenek_1_low_typical	cselekszenek/cselekednek	4	trálszik / trálodik	0.9162907318741552	trálszunk	trálodunk	1	ünk	1	2	TRUE	FALSE	low	typical	FALSE	TRUE	TRUE	FALSE
hungarian-esp_esp_participant_SESSION_2023-05-26_09h55.16.453.csv	BCA9Y5	nő	1983	14	3	esp trial	55	János imád hiragozni, ezért sokat hiragzik. Ők ritkán...	hiragzanak	hiragoznak	1	hiragoznak	hiragoznak	TRUE	6420	488316	cselekszenek_1_low_typical	cselekszenek/cselekednek	4	hiragzik / hiragozik	0.20763936477824457	hiragzanak	hiragoznak	2	nek	1	22	FALSE	FALSE	low	typical	FALSE	FALSE	FALSE	TRUE
hungarian-esp_esp_participant_SESSION_2023-05-26_09h55.16.453.csv	BCA9Y5	nő	1983	14	3	esp trial	57	János imád nyádozni, ezért sokat nyádlik. Ők ritkán...	nyádoznak	nyádlanak	1	nyádlanak	nyádlanak	TRUE	6270	498590	cselekszenek_1_low_typical	cselekszenek/cselekednek	4	nyádlik / nyádozik	0.4595323293784402	nyádlanak	nyádoznak	1	nek	1	13	TRUE	FALSE	low	typical	FALSE	TRUE	TRUE	FALSE
hungarian-esp_esp_participant_SESSION_2023-05-26_09h55.16.453.csv	BCA9Y5	nő	1983	14	3	esp trial	59	János imád flerékedni, ezért sokat flerékszik. Mi ritkán...	flerékedünk	flerékszünk	1	flerékszünk	flerékedünk	FALSE	6546	509140	cselekszenek_1_low_typical	cselekszenek/cselekednek	4	flerékszik / flerékedik	0.32542240043462795	flerékszünk	flerékedünk	2	ünk	1	18	FALSE	FALSE	low	typical	FALSE	TRUE	FALSE	FALSE
hungarian-esp_esp_participant_SESSION_2023-05-26_09h55.16.453.csv	BCA9Y5	nő	1983	14	3	esp trial	61	János imád flodozni, ezért sokat flodlik. Ti ritkán...	flodlotok	flodoztok	1	flodoztok	flodoztok	TRUE	7412	520556	cselekszenek_1_low_typical	cselekszenek/cselekednek	4	flodlik / flodozik	-0.325422400434628	flodlotok	flodoztok	1	tek	1	43	FALSE	TRUE	low	typical	FALSE	FALSE	FALSE	TRUE
hungarian-esp_esp_participant_SESSION_2023-05-26_09h55.16.453.csv	BCA9Y5	nő	1983	14	3	esp trial	63	János imád nyöbözni, ezért sokat nyöbzik. Ők ritkán...	nyöbzenek	nyöböznek	1	nyöböznek	nyöböznek	TRUE	5117	530060	cselekszenek_1_low_typical	cselekszenek/cselekednek	4	nyöbzik / nyöbözik	-0.06453852113757118	nyöbzenek	nyöböznek	1	nek	1	34	FALSE	FALSE	low	typical	FALSE	FALSE	FALSE	TRUE
hungarian-esp_esp_participant_SESSION_2023-05-26_09h55.16.453.csv	BCA9Y5	nő	1983	14	3	esp trial	65	János imád vilesezni, ezért sokat vileslik. Mi ritkán...	vilesezünk	vileslünk	1	vileslünk	vilesezünk	FALSE	5300	539564	cselekszenek_1_low_typical	cselekszenek/cselekednek	4	vileslik / vilesezik	0	vileslünk	vilesezünk	2	ünk	1	33	FALSE	FALSE	low	typical	FALSE	TRUE	FALSE	FALSE
hungarian-esp_esp_participant_SESSION_2023-05-26_09h55.16.453.csv	BCA9Y5	nő	1983	14	3	esp trial	67	János imád nyizozni, ezért sokat nyizlik. Mi ritkán...	nyizozunk	nyizlunk	1	nyizlunk	nyizlunk	TRUE	5859	549428	cselekszenek_1_low_typical	cselekszenek/cselekednek	4	nyizlik / nyizozik	0.6418538861723947	nyizlunk	nyizozunk	1	ünk	1	7	TRUE	FALSE	low	typical	FALSE	TRUE	TRUE	FALSE
hungarian-esp_esp_participant_SESSION_2023-05-26_09h55.16.453.csv	BCA9Y5	nő	1983	14	3	esp trial	69	János imád sprebezni, ezért sokat sprebzik. Ők ritkán...	sprebzenek	sprebeznek	1	sprebeznek	sprebeznek	TRUE	6956	560388	cselekszenek_1_low_typical	cselekszenek/cselekednek	4	sprebzik / sprebezik	0.1941560144409574	sprebzenek	sprebeznek	1	nek	1	24	FALSE	FALSE	low	typical	FALSE	FALSE	FALSE	TRUE
hungarian-esp_esp_participant_SESSION_2023-05-26_09h55.16.453.csv	BCA9Y5	nő	1983	14	3	esp trial	71	János imád flátozni, ezért sokat flátlik. Ti ritkán...	flátoztok	flátlotok	0	flátoztok	flátoztok	TRUE	3820	569893	cselekszenek_1_low_typical	cselekszenek/cselekednek	4	flátlik / flátozik	-0.2876820724517809	flátlotok	flátoztok	1	tek	1	41	FALSE	TRUE	low	typical	TRUE	FALSE	FALSE	TRUE
hungarian-esp_esp_participant_SESSION_2023-05-26_09h55.16.453.csv	BCA9Y5	nő	1983	14	3	esp trial	73	János imád metégedni, ezért sokat metégszik. Ők ritkán...	metégednek	metégszenek	1	metégszenek	metégednek	FALSE	6052	579948	cselekszenek_1_low_typical	cselekszenek/cselekednek	4	metégszik / metégedik	0.06453852113757116	metégszenek	metégednek	2	nek	1	30	FALSE	FALSE	low	typical	FALSE	TRUE	FALSE	FALSE
hungarian-esp_esp_participant_SESSION_2023-05-26_09h55.16.453.csv	BCA9Y5	nő	1983	14	3	esp trial	75	János imád prihegedni, ezért sokat prihegszik. Ők ritkán...	prihegednek	prihegszenek	1	prihegszenek	prihegednek	FALSE	5484	589452	cselekszenek_1_low_typical	cselekszenek/cselekednek	4	prihegszik / prihegedik	-0.1941560144409575	prihegszenek	prihegednek	2	nek	1	39	FALSE	FALSE	low	typical	FALSE	TRUE	FALSE	FALSE
hungarian-esp_esp_participant_SESSION_2023-05-26_09h55.16.453.csv	BCA9Y5	nő	1983	14	3	esp trial	77	János imád bügözni, ezért sokat bügzik. Ők ritkán...	bügöznek	bügzenek	0	bügöznek	bügzenek	FALSE	4891	598956	cselekszenek_1_low_typical	cselekszenek/cselekednek	4	bügzik / bügözik	0.6418538861723947	bügzenek	bügöznek	1	nek	1	6	TRUE	FALSE	low	typical	TRUE	FALSE	TRUE	TRUE
hungarian-esp_esp_participant_SESSION_2023-05-26_09h55.16.453.csv	BCA9Y5	nő	1983	14	3	esp trial	79	János imád trilekedni, ezért sokat trilekszik. Ti ritkán...	trilekedtek	trilekszetek	0	trilekedtek	trilekedtek	TRUE	5436	608459	cselekszenek_1_low_typical	cselekszenek/cselekednek	4	trilekszik / trilekedik	0.14310084364067324	trilekszetek	trilekedtek	2	tek	1	26	FALSE	FALSE	low	typical	TRUE	FALSE	FALSE	TRUE
hungarian-esp_esp_participant_SESSION_2023-05-26_09h55.16.453.csv	BCA9Y5	nő	1983	14	3	esp trial	81	János imád spivejezni, ezért sokat spivejlik. Ők ritkán...	spivejlenek	spivejeznek	0	spivejlenek	spivejeznek	FALSE	4822	617964	cselekszenek_1_low_typical	cselekszenek/cselekednek	4	spivejlik / spivejezik	-0.3483066942682157	spivejlenek	spivejeznek	2	nek	1	46	FALSE	TRUE	low	typical	TRUE	TRUE	FALSE	FALSE
hungarian-esp_esp_participant_SESSION_2023-05-26_09h55.16.453.csv	BCA9Y5	nő	1983	14	3	esp trial	83	János imád ribegedni, ezért sokat ribegszik. Ti ritkán...	ribegszetek	ribegedtek	0	ribegszetek	ribegedtek	FALSE	5261	627468	cselekszenek_1_low_typical	cselekszenek/cselekednek	4	ribegszik / ribegedik	-0.2876820724517809	ribegszetek	ribegedtek	2	tek	1	42	FALSE	TRUE	low	typical	TRUE	TRUE	FALSE	FALSE
hungarian-esp_esp_participant_SESSION_2023-05-26_09h55.16.453.csv	BCA9Y5	nő	1983	14	3	esp trial	85	János imád vihapodni, ezért sokat vihapszik. Mi ritkán...	vihapodunk	vihapszunk	1	vihapszunk	vihapszunk	TRUE	1611	636975	cselekszenek_1_low_typical	cselekszenek/cselekednek	4	vihapszik / vihapodik	0.49247648509779424	vihapszunk	vihapodunk	2	ünk	1	12	TRUE	FALSE	low	typical	FALSE	TRUE	TRUE	FALSE
hungarian-esp_esp_participant_SESSION_2023-05-26_09h55.16.453.csv	BCA9Y5	nő	1983	14	3	esp trial	87	János imád plibozni, ezért sokat plibzik. Ti ritkán...	plibzotok	pliboztok	1	pliboztok	pliboztok	TRUE	5674	646652	cselekszenek_1_low_typical	cselekszenek/cselekednek	4	plibzik / plibozik	-0.49247648509779407	plibzotok	pliboztok	1	tek	1	49	FALSE	TRUE	low	typical	FALSE	FALSE	FALSE	TRUE
hungarian-esp_esp_participant_SESSION_2023-05-26_09h55.16.453.csv	BCA9Y5	nő	1983	14	3	esp trial	89	János imád nyülöközni, ezért sokat nyülöklik. Ők ritkán...	nyülöklenek	nyülököznek	1	nyülököznek	nyülököznek	TRUE	2314	656158	cselekszenek_1_low_typical	cselekszenek/cselekednek	4	nyülöklik / nyülöközik	0.3483066942682158	nyülöklenek	nyülököznek	2	nek	1	17	FALSE	FALSE	low	typical	FALSE	FALSE	FALSE	TRUE
hungarian-esp_esp_participant_SESSION_2023-05-26_09h55.16.453.csv	BCA9Y5	nő	1983	14	3	esp trial	91	János imád géregezni, ezért sokat géreglik. Ti ritkán...	géregletek	géregeztek	1	géregeztek	géregeztek	TRUE	1105	665664	cselekszenek_1_low_typical	cselekszenek/cselekednek	4	géreglik / géregezik	-0.6418538861723948	géregletek	géregeztek	2	tek	1	51	FALSE	TRUE	low	typical	FALSE	FALSE	FALSE	TRUE
hungarian-esp_esp_participant_SESSION_2023-05-26_09h55.16.453.csv	BCA9Y5	nő	1983	14	3	esp trial	93	János imád brürözni, ezért sokat brürzik. Ők ritkán...	brürzenek	brüröznek	1	brüröznek	brüröznek	TRUE	886	675171	cselekszenek_1_low_typical	cselekszenek/cselekednek	4	brürzik / brürözik	-0.1431008436406733	brürzenek	brüröznek	1	nek	1	37	FALSE	FALSE	low	typical	FALSE	FALSE	FALSE	TRUE
hungarian-esp_esp_participant_SESSION_2023-05-26_09h55.16.453.csv	BCA9Y5	nő	1983	14	3	esp trial	95	János imád gihamozni, ezért sokat gihamlik. Ők ritkán...	gihamoznak	gihamlanak	1	gihamlanak	gihamoznak	FALSE	734	684674	cselekszenek_1_low_typical	cselekszenek/cselekednek	4	gihamlik / gihamozik	0.32542240043462795	gihamlanak	gihamoznak	2	nek	1	19	FALSE	FALSE	low	typical	FALSE	TRUE	FALSE	FALSE
hungarian-esp_esp_participant_SESSION_2023-05-26_09h55.16.453.csv	BCA9Y5	nő	1983	14	3	esp trial	97	János imád hubonyozni, ezért sokat hubonylik. Ti ritkán...	hubonyoztok	hubonylotok	1	hubonylotok	hubonyoztok	FALSE	814	694180	cselekszenek_1_low_typical	cselekszenek/cselekednek	4	hubonylik / hubonyozik	-0.5978370007556204	hubonylotok	hubonyoztok	2	tek	1	50	FALSE	TRUE	low	typical	FALSE	TRUE	FALSE	FALSE
hungarian-esp_esp_participant_SESSION_2023-05-26_09h55.16.453.csv	BCA9Y5	nő	1983	14	3	esp trial	99	János imád trukodni, ezért sokat trukszik. Ti ritkán...	trukszotok	trukodtok	0	trukszotok	trukodtok	FALSE	588	703687	cselekszenek_1_low_typical	cselekszenek/cselekednek	4	trukszik / trukodik	0.06899287148695142	trukszotok	trukodtok	1	tek	1	29	FALSE	FALSE	low	typical	TRUE	TRUE	FALSE	FALSE
hungarian-esp_esp_participant_SESSION_2023-05-26_09h55.16.453.csv	BCA9Y5	nő	1983	14	3	esp trial	101	János imád sztredezni, ezért sokat sztredlik. Ti ritkán...	sztredeztek	sztredletek	1	sztredletek	sztredeztek	FALSE	793	713192	cselekszenek_1_low_typical	cselekszenek/cselekednek	4	sztredlik / sztredezik	0.28768207245178085	sztredletek	sztredeztek	1	tek	1	21	FALSE	FALSE	low	typical	FALSE	TRUE	FALSE	FALSE
hungarian-esp_esp_participant_SESSION_2023-05-26_09h55.16.453.csv	BCA9Y5	nő	1983	14	3	esp trial	103	János imád bejezni, ezért sokat bejzik. Mi ritkán...	bejezünk	bejzünk	1	bejzünk	bejezünk	FALSE	785	722697	cselekszenek_1_low_typical	cselekszenek/cselekednek	4	bejzik / bejezik	-0.06899287148695143	bejzünk	bejezünk	1	ünk	1	35	FALSE	FALSE	low	typical	FALSE	TRUE	FALSE	FALSE
hungarian-esp_esp_participant_SESSION_2023-05-26_09h55.16.453.csv	BCA9Y5	nő	1983	14	3	esp trial	105	János imád dibágozni, ezért sokat dibáglik. Ti ritkán...	dibáglotok	dibágoztok	1	dibágoztok	dibágoztok	TRUE	4162	732202	cselekszenek_1_low_typical	cselekszenek/cselekednek	4	dibáglik / dibágozik	0.1941560144409574	dibáglotok	dibágoztok	2	tek	1	23	FALSE	FALSE	low	typical	FALSE	FALSE	FALSE	TRUE
hungarian-esp_esp_participant_SESSION_2023-05-26_09h55.16.453.csv	BCA9Y5	nő	1983	14	3	esp trial	107	János imád brűközni, ezért sokat brűklik. Ti ritkán...	brűköztök	brűklötök	0	brűköztök	brűköztök	TRUE	6000	742204	cselekszenek_1_low_typical	cselekszenek/cselekednek	4	brűklik / brűközik	0.14310084364067324	brűklötök	brűköztök	1	tek	1	25	FALSE	FALSE	low	typical	TRUE	FALSE	FALSE	TRUE
hungarian-esp_esp_participant_SESSION_2023-05-26_09h55.16.453.csv	BCA9Y5	nő	1983	14	3	esp trial	109	János imád dralágozni, ezért sokat dralágzik. Mi ritkán...	dralágzunk	dralágozunk	1	dralágozunk	dralágzunk	FALSE	3971	751710	cselekszenek_1_low_typical	cselekszenek/cselekednek	4	dralágzik / dralágozik	0.4353180712578455	dralágzunk	dralágozunk	2	ünk	1	14	TRUE	FALSE	low	typical	FALSE	FALSE	TRUE	TRUE
hungarian-esp_esp_participant_SESSION_2023-05-26_09h55.16.453.csv	BCA9Y5	nő	1983	14	3	esp trial	111	János imád nurokozni, ezért sokat nuroklik. Mi ritkán...	nurokozunk	nuroklunk	0	nurokozunk	nuroklunk	FALSE	5210	761214	cselekszenek_1_low_typical	cselekszenek/cselekednek	4	nuroklik / nurokozik	0.7419373447293773	nuroklunk	nurokozunk	2	ünk	1	5	TRUE	FALSE	low	typical	TRUE	FALSE	TRUE	TRUE
hungarian-esp_esp_participant_SESSION_2023-05-26_09h55.16.453.csv	BCA9Y5	nő	1983	14	3	esp trial	113	János imád frirozni, ezért sokat frirzik. Mi ritkán...	frirozunk	frirzunk	0	frirozunk	frirozunk	TRUE	4617	770719	cselekszenek_1_low_typical	cselekszenek/cselekednek	4	frirzik / frirozik	-0.3483066942682157	frirzunk	frirozunk	1	ünk	1	45	FALSE	TRUE	low	typical	TRUE	FALSE	FALSE	TRUE
hungarian-esp_esp_participant_SESSION_2023-05-26_09h55.16.453.csv	BCA9Y5	nő	1983	14	3	esp trial	115	János imád spuborozni, ezért sokat spuborzik. Ők ritkán...	spuborzanak	spuboroznak	0	spuborzanak	spuboroznak	FALSE	5730	780452	cselekszenek_1_low_typical	cselekszenek/cselekednek	4	spuborzik / spuborozik	-0.4353180712578455	spuborzanak	spuboroznak	2	nek	1	47	FALSE	TRUE	low	typical	TRUE	TRUE	FALSE	FALSE
hungarian-esp_esp_participant_SESSION_2023-05-26_09h55.16.453.csv	BCA9Y5	nő	1983	14	3	esp trial	117	János imád prugorozni, ezért sokat prugorzik. Ti ritkán...	prugorzotok	prugoroztok	1	prugoroztok	prugoroztok	TRUE	5564	790020	cselekszenek_1_low_typical	cselekszenek/cselekednek	4	prugorzik / prugorozik	-0.7985076962177716	prugorzotok	prugoroztok	2	tek	1	53	FALSE	TRUE	low	typical	FALSE	FALSE	FALSE	TRUE
hungarian-esp_esp_participant_SESSION_2023-05-26_09h55.16.453.csv	BCA9Y5	nő	1983	14	4	posttest trial	120	János imád flemezni, ezért sokat flemlik. Mi ritkán...	flemezünk	flemlünk	0	flemezünk	NA	NA	6474	806436	cselekszenek_2_high_reversed	cselekszenek/cselekednek	5	flemlik / flemezik	-0.5978370007556204	flemlünk	flemezünk	1	ünk	2	49	FALSE	TRUE	low	typical	TRUE	FALSE	NA	NA
hungarian-esp_esp_participant_SESSION_2023-05-26_09h55.16.453.csv	BCA9Y5	nő	1983	14	4	posttest trial	121	János imád drilarozni, ezért sokat drilarzik. Mi ritkán...	drilarozunk	drilarzunk	0	drilarozunk	NA	NA	2931	809868	cselekszenek_2_high_reversed	cselekszenek/cselekednek	5	drilarzik / drilarozik	-0.4353180712578455	drilarzunk	drilarozunk	2	ünk	2	46	FALSE	TRUE	low	typical	TRUE	FALSE	NA	NA
hungarian-esp_esp_participant_SESSION_2023-05-26_09h55.16.453.csv	BCA9Y5	nő	1983	14	4	posttest trial	122	János imád gihejezni, ezért sokat gihejlik. Mi ritkán...	gihejezünk	gihejlünk	0	gihejezünk	NA	NA	4033	814404	cselekszenek_2_high_reversed	cselekszenek/cselekednek	5	gihejlik / gihejezik	0.49247648509779424	gihejlünk	gihejezünk	2	ünk	2	11	TRUE	FALSE	low	typical	TRUE	FALSE	NA	NA
hungarian-esp_esp_participant_SESSION_2023-05-26_09h55.16.453.csv	BCA9Y5	nő	1983	14	4	posttest trial	123	János imád dirozni, ezért sokat dirlik. Ti ritkán...	dirlotok	diroztok	1	diroztok	NA	NA	5276	820181	cselekszenek_2_high_reversed	cselekszenek/cselekednek	5	dirlik / dirozik	0	dirlotok	diroztok	1	tek	2	30	FALSE	FALSE	low	typical	FALSE	FALSE	NA	NA
hungarian-esp_esp_participant_SESSION_2023-05-26_09h55.16.453.csv	BCA9Y5	nő	1983	14	4	posttest trial	124	János imád klehényezni, ezért sokat klehénylik. Ti ritkán...	klehényeztek	klehényletek	0	klehényeztek	NA	NA	3232	823916	cselekszenek_2_high_reversed	cselekszenek/cselekednek	5	klehénylik / klehényezik	0.32542240043462795	klehényletek	klehényeztek	2	tek	2	19	FALSE	FALSE	low	typical	TRUE	FALSE	NA	NA
hungarian-esp_esp_participant_SESSION_2023-05-26_09h55.16.453.csv	BCA9Y5	nő	1983	14	4	posttest trial	125	János imád fröjözni, ezért sokat fröjzik. Ti ritkán...	fröjöztök	fröjzötök	0	fröjöztök	NA	NA	3627	828044	cselekszenek_2_high_reversed	cselekszenek/cselekednek	5	fröjzik / fröjözik	-0.8938178760220964	fröjzötök	fröjöztök	1	tek	2	53	FALSE	TRUE	low	typical	TRUE	FALSE	NA	NA
hungarian-esp_esp_participant_SESSION_2023-05-26_09h55.16.453.csv	BCA9Y5	nő	1983	14	4	posttest trial	126	János imád föködni, ezért sokat fökszik. Ők ritkán...	föködnek	fökszenek	0	föködnek	NA	NA	4707	833252	cselekszenek_2_high_reversed	cselekszenek/cselekednek	5	fökszik / föködik	0.6418538861723947	fökszenek	föködnek	1	nek	2	6	TRUE	FALSE	low	typical	TRUE	FALSE	NA	NA
hungarian-esp_esp_participant_SESSION_2023-05-26_09h55.16.453.csv	BCA9Y5	nő	1983	14	4	posttest trial	127	János imád privékedni, ezért sokat privékszik. Ők ritkán...	privékszenek	privékednek	1	privékednek	NA	NA	3810	837564	cselekszenek_2_high_reversed	cselekszenek/cselekednek	5	privékszik / privékedik	0.06899287148695142	privékszenek	privékednek	2	nek	2	28	FALSE	FALSE	low	typical	FALSE	FALSE	NA	NA
hungarian-esp_esp_participant_SESSION_2023-05-26_09h55.16.453.csv	BCA9Y5	nő	1983	14	4	posttest trial	128	János imád nyürözni, ezért sokat nyürzik. Ők ritkán...	nyüröznek	nyürzenek	0	nyüröznek	NA	NA	1691	839756	cselekszenek_2_high_reversed	cselekszenek/cselekednek	5	nyürzik / nyürözik	-0.06453852113757118	nyürzenek	nyüröznek	1	nek	2	34	FALSE	FALSE	low	typical	TRUE	FALSE	NA	NA
hungarian-esp_esp_participant_SESSION_2023-05-26_09h55.16.453.csv	BCA9Y5	nő	1983	14	4	posttest trial	129	János imád drűrözni, ezért sokat drűrzik. Ők ritkán...	drűrzenek	drűröznek	1	drűröznek	NA	NA	4410	844668	cselekszenek_2_high_reversed	cselekszenek/cselekednek	5	drűrzik / drűrözik	-0.3483066942682157	drűrzenek	drűröznek	1	nek	2	44	FALSE	TRUE	low	typical	FALSE	FALSE	NA	NA
hungarian-esp_esp_participant_SESSION_2023-05-26_09h55.16.453.csv	BCA9Y5	nő	1983	14	4	posttest trial	130	János imád trivakodni, ezért sokat trivakszik. Mi ritkán...	trivakodunk	trivakszunk	0	trivakodunk	NA	NA	3330	848500	cselekszenek_2_high_reversed	cselekszenek/cselekednek	5	trivakszik / trivakodik	0	trivakszunk	trivakodunk	2	ünk	2	32	FALSE	FALSE	low	typical	TRUE	FALSE	NA	NA
hungarian-esp_esp_participant_SESSION_2023-05-26_09h55.16.453.csv	BCA9Y5	nő	1983	14	4	posttest trial	131	János imád sprozozni, ezért sokat sprozlik. Ők ritkán...	sprozlanak	sprozoznak	1	sprozoznak	NA	NA	3651	852653	cselekszenek_2_high_reversed	cselekszenek/cselekednek	5	sprozlik / sprozozik	0.14310084364067324	sprozlanak	sprozoznak	1	nek	2	25	FALSE	FALSE	low	typical	FALSE	FALSE	NA	NA
hungarian-esp_esp_participant_SESSION_2023-05-26_09h55.16.453.csv	BCA9Y5	nő	1983	14	4	posttest trial	132	János imád flüröközni, ezért sokat flüröklik. Ti ritkán...	flürököztök	flüröklötök	0	flürököztök	NA	NA	6347	859501	cselekszenek_2_high_reversed	cselekszenek/cselekednek	5	flüröklik / flüröközik	0.1941560144409574	flüröklötök	flürököztök	2	tek	2	23	FALSE	FALSE	low	typical	TRUE	FALSE	NA	NA
hungarian-esp_esp_participant_SESSION_2023-05-26_09h55.16.453.csv	BCA9Y5	nő	1983	14	4	posttest trial	133	János imád lájozni, ezért sokat lájzik. Ti ritkán...	lájoztok	lájzotok	0	lájoztok	NA	NA	5057	865059	cselekszenek_2_high_reversed	cselekszenek/cselekednek	5	lájzik / lájozik	0.4353180712578455	lájzotok	lájoztok	1	tek	2	15	TRUE	FALSE	low	typical	TRUE	FALSE	NA	NA
hungarian-esp_esp_participant_SESSION_2023-05-26_09h55.16.453.csv	BCA9Y5	nő	1983	14	4	posttest trial	134	János imád kűdözni, ezért sokat kűdlik. Ők ritkán...	kűdlenek	kűdöznek	1	kűdöznek	NA	NA	5364	870924	cselekszenek_2_high_reversed	cselekszenek/cselekednek	5	kűdlik / kűdözik	0.7985076962177716	kűdlenek	kűdöznek	1	nek	2	3	TRUE	FALSE	low	typical	FALSE	FALSE	NA	NA
hungarian-esp_esp_participant_SESSION_2023-05-26_09h55.16.453.csv	BCA9Y5	nő	1983	14	4	posttest trial	135	János imád spügözni, ezért sokat spügzik. Mi ritkán...	spügzünk	spügözünk	1	spügözünk	NA	NA	4091	875515	cselekszenek_2_high_reversed	cselekszenek/cselekednek	5	spügzik / spügözik	0.4595323293784402	spügzünk	spügözünk	1	ünk	2	13	TRUE	FALSE	low	typical	FALSE	FALSE	NA	NA
hungarian-esp_esp_participant_SESSION_2023-05-26_09h55.16.453.csv	BCA9Y5	nő	1983	14	4	posttest trial	136	János imád frálapodni, ezért sokat frálapszik. Ti ritkán...	frálapodtok	frálapszotok	0	frálapodtok	NA	NA	5571	881587	cselekszenek_2_high_reversed	cselekszenek/cselekednek	5	frálapszik / frálapodik	0.4353180712578455	frálapszotok	frálapodtok	2	tek	2	14	TRUE	FALSE	low	typical	TRUE	FALSE	NA	NA
hungarian-esp_esp_participant_SESSION_2023-05-26_09h55.16.453.csv	BCA9Y5	nő	1983	14	4	posttest trial	137	János imád dárakodni, ezért sokat dárakszik. Mi ritkán...	dárakodunk	dárakszunk	0	dárakodunk	NA	NA	7748	889836	cselekszenek_2_high_reversed	cselekszenek/cselekednek	5	dárakszik / dárakodik	0.06453852113757116	dárakszunk	dárakodunk	2	ünk	2	29	FALSE	FALSE	low	typical	TRUE	FALSE	NA	NA
hungarian-esp_esp_participant_SESSION_2023-05-26_09h55.16.453.csv	BCA9Y5	nő	1983	14	4	posttest trial	138	János imád bratározni, ezért sokat bratárzik. Ők ritkán...	bratárzanak	bratároznak	1	bratároznak	NA	NA	4914	895251	cselekszenek_2_high_reversed	cselekszenek/cselekednek	5	bratárzik / bratározik	-1.2992829841302609	bratárzanak	bratároznak	2	nek	2	54	FALSE	TRUE	low	typical	FALSE	FALSE	NA	NA
hungarian-esp_esp_participant_SESSION_2023-05-26_09h55.16.453.csv	BCA9Y5	nő	1983	14	4	posttest trial	139	János imád flöközni, ezért sokat flöklik. Ti ritkán...	flököztök	flöklötök	0	flököztök	NA	NA	6339	902092	cselekszenek_2_high_reversed	cselekszenek/cselekednek	5	flöklik / flöközik	-0.1431008436406733	flöklötök	flököztök	1	tek	2	37	FALSE	FALSE	low	typical	TRUE	FALSE	NA	NA
hungarian-esp_esp_participant_SESSION_2023-05-26_09h55.16.453.csv	BCA9Y5	nő	1983	14	4	posttest trial	140	János imád brülösözni, ezért sokat brülöslik. Mi ritkán...	brülösözünk	brülöslünk	0	brülösözünk	NA	NA	4402	906995	cselekszenek_2_high_reversed	cselekszenek/cselekednek	5	brülöslik / brülösözik	-0.06899287148695143	brülöslünk	brülösözünk	2	ünk	2	35	FALSE	FALSE	low	typical	TRUE	FALSE	NA	NA
hungarian-esp_esp_participant_SESSION_2023-05-26_09h55.16.453.csv	BCA9Y5	nő	1983	14	4	posttest trial	141	János imád spibegezni, ezért sokat spibeglik. Mi ritkán...	spibegezünk	spibeglünk	0	spibegezünk	NA	NA	3627	911123	cselekszenek_2_high_reversed	cselekszenek/cselekednek	5	spibeglik / spibegezik	0.5978370007556204	spibeglünk	spibegezünk	2	ünk	2	8	TRUE	FALSE	low	typical	TRUE	FALSE	NA	NA
hungarian-esp_esp_participant_SESSION_2023-05-26_09h55.16.453.csv	BCA9Y5	nő	1983	14	4	posttest trial	142	János imád trugokozni, ezért sokat trugoklik. Ők ritkán...	trugoklanak	trugokoznak	1	trugokoznak	NA	NA	3826	915451	cselekszenek_2_high_reversed	cselekszenek/cselekednek	5	trugoklik / trugokozik	0.14310084364067324	trugoklanak	trugokoznak	2	nek	2	26	FALSE	FALSE	low	typical	FALSE	FALSE	NA	NA
hungarian-esp_esp_participant_SESSION_2023-05-26_09h55.16.453.csv	BCA9Y5	nő	1983	14	4	posttest trial	143	János imád frakozni, ezért sokat fraklik. Mi ritkán...	frakozunk	fraklunk	0	frakozunk	NA	NA	3282	919235	cselekszenek_2_high_reversed	cselekszenek/cselekednek	5	fraklik / frakozik	0.20763936477824457	fraklunk	frakozunk	1	ünk	2	21	FALSE	FALSE	low	typical	TRUE	FALSE	NA	NA
hungarian-esp_esp_participant_SESSION_2023-05-26_09h55.16.453.csv	BCA9Y5	nő	1983	14	4	posttest trial	144	János imád mülőrözni, ezért sokat mülőrzik. Mi ritkán...	mülőrzünk	mülőrözünk	0	mülőrzünk	NA	NA	2427	922163	cselekszenek_2_high_reversed	cselekszenek/cselekednek	5	mülőrzik / mülőrözik	0.28768207245178085	mülőrzünk	mülőrözünk	2	ünk	2	20	FALSE	FALSE	low	typical	TRUE	TRUE	NA	NA
hungarian-esp_esp_participant_SESSION_2023-05-26_09h55.16.453.csv	BCA9Y5	nő	1983	14	4	posttest trial	145	János imád nyivágozni, ezért sokat nyivágzik. Mi ritkán...	nyivágozunk	nyivágzunk	1	nyivágzunk	NA	NA	3219	925883	cselekszenek_2_high_reversed	cselekszenek/cselekednek	5	nyivágzik / nyivágozik	0.965080896043587	nyivágzunk	nyivágozunk	2	ünk	2	1	TRUE	FALSE	low	typical	FALSE	TRUE	NA	NA
hungarian-esp_esp_participant_SESSION_2023-05-26_09h55.16.453.csv	BCA9Y5	nő	1983	14	4	posttest trial	146	János imád dabozni, ezért sokat dabzik. Ti ritkán...	dabzotok	daboztok	1	daboztok	NA	NA	4138	930523	cselekszenek_2_high_reversed	cselekszenek/cselekednek	5	dabzik / dabozik	-0.1941560144409575	dabzotok	daboztok	1	tek	2	38	FALSE	FALSE	low	typical	FALSE	FALSE	NA	NA
hungarian-esp_esp_participant_SESSION_2023-05-26_09h55.16.453.csv	BCA9Y5	nő	1983	14	4	posttest trial	147	János imád branyozni, ezért sokat branylik. Ők ritkán...	branyoznak	branylanak	0	branyoznak	NA	NA	3371	934396	cselekszenek_2_high_reversed	cselekszenek/cselekednek	5	branylik / branyozik	0.32542240043462795	branylanak	branyoznak	1	nek	2	17	FALSE	FALSE	low	typical	TRUE	FALSE	NA	NA
hungarian-esp_esp_participant_SESSION_2023-05-26_09h55.16.453.csv	BCA9Y5	nő	1983	14	4	posttest trial	148	János imád sprudozni, ezért sokat sprudlik. Mi ritkán...	sprudozunk	sprudlunk	0	sprudozunk	NA	NA	4002	938899	cselekszenek_2_high_reversed	cselekszenek/cselekednek	5	sprudlik / sprudozik	-0.2076393647782445	sprudlunk	sprudozunk	1	ünk	2	40	FALSE	TRUE	low	typical	TRUE	FALSE	NA	NA
hungarian-esp_esp_participant_SESSION_2023-05-26_09h55.16.453.csv	BCA9Y5	nő	1983	14	4	posttest trial	149	János imád püzözni, ezért sokat püzlik. Ti ritkán...	püzlötök	püzöztök	0	püzlötök	NA	NA	3595	942996	cselekszenek_2_high_reversed	cselekszenek/cselekednek	5	püzlik / püzözik	-0.06899287148695143	püzlötök	püzöztök	1	tek	2	36	FALSE	FALSE	low	typical	TRUE	TRUE	NA	NA
hungarian-esp_esp_participant_SESSION_2023-05-26_09h55.16.453.csv	BCA9Y5	nő	1983	14	4	posttest trial	150	János imád mágamozni, ezért sokat mágamlik. Mi ritkán...	mágamlunk	mágamozunk	0	mágamlunk	NA	NA	1739	945236	cselekszenek_2_high_reversed	cselekszenek/cselekednek	5	mágamlik / mágamozik	0.5877866649021191	mágamlunk	mágamozunk	2	ünk	2	9	TRUE	FALSE	low	typical	TRUE	TRUE	NA	NA
hungarian-esp_esp_participant_SESSION_2023-05-26_09h55.16.453.csv	BCA9Y5	nő	1983	14	4	posttest trial	151	János imád pilégedni, ezért sokat pilégszik. Ők ritkán...	pilégszenek	pilégednek	0	pilégszenek	NA	NA	2721	948459	cselekszenek_2_high_reversed	cselekszenek/cselekednek	5	pilégszik / pilégedik	0.6418538861723947	pilégszenek	pilégednek	2	nek	2	7	TRUE	FALSE	low	typical	TRUE	TRUE	NA	NA
hungarian-esp_esp_participant_SESSION_2023-05-26_09h55.16.453.csv	BCA9Y5	nő	1983	14	4	posttest trial	152	János imád dilakozni, ezért sokat dilaklik. Ti ritkán...	dilaklotok	dilakoztok	1	dilakoztok	NA	NA	2842	951803	cselekszenek_2_high_reversed	cselekszenek/cselekednek	5	dilaklik / dilakozik	-0.4595323293784402	dilaklotok	dilakoztok	2	tek	2	47	FALSE	TRUE	low	typical	FALSE	FALSE	NA	NA
hungarian-esp_esp_participant_SESSION_2023-05-26_09h55.16.453.csv	BCA9Y5	nő	1983	14	4	posttest trial	153	János imád flűgözni, ezért sokat flűgzik. Mi ritkán...	flűgzünk	flűgözünk	0	flűgzünk	NA	NA	1492	953796	cselekszenek_2_high_reversed	cselekszenek/cselekednek	5	flűgzik / flűgözik	0.32542240043462795	flűgzünk	flűgözünk	1	ünk	2	18	FALSE	FALSE	low	typical	TRUE	TRUE	NA	NA
hungarian-esp_esp_participant_SESSION_2023-05-26_09h55.16.453.csv	BCA9Y5	nő	1983	14	4	posttest trial	154	János imád posozni, ezért sokat poslik. Ti ritkán...	posoztok	poslotok	0	posoztok	NA	NA	2195	956492	cselekszenek_2_high_reversed	cselekszenek/cselekednek	5	poslik / posozik	0.7419373447293773	poslotok	posoztok	1	tek	2	5	TRUE	FALSE	low	typical	TRUE	FALSE	NA	NA
hungarian-esp_esp_participant_SESSION_2023-05-26_09h55.16.453.csv	BCA9Y5	nő	1983	14	4	posttest trial	155	János imád trugozni, ezért sokat trugzik. Ők ritkán...	trugzanak	trugoznak	0	trugzanak	NA	NA	2275	959268	cselekszenek_2_high_reversed	cselekszenek/cselekednek	5	trugzik / trugozik	-0.4595323293784402	trugzanak	trugoznak	1	nek	2	48	FALSE	TRUE	low	typical	TRUE	TRUE	NA	NA
hungarian-esp_esp_participant_SESSION_2023-05-26_09h55.16.453.csv	BCA9Y5	nő	1983	14	4	posttest trial	156	János imád spiharozni, ezért sokat spiharzik. Ti ritkán...	spiharzotok	spiharoztok	1	spiharoztok	NA	NA	3923	963692	cselekszenek_2_high_reversed	cselekszenek/cselekednek	5	spiharzik / spiharozik	-0.5978370007556204	spiharzotok	spiharoztok	2	tek	2	50	FALSE	TRUE	low	typical	FALSE	FALSE	NA	NA
hungarian-esp_esp_participant_SESSION_2023-05-26_09h55.16.453.csv	BCA9Y5	nő	1983	14	4	posttest trial	157	János imád prögözni, ezért sokat prögzik. Ti ritkán...	prögöztök	prögzötök	0	prögöztök	NA	NA	1706	965899	cselekszenek_2_high_reversed	cselekszenek/cselekednek	5	prögzik / prögözik	-0.6418538861723948	prögzötök	prögöztök	1	tek	2	51	FALSE	TRUE	low	typical	TRUE	FALSE	NA	NA
hungarian-esp_esp_participant_SESSION_2023-05-26_09h55.16.453.csv	BCA9Y5	nő	1983	14	4	posttest trial	158	János imád brözözni, ezért sokat brözlik. Ti ritkán...	brözlötök	brözöztök	1	brözöztök	NA	NA	3971	970372	cselekszenek_2_high_reversed	cselekszenek/cselekednek	5	brözlik / brözözik	0.06899287148695142	brözlötök	brözöztök	1	tek	2	27	FALSE	FALSE	low	typical	FALSE	FALSE	NA	NA
hungarian-esp_esp_participant_SESSION_2023-05-26_09h55.16.453.csv	BCA9Y5	nő	1983	14	4	posttest trial	159	János imád molodni, ezért sokat molszik. Ti ritkán...	molszotok	molodtok	1	molodtok	NA	NA	2419	973291	cselekszenek_2_high_reversed	cselekszenek/cselekednek	5	molszik / molodik	0.8938178760220965	molszotok	molodtok	1	tek	2	2	TRUE	FALSE	low	typical	FALSE	FALSE	NA	NA
hungarian-esp_esp_participant_SESSION_2023-05-26_09h55.16.453.csv	BCA9Y5	nő	1983	14	4	posttest trial	160	János imád spirágozni, ezért sokat spiráglik. Ti ritkán...	spiráglotok	spirágoztok	0	spiráglotok	NA	NA	3691	977484	cselekszenek_2_high_reversed	cselekszenek/cselekednek	5	spiráglik / spirágozik	-0.2876820724517809	spiráglotok	spirágoztok	2	tek	2	42	FALSE	TRUE	low	typical	TRUE	TRUE	NA	NA
hungarian-esp_esp_participant_SESSION_2023-05-26_09h55.16.453.csv	BCA9Y5	nő	1983	14	4	posttest trial	161	János imád pragányozni, ezért sokat pragánylik. Ti ritkán...	pragánylotok	pragányoztok	1	pragányoztok	NA	NA	3625	981611	cselekszenek_2_high_reversed	cselekszenek/cselekednek	5	pragánylik / pragányozik	0	pragánylotok	pragányoztok	2	tek	2	31	FALSE	FALSE	low	typical	FALSE	FALSE	NA	NA
hungarian-esp_esp_participant_SESSION_2023-05-26_09h55.16.453.csv	BCA9Y5	nő	1983	14	4	posttest trial	162	János imád frálasozni, ezért sokat frálaslik. Ők ritkán...	frálaslanak	frálasoznak	1	frálasoznak	NA	NA	5756	987867	cselekszenek_2_high_reversed	cselekszenek/cselekednek	5	frálaslik / frálasozik	0.4595323293784402	frálaslanak	frálasoznak	2	nek	2	12	TRUE	FALSE	low	typical	FALSE	FALSE	NA	NA
hungarian-esp_esp_participant_SESSION_2023-05-26_09h55.16.453.csv	BCA9Y5	nő	1983	14	4	posttest trial	163	János imád dujozni, ezért sokat dujzik. Ők ritkán...	dujzanak	dujoznak	1	dujoznak	NA	NA	2987	991357	cselekszenek_2_high_reversed	cselekszenek/cselekednek	5	dujzik / dujozik	0.3483066942682158	dujzanak	dujoznak	1	nek	2	16	FALSE	FALSE	low	typical	FALSE	FALSE	NA	NA
hungarian-esp_esp_participant_SESSION_2023-05-26_09h55.16.453.csv	BCA9Y5	nő	1983	14	4	posttest trial	164	János imád csibagozni, ezért sokat csibagzik. Ti ritkán...	csibagzotok	csibagoztok	1	csibagoztok	NA	NA	2514	994372	cselekszenek_2_high_reversed	cselekszenek/cselekednek	5	csibagzik / csibagozik	-0.7985076962177716	csibagzotok	csibagoztok	2	tek	2	52	FALSE	TRUE	low	typical	FALSE	FALSE	NA	NA
hungarian-esp_esp_participant_SESSION_2023-05-26_09h55.16.453.csv	BCA9Y5	nő	1983	14	4	posttest trial	165	János imád lűközni, ezért sokat lűklik. Ők ritkán...	lűklenek	lűköznek	1	lűköznek	NA	NA	3194	998068	cselekszenek_2_high_reversed	cselekszenek/cselekednek	5	lűklik / lűközik	-0.2876820724517809	lűklenek	lűköznek	1	nek	2	41	FALSE	TRUE	low	typical	FALSE	FALSE	NA	NA
hungarian-esp_esp_participant_SESSION_2023-05-26_09h55.16.453.csv	BCA9Y5	nő	1983	14	4	posttest trial	166	János imád brivakozni, ezért sokat brivaklik. Ti ritkán...	brivaklotok	brivakoztok	1	brivakoztok	NA	NA	3169	1001740	cselekszenek_2_high_reversed	cselekszenek/cselekednek	5	brivaklik / brivakozik	-0.2076393647782445	brivaklotok	brivakoztok	2	tek	2	39	FALSE	FALSE	low	typical	FALSE	FALSE	NA	NA
hungarian-esp_esp_participant_SESSION_2023-05-26_09h55.16.453.csv	BCA9Y5	nő	1983	14	4	posttest trial	167	János imád virozni, ezért sokat virzik. Ők ritkán...	viroznak	virzanak	0	viroznak	NA	NA	4971	1007212	cselekszenek_2_high_reversed	cselekszenek/cselekednek	5	virzik / virozik	0	virzanak	viroznak	1	nek	2	33	FALSE	FALSE	low	typical	TRUE	FALSE	NA	NA
hungarian-esp_esp_participant_SESSION_2023-05-26_09h55.16.453.csv	BCA9Y5	nő	1983	14	4	posttest trial	168	János imád trikozni, ezért sokat triklik. Ti ritkán...	trikoztok	triklotok	0	trikoztok	NA	NA	3266	1010980	cselekszenek_2_high_reversed	cselekszenek/cselekednek	5	triklik / trikozik	0.5877866649021191	triklotok	trikoztok	1	tek	2	10	TRUE	FALSE	low	typical	TRUE	FALSE	NA	NA
hungarian-esp_esp_participant_SESSION_2023-05-26_09h55.16.453.csv	BCA9Y5	nő	1983	14	4	posttest trial	169	János imád prélemezni, ezért sokat prélemlik. Ők ritkán...	prélemlenek	prélemeznek	1	prélemeznek	NA	NA	3745	1015227	cselekszenek_2_high_reversed	cselekszenek/cselekednek	5	prélemlik / prélemezik	0.20763936477824457	prélemlenek	prélemeznek	2	nek	2	22	FALSE	FALSE	low	typical	FALSE	FALSE	NA	NA
hungarian-esp_esp_participant_SESSION_2023-05-26_09h55.16.453.csv	BCA9Y5	nő	1983	14	4	posttest trial	170	János imád csubozni, ezért sokat csubzik. Mi ritkán...	csubozunk	csubzunk	0	csubozunk	NA	NA	4436	1020165	cselekszenek_2_high_reversed	cselekszenek/cselekednek	5	csubzik / csubozik	0.7419373447293773	csubzunk	csubozunk	1	ünk	2	4	TRUE	FALSE	low	typical	TRUE	FALSE	NA	NA
hungarian-esp_esp_participant_SESSION_2023-05-26_09h55.16.453.csv	BCA9Y5	nő	1983	14	4	posttest trial	171	János imád köszözni, ezért sokat köszlik. Ti ritkán...	köszlötök	köszöztök	1	köszöztök	NA	NA	5346	1026012	cselekszenek_2_high_reversed	cselekszenek/cselekednek	5	köszlik / köszözik	-0.3483066942682157	köszlötök	köszöztök	1	tek	2	45	FALSE	TRUE	low	typical	FALSE	FALSE	NA	NA
hungarian-esp_esp_participant_SESSION_2023-05-26_09h55.16.453.csv	BCA9Y5	nő	1983	14	4	posttest trial	172	János imád sprűrözni, ezért sokat sprűrlik. Ők ritkán...	sprűrlenek	sprűröznek	1	sprűröznek	NA	NA	4723	1031235	cselekszenek_2_high_reversed	cselekszenek/cselekednek	5	sprűrlik / sprűrözik	0.1941560144409574	sprűrlenek	sprűröznek	1	nek	2	24	FALSE	FALSE	low	typical	FALSE	FALSE	NA	NA
hungarian-esp_esp_participant_SESSION_2023-05-26_09h55.16.453.csv	BCA9Y5	nő	1983	14	4	posttest trial	173	János imád gyihegezni, ezért sokat gyihegzik. Ti ritkán...	gyihegzetek	gyihegeztek	0	gyihegzetek	NA	NA	2683	1034419	cselekszenek_2_high_reversed	cselekszenek/cselekednek	5	gyihegzik / gyihegezik	-0.325422400434628	gyihegzetek	gyihegeztek	2	tek	2	43	FALSE	TRUE	low	typical	TRUE	TRUE	NA	NA
hungarian-esp_esp_participant_SESSION_2023-05-26_10h03.53.28.csv	bnzowg	nő	1983	17	3	esp trial	11	János imád tögözni, ezért sokat töglik. Ők ritkán...	tögöznek	töglenek	1	töglenek	töglenek	TRUE	66971	323803	cselekszenek_1_low_typical	cselekszenek/cselekednek	4	töglik / tögözik	1.2321436812926323	töglenek	tögöznek	1	nek	1	1	TRUE	FALSE	low	typical	FALSE	TRUE	TRUE	FALSE
hungarian-esp_esp_participant_SESSION_2023-05-26_10h03.53.28.csv	bnzowg	nő	1983	17	3	esp trial	13	János imád flugonyozni, ezért sokat flugonylik. Ők ritkán...	flugonylanak	flugonyoznak	0	flugonylanak	flugonyoznak	FALSE	11057	338883	cselekszenek_1_low_typical	cselekszenek/cselekednek	4	flugonylik / flugonyozik	0	flugonylanak	flugonyoznak	2	nek	1	31	FALSE	FALSE	low	typical	TRUE	TRUE	FALSE	FALSE
hungarian-esp_esp_participant_SESSION_2023-05-26_10h03.53.28.csv	bnzowg	nő	1983	17	3	esp trial	15	János imád hubonyozni, ezért sokat hubonylik. Ti ritkán...	hubonyoztok	hubonylotok	1	hubonylotok	hubonyoztok	FALSE	9414	352315	cselekszenek_1_low_typical	cselekszenek/cselekednek	4	hubonylik / hubonyozik	-0.5978370007556204	hubonylotok	hubonyoztok	2	tek	1	50	FALSE	TRUE	low	typical	FALSE	TRUE	FALSE	FALSE
hungarian-esp_esp_participant_SESSION_2023-05-26_10h03.53.28.csv	bnzowg	nő	1983	17	3	esp trial	17	János imád flodozni, ezért sokat flodlik. Ti ritkán...	flodoztok	flodlotok	1	flodlotok	flodoztok	FALSE	7222	363570	cselekszenek_1_low_typical	cselekszenek/cselekednek	4	flodlik / flodozik	-0.325422400434628	flodlotok	flodoztok	1	tek	1	43	FALSE	TRUE	low	typical	FALSE	TRUE	FALSE	FALSE
hungarian-esp_esp_participant_SESSION_2023-05-26_10h03.53.28.csv	bnzowg	nő	1983	17	3	esp trial	19	János imád ribegedni, ezért sokat ribegszik. Ti ritkán...	ribegedtek	ribegszetek	1	ribegszetek	ribegedtek	FALSE	8574	376178	cselekszenek_1_low_typical	cselekszenek/cselekednek	4	ribegszik / ribegedik	-0.2876820724517809	ribegszetek	ribegedtek	2	tek	1	42	FALSE	TRUE	low	typical	FALSE	TRUE	FALSE	FALSE
hungarian-esp_esp_participant_SESSION_2023-05-26_10h03.53.28.csv	bnzowg	nő	1983	17	3	esp trial	21	János imád trukodni, ezért sokat trukszik. Ti ritkán...	trukodtok	trukszotok	1	trukszotok	trukodtok	FALSE	8371	388570	cselekszenek_1_low_typical	cselekszenek/cselekednek	4	trukszik / trukodik	0.06899287148695142	trukszotok	trukodtok	1	tek	1	29	FALSE	FALSE	low	typical	FALSE	TRUE	FALSE	FALSE
hungarian-esp_esp_participant_SESSION_2023-05-26_10h03.53.28.csv	bnzowg	nő	1983	17	3	esp trial	23	János imád plibozni, ezért sokat plibzik. Ti ritkán...	pliboztok	plibzotok	0	pliboztok	pliboztok	TRUE	17053	409643	cselekszenek_1_low_typical	cselekszenek/cselekednek	4	plibzik / plibozik	-0.49247648509779407	plibzotok	pliboztok	1	tek	1	49	FALSE	TRUE	low	typical	TRUE	FALSE	FALSE	TRUE
hungarian-esp_esp_participant_SESSION_2023-05-26_10h03.53.28.csv	bnzowg	nő	1983	17	3	esp trial	25	János imád bügözni, ezért sokat bügzik. Ők ritkán...	bügöznek	bügzenek	1	bügzenek	bügzenek	TRUE	43904	457570	cselekszenek_1_low_typical	cselekszenek/cselekednek	4	bügzik / bügözik	0.6418538861723947	bügzenek	bügöznek	1	nek	1	6	TRUE	FALSE	low	typical	FALSE	TRUE	TRUE	FALSE
hungarian-esp_esp_participant_SESSION_2023-05-26_10h03.53.28.csv	bnzowg	nő	1983	17	3	esp trial	27	János imád flátozni, ezért sokat flátlik. Ti ritkán...	flátlotok	flátoztok	0	flátlotok	flátoztok	FALSE	5573	467171	cselekszenek_1_low_typical	cselekszenek/cselekednek	4	flátlik / flátozik	-0.2876820724517809	flátlotok	flátoztok	1	tek	1	41	FALSE	TRUE	low	typical	TRUE	TRUE	FALSE	FALSE
hungarian-esp_esp_participant_SESSION_2023-05-26_10h03.53.28.csv	bnzowg	nő	1983	17	3	esp trial	29	János imád brűközni, ezért sokat brűklik. Ti ritkán...	brűklötök	brűköztök	1	brűköztök	brűköztök	TRUE	5682	476890	cselekszenek_1_low_typical	cselekszenek/cselekednek	4	brűklik / brűközik	0.14310084364067324	brűklötök	brűköztök	1	tek	1	25	FALSE	FALSE	low	typical	FALSE	FALSE	FALSE	TRUE
hungarian-esp_esp_participant_SESSION_2023-05-26_10h03.53.28.csv	bnzowg	nő	1983	17	3	esp trial	31	János imád gihamozni, ezért sokat gihamlik. Ők ritkán...	gihamlanak	gihamoznak	1	gihamoznak	gihamoznak	TRUE	6120	487026	cselekszenek_1_low_typical	cselekszenek/cselekednek	4	gihamlik / gihamozik	0.32542240043462795	gihamlanak	gihamoznak	2	nek	1	19	FALSE	FALSE	low	typical	FALSE	FALSE	FALSE	TRUE
hungarian-esp_esp_participant_SESSION_2023-05-26_10h03.53.28.csv	bnzowg	nő	1983	17	3	esp trial	33	János imád nurokozni, ezért sokat nuroklik. Mi ritkán...	nurokozunk	nuroklunk	0	nurokozunk	nuroklunk	FALSE	9507	500555	cselekszenek_1_low_typical	cselekszenek/cselekednek	4	nuroklik / nurokozik	0.7419373447293773	nuroklunk	nurokozunk	2	ünk	1	5	TRUE	FALSE	low	typical	TRUE	FALSE	TRUE	TRUE
hungarian-esp_esp_participant_SESSION_2023-05-26_10h03.53.28.csv	bnzowg	nő	1983	17	3	esp trial	35	János imád spuborozni, ezért sokat spuborzik. Ők ritkán...	spuboroznak	spuborzanak	0	spuboroznak	spuboroznak	TRUE	15075	519642	cselekszenek_1_low_typical	cselekszenek/cselekednek	4	spuborzik / spuborozik	-0.4353180712578455	spuborzanak	spuboroznak	2	nek	1	47	FALSE	TRUE	low	typical	TRUE	FALSE	FALSE	TRUE
hungarian-esp_esp_participant_SESSION_2023-05-26_10h03.53.28.csv	bnzowg	nő	1983	17	3	esp trial	37	János imád vehékedni, ezért sokat vehékszik. Mi ritkán...	vehékszünk	vehékedünk	0	vehékszünk	vehékszünk	TRUE	6608	530274	cselekszenek_1_low_typical	cselekszenek/cselekednek	4	vehékszik / vehékedik	0.7472144018302211	vehékszünk	vehékedünk	2	ünk	1	4	TRUE	FALSE	low	typical	TRUE	TRUE	TRUE	FALSE
hungarian-esp_esp_participant_SESSION_2023-05-26_10h03.53.28.csv	bnzowg	nő	1983	17	3	esp trial	39	János imád nyöbözni, ezért sokat nyöbzik. Ők ritkán...	nyöböznek	nyöbzenek	0	nyöböznek	nyöböznek	TRUE	5608	539906	cselekszenek_1_low_typical	cselekszenek/cselekednek	4	nyöbzik / nyöbözik	-0.06453852113757118	nyöbzenek	nyöböznek	1	nek	1	34	FALSE	FALSE	low	typical	TRUE	FALSE	FALSE	TRUE
hungarian-esp_esp_participant_SESSION_2023-05-26_10h03.53.28.csv	bnzowg	nő	1983	17	3	esp trial	41	János imád trálakozni, ezért sokat trálaklik. Ők ritkán...	trálakoznak	trálaklanak	0	trálakoznak	trálakoznak	TRUE	7694	551627	cselekszenek_1_low_typical	cselekszenek/cselekednek	4	trálaklik / trálakozik	0	trálaklanak	trálakoznak	2	nek	1	32	FALSE	FALSE	low	typical	TRUE	FALSE	FALSE	TRUE
hungarian-esp_esp_participant_SESSION_2023-05-26_10h03.53.28.csv	bnzowg	nő	1983	17	3	esp trial	43	János imád sűjözni, ezért sokat sűjlik. Mi ritkán...	sűjözünk	sűjlünk	0	sűjözünk	sűjlünk	FALSE	4904	560570	cselekszenek_1_low_typical	cselekszenek/cselekednek	4	sűjlik / sűjözik	0.5877866649021191	sűjlünk	sűjözünk	1	ünk	1	10	TRUE	FALSE	low	typical	TRUE	FALSE	TRUE	TRUE
hungarian-esp_esp_participant_SESSION_2023-05-26_10h03.53.28.csv	bnzowg	nő	1983	17	3	esp trial	45	János imád trálodni, ezért sokat trálszik. Mi ritkán...	trálszunk	trálodunk	0	trálszunk	trálszunk	TRUE	53110	617715	cselekszenek_1_low_typical	cselekszenek/cselekednek	4	trálszik / trálodik	0.9162907318741552	trálszunk	trálodunk	1	ünk	1	2	TRUE	FALSE	low	typical	TRUE	TRUE	TRUE	FALSE
hungarian-esp_esp_participant_SESSION_2023-05-26_10h03.53.28.csv	bnzowg	nő	1983	17	3	esp trial	47	János imád bresezni, ezért sokat breslik. Ők ritkán...	breslenek	breseznek	1	breseznek	breseznek	TRUE	19647	641386	cselekszenek_1_low_typical	cselekszenek/cselekednek	4	breslik / bresezik	0.06899287148695142	breslenek	breseznek	1	nek	1	27	FALSE	FALSE	low	typical	FALSE	FALSE	FALSE	TRUE
hungarian-esp_esp_participant_SESSION_2023-05-26_10h03.53.28.csv	bnzowg	nő	1983	17	3	esp trial	49	János imád frirozni, ezért sokat frirzik. Mi ritkán...	frirzunk	frirozunk	1	frirozunk	frirozunk	TRUE	9353	654762	cselekszenek_1_low_typical	cselekszenek/cselekednek	4	frirzik / frirozik	-0.3483066942682157	frirzunk	frirozunk	1	ünk	1	45	FALSE	TRUE	low	typical	FALSE	FALSE	FALSE	TRUE
hungarian-esp_esp_participant_SESSION_2023-05-26_10h03.53.28.csv	bnzowg	nő	1983	17	3	esp trial	51	János imád bribékedni, ezért sokat bribékszik. Ti ritkán...	bribékszetek	bribékedtek	0	bribékszetek	bribékedtek	FALSE	10309	669107	cselekszenek_1_low_typical	cselekszenek/cselekednek	4	bribékszik / bribékedik	-0.1941560144409575	bribékszetek	bribékedtek	2	tek	1	38	FALSE	FALSE	low	typical	TRUE	TRUE	FALSE	FALSE
hungarian-esp_esp_participant_SESSION_2023-05-26_10h03.53.28.csv	bnzowg	nő	1983	17	3	esp trial	53	János imád döjözni, ezért sokat döjlik. Ők ritkán...	döjlenek	döjöznek	0	döjlenek	döjlenek	TRUE	11661	684794	cselekszenek_1_low_typical	cselekszenek/cselekednek	4	döjlik / döjözik	0.5877866649021191	döjlenek	döjöznek	1	nek	1	9	TRUE	FALSE	low	typical	TRUE	TRUE	TRUE	FALSE
hungarian-esp_esp_participant_SESSION_2023-05-26_10h03.53.28.csv	bnzowg	nő	1983	17	3	esp trial	55	János imád hiragozni, ezért sokat hiragzik. Ők ritkán...	hiragoznak	hiragzanak	0	hiragoznak	hiragoznak	TRUE	7816	696634	cselekszenek_1_low_typical	cselekszenek/cselekednek	4	hiragzik / hiragozik	0.20763936477824457	hiragzanak	hiragoznak	2	nek	1	22	FALSE	FALSE	low	typical	TRUE	FALSE	FALSE	TRUE
hungarian-esp_esp_participant_SESSION_2023-05-26_10h03.53.28.csv	bnzowg	nő	1983	17	3	esp trial	57	János imád nyizozni, ezért sokat nyizlik. Mi ritkán...	nyizozunk	nyizlunk	1	nyizlunk	nyizlunk	TRUE	6563	707226	cselekszenek_1_low_typical	cselekszenek/cselekednek	4	nyizlik / nyizozik	0.6418538861723947	nyizlunk	nyizozunk	1	ünk	1	7	TRUE	FALSE	low	typical	FALSE	TRUE	TRUE	FALSE
hungarian-esp_esp_participant_SESSION_2023-05-26_10h03.53.28.csv	bnzowg	nő	1983	17	3	esp trial	59	János imád frorozni, ezért sokat frorlik. Ők ritkán...	frorlanak	froroznak	1	froroznak	frorlanak	FALSE	13443	724690	cselekszenek_1_low_typical	cselekszenek/cselekednek	4	frorlik / frorozik	0.49247648509779424	frorlanak	froroznak	1	nek	1	11	TRUE	FALSE	low	typical	FALSE	FALSE	TRUE	TRUE
hungarian-esp_esp_participant_SESSION_2023-05-26_10h03.53.28.csv	bnzowg	nő	1983	17	3	esp trial	61	János imád jurozni, ezért sokat jurlik. Mi ritkán...	jurozunk	jurlunk	0	jurozunk	jurozunk	TRUE	28241	756954	cselekszenek_1_low_typical	cselekszenek/cselekednek	4	jurlik / jurozik	0.06899287148695142	jurlunk	jurozunk	1	ünk	1	28	FALSE	FALSE	low	typical	TRUE	FALSE	FALSE	TRUE
hungarian-esp_esp_participant_SESSION_2023-05-26_10h03.53.28.csv	bnzowg	nő	1983	17	3	esp trial	63	János imád bribasozni, ezért sokat bribaslik. Ők ritkán...	bribaslanak	bribasoznak	1	bribasoznak	bribasoznak	TRUE	6484	767466	cselekszenek_1_low_typical	cselekszenek/cselekednek	4	bribaslik / bribasozik	-0.3483066942682157	bribaslanak	bribasoznak	2	nek	1	44	FALSE	TRUE	low	typical	FALSE	FALSE	FALSE	TRUE
hungarian-esp_esp_participant_SESSION_2023-05-26_10h03.53.28.csv	bnzowg	nő	1983	17	3	esp trial	65	János imád klűmözni, ezért sokat klűmlik. Ti ritkán...	klűmlötök	klűmöztök	1	klűmöztök	klűmöztök	TRUE	6690	778178	cselekszenek_1_low_typical	cselekszenek/cselekednek	4	klűmlik / klűmözik	-0.4595323293784402	klűmlötök	klűmöztök	1	tek	1	48	FALSE	TRUE	low	typical	FALSE	FALSE	FALSE	TRUE
hungarian-esp_esp_participant_SESSION_2023-05-26_10h03.53.28.csv	bnzowg	nő	1983	17	3	esp trial	67	János imád brürözni, ezért sokat brürzik. Ők ritkán...	brürzenek	brüröznek	1	brüröznek	brüröznek	TRUE	6296	788482	cselekszenek_1_low_typical	cselekszenek/cselekednek	4	brürzik / brürözik	-0.1431008436406733	brürzenek	brüröznek	1	nek	1	37	FALSE	FALSE	low	typical	FALSE	FALSE	FALSE	TRUE
hungarian-esp_esp_participant_SESSION_2023-05-26_10h03.53.28.csv	bnzowg	nő	1983	17	3	esp trial	69	János imád sztredezni, ezért sokat sztredlik. Ti ritkán...	sztredeztek	sztredletek	0	sztredeztek	sztredeztek	TRUE	27023	819538	cselekszenek_1_low_typical	cselekszenek/cselekednek	4	sztredlik / sztredezik	0.28768207245178085	sztredletek	sztredeztek	1	tek	1	21	FALSE	FALSE	low	typical	TRUE	FALSE	FALSE	TRUE
hungarian-esp_esp_participant_SESSION_2023-05-26_10h03.53.28.csv	bnzowg	nő	1983	17	3	esp trial	71	János imád sprebezni, ezért sokat sprebzik. Ők ritkán...	sprebeznek	sprebzenek	0	sprebeznek	sprebeznek	TRUE	1862	826807	cselekszenek_1_low_typical	cselekszenek/cselekednek	4	sprebzik / sprebezik	0.1941560144409574	sprebzenek	sprebeznek	1	nek	1	24	FALSE	FALSE	low	typical	TRUE	FALSE	FALSE	TRUE
hungarian-esp_esp_participant_SESSION_2023-05-26_10h03.53.28.csv	bnzowg	nő	1983	17	3	esp trial	73	János imád metégedni, ezért sokat metégszik. Ők ritkán...	metégszenek	metégednek	0	metégszenek	metégednek	FALSE	701	834065	cselekszenek_1_low_typical	cselekszenek/cselekednek	4	metégszik / metégedik	0.06453852113757116	metégszenek	metégednek	2	nek	1	30	FALSE	FALSE	low	typical	TRUE	TRUE	FALSE	FALSE
hungarian-esp_esp_participant_SESSION_2023-05-26_10h03.53.28.csv	bnzowg	nő	1983	17	3	esp trial	75	János imád spivejezni, ezért sokat spivejlik. Ők ritkán...	spivejlenek	spivejeznek	0	spivejlenek	spivejeznek	FALSE	734	841320	cselekszenek_1_low_typical	cselekszenek/cselekednek	4	spivejlik / spivejezik	-0.3483066942682157	spivejlenek	spivejeznek	2	nek	1	46	FALSE	TRUE	low	typical	TRUE	TRUE	FALSE	FALSE
hungarian-esp_esp_participant_SESSION_2023-05-26_10h03.53.28.csv	bnzowg	nő	1983	17	3	esp trial	77	János imád nivározni, ezért sokat nivárzik. Ti ritkán...	nivárzotok	nivároztok	1	nivároztok	nivároztok	TRUE	5555	850890	cselekszenek_1_low_typical	cselekszenek/cselekednek	4	nivárzik / nivározik	-0.916290731874155	nivárzotok	nivároztok	2	tek	1	54	FALSE	TRUE	low	typical	FALSE	FALSE	FALSE	TRUE
hungarian-esp_esp_participant_SESSION_2023-05-26_10h03.53.28.csv	bnzowg	nő	1983	17	3	esp trial	79	János imád nyülöközni, ezért sokat nyülöklik. Ők ritkán...	nyülököznek	nyülöklenek	1	nyülöklenek	nyülököznek	FALSE	4919	859826	cselekszenek_1_low_typical	cselekszenek/cselekednek	4	nyülöklik / nyülöközik	0.3483066942682158	nyülöklenek	nyülököznek	2	nek	1	17	FALSE	FALSE	low	typical	FALSE	TRUE	FALSE	FALSE
hungarian-esp_esp_participant_SESSION_2023-05-26_10h03.53.28.csv	bnzowg	nő	1983	17	3	esp trial	81	János imád vilesezni, ezért sokat vileslik. Mi ritkán...	vilesezünk	vileslünk	0	vilesezünk	vilesezünk	TRUE	5100	868954	cselekszenek_1_low_typical	cselekszenek/cselekednek	4	vileslik / vilesezik	0	vileslünk	vilesezünk	2	ünk	1	33	FALSE	FALSE	low	typical	TRUE	FALSE	FALSE	TRUE
hungarian-esp_esp_participant_SESSION_2023-05-26_10h03.53.28.csv	bnzowg	nő	1983	17	3	esp trial	83	János imád trilekedni, ezért sokat trilekszik. Ti ritkán...	trilekedtek	trilekszetek	1	trilekszetek	trilekedtek	FALSE	4294	877266	cselekszenek_1_low_typical	cselekszenek/cselekednek	4	trilekszik / trilekedik	0.14310084364067324	trilekszetek	trilekedtek	2	tek	1	26	FALSE	FALSE	low	typical	FALSE	TRUE	FALSE	FALSE
hungarian-esp_esp_participant_SESSION_2023-05-26_10h03.53.28.csv	bnzowg	nő	1983	17	3	esp trial	85	János imád frélegezni, ezért sokat frélegzik. Mi ritkán...	frélegzünk	frélegezünk	0	frélegzünk	frélegzünk	TRUE	6514	887802	cselekszenek_1_low_typical	cselekszenek/cselekednek	4	frélegzik / frélegezik	0.7985076962177716	frélegzünk	frélegezünk	2	ünk	1	3	TRUE	FALSE	low	typical	TRUE	TRUE	TRUE	FALSE
hungarian-esp_esp_participant_SESSION_2023-05-26_10h03.53.28.csv	bnzowg	nő	1983	17	3	esp trial	87	János imád dibágozni, ezért sokat dibáglik. Ti ritkán...	dibáglotok	dibágoztok	1	dibágoztok	dibágoztok	TRUE	14103	905922	cselekszenek_1_low_typical	cselekszenek/cselekednek	4	dibáglik / dibágozik	0.1941560144409574	dibáglotok	dibágoztok	2	tek	1	23	FALSE	FALSE	low	typical	FALSE	FALSE	FALSE	TRUE
hungarian-esp_esp_participant_SESSION_2023-05-26_10h03.53.28.csv	bnzowg	nő	1983	17	3	esp trial	89	János imád dralágozni, ezért sokat dralágzik. Mi ritkán...	dralágozunk	dralágzunk	1	dralágzunk	dralágzunk	TRUE	8627	918578	cselekszenek_1_low_typical	cselekszenek/cselekednek	4	dralágzik / dralágozik	0.4353180712578455	dralágzunk	dralágozunk	2	ünk	1	14	TRUE	FALSE	low	typical	FALSE	TRUE	TRUE	FALSE
hungarian-esp_esp_participant_SESSION_2023-05-26_10h03.53.28.csv	bnzowg	nő	1983	17	3	esp trial	91	János imád flerékedni, ezért sokat flerékszik. Mi ritkán...	flerékszünk	flerékedünk	0	flerékszünk	flerékedünk	FALSE	3904	926506	cselekszenek_1_low_typical	cselekszenek/cselekednek	4	flerékszik / flerékedik	0.32542240043462795	flerékszünk	flerékedünk	2	ünk	1	18	FALSE	FALSE	low	typical	TRUE	TRUE	FALSE	FALSE
hungarian-esp_esp_participant_SESSION_2023-05-26_10h03.53.28.csv	bnzowg	nő	1983	17	3	esp trial	93	János imád vihapodni, ezért sokat vihapszik. Mi ritkán...	vihapodunk	vihapszunk	1	vihapszunk	vihapszunk	TRUE	4261	934778	cselekszenek_1_low_typical	cselekszenek/cselekednek	4	vihapszik / vihapodik	0.49247648509779424	vihapszunk	vihapodunk	2	ünk	1	12	TRUE	FALSE	low	typical	FALSE	TRUE	TRUE	FALSE
hungarian-esp_esp_participant_SESSION_2023-05-26_10h03.53.28.csv	bnzowg	nő	1983	17	3	esp trial	95	János imád klihasozni, ezért sokat klihaslik. Ti ritkán...	klihasoztok	klihaslotok	0	klihasoztok	klihasoztok	TRUE	3707	942506	cselekszenek_1_low_typical	cselekszenek/cselekednek	4	klihaslik / klihasozik	-0.2076393647782445	klihaslotok	klihasoztok	2	tek	1	40	FALSE	TRUE	low	typical	TRUE	FALSE	FALSE	TRUE
hungarian-esp_esp_participant_SESSION_2023-05-26_10h03.53.28.csv	bnzowg	nő	1983	17	3	esp trial	97	János imád klégezni, ezért sokat kléglik. Mi ritkán...	klégezünk	kléglünk	0	klégezünk	kléglünk	FALSE	8314	954842	cselekszenek_1_low_typical	cselekszenek/cselekednek	4	kléglik / klégezik	0.4353180712578455	kléglünk	klégezünk	1	ünk	1	15	TRUE	FALSE	low	typical	TRUE	FALSE	TRUE	TRUE
hungarian-esp_esp_participant_SESSION_2023-05-26_10h03.53.28.csv	bnzowg	nő	1983	17	3	esp trial	99	János imád kláragodni, ezért sokat kláragszik. Ti ritkán...	kláragodtok	kláragszotok	1	kláragszotok	kláragodtok	FALSE	7956	966826	cselekszenek_1_low_typical	cselekszenek/cselekednek	4	kláragszik / kláragodik	0.28768207245178085	kláragszotok	kláragodtok	2	tek	1	20	FALSE	FALSE	low	typical	FALSE	TRUE	FALSE	FALSE
hungarian-esp_esp_participant_SESSION_2023-05-26_10h03.53.28.csv	bnzowg	nő	1983	17	3	esp trial	101	János imád frinyozni, ezért sokat frinylik. Mi ritkán...	frinylunk	frinyozunk	1	frinyozunk	frinyozunk	TRUE	8101	978946	cselekszenek_1_low_typical	cselekszenek/cselekednek	4	frinylik / frinyozik	-0.06899287148695143	frinylunk	frinyozunk	1	ünk	1	36	FALSE	FALSE	low	typical	FALSE	FALSE	FALSE	TRUE
hungarian-esp_esp_participant_SESSION_2023-05-26_10h03.53.28.csv	bnzowg	nő	1983	17	3	esp trial	103	János imád bejezni, ezért sokat bejzik. Mi ritkán...	bejzünk	bejezünk	0	bejzünk	bejezünk	FALSE	9860	992834	cselekszenek_1_low_typical	cselekszenek/cselekednek	4	bejzik / bejezik	-0.06899287148695143	bejzünk	bejezünk	1	ünk	1	35	FALSE	FALSE	low	typical	TRUE	TRUE	FALSE	FALSE
hungarian-esp_esp_participant_SESSION_2023-05-26_10h03.53.28.csv	bnzowg	nő	1983	17	3	esp trial	105	János imád bötőrözni, ezért sokat bötőrzik. Mi ritkán...	bötőrzünk	bötőrözünk	0	bötőrzünk	bötőrözünk	FALSE	5357	1002218	cselekszenek_1_low_typical	cselekszenek/cselekednek	4	bötőrzik / bötőrözik	0.3483066942682158	bötőrzünk	bötőrözünk	2	ünk	1	16	FALSE	FALSE	low	typical	TRUE	TRUE	FALSE	FALSE
hungarian-esp_esp_participant_SESSION_2023-05-26_10h03.53.28.csv	bnzowg	nő	1983	17	3	esp trial	107	János imád prugorozni, ezért sokat prugorzik. Ti ritkán...	prugorzotok	prugoroztok	1	prugoroztok	prugoroztok	TRUE	16699	1022938	cselekszenek_1_low_typical	cselekszenek/cselekednek	4	prugorzik / prugorozik	-0.7985076962177716	prugorzotok	prugoroztok	2	tek	1	53	FALSE	TRUE	low	typical	FALSE	FALSE	FALSE	TRUE
hungarian-esp_esp_participant_SESSION_2023-05-26_10h03.53.28.csv	bnzowg	nő	1983	17	3	esp trial	109	János imád pibegezni, ezért sokat pibegzik. Ők ritkán...	pibegzenek	pibegeznek	1	pibegeznek	pibegeznek	TRUE	3764	1030746	cselekszenek_1_low_typical	cselekszenek/cselekednek	4	pibegzik / pibegezik	-0.7472144018302211	pibegzenek	pibegeznek	2	nek	1	52	FALSE	TRUE	low	typical	FALSE	FALSE	FALSE	TRUE
hungarian-esp_esp_participant_SESSION_2023-05-26_10h03.53.28.csv	bnzowg	nő	1983	17	3	esp trial	111	János imád prihegedni, ezért sokat prihegszik. Ők ritkán...	prihegszenek	prihegednek	0	prihegszenek	prihegednek	FALSE	5248	1040026	cselekszenek_1_low_typical	cselekszenek/cselekednek	4	prihegszik / prihegedik	-0.1941560144409575	prihegszenek	prihegednek	2	nek	1	39	FALSE	FALSE	low	typical	TRUE	TRUE	FALSE	FALSE
hungarian-esp_esp_participant_SESSION_2023-05-26_10h03.53.28.csv	bnzowg	nő	1983	17	3	esp trial	113	János imád nyádozni, ezért sokat nyádlik. Ők ritkán...	nyádoznak	nyádlanak	0	nyádoznak	nyádlanak	FALSE	10226	1054266	cselekszenek_1_low_typical	cselekszenek/cselekednek	4	nyádlik / nyádozik	0.4595323293784402	nyádlanak	nyádoznak	1	nek	1	13	TRUE	FALSE	low	typical	TRUE	FALSE	TRUE	TRUE
hungarian-esp_esp_participant_SESSION_2023-05-26_10h03.53.28.csv	bnzowg	nő	1983	17	3	esp trial	115	János imád géregezni, ezért sokat géreglik. Ti ritkán...	géregeztek	géregletek	0	géregeztek	géregeztek	TRUE	5403	1063690	cselekszenek_1_low_typical	cselekszenek/cselekednek	4	géreglik / géregezik	-0.6418538861723948	géregletek	géregeztek	2	tek	1	51	FALSE	TRUE	low	typical	TRUE	FALSE	FALSE	TRUE
hungarian-esp_esp_participant_SESSION_2023-05-26_10h03.53.28.csv	bnzowg	nő	1983	17	3	esp trial	117	János imád játozni, ezért sokat játlik. Mi ritkán...	játlunk	játozunk	1	játozunk	játlunk	FALSE	3889	1071594	cselekszenek_1_low_typical	cselekszenek/cselekednek	4	játlik / játozik	0.5978370007556204	játlunk	játozunk	1	ünk	1	8	TRUE	FALSE	low	typical	FALSE	FALSE	TRUE	TRUE
hungarian-esp_esp_participant_SESSION_2023-05-26_10h03.53.28.csv	bnzowg	nő	1983	17	4	posttest trial	120	János imád brivakozni, ezért sokat brivaklik. Ti ritkán...	brivakoztok	brivaklotok	1	brivaklotok	NA	NA	9625	1185922	cselekszenek_2_high_reversed	cselekszenek/cselekednek	5	brivaklik / brivakozik	-0.2076393647782445	brivaklotok	brivakoztok	2	tek	2	39	FALSE	FALSE	low	typical	FALSE	TRUE	NA	NA
hungarian-esp_esp_participant_SESSION_2023-05-26_10h03.53.28.csv	bnzowg	nő	1983	17	4	posttest trial	121	János imád nyürözni, ezért sokat nyürzik. Ők ritkán...	nyürzenek	nyüröznek	0	nyürzenek	NA	NA	9958	1196386	cselekszenek_2_high_reversed	cselekszenek/cselekednek	5	nyürzik / nyürözik	-0.06453852113757118	nyürzenek	nyüröznek	1	nek	2	34	FALSE	FALSE	low	typical	TRUE	TRUE	NA	NA
hungarian-esp_esp_participant_SESSION_2023-05-26_10h03.53.28.csv	bnzowg	nő	1983	17	4	posttest trial	122	János imád kűdözni, ezért sokat kűdlik. Ők ritkán...	kűdöznek	kűdlenek	1	kűdlenek	NA	NA	5319	1202218	cselekszenek_2_high_reversed	cselekszenek/cselekednek	5	kűdlik / kűdözik	0.7985076962177716	kűdlenek	kűdöznek	1	nek	2	3	TRUE	FALSE	low	typical	FALSE	TRUE	NA	NA
hungarian-esp_esp_participant_SESSION_2023-05-26_10h03.53.28.csv	bnzowg	nő	1983	17	4	posttest trial	123	János imád virozni, ezért sokat virzik. Ők ritkán...	viroznak	virzanak	1	virzanak	NA	NA	9987	1212721	cselekszenek_2_high_reversed	cselekszenek/cselekednek	5	virzik / virozik	0	virzanak	viroznak	1	nek	2	33	FALSE	FALSE	low	typical	FALSE	TRUE	NA	NA
hungarian-esp_esp_participant_SESSION_2023-05-26_10h03.53.28.csv	bnzowg	nő	1983	17	4	posttest trial	124	János imád flöközni, ezért sokat flöklik. Ti ritkán...	flöklötök	flököztök	0	flöklötök	NA	NA	5992	1219226	cselekszenek_2_high_reversed	cselekszenek/cselekednek	5	flöklik / flöközik	-0.1431008436406733	flöklötök	flököztök	1	tek	2	37	FALSE	FALSE	low	typical	TRUE	TRUE	NA	NA
hungarian-esp_esp_participant_SESSION_2023-05-26_10h03.53.28.csv	bnzowg	nő	1983	17	4	posttest trial	125	János imád molodni, ezért sokat molszik. Ti ritkán...	molszotok	molodtok	1	molodtok	NA	NA	14644	1234385	cselekszenek_2_high_reversed	cselekszenek/cselekednek	5	molszik / molodik	0.8938178760220965	molszotok	molodtok	1	tek	2	2	TRUE	FALSE	low	typical	FALSE	FALSE	NA	NA
hungarian-esp_esp_participant_SESSION_2023-05-26_10h03.53.28.csv	bnzowg	nő	1983	17	4	posttest trial	126	János imád trugozni, ezért sokat trugzik. Ők ritkán...	trugoznak	trugzanak	1	trugzanak	NA	NA	3631	1238530	cselekszenek_2_high_reversed	cselekszenek/cselekednek	5	trugzik / trugozik	-0.4595323293784402	trugzanak	trugoznak	1	nek	2	48	FALSE	TRUE	low	typical	FALSE	TRUE	NA	NA
hungarian-esp_esp_participant_SESSION_2023-05-26_10h03.53.28.csv	bnzowg	nő	1983	17	4	posttest trial	127	János imád branyozni, ezért sokat branylik. Ők ritkán...	branylanak	branyoznak	0	branylanak	NA	NA	5566	1244610	cselekszenek_2_high_reversed	cselekszenek/cselekednek	5	branylik / branyozik	0.32542240043462795	branylanak	branyoznak	1	nek	2	17	FALSE	FALSE	low	typical	TRUE	TRUE	NA	NA
hungarian-esp_esp_participant_SESSION_2023-05-26_10h03.53.28.csv	bnzowg	nő	1983	17	4	posttest trial	128	János imád nyivágozni, ezért sokat nyivágzik. Mi ritkán...	nyivágozunk	nyivágzunk	0	nyivágozunk	NA	NA	10210	1255330	cselekszenek_2_high_reversed	cselekszenek/cselekednek	5	nyivágzik / nyivágozik	0.965080896043587	nyivágzunk	nyivágozunk	2	ünk	2	1	TRUE	FALSE	low	typical	TRUE	FALSE	NA	NA
hungarian-esp_esp_participant_SESSION_2023-05-26_10h03.53.28.csv	bnzowg	nő	1983	17	4	posttest trial	129	János imád dujozni, ezért sokat dujzik. Ők ritkán...	dujzanak	dujoznak	0	dujzanak	NA	NA	5308	1261154	cselekszenek_2_high_reversed	cselekszenek/cselekednek	5	dujzik / dujozik	0.3483066942682158	dujzanak	dujoznak	1	nek	2	16	FALSE	FALSE	low	typical	TRUE	TRUE	NA	NA
hungarian-esp_esp_participant_SESSION_2023-05-26_10h03.53.28.csv	bnzowg	nő	1983	17	4	posttest trial	130	János imád flűgözni, ezért sokat flűgzik. Mi ritkán...	flűgözünk	flűgzünk	1	flűgzünk	NA	NA	4248	1265914	cselekszenek_2_high_reversed	cselekszenek/cselekednek	5	flűgzik / flűgözik	0.32542240043462795	flűgzünk	flűgözünk	1	ünk	2	18	FALSE	FALSE	low	typical	FALSE	TRUE	NA	NA
hungarian-esp_esp_participant_SESSION_2023-05-26_10h03.53.28.csv	bnzowg	nő	1983	17	4	posttest trial	131	János imád frakozni, ezért sokat fraklik. Mi ritkán...	frakozunk	fraklunk	1	fraklunk	NA	NA	4896	1271330	cselekszenek_2_high_reversed	cselekszenek/cselekednek	5	fraklik / frakozik	0.20763936477824457	fraklunk	frakozunk	1	ünk	2	21	FALSE	FALSE	low	typical	FALSE	TRUE	NA	NA
hungarian-esp_esp_participant_SESSION_2023-05-26_10h03.53.28.csv	bnzowg	nő	1983	17	4	posttest trial	132	János imád trugokozni, ezért sokat trugoklik. Ők ritkán...	trugokoznak	trugoklanak	1	trugoklanak	NA	NA	5111	1276953	cselekszenek_2_high_reversed	cselekszenek/cselekednek	5	trugoklik / trugokozik	0.14310084364067324	trugoklanak	trugokoznak	2	nek	2	26	FALSE	FALSE	low	typical	FALSE	TRUE	NA	NA
hungarian-esp_esp_participant_SESSION_2023-05-26_10h03.53.28.csv	bnzowg	nő	1983	17	4	posttest trial	133	János imád trikozni, ezért sokat triklik. Ti ritkán...	triklotok	trikoztok	0	triklotok	NA	NA	6057	1283522	cselekszenek_2_high_reversed	cselekszenek/cselekednek	5	triklik / trikozik	0.5877866649021191	triklotok	trikoztok	1	tek	2	10	TRUE	FALSE	low	typical	TRUE	TRUE	NA	NA
hungarian-esp_esp_participant_SESSION_2023-05-26_10h03.53.28.csv	bnzowg	nő	1983	17	4	posttest trial	134	János imád sprudozni, ezért sokat sprudlik. Mi ritkán...	sprudlunk	sprudozunk	0	sprudlunk	NA	NA	5195	1289226	cselekszenek_2_high_reversed	cselekszenek/cselekednek	5	sprudlik / sprudozik	-0.2076393647782445	sprudlunk	sprudozunk	1	ünk	2	40	FALSE	TRUE	low	typical	TRUE	TRUE	NA	NA
hungarian-esp_esp_participant_SESSION_2023-05-26_10h03.53.28.csv	bnzowg	nő	1983	17	4	posttest trial	135	János imád privékedni, ezért sokat privékszik. Ők ritkán...	privékednek	privékszenek	0	privékednek	NA	NA	5443	1295178	cselekszenek_2_high_reversed	cselekszenek/cselekednek	5	privékszik / privékedik	0.06899287148695142	privékszenek	privékednek	2	nek	2	28	FALSE	FALSE	low	typical	TRUE	FALSE	NA	NA
hungarian-esp_esp_participant_SESSION_2023-05-26_10h03.53.28.csv	bnzowg	nő	1983	17	4	posttest trial	136	János imád prélemezni, ezért sokat prélemlik. Ők ritkán...	prélemeznek	prélemlenek	1	prélemlenek	NA	NA	5210	1300897	cselekszenek_2_high_reversed	cselekszenek/cselekednek	5	prélemlik / prélemezik	0.20763936477824457	prélemlenek	prélemeznek	2	nek	2	22	FALSE	FALSE	low	typical	FALSE	TRUE	NA	NA
hungarian-esp_esp_participant_SESSION_2023-05-26_10h03.53.28.csv	bnzowg	nő	1983	17	4	posttest trial	137	János imád lűközni, ezért sokat lűklik. Ők ritkán...	lűköznek	lűklenek	1	lűklenek	NA	NA	3721	1305130	cselekszenek_2_high_reversed	cselekszenek/cselekednek	5	lűklik / lűközik	-0.2876820724517809	lűklenek	lűköznek	1	nek	2	41	FALSE	TRUE	low	typical	FALSE	TRUE	NA	NA
hungarian-esp_esp_participant_SESSION_2023-05-26_10h03.53.28.csv	bnzowg	nő	1983	17	4	posttest trial	138	János imád klehényezni, ezért sokat klehénylik. Ti ritkán...	klehényletek	klehényeztek	0	klehényletek	NA	NA	4666	1310305	cselekszenek_2_high_reversed	cselekszenek/cselekednek	5	klehénylik / klehényezik	0.32542240043462795	klehényletek	klehényeztek	2	tek	2	19	FALSE	FALSE	low	typical	TRUE	TRUE	NA	NA
hungarian-esp_esp_participant_SESSION_2023-05-26_10h03.53.28.csv	bnzowg	nő	1983	17	4	posttest trial	139	János imád spügözni, ezért sokat spügzik. Mi ritkán...	spügözünk	spügzünk	1	spügzünk	NA	NA	5802	1316618	cselekszenek_2_high_reversed	cselekszenek/cselekednek	5	spügzik / spügözik	0.4595323293784402	spügzünk	spügözünk	1	ünk	2	13	TRUE	FALSE	low	typical	FALSE	TRUE	NA	NA
hungarian-esp_esp_participant_SESSION_2023-05-26_10h03.53.28.csv	bnzowg	nő	1983	17	4	posttest trial	140	János imád frálasozni, ezért sokat frálaslik. Ők ritkán...	frálaslanak	frálasoznak	0	frálaslanak	NA	NA	4940	1322073	cselekszenek_2_high_reversed	cselekszenek/cselekednek	5	frálaslik / frálasozik	0.4595323293784402	frálaslanak	frálasoznak	2	nek	2	12	TRUE	FALSE	low	typical	TRUE	TRUE	NA	NA
hungarian-esp_esp_participant_SESSION_2023-05-26_10h03.53.28.csv	bnzowg	nő	1983	17	4	posttest trial	141	János imád brülösözni, ezért sokat brülöslik. Mi ritkán...	brülösözünk	brülöslünk	1	brülöslünk	NA	NA	5099	1327690	cselekszenek_2_high_reversed	cselekszenek/cselekednek	5	brülöslik / brülösözik	-0.06899287148695143	brülöslünk	brülösözünk	2	ünk	2	35	FALSE	FALSE	low	typical	FALSE	TRUE	NA	NA
hungarian-esp_esp_participant_SESSION_2023-05-26_10h03.53.28.csv	bnzowg	nő	1983	17	4	posttest trial	142	János imád pragányozni, ezért sokat pragánylik. Ti ritkán...	pragányoztok	pragánylotok	1	pragánylotok	NA	NA	5814	1334009	cselekszenek_2_high_reversed	cselekszenek/cselekednek	5	pragánylik / pragányozik	0	pragánylotok	pragányoztok	2	tek	2	31	FALSE	FALSE	low	typical	FALSE	TRUE	NA	NA
hungarian-esp_esp_participant_SESSION_2023-05-26_10h03.53.28.csv	bnzowg	nő	1983	17	4	posttest trial	143	János imád flüröközni, ezért sokat flüröklik. Ti ritkán...	flüröklötök	flürököztök	0	flüröklötök	NA	NA	6712	1341234	cselekszenek_2_high_reversed	cselekszenek/cselekednek	5	flüröklik / flüröközik	0.1941560144409574	flüröklötök	flürököztök	2	tek	2	23	FALSE	FALSE	low	typical	TRUE	TRUE	NA	NA
hungarian-esp_esp_participant_SESSION_2023-05-26_10h03.53.28.csv	bnzowg	nő	1983	17	4	posttest trial	144	János imád sprűrözni, ezért sokat sprűrlik. Ők ritkán...	sprűröznek	sprűrlenek	1	sprűrlenek	NA	NA	5759	1347505	cselekszenek_2_high_reversed	cselekszenek/cselekednek	5	sprűrlik / sprűrözik	0.1941560144409574	sprűrlenek	sprűröznek	1	nek	2	24	FALSE	FALSE	low	typical	FALSE	TRUE	NA	NA
hungarian-esp_esp_participant_SESSION_2023-05-26_10h03.53.28.csv	bnzowg	nő	1983	17	4	posttest trial	145	János imád sprozozni, ezért sokat sprozlik. Ők ritkán...	sprozlanak	sprozoznak	0	sprozlanak	NA	NA	19257	1367274	cselekszenek_2_high_reversed	cselekszenek/cselekednek	5	sprozlik / sprozozik	0.14310084364067324	sprozlanak	sprozoznak	1	nek	2	25	FALSE	FALSE	low	typical	TRUE	TRUE	NA	NA
hungarian-esp_esp_participant_SESSION_2023-05-26_10h03.53.28.csv	bnzowg	nő	1983	17	4	posttest trial	146	János imád dilakozni, ezért sokat dilaklik. Ti ritkán...	dilaklotok	dilakoztok	0	dilaklotok	NA	NA	4580	1372369	cselekszenek_2_high_reversed	cselekszenek/cselekednek	5	dilaklik / dilakozik	-0.4595323293784402	dilaklotok	dilakoztok	2	tek	2	47	FALSE	TRUE	low	typical	TRUE	TRUE	NA	NA
hungarian-esp_esp_participant_SESSION_2023-05-26_10h03.53.28.csv	bnzowg	nő	1983	17	4	posttest trial	147	János imád lájozni, ezért sokat lájzik. Ti ritkán...	lájoztok	lájzotok	1	lájzotok	NA	NA	3797	1376673	cselekszenek_2_high_reversed	cselekszenek/cselekednek	5	lájzik / lájozik	0.4353180712578455	lájzotok	lájoztok	1	tek	2	15	TRUE	FALSE	low	typical	FALSE	TRUE	NA	NA
hungarian-esp_esp_participant_SESSION_2023-05-26_10h03.53.28.csv	bnzowg	nő	1983	17	4	posttest trial	148	János imád flemezni, ezért sokat flemlik. Mi ritkán...	flemlünk	flemezünk	0	flemlünk	NA	NA	5050	1382234	cselekszenek_2_high_reversed	cselekszenek/cselekednek	5	flemlik / flemezik	-0.5978370007556204	flemlünk	flemezünk	1	ünk	2	49	FALSE	TRUE	low	typical	TRUE	TRUE	NA	NA
hungarian-esp_esp_participant_SESSION_2023-05-26_10h03.53.28.csv	bnzowg	nő	1983	17	4	posttest trial	149	János imád pilégedni, ezért sokat pilégszik. Ők ritkán...	pilégednek	pilégszenek	1	pilégszenek	NA	NA	19723	1402474	cselekszenek_2_high_reversed	cselekszenek/cselekednek	5	pilégszik / pilégedik	0.6418538861723947	pilégszenek	pilégednek	2	nek	2	7	TRUE	FALSE	low	typical	FALSE	TRUE	NA	NA
hungarian-esp_esp_participant_SESSION_2023-05-26_10h03.53.28.csv	bnzowg	nő	1983	17	4	posttest trial	150	János imád drűrözni, ezért sokat drűrzik. Ők ritkán...	drűrzenek	drűröznek	0	drűrzenek	NA	NA	5954	1408946	cselekszenek_2_high_reversed	cselekszenek/cselekednek	5	drűrzik / drűrözik	-0.3483066942682157	drűrzenek	drűröznek	1	nek	2	44	FALSE	TRUE	low	typical	TRUE	TRUE	NA	NA
hungarian-esp_esp_participant_SESSION_2023-05-26_10h03.53.28.csv	bnzowg	nő	1983	17	4	posttest trial	151	János imád posozni, ezért sokat poslik. Ti ritkán...	posoztok	poslotok	1	poslotok	NA	NA	6160	1415617	cselekszenek_2_high_reversed	cselekszenek/cselekednek	5	poslik / posozik	0.7419373447293773	poslotok	posoztok	1	tek	2	5	TRUE	FALSE	low	typical	FALSE	TRUE	NA	NA
hungarian-esp_esp_participant_SESSION_2023-05-26_10h03.53.28.csv	bnzowg	nő	1983	17	4	posttest trial	152	János imád föködni, ezért sokat fökszik. Ők ritkán...	föködnek	fökszenek	0	föködnek	NA	NA	49423	1465554	cselekszenek_2_high_reversed	cselekszenek/cselekednek	5	fökszik / föködik	0.6418538861723947	fökszenek	föködnek	1	nek	2	6	TRUE	FALSE	low	typical	TRUE	FALSE	NA	NA
hungarian-esp_esp_participant_SESSION_2023-05-26_10h03.53.28.csv	bnzowg	nő	1983	17	4	posttest trial	153	János imád mágamozni, ezért sokat mágamlik. Mi ritkán...	mágamlunk	mágamozunk	1	mágamozunk	NA	NA	14782	1480841	cselekszenek_2_high_reversed	cselekszenek/cselekednek	5	mágamlik / mágamozik	0.5877866649021191	mágamlunk	mágamozunk	2	ünk	2	9	TRUE	FALSE	low	typical	FALSE	FALSE	NA	NA
hungarian-esp_esp_participant_SESSION_2023-05-26_10h03.53.28.csv	bnzowg	nő	1983	17	4	posttest trial	154	János imád spibegezni, ezért sokat spibeglik. Mi ritkán...	spibegezünk	spibeglünk	0	spibegezünk	NA	NA	12928	1494273	cselekszenek_2_high_reversed	cselekszenek/cselekednek	5	spibeglik / spibegezik	0.5978370007556204	spibeglünk	spibegezünk	2	ünk	2	8	TRUE	FALSE	low	typical	TRUE	FALSE	NA	NA
hungarian-esp_esp_participant_SESSION_2023-05-26_10h03.53.28.csv	bnzowg	nő	1983	17	4	posttest trial	155	János imád trivakodni, ezért sokat trivakszik. Mi ritkán...	trivakszunk	trivakodunk	1	trivakodunk	NA	NA	6349	1501137	cselekszenek_2_high_reversed	cselekszenek/cselekednek	5	trivakszik / trivakodik	0	trivakszunk	trivakodunk	2	ünk	2	32	FALSE	FALSE	low	typical	FALSE	FALSE	NA	NA
hungarian-esp_esp_participant_SESSION_2023-05-26_10h03.53.28.csv	bnzowg	nő	1983	17	4	posttest trial	156	János imád spiharozni, ezért sokat spiharzik. Ti ritkán...	spiharoztok	spiharzotok	0	spiharoztok	NA	NA	6603	1508249	cselekszenek_2_high_reversed	cselekszenek/cselekednek	5	spiharzik / spiharozik	-0.5978370007556204	spiharzotok	spiharoztok	2	tek	2	50	FALSE	TRUE	low	typical	TRUE	FALSE	NA	NA
hungarian-esp_esp_participant_SESSION_2023-05-26_10h03.53.28.csv	bnzowg	nő	1983	17	4	posttest trial	157	János imád csibagozni, ezért sokat csibagzik. Ti ritkán...	csibagoztok	csibagzotok	0	csibagoztok	NA	NA	10855	1519609	cselekszenek_2_high_reversed	cselekszenek/cselekednek	5	csibagzik / csibagozik	-0.7985076962177716	csibagzotok	csibagoztok	2	tek	2	52	FALSE	TRUE	low	typical	TRUE	FALSE	NA	NA
hungarian-esp_esp_participant_SESSION_2023-05-26_10h03.53.28.csv	bnzowg	nő	1983	17	4	posttest trial	158	János imád dabozni, ezért sokat dabzik. Ti ritkán...	dabzotok	daboztok	1	daboztok	NA	NA	11668	1531785	cselekszenek_2_high_reversed	cselekszenek/cselekednek	5	dabzik / dabozik	-0.1941560144409575	dabzotok	daboztok	1	tek	2	38	FALSE	FALSE	low	typical	FALSE	FALSE	NA	NA
hungarian-esp_esp_participant_SESSION_2023-05-26_10h03.53.28.csv	bnzowg	nő	1983	17	4	posttest trial	159	János imád brözözni, ezért sokat brözlik. Ti ritkán...	brözöztök	brözlötök	0	brözöztök	NA	NA	8051	1540353	cselekszenek_2_high_reversed	cselekszenek/cselekednek	5	brözlik / brözözik	0.06899287148695142	brözlötök	brözöztök	1	tek	2	27	FALSE	FALSE	low	typical	TRUE	FALSE	NA	NA
hungarian-esp_esp_participant_SESSION_2023-05-26_10h03.53.28.csv	bnzowg	nő	1983	17	4	posttest trial	160	János imád spirágozni, ezért sokat spiráglik. Ti ritkán...	spirágoztok	spiráglotok	0	spirágoztok	NA	NA	6916	1547786	cselekszenek_2_high_reversed	cselekszenek/cselekednek	5	spiráglik / spirágozik	-0.2876820724517809	spiráglotok	spirágoztok	2	tek	2	42	FALSE	TRUE	low	typical	TRUE	FALSE	NA	NA
hungarian-esp_esp_participant_SESSION_2023-05-26_10h03.53.28.csv	bnzowg	nő	1983	17	4	posttest trial	161	János imád dirozni, ezért sokat dirlik. Ti ritkán...	dirlotok	diroztok	1	diroztok	NA	NA	10671	1558969	cselekszenek_2_high_reversed	cselekszenek/cselekednek	5	dirlik / dirozik	0	dirlotok	diroztok	1	tek	2	30	FALSE	FALSE	low	typical	FALSE	FALSE	NA	NA
hungarian-esp_esp_participant_SESSION_2023-05-26_10h03.53.28.csv	bnzowg	nő	1983	17	4	posttest trial	162	János imád köszözni, ezért sokat köszlik. Ti ritkán...	köszöztök	köszlötök	0	köszöztök	NA	NA	11438	1570930	cselekszenek_2_high_reversed	cselekszenek/cselekednek	5	köszlik / köszözik	-0.3483066942682157	köszlötök	köszöztök	1	tek	2	45	FALSE	TRUE	low	typical	TRUE	FALSE	NA	NA
hungarian-esp_esp_participant_SESSION_2023-05-26_10h03.53.28.csv	bnzowg	nő	1983	17	4	posttest trial	163	János imád mülőrözni, ezért sokat mülőrzik. Mi ritkán...	mülőrzünk	mülőrözünk	1	mülőrözünk	NA	NA	13695	1585130	cselekszenek_2_high_reversed	cselekszenek/cselekednek	5	mülőrzik / mülőrözik	0.28768207245178085	mülőrzünk	mülőrözünk	2	ünk	2	20	FALSE	FALSE	low	typical	FALSE	FALSE	NA	NA
hungarian-esp_esp_participant_SESSION_2023-05-26_10h03.53.28.csv	bnzowg	nő	1983	17	4	posttest trial	164	János imád gihejezni, ezért sokat gihejlik. Mi ritkán...	gihejlünk	gihejezünk	1	gihejezünk	NA	NA	5177	1590810	cselekszenek_2_high_reversed	cselekszenek/cselekednek	5	gihejlik / gihejezik	0.49247648509779424	gihejlünk	gihejezünk	2	ünk	2	11	TRUE	FALSE	low	typical	FALSE	FALSE	NA	NA
hungarian-esp_esp_participant_SESSION_2023-05-26_10h03.53.28.csv	bnzowg	nő	1983	17	4	posttest trial	165	János imád prögözni, ezért sokat prögzik. Ti ritkán...	prögöztök	prögzötök	1	prögzötök	NA	NA	13905	1605225	cselekszenek_2_high_reversed	cselekszenek/cselekednek	5	prögzik / prögözik	-0.6418538861723948	prögzötök	prögöztök	1	tek	2	51	FALSE	TRUE	low	typical	FALSE	TRUE	NA	NA
hungarian-esp_esp_participant_SESSION_2023-05-26_10h03.53.28.csv	bnzowg	nő	1983	17	4	posttest trial	166	János imád bratározni, ezért sokat bratárzik. Ők ritkán...	bratárzanak	bratároznak	1	bratároznak	NA	NA	10683	1616417	cselekszenek_2_high_reversed	cselekszenek/cselekednek	5	bratárzik / bratározik	-1.2992829841302609	bratárzanak	bratároznak	2	nek	2	54	FALSE	TRUE	low	typical	FALSE	FALSE	NA	NA
hungarian-esp_esp_participant_SESSION_2023-05-26_10h03.53.28.csv	bnzowg	nő	1983	17	4	posttest trial	167	János imád frálapodni, ezért sokat frálapszik. Ti ritkán...	frálapodtok	frálapszotok	0	frálapodtok	NA	NA	10264	1627193	cselekszenek_2_high_reversed	cselekszenek/cselekednek	5	frálapszik / frálapodik	0.4353180712578455	frálapszotok	frálapodtok	2	tek	2	14	TRUE	FALSE	low	typical	TRUE	FALSE	NA	NA
hungarian-esp_esp_participant_SESSION_2023-05-26_10h03.53.28.csv	bnzowg	nő	1983	17	4	posttest trial	168	János imád dárakodni, ezért sokat dárakszik. Mi ritkán...	dárakodunk	dárakszunk	0	dárakodunk	NA	NA	5599	1633298	cselekszenek_2_high_reversed	cselekszenek/cselekednek	5	dárakszik / dárakodik	0.06453852113757116	dárakszunk	dárakodunk	2	ünk	2	29	FALSE	FALSE	low	typical	TRUE	FALSE	NA	NA
hungarian-esp_esp_participant_SESSION_2023-05-26_10h03.53.28.csv	bnzowg	nő	1983	17	4	posttest trial	169	János imád fröjözni, ezért sokat fröjzik. Ti ritkán...	fröjöztök	fröjzötök	0	fröjöztök	NA	NA	14760	1648561	cselekszenek_2_high_reversed	cselekszenek/cselekednek	5	fröjzik / fröjözik	-0.8938178760220964	fröjzötök	fröjöztök	1	tek	2	53	FALSE	TRUE	low	typical	TRUE	FALSE	NA	NA
hungarian-esp_esp_participant_SESSION_2023-05-26_10h03.53.28.csv	bnzowg	nő	1983	17	4	posttest trial	170	János imád csubozni, ezért sokat csubzik. Mi ritkán...	csubzunk	csubozunk	1	csubozunk	NA	NA	20872	1669953	cselekszenek_2_high_reversed	cselekszenek/cselekednek	5	csubzik / csubozik	0.7419373447293773	csubzunk	csubozunk	1	ünk	2	4	TRUE	FALSE	low	typical	FALSE	FALSE	NA	NA
hungarian-esp_esp_participant_SESSION_2023-05-26_10h03.53.28.csv	bnzowg	nő	1983	17	4	posttest trial	171	János imád püzözni, ezért sokat püzlik. Ti ritkán...	püzlötök	püzöztök	0	püzlötök	NA	NA	46542	1717017	cselekszenek_2_high_reversed	cselekszenek/cselekednek	5	püzlik / püzözik	-0.06899287148695143	püzlötök	püzöztök	1	tek	2	36	FALSE	FALSE	low	typical	TRUE	TRUE	NA	NA
hungarian-esp_esp_participant_SESSION_2023-05-26_10h03.53.28.csv	bnzowg	nő	1983	17	4	posttest trial	172	János imád gyihegezni, ezért sokat gyihegzik. Ti ritkán...	gyihegzetek	gyihegeztek	1	gyihegeztek	NA	NA	84131	1801657	cselekszenek_2_high_reversed	cselekszenek/cselekednek	5	gyihegzik / gyihegezik	-0.325422400434628	gyihegzetek	gyihegeztek	2	tek	2	43	FALSE	TRUE	low	typical	FALSE	FALSE	NA	NA
hungarian-esp_esp_participant_SESSION_2023-05-26_10h03.53.28.csv	bnzowg	nő	1983	17	4	posttest trial	173	János imád drilarozni, ezért sokat drilarzik. Mi ritkán...	drilarozunk	drilarzunk	1	drilarzunk	NA	NA	22132	1824305	cselekszenek_2_high_reversed	cselekszenek/cselekednek	5	drilarzik / drilarozik	-0.4353180712578455	drilarzunk	drilarozunk	2	ünk	2	46	FALSE	TRUE	low	typical	FALSE	TRUE	NA	NA
hungarian-esp_esp_participant_SESSION_2023-05-26_10h08.47.136.csv	AC3QCP	NŐ	1984	12	3	esp trial	11	János imád spuborozni, ezért sokat spuborzik. Ők ritkán...	spuborzanak	spuboroznak	1	spuboroznak	spuboroznak	TRUE	9945	251392	cselekszenek_1_low_typical	cselekszenek/cselekednek	4	spuborzik / spuborozik	-0.4353180712578455	spuborzanak	spuboroznak	2	nek	1	47	FALSE	TRUE	low	typical	FALSE	FALSE	FALSE	TRUE
hungarian-esp_esp_participant_SESSION_2023-05-26_10h08.47.136.csv	AC3QCP	NŐ	1984	12	3	esp trial	13	János imád trálakozni, ezért sokat trálaklik. Ők ritkán...	trálaklanak	trálakoznak	0	trálaklanak	trálakoznak	FALSE	18793	274221	cselekszenek_1_low_typical	cselekszenek/cselekednek	4	trálaklik / trálakozik	0	trálaklanak	trálakoznak	2	nek	1	32	FALSE	FALSE	low	typical	TRUE	TRUE	FALSE	FALSE
hungarian-esp_esp_participant_SESSION_2023-05-26_10h08.47.136.csv	AC3QCP	NŐ	1984	12	3	esp trial	15	János imád prugorozni, ezért sokat prugorzik. Ti ritkán...	prugoroztok	prugorzotok	0	prugoroztok	prugoroztok	TRUE	8050	286310	cselekszenek_1_low_typical	cselekszenek/cselekednek	4	prugorzik / prugorozik	-0.7985076962177716	prugorzotok	prugoroztok	2	tek	1	53	FALSE	TRUE	low	typical	TRUE	FALSE	FALSE	TRUE
hungarian-esp_esp_participant_SESSION_2023-05-26_10h08.47.136.csv	AC3QCP	NŐ	1984	12	3	esp trial	17	János imád brürözni, ezért sokat brürzik. Ők ritkán...	brüröznek	brürzenek	0	brüröznek	brüröznek	TRUE	11091	301422	cselekszenek_1_low_typical	cselekszenek/cselekednek	4	brürzik / brürözik	-0.1431008436406733	brürzenek	brüröznek	1	nek	1	37	FALSE	FALSE	low	typical	TRUE	FALSE	FALSE	TRUE
hungarian-esp_esp_participant_SESSION_2023-05-26_10h08.47.136.csv	AC3QCP	NŐ	1984	12	3	esp trial	19	János imád nyülöközni, ezért sokat nyülöklik. Ők ritkán...	nyülököznek	nyülöklenek	0	nyülököznek	nyülököznek	TRUE	11586	317049	cselekszenek_1_low_typical	cselekszenek/cselekednek	4	nyülöklik / nyülöközik	0.3483066942682158	nyülöklenek	nyülököznek	2	nek	1	17	FALSE	FALSE	low	typical	TRUE	FALSE	FALSE	TRUE
hungarian-esp_esp_participant_SESSION_2023-05-26_10h08.47.136.csv	AC3QCP	NŐ	1984	12	3	esp trial	21	János imád flátozni, ezért sokat flátlik. Ti ritkán...	flátlotok	flátoztok	1	flátoztok	flátoztok	TRUE	7320	328427	cselekszenek_1_low_typical	cselekszenek/cselekednek	4	flátlik / flátozik	-0.2876820724517809	flátlotok	flátoztok	1	tek	1	41	FALSE	TRUE	low	typical	FALSE	FALSE	FALSE	TRUE
hungarian-esp_esp_participant_SESSION_2023-05-26_10h08.47.136.csv	AC3QCP	NŐ	1984	12	3	esp trial	23	János imád flerékedni, ezért sokat flerékszik. Mi ritkán...	flerékszünk	flerékedünk	1	flerékedünk	flerékedünk	TRUE	7337	339810	cselekszenek_1_low_typical	cselekszenek/cselekednek	4	flerékszik / flerékedik	0.32542240043462795	flerékszünk	flerékedünk	2	ünk	1	18	FALSE	FALSE	low	typical	FALSE	FALSE	FALSE	TRUE
hungarian-esp_esp_participant_SESSION_2023-05-26_10h08.47.136.csv	AC3QCP	NŐ	1984	12	3	esp trial	25	János imád plibozni, ezért sokat plibzik. Ti ritkán...	plibzotok	pliboztok	1	pliboztok	pliboztok	TRUE	13245	357086	cselekszenek_1_low_typical	cselekszenek/cselekednek	4	plibzik / plibozik	-0.49247648509779407	plibzotok	pliboztok	1	tek	1	49	FALSE	TRUE	low	typical	FALSE	FALSE	FALSE	TRUE
hungarian-esp_esp_participant_SESSION_2023-05-26_10h08.47.136.csv	AC3QCP	NŐ	1984	12	3	esp trial	27	János imád bügözni, ezért sokat bügzik. Ők ritkán...	bügöznek	bügzenek	0	bügöznek	bügzenek	FALSE	3567	365338	cselekszenek_1_low_typical	cselekszenek/cselekednek	4	bügzik / bügözik	0.6418538861723947	bügzenek	bügöznek	1	nek	1	6	TRUE	FALSE	low	typical	TRUE	FALSE	TRUE	TRUE
hungarian-esp_esp_participant_SESSION_2023-05-26_10h08.47.136.csv	AC3QCP	NŐ	1984	12	3	esp trial	29	János imád klégezni, ezért sokat kléglik. Mi ritkán...	kléglünk	klégezünk	1	klégezünk	kléglünk	FALSE	6362	375729	cselekszenek_1_low_typical	cselekszenek/cselekednek	4	kléglik / klégezik	0.4353180712578455	kléglünk	klégezünk	1	ünk	1	15	TRUE	FALSE	low	typical	FALSE	FALSE	TRUE	TRUE
hungarian-esp_esp_participant_SESSION_2023-05-26_10h08.47.136.csv	AC3QCP	NŐ	1984	12	3	esp trial	31	János imád játozni, ezért sokat játlik. Mi ritkán...	játlunk	játozunk	0	játlunk	játlunk	TRUE	6314	386082	cselekszenek_1_low_typical	cselekszenek/cselekednek	4	játlik / játozik	0.5978370007556204	játlunk	játozunk	1	ünk	1	8	TRUE	FALSE	low	typical	TRUE	TRUE	TRUE	FALSE
hungarian-esp_esp_participant_SESSION_2023-05-26_10h08.47.136.csv	AC3QCP	NŐ	1984	12	3	esp trial	33	János imád bötőrözni, ezért sokat bötőrzik. Mi ritkán...	bötőrzünk	bötőrözünk	1	bötőrözünk	bötőrözünk	TRUE	6081	396205	cselekszenek_1_low_typical	cselekszenek/cselekednek	4	bötőrzik / bötőrözik	0.3483066942682158	bötőrzünk	bötőrözünk	2	ünk	1	16	FALSE	FALSE	low	typical	FALSE	FALSE	FALSE	TRUE
hungarian-esp_esp_participant_SESSION_2023-05-26_10h08.47.136.csv	AC3QCP	NŐ	1984	12	3	esp trial	35	János imád dibágozni, ezért sokat dibáglik. Ti ritkán...	dibágoztok	dibáglotok	1	dibáglotok	dibágoztok	FALSE	15738	415980	cselekszenek_1_low_typical	cselekszenek/cselekednek	4	dibáglik / dibágozik	0.1941560144409574	dibáglotok	dibágoztok	2	tek	1	23	FALSE	FALSE	low	typical	FALSE	TRUE	FALSE	FALSE
hungarian-esp_esp_participant_SESSION_2023-05-26_10h08.47.136.csv	AC3QCP	NŐ	1984	12	3	esp trial	37	János imád hiragozni, ezért sokat hiragzik. Ők ritkán...	hiragzanak	hiragoznak	1	hiragoznak	hiragoznak	TRUE	4775	424800	cselekszenek_1_low_typical	cselekszenek/cselekednek	4	hiragzik / hiragozik	0.20763936477824457	hiragzanak	hiragoznak	2	nek	1	22	FALSE	FALSE	low	typical	FALSE	FALSE	FALSE	TRUE
hungarian-esp_esp_participant_SESSION_2023-05-26_10h08.47.136.csv	AC3QCP	NŐ	1984	12	3	esp trial	39	János imád klűmözni, ezért sokat klűmlik. Ti ritkán...	klűmlötök	klűmöztök	1	klűmöztök	klűmöztök	TRUE	7144	435987	cselekszenek_1_low_typical	cselekszenek/cselekednek	4	klűmlik / klűmözik	-0.4595323293784402	klűmlötök	klűmöztök	1	tek	1	48	FALSE	TRUE	low	typical	FALSE	FALSE	FALSE	TRUE
hungarian-esp_esp_participant_SESSION_2023-05-26_10h08.47.136.csv	AC3QCP	NŐ	1984	12	3	esp trial	41	János imád klihasozni, ezért sokat klihaslik. Ti ritkán...	klihaslotok	klihasoztok	1	klihasoztok	klihasoztok	TRUE	6878	446905	cselekszenek_1_low_typical	cselekszenek/cselekednek	4	klihaslik / klihasozik	-0.2076393647782445	klihaslotok	klihasoztok	2	tek	1	40	FALSE	TRUE	low	typical	FALSE	FALSE	FALSE	TRUE
hungarian-esp_esp_participant_SESSION_2023-05-26_10h08.47.136.csv	AC3QCP	NŐ	1984	12	3	esp trial	43	János imád ribegedni, ezért sokat ribegszik. Ti ritkán...	ribegszetek	ribegedtek	1	ribegedtek	ribegedtek	TRUE	9509	460452	cselekszenek_1_low_typical	cselekszenek/cselekednek	4	ribegszik / ribegedik	-0.2876820724517809	ribegszetek	ribegedtek	2	tek	1	42	FALSE	TRUE	low	typical	FALSE	FALSE	FALSE	TRUE
hungarian-esp_esp_participant_SESSION_2023-05-26_10h08.47.136.csv	AC3QCP	NŐ	1984	12	3	esp trial	45	János imád frélegezni, ezért sokat frélegzik. Mi ritkán...	frélegezünk	frélegzünk	1	frélegzünk	frélegzünk	TRUE	11359	475854	cselekszenek_1_low_typical	cselekszenek/cselekednek	4	frélegzik / frélegezik	0.7985076962177716	frélegzünk	frélegezünk	2	ünk	1	3	TRUE	FALSE	low	typical	FALSE	TRUE	TRUE	FALSE
hungarian-esp_esp_participant_SESSION_2023-05-26_10h08.47.136.csv	AC3QCP	NŐ	1984	12	3	esp trial	47	János imád frorozni, ezért sokat frorlik. Ők ritkán...	frorlanak	froroznak	1	froroznak	frorlanak	FALSE	3982	484099	cselekszenek_1_low_typical	cselekszenek/cselekednek	4	frorlik / frorozik	0.49247648509779424	frorlanak	froroznak	1	nek	1	11	TRUE	FALSE	low	typical	FALSE	FALSE	TRUE	TRUE
hungarian-esp_esp_participant_SESSION_2023-05-26_10h08.47.136.csv	AC3QCP	NŐ	1984	12	3	esp trial	49	János imád trilekedni, ezért sokat trilekszik. Ti ritkán...	trilekszetek	trilekedtek	1	trilekedtek	trilekedtek	TRUE	7864	495995	cselekszenek_1_low_typical	cselekszenek/cselekednek	4	trilekszik / trilekedik	0.14310084364067324	trilekszetek	trilekedtek	2	tek	1	26	FALSE	FALSE	low	typical	FALSE	FALSE	FALSE	TRUE
hungarian-esp_esp_participant_SESSION_2023-05-26_10h08.47.136.csv	AC3QCP	NŐ	1984	12	3	esp trial	51	János imád trukodni, ezért sokat trukszik. Ti ritkán...	trukszotok	trukodtok	1	trukodtok	trukodtok	TRUE	4950	504979	cselekszenek_1_low_typical	cselekszenek/cselekednek	4	trukszik / trukodik	0.06899287148695142	trukszotok	trukodtok	1	tek	1	29	FALSE	FALSE	low	typical	FALSE	FALSE	FALSE	TRUE
hungarian-esp_esp_participant_SESSION_2023-05-26_10h08.47.136.csv	AC3QCP	NŐ	1984	12	3	esp trial	53	János imád flugonyozni, ezért sokat flugonylik. Ők ritkán...	flugonylanak	flugonyoznak	1	flugonyoznak	flugonyoznak	TRUE	5889	514902	cselekszenek_1_low_typical	cselekszenek/cselekednek	4	flugonylik / flugonyozik	0	flugonylanak	flugonyoznak	2	nek	1	31	FALSE	FALSE	low	typical	FALSE	FALSE	FALSE	TRUE
hungarian-esp_esp_participant_SESSION_2023-05-26_10h08.47.136.csv	AC3QCP	NŐ	1984	12	3	esp trial	55	János imád pibegezni, ezért sokat pibegzik. Ők ritkán...	pibegeznek	pibegzenek	0	pibegeznek	pibegeznek	TRUE	4367	523312	cselekszenek_1_low_typical	cselekszenek/cselekednek	4	pibegzik / pibegezik	-0.7472144018302211	pibegzenek	pibegeznek	2	nek	1	52	FALSE	TRUE	low	typical	TRUE	FALSE	FALSE	TRUE
hungarian-esp_esp_participant_SESSION_2023-05-26_10h08.47.136.csv	AC3QCP	NŐ	1984	12	3	esp trial	57	János imád brűközni, ezért sokat brűklik. Ti ritkán...	brűköztök	brűklötök	0	brűköztök	brűköztök	TRUE	5052	532414	cselekszenek_1_low_typical	cselekszenek/cselekednek	4	brűklik / brűközik	0.14310084364067324	brűklötök	brűköztök	1	tek	1	25	FALSE	FALSE	low	typical	TRUE	FALSE	FALSE	TRUE
hungarian-esp_esp_participant_SESSION_2023-05-26_10h08.47.136.csv	AC3QCP	NŐ	1984	12	3	esp trial	59	János imád flodozni, ezért sokat flodlik. Ti ritkán...	flodlotok	flodoztok	1	flodoztok	flodoztok	TRUE	4843	541289	cselekszenek_1_low_typical	cselekszenek/cselekednek	4	flodlik / flodozik	-0.325422400434628	flodlotok	flodoztok	1	tek	1	43	FALSE	TRUE	low	typical	FALSE	FALSE	FALSE	TRUE
hungarian-esp_esp_participant_SESSION_2023-05-26_10h08.47.136.csv	AC3QCP	NŐ	1984	12	3	esp trial	61	János imád nyizozni, ezért sokat nyizlik. Mi ritkán...	nyizlunk	nyizozunk	1	nyizozunk	nyizlunk	FALSE	4789	550110	cselekszenek_1_low_typical	cselekszenek/cselekednek	4	nyizlik / nyizozik	0.6418538861723947	nyizlunk	nyizozunk	1	ünk	1	7	TRUE	FALSE	low	typical	FALSE	FALSE	TRUE	TRUE
hungarian-esp_esp_participant_SESSION_2023-05-26_10h08.47.136.csv	AC3QCP	NŐ	1984	12	3	esp trial	63	János imád vilesezni, ezért sokat vileslik. Mi ritkán...	vilesezünk	vileslünk	0	vilesezünk	vilesezünk	TRUE	7662	561808	cselekszenek_1_low_typical	cselekszenek/cselekednek	4	vileslik / vilesezik	0	vileslünk	vilesezünk	2	ünk	1	33	FALSE	FALSE	low	typical	TRUE	FALSE	FALSE	TRUE
hungarian-esp_esp_participant_SESSION_2023-05-26_10h08.47.136.csv	AC3QCP	NŐ	1984	12	3	esp trial	65	János imád vehékedni, ezért sokat vehékszik. Mi ritkán...	vehékedünk	vehékszünk	0	vehékedünk	vehékszünk	FALSE	5276	571108	cselekszenek_1_low_typical	cselekszenek/cselekednek	4	vehékszik / vehékedik	0.7472144018302211	vehékszünk	vehékedünk	2	ünk	1	4	TRUE	FALSE	low	typical	TRUE	FALSE	TRUE	TRUE
hungarian-esp_esp_participant_SESSION_2023-05-26_10h08.47.136.csv	AC3QCP	NŐ	1984	12	3	esp trial	67	János imád dralágozni, ezért sokat dralágzik. Mi ritkán...	dralágzunk	dralágozunk	1	dralágozunk	dralágzunk	FALSE	9348	584506	cselekszenek_1_low_typical	cselekszenek/cselekednek	4	dralágzik / dralágozik	0.4353180712578455	dralágzunk	dralágozunk	2	ünk	1	14	TRUE	FALSE	low	typical	FALSE	FALSE	TRUE	TRUE
hungarian-esp_esp_participant_SESSION_2023-05-26_10h08.47.136.csv	AC3QCP	NŐ	1984	12	3	esp trial	69	János imád bribasozni, ezért sokat bribaslik. Ők ritkán...	bribasoznak	bribaslanak	0	bribasoznak	bribasoznak	TRUE	8807	597349	cselekszenek_1_low_typical	cselekszenek/cselekednek	4	bribaslik / bribasozik	-0.3483066942682157	bribaslanak	bribasoznak	2	nek	1	44	FALSE	TRUE	low	typical	TRUE	FALSE	FALSE	TRUE
hungarian-esp_esp_participant_SESSION_2023-05-26_10h08.47.136.csv	AC3QCP	NŐ	1984	12	3	esp trial	71	János imád nurokozni, ezért sokat nuroklik. Mi ritkán...	nuroklunk	nurokozunk	1	nurokozunk	nuroklunk	FALSE	12608	614001	cselekszenek_1_low_typical	cselekszenek/cselekednek	4	nuroklik / nurokozik	0.7419373447293773	nuroklunk	nurokozunk	2	ünk	1	5	TRUE	FALSE	low	typical	FALSE	FALSE	TRUE	TRUE
hungarian-esp_esp_participant_SESSION_2023-05-26_10h08.47.136.csv	AC3QCP	NŐ	1984	12	3	esp trial	73	János imád géregezni, ezért sokat géreglik. Ti ritkán...	géregeztek	géregletek	0	géregeztek	géregeztek	TRUE	5422	623456	cselekszenek_1_low_typical	cselekszenek/cselekednek	4	géreglik / géregezik	-0.6418538861723948	géregletek	géregeztek	2	tek	1	51	FALSE	TRUE	low	typical	TRUE	FALSE	FALSE	TRUE
hungarian-esp_esp_participant_SESSION_2023-05-26_10h08.47.136.csv	AC3QCP	NŐ	1984	12	3	esp trial	75	János imád spivejezni, ezért sokat spivejlik. Ők ritkán...	spivejlenek	spivejeznek	0	spivejlenek	spivejeznek	FALSE	6383	633871	cselekszenek_1_low_typical	cselekszenek/cselekednek	4	spivejlik / spivejezik	-0.3483066942682157	spivejlenek	spivejeznek	2	nek	1	46	FALSE	TRUE	low	typical	TRUE	TRUE	FALSE	FALSE
hungarian-esp_esp_participant_SESSION_2023-05-26_10h08.47.136.csv	AC3QCP	NŐ	1984	12	3	esp trial	77	János imád kláragodni, ezért sokat kláragszik. Ti ritkán...	kláragodtok	kláragszotok	0	kláragodtok	kláragodtok	TRUE	8039	645954	cselekszenek_1_low_typical	cselekszenek/cselekednek	4	kláragszik / kláragodik	0.28768207245178085	kláragszotok	kláragodtok	2	tek	1	20	FALSE	FALSE	low	typical	TRUE	FALSE	FALSE	TRUE
hungarian-esp_esp_participant_SESSION_2023-05-26_10h08.47.136.csv	AC3QCP	NŐ	1984	12	3	esp trial	79	János imád hubonyozni, ezért sokat hubonylik. Ti ritkán...	hubonylotok	hubonyoztok	1	hubonyoztok	hubonyoztok	TRUE	4849	654847	cselekszenek_1_low_typical	cselekszenek/cselekednek	4	hubonylik / hubonyozik	-0.5978370007556204	hubonylotok	hubonyoztok	2	tek	1	50	FALSE	TRUE	low	typical	FALSE	FALSE	FALSE	TRUE
hungarian-esp_esp_participant_SESSION_2023-05-26_10h08.47.136.csv	AC3QCP	NŐ	1984	12	3	esp trial	81	János imád nivározni, ezért sokat nivárzik. Ti ritkán...	nivárzotok	nivároztok	1	nivároztok	nivároztok	TRUE	4735	663618	cselekszenek_1_low_typical	cselekszenek/cselekednek	4	nivárzik / nivározik	-0.916290731874155	nivárzotok	nivároztok	2	tek	1	54	FALSE	TRUE	low	typical	FALSE	FALSE	FALSE	TRUE
hungarian-esp_esp_participant_SESSION_2023-05-26_10h08.47.136.csv	AC3QCP	NŐ	1984	12	3	esp trial	83	János imád döjözni, ezért sokat döjlik. Ők ritkán...	döjöznek	döjlenek	0	döjöznek	döjlenek	FALSE	6873	674523	cselekszenek_1_low_typical	cselekszenek/cselekednek	4	döjlik / döjözik	0.5877866649021191	döjlenek	döjöznek	1	nek	1	9	TRUE	FALSE	low	typical	TRUE	FALSE	TRUE	TRUE
hungarian-esp_esp_participant_SESSION_2023-05-26_10h08.47.136.csv	AC3QCP	NŐ	1984	12	3	esp trial	85	János imád sprebezni, ezért sokat sprebzik. Ők ritkán...	sprebeznek	sprebzenek	0	sprebeznek	sprebeznek	TRUE	6744	685309	cselekszenek_1_low_typical	cselekszenek/cselekednek	4	sprebzik / sprebezik	0.1941560144409574	sprebzenek	sprebeznek	1	nek	1	24	FALSE	FALSE	low	typical	TRUE	FALSE	FALSE	TRUE
hungarian-esp_esp_participant_SESSION_2023-05-26_10h08.47.136.csv	AC3QCP	NŐ	1984	12	3	esp trial	87	János imád trálodni, ezért sokat trálszik. Mi ritkán...	trálszunk	trálodunk	1	trálodunk	trálszunk	FALSE	9323	698671	cselekszenek_1_low_typical	cselekszenek/cselekednek	4	trálszik / trálodik	0.9162907318741552	trálszunk	trálodunk	1	ünk	1	2	TRUE	FALSE	low	typical	FALSE	FALSE	TRUE	TRUE
hungarian-esp_esp_participant_SESSION_2023-05-26_10h08.47.136.csv	AC3QCP	NŐ	1984	12	3	esp trial	89	János imád nyádozni, ezért sokat nyádlik. Ők ritkán...	nyádoznak	nyádlanak	0	nyádoznak	nyádlanak	FALSE	6080	708795	cselekszenek_1_low_typical	cselekszenek/cselekednek	4	nyádlik / nyádozik	0.4595323293784402	nyádlanak	nyádoznak	1	nek	1	13	TRUE	FALSE	low	typical	TRUE	FALSE	TRUE	TRUE
hungarian-esp_esp_participant_SESSION_2023-05-26_10h08.47.136.csv	AC3QCP	NŐ	1984	12	3	esp trial	91	János imád vihapodni, ezért sokat vihapszik. Mi ritkán...	vihapodunk	vihapszunk	0	vihapodunk	vihapszunk	FALSE	5154	717987	cselekszenek_1_low_typical	cselekszenek/cselekednek	4	vihapszik / vihapodik	0.49247648509779424	vihapszunk	vihapodunk	2	ünk	1	12	TRUE	FALSE	low	typical	TRUE	FALSE	TRUE	TRUE
hungarian-esp_esp_participant_SESSION_2023-05-26_10h08.47.136.csv	AC3QCP	NŐ	1984	12	3	esp trial	93	János imád bresezni, ezért sokat breslik. Ők ritkán...	breseznek	breslenek	1	breslenek	breseznek	FALSE	7497	729529	cselekszenek_1_low_typical	cselekszenek/cselekednek	4	breslik / bresezik	0.06899287148695142	breslenek	breseznek	1	nek	1	27	FALSE	FALSE	low	typical	FALSE	TRUE	FALSE	FALSE
