dat_id	record_date	part_id	part_gender	part_yob	part_edu	list_number	trial_kind	trial_index	stimulus	choice1	choice2	response	response_string	esp_response	esp_match	rt	time_elapsed	file_name	variation	column	base	log_odds	variant1	variant2	nsyl	suffix	sample_number	word_rank	top_20	bottom_20	reg_rate	reg_dist	picked_left	picked_v1	esp_v1	picked_majority
hungarian-esp_esp_participant_SESSION_2022-11-19_09h47.48.87.csv	2022-11-19T09:47:00Z	JT0KQV	Nő	2000	15	1	esp trial	11	Te bizony sokat ribegzel. Én is sokat...	ribegzek	ribegzem	0	ribegzek	ribegzek	TRUE	10485	360427	lakok_1_high_typical	lakok/lakom	26	ribegzik	-0.1941560144409575	ribegzek	ribegzem	2	NA	1	38	FALSE	FALSE	high	typical	TRUE	TRUE	TRUE	TRUE
hungarian-esp_esp_participant_SESSION_2022-11-19_09h47.48.87.csv	2022-11-19T09:47:00Z	JT0KQV	Nő	2000	15	1	esp trial	53	Te bizony sokat sojzol. Én is sokat...	sojzom	sojzok	1	sojzok	sojzom	FALSE	10550	581314	lakok_1_high_typical	lakok/lakom	26	sojzik	-0.4595323293784402	sojzok	sojzom	1	NA	1	46	FALSE	TRUE	high	typical	FALSE	TRUE	FALSE	TRUE
hungarian-esp_esp_participant_SESSION_2022-11-19_09h47.48.87.csv	2022-11-19T09:47:00Z	JT0KQV	Nő	2000	15	1	esp trial	109	Te bizony sokat málapszol. Én is sokat...	málapszok	málapszom	0	málapszok	málapszok	TRUE	11915	869223	lakok_1_high_typical	lakok/lakom	26	málapszik	-0.06899287148695143	málapszok	málapszom	2	NA	1	36	FALSE	FALSE	high	typical	TRUE	TRUE	TRUE	TRUE
hungarian-esp_esp_participant_SESSION_2022-11-19_09h47.48.87.csv	2022-11-19T09:47:00Z	JT0KQV	Nő	2000	15	4	posttest trial	152	Te bizony sokat sztrűkszöl. Én is sokat...	sztrűkszök	sztrűkszöm	0	sztrűkszök	NA	NA	8835	1080376	lakok_2_high_reversed	lakok/lakom	29	sztrűkszik	-0.2876820724517809	sztrűkszök	sztrűkszöm	1	NA	2	41	FALSE	TRUE	high	typical	TRUE	TRUE	NA	NA
hungarian-esp_esp_participant_SESSION_2022-11-19_09h56.28.75.csv	2022-11-19T09:56:00Z	EIDWFP	nő	2002	14	5	esp trial	13	Te bizony sokat bihánylasz. Én is sokat...	bihánylok	bihánylom	0	bihánylok	bihánylok	TRUE	10774	255633	lakok_2_high_typical	lakok/lakom	30	bihánylik	1.2992829841302609	bihánylok	bihánylom	2	NA	2	6	TRUE	FALSE	high	typical	TRUE	TRUE	TRUE	TRUE
hungarian-esp_esp_participant_SESSION_2022-11-19_09h56.28.75.csv	2022-11-19T09:56:00Z	EIDWFP	nő	2002	14	5	esp trial	69	Te bizony sokat flehékszel. Én is sokat...	flehékszek	flehékszem	1	flehékszem	flehékszem	TRUE	10563	504243	lakok_2_high_typical	lakok/lakom	30	flehékszik	-0.5978370007556204	flehékszek	flehékszem	2	NA	2	48	FALSE	TRUE	high	typical	FALSE	FALSE	FALSE	FALSE
hungarian-esp_esp_participant_SESSION_2022-11-19_09h56.28.75.csv	2022-11-19T09:56:00Z	EIDWFP	nő	2002	14	8	posttest trial	131	Te bizony sokat szűslesz. Én is sokat...	szűslöm	szűslök	1	szűslök	NA	NA	8955	807906	lakok_3_high_reversed	lakok/lakom	33	szűslik	0.8938178760220965	szűslök	szűslöm	1	NA	3	13	TRUE	FALSE	high	typical	FALSE	TRUE	NA	NA
hungarian-esp_esp_participant_SESSION_2022-11-19_17h13.08.174.csv	2022-11-19T17:13:00Z	DR1GOX	nő	2001	15	4	posttest trial	130	Te bizony sokat pribemlesz. Én is sokat...	pribemlek	pribemlem	0	pribemlek	NA	NA	11048	792303	lakok_2_high_reversed	lakok/lakom	29	pribemlik	1.9095425048844383	pribemlek	pribemlem	2	NA	2	2	TRUE	FALSE	low	typical	TRUE	TRUE	NA	NA
hungarian-esp_esp_participant_SESSION_2022-11-19_17h13.08.174.csv	2022-11-19T17:13:00Z	DR1GOX	nő	2001	15	4	posttest trial	131	Te bizony sokat vanylasz. Én is sokat...	vanylom	vanylok	1	vanylok	NA	NA	24916	817722	lakok_2_high_reversed	lakok/lakom	29	vanylik	1.1451323043030026	vanylok	vanylom	1	NA	2	8	TRUE	FALSE	low	typical	FALSE	TRUE	NA	NA
hungarian-esp_esp_participant_SESSION_2022-11-19_17h13.08.174.csv	2022-11-19T17:13:00Z	DR1GOX	nő	2001	15	4	posttest trial	132	Te bizony sokat spihemlesz. Én is sokat...	spihemlek	spihemlem	1	spihemlem	NA	NA	11993	830226	lakok_2_high_reversed	lakok/lakom	29	spihemlik	2.159484249353372	spihemlek	spihemlem	2	NA	2	1	TRUE	FALSE	low	typical	FALSE	FALSE	NA	NA
hungarian-esp_esp_participant_SESSION_2022-11-19_17h13.08.174.csv	2022-11-19T17:13:00Z	DR1GOX	nő	2001	15	4	posttest trial	134	Te bizony sokat trádlasz. Én is sokat...	trádlom	trádlok	1	trádlok	NA	NA	18251	855578	lakok_2_high_reversed	lakok/lakom	29	trádlik	0.4353180712578455	trádlok	trádlom	1	NA	2	24	FALSE	FALSE	low	typical	FALSE	TRUE	NA	NA
hungarian-esp_esp_participant_SESSION_2022-11-19_17h13.08.174.csv	2022-11-19T17:13:00Z	DR1GOX	nő	2001	15	4	posttest trial	135	Te bizony sokat tragzol. Én is sokat...	tragzom	tragzok	0	tragzom	NA	NA	9941	866030	lakok_2_high_reversed	lakok/lakom	29	tragzik	-0.06899287148695143	tragzok	tragzom	1	NA	2	36	FALSE	FALSE	low	typical	TRUE	FALSE	NA	NA
hungarian-esp_esp_participant_SESSION_2022-11-19_17h13.08.174.csv	2022-11-19T17:13:00Z	DR1GOX	nő	2001	15	4	posttest trial	136	Te bizony sokat flehénylesz. Én is sokat...	flehénylek	flehénylem	1	flehénylem	NA	NA	21677	888225	lakok_2_high_reversed	lakok/lakom	29	flehénylik	1.5686159179138452	flehénylek	flehénylem	2	NA	2	4	TRUE	FALSE	low	typical	FALSE	FALSE	NA	NA
hungarian-esp_esp_participant_SESSION_2022-11-19_17h13.08.174.csv	2022-11-19T17:13:00Z	DR1GOX	nő	2001	15	4	posttest trial	138	Te bizony sokat trehégszel. Én is sokat...	trehégszek	trehégszem	1	trehégszem	NA	NA	18059	912745	lakok_2_high_reversed	lakok/lakom	29	trehégszik	-0.7472144018302211	trehégszek	trehégszem	2	NA	2	51	FALSE	TRUE	low	typical	FALSE	FALSE	NA	NA
hungarian-esp_esp_participant_SESSION_2022-11-19_17h13.08.174.csv	2022-11-19T17:13:00Z	DR1GOX	nő	2001	15	4	posttest trial	141	Te bizony sokat narádzol. Én is sokat...	narádzom	narádzok	1	narádzok	NA	NA	31102	951467	lakok_2_high_reversed	lakok/lakom	29	narádzik	-0.6418538861723948	narádzok	narádzom	2	NA	2	50	FALSE	TRUE	low	typical	FALSE	TRUE	NA	NA
hungarian-esp_esp_participant_SESSION_2022-11-19_17h13.08.174.csv	2022-11-19T17:13:00Z	DR1GOX	nő	2001	15	4	posttest trial	143	Te bizony sokat frodlasz. Én is sokat...	frodlok	frodlom	0	frodlok	NA	NA	51170	1007473	lakok_2_high_reversed	lakok/lakom	29	frodlik	0.7419373447293773	frodlok	frodlom	1	NA	2	17	FALSE	FALSE	low	typical	TRUE	TRUE	NA	NA
hungarian-esp_esp_participant_SESSION_2022-11-19_17h13.08.174.csv	2022-11-19T17:13:00Z	DR1GOX	nő	2001	15	4	posttest trial	144	Te bizony sokat spüjzöl. Én is sokat...	spüjzöm	spüjzök	1	spüjzök	NA	NA	13273	1021261	lakok_2_high_reversed	lakok/lakom	29	spüjzik	0.8938178760220965	spüjzök	spüjzöm	1	NA	2	13	TRUE	FALSE	low	typical	FALSE	TRUE	NA	NA
hungarian-esp_esp_participant_SESSION_2022-11-19_17h13.08.174.csv	2022-11-19T17:13:00Z	DR1GOX	nő	2001	15	4	posttest trial	157	Te bizony sokat brobódzol. Én is sokat...	brobódzok	brobódzom	1	brobódzom	NA	NA	12947	1081625	lakok_2_high_reversed	lakok/lakom	29	brobódzik	-0.6418538861723948	brobódzok	brobódzom	2	NA	2	49	FALSE	TRUE	low	typical	FALSE	FALSE	NA	NA
hungarian-esp_esp_participant_SESSION_2022-11-19_19h29.23.567.csv	2022-11-19T19:29:00Z	NIASI9	férfi	2000	15	9	esp trial	17	Te bizony sokat spatszol. Én is sokat...	spatszok	spatszom	1	spatszom	spatszom	TRUE	11513	201213	lakok_3_high_typical	lakok/lakom	34	spatszik	-0.3483066942682157	spatszok	spatszom	1	NA	3	43	FALSE	TRUE	high	typical	FALSE	FALSE	FALSE	FALSE
hungarian-esp_esp_participant_SESSION_2022-11-19_19h29.23.567.csv	2022-11-19T19:29:00Z	NIASI9	férfi	2000	15	1	posttest trial	153	Te bizony sokat fretszel. Én is sokat...	fretszem	fretszek	1	fretszek	NA	NA	8451	803051	lakok_1_high_typical	lakok/lakom	26	fretszik	0	fretszek	fretszem	1	NA	1	33	FALSE	FALSE	high	typical	FALSE	TRUE	NA	NA
hungarian-esp_esp_participant_SESSION_2022-11-19_20h20.07.908.csv	2022-11-19T20:20:00Z	fmgttz	nő	1998	16	8	esp trial	11	Te bizony sokat spatszol. Én is sokat...	spatszok	spatszom	1	spatszom	spatszok	FALSE	9215	324016	lakok_3_high_reversed	lakok/lakom	33	spatszik	-0.3483066942682157	spatszok	spatszom	1	NA	3	43	FALSE	TRUE	high	reversed	FALSE	FALSE	TRUE	FALSE
hungarian-esp_esp_participant_SESSION_2022-11-19_20h20.07.908.csv	2022-11-19T20:20:00Z	fmgttz	nő	1998	16	8	esp trial	13	Te bizony sokat plágadzol. Én is sokat...	plágadzom	plágadzok	1	plágadzok	plágadzok	TRUE	4042	332260	lakok_3_high_reversed	lakok/lakom	33	plágadzik	-0.4353180712578455	plágadzok	plágadzom	2	NA	3	44	FALSE	TRUE	high	reversed	FALSE	TRUE	TRUE	TRUE
hungarian-esp_esp_participant_SESSION_2022-11-19_20h20.07.908.csv	2022-11-19T20:20:00Z	fmgttz	nő	1998	16	8	esp trial	15	Te bizony sokat praslasz. Én is sokat...	praslom	praslok	1	praslok	praslom	FALSE	4340	340645	lakok_3_high_reversed	lakok/lakom	33	praslik	1.4271163556401458	praslok	praslom	1	NA	3	5	TRUE	FALSE	high	reversed	FALSE	TRUE	FALSE	TRUE
hungarian-esp_esp_participant_SESSION_2022-11-19_20h20.07.908.csv	2022-11-19T20:20:00Z	fmgttz	nő	1998	16	8	esp trial	17	Te bizony sokat gilárzol. Én is sokat...	gilárzom	gilárzok	0	gilárzom	gilárzok	FALSE	8093	352780	lakok_3_high_reversed	lakok/lakom	33	gilárzik	-0.8938178760220964	gilárzok	gilárzom	2	NA	3	52	FALSE	TRUE	high	reversed	TRUE	FALSE	TRUE	FALSE
hungarian-esp_esp_participant_SESSION_2022-11-19_20h20.07.908.csv	2022-11-19T20:20:00Z	fmgttz	nő	1998	16	8	esp trial	19	Te bizony sokat táklasz. Én is sokat...	táklok	táklom	0	táklok	táklok	TRUE	2754	361047	lakok_3_high_reversed	lakok/lakom	33	táklik	-0.2876820724517809	táklok	táklom	1	NA	3	41	FALSE	TRUE	high	reversed	TRUE	TRUE	TRUE	TRUE
hungarian-esp_esp_participant_SESSION_2022-11-19_20h20.07.908.csv	2022-11-19T20:20:00Z	fmgttz	nő	1998	16	8	esp trial	21	Te bizony sokat zödlesz. Én is sokat...	zödlöm	zödlök	1	zödlök	zödlöm	FALSE	4362	369457	lakok_3_high_reversed	lakok/lakom	33	zödlik	0.7472144018302211	zödlök	zödlöm	1	NA	3	15	TRUE	FALSE	high	reversed	FALSE	TRUE	FALSE	TRUE
hungarian-esp_esp_participant_SESSION_2022-11-19_20h20.07.908.csv	2022-11-19T20:20:00Z	fmgttz	nő	1998	16	8	esp trial	23	Te bizony sokat drügzöl. Én is sokat...	drügzöm	drügzök	0	drügzöm	drügzök	FALSE	4343	377834	lakok_3_high_reversed	lakok/lakom	33	drügzik	0.06899287148695142	drügzök	drügzöm	1	NA	3	29	FALSE	FALSE	high	reversed	TRUE	FALSE	TRUE	FALSE
hungarian-esp_esp_participant_SESSION_2022-11-19_20h20.07.908.csv	2022-11-19T20:20:00Z	fmgttz	nő	1998	16	8	esp trial	25	Te bizony sokat ibáglasz. Én is sokat...	ibáglom	ibáglok	0	ibáglom	ibáglok	FALSE	5439	387328	lakok_3_high_reversed	lakok/lakom	33	ibáglik	0.6418538861723947	ibáglok	ibáglom	2	NA	3	18	FALSE	FALSE	high	reversed	TRUE	FALSE	TRUE	FALSE
hungarian-esp_esp_participant_SESSION_2022-11-19_20h20.07.908.csv	2022-11-19T20:20:00Z	fmgttz	nő	1998	16	8	esp trial	27	Te bizony sokat brarlasz. Én is sokat...	brarlok	brarlom	0	brarlok	brarlom	FALSE	6029	397398	lakok_3_high_reversed	lakok/lakom	33	brarlik	1.1451323043030026	brarlok	brarlom	1	NA	3	7	TRUE	FALSE	high	reversed	TRUE	TRUE	FALSE	TRUE
hungarian-esp_esp_participant_SESSION_2022-11-19_20h20.07.908.csv	2022-11-19T20:20:00Z	fmgttz	nő	1998	16	8	esp trial	29	Te bizony sokat féjzel. Én is sokat...	féjzek	féjzem	0	féjzek	féjzek	TRUE	5267	406700	lakok_3_high_reversed	lakok/lakom	33	féjzik	0.4353180712578455	féjzek	féjzem	1	NA	3	22	FALSE	FALSE	high	reversed	TRUE	TRUE	TRUE	TRUE
hungarian-esp_esp_participant_SESSION_2022-11-19_20h20.07.908.csv	2022-11-19T20:20:00Z	fmgttz	nő	1998	16	8	esp trial	31	Te bizony sokat floglasz. Én is sokat...	floglom	floglok	1	floglok	floglok	TRUE	3558	414964	lakok_3_high_reversed	lakok/lakom	33	floglik	0.4595323293784402	floglok	floglom	1	NA	3	21	FALSE	FALSE	high	reversed	FALSE	TRUE	TRUE	TRUE
hungarian-esp_esp_participant_SESSION_2022-11-19_20h20.07.908.csv	2022-11-19T20:20:00Z	fmgttz	nő	1998	16	8	esp trial	33	Te bizony sokat péleslesz. Én is sokat...	péleslek	péleslem	1	péleslem	péleslek	FALSE	2947	423223	lakok_3_high_reversed	lakok/lakom	33	péleslik	0.7419373447293773	péleslek	péleslem	2	NA	3	17	FALSE	FALSE	high	reversed	FALSE	FALSE	TRUE	FALSE
hungarian-esp_esp_participant_SESSION_2022-11-19_20h20.07.908.csv	2022-11-19T20:20:00Z	fmgttz	nő	1998	16	8	esp trial	35	Te bizony sokat spüszlesz. Én is sokat...	spüszlök	spüszlöm	1	spüszlöm	spüszlök	FALSE	4128	431478	lakok_3_high_reversed	lakok/lakom	33	spüszlik	0.14310084364067324	spüszlök	spüszlöm	1	NA	3	28	FALSE	FALSE	high	reversed	FALSE	FALSE	TRUE	FALSE
hungarian-esp_esp_participant_SESSION_2022-11-19_20h20.07.908.csv	2022-11-19T20:20:00Z	fmgttz	nő	1998	16	8	esp trial	37	Te bizony sokat sprálszol. Én is sokat...	sprálszok	sprálszom	1	sprálszom	sprálszok	FALSE	6048	441566	lakok_3_high_reversed	lakok/lakom	33	sprálszik	-0.2876820724517809	sprálszok	sprálszom	1	NA	3	40	FALSE	TRUE	high	reversed	FALSE	FALSE	TRUE	FALSE
hungarian-esp_esp_participant_SESSION_2022-11-19_20h20.07.908.csv	2022-11-19T20:20:00Z	fmgttz	nő	1998	16	8	esp trial	39	Te bizony sokat sprédlesz. Én is sokat...	sprédlek	sprédlem	1	sprédlem	sprédlem	TRUE	4855	450470	lakok_3_high_reversed	lakok/lakom	33	sprédlik	2.159484249353372	sprédlek	sprédlem	1	NA	3	1	TRUE	FALSE	high	reversed	FALSE	FALSE	FALSE	FALSE
hungarian-esp_esp_participant_SESSION_2022-11-19_20h20.07.908.csv	2022-11-19T20:20:00Z	fmgttz	nő	1998	16	8	esp trial	41	Te bizony sokat mékszel. Én is sokat...	mékszem	mékszek	0	mékszem	mékszek	FALSE	5945	460442	lakok_3_high_reversed	lakok/lakom	33	mékszik	-0.1431008436406733	mékszek	mékszem	1	NA	3	36	FALSE	FALSE	high	reversed	TRUE	FALSE	TRUE	FALSE
hungarian-esp_esp_participant_SESSION_2022-11-19_20h20.07.908.csv	2022-11-19T20:20:00Z	fmgttz	nő	1998	16	8	esp trial	43	Te bizony sokat frágapszol. Én is sokat...	frágapszok	frágapszom	1	frágapszom	frágapszok	FALSE	5855	470345	lakok_3_high_reversed	lakok/lakom	33	frágapszik	-0.3483066942682157	frágapszok	frágapszom	2	NA	3	42	FALSE	TRUE	high	reversed	FALSE	FALSE	TRUE	FALSE
hungarian-esp_esp_participant_SESSION_2022-11-19_20h20.07.908.csv	2022-11-19T20:20:00Z	fmgttz	nő	1998	16	8	esp trial	45	Te bizony sokat fliraklasz. Én is sokat...	fliraklom	fliraklok	1	fliraklok	fliraklok	TRUE	5030	479417	lakok_3_high_reversed	lakok/lakom	33	fliraklik	0	fliraklok	fliraklom	2	NA	3	32	FALSE	FALSE	high	reversed	FALSE	TRUE	TRUE	TRUE
hungarian-esp_esp_participant_SESSION_2022-11-19_20h20.07.908.csv	2022-11-19T20:20:00Z	fmgttz	nő	1998	16	8	esp trial	47	Te bizony sokat lihadzol. Én is sokat...	lihadzok	lihadzom	0	lihadzok	lihadzok	TRUE	4693	488162	lakok_3_high_reversed	lakok/lakom	33	lihadzik	0.1941560144409574	lihadzok	lihadzom	2	NA	3	27	FALSE	FALSE	high	reversed	TRUE	TRUE	TRUE	TRUE
hungarian-esp_esp_participant_SESSION_2022-11-19_20h20.07.908.csv	2022-11-19T20:20:00Z	fmgttz	nő	1998	16	8	esp trial	49	Te bizony sokat gerénylesz. Én is sokat...	gerénylem	gerénylek	0	gerénylem	gerénylem	TRUE	5274	497474	lakok_3_high_reversed	lakok/lakom	33	gerénylik	1.791759469228055	gerénylek	gerénylem	2	NA	3	2	TRUE	FALSE	high	reversed	TRUE	FALSE	FALSE	FALSE
hungarian-esp_esp_participant_SESSION_2022-11-19_20h20.07.908.csv	2022-11-19T20:20:00Z	fmgttz	nő	1998	16	8	esp trial	51	Te bizony sokat klidlasz. Én is sokat...	klidlok	klidlom	1	klidlom	klidlom	TRUE	6561	508079	lakok_3_high_reversed	lakok/lakom	33	klidlik	0.8938178760220965	klidlok	klidlom	1	NA	3	12	TRUE	FALSE	high	reversed	FALSE	FALSE	FALSE	FALSE
hungarian-esp_esp_participant_SESSION_2022-11-19_20h20.07.908.csv	2022-11-19T20:20:00Z	fmgttz	nő	1998	16	8	esp trial	53	Te bizony sokat spélszel. Én is sokat...	spélszek	spélszem	0	spélszek	spélszek	TRUE	9046	521169	lakok_3_high_reversed	lakok/lakom	33	spélszik	0.3483066942682158	spélszek	spélszem	1	NA	3	25	FALSE	FALSE	high	reversed	TRUE	TRUE	TRUE	TRUE
hungarian-esp_esp_participant_SESSION_2022-11-19_20h20.07.908.csv	2022-11-19T20:20:00Z	fmgttz	nő	1998	16	8	esp trial	55	Te bizony sokat sztruglasz. Én is sokat...	sztruglom	sztruglok	0	sztruglom	sztruglok	FALSE	8641	533861	lakok_3_high_reversed	lakok/lakom	33	sztruglik	0.4353180712578455	sztruglok	sztruglom	1	NA	3	23	FALSE	FALSE	high	reversed	TRUE	FALSE	TRUE	FALSE
hungarian-esp_esp_participant_SESSION_2022-11-19_20h20.07.908.csv	2022-11-19T20:20:00Z	fmgttz	nő	1998	16	8	esp trial	57	Te bizony sokat spírzol. Én is sokat...	spírzok	spírzom	1	spírzom	spírzok	FALSE	5308	543239	lakok_3_high_reversed	lakok/lakom	33	spírzik	0	spírzok	spírzom	1	NA	3	34	FALSE	FALSE	high	reversed	FALSE	FALSE	TRUE	FALSE
hungarian-esp_esp_participant_SESSION_2022-11-19_20h20.07.908.csv	2022-11-19T20:20:00Z	fmgttz	nő	1998	16	8	esp trial	59	Te bizony sokat friszlasz. Én is sokat...	friszlok	friszlom	1	friszlom	friszlok	FALSE	5713	552990	lakok_3_high_reversed	lakok/lakom	33	friszlik	0.06453852113757116	friszlok	friszlom	1	NA	3	31	FALSE	FALSE	high	reversed	FALSE	FALSE	TRUE	FALSE
hungarian-esp_esp_participant_SESSION_2022-11-19_20h20.07.908.csv	2022-11-19T20:20:00Z	fmgttz	nő	1998	16	8	esp trial	61	Te bizony sokat flibekszel. Én is sokat...	flibekszem	flibekszek	0	flibekszem	flibekszek	FALSE	2421	561236	lakok_3_high_reversed	lakok/lakom	33	flibekszik	-0.4595323293784402	flibekszek	flibekszem	2	NA	3	45	FALSE	TRUE	high	reversed	TRUE	FALSE	TRUE	FALSE
hungarian-esp_esp_participant_SESSION_2022-11-19_20h20.07.908.csv	2022-11-19T20:20:00Z	fmgttz	nő	1998	16	8	esp trial	63	Te bizony sokat prihekszel. Én is sokat...	prihekszek	prihekszem	0	prihekszek	prihekszek	TRUE	4556	569842	lakok_3_high_reversed	lakok/lakom	33	prihekszik	-0.1941560144409575	prihekszek	prihekszem	2	NA	3	37	FALSE	FALSE	high	reversed	TRUE	TRUE	TRUE	TRUE
hungarian-esp_esp_participant_SESSION_2022-11-19_20h20.07.908.csv	2022-11-19T20:20:00Z	fmgttz	nő	1998	16	8	esp trial	65	Te bizony sokat huklasz. Én is sokat...	huklom	huklok	0	huklom	huklok	FALSE	2227	578101	lakok_3_high_reversed	lakok/lakom	33	huklik	-0.06899287148695143	huklok	huklom	1	NA	3	35	FALSE	FALSE	high	reversed	TRUE	FALSE	TRUE	FALSE
hungarian-esp_esp_participant_SESSION_2022-11-19_20h20.07.908.csv	2022-11-19T20:20:00Z	fmgttz	nő	1998	16	8	esp trial	67	Te bizony sokat fivénylesz. Én is sokat...	fivénylek	fivénylem	0	fivénylek	fivénylek	TRUE	4103	586355	lakok_3_high_reversed	lakok/lakom	33	fivénylik	0.7419373447293773	fivénylek	fivénylem	2	NA	3	16	FALSE	FALSE	high	reversed	TRUE	TRUE	TRUE	TRUE
hungarian-esp_esp_participant_SESSION_2022-11-19_20h20.07.908.csv	2022-11-19T20:20:00Z	fmgttz	nő	1998	16	8	esp trial	69	Te bizony sokat flözlesz. Én is sokat...	flözlök	flözlöm	1	flözlöm	flözlöm	TRUE	3968	594608	lakok_3_high_reversed	lakok/lakom	33	flözlik	0.965080896043587	flözlök	flözlöm	1	NA	3	9	TRUE	FALSE	high	reversed	FALSE	FALSE	FALSE	FALSE
hungarian-esp_esp_participant_SESSION_2022-11-19_20h20.07.908.csv	2022-11-19T20:20:00Z	fmgttz	nő	1998	16	8	esp trial	71	Te bizony sokat szűslesz. Én is sokat...	szűslök	szűslöm	0	szűslök	szűslöm	FALSE	3370	602866	lakok_3_high_reversed	lakok/lakom	33	szűslik	0.8938178760220965	szűslök	szűslöm	1	NA	3	13	TRUE	FALSE	high	reversed	TRUE	TRUE	FALSE	TRUE
hungarian-esp_esp_participant_SESSION_2022-11-19_20h20.07.908.csv	2022-11-19T20:20:00Z	fmgttz	nő	1998	16	8	esp trial	73	Te bizony sokat plövőrzöl. Én is sokat...	plövőrzöm	plövőrzök	0	plövőrzöm	plövőrzök	FALSE	2774	611125	lakok_3_high_reversed	lakok/lakom	33	plövőrzik	0.06899287148695142	plövőrzök	plövőrzöm	2	NA	3	30	FALSE	FALSE	high	reversed	TRUE	FALSE	TRUE	FALSE
hungarian-esp_esp_participant_SESSION_2022-11-19_20h20.07.908.csv	2022-11-19T20:20:00Z	fmgttz	nő	1998	16	8	esp trial	75	Te bizony sokat frivajlasz. Én is sokat...	frivajlom	frivajlok	1	frivajlok	frivajlom	FALSE	4619	619789	lakok_3_high_reversed	lakok/lakom	33	frivajlik	1.2992829841302609	frivajlok	frivajlom	2	NA	3	6	TRUE	FALSE	high	reversed	FALSE	TRUE	FALSE	TRUE
hungarian-esp_esp_participant_SESSION_2022-11-19_20h20.07.908.csv	2022-11-19T20:20:00Z	fmgttz	nő	1998	16	8	esp trial	77	Te bizony sokat vűjlesz. Én is sokat...	vűjlöm	vűjlök	0	vűjlöm	vűjlöm	TRUE	3536	628051	lakok_3_high_reversed	lakok/lakom	33	vűjlik	1.0986122886681098	vűjlök	vűjlöm	1	NA	3	8	TRUE	FALSE	high	reversed	TRUE	FALSE	FALSE	FALSE
hungarian-esp_esp_participant_SESSION_2022-11-19_20h20.07.908.csv	2022-11-19T20:20:00Z	fmgttz	nő	1998	16	8	esp trial	79	Te bizony sokat prohódzol. Én is sokat...	prohódzok	prohódzom	0	prohódzok	prohódzok	TRUE	2934	636292	lakok_3_high_reversed	lakok/lakom	33	prohódzik	-1.0560526742493137	prohódzok	prohódzom	2	NA	3	54	FALSE	TRUE	high	reversed	TRUE	TRUE	TRUE	TRUE
hungarian-esp_esp_participant_SESSION_2022-11-19_20h20.07.908.csv	2022-11-19T20:20:00Z	fmgttz	nő	1998	16	8	esp trial	81	Te bizony sokat aglasz. Én is sokat...	aglok	aglom	0	aglok	aglok	TRUE	3677	644555	lakok_3_high_reversed	lakok/lakom	33	aglik	-0.2076393647782445	aglok	aglom	1	NA	3	38	FALSE	FALSE	high	reversed	TRUE	TRUE	TRUE	TRUE
hungarian-esp_esp_participant_SESSION_2022-11-19_20h20.07.908.csv	2022-11-19T20:20:00Z	fmgttz	nő	1998	16	8	esp trial	83	Te bizony sokat klárzol. Én is sokat...	klárzok	klárzom	1	klárzom	klárzok	FALSE	2550	652798	lakok_3_high_reversed	lakok/lakom	33	klárzik	0	klárzok	klárzom	1	NA	3	33	FALSE	FALSE	high	reversed	FALSE	FALSE	TRUE	FALSE
hungarian-esp_esp_participant_SESSION_2022-11-19_20h20.07.908.csv	2022-11-19T20:20:00Z	fmgttz	nő	1998	16	8	esp trial	85	Te bizony sokat fligzol. Én is sokat...	fligzom	fligzok	1	fligzok	fligzok	TRUE	2256	661054	lakok_3_high_reversed	lakok/lakom	33	fligzik	-0.5978370007556204	fligzok	fligzom	1	NA	3	48	FALSE	TRUE	high	reversed	FALSE	TRUE	TRUE	TRUE
hungarian-esp_esp_participant_SESSION_2022-11-19_20h20.07.908.csv	2022-11-19T20:20:00Z	fmgttz	nő	1998	16	8	esp trial	87	Te bizony sokat gyibakszol. Én is sokat...	gyibakszok	gyibakszom	1	gyibakszom	gyibakszok	FALSE	2163	669312	lakok_3_high_reversed	lakok/lakom	33	gyibakszik	-0.587786664902119	gyibakszok	gyibakszom	2	NA	3	46	FALSE	TRUE	high	reversed	FALSE	FALSE	TRUE	FALSE
hungarian-esp_esp_participant_SESSION_2022-11-19_20h20.07.908.csv	2022-11-19T20:20:00Z	fmgttz	nő	1998	16	8	esp trial	89	Te bizony sokat vihepszel. Én is sokat...	vihepszek	vihepszem	1	vihepszem	vihepszek	FALSE	1933	677539	lakok_3_high_reversed	lakok/lakom	33	vihepszik	-0.7472144018302211	vihepszek	vihepszem	2	NA	3	51	FALSE	TRUE	high	reversed	FALSE	FALSE	TRUE	FALSE
hungarian-esp_esp_participant_SESSION_2022-11-19_20h20.07.908.csv	2022-11-19T20:20:00Z	fmgttz	nő	1998	16	8	esp trial	91	Te bizony sokat gyivádzol. Én is sokat...	gyivádzom	gyivádzok	1	gyivádzok	gyivádzok	TRUE	3019	685796	lakok_3_high_reversed	lakok/lakom	33	gyivádzik	-0.6418538861723948	gyivádzok	gyivádzom	2	NA	3	49	FALSE	TRUE	high	reversed	FALSE	TRUE	TRUE	TRUE
hungarian-esp_esp_participant_SESSION_2022-11-19_20h20.07.908.csv	2022-11-19T20:20:00Z	fmgttz	nő	1998	16	8	esp trial	93	Te bizony sokat tuboklasz. Én is sokat...	tuboklok	tuboklom	1	tuboklom	tuboklok	FALSE	3373	694031	lakok_3_high_reversed	lakok/lakom	33	tuboklik	0.4353180712578455	tuboklok	tuboklom	2	NA	3	24	FALSE	FALSE	high	reversed	FALSE	FALSE	TRUE	FALSE
hungarian-esp_esp_participant_SESSION_2022-11-19_20h20.07.908.csv	2022-11-19T20:20:00Z	fmgttz	nő	1998	16	8	esp trial	95	Te bizony sokat flérlesz. Én is sokat...	flérlek	flérlem	0	flérlek	flérlem	FALSE	3892	702284	lakok_3_high_reversed	lakok/lakom	33	flérlik	1.5686159179138452	flérlek	flérlem	1	NA	3	4	TRUE	FALSE	high	reversed	TRUE	TRUE	FALSE	TRUE
hungarian-esp_esp_participant_SESSION_2022-11-19_20h20.07.908.csv	2022-11-19T20:20:00Z	fmgttz	nő	1998	16	8	esp trial	97	Te bizony sokat csólorzol. Én is sokat...	csólorzok	csólorzom	1	csólorzom	csólorzok	FALSE	1929	710550	lakok_3_high_reversed	lakok/lakom	33	csólorzik	-0.5978370007556204	csólorzok	csólorzom	2	NA	3	47	FALSE	TRUE	high	reversed	FALSE	FALSE	TRUE	FALSE
hungarian-esp_esp_participant_SESSION_2022-11-19_20h20.07.908.csv	2022-11-19T20:20:00Z	fmgttz	nő	1998	16	8	esp trial	99	Te bizony sokat spülöklesz. Én is sokat...	spülöklök	spülöklöm	0	spülöklök	spülöklök	TRUE	6119	720736	lakok_3_high_reversed	lakok/lakom	33	spülöklik	0.28768207245178085	spülöklök	spülöklöm	2	NA	3	26	FALSE	FALSE	high	reversed	TRUE	TRUE	TRUE	TRUE
hungarian-esp_esp_participant_SESSION_2022-11-19_20h20.07.908.csv	2022-11-19T20:20:00Z	fmgttz	nő	1998	16	8	esp trial	101	Te bizony sokat prezlesz. Én is sokat...	prezlem	prezlek	1	prezlek	prezlem	FALSE	3808	729000	lakok_3_high_reversed	lakok/lakom	33	prezlik	0.9162907318741552	prezlek	prezlem	1	NA	3	11	TRUE	FALSE	high	reversed	FALSE	TRUE	FALSE	TRUE
hungarian-esp_esp_participant_SESSION_2022-11-19_20h20.07.908.csv	2022-11-19T20:20:00Z	fmgttz	nő	1998	16	8	esp trial	103	Te bizony sokat livaklasz. Én is sokat...	livaklom	livaklok	1	livaklok	livaklok	TRUE	6925	739966	lakok_3_high_reversed	lakok/lakom	33	livaklik	-0.9650808960435872	livaklok	livaklom	2	NA	3	53	FALSE	TRUE	high	reversed	FALSE	TRUE	TRUE	TRUE
hungarian-esp_esp_participant_SESSION_2022-11-19_20h20.07.908.csv	2022-11-19T20:20:00Z	fmgttz	nő	1998	16	8	esp trial	105	Te bizony sokat spibádzol. Én is sokat...	spibádzom	spibádzok	0	spibádzom	spibádzok	FALSE	7195	751201	lakok_3_high_reversed	lakok/lakom	33	spibádzik	-0.2076393647782445	spibádzok	spibádzom	2	NA	3	39	FALSE	FALSE	high	reversed	TRUE	FALSE	TRUE	FALSE
hungarian-esp_esp_participant_SESSION_2022-11-19_20h20.07.908.csv	2022-11-19T20:20:00Z	fmgttz	nő	1998	16	8	esp trial	107	Te bizony sokat pugoslasz. Én is sokat...	pugoslom	pugoslok	0	pugoslom	pugoslom	TRUE	1987	759446	lakok_3_high_reversed	lakok/lakom	33	pugoslik	0.965080896043587	pugoslok	pugoslom	2	NA	3	10	TRUE	FALSE	high	reversed	TRUE	FALSE	FALSE	FALSE
hungarian-esp_esp_participant_SESSION_2022-11-19_20h20.07.908.csv	2022-11-19T20:20:00Z	fmgttz	nő	1998	16	8	esp trial	109	Te bizony sokat spülőrzöl. Én is sokat...	spülőrzök	spülőrzöm	1	spülőrzöm	spülőrzök	FALSE	7552	771033	lakok_3_high_reversed	lakok/lakom	33	spülőrzik	0.5877866649021191	spülőrzök	spülőrzöm	2	NA	3	20	FALSE	FALSE	high	reversed	FALSE	FALSE	TRUE	FALSE
hungarian-esp_esp_participant_SESSION_2022-11-19_20h20.07.908.csv	2022-11-19T20:20:00Z	fmgttz	nő	1998	16	8	esp trial	111	Te bizony sokat trihagzol. Én is sokat...	trihagzok	trihagzom	0	trihagzok	trihagzok	TRUE	4895	779974	lakok_3_high_reversed	lakok/lakom	33	trihagzik	-0.6418538861723948	trihagzok	trihagzom	2	NA	3	50	FALSE	TRUE	high	reversed	TRUE	TRUE	TRUE	TRUE
hungarian-esp_esp_participant_SESSION_2022-11-19_20h20.07.908.csv	2022-11-19T20:20:00Z	fmgttz	nő	1998	16	8	esp trial	113	Te bizony sokat kumlasz. Én is sokat...	kumlok	kumlom	1	kumlom	kumlom	TRUE	2701	788230	lakok_3_high_reversed	lakok/lakom	33	kumlik	1.6486586255873816	kumlok	kumlom	1	NA	3	3	TRUE	FALSE	high	reversed	FALSE	FALSE	FALSE	FALSE
hungarian-esp_esp_participant_SESSION_2022-11-19_20h20.07.908.csv	2022-11-19T20:20:00Z	fmgttz	nő	1998	16	8	esp trial	115	Te bizony sokat préleglesz. Én is sokat...	préleglek	préleglem	0	préleglek	préleglek	TRUE	3382	796498	lakok_3_high_reversed	lakok/lakom	33	préleglik	0.6418538861723947	préleglek	préleglem	2	NA	3	19	FALSE	FALSE	high	reversed	TRUE	TRUE	TRUE	TRUE
hungarian-esp_esp_participant_SESSION_2022-11-19_20h20.07.908.csv	2022-11-19T20:20:00Z	fmgttz	nő	1998	16	8	esp trial	117	Te bizony sokat bivejlesz. Én is sokat...	bivejlek	bivejlem	1	bivejlem	bivejlem	TRUE	3572	804773	lakok_3_high_reversed	lakok/lakom	33	bivejlik	0.7472144018302211	bivejlek	bivejlem	2	NA	3	14	TRUE	FALSE	high	reversed	FALSE	FALSE	FALSE	FALSE
hungarian-esp_esp_participant_SESSION_2022-11-19_20h20.07.908.csv	2022-11-19T20:20:00Z	fmgttz	nő	1998	16	1	posttest trial	120	Te bizony sokat sztremlesz. Én is sokat...	sztremlem	sztremlek	1	sztremlek	NA	NA	22453	882109	lakok_1_high_typical	lakok/lakom	26	sztremlik	1.3437347467010947	sztremlek	sztremlem	1	NA	1	6	TRUE	FALSE	high	reversed	FALSE	TRUE	NA	NA
hungarian-esp_esp_participant_SESSION_2022-11-19_20h20.07.908.csv	2022-11-19T20:20:00Z	fmgttz	nő	1998	16	1	posttest trial	121	Te bizony sokat flagánylasz. Én is sokat...	flagánylok	flagánylom	1	flagánylom	NA	NA	13533	896164	lakok_1_high_typical	lakok/lakom	26	flagánylik	1.0560526742493137	flagánylok	flagánylom	2	NA	1	9	TRUE	FALSE	high	reversed	FALSE	FALSE	NA	NA
hungarian-esp_esp_participant_SESSION_2022-11-19_20h20.07.908.csv	2022-11-19T20:20:00Z	fmgttz	nő	1998	16	1	posttest trial	122	Te bizony sokat bölszöl. Én is sokat...	bölszöm	bölszök	0	bölszöm	NA	NA	20457	917128	lakok_1_high_typical	lakok/lakom	26	bölszik	0.3483066942682158	bölszök	bölszöm	1	NA	1	25	FALSE	FALSE	high	reversed	TRUE	FALSE	NA	NA
hungarian-esp_esp_participant_SESSION_2022-11-19_20h20.07.908.csv	2022-11-19T20:20:00Z	fmgttz	nő	1998	16	1	posttest trial	123	Te bizony sokat spéslesz. Én is sokat...	spéslek	spéslem	0	spéslek	NA	NA	8745	926376	lakok_1_high_typical	lakok/lakom	26	spéslik	1.1451323043030026	spéslek	spéslem	1	NA	1	8	TRUE	FALSE	high	reversed	TRUE	TRUE	NA	NA
hungarian-esp_esp_participant_SESSION_2022-11-19_20h20.07.908.csv	2022-11-19T20:20:00Z	fmgttz	nő	1998	16	1	posttest trial	124	Te bizony sokat ruslasz. Én is sokat...	ruslok	ruslom	1	ruslom	NA	NA	10829	937715	lakok_1_high_typical	lakok/lakom	26	ruslik	0.8938178760220965	ruslok	ruslom	1	NA	1	13	TRUE	FALSE	high	reversed	FALSE	FALSE	NA	NA
hungarian-esp_esp_participant_SESSION_2022-11-19_20h20.07.908.csv	2022-11-19T20:20:00Z	fmgttz	nő	1998	16	1	posttest trial	125	Te bizony sokat fibamlasz. Én is sokat...	fibamlok	fibamlom	0	fibamlok	NA	NA	6747	944969	lakok_1_high_typical	lakok/lakom	26	fibamlik	1.9095425048844383	fibamlok	fibamlom	2	NA	1	2	TRUE	FALSE	high	reversed	TRUE	TRUE	NA	NA
hungarian-esp_esp_participant_SESSION_2022-11-19_20h20.07.908.csv	2022-11-19T20:20:00Z	fmgttz	nő	1998	16	1	posttest trial	126	Te bizony sokat marzol. Én is sokat...	marzom	marzok	1	marzok	NA	NA	10357	955838	lakok_1_high_typical	lakok/lakom	26	marzik	0.7985076962177716	marzok	marzom	1	NA	1	14	TRUE	FALSE	high	reversed	FALSE	TRUE	NA	NA
hungarian-esp_esp_participant_SESSION_2022-11-19_20h20.07.908.csv	2022-11-19T20:20:00Z	fmgttz	nő	1998	16	1	posttest trial	127	Te bizony sokat szirlasz. Én is sokat...	szirlok	szirlom	0	szirlok	NA	NA	6387	962744	lakok_1_high_typical	lakok/lakom	26	szirlik	0.7419373447293773	szirlok	szirlom	1	NA	1	18	FALSE	FALSE	high	reversed	TRUE	TRUE	NA	NA
hungarian-esp_esp_participant_SESSION_2022-11-19_20h20.07.908.csv	2022-11-19T20:20:00Z	fmgttz	nő	1998	16	1	posttest trial	128	Te bizony sokat sűzlesz. Én is sokat...	sűzlöm	sűzlök	0	sűzlöm	NA	NA	6175	969431	lakok_1_high_typical	lakok/lakom	26	sűzlik	0.14310084364067324	sűzlök	sűzlöm	1	NA	1	29	FALSE	FALSE	high	reversed	TRUE	FALSE	NA	NA
hungarian-esp_esp_participant_SESSION_2022-11-19_20h20.07.908.csv	2022-11-19T20:20:00Z	fmgttz	nő	1998	16	1	posttest trial	129	Te bizony sokat juszlasz. Én is sokat...	juszlok	juszlom	1	juszlom	NA	NA	7703	977638	lakok_1_high_typical	lakok/lakom	26	juszlik	0.4595323293784402	juszlok	juszlom	1	NA	1	22	FALSE	FALSE	high	reversed	FALSE	FALSE	NA	NA
hungarian-esp_esp_participant_SESSION_2022-11-19_20h20.07.908.csv	2022-11-19T20:20:00Z	fmgttz	nő	1998	16	1	posttest trial	130	Te bizony sokat vilakszol. Én is sokat...	vilakszom	vilakszok	0	vilakszom	NA	NA	27680	1005824	lakok_1_high_typical	lakok/lakom	26	vilakszik	-0.7985076962177716	vilakszok	vilakszom	2	NA	1	52	FALSE	TRUE	high	reversed	TRUE	FALSE	NA	NA
hungarian-esp_esp_participant_SESSION_2022-11-19_20h20.07.908.csv	2022-11-19T20:20:00Z	fmgttz	nő	1998	16	1	posttest trial	131	Te bizony sokat flagárzol. Én is sokat...	flagárzok	flagárzom	1	flagárzom	NA	NA	18075	1024420	lakok_1_high_typical	lakok/lakom	26	flagárzik	-0.2076393647782445	flagárzok	flagárzom	2	NA	1	39	FALSE	FALSE	high	reversed	FALSE	FALSE	NA	NA
hungarian-esp_esp_participant_SESSION_2022-11-19_20h20.07.908.csv	2022-11-19T20:20:00Z	fmgttz	nő	1998	16	1	posttest trial	132	Te bizony sokat pratánylasz. Én is sokat...	pratánylom	pratánylok	1	pratánylok	NA	NA	24366	1049292	lakok_1_high_typical	lakok/lakom	26	pratánylik	1.2321436812926323	pratánylok	pratánylom	2	NA	1	7	TRUE	FALSE	high	reversed	FALSE	TRUE	NA	NA
hungarian-esp_esp_participant_SESSION_2022-11-19_20h20.07.908.csv	2022-11-19T20:20:00Z	fmgttz	nő	1998	16	1	posttest trial	133	Te bizony sokat spűmlesz. Én is sokat...	spűmlök	spűmlöm	0	spűmlök	NA	NA	7478	1057286	lakok_1_high_typical	lakok/lakom	26	spűmlik	1.5686159179138452	spűmlök	spűmlöm	1	NA	1	5	TRUE	FALSE	high	reversed	TRUE	TRUE	NA	NA
hungarian-esp_esp_participant_SESSION_2022-11-19_20h20.07.908.csv	2022-11-19T20:20:00Z	fmgttz	nő	1998	16	1	posttest trial	134	Te bizony sokat csíszlasz. Én is sokat...	csíszlom	csíszlok	0	csíszlom	NA	NA	23133	1080937	lakok_1_high_typical	lakok/lakom	26	csíszlik	0.7419373447293773	csíszlok	csíszlom	1	NA	1	16	FALSE	FALSE	high	reversed	TRUE	FALSE	NA	NA
hungarian-esp_esp_participant_SESSION_2022-11-19_20h20.07.908.csv	2022-11-19T20:20:00Z	fmgttz	nő	1998	16	1	posttest trial	135	Te bizony sokat klörlesz. Én is sokat...	klörlöm	klörlök	1	klörlök	NA	NA	11981	1093420	lakok_1_high_typical	lakok/lakom	26	klörlik	0.6418538861723947	klörlök	klörlöm	1	NA	1	19	FALSE	FALSE	high	reversed	FALSE	TRUE	NA	NA
hungarian-esp_esp_participant_SESSION_2022-11-19_20h20.07.908.csv	2022-11-19T20:20:00Z	fmgttz	nő	1998	16	1	posttest trial	136	Te bizony sokat málapszol. Én is sokat...	málapszok	málapszom	1	málapszom	NA	NA	17595	1111537	lakok_1_high_typical	lakok/lakom	26	málapszik	-0.06899287148695143	málapszok	málapszom	2	NA	1	36	FALSE	FALSE	high	reversed	FALSE	FALSE	NA	NA
hungarian-esp_esp_participant_SESSION_2022-11-19_20h20.07.908.csv	2022-11-19T20:20:00Z	fmgttz	nő	1998	16	1	posttest trial	137	Te bizony sokat brüjlesz. Én is sokat...	brüjlöm	brüjlök	0	brüjlöm	NA	NA	11035	1123091	lakok_1_high_typical	lakok/lakom	26	brüjlik	0.7472144018302211	brüjlök	brüjlöm	1	NA	1	15	TRUE	FALSE	high	reversed	TRUE	FALSE	NA	NA
hungarian-esp_esp_participant_SESSION_2022-11-19_20h20.07.908.csv	2022-11-19T20:20:00Z	fmgttz	nő	1998	16	1	posttest trial	138	Te bizony sokat sojzol. Én is sokat...	sojzom	sojzok	0	sojzom	NA	NA	4579	1128181	lakok_1_high_typical	lakok/lakom	26	sojzik	-0.4595323293784402	sojzok	sojzom	1	NA	1	46	FALSE	TRUE	high	reversed	TRUE	FALSE	NA	NA
hungarian-esp_esp_participant_SESSION_2022-11-19_20h20.07.908.csv	2022-11-19T20:20:00Z	fmgttz	nő	1998	16	1	posttest trial	139	Te bizony sokat flüröslesz. Én is sokat...	flüröslöm	flüröslök	0	flüröslöm	NA	NA	12156	1140855	lakok_1_high_typical	lakok/lakom	26	flüröslik	0.7419373447293773	flüröslök	flüröslöm	2	NA	1	17	FALSE	FALSE	high	reversed	TRUE	FALSE	NA	NA
hungarian-esp_esp_participant_SESSION_2022-11-19_20h20.07.908.csv	2022-11-19T20:20:00Z	fmgttz	nő	1998	16	1	posttest trial	140	Te bizony sokat pebzel. Én is sokat...	pebzek	pebzem	0	pebzek	NA	NA	9289	1150662	lakok_1_high_typical	lakok/lakom	26	pebzik	0.49247648509779424	pebzek	pebzem	1	NA	1	21	FALSE	FALSE	high	reversed	TRUE	TRUE	NA	NA
hungarian-esp_esp_participant_SESSION_2022-11-19_20h20.07.908.csv	2022-11-19T20:20:00Z	fmgttz	nő	1998	16	1	posttest trial	141	Te bizony sokat jüslesz. Én is sokat...	jüslök	jüslöm	1	jüslöm	NA	NA	28756	1179938	lakok_1_high_typical	lakok/lakom	26	jüslik	0.965080896043587	jüslök	jüslöm	1	NA	1	10	TRUE	FALSE	high	reversed	FALSE	FALSE	NA	NA
hungarian-esp_esp_participant_SESSION_2022-11-19_20h20.07.908.csv	2022-11-19T20:20:00Z	fmgttz	nő	1998	16	1	posttest trial	142	Te bizony sokat feténylesz. Én is sokat...	feténylek	feténylem	1	feténylem	NA	NA	5449	1185896	lakok_1_high_typical	lakok/lakom	26	feténylik	1.5686159179138452	feténylek	feténylem	2	NA	1	4	TRUE	FALSE	high	reversed	FALSE	FALSE	NA	NA
hungarian-esp_esp_participant_SESSION_2022-11-19_20h20.07.908.csv	2022-11-19T20:20:00Z	fmgttz	nő	1998	16	1	posttest trial	143	Te bizony sokat lorjódzol. Én is sokat...	lorjódzok	lorjódzom	1	lorjódzom	NA	NA	10208	1196609	lakok_1_high_typical	lakok/lakom	26	lorjódzik	-0.1941560144409575	lorjódzok	lorjódzom	2	NA	1	37	FALSE	FALSE	high	reversed	FALSE	FALSE	NA	NA
hungarian-esp_esp_participant_SESSION_2022-11-19_20h20.07.908.csv	2022-11-19T20:20:00Z	fmgttz	nő	1998	16	1	posttest trial	144	Te bizony sokat sprogzol. Én is sokat...	sprogzom	sprogzok	0	sprogzom	NA	NA	8225	1205337	lakok_1_high_typical	lakok/lakom	26	sprogzik	-0.7419373447293773	sprogzok	sprogzom	1	NA	1	51	FALSE	TRUE	high	reversed	TRUE	FALSE	NA	NA
hungarian-esp_esp_participant_SESSION_2022-11-19_20h20.07.908.csv	2022-11-19T20:20:00Z	fmgttz	nő	1998	16	1	posttest trial	145	Te bizony sokat siladzol. Én is sokat...	siladzom	siladzok	0	siladzom	NA	NA	6827	1212667	lakok_1_high_typical	lakok/lakom	26	siladzik	-0.4353180712578455	siladzok	siladzom	2	NA	1	45	FALSE	TRUE	high	reversed	TRUE	FALSE	NA	NA
hungarian-esp_esp_participant_SESSION_2022-11-19_20h20.07.908.csv	2022-11-19T20:20:00Z	fmgttz	nő	1998	16	1	posttest trial	146	Te bizony sokat ribegzel. Én is sokat...	ribegzem	ribegzek	0	ribegzem	NA	NA	7177	1220359	lakok_1_high_typical	lakok/lakom	26	ribegzik	-0.1941560144409575	ribegzek	ribegzem	2	NA	1	38	FALSE	FALSE	high	reversed	TRUE	FALSE	NA	NA
hungarian-esp_esp_participant_SESSION_2022-11-19_20h20.07.908.csv	2022-11-19T20:20:00Z	fmgttz	nő	1998	16	1	posttest trial	147	Te bizony sokat drubódzol. Én is sokat...	drubódzok	drubódzom	1	drubódzom	NA	NA	3969	1224834	lakok_1_high_typical	lakok/lakom	26	drubódzik	-0.4353180712578455	drubódzok	drubódzom	2	NA	1	44	FALSE	TRUE	high	reversed	FALSE	FALSE	NA	NA
hungarian-esp_esp_participant_SESSION_2022-11-19_20h20.07.908.csv	2022-11-19T20:20:00Z	fmgttz	nő	1998	16	1	posttest trial	148	Te bizony sokat tínylasz. Én is sokat...	tínylom	tínylok	0	tínylom	NA	NA	4102	1229448	lakok_1_high_typical	lakok/lakom	26	tínylik	0.4353180712578455	tínylok	tínylom	1	NA	1	24	FALSE	FALSE	high	reversed	TRUE	FALSE	NA	NA
hungarian-esp_esp_participant_SESSION_2022-11-19_20h20.07.908.csv	2022-11-19T20:20:00Z	fmgttz	nő	1998	16	1	posttest trial	149	Te bizony sokat sprökszöl. Én is sokat...	sprökszöm	sprökszök	0	sprökszöm	NA	NA	16541	1246494	lakok_1_high_typical	lakok/lakom	26	sprökszik	-0.2876820724517809	sprökszök	sprökszöm	1	NA	1	41	FALSE	TRUE	high	reversed	TRUE	FALSE	NA	NA
hungarian-esp_esp_participant_SESSION_2022-11-19_20h20.07.908.csv	2022-11-19T20:20:00Z	fmgttz	nő	1998	16	1	posttest trial	150	Te bizony sokat spibaklasz. Én is sokat...	spibaklok	spibaklom	1	spibaklom	NA	NA	15786	1262790	lakok_1_high_typical	lakok/lakom	26	spibaklik	0.06899287148695142	spibaklok	spibaklom	2	NA	1	31	FALSE	FALSE	high	reversed	FALSE	FALSE	NA	NA
hungarian-esp_esp_participant_SESSION_2022-11-19_20h20.07.908.csv	2022-11-19T20:20:00Z	fmgttz	nő	1998	16	1	posttest trial	151	Te bizony sokat piragszol. Én is sokat...	piragszok	piragszom	1	piragszom	NA	NA	5323	1268620	lakok_1_high_typical	lakok/lakom	26	piragszik	-0.587786664902119	piragszok	piragszom	2	NA	1	47	FALSE	TRUE	high	reversed	FALSE	FALSE	NA	NA
hungarian-esp_esp_participant_SESSION_2022-11-19_20h20.07.908.csv	2022-11-19T20:20:00Z	fmgttz	nő	1998	16	1	posttest trial	152	Te bizony sokat klibamlasz. Én is sokat...	klibamlok	klibamlom	0	klibamlok	NA	NA	10891	1280025	lakok_1_high_typical	lakok/lakom	26	klibamlik	0.4353180712578455	klibamlok	klibamlom	2	NA	1	23	FALSE	FALSE	high	reversed	TRUE	TRUE	NA	NA
hungarian-esp_esp_participant_SESSION_2022-11-19_20h20.07.908.csv	2022-11-19T20:20:00Z	fmgttz	nő	1998	16	1	posttest trial	153	Te bizony sokat herégszel. Én is sokat...	herégszek	herégszem	1	herégszem	NA	NA	9431	1289969	lakok_1_high_typical	lakok/lakom	26	herégszik	-0.6418538861723948	herégszek	herégszem	2	NA	1	50	FALSE	TRUE	high	reversed	FALSE	FALSE	NA	NA
hungarian-esp_esp_participant_SESSION_2022-11-19_20h20.07.908.csv	2022-11-19T20:20:00Z	fmgttz	nő	1998	16	1	posttest trial	154	Te bizony sokat nyáslasz. Én is sokat...	nyáslok	nyáslom	1	nyáslom	NA	NA	5562	1296051	lakok_1_high_typical	lakok/lakom	26	nyáslik	0.5877866649021191	nyáslok	nyáslom	1	NA	1	20	FALSE	FALSE	high	reversed	FALSE	FALSE	NA	NA
hungarian-esp_esp_participant_SESSION_2022-11-19_20h20.07.908.csv	2022-11-19T20:20:00Z	fmgttz	nő	1998	16	1	posttest trial	155	Te bizony sokat driládzol. Én is sokat...	driládzom	driládzok	0	driládzom	NA	NA	6752	1303319	lakok_1_high_typical	lakok/lakom	26	driládzik	-0.5978370007556204	driládzok	driládzom	2	NA	1	48	FALSE	TRUE	high	reversed	TRUE	FALSE	NA	NA
hungarian-esp_esp_participant_SESSION_2022-11-19_20h20.07.908.csv	2022-11-19T20:20:00Z	fmgttz	nő	1998	16	1	posttest trial	156	Te bizony sokat tomlasz. Én is sokat...	tomlom	tomlok	1	tomlok	NA	NA	6348	1310180	lakok_1_high_typical	lakok/lakom	26	tomlik	2.2335922215070942	tomlok	tomlom	1	NA	1	1	TRUE	FALSE	high	reversed	FALSE	TRUE	NA	NA
hungarian-esp_esp_participant_SESSION_2022-11-19_20h20.07.908.csv	2022-11-19T20:20:00Z	fmgttz	nő	1998	16	1	posttest trial	157	Te bizony sokat büglesz. Én is sokat...	büglöm	büglök	0	büglöm	NA	NA	3884	1314584	lakok_1_high_typical	lakok/lakom	26	büglik	0.9162907318741552	büglök	büglöm	1	NA	1	11	TRUE	FALSE	high	reversed	TRUE	FALSE	NA	NA
hungarian-esp_esp_participant_SESSION_2022-11-19_20h20.07.908.csv	2022-11-19T20:20:00Z	fmgttz	nő	1998	16	1	posttest trial	158	Te bizony sokat frilegszel. Én is sokat...	frilegszem	frilegszek	0	frilegszem	NA	NA	12167	1327266	lakok_1_high_typical	lakok/lakom	26	frilegszik	-0.2876820724517809	frilegszek	frilegszem	2	NA	1	40	FALSE	TRUE	high	reversed	TRUE	FALSE	NA	NA
hungarian-esp_esp_participant_SESSION_2022-11-19_20h20.07.908.csv	2022-11-19T20:20:00Z	fmgttz	nő	1998	16	1	posttest trial	159	Te bizony sokat fretszel. Én is sokat...	fretszek	fretszem	0	fretszek	NA	NA	8069	1335850	lakok_1_high_typical	lakok/lakom	26	fretszik	0	fretszek	fretszem	1	NA	1	33	FALSE	FALSE	high	reversed	TRUE	TRUE	NA	NA
hungarian-esp_esp_participant_SESSION_2022-11-19_20h20.07.908.csv	2022-11-19T20:20:00Z	fmgttz	nő	1998	16	1	posttest trial	160	Te bizony sokat prilegzel. Én is sokat...	prilegzek	prilegzem	0	prilegzek	NA	NA	9495	1345869	lakok_1_high_typical	lakok/lakom	26	prilegzik	-0.3483066942682157	prilegzek	prilegzem	2	NA	1	43	FALSE	TRUE	high	reversed	TRUE	TRUE	NA	NA
hungarian-esp_esp_participant_SESSION_2022-11-19_20h20.07.908.csv	2022-11-19T20:20:00Z	fmgttz	nő	1998	16	1	posttest trial	161	Te bizony sokat pivegszel. Én is sokat...	pivegszem	pivegszek	1	pivegszek	NA	NA	3548	1349935	lakok_1_high_typical	lakok/lakom	26	pivegszik	-0.8938178760220964	pivegszek	pivegszem	2	NA	1	53	FALSE	TRUE	high	reversed	FALSE	TRUE	NA	NA
hungarian-esp_esp_participant_SESSION_2022-11-19_20h20.07.908.csv	2022-11-19T20:20:00Z	fmgttz	nő	1998	16	1	posttest trial	162	Te bizony sokat ribzol. Én is sokat...	ribzom	ribzok	0	ribzom	NA	NA	3664	1354111	lakok_1_high_typical	lakok/lakom	26	ribzik	-0.5978370007556204	ribzok	ribzom	1	NA	1	49	FALSE	TRUE	high	reversed	TRUE	FALSE	NA	NA
hungarian-esp_esp_participant_SESSION_2022-11-19_20h20.07.908.csv	2022-11-19T20:20:00Z	fmgttz	nő	1998	16	1	posttest trial	163	Te bizony sokat brágaklasz. Én is sokat...	brágaklok	brágaklom	1	brágaklom	NA	NA	4433	1359052	lakok_1_high_typical	lakok/lakom	26	brágaklik	-0.325422400434628	brágaklok	brágaklom	2	NA	1	42	FALSE	TRUE	high	reversed	FALSE	FALSE	NA	NA
hungarian-esp_esp_participant_SESSION_2022-11-19_20h20.07.908.csv	2022-11-19T20:20:00Z	fmgttz	nő	1998	16	1	posttest trial	164	Te bizony sokat tiregzel. Én is sokat...	tiregzem	tiregzek	0	tiregzem	NA	NA	7137	1366711	lakok_1_high_typical	lakok/lakom	26	tiregzik	0.06453852113757116	tiregzek	tiregzem	2	NA	1	32	FALSE	FALSE	high	reversed	TRUE	FALSE	NA	NA
hungarian-esp_esp_participant_SESSION_2022-11-19_20h20.07.908.csv	2022-11-19T20:20:00Z	fmgttz	nő	1998	16	1	posttest trial	165	Te bizony sokat trilszol. Én is sokat...	trilszom	trilszok	0	trilszom	NA	NA	9969	1377199	lakok_1_high_typical	lakok/lakom	26	trilszik	0.28768207245178085	trilszok	trilszom	1	NA	1	27	FALSE	FALSE	high	reversed	TRUE	FALSE	NA	NA
hungarian-esp_esp_participant_SESSION_2022-11-19_20h20.07.908.csv	2022-11-19T20:20:00Z	fmgttz	nő	1998	16	1	posttest trial	166	Te bizony sokat femlesz. Én is sokat...	femlek	femlem	0	femlek	NA	NA	5319	1383026	lakok_1_high_typical	lakok/lakom	26	femlik	1.6486586255873816	femlek	femlem	1	NA	1	3	TRUE	FALSE	high	reversed	TRUE	TRUE	NA	NA
hungarian-esp_esp_participant_SESSION_2022-11-19_20h20.07.908.csv	2022-11-19T20:20:00Z	fmgttz	nő	1998	16	1	posttest trial	167	Te bizony sokat böjzöl. Én is sokat...	böjzöm	böjzök	0	böjzöm	NA	NA	6017	1389555	lakok_1_high_typical	lakok/lakom	26	böjzik	0.14310084364067324	böjzök	böjzöm	1	NA	1	28	FALSE	FALSE	high	reversed	TRUE	FALSE	NA	NA
hungarian-esp_esp_participant_SESSION_2022-11-19_20h20.07.908.csv	2022-11-19T20:20:00Z	fmgttz	nő	1998	16	1	posttest trial	168	Te bizony sokat spilágzol. Én is sokat...	spilágzom	spilágzok	0	spilágzom	NA	NA	3632	1393696	lakok_1_high_typical	lakok/lakom	26	spilágzik	-0.9650808960435872	spilágzok	spilágzom	2	NA	1	54	FALSE	TRUE	high	reversed	TRUE	FALSE	NA	NA
hungarian-esp_esp_participant_SESSION_2022-11-19_20h20.07.908.csv	2022-11-19T20:20:00Z	fmgttz	nő	1998	16	1	posttest trial	169	Te bizony sokat hilarzol. Én is sokat...	hilarzok	hilarzom	1	hilarzom	NA	NA	3036	1397242	lakok_1_high_typical	lakok/lakom	26	hilarzik	0.06899287148695142	hilarzok	hilarzom	2	NA	1	30	FALSE	FALSE	high	reversed	FALSE	FALSE	NA	NA
hungarian-esp_esp_participant_SESSION_2022-11-19_20h20.07.908.csv	2022-11-19T20:20:00Z	fmgttz	nő	1998	16	1	posttest trial	170	Te bizony sokat spatárzol. Én is sokat...	spatárzom	spatárzok	0	spatárzom	NA	NA	3004	1400761	lakok_1_high_typical	lakok/lakom	26	spatárzik	-0.06453852113757118	spatárzok	spatárzom	2	NA	1	35	FALSE	FALSE	high	reversed	TRUE	FALSE	NA	NA
hungarian-esp_esp_participant_SESSION_2022-11-19_20h20.07.908.csv	2022-11-19T20:20:00Z	fmgttz	nő	1998	16	1	posttest trial	171	Te bizony sokat flűröklesz. Én is sokat...	flűröklök	flűröklöm	0	flűröklök	NA	NA	3957	1405226	lakok_1_high_typical	lakok/lakom	26	flűröklik	0.32542240043462795	flűröklök	flűröklöm	2	NA	1	26	FALSE	FALSE	high	reversed	TRUE	TRUE	NA	NA
hungarian-esp_esp_participant_SESSION_2022-11-19_20h20.07.908.csv	2022-11-19T20:20:00Z	fmgttz	nő	1998	16	1	posttest trial	172	Te bizony sokat narjárzol. Én is sokat...	narjárzom	narjárzok	0	narjárzom	NA	NA	4005	1409755	lakok_1_high_typical	lakok/lakom	26	narjárzik	0	narjárzok	narjárzom	2	NA	1	34	FALSE	FALSE	high	reversed	TRUE	FALSE	NA	NA
hungarian-esp_esp_participant_SESSION_2022-11-19_20h20.07.908.csv	2022-11-19T20:20:00Z	fmgttz	nő	1998	16	1	posttest trial	173	Te bizony sokat prűrlesz. Én is sokat...	prűrlök	prűrlöm	0	prűrlök	NA	NA	3775	1414046	lakok_1_high_typical	lakok/lakom	26	prűrlik	0.9162907318741552	prűrlök	prűrlöm	1	NA	1	12	TRUE	FALSE	high	reversed	TRUE	TRUE	NA	NA
hungarian-esp_esp_participant_SESSION_2022-11-19_21h58.28.923.csv	2022-11-19T21:58:00Z	EIDCA8	férfi	1998	17	7	esp trial	41	Te bizony sokat klaráglasz. Én is sokat...	klaráglom	klaráglok	1	klaráglok	klaráglok	TRUE	11023	280422	lakok_2_low_typical	lakok/lakom	32	klaráglik	0.965080896043587	klaráglok	klaráglom	2	NA	2	10	TRUE	FALSE	low	typical	FALSE	TRUE	TRUE	FALSE
hungarian-esp_esp_participant_SESSION_2022-11-19_21h58.28.923.csv	2022-11-19T21:58:00Z	EIDCA8	férfi	1998	17	7	esp trial	49	Te bizony sokat bihánylasz. Én is sokat...	bihánylok	bihánylom	0	bihánylok	bihánylok	TRUE	10518	327412	lakok_2_low_typical	lakok/lakom	32	bihánylik	1.2992829841302609	bihánylok	bihánylom	2	NA	2	6	TRUE	FALSE	low	typical	TRUE	TRUE	TRUE	FALSE
hungarian-esp_esp_participant_SESSION_2022-11-19_21h58.28.923.csv	2022-11-19T21:58:00Z	EIDCA8	férfi	1998	17	7	esp trial	85	Te bizony sokat hurjorzol. Én is sokat...	hurjorzom	hurjorzok	1	hurjorzok	hurjorzom	FALSE	10869	524987	lakok_2_low_typical	lakok/lakom	32	hurjorzik	0.06899287148695142	hurjorzok	hurjorzom	2	NA	2	30	FALSE	FALSE	low	typical	FALSE	TRUE	FALSE	FALSE
hungarian-esp_esp_participant_SESSION_2022-11-19_21h58.28.923.csv	2022-11-19T21:58:00Z	EIDCA8	férfi	1998	17	7	esp trial	99	Te bizony sokat klivaslasz. Én is sokat...	klivaslom	klivaslok	0	klivaslom	klivaslok	FALSE	20343	614701	lakok_2_low_typical	lakok/lakom	32	klivaslik	0.9162907318741552	klivaslok	klivaslom	2	NA	2	11	TRUE	FALSE	low	typical	TRUE	FALSE	TRUE	TRUE
hungarian-esp_esp_participant_SESSION_2022-11-19_21h58.28.923.csv	2022-11-19T21:58:00Z	EIDCA8	férfi	1998	17	7	esp trial	101	Te bizony sokat brobódzol. Én is sokat...	brobódzom	brobódzok	1	brobódzok	brobódzom	FALSE	11021	629759	lakok_2_low_typical	lakok/lakom	32	brobódzik	-0.6418538861723948	brobódzok	brobódzom	2	NA	2	49	FALSE	TRUE	low	typical	FALSE	TRUE	FALSE	FALSE
hungarian-esp_esp_participant_SESSION_2022-11-19_21h58.28.923.csv	2022-11-19T21:58:00Z	EIDCA8	férfi	1998	17	7	esp trial	103	Te bizony sokat pítszol. Én is sokat...	pítszok	pítszom	1	pítszom	pítszom	TRUE	17610	651390	lakok_2_low_typical	lakok/lakom	32	pítszik	-0.49247648509779407	pítszok	pítszom	1	NA	2	46	FALSE	TRUE	low	typical	FALSE	FALSE	FALSE	TRUE
hungarian-esp_esp_participant_SESSION_2022-11-19_21h58.28.923.csv	2022-11-19T21:58:00Z	EIDCA8	férfi	1998	17	8	posttest trial	126	Te bizony sokat sprálszol. Én is sokat...	sprálszok	sprálszom	0	sprálszok	NA	NA	8272	771822	lakok_3_high_reversed	lakok/lakom	33	sprálszik	-0.2876820724517809	sprálszok	sprálszom	1	NA	3	40	FALSE	TRUE	low	typical	TRUE	TRUE	NA	NA
hungarian-esp_esp_participant_SESSION_2022-11-19_21h58.28.923.csv	2022-11-19T21:58:00Z	EIDCA8	férfi	1998	17	8	posttest trial	134	Te bizony sokat spülőrzöl. Én is sokat...	spülőrzöm	spülőrzök	1	spülőrzök	NA	NA	18206	824189	lakok_3_high_reversed	lakok/lakom	33	spülőrzik	0.5877866649021191	spülőrzök	spülőrzöm	2	NA	3	20	FALSE	FALSE	low	typical	FALSE	TRUE	NA	NA
hungarian-esp_esp_participant_SESSION_2022-11-19_21h58.28.923.csv	2022-11-19T21:58:00Z	EIDCA8	férfi	1998	17	8	posttest trial	144	Te bizony sokat zödlesz. Én is sokat...	zödlöm	zödlök	0	zödlöm	NA	NA	8323	871773	lakok_3_high_reversed	lakok/lakom	33	zödlik	0.7472144018302211	zödlök	zödlöm	1	NA	3	15	TRUE	FALSE	low	typical	TRUE	FALSE	NA	NA
hungarian-esp_esp_participant_SESSION_2022-11-19_21h58.28.923.csv	2022-11-19T21:58:00Z	EIDCA8	férfi	1998	17	8	posttest trial	146	Te bizony sokat gyibakszol. Én is sokat...	gyibakszok	gyibakszom	1	gyibakszom	NA	NA	8561	885135	lakok_3_high_reversed	lakok/lakom	33	gyibakszik	-0.587786664902119	gyibakszok	gyibakszom	2	NA	3	46	FALSE	TRUE	low	typical	FALSE	FALSE	NA	NA
hungarian-esp_esp_participant_SESSION_2022-11-19_21h58.28.923.csv	2022-11-19T21:58:00Z	EIDCA8	férfi	1998	17	8	posttest trial	159	Te bizony sokat gilárzol. Én is sokat...	gilárzok	gilárzom	0	gilárzok	NA	NA	11635	957086	lakok_3_high_reversed	lakok/lakom	33	gilárzik	-0.8938178760220964	gilárzok	gilárzom	2	NA	3	52	FALSE	TRUE	low	typical	TRUE	TRUE	NA	NA
hungarian-esp_esp_participant_SESSION_2022-11-19_21h58.28.923.csv	2022-11-19T21:58:00Z	EIDCA8	férfi	1998	17	8	posttest trial	162	Te bizony sokat tuboklasz. Én is sokat...	tuboklok	tuboklom	0	tuboklok	NA	NA	11835	978249	lakok_3_high_reversed	lakok/lakom	33	tuboklik	0.4353180712578455	tuboklok	tuboklom	2	NA	3	24	FALSE	FALSE	low	typical	TRUE	TRUE	NA	NA
hungarian-esp_esp_participant_SESSION_2022-11-19_21h58.28.923.csv	2022-11-19T21:58:00Z	EIDCA8	férfi	1998	17	8	posttest trial	163	Te bizony sokat frágapszol. Én is sokat...	frágapszom	frágapszok	0	frágapszom	NA	NA	12399	991160	lakok_3_high_reversed	lakok/lakom	33	frágapszik	-0.3483066942682157	frágapszok	frágapszom	2	NA	3	42	FALSE	TRUE	low	typical	TRUE	FALSE	NA	NA
hungarian-esp_esp_participant_SESSION_2022-11-19_21h58.28.923.csv	2022-11-19T21:58:00Z	EIDCA8	férfi	1998	17	8	posttest trial	164	Te bizony sokat huklasz. Én is sokat...	huklok	huklom	0	huklok	NA	NA	8592	1000267	lakok_3_high_reversed	lakok/lakom	33	huklik	-0.06899287148695143	huklok	huklom	1	NA	3	35	FALSE	FALSE	low	typical	TRUE	TRUE	NA	NA
hungarian-esp_esp_participant_SESSION_2022-11-19_21h58.28.923.csv	2022-11-19T21:58:00Z	EIDCA8	férfi	1998	17	8	posttest trial	172	Te bizony sokat féjzel. Én is sokat...	féjzem	féjzek	1	féjzek	NA	NA	16638	1048438	lakok_3_high_reversed	lakok/lakom	33	féjzik	0.4353180712578455	féjzek	féjzem	1	NA	3	22	FALSE	FALSE	low	typical	FALSE	TRUE	NA	NA
hungarian-esp_esp_participant_SESSION_2022-11-20_11h52.59.501.csv	2022-11-20T11:52:00Z	GR3TXD	nő	2001	14	0	esp trial	15	Te bizony sokat jüslesz. Én is sokat...	jüslöm	jüslök	1	jüslök	jüslöm	FALSE	10870	252850	lakok_1_high_reversed	lakok/lakom	25	jüslik	0.965080896043587	jüslök	jüslöm	1	NA	1	10	TRUE	FALSE	high	reversed	FALSE	TRUE	FALSE	TRUE
hungarian-esp_esp_participant_SESSION_2022-11-20_11h52.59.501.csv	2022-11-20T11:52:00Z	GR3TXD	nő	2001	14	4	posttest trial	133	Te bizony sokat gyibeslesz. Én is sokat...	gyibeslem	gyibeslek	0	gyibeslem	NA	NA	8704	843505	lakok_2_high_reversed	lakok/lakom	29	gyibeslik	0.6418538861723947	gyibeslek	gyibeslem	2	NA	2	18	FALSE	FALSE	high	reversed	TRUE	FALSE	NA	NA
hungarian-esp_esp_participant_SESSION_2022-11-20_12h28.55.95.csv	2022-11-20T12:28:00Z	AR6Y3F	nő	1998	17	6	esp trial	17	Te bizony sokat spubonylasz. Én is sokat...	spubonylom	spubonylok	1	spubonylok	spubonylom	FALSE	15554	263568	lakok_2_low_reversed	lakok/lakom	31	spubonylik	1.2321436812926323	spubonylok	spubonylom	2	NA	2	7	TRUE	FALSE	low	reversed	FALSE	TRUE	FALSE	FALSE
hungarian-esp_esp_participant_SESSION_2022-11-20_12h28.55.95.csv	2022-11-20T12:28:00Z	AR6Y3F	nő	1998	17	6	esp trial	65	Te bizony sokat pribagszol. Én is sokat...	pribagszom	pribagszok	1	pribagszok	pribagszok	TRUE	11375	553680	lakok_2_low_reversed	lakok/lakom	31	pribagszik	-0.587786664902119	pribagszok	pribagszom	2	NA	2	47	FALSE	TRUE	low	reversed	FALSE	TRUE	TRUE	FALSE
hungarian-esp_esp_participant_SESSION_2022-11-20_12h28.55.95.csv	2022-11-20T12:28:00Z	AR6Y3F	nő	1998	17	6	esp trial	71	Te bizony sokat flehékszel. Én is sokat...	flehékszek	flehékszem	1	flehékszem	flehékszek	FALSE	10355	592883	lakok_2_low_reversed	lakok/lakom	31	flehékszik	-0.5978370007556204	flehékszek	flehékszem	2	NA	2	48	FALSE	TRUE	low	reversed	FALSE	FALSE	TRUE	TRUE
hungarian-esp_esp_participant_SESSION_2022-11-20_12h28.55.95.csv	2022-11-20T12:28:00Z	AR6Y3F	nő	1998	17	6	esp trial	83	Te bizony sokat prínylasz. Én is sokat...	prínylok	prínylom	1	prínylom	prínylom	TRUE	11457	668871	lakok_2_low_reversed	lakok/lakom	31	prínylik	0.5877866649021191	prínylok	prínylom	1	NA	2	20	FALSE	FALSE	low	reversed	FALSE	FALSE	FALSE	TRUE
hungarian-esp_esp_participant_SESSION_2022-11-20_12h28.55.95.csv	2022-11-20T12:28:00Z	AR6Y3F	nő	1998	17	6	esp trial	93	Te bizony sokat spülűdzöl. Én is sokat...	spülűdzöm	spülűdzök	0	spülűdzöm	spülűdzöm	TRUE	10254	732583	lakok_2_low_reversed	lakok/lakom	31	spülűdzik	-0.1941560144409575	spülűdzök	spülűdzöm	2	NA	2	38	FALSE	FALSE	low	reversed	TRUE	FALSE	FALSE	TRUE
hungarian-esp_esp_participant_SESSION_2022-11-20_12h28.55.95.csv	2022-11-20T12:28:00Z	AR6Y3F	nő	1998	17	6	esp trial	113	Te bizony sokat sztrozlasz. Én is sokat...	sztrozlom	sztrozlok	1	sztrozlok	sztrozlom	FALSE	13178	858369	lakok_2_low_reversed	lakok/lakom	31	sztrozlik	0.4353180712578455	sztrozlok	sztrozlom	1	NA	2	23	FALSE	FALSE	low	reversed	FALSE	TRUE	FALSE	FALSE
hungarian-esp_esp_participant_SESSION_2022-11-20_12h28.55.95.csv	2022-11-20T12:28:00Z	AR6Y3F	nő	1998	17	8	posttest trial	126	Te bizony sokat prihekszel. Én is sokat...	prihekszem	prihekszek	0	prihekszem	NA	NA	11889	940896	lakok_3_high_reversed	lakok/lakom	33	prihekszik	-0.1941560144409575	prihekszek	prihekszem	2	NA	3	37	FALSE	FALSE	low	reversed	TRUE	FALSE	NA	NA
hungarian-esp_esp_participant_SESSION_2022-11-20_12h28.55.95.csv	2022-11-20T12:28:00Z	AR6Y3F	nő	1998	17	8	posttest trial	127	Te bizony sokat frágapszol. Én is sokat...	frágapszok	frágapszom	1	frágapszom	NA	NA	18663	960063	lakok_3_high_reversed	lakok/lakom	33	frágapszik	-0.3483066942682157	frágapszok	frágapszom	2	NA	3	42	FALSE	TRUE	low	reversed	FALSE	FALSE	NA	NA
hungarian-esp_esp_participant_SESSION_2022-11-20_12h28.55.95.csv	2022-11-20T12:28:00Z	AR6Y3F	nő	1998	17	8	posttest trial	134	Te bizony sokat flözlesz. Én is sokat...	flözlöm	flözlök	1	flözlök	NA	NA	9080	999364	lakok_3_high_reversed	lakok/lakom	33	flözlik	0.965080896043587	flözlök	flözlöm	1	NA	3	9	TRUE	FALSE	low	reversed	FALSE	TRUE	NA	NA
hungarian-esp_esp_participant_SESSION_2022-11-20_12h28.55.95.csv	2022-11-20T12:28:00Z	AR6Y3F	nő	1998	17	8	posttest trial	158	Te bizony sokat huklasz. Én is sokat...	huklok	huklom	0	huklok	NA	NA	12074	1118124	lakok_3_high_reversed	lakok/lakom	33	huklik	-0.06899287148695143	huklok	huklom	1	NA	3	35	FALSE	FALSE	low	reversed	TRUE	TRUE	NA	NA
hungarian-esp_esp_participant_SESSION_2022-11-20_13h04.55.681.csv	2022-11-20T13:04:00Z	LWVUH9	nő	2003	12	6	esp trial	11	Te bizony sokat brubzol. Én is sokat...	brubzok	brubzom	1	brubzom	brubzom	TRUE	10609	170655	lakok_2_low_reversed	lakok/lakom	31	brubzik	0.3483066942682158	brubzok	brubzom	1	NA	2	25	FALSE	FALSE	low	reversed	FALSE	FALSE	FALSE	TRUE
hungarian-esp_esp_participant_SESSION_2022-11-20_13h04.55.681.csv	2022-11-20T13:04:00Z	LWVUH9	nő	2003	12	6	esp trial	19	Te bizony sokat spülűdzöl. Én is sokat...	spülűdzöm	spülűdzök	1	spülűdzök	spülűdzöm	FALSE	10384	220953	lakok_2_low_reversed	lakok/lakom	31	spülűdzik	-0.1941560144409575	spülűdzök	spülűdzöm	2	NA	2	38	FALSE	FALSE	low	reversed	FALSE	TRUE	FALSE	FALSE
hungarian-esp_esp_participant_SESSION_2022-11-20_13h04.55.681.csv	2022-11-20T13:04:00Z	LWVUH9	nő	2003	12	6	esp trial	27	Te bizony sokat nűröklesz. Én is sokat...	nűröklöm	nűröklök	0	nűröklöm	nűröklöm	TRUE	10700	270214	lakok_2_low_reversed	lakok/lakom	31	nűröklik	-0.1941560144409575	nűröklök	nűröklöm	2	NA	2	37	FALSE	FALSE	low	reversed	TRUE	FALSE	FALSE	TRUE
hungarian-esp_esp_participant_SESSION_2022-11-20_13h04.55.681.csv	2022-11-20T13:04:00Z	LWVUH9	nő	2003	12	8	posttest trial	121	Te bizony sokat plágadzol. Én is sokat...	plágadzok	plágadzom	1	plágadzom	NA	NA	8322	770501	lakok_3_high_reversed	lakok/lakom	33	plágadzik	-0.4353180712578455	plágadzok	plágadzom	2	NA	3	44	FALSE	TRUE	low	reversed	FALSE	FALSE	NA	NA
hungarian-esp_esp_participant_SESSION_2022-11-20_13h04.55.681.csv	2022-11-20T13:04:00Z	LWVUH9	nő	2003	12	8	posttest trial	124	Te bizony sokat trihagzol. Én is sokat...	trihagzok	trihagzom	1	trihagzom	NA	NA	10499	790488	lakok_3_high_reversed	lakok/lakom	33	trihagzik	-0.6418538861723948	trihagzok	trihagzom	2	NA	3	50	FALSE	TRUE	low	reversed	FALSE	FALSE	NA	NA
hungarian-esp_esp_participant_SESSION_2022-11-20_13h42.56.491.csv	2022-11-20T13:42:00Z	ATGROI	férfi	2000	12	5	esp trial	19	Te bizony sokat spröbzöl. Én is sokat...	spröbzöm	spröbzök	1	spröbzök	spröbzök	TRUE	11439	128483	lakok_2_high_typical	lakok/lakom	30	spröbzik	0.28768207245178085	spröbzök	spröbzöm	1	NA	2	26	FALSE	FALSE	high	typical	FALSE	TRUE	TRUE	TRUE
hungarian-esp_esp_participant_SESSION_2022-11-20_13h42.56.491.csv	2022-11-20T13:42:00Z	ATGROI	férfi	2000	12	8	posttest trial	125	Te bizony sokat spülőrzöl. Én is sokat...	spülőrzök	spülőrzöm	0	spülőrzök	NA	NA	16199	767173	lakok_3_high_reversed	lakok/lakom	33	spülőrzik	0.5877866649021191	spülőrzök	spülőrzöm	2	NA	3	20	FALSE	FALSE	high	typical	TRUE	TRUE	NA	NA
hungarian-esp_esp_participant_SESSION_2022-11-20_13h42.56.491.csv	2022-11-20T13:42:00Z	ATGROI	férfi	2000	12	8	posttest trial	134	Te bizony sokat prezlesz. Én is sokat...	prezlek	prezlem	0	prezlek	NA	NA	16932	812940	lakok_3_high_reversed	lakok/lakom	33	prezlik	0.9162907318741552	prezlek	prezlem	1	NA	3	11	TRUE	FALSE	high	typical	TRUE	TRUE	NA	NA
hungarian-esp_esp_participant_SESSION_2022-11-20_13h42.56.491.csv	2022-11-20T13:42:00Z	ATGROI	férfi	2000	12	8	posttest trial	142	Te bizony sokat féjzel. Én is sokat...	féjzem	féjzek	0	féjzem	NA	NA	8550	849092	lakok_3_high_reversed	lakok/lakom	33	féjzik	0.4353180712578455	féjzek	féjzem	1	NA	3	22	FALSE	FALSE	high	typical	TRUE	FALSE	NA	NA
hungarian-esp_esp_participant_SESSION_2022-11-20_15h25.29.296.csv	2022-11-20T15:25:00Z	nxbunm	férfi	1996	18	3	esp trial	37	Te bizony sokat flagárzol. Én is sokat...	flagárzok	flagárzom	1	flagárzom	flagárzom	TRUE	13687	836969	lakok_1_low_typical	lakok/lakom	28	flagárzik	-0.2076393647782445	flagárzok	flagárzom	2	NA	1	39	FALSE	FALSE	low	typical	FALSE	FALSE	FALSE	TRUE
hungarian-esp_esp_participant_SESSION_2022-11-20_15h25.29.296.csv	2022-11-20T15:25:00Z	nxbunm	férfi	1996	18	3	esp trial	45	Te bizony sokat frilegszel. Én is sokat...	frilegszem	frilegszek	0	frilegszem	frilegszem	TRUE	11137	880737	lakok_1_low_typical	lakok/lakom	28	frilegszik	-0.2876820724517809	frilegszek	frilegszem	2	NA	1	40	FALSE	TRUE	low	typical	TRUE	FALSE	FALSE	TRUE
hungarian-esp_esp_participant_SESSION_2022-11-20_15h25.29.296.csv	2022-11-20T15:25:00Z	nxbunm	férfi	1996	18	3	esp trial	109	Te bizony sokat spűmlesz. Én is sokat...	spűmlök	spűmlöm	1	spűmlöm	spűmlök	FALSE	10071	1206960	lakok_1_low_typical	lakok/lakom	28	spűmlik	1.5686159179138452	spűmlök	spűmlöm	1	NA	1	5	TRUE	FALSE	low	typical	FALSE	FALSE	TRUE	TRUE
hungarian-esp_esp_participant_SESSION_2022-11-20_15h25.29.296.csv	2022-11-20T15:25:00Z	nxbunm	férfi	1996	18	4	posttest trial	156	Te bizony sokat bivégszel. Én is sokat...	bivégszem	bivégszek	0	bivégszem	NA	NA	9855	1460792	lakok_2_high_reversed	lakok/lakom	29	bivégszik	-1.0560526742493137	bivégszek	bivégszem	2	NA	2	54	FALSE	TRUE	low	typical	TRUE	FALSE	NA	NA
hungarian-esp_esp_participant_SESSION_2022-11-20_15h25.29.296.csv	2022-11-20T15:25:00Z	nxbunm	férfi	1996	18	4	posttest trial	160	Te bizony sokat flehékszel. Én is sokat...	flehékszem	flehékszek	1	flehékszek	NA	NA	10216	1487097	lakok_2_high_reversed	lakok/lakom	29	flehékszik	-0.5978370007556204	flehékszek	flehékszem	2	NA	2	48	FALSE	TRUE	low	typical	FALSE	TRUE	NA	NA
hungarian-esp_esp_participant_SESSION_2022-11-20_15h25.29.296.csv	2022-11-20T15:25:00Z	nxbunm	férfi	1996	18	4	posttest trial	168	Te bizony sokat figlasz. Én is sokat...	figlok	figlom	1	figlom	NA	NA	13399	1537544	lakok_2_high_reversed	lakok/lakom	29	figlik	0.7419373447293773	figlok	figlom	1	NA	2	16	FALSE	FALSE	low	typical	FALSE	FALSE	NA	NA
hungarian-esp_esp_participant_SESSION_2022-11-20_15h25.29.296.csv	2022-11-20T15:25:00Z	nxbunm	férfi	1996	18	4	posttest trial	173	Te bizony sokat trehégszel. Én is sokat...	trehégszem	trehégszek	1	trehégszek	NA	NA	10594	1571801	lakok_2_high_reversed	lakok/lakom	29	trehégszik	-0.7472144018302211	trehégszek	trehégszem	2	NA	2	51	FALSE	TRUE	low	typical	FALSE	TRUE	NA	NA
hungarian-esp_esp_participant_SESSION_2022-11-20_16h08.23.626.csv	2022-11-20T16:08:00Z	IGI6FL	nő	2000	15	3	esp trial	39	Te bizony sokat tínylasz. Én is sokat...	tínylok	tínylom	0	tínylok	tínylom	FALSE	10077	367706	lakok_1_low_typical	lakok/lakom	28	tínylik	0.4353180712578455	tínylok	tínylom	1	NA	1	24	FALSE	FALSE	low	typical	TRUE	TRUE	FALSE	FALSE
hungarian-esp_esp_participant_SESSION_2022-11-20_16h09.01.999.csv	2022-11-20T16:09:00Z	X21QLK	nő	1999	16	7	esp trial	11	Te bizony sokat píjlasz. Én is sokat...	píjlom	píjlok	0	píjlom	píjlom	TRUE	13408	2502445	lakok_2_low_typical	lakok/lakom	32	píjlik	0.6418538861723947	píjlok	píjlom	1	NA	2	19	FALSE	FALSE	low	typical	TRUE	FALSE	FALSE	TRUE
hungarian-esp_esp_participant_SESSION_2022-11-20_16h09.01.999.csv	2022-11-20T16:09:00Z	X21QLK	nő	1999	16	7	esp trial	41	Te bizony sokat pribemlesz. Én is sokat...	pribemlek	pribemlem	1	pribemlem	pribemlek	FALSE	10780	2659375	lakok_2_low_typical	lakok/lakom	32	pribemlik	1.9095425048844383	pribemlek	pribemlem	2	NA	2	2	TRUE	FALSE	low	typical	FALSE	FALSE	TRUE	TRUE
hungarian-esp_esp_participant_SESSION_2022-11-20_16h09.01.999.csv	2022-11-20T16:09:00Z	X21QLK	nő	1999	16	7	esp trial	73	Te bizony sokat filágzol. Én is sokat...	filágzok	filágzom	0	filágzok	filágzom	FALSE	13554	2829957	lakok_2_low_typical	lakok/lakom	32	filágzik	-0.9650808960435872	filágzok	filágzom	2	NA	2	53	FALSE	TRUE	low	typical	TRUE	TRUE	FALSE	FALSE
hungarian-esp_esp_participant_SESSION_2022-11-20_16h09.01.999.csv	2022-11-20T16:09:00Z	X21QLK	nő	1999	16	7	esp trial	77	Te bizony sokat pribagszol. Én is sokat...	pribagszok	pribagszom	0	pribagszok	pribagszom	FALSE	10190	2853945	lakok_2_low_typical	lakok/lakom	32	pribagszik	-0.587786664902119	pribagszok	pribagszom	2	NA	2	47	FALSE	TRUE	low	typical	TRUE	TRUE	FALSE	FALSE
hungarian-esp_esp_participant_SESSION_2022-11-20_16h09.01.999.csv	2022-11-20T16:09:00Z	X21QLK	nő	1999	16	7	esp trial	79	Te bizony sokat narádzol. Én is sokat...	narádzok	narádzom	1	narádzom	narádzom	TRUE	10375	2868348	lakok_2_low_typical	lakok/lakom	32	narádzik	-0.6418538861723948	narádzok	narádzom	2	NA	2	50	FALSE	TRUE	low	typical	FALSE	FALSE	FALSE	TRUE
hungarian-esp_esp_participant_SESSION_2022-11-20_16h21.33.188.csv	2022-11-20T16:21:00Z	N549X4	férfi	1998	12	9	esp trial	101	Te bizony sokat vihepszel. Én is sokat...	vihepszem	vihepszek	1	vihepszek	vihepszem	FALSE	16983	749700	lakok_3_high_typical	lakok/lakom	34	vihepszik	-0.7472144018302211	vihepszek	vihepszem	2	NA	3	51	FALSE	TRUE	high	typical	FALSE	TRUE	FALSE	TRUE
hungarian-esp_esp_participant_SESSION_2022-11-20_16h49.31.168.csv	2022-11-20T16:49:00Z	XBQDWS	nő	1980	22	8	posttest trial	155	Te bizony sokat lihadzol. Én is sokat...	lihadzom	lihadzok	1	lihadzok	NA	NA	10182	1192988	lakok_3_high_reversed	lakok/lakom	33	lihadzik	0.1941560144409574	lihadzok	lihadzom	2	NA	3	27	FALSE	FALSE	high	typical	FALSE	TRUE	NA	NA
hungarian-esp_esp_participant_SESSION_2022-11-20_17h01.10.960.csv	2022-11-20T17:01:00Z	EZ3SDP	nő	1999	12	10	esp trial	11	Te bizony sokat flibekszel. Én is sokat...	flibekszem	flibekszek	0	flibekszem	flibekszek	FALSE	13132	220648	lakok_3_low_reversed	lakok/lakom	35	flibekszik	-0.4595323293784402	flibekszek	flibekszem	2	NA	3	45	FALSE	TRUE	low	reversed	TRUE	FALSE	TRUE	TRUE
hungarian-esp_esp_participant_SESSION_2022-11-20_17h01.10.960.csv	2022-11-20T17:01:00Z	EZ3SDP	nő	1999	12	10	esp trial	61	Te bizony sokat brarlasz. Én is sokat...	brarlok	brarlom	0	brarlok	brarlom	FALSE	10302	467457	lakok_3_low_reversed	lakok/lakom	35	brarlik	1.1451323043030026	brarlok	brarlom	1	NA	3	7	TRUE	FALSE	low	reversed	TRUE	TRUE	FALSE	FALSE
hungarian-esp_esp_participant_SESSION_2022-11-20_17h07.22.966.csv	2022-11-20T17:07:00Z	FWNG3T	nő	1994	22	0	esp trial	43	Te bizony sokat spilágzol. Én is sokat...	spilágzok	spilágzom	0	spilágzok	spilágzok	TRUE	11723	519057	lakok_1_high_reversed	lakok/lakom	25	spilágzik	-0.9650808960435872	spilágzok	spilágzom	2	NA	1	54	FALSE	TRUE	high	reversed	TRUE	TRUE	TRUE	TRUE
hungarian-esp_esp_participant_SESSION_2022-11-20_17h07.22.966.csv	2022-11-20T17:07:00Z	FWNG3T	nő	1994	22	0	esp trial	45	Te bizony sokat trilszol. Én is sokat...	trilszom	trilszok	1	trilszok	trilszok	TRUE	11922	535015	lakok_1_high_reversed	lakok/lakom	25	trilszik	0.28768207245178085	trilszok	trilszom	1	NA	1	27	FALSE	FALSE	high	reversed	FALSE	TRUE	TRUE	TRUE
hungarian-esp_esp_participant_SESSION_2022-11-20_17h07.22.966.csv	2022-11-20T17:07:00Z	FWNG3T	nő	1994	22	4	posttest trial	120	Te bizony sokat píjlasz. Én is sokat...	píjlom	píjlok	1	píjlok	NA	NA	8342	994313	lakok_2_high_reversed	lakok/lakom	29	píjlik	0.6418538861723947	píjlok	píjlom	1	NA	2	19	FALSE	FALSE	high	reversed	FALSE	TRUE	NA	NA
hungarian-esp_esp_participant_SESSION_2022-11-20_17h07.22.966.csv	2022-11-20T17:07:00Z	FWNG3T	nő	1994	22	4	posttest trial	123	Te bizony sokat klivaslasz. Én is sokat...	klivaslok	klivaslom	0	klivaslok	NA	NA	8961	1012974	lakok_2_high_reversed	lakok/lakom	29	klivaslik	0.9162907318741552	klivaslok	klivaslom	2	NA	2	11	TRUE	FALSE	high	reversed	TRUE	TRUE	NA	NA
hungarian-esp_esp_participant_SESSION_2022-11-20_17h07.22.966.csv	2022-11-20T17:07:00Z	FWNG3T	nő	1994	22	4	posttest trial	139	Te bizony sokat brubzol. Én is sokat...	brubzom	brubzok	0	brubzom	NA	NA	8692	1085176	lakok_2_high_reversed	lakok/lakom	29	brubzik	0.3483066942682158	brubzok	brubzom	1	NA	2	25	FALSE	FALSE	high	reversed	TRUE	FALSE	NA	NA
hungarian-esp_esp_participant_SESSION_2022-11-20_17h07.22.966.csv	2022-11-20T17:07:00Z	FWNG3T	nő	1994	22	4	posttest trial	158	Te bizony sokat düjzöl. Én is sokat...	düjzöm	düjzök	1	düjzök	NA	NA	9710	1160506	lakok_2_high_reversed	lakok/lakom	29	düjzik	0	düjzök	düjzöm	1	NA	2	32	FALSE	FALSE	high	reversed	FALSE	TRUE	NA	NA
hungarian-esp_esp_participant_SESSION_2022-11-20_17h14.20.635.csv	2022-11-20T17:14:00Z	JK0MDQ	nő	1999	16	11	esp trial	31	Te bizony sokat spülőrzöl. Én is sokat...	spülőrzök	spülőrzöm	1	spülőrzöm	spülőrzöm	TRUE	10213	342508	lakok_3_low_typical	lakok/lakom	36	spülőrzik	0.5877866649021191	spülőrzök	spülőrzöm	2	NA	3	20	FALSE	FALSE	low	typical	FALSE	FALSE	FALSE	TRUE
hungarian-esp_esp_participant_SESSION_2022-11-20_17h14.20.635.csv	2022-11-20T17:14:00Z	JK0MDQ	nő	1999	16	11	esp trial	91	Te bizony sokat mékszel. Én is sokat...	mékszek	mékszem	1	mékszem	mékszem	TRUE	11002	604589	lakok_3_low_typical	lakok/lakom	36	mékszik	-0.1431008436406733	mékszek	mékszem	1	NA	3	36	FALSE	FALSE	low	typical	FALSE	FALSE	FALSE	TRUE
hungarian-esp_esp_participant_SESSION_2022-11-20_17h14.20.635.csv	2022-11-20T17:14:00Z	JK0MDQ	nő	1999	16	1	posttest trial	124	Te bizony sokat büglesz. Én is sokat...	büglök	büglöm	0	büglök	NA	NA	44164	795681	lakok_1_high_typical	lakok/lakom	26	büglik	0.9162907318741552	büglök	büglöm	1	NA	1	11	TRUE	FALSE	low	typical	TRUE	TRUE	NA	NA
hungarian-esp_esp_participant_SESSION_2022-11-20_17h14.20.635.csv	2022-11-20T17:14:00Z	JK0MDQ	nő	1999	16	1	posttest trial	134	Te bizony sokat sűzlesz. Én is sokat...	sűzlöm	sűzlök	0	sűzlöm	NA	NA	15868	854095	lakok_1_high_typical	lakok/lakom	26	sűzlik	0.14310084364067324	sűzlök	sűzlöm	1	NA	1	29	FALSE	FALSE	low	typical	TRUE	FALSE	NA	NA
hungarian-esp_esp_participant_SESSION_2022-11-20_17h14.20.635.csv	2022-11-20T17:14:00Z	JK0MDQ	nő	1999	16	1	posttest trial	135	Te bizony sokat prilegzel. Én is sokat...	prilegzek	prilegzem	1	prilegzem	NA	NA	53871	908479	lakok_1_high_typical	lakok/lakom	26	prilegzik	-0.3483066942682157	prilegzek	prilegzem	2	NA	1	43	FALSE	TRUE	low	typical	FALSE	FALSE	NA	NA
hungarian-esp_esp_participant_SESSION_2022-11-20_17h14.20.635.csv	2022-11-20T17:14:00Z	JK0MDQ	nő	1999	16	1	posttest trial	136	Te bizony sokat brágaklasz. Én is sokat...	brágaklok	brágaklom	1	brágaklom	NA	NA	71931	980927	lakok_1_high_typical	lakok/lakom	26	brágaklik	-0.325422400434628	brágaklok	brágaklom	2	NA	1	42	FALSE	TRUE	low	typical	FALSE	FALSE	NA	NA
hungarian-esp_esp_participant_SESSION_2022-11-20_17h14.20.635.csv	2022-11-20T17:14:00Z	JK0MDQ	nő	1999	16	1	posttest trial	152	Te bizony sokat drubódzol. Én is sokat...	drubódzom	drubódzok	0	drubódzom	NA	NA	9664	1045606	lakok_1_high_typical	lakok/lakom	26	drubódzik	-0.4353180712578455	drubódzok	drubódzom	2	NA	1	44	FALSE	TRUE	low	typical	TRUE	FALSE	NA	NA
hungarian-esp_esp_participant_SESSION_2022-11-20_17h14.20.635.csv	2022-11-20T17:14:00Z	JK0MDQ	nő	1999	16	1	posttest trial	165	Te bizony sokat tiregzel. Én is sokat...	tiregzek	tiregzem	1	tiregzem	NA	NA	9284	1106411	lakok_1_high_typical	lakok/lakom	26	tiregzik	0.06453852113757116	tiregzek	tiregzem	2	NA	1	32	FALSE	FALSE	low	typical	FALSE	FALSE	NA	NA
hungarian-esp_esp_participant_SESSION_2022-11-20_17h14.20.635.csv	2022-11-20T17:14:00Z	JK0MDQ	nő	1999	16	1	posttest trial	173	Te bizony sokat csíszlasz. Én is sokat...	csíszlom	csíszlok	0	csíszlom	NA	NA	10698	1152442	lakok_1_high_typical	lakok/lakom	26	csíszlik	0.7419373447293773	csíszlok	csíszlom	1	NA	1	16	FALSE	FALSE	low	typical	TRUE	FALSE	NA	NA
hungarian-esp_esp_participant_SESSION_2022-11-20_20h10.49.991.csv	2022-11-20T20:10:00Z	S0D913	férfi	2000	15	11	esp trial	11	Te bizony sokat bivejlesz. Én is sokat...	bivejlem	bivejlek	1	bivejlek	bivejlek	TRUE	13676	2635002	lakok_3_low_typical	lakok/lakom	36	bivejlik	0.7472144018302211	bivejlek	bivejlem	2	NA	3	14	TRUE	FALSE	low	typical	FALSE	TRUE	TRUE	FALSE
hungarian-esp_esp_participant_SESSION_2022-11-20_20h10.49.991.csv	2022-11-20T20:10:00Z	S0D913	férfi	2000	15	11	esp trial	23	Te bizony sokat flérlesz. Én is sokat...	flérlem	flérlek	1	flérlek	flérlek	TRUE	16051	2707353	lakok_3_low_typical	lakok/lakom	36	flérlik	1.5686159179138452	flérlek	flérlem	1	NA	3	4	TRUE	FALSE	low	typical	FALSE	TRUE	TRUE	FALSE
hungarian-esp_esp_participant_SESSION_2022-11-20_20h10.49.991.csv	2022-11-20T20:10:00Z	S0D913	férfi	2000	15	11	esp trial	103	Te bizony sokat fligzol. Én is sokat...	fligzok	fligzom	1	fligzom	fligzom	TRUE	12101	3089381	lakok_3_low_typical	lakok/lakom	36	fligzik	-0.5978370007556204	fligzok	fligzom	1	NA	3	48	FALSE	TRUE	low	typical	FALSE	FALSE	FALSE	TRUE
hungarian-esp_esp_participant_SESSION_2022-11-20_20h10.49.991.csv	2022-11-20T20:10:00Z	S0D913	férfi	2000	15	1	posttest trial	120	Te bizony sokat piragszol. Én is sokat...	piragszok	piragszom	1	piragszom	NA	NA	8898	3191017	lakok_1_high_typical	lakok/lakom	26	piragszik	-0.587786664902119	piragszok	piragszom	2	NA	1	47	FALSE	TRUE	low	typical	FALSE	FALSE	NA	NA
hungarian-esp_esp_participant_SESSION_2022-11-20_20h10.49.991.csv	2022-11-20T20:10:00Z	S0D913	férfi	2000	15	1	posttest trial	121	Te bizony sokat ribzol. Én is sokat...	ribzok	ribzom	0	ribzok	NA	NA	19940	3211461	lakok_1_high_typical	lakok/lakom	26	ribzik	-0.5978370007556204	ribzok	ribzom	1	NA	1	49	FALSE	TRUE	low	typical	TRUE	TRUE	NA	NA
hungarian-esp_esp_participant_SESSION_2022-11-20_20h10.49.991.csv	2022-11-20T20:10:00Z	S0D913	férfi	2000	15	1	posttest trial	172	Te bizony sokat sprökszöl. Én is sokat...	sprökszöm	sprökszök	0	sprökszöm	NA	NA	13963	3424781	lakok_1_high_typical	lakok/lakom	26	sprökszik	-0.2876820724517809	sprökszök	sprökszöm	1	NA	1	41	FALSE	TRUE	low	typical	TRUE	FALSE	NA	NA
hungarian-esp_esp_participant_SESSION_2022-11-20_20h51.33.841.csv	2022-11-20T20:51:00Z	JE5SFU	férdi	2000	15	7	esp trial	115	Te bizony sokat tragzol. Én is sokat...	tragzok	tragzom	1	tragzom	tragzom	TRUE	10355	586338	lakok_2_low_typical	lakok/lakom	32	tragzik	-0.06899287148695143	tragzok	tragzom	1	NA	2	36	FALSE	FALSE	low	typical	FALSE	FALSE	FALSE	TRUE
hungarian-esp_esp_participant_SESSION_2022-11-20_20h51.33.841.csv	2022-11-20T20:51:00Z	JE5SFU	férdi	2000	15	8	posttest trial	139	Te bizony sokat gilárzol. Én is sokat...	gilárzom	gilárzok	1	gilárzok	NA	NA	11578	666299	lakok_3_high_reversed	lakok/lakom	33	gilárzik	-0.8938178760220964	gilárzok	gilárzom	2	NA	3	52	FALSE	TRUE	low	typical	FALSE	TRUE	NA	NA
hungarian-esp_esp_participant_SESSION_2022-11-20_20h51.33.841.csv	2022-11-20T20:51:00Z	JE5SFU	férdi	2000	15	8	posttest trial	144	Te bizony sokat zödlesz. Én is sokat...	zödlök	zödlöm	0	zödlök	NA	NA	18675	692370	lakok_3_high_reversed	lakok/lakom	33	zödlik	0.7472144018302211	zödlök	zödlöm	1	NA	3	15	TRUE	FALSE	low	typical	TRUE	TRUE	NA	NA
hungarian-esp_esp_participant_SESSION_2022-11-20_20h51.33.841.csv	2022-11-20T20:51:00Z	JE5SFU	férdi	2000	15	8	posttest trial	149	Te bizony sokat spélszel. Én is sokat...	spélszek	spélszem	0	spélszek	NA	NA	36922	741418	lakok_3_high_reversed	lakok/lakom	33	spélszik	0.3483066942682158	spélszek	spélszem	1	NA	3	25	FALSE	FALSE	low	typical	TRUE	TRUE	NA	NA
hungarian-esp_esp_participant_SESSION_2022-11-20_20h51.33.841.csv	2022-11-20T20:51:00Z	JE5SFU	férdi	2000	15	8	posttest trial	152	Te bizony sokat ibáglasz. Én is sokat...	ibáglok	ibáglom	0	ibáglok	NA	NA	9433	757265	lakok_3_high_reversed	lakok/lakom	33	ibáglik	0.6418538861723947	ibáglok	ibáglom	2	NA	3	18	FALSE	FALSE	low	typical	TRUE	TRUE	NA	NA
hungarian-esp_esp_participant_SESSION_2022-11-20_20h51.33.841.csv	2022-11-20T20:51:00Z	JE5SFU	férdi	2000	15	8	posttest trial	155	Te bizony sokat péleslesz. Én is sokat...	péleslem	péleslek	1	péleslek	NA	NA	11461	772818	lakok_3_high_reversed	lakok/lakom	33	péleslik	0.7419373447293773	péleslek	péleslem	2	NA	3	17	FALSE	FALSE	low	typical	FALSE	TRUE	NA	NA
hungarian-esp_esp_participant_SESSION_2022-11-20_20h51.33.841.csv	2022-11-20T20:51:00Z	JE5SFU	férdi	2000	15	8	posttest trial	172	Te bizony sokat fligzol. Én is sokat...	fligzok	fligzom	0	fligzok	NA	NA	34393	842843	lakok_3_high_reversed	lakok/lakom	33	fligzik	-0.5978370007556204	fligzok	fligzom	1	NA	3	48	FALSE	TRUE	low	typical	TRUE	TRUE	NA	NA
hungarian-esp_esp_participant_SESSION_2022-11-20_21h07.57.71.csv	2022-11-20T21:07:00Z	DEXM7Y	nő	1999	16	3	esp trial	11	Te bizony sokat spatárzol. Én is sokat...	spatárzok	spatárzom	0	spatárzok	spatárzom	FALSE	10889	507368	lakok_1_low_typical	lakok/lakom	28	spatárzik	-0.06453852113757118	spatárzok	spatárzom	2	NA	1	35	FALSE	FALSE	low	typical	TRUE	TRUE	FALSE	FALSE
hungarian-esp_esp_participant_SESSION_2022-11-20_21h07.57.71.csv	2022-11-20T21:07:00Z	DEXM7Y	nő	1999	16	3	esp trial	13	Te bizony sokat brágaklasz. Én is sokat...	brágaklom	brágaklok	1	brágaklok	brágaklom	FALSE	13055	524456	lakok_1_low_typical	lakok/lakom	28	brágaklik	-0.325422400434628	brágaklok	brágaklom	2	NA	1	42	FALSE	TRUE	low	typical	FALSE	TRUE	FALSE	FALSE
hungarian-esp_esp_participant_SESSION_2022-11-20_21h07.57.71.csv	2022-11-20T21:07:00Z	DEXM7Y	nő	1999	16	3	esp trial	15	Te bizony sokat hilarzol. Én is sokat...	hilarzok	hilarzom	0	hilarzok	hilarzom	FALSE	16993	545496	lakok_1_low_typical	lakok/lakom	28	hilarzik	0.06899287148695142	hilarzok	hilarzom	2	NA	1	30	FALSE	FALSE	low	typical	TRUE	TRUE	FALSE	FALSE
hungarian-esp_esp_participant_SESSION_2022-11-20_21h07.57.71.csv	2022-11-20T21:07:00Z	DEXM7Y	nő	1999	16	3	esp trial	17	Te bizony sokat csíszlasz. Én is sokat...	csíszlom	csíszlok	0	csíszlom	csíszlom	TRUE	12809	562352	lakok_1_low_typical	lakok/lakom	28	csíszlik	0.7419373447293773	csíszlok	csíszlom	1	NA	1	16	FALSE	FALSE	low	typical	TRUE	FALSE	FALSE	TRUE
hungarian-esp_esp_participant_SESSION_2022-11-20_21h07.57.71.csv	2022-11-20T21:07:00Z	DEXM7Y	nő	1999	16	3	esp trial	25	Te bizony sokat siladzol. Én is sokat...	siladzok	siladzom	1	siladzom	siladzom	TRUE	14874	614265	lakok_1_low_typical	lakok/lakom	28	siladzik	-0.4353180712578455	siladzok	siladzom	2	NA	1	45	FALSE	TRUE	low	typical	FALSE	FALSE	FALSE	TRUE
hungarian-esp_esp_participant_SESSION_2022-11-20_21h07.57.71.csv	2022-11-20T21:07:00Z	DEXM7Y	nő	1999	16	3	esp trial	27	Te bizony sokat drubódzol. Én is sokat...	drubódzok	drubódzom	1	drubódzom	drubódzom	TRUE	12354	630641	lakok_1_low_typical	lakok/lakom	28	drubódzik	-0.4353180712578455	drubódzok	drubódzom	2	NA	1	44	FALSE	TRUE	low	typical	FALSE	FALSE	FALSE	TRUE
hungarian-esp_esp_participant_SESSION_2022-11-20_21h07.57.71.csv	2022-11-20T21:07:00Z	DEXM7Y	nő	1999	16	3	esp trial	31	Te bizony sokat narjárzol. Én is sokat...	narjárzok	narjárzom	1	narjárzom	narjárzom	TRUE	13139	661146	lakok_1_low_typical	lakok/lakom	28	narjárzik	0	narjárzok	narjárzom	2	NA	1	34	FALSE	FALSE	low	typical	FALSE	FALSE	FALSE	TRUE
hungarian-esp_esp_participant_SESSION_2022-11-20_21h07.57.71.csv	2022-11-20T21:07:00Z	DEXM7Y	nő	1999	16	3	esp trial	33	Te bizony sokat sprogzol. Én is sokat...	sprogzom	sprogzok	0	sprogzom	sprogzom	TRUE	13892	679058	lakok_1_low_typical	lakok/lakom	28	sprogzik	-0.7419373447293773	sprogzok	sprogzom	1	NA	1	51	FALSE	TRUE	low	typical	TRUE	FALSE	FALSE	TRUE
hungarian-esp_esp_participant_SESSION_2022-11-20_21h07.57.71.csv	2022-11-20T21:07:00Z	DEXM7Y	nő	1999	16	3	esp trial	35	Te bizony sokat flüröslesz. Én is sokat...	flüröslök	flüröslöm	0	flüröslök	flüröslöm	FALSE	13714	696794	lakok_1_low_typical	lakok/lakom	28	flüröslik	0.7419373447293773	flüröslök	flüröslöm	2	NA	1	17	FALSE	FALSE	low	typical	TRUE	TRUE	FALSE	FALSE
hungarian-esp_esp_participant_SESSION_2022-11-20_21h07.57.71.csv	2022-11-20T21:07:00Z	DEXM7Y	nő	1999	16	3	esp trial	41	Te bizony sokat flagánylasz. Én is sokat...	flagánylok	flagánylom	1	flagánylom	flagánylok	FALSE	17855	739145	lakok_1_low_typical	lakok/lakom	28	flagánylik	1.0560526742493137	flagánylok	flagánylom	2	NA	1	9	TRUE	FALSE	low	typical	FALSE	FALSE	TRUE	TRUE
hungarian-esp_esp_participant_SESSION_2022-11-20_21h07.57.71.csv	2022-11-20T21:07:00Z	DEXM7Y	nő	1999	16	3	esp trial	45	Te bizony sokat spéslesz. Én is sokat...	spéslek	spéslem	0	spéslek	spéslek	TRUE	12708	765098	lakok_1_low_typical	lakok/lakom	28	spéslik	1.1451323043030026	spéslek	spéslem	1	NA	1	8	TRUE	FALSE	low	typical	TRUE	TRUE	TRUE	FALSE
hungarian-esp_esp_participant_SESSION_2022-11-20_21h07.57.71.csv	2022-11-20T21:07:00Z	DEXM7Y	nő	1999	16	3	esp trial	47	Te bizony sokat ribegzel. Én is sokat...	ribegzek	ribegzem	0	ribegzek	ribegzem	FALSE	10964	780082	lakok_1_low_typical	lakok/lakom	28	ribegzik	-0.1941560144409575	ribegzek	ribegzem	2	NA	1	38	FALSE	FALSE	low	typical	TRUE	TRUE	FALSE	FALSE
hungarian-esp_esp_participant_SESSION_2022-11-20_21h07.57.71.csv	2022-11-20T21:07:00Z	DEXM7Y	nő	1999	16	3	esp trial	51	Te bizony sokat fibamlasz. Én is sokat...	fibamlom	fibamlok	1	fibamlok	fibamlok	TRUE	15163	811699	lakok_1_low_typical	lakok/lakom	28	fibamlik	1.9095425048844383	fibamlok	fibamlom	2	NA	1	2	TRUE	FALSE	low	typical	FALSE	TRUE	TRUE	FALSE
hungarian-esp_esp_participant_SESSION_2022-11-20_21h07.57.71.csv	2022-11-20T21:07:00Z	DEXM7Y	nő	1999	16	3	esp trial	53	Te bizony sokat spilágzol. Én is sokat...	spilágzom	spilágzok	1	spilágzok	spilágzom	FALSE	21134	836882	lakok_1_low_typical	lakok/lakom	28	spilágzik	-0.9650808960435872	spilágzok	spilágzom	2	NA	1	54	FALSE	TRUE	low	typical	FALSE	TRUE	FALSE	FALSE
hungarian-esp_esp_participant_SESSION_2022-11-20_21h07.57.71.csv	2022-11-20T21:07:00Z	DEXM7Y	nő	1999	16	4	posttest trial	120	Te bizony sokat pribagszol. Én is sokat...	pribagszom	pribagszok	0	pribagszom	NA	NA	8406	1141734	lakok_2_high_reversed	lakok/lakom	29	pribagszik	-0.587786664902119	pribagszok	pribagszom	2	NA	2	47	FALSE	TRUE	low	typical	TRUE	FALSE	NA	NA
hungarian-esp_esp_participant_SESSION_2022-11-20_21h07.57.71.csv	2022-11-20T21:07:00Z	DEXM7Y	nő	1999	16	4	posttest trial	124	Te bizony sokat filágzol. Én is sokat...	filágzom	filágzok	1	filágzok	NA	NA	10216	1170334	lakok_2_high_reversed	lakok/lakom	29	filágzik	-0.9650808960435872	filágzok	filágzom	2	NA	2	53	FALSE	TRUE	low	typical	FALSE	TRUE	NA	NA
hungarian-esp_esp_participant_SESSION_2022-11-20_21h07.57.71.csv	2022-11-20T21:07:00Z	DEXM7Y	nő	1999	16	4	posttest trial	128	Te bizony sokat gyibeslesz. Én is sokat...	gyibeslem	gyibeslek	0	gyibeslem	NA	NA	11445	1200686	lakok_2_high_reversed	lakok/lakom	29	gyibeslik	0.6418538861723947	gyibeslek	gyibeslem	2	NA	2	18	FALSE	FALSE	low	typical	TRUE	FALSE	NA	NA
hungarian-esp_esp_participant_SESSION_2022-11-20_21h07.57.71.csv	2022-11-20T21:07:00Z	DEXM7Y	nő	1999	16	4	posttest trial	130	Te bizony sokat flehékszel. Én is sokat...	flehékszek	flehékszem	1	flehékszem	NA	NA	11185	1218886	lakok_2_high_reversed	lakok/lakom	29	flehékszik	-0.5978370007556204	flehékszek	flehékszem	2	NA	2	48	FALSE	TRUE	low	typical	FALSE	FALSE	NA	NA
hungarian-esp_esp_participant_SESSION_2022-11-20_21h07.57.71.csv	2022-11-20T21:07:00Z	DEXM7Y	nő	1999	16	4	posttest trial	131	Te bizony sokat vülődzöl. Én is sokat...	vülődzök	vülődzöm	0	vülődzök	NA	NA	16342	1235734	lakok_2_high_reversed	lakok/lakom	29	vülődzik	0.06899287148695142	vülődzök	vülődzöm	2	NA	2	31	FALSE	FALSE	low	typical	TRUE	TRUE	NA	NA
hungarian-esp_esp_participant_SESSION_2022-11-20_22h16.57.364.csv	2022-11-20T22:16:00Z	Z7WNY6	nő	2001	15-15,5	5	esp trial	13	Te bizony sokat lörűdzöl. Én is sokat...	lörűdzök	lörűdzöm	0	lörűdzök	lörűdzök	TRUE	10098	189409	lakok_2_high_typical	lakok/lakom	30	lörűdzik	-0.2076393647782445	lörűdzök	lörűdzöm	2	NA	2	39	FALSE	FALSE	high	typical	TRUE	TRUE	TRUE	TRUE
hungarian-esp_esp_participant_SESSION_2022-11-20_22h16.57.364.csv	2022-11-20T22:16:00Z	Z7WNY6	nő	2001	15-15,5	5	esp trial	23	Te bizony sokat rájzol. Én is sokat...	rájzok	rájzom	1	rájzom	rájzok	FALSE	12641	252529	lakok_2_high_typical	lakok/lakom	30	rájzik	0	rájzok	rájzom	1	NA	2	34	FALSE	FALSE	high	typical	FALSE	FALSE	TRUE	FALSE
hungarian-esp_esp_participant_SESSION_2022-11-20_22h16.57.364.csv	2022-11-20T22:16:00Z	Z7WNY6	nő	2001	15-15,5	8	posttest trial	157	Te bizony sokat préleglesz. Én is sokat...	préleglek	préleglem	0	préleglek	NA	NA	9259	914377	lakok_3_high_reversed	lakok/lakom	33	préleglik	0.6418538861723947	préleglek	préleglem	2	NA	3	19	FALSE	FALSE	high	typical	TRUE	TRUE	NA	NA
hungarian-esp_esp_participant_SESSION_2022-11-20_22h16.57.364.csv	2022-11-20T22:16:00Z	Z7WNY6	nő	2001	15-15,5	8	posttest trial	173	Te bizony sokat trihagzol. Én is sokat...	trihagzom	trihagzok	0	trihagzom	NA	NA	12369	975681	lakok_3_high_reversed	lakok/lakom	33	trihagzik	-0.6418538861723948	trihagzok	trihagzom	2	NA	3	50	FALSE	TRUE	high	typical	TRUE	FALSE	NA	NA
hungarian-esp_esp_participant_SESSION_2022-11-20_22h37.29.622.csv	2022-11-20T22:37:00Z	ESXWKR	férfi	1992	12	11	esp trial	109	Te bizony sokat fligzol. Én is sokat...	fligzok	fligzom	1	fligzom	fligzom	TRUE	14917	735232	lakok_3_low_typical	lakok/lakom	36	fligzik	-0.5978370007556204	fligzok	fligzom	1	NA	3	48	FALSE	TRUE	low	typical	FALSE	FALSE	FALSE	TRUE
hungarian-esp_esp_participant_SESSION_2022-11-20_22h37.29.622.csv	2022-11-20T22:37:00Z	ESXWKR	férfi	1992	12	1	posttest trial	120	Te bizony sokat flűröklesz. Én is sokat...	flűröklök	flűröklöm	1	flűröklöm	NA	NA	8409	816828	lakok_1_high_typical	lakok/lakom	26	flűröklik	0.32542240043462795	flűröklök	flűröklöm	2	NA	1	26	FALSE	FALSE	low	typical	FALSE	FALSE	NA	NA
hungarian-esp_esp_participant_SESSION_2022-11-20_22h49.17.883.csv	2022-11-20T22:49:00Z	LW0EUN	nő	1996	18	7	esp trial	17	Te bizony sokat lörűdzöl. Én is sokat...	lörűdzök	lörűdzöm	0	lörűdzök	lörűdzöm	FALSE	10826	267248	lakok_2_low_typical	lakok/lakom	32	lörűdzik	-0.2076393647782445	lörűdzök	lörűdzöm	2	NA	2	39	FALSE	FALSE	low	typical	TRUE	TRUE	FALSE	FALSE
hungarian-esp_esp_participant_SESSION_2022-11-20_22h49.17.883.csv	2022-11-20T22:49:00Z	LW0EUN	nő	1996	18	7	esp trial	23	Te bizony sokat huroslasz. Én is sokat...	huroslom	huroslok	1	huroslok	huroslok	TRUE	13445	308524	lakok_2_low_typical	lakok/lakom	32	huroslik	1.0560526742493137	huroslok	huroslom	2	NA	2	9	TRUE	FALSE	low	typical	FALSE	TRUE	TRUE	FALSE
hungarian-esp_esp_participant_SESSION_2022-11-20_22h49.17.883.csv	2022-11-20T22:49:00Z	LW0EUN	nő	1996	18	7	esp trial	61	Te bizony sokat sztrozlasz. Én is sokat...	sztrozlok	sztrozlom	1	sztrozlom	sztrozlom	TRUE	23983	497779	lakok_2_low_typical	lakok/lakom	32	sztrozlik	0.4353180712578455	sztrozlok	sztrozlom	1	NA	2	23	FALSE	FALSE	low	typical	FALSE	FALSE	FALSE	TRUE
hungarian-esp_esp_participant_SESSION_2022-11-20_22h49.17.883.csv	2022-11-20T22:49:00Z	LW0EUN	nő	1996	18	7	esp trial	63	Te bizony sokat pribagszol. Én is sokat...	pribagszom	pribagszok	0	pribagszom	pribagszom	TRUE	13758	515571	lakok_2_low_typical	lakok/lakom	32	pribagszik	-0.587786664902119	pribagszok	pribagszom	2	NA	2	47	FALSE	TRUE	low	typical	TRUE	FALSE	FALSE	TRUE
hungarian-esp_esp_participant_SESSION_2022-11-20_22h49.17.883.csv	2022-11-20T22:49:00Z	LW0EUN	nő	1996	18	8	posttest trial	122	Te bizony sokat táklasz. Én is sokat...	táklok	táklom	0	táklok	NA	NA	9092	784512	lakok_3_high_reversed	lakok/lakom	33	táklik	-0.2876820724517809	táklok	táklom	1	NA	3	41	FALSE	TRUE	low	typical	TRUE	TRUE	NA	NA
hungarian-esp_esp_participant_SESSION_2022-11-20_22h49.17.883.csv	2022-11-20T22:49:00Z	LW0EUN	nő	1996	18	8	posttest trial	126	Te bizony sokat plágadzol. Én is sokat...	plágadzom	plágadzok	0	plágadzom	NA	NA	14026	809875	lakok_3_high_reversed	lakok/lakom	33	plágadzik	-0.4353180712578455	plágadzok	plágadzom	2	NA	3	44	FALSE	TRUE	low	typical	TRUE	FALSE	NA	NA
hungarian-esp_esp_participant_SESSION_2022-11-20_22h49.17.883.csv	2022-11-20T22:49:00Z	LW0EUN	nő	1996	18	8	posttest trial	131	Te bizony sokat drügzöl. Én is sokat...	drügzök	drügzöm	1	drügzöm	NA	NA	8413	840597	lakok_3_high_reversed	lakok/lakom	33	drügzik	0.06899287148695142	drügzök	drügzöm	1	NA	3	29	FALSE	FALSE	low	typical	FALSE	FALSE	NA	NA
hungarian-esp_esp_participant_SESSION_2022-11-20_22h49.17.883.csv	2022-11-20T22:49:00Z	LW0EUN	nő	1996	18	8	posttest trial	133	Te bizony sokat sprálszol. Én is sokat...	sprálszok	sprálszom	1	sprálszom	NA	NA	11874	858440	lakok_3_high_reversed	lakok/lakom	33	sprálszik	-0.2876820724517809	sprálszok	sprálszom	1	NA	3	40	FALSE	TRUE	low	typical	FALSE	FALSE	NA	NA
hungarian-esp_esp_participant_SESSION_2022-11-20_22h49.17.883.csv	2022-11-20T22:49:00Z	LW0EUN	nő	1996	18	8	posttest trial	135	Te bizony sokat flözlesz. Én is sokat...	flözlöm	flözlök	1	flözlök	NA	NA	22007	887337	lakok_3_high_reversed	lakok/lakom	33	flözlik	0.965080896043587	flözlök	flözlöm	1	NA	3	9	TRUE	FALSE	low	typical	FALSE	TRUE	NA	NA
hungarian-esp_esp_participant_SESSION_2022-11-20_22h49.17.883.csv	2022-11-20T22:49:00Z	LW0EUN	nő	1996	18	8	posttest trial	150	Te bizony sokat fliraklasz. Én is sokat...	fliraklom	fliraklok	0	fliraklom	NA	NA	9286	967015	lakok_3_high_reversed	lakok/lakom	33	fliraklik	0	fliraklok	fliraklom	2	NA	3	32	FALSE	FALSE	low	typical	TRUE	FALSE	NA	NA
hungarian-esp_esp_participant_SESSION_2022-11-20_22h49.17.883.csv	2022-11-20T22:49:00Z	LW0EUN	nő	1996	18	8	posttest trial	156	Te bizony sokat gyibakszol. Én is sokat...	gyibakszom	gyibakszok	0	gyibakszom	NA	NA	10841	1004660	lakok_3_high_reversed	lakok/lakom	33	gyibakszik	-0.587786664902119	gyibakszok	gyibakszom	2	NA	3	46	FALSE	TRUE	low	typical	TRUE	FALSE	NA	NA
hungarian-esp_esp_participant_SESSION_2022-11-21_11h17.24.599.csv	2022-11-21T11:17:00Z	FU64F8	férfi	1999	12	6	esp trial	63	Te bizony sokat klétszel. Én is sokat...	klétszem	klétszek	1	klétszek	klétszek	TRUE	19385	492538	lakok_2_low_reversed	lakok/lakom	31	klétszik	-0.2876820724517809	klétszek	klétszem	1	NA	2	40	FALSE	TRUE	low	reversed	FALSE	TRUE	TRUE	FALSE
hungarian-esp_esp_participant_SESSION_2022-11-21_11h17.24.599.csv	2022-11-21T11:17:00Z	FU64F8	férfi	1999	12	8	posttest trial	120	Te bizony sokat mékszel. Én is sokat...	mékszem	mékszek	0	mékszem	NA	NA	8376	802056	lakok_3_high_reversed	lakok/lakom	33	mékszik	-0.1431008436406733	mékszek	mékszem	1	NA	3	36	FALSE	FALSE	low	reversed	TRUE	FALSE	NA	NA
hungarian-esp_esp_participant_SESSION_2022-11-21_12h46.32.529.csv	2022-11-21T12:46:00Z	XAKDQ3	nő	1998	16	8	esp trial	47	Te bizony sokat spibádzol. Én is sokat...	spibádzom	spibádzok	1	spibádzok	spibádzok	TRUE	59688	474276	lakok_3_high_reversed	lakok/lakom	33	spibádzik	-0.2076393647782445	spibádzok	spibádzom	2	NA	3	39	FALSE	FALSE	high	reversed	FALSE	TRUE	TRUE	TRUE
hungarian-esp_esp_participant_SESSION_2022-11-21_12h46.32.529.csv	2022-11-21T12:46:00Z	XAKDQ3	nő	1998	16	1	posttest trial	155	Te bizony sokat sztremlesz. Én is sokat...	sztremlek	sztremlem	0	sztremlek	NA	NA	8988	936457	lakok_1_high_typical	lakok/lakom	26	sztremlik	1.3437347467010947	sztremlek	sztremlem	1	NA	1	6	TRUE	FALSE	high	reversed	TRUE	TRUE	NA	NA
hungarian-esp_esp_participant_SESSION_2022-11-21_12h55.31.11.csv	2022-11-21T12:55:00Z	PIBK75	férfi	2000	14	8	esp trial	103	Te bizony sokat spibádzol. Én is sokat...	spibádzom	spibádzok	0	spibádzom	spibádzok	FALSE	10142	746540	lakok_3_high_reversed	lakok/lakom	33	spibádzik	-0.2076393647782445	spibádzok	spibádzom	2	NA	3	39	FALSE	FALSE	high	reversed	TRUE	FALSE	TRUE	FALSE
hungarian-esp_esp_participant_SESSION_2022-11-21_15h30.11.810.csv	2022-11-21T15:30:00Z	DAG7T4	nő	1997	18	4	esp trial	11	Te bizony sokat huroslasz. Én is sokat...	huroslom	huroslok	1	huroslok	huroslom	FALSE	15286	143138	lakok_2_high_reversed	lakok/lakom	29	huroslik	1.0560526742493137	huroslok	huroslom	2	NA	2	9	TRUE	FALSE	high	reversed	FALSE	TRUE	FALSE	TRUE
hungarian-esp_esp_participant_SESSION_2022-11-21_15h30.11.810.csv	2022-11-21T15:30:00Z	DAG7T4	nő	1997	18	4	esp trial	47	Te bizony sokat narádzol. Én is sokat...	narádzok	narádzom	1	narádzom	narádzok	FALSE	11690	363707	lakok_2_high_reversed	lakok/lakom	29	narádzik	-0.6418538861723948	narádzok	narádzom	2	NA	2	50	FALSE	TRUE	high	reversed	FALSE	FALSE	TRUE	FALSE
hungarian-esp_esp_participant_SESSION_2022-11-21_15h30.11.810.csv	2022-11-21T15:30:00Z	DAG7T4	nő	1997	18	4	esp trial	55	Te bizony sokat brivegzel. Én is sokat...	brivegzem	brivegzek	0	brivegzem	brivegzek	FALSE	10507	414058	lakok_2_high_reversed	lakok/lakom	29	brivegzik	-0.8938178760220964	brivegzek	brivegzem	2	NA	2	52	FALSE	TRUE	high	reversed	TRUE	FALSE	TRUE	FALSE
hungarian-esp_esp_participant_SESSION_2022-11-21_15h30.11.810.csv	2022-11-21T15:30:00Z	DAG7T4	nő	1997	18	8	posttest trial	173	Te bizony sokat kumlasz. Én is sokat...	kumlok	kumlom	0	kumlok	NA	NA	13330	1023299	lakok_3_high_reversed	lakok/lakom	33	kumlik	1.6486586255873816	kumlok	kumlom	1	NA	3	3	TRUE	FALSE	high	reversed	TRUE	TRUE	NA	NA
hungarian-esp_esp_participant_SESSION_2022-11-21_18h22.07.454.csv	2022-11-21T18:22:00Z	N37PUW	férfi	2002	13	4	esp trial	29	Te bizony sokat huroslasz. Én is sokat...	huroslom	huroslok	1	huroslok	huroslom	FALSE	10108	385986	lakok_2_high_reversed	lakok/lakom	29	huroslik	1.0560526742493137	huroslok	huroslom	2	NA	2	9	TRUE	FALSE	high	reversed	FALSE	TRUE	FALSE	TRUE
hungarian-esp_esp_participant_SESSION_2022-11-21_18h22.07.454.csv	2022-11-21T18:22:00Z	N37PUW	férfi	2002	13	4	esp trial	81	Te bizony sokat spröbzöl. Én is sokat...	spröbzöm	spröbzök	0	spröbzöm	spröbzök	FALSE	11247	709772	lakok_2_high_reversed	lakok/lakom	29	spröbzik	0.28768207245178085	spröbzök	spröbzöm	1	NA	2	26	FALSE	FALSE	high	reversed	TRUE	FALSE	TRUE	FALSE
hungarian-esp_esp_participant_SESSION_2022-11-21_18h22.07.454.csv	2022-11-21T18:22:00Z	N37PUW	férfi	2002	13	4	esp trial	85	Te bizony sokat brivegzel. Én is sokat...	brivegzem	brivegzek	1	brivegzek	brivegzek	TRUE	11136	736864	lakok_2_high_reversed	lakok/lakom	29	brivegzik	-0.8938178760220964	brivegzek	brivegzem	2	NA	2	52	FALSE	TRUE	high	reversed	FALSE	TRUE	TRUE	TRUE
hungarian-esp_esp_participant_SESSION_2022-11-21_18h22.07.454.csv	2022-11-21T18:22:00Z	N37PUW	férfi	2002	13	4	esp trial	91	Te bizony sokat rokszol. Én is sokat...	rokszom	rokszok	1	rokszok	rokszok	TRUE	10850	776582	lakok_2_high_reversed	lakok/lakom	29	rokszik	-0.3483066942682157	rokszok	rokszom	1	NA	2	43	FALSE	TRUE	high	reversed	FALSE	TRUE	TRUE	TRUE
hungarian-esp_esp_participant_SESSION_2022-11-21_18h22.07.454.csv	2022-11-21T18:22:00Z	N37PUW	férfi	2002	13	4	esp trial	95	Te bizony sokat vanylasz. Én is sokat...	vanylok	vanylom	0	vanylok	vanylom	FALSE	10976	803513	lakok_2_high_reversed	lakok/lakom	29	vanylik	1.1451323043030026	vanylok	vanylom	1	NA	2	8	TRUE	FALSE	high	reversed	TRUE	TRUE	FALSE	TRUE
hungarian-esp_esp_participant_SESSION_2022-11-21_18h22.07.454.csv	2022-11-21T18:22:00Z	N37PUW	férfi	2002	13	4	esp trial	115	Te bizony sokat klaráglasz. Én is sokat...	klaráglok	klaráglom	0	klaráglok	klaráglom	FALSE	28224	943193	lakok_2_high_reversed	lakok/lakom	29	klaráglik	0.965080896043587	klaráglok	klaráglom	2	NA	2	10	TRUE	FALSE	high	reversed	TRUE	TRUE	FALSE	TRUE
hungarian-esp_esp_participant_SESSION_2022-11-21_18h39.09.844.csv	2022-11-21T18:39:00Z	YH6M5S	férfi	2002	14	5	esp trial	23	Te bizony sokat rokszol. Én is sokat...	rokszom	rokszok	0	rokszom	rokszom	TRUE	11096	411418	lakok_2_high_typical	lakok/lakom	30	rokszik	-0.3483066942682157	rokszok	rokszom	1	NA	2	43	FALSE	TRUE	high	typical	TRUE	FALSE	FALSE	FALSE
hungarian-esp_esp_participant_SESSION_2022-11-21_20h23.30.182.csv	2022-11-21T20:23:00Z	IK8F1D	férfi	2000	15	9	esp trial	51	Te bizony sokat trihagzol. Én is sokat...	trihagzom	trihagzok	1	trihagzok	trihagzom	FALSE	15784	549444	lakok_3_high_typical	lakok/lakom	34	trihagzik	-0.6418538861723948	trihagzok	trihagzom	2	NA	3	50	FALSE	TRUE	high	typical	FALSE	TRUE	FALSE	TRUE
hungarian-esp_esp_participant_SESSION_2022-11-21_20h23.30.182.csv	2022-11-21T20:23:00Z	IK8F1D	férfi	2000	15	9	esp trial	55	Te bizony sokat friszlasz. Én is sokat...	friszlom	friszlok	1	friszlok	friszlok	TRUE	14987	580551	lakok_3_high_typical	lakok/lakom	34	friszlik	0.06453852113757116	friszlok	friszlom	1	NA	3	31	FALSE	FALSE	high	typical	FALSE	TRUE	TRUE	TRUE
hungarian-esp_esp_participant_SESSION_2022-11-21_20h23.30.182.csv	2022-11-21T20:23:00Z	IK8F1D	férfi	2000	15	9	esp trial	57	Te bizony sokat frágapszol. Én is sokat...	frágapszom	frágapszok	1	frágapszok	frágapszom	FALSE	21754	606325	lakok_3_high_typical	lakok/lakom	34	frágapszik	-0.3483066942682157	frágapszok	frágapszom	2	NA	3	42	FALSE	TRUE	high	typical	FALSE	TRUE	FALSE	TRUE
hungarian-esp_esp_participant_SESSION_2022-11-21_20h23.30.182.csv	2022-11-21T20:23:00Z	IK8F1D	férfi	2000	15	9	esp trial	59	Te bizony sokat spírzol. Én is sokat...	spírzok	spírzom	0	spírzok	spírzok	TRUE	10768	621109	lakok_3_high_typical	lakok/lakom	34	spírzik	0	spírzok	spírzom	1	NA	3	34	FALSE	FALSE	high	typical	TRUE	TRUE	TRUE	TRUE
hungarian-esp_esp_participant_SESSION_2022-11-21_20h23.30.182.csv	2022-11-21T20:23:00Z	IK8F1D	férfi	2000	15	9	esp trial	87	Te bizony sokat sprálszol. Én is sokat...	sprálszom	sprálszok	0	sprálszom	sprálszom	TRUE	10832	767384	lakok_3_high_typical	lakok/lakom	34	sprálszik	-0.2876820724517809	sprálszok	sprálszom	1	NA	3	40	FALSE	TRUE	high	typical	TRUE	FALSE	FALSE	FALSE
hungarian-esp_esp_participant_SESSION_2022-11-21_20h23.30.182.csv	2022-11-21T20:23:00Z	IK8F1D	férfi	2000	15	9	esp trial	101	Te bizony sokat klárzol. Én is sokat...	klárzok	klárzom	0	klárzok	klárzok	TRUE	14919	845840	lakok_3_high_typical	lakok/lakom	34	klárzik	0	klárzok	klárzom	1	NA	3	33	FALSE	FALSE	high	typical	TRUE	TRUE	TRUE	TRUE
hungarian-esp_esp_participant_SESSION_2022-11-21_20h23.30.182.csv	2022-11-21T20:23:00Z	IK8F1D	férfi	2000	15	1	posttest trial	161	Te bizony sokat siladzol. Én is sokat...	siladzom	siladzok	1	siladzok	NA	NA	13704	1100282	lakok_1_high_typical	lakok/lakom	26	siladzik	-0.4353180712578455	siladzok	siladzom	2	NA	1	45	FALSE	TRUE	high	typical	FALSE	TRUE	NA	NA
hungarian-esp_esp_participant_SESSION_2022-11-21_20h23.30.182.csv	2022-11-21T20:23:00Z	IK8F1D	férfi	2000	15	1	posttest trial	167	Te bizony sokat prűrlesz. Én is sokat...	prűrlök	prűrlöm	0	prűrlök	NA	NA	11765	1132368	lakok_1_high_typical	lakok/lakom	26	prűrlik	0.9162907318741552	prűrlök	prűrlöm	1	NA	1	12	TRUE	FALSE	high	typical	TRUE	TRUE	NA	NA
hungarian-esp_esp_participant_SESSION_2022-11-21_21h36.47.408.csv	2022-11-21T21:36:00Z	CEPFPW	nő	1991	18	2	esp trial	51	Te bizony sokat spibaklasz. Én is sokat...	spibaklok	spibaklom	1	spibaklom	spibaklom	TRUE	25996	434922	lakok_1_low_reversed	lakok/lakom	27	spibaklik	0.06899287148695142	spibaklok	spibaklom	2	NA	1	31	FALSE	FALSE	low	reversed	FALSE	FALSE	FALSE	TRUE
hungarian-esp_esp_participant_SESSION_2022-11-21_21h36.47.408.csv	2022-11-21T21:36:00Z	CEPFPW	nő	1991	18	4	posttest trial	140	Te bizony sokat klétszel. Én is sokat...	klétszem	klétszek	1	klétszek	NA	NA	17641	909667	lakok_2_high_reversed	lakok/lakom	29	klétszik	-0.2876820724517809	klétszek	klétszem	1	NA	2	40	FALSE	TRUE	low	reversed	FALSE	TRUE	NA	NA
hungarian-esp_esp_participant_SESSION_2022-11-21_23h46.30.282.csv	2022-11-21T23:46:00Z	I8FJ4K	nő	2001	13	7	esp trial	17	Te bizony sokat spröbzöl. Én is sokat...	spröbzöm	spröbzök	1	spröbzök	spröbzöm	FALSE	11402	231635	lakok_2_low_typical	lakok/lakom	32	spröbzik	0.28768207245178085	spröbzök	spröbzöm	1	NA	2	26	FALSE	FALSE	low	typical	FALSE	TRUE	FALSE	FALSE
hungarian-esp_esp_participant_SESSION_2022-11-21_23h46.30.282.csv	2022-11-21T23:46:00Z	I8FJ4K	nő	2001	13	8	posttest trial	150	Te bizony sokat frágapszol. Én is sokat...	frágapszok	frágapszom	1	frágapszom	NA	NA	10204	805654	lakok_3_high_reversed	lakok/lakom	33	frágapszik	-0.3483066942682157	frágapszok	frágapszom	2	NA	3	42	FALSE	TRUE	low	typical	FALSE	FALSE	NA	NA
hungarian-esp_esp_participant_SESSION_2022-11-21_23h46.30.282.csv	2022-11-21T23:46:00Z	I8FJ4K	nő	2001	13	8	posttest trial	168	Te bizony sokat prihekszel. Én is sokat...	prihekszem	prihekszek	0	prihekszem	NA	NA	8627	874352	lakok_3_high_reversed	lakok/lakom	33	prihekszik	-0.1941560144409575	prihekszek	prihekszem	2	NA	3	37	FALSE	FALSE	low	typical	TRUE	FALSE	NA	NA
hungarian-esp_esp_participant_SESSION_2022-11-22_15h19.01.12.csv	2022-11-22T15:19:00Z	Z7JPN2	nő	1998	15	4	posttest trial	123	Te bizony sokat pítszol. Én is sokat...	pítszom	pítszok	1	pítszok	NA	NA	8664	715857	lakok_2_high_reversed	lakok/lakom	29	pítszik	-0.49247648509779407	pítszok	pítszom	1	NA	2	46	FALSE	TRUE	low	reversed	FALSE	TRUE	NA	NA
hungarian-esp_esp_participant_SESSION_2022-11-22_20h07.06.634.csv	2022-11-22T20:07:00Z	STQJVW	férfi	1996	17	9	esp trial	115	Te bizony sokat drügzöl. Én is sokat...	drügzöm	drügzök	1	drügzök	drügzök	TRUE	10239	710786	lakok_3_high_typical	lakok/lakom	34	drügzik	0.06899287148695142	drügzök	drügzöm	1	NA	3	29	FALSE	FALSE	high	typical	FALSE	TRUE	TRUE	TRUE
hungarian-esp_esp_participant_SESSION_2022-11-22_20h07.06.634.csv	2022-11-22T20:07:00Z	STQJVW	férfi	1996	17	1	posttest trial	141	Te bizony sokat vilakszol. Én is sokat...	vilakszok	vilakszom	1	vilakszom	NA	NA	8290	859784	lakok_1_high_typical	lakok/lakom	26	vilakszik	-0.7985076962177716	vilakszok	vilakszom	2	NA	1	52	FALSE	TRUE	high	typical	FALSE	FALSE	NA	NA
hungarian-esp_esp_participant_SESSION_2022-11-22_21h56.13.804.csv	2022-11-22T21:56:00Z	YT5VG5	nő	2003	12	9	esp trial	13	Te bizony sokat csólorzol. Én is sokat...	csólorzom	csólorzok	1	csólorzok	csólorzom	FALSE	12414	495578	lakok_3_high_typical	lakok/lakom	34	csólorzik	-0.5978370007556204	csólorzok	csólorzom	2	NA	3	47	FALSE	TRUE	high	typical	FALSE	TRUE	FALSE	TRUE
hungarian-esp_esp_participant_SESSION_2022-11-22_21h56.13.804.csv	2022-11-22T21:56:00Z	YT5VG5	nő	2003	12	9	esp trial	15	Te bizony sokat mékszel. Én is sokat...	mékszem	mékszek	1	mékszek	mékszek	TRUE	12802	512399	lakok_3_high_typical	lakok/lakom	34	mékszik	-0.1431008436406733	mékszek	mékszem	1	NA	3	36	FALSE	FALSE	high	typical	FALSE	TRUE	TRUE	TRUE
hungarian-esp_esp_participant_SESSION_2022-11-22_21h56.13.804.csv	2022-11-22T21:56:00Z	YT5VG5	nő	2003	12	9	esp trial	35	Te bizony sokat sprálszol. Én is sokat...	sprálszok	sprálszom	0	sprálszok	sprálszom	FALSE	11390	615576	lakok_3_high_typical	lakok/lakom	34	sprálszik	-0.2876820724517809	sprálszok	sprálszom	1	NA	3	40	FALSE	TRUE	high	typical	TRUE	TRUE	FALSE	TRUE
hungarian-esp_esp_participant_SESSION_2022-11-22_21h56.13.804.csv	2022-11-22T21:56:00Z	YT5VG5	nő	2003	12	1	posttest trial	121	Te bizony sokat sprogzol. Én is sokat...	sprogzok	sprogzom	0	sprogzok	NA	NA	8329	985685	lakok_1_high_typical	lakok/lakom	26	sprogzik	-0.7419373447293773	sprogzok	sprogzom	1	NA	1	51	FALSE	TRUE	high	typical	TRUE	TRUE	NA	NA
