dat_id	part_id	part_gender	part_yob	part_edu	list_number	trial_kind	trial_index	stimulus	choice1	choice2	response	response_string	esp_response	esp_match	rt	time_elapsed	file_name	variation	column	base	log_odds	variant1	variant2	nsyl	suffix	sample_number	word_rank	top_20	bottom_20	reg_rate	reg_dist	picked_left	picked_v1	esp_v1	picked_majority
hungarian-esp_esp_participant_SESSION_2023-05-23_11h43.59.658.csv	HGFCTO	nő	2003	13	5	esp trial	11	János imád prélemezni, ezért sokat prélemlik. Ők ritkán...	prélemlenek	prélemeznek	1	prélemeznek	prélemlenek	FALSE	16286	474743	cselekszenek_2_high_typical	cselekszenek/cselekednek	6	prélemlik / prélemezik	0.20763936477824457	prélemlenek	prélemeznek	2	nek	2	22	FALSE	FALSE	high	typical	FALSE	FALSE	TRUE	FALSE
hungarian-esp_esp_participant_SESSION_2023-05-23_11h43.59.658.csv	HGFCTO	nő	2003	13	5	esp trial	13	János imád frálapodni, ezért sokat frálapszik. Ti ritkán...	frálapszotok	frálapodtok	0	frálapszotok	frálapszotok	TRUE	8406	487175	cselekszenek_2_high_typical	cselekszenek/cselekednek	6	frálapszik / frálapodik	0.4353180712578455	frálapszotok	frálapodtok	2	tek	2	14	TRUE	FALSE	high	typical	TRUE	TRUE	TRUE	TRUE
hungarian-esp_esp_participant_SESSION_2023-05-23_11h43.59.658.csv	HGFCTO	nő	2003	13	5	esp trial	15	János imád molodni, ezért sokat molszik. Ti ritkán...	molodtok	molszotok	0	molodtok	molszotok	FALSE	8571	499751	cselekszenek_2_high_typical	cselekszenek/cselekednek	6	molszik / molodik	0.8938178760220965	molszotok	molodtok	1	tek	2	2	TRUE	FALSE	high	typical	TRUE	FALSE	TRUE	FALSE
hungarian-esp_esp_participant_SESSION_2023-05-23_11h43.59.658.csv	HGFCTO	nő	2003	13	5	esp trial	17	János imád brivakozni, ezért sokat brivaklik. Ti ritkán...	brivakoztok	brivaklotok	1	brivaklotok	brivaklotok	TRUE	10865	514639	cselekszenek_2_high_typical	cselekszenek/cselekednek	6	brivaklik / brivakozik	-0.2076393647782445	brivaklotok	brivakoztok	2	tek	2	39	FALSE	FALSE	high	typical	FALSE	TRUE	TRUE	TRUE
hungarian-esp_esp_participant_SESSION_2023-05-23_11h43.59.658.csv	HGFCTO	nő	2003	13	5	esp trial	19	János imád branyozni, ezért sokat branylik. Ők ritkán...	branyoznak	branylanak	1	branylanak	branylanak	TRUE	6852	525512	cselekszenek_2_high_typical	cselekszenek/cselekednek	6	branylik / branyozik	0.32542240043462795	branylanak	branyoznak	1	nek	2	17	FALSE	FALSE	high	typical	FALSE	TRUE	TRUE	TRUE
hungarian-esp_esp_participant_SESSION_2023-05-23_11h43.59.658.csv	HGFCTO	nő	2003	13	5	esp trial	21	János imád nyivágozni, ezért sokat nyivágzik. Mi ritkán...	nyivágzunk	nyivágozunk	1	nyivágozunk	nyivágzunk	FALSE	7597	537127	cselekszenek_2_high_typical	cselekszenek/cselekednek	6	nyivágzik / nyivágozik	0.965080896043587	nyivágzunk	nyivágozunk	2	ünk	2	1	TRUE	FALSE	high	typical	FALSE	FALSE	TRUE	FALSE
hungarian-esp_esp_participant_SESSION_2023-05-23_11h43.59.658.csv	HGFCTO	nő	2003	13	5	esp trial	23	János imád dárakodni, ezért sokat dárakszik. Mi ritkán...	dárakszunk	dárakodunk	0	dárakszunk	dárakszunk	TRUE	8673	549815	cselekszenek_2_high_typical	cselekszenek/cselekednek	6	dárakszik / dárakodik	0.06453852113757116	dárakszunk	dárakodunk	2	ünk	2	29	FALSE	FALSE	high	typical	TRUE	TRUE	TRUE	TRUE
hungarian-esp_esp_participant_SESSION_2023-05-23_11h43.59.658.csv	HGFCTO	nő	2003	13	5	esp trial	25	János imád frálasozni, ezért sokat frálaslik. Ők ritkán...	frálasoznak	frálaslanak	1	frálaslanak	frálaslanak	TRUE	7223	561047	cselekszenek_2_high_typical	cselekszenek/cselekednek	6	frálaslik / frálasozik	0.4595323293784402	frálaslanak	frálasoznak	2	nek	2	12	TRUE	FALSE	high	typical	FALSE	TRUE	TRUE	TRUE
hungarian-esp_esp_participant_SESSION_2023-05-23_11h43.59.658.csv	HGFCTO	nő	2003	13	5	esp trial	27	János imád csubozni, ezért sokat csubzik. Mi ritkán...	csubzunk	csubozunk	0	csubzunk	csubzunk	TRUE	5240	570579	cselekszenek_2_high_typical	cselekszenek/cselekednek	6	csubzik / csubozik	0.7419373447293773	csubzunk	csubozunk	1	ünk	2	4	TRUE	FALSE	high	typical	TRUE	TRUE	TRUE	TRUE
hungarian-esp_esp_participant_SESSION_2023-05-23_11h43.59.658.csv	HGFCTO	nő	2003	13	5	esp trial	29	János imád trikozni, ezért sokat triklik. Ti ritkán...	trikoztok	triklotok	1	triklotok	triklotok	TRUE	5524	580111	cselekszenek_2_high_typical	cselekszenek/cselekednek	6	triklik / trikozik	0.5877866649021191	triklotok	trikoztok	1	tek	2	10	TRUE	FALSE	high	typical	FALSE	TRUE	TRUE	TRUE
hungarian-esp_esp_participant_SESSION_2023-05-23_11h43.59.658.csv	HGFCTO	nő	2003	13	5	esp trial	31	János imád spiharozni, ezért sokat spiharzik. Ti ritkán...	spiharzotok	spiharoztok	0	spiharzotok	spiharoztok	FALSE	9446	593576	cselekszenek_2_high_typical	cselekszenek/cselekednek	6	spiharzik / spiharozik	-0.5978370007556204	spiharzotok	spiharoztok	2	tek	2	50	FALSE	TRUE	high	typical	TRUE	TRUE	FALSE	TRUE
hungarian-esp_esp_participant_SESSION_2023-05-23_11h43.59.658.csv	HGFCTO	nő	2003	13	5	esp trial	33	János imád posozni, ezért sokat poslik. Ti ritkán...	posoztok	poslotok	1	poslotok	poslotok	TRUE	5945	603527	cselekszenek_2_high_typical	cselekszenek/cselekednek	6	poslik / posozik	0.7419373447293773	poslotok	posoztok	1	tek	2	5	TRUE	FALSE	high	typical	FALSE	TRUE	TRUE	TRUE
hungarian-esp_esp_participant_SESSION_2023-05-23_11h43.59.658.csv	HGFCTO	nő	2003	13	5	esp trial	35	János imád gyihegezni, ezért sokat gyihegzik. Ti ritkán...	gyihegeztek	gyihegzetek	1	gyihegzetek	gyihegeztek	FALSE	7612	615159	cselekszenek_2_high_typical	cselekszenek/cselekednek	6	gyihegzik / gyihegezik	-0.325422400434628	gyihegzetek	gyihegeztek	2	tek	2	43	FALSE	TRUE	high	typical	FALSE	TRUE	FALSE	TRUE
hungarian-esp_esp_participant_SESSION_2023-05-23_11h43.59.658.csv	HGFCTO	nő	2003	13	5	esp trial	37	János imád püzözni, ezért sokat püzlik. Ti ritkán...	püzöztök	püzlötök	1	püzlötök	püzlötök	TRUE	9359	628520	cselekszenek_2_high_typical	cselekszenek/cselekednek	6	püzlik / püzözik	-0.06899287148695143	püzlötök	püzöztök	1	tek	2	36	FALSE	FALSE	high	typical	FALSE	TRUE	TRUE	TRUE
hungarian-esp_esp_participant_SESSION_2023-05-23_11h43.59.658.csv	HGFCTO	nő	2003	13	5	esp trial	39	János imád gihejezni, ezért sokat gihejlik. Mi ritkán...	gihejezünk	gihejlünk	1	gihejlünk	gihejlünk	TRUE	8179	640712	cselekszenek_2_high_typical	cselekszenek/cselekednek	6	gihejlik / gihejezik	0.49247648509779424	gihejlünk	gihejezünk	2	ünk	2	11	TRUE	FALSE	high	typical	FALSE	TRUE	TRUE	TRUE
hungarian-esp_esp_participant_SESSION_2023-05-23_11h43.59.658.csv	HGFCTO	nő	2003	13	5	esp trial	41	János imád spibegezni, ezért sokat spibeglik. Mi ritkán...	spibegezünk	spibeglünk	1	spibeglünk	spibeglünk	TRUE	7532	652271	cselekszenek_2_high_typical	cselekszenek/cselekednek	6	spibeglik / spibegezik	0.5978370007556204	spibeglünk	spibegezünk	2	ünk	2	8	TRUE	FALSE	high	typical	FALSE	TRUE	TRUE	TRUE
hungarian-esp_esp_participant_SESSION_2023-05-23_11h43.59.658.csv	HGFCTO	nő	2003	13	5	esp trial	43	János imád spügözni, ezért sokat spügzik. Mi ritkán...	spügzünk	spügözünk	1	spügözünk	spügzünk	FALSE	14049	670335	cselekszenek_2_high_typical	cselekszenek/cselekednek	6	spügzik / spügözik	0.4595323293784402	spügzünk	spügözünk	1	ünk	2	13	TRUE	FALSE	high	typical	FALSE	FALSE	TRUE	FALSE
hungarian-esp_esp_participant_SESSION_2023-05-23_11h43.59.658.csv	HGFCTO	nő	2003	13	5	esp trial	45	János imád föködni, ezért sokat fökszik. Ők ritkán...	föködnek	fökszenek	1	fökszenek	fökszenek	TRUE	12934	687287	cselekszenek_2_high_typical	cselekszenek/cselekednek	6	fökszik / föködik	0.6418538861723947	fökszenek	föködnek	1	nek	2	6	TRUE	FALSE	high	typical	FALSE	TRUE	TRUE	TRUE
hungarian-esp_esp_participant_SESSION_2023-05-23_11h43.59.658.csv	HGFCTO	nő	2003	13	5	esp trial	47	János imád fröjözni, ezért sokat fröjzik. Ti ritkán...	fröjzötök	fröjöztök	1	fröjöztök	fröjöztök	TRUE	8758	700047	cselekszenek_2_high_typical	cselekszenek/cselekednek	6	fröjzik / fröjözik	-0.8938178760220964	fröjzötök	fröjöztök	1	tek	2	53	FALSE	TRUE	high	typical	FALSE	FALSE	FALSE	FALSE
hungarian-esp_esp_participant_SESSION_2023-05-23_11h43.59.658.csv	HGFCTO	nő	2003	13	5	esp trial	49	János imád flöközni, ezért sokat flöklik. Ti ritkán...	flököztök	flöklötök	1	flöklötök	flöklötök	TRUE	8367	712431	cselekszenek_2_high_typical	cselekszenek/cselekednek	6	flöklik / flöközik	-0.1431008436406733	flöklötök	flököztök	1	tek	2	37	FALSE	FALSE	high	typical	FALSE	TRUE	TRUE	TRUE
hungarian-esp_esp_participant_SESSION_2023-05-23_11h43.59.658.csv	HGFCTO	nő	2003	13	5	esp trial	51	János imád flüröközni, ezért sokat flüröklik. Ti ritkán...	flüröklötök	flürököztök	0	flüröklötök	flüröklötök	TRUE	12619	729071	cselekszenek_2_high_typical	cselekszenek/cselekednek	6	flüröklik / flüröközik	0.1941560144409574	flüröklötök	flürököztök	2	tek	2	23	FALSE	FALSE	high	typical	TRUE	TRUE	TRUE	TRUE
hungarian-esp_esp_participant_SESSION_2023-05-23_11h43.59.658.csv	HGFCTO	nő	2003	13	5	esp trial	53	János imád trivakodni, ezért sokat trivakszik. Mi ritkán...	trivakodunk	trivakszunk	1	trivakszunk	trivakszunk	TRUE	9779	742863	cselekszenek_2_high_typical	cselekszenek/cselekednek	6	trivakszik / trivakodik	0	trivakszunk	trivakodunk	2	ünk	2	32	FALSE	FALSE	high	typical	FALSE	TRUE	TRUE	TRUE
hungarian-esp_esp_participant_SESSION_2023-05-23_11h43.59.658.csv	HGFCTO	nő	2003	13	5	esp trial	55	János imád dujozni, ezért sokat dujzik. Ők ritkán...	dujzanak	dujoznak	0	dujzanak	dujzanak	TRUE	13496	760375	cselekszenek_2_high_typical	cselekszenek/cselekednek	6	dujzik / dujozik	0.3483066942682158	dujzanak	dujoznak	1	nek	2	16	FALSE	FALSE	high	typical	TRUE	TRUE	TRUE	TRUE
hungarian-esp_esp_participant_SESSION_2023-05-23_11h43.59.658.csv	HGFCTO	nő	2003	13	5	esp trial	57	János imád mülőrözni, ezért sokat mülőrzik. Mi ritkán...	mülőrzünk	mülőrözünk	0	mülőrzünk	mülőrzünk	TRUE	8925	773303	cselekszenek_2_high_typical	cselekszenek/cselekednek	6	mülőrzik / mülőrözik	0.28768207245178085	mülőrzünk	mülőrözünk	2	ünk	2	20	FALSE	FALSE	high	typical	TRUE	TRUE	TRUE	TRUE
hungarian-esp_esp_participant_SESSION_2023-05-23_11h43.59.658.csv	HGFCTO	nő	2003	13	5	esp trial	59	János imád mágamozni, ezért sokat mágamlik. Mi ritkán...	mágamozunk	mágamlunk	1	mágamlunk	mágamlunk	TRUE	9334	786655	cselekszenek_2_high_typical	cselekszenek/cselekednek	6	mágamlik / mágamozik	0.5877866649021191	mágamlunk	mágamozunk	2	ünk	2	9	TRUE	FALSE	high	typical	FALSE	TRUE	TRUE	TRUE
hungarian-esp_esp_participant_SESSION_2023-05-23_11h43.59.658.csv	HGFCTO	nő	2003	13	5	esp trial	61	János imád sprűrözni, ezért sokat sprűrlik. Ők ritkán...	sprűrlenek	sprűröznek	0	sprűrlenek	sprűrlenek	TRUE	10556	801215	cselekszenek_2_high_typical	cselekszenek/cselekednek	6	sprűrlik / sprűrözik	0.1941560144409574	sprűrlenek	sprűröznek	1	nek	2	24	FALSE	FALSE	high	typical	TRUE	TRUE	TRUE	TRUE
hungarian-esp_esp_participant_SESSION_2023-05-23_11h43.59.658.csv	HGFCTO	nő	2003	13	5	esp trial	63	János imád csibagozni, ezért sokat csibagzik. Ti ritkán...	csibagzotok	csibagoztok	0	csibagzotok	csibagoztok	FALSE	8715	813943	cselekszenek_2_high_typical	cselekszenek/cselekednek	6	csibagzik / csibagozik	-0.7985076962177716	csibagzotok	csibagoztok	2	tek	2	52	FALSE	TRUE	high	typical	TRUE	TRUE	FALSE	TRUE
hungarian-esp_esp_participant_SESSION_2023-05-23_11h43.59.658.csv	HGFCTO	nő	2003	13	5	esp trial	65	János imád frakozni, ezért sokat fraklik. Mi ritkán...	fraklunk	frakozunk	0	fraklunk	fraklunk	TRUE	10234	828207	cselekszenek_2_high_typical	cselekszenek/cselekednek	6	fraklik / frakozik	0.20763936477824457	fraklunk	frakozunk	1	ünk	2	21	FALSE	FALSE	high	typical	TRUE	TRUE	TRUE	TRUE
hungarian-esp_esp_participant_SESSION_2023-05-23_11h43.59.658.csv	HGFCTO	nő	2003	13	5	esp trial	67	János imád virozni, ezért sokat virzik. Ők ritkán...	virzanak	viroznak	0	virzanak	virzanak	TRUE	8251	840463	cselekszenek_2_high_typical	cselekszenek/cselekednek	6	virzik / virozik	0	virzanak	viroznak	1	nek	2	33	FALSE	FALSE	high	typical	TRUE	TRUE	TRUE	TRUE
hungarian-esp_esp_participant_SESSION_2023-05-23_11h43.59.658.csv	HGFCTO	nő	2003	13	5	esp trial	69	János imád nyürözni, ezért sokat nyürzik. Ők ritkán...	nyürzenek	nyüröznek	0	nyürzenek	nyürzenek	TRUE	8985	853463	cselekszenek_2_high_typical	cselekszenek/cselekednek	6	nyürzik / nyürözik	-0.06453852113757118	nyürzenek	nyüröznek	1	nek	2	34	FALSE	FALSE	high	typical	TRUE	TRUE	TRUE	TRUE
hungarian-esp_esp_participant_SESSION_2023-05-23_11h43.59.658.csv	HGFCTO	nő	2003	13	5	esp trial	71	János imád brözözni, ezért sokat brözlik. Ti ritkán...	brözlötök	brözöztök	0	brözlötök	brözlötök	TRUE	8282	865768	cselekszenek_2_high_typical	cselekszenek/cselekednek	6	brözlik / brözözik	0.06899287148695142	brözlötök	brözöztök	1	tek	2	27	FALSE	FALSE	high	typical	TRUE	TRUE	TRUE	TRUE
hungarian-esp_esp_participant_SESSION_2023-05-23_11h43.59.658.csv	HGFCTO	nő	2003	13	5	esp trial	73	János imád flűgözni, ezért sokat flűgzik. Mi ritkán...	flűgözünk	flűgzünk	1	flűgzünk	flűgzünk	TRUE	8802	878584	cselekszenek_2_high_typical	cselekszenek/cselekednek	6	flűgzik / flűgözik	0.32542240043462795	flűgzünk	flűgözünk	1	ünk	2	18	FALSE	FALSE	high	typical	FALSE	TRUE	TRUE	TRUE
hungarian-esp_esp_participant_SESSION_2023-05-23_11h43.59.658.csv	HGFCTO	nő	2003	13	5	esp trial	75	János imád drűrözni, ezért sokat drűrzik. Ők ritkán...	drűröznek	drűrzenek	1	drűrzenek	drűröznek	FALSE	9486	892087	cselekszenek_2_high_typical	cselekszenek/cselekednek	6	drűrzik / drűrözik	-0.3483066942682157	drűrzenek	drűröznek	1	nek	2	44	FALSE	TRUE	high	typical	FALSE	TRUE	FALSE	TRUE
hungarian-esp_esp_participant_SESSION_2023-05-23_11h43.59.658.csv	HGFCTO	nő	2003	13	5	esp trial	77	János imád sprudozni, ezért sokat sprudlik. Mi ritkán...	sprudlunk	sprudozunk	0	sprudlunk	sprudozunk	FALSE	9094	905183	cselekszenek_2_high_typical	cselekszenek/cselekednek	6	sprudlik / sprudozik	-0.2076393647782445	sprudlunk	sprudozunk	1	ünk	2	40	FALSE	TRUE	high	typical	TRUE	TRUE	FALSE	TRUE
hungarian-esp_esp_participant_SESSION_2023-05-23_11h43.59.658.csv	HGFCTO	nő	2003	13	5	esp trial	79	János imád drilarozni, ezért sokat drilarzik. Mi ritkán...	drilarozunk	drilarzunk	1	drilarzunk	drilarozunk	FALSE	12253	921447	cselekszenek_2_high_typical	cselekszenek/cselekednek	6	drilarzik / drilarozik	-0.4353180712578455	drilarzunk	drilarozunk	2	ünk	2	46	FALSE	TRUE	high	typical	FALSE	TRUE	FALSE	TRUE
hungarian-esp_esp_participant_SESSION_2023-05-23_11h43.59.658.csv	HGFCTO	nő	2003	13	5	esp trial	81	János imád dabozni, ezért sokat dabzik. Ti ritkán...	daboztok	dabzotok	1	dabzotok	dabzotok	TRUE	6115	931566	cselekszenek_2_high_typical	cselekszenek/cselekednek	6	dabzik / dabozik	-0.1941560144409575	dabzotok	daboztok	1	tek	2	38	FALSE	FALSE	high	typical	FALSE	TRUE	TRUE	TRUE
hungarian-esp_esp_participant_SESSION_2023-05-23_11h43.59.658.csv	HGFCTO	nő	2003	13	5	esp trial	83	János imád trugokozni, ezért sokat trugoklik. Ők ritkán...	trugoklanak	trugokoznak	0	trugoklanak	trugoklanak	TRUE	9762	945343	cselekszenek_2_high_typical	cselekszenek/cselekednek	6	trugoklik / trugokozik	0.14310084364067324	trugoklanak	trugokoznak	2	nek	2	26	FALSE	FALSE	high	typical	TRUE	TRUE	TRUE	TRUE
hungarian-esp_esp_participant_SESSION_2023-05-23_11h43.59.658.csv	HGFCTO	nő	2003	13	5	esp trial	85	János imád dilakozni, ezért sokat dilaklik. Ti ritkán...	dilakoztok	dilaklotok	1	dilaklotok	dilakoztok	FALSE	12940	962295	cselekszenek_2_high_typical	cselekszenek/cselekednek	6	dilaklik / dilakozik	-0.4595323293784402	dilaklotok	dilakoztok	2	tek	2	47	FALSE	TRUE	high	typical	FALSE	TRUE	FALSE	TRUE
hungarian-esp_esp_participant_SESSION_2023-05-23_11h43.59.658.csv	HGFCTO	nő	2003	13	5	esp trial	87	János imád lűközni, ezért sokat lűklik. Ők ritkán...	lűköznek	lűklenek	1	lűklenek	lűköznek	FALSE	9057	975375	cselekszenek_2_high_typical	cselekszenek/cselekednek	6	lűklik / lűközik	-0.2876820724517809	lűklenek	lűköznek	1	nek	2	41	FALSE	TRUE	high	typical	FALSE	TRUE	FALSE	TRUE
hungarian-esp_esp_participant_SESSION_2023-05-23_11h43.59.658.csv	HGFCTO	nő	2003	13	5	esp trial	89	János imád trugozni, ezért sokat trugzik. Ők ritkán...	trugoznak	trugzanak	1	trugzanak	trugoznak	FALSE	14452	993854	cselekszenek_2_high_typical	cselekszenek/cselekednek	6	trugzik / trugozik	-0.4595323293784402	trugzanak	trugoznak	1	nek	2	48	FALSE	TRUE	high	typical	FALSE	TRUE	FALSE	TRUE
hungarian-esp_esp_participant_SESSION_2023-05-23_11h43.59.658.csv	HGFCTO	nő	2003	13	5	esp trial	91	János imád pilégedni, ezért sokat pilégszik. Ők ritkán...	pilégszenek	pilégednek	0	pilégszenek	pilégszenek	TRUE	9253	1007143	cselekszenek_2_high_typical	cselekszenek/cselekednek	6	pilégszik / pilégedik	0.6418538861723947	pilégszenek	pilégednek	2	nek	2	7	TRUE	FALSE	high	typical	TRUE	TRUE	TRUE	TRUE
hungarian-esp_esp_participant_SESSION_2023-05-23_11h43.59.658.csv	HGFCTO	nő	2003	13	5	esp trial	93	János imád kűdözni, ezért sokat kűdlik. Ők ritkán...	kűdöznek	kűdlenek	1	kűdlenek	kűdlenek	TRUE	6340	1017502	cselekszenek_2_high_typical	cselekszenek/cselekednek	6	kűdlik / kűdözik	0.7985076962177716	kűdlenek	kűdöznek	1	nek	2	3	TRUE	FALSE	high	typical	FALSE	TRUE	TRUE	TRUE
hungarian-esp_esp_participant_SESSION_2023-05-23_11h43.59.658.csv	HGFCTO	nő	2003	13	5	esp trial	95	János imád pragányozni, ezért sokat pragánylik. Ti ritkán...	pragányoztok	pragánylotok	1	pragánylotok	pragánylotok	TRUE	6208	1027727	cselekszenek_2_high_typical	cselekszenek/cselekednek	6	pragánylik / pragányozik	0	pragánylotok	pragányoztok	2	tek	2	31	FALSE	FALSE	high	typical	FALSE	TRUE	TRUE	TRUE
hungarian-esp_esp_participant_SESSION_2023-05-23_11h43.59.658.csv	HGFCTO	nő	2003	13	5	esp trial	97	János imád bratározni, ezért sokat bratárzik. Ők ritkán...	bratároznak	bratárzanak	0	bratároznak	bratároznak	TRUE	17517	1049280	cselekszenek_2_high_typical	cselekszenek/cselekednek	6	bratárzik / bratározik	-1.2992829841302609	bratárzanak	bratároznak	2	nek	2	54	FALSE	TRUE	high	typical	TRUE	FALSE	FALSE	FALSE
hungarian-esp_esp_participant_SESSION_2023-05-23_11h43.59.658.csv	HGFCTO	nő	2003	13	5	esp trial	99	János imád spirágozni, ezért sokat spiráglik. Ti ritkán...	spirágoztok	spiráglotok	1	spiráglotok	spirágoztok	FALSE	12986	1066288	cselekszenek_2_high_typical	cselekszenek/cselekednek	6	spiráglik / spirágozik	-0.2876820724517809	spiráglotok	spirágoztok	2	tek	2	42	FALSE	TRUE	high	typical	FALSE	TRUE	FALSE	TRUE
hungarian-esp_esp_participant_SESSION_2023-05-23_11h43.59.658.csv	HGFCTO	nő	2003	13	5	esp trial	101	János imád köszözni, ezért sokat köszlik. Ti ritkán...	köszöztök	köszlötök	1	köszlötök	köszöztök	FALSE	6829	1077127	cselekszenek_2_high_typical	cselekszenek/cselekednek	6	köszlik / köszözik	-0.3483066942682157	köszlötök	köszöztök	1	tek	2	45	FALSE	TRUE	high	typical	FALSE	TRUE	FALSE	TRUE
hungarian-esp_esp_participant_SESSION_2023-05-23_11h43.59.658.csv	HGFCTO	nő	2003	13	5	esp trial	103	János imád lájozni, ezért sokat lájzik. Ti ritkán...	lájzotok	lájoztok	1	lájoztok	lájzotok	FALSE	7366	1088511	cselekszenek_2_high_typical	cselekszenek/cselekednek	6	lájzik / lájozik	0.4353180712578455	lájzotok	lájoztok	1	tek	2	15	TRUE	FALSE	high	typical	FALSE	FALSE	TRUE	FALSE
hungarian-esp_esp_participant_SESSION_2023-05-23_11h43.59.658.csv	HGFCTO	nő	2003	13	5	esp trial	105	János imád klehényezni, ezért sokat klehénylik. Ti ritkán...	klehényeztek	klehényletek	1	klehényletek	klehényletek	TRUE	8023	1100544	cselekszenek_2_high_typical	cselekszenek/cselekednek	6	klehénylik / klehényezik	0.32542240043462795	klehényletek	klehényeztek	2	tek	2	19	FALSE	FALSE	high	typical	FALSE	TRUE	TRUE	TRUE
hungarian-esp_esp_participant_SESSION_2023-05-23_11h43.59.658.csv	HGFCTO	nő	2003	13	5	esp trial	107	János imád privékedni, ezért sokat privékszik. Ők ritkán...	privékszenek	privékednek	1	privékednek	privékszenek	FALSE	7586	1112143	cselekszenek_2_high_typical	cselekszenek/cselekednek	6	privékszik / privékedik	0.06899287148695142	privékszenek	privékednek	2	nek	2	28	FALSE	FALSE	high	typical	FALSE	FALSE	TRUE	FALSE
hungarian-esp_esp_participant_SESSION_2023-05-23_11h43.59.658.csv	HGFCTO	nő	2003	13	5	esp trial	109	János imád prögözni, ezért sokat prögzik. Ti ritkán...	prögzötök	prögöztök	1	prögöztök	prögöztök	TRUE	5561	1121711	cselekszenek_2_high_typical	cselekszenek/cselekednek	6	prögzik / prögözik	-0.6418538861723948	prögzötök	prögöztök	1	tek	2	51	FALSE	TRUE	high	typical	FALSE	FALSE	FALSE	FALSE
hungarian-esp_esp_participant_SESSION_2023-05-23_11h43.59.658.csv	HGFCTO	nő	2003	13	5	esp trial	111	János imád sprozozni, ezért sokat sprozlik. Ők ritkán...	sprozlanak	sprozoznak	0	sprozlanak	sprozlanak	TRUE	9747	1135463	cselekszenek_2_high_typical	cselekszenek/cselekednek	6	sprozlik / sprozozik	0.14310084364067324	sprozlanak	sprozoznak	1	nek	2	25	FALSE	FALSE	high	typical	TRUE	TRUE	TRUE	TRUE
hungarian-esp_esp_participant_SESSION_2023-05-23_11h43.59.658.csv	HGFCTO	nő	2003	13	5	esp trial	113	János imád brülösözni, ezért sokat brülöslik. Mi ritkán...	brülöslünk	brülösözünk	0	brülöslünk	brülöslünk	TRUE	10444	1149928	cselekszenek_2_high_typical	cselekszenek/cselekednek	6	brülöslik / brülösözik	-0.06899287148695143	brülöslünk	brülösözünk	2	ünk	2	35	FALSE	FALSE	high	typical	TRUE	TRUE	TRUE	TRUE
hungarian-esp_esp_participant_SESSION_2023-05-23_11h43.59.658.csv	HGFCTO	nő	2003	13	5	esp trial	115	János imád flemezni, ezért sokat flemlik. Mi ritkán...	flemezünk	flemlünk	1	flemlünk	flemezünk	FALSE	9821	1163751	cselekszenek_2_high_typical	cselekszenek/cselekednek	6	flemlik / flemezik	-0.5978370007556204	flemlünk	flemezünk	1	ünk	2	49	FALSE	TRUE	high	typical	FALSE	TRUE	FALSE	TRUE
hungarian-esp_esp_participant_SESSION_2023-05-23_11h43.59.658.csv	HGFCTO	nő	2003	13	5	esp trial	117	János imád dirozni, ezért sokat dirlik. Ti ritkán...	diroztok	dirlotok	0	diroztok	dirlotok	FALSE	7818	1175591	cselekszenek_2_high_typical	cselekszenek/cselekednek	6	dirlik / dirozik	0	dirlotok	diroztok	1	tek	2	30	FALSE	FALSE	high	typical	TRUE	FALSE	TRUE	FALSE
hungarian-esp_esp_participant_SESSION_2023-05-23_11h43.59.658.csv	HGFCTO	nő	2003	13	8	posttest trial	120	János imád fröjözni, ezért sokat fröjlik. Mi ritkán...	fröjlünk	fröjözünk	1	fröjözünk	NA	NA	14918	1207336	cselekszenek_3_high_reversed	cselekszenek/cselekednek	9	fröjlik / fröjözik	0.32542240043462795	fröjlünk	fröjözünk	1	ünk	3	18	FALSE	FALSE	high	typical	FALSE	FALSE	NA	NA
hungarian-esp_esp_participant_SESSION_2023-05-23_11h43.59.658.csv	HGFCTO	nő	2003	13	8	posttest trial	121	János imád vobozni, ezért sokat vobzik. Ti ritkán...	vobzotok	voboztok	1	voboztok	NA	NA	12314	1220151	cselekszenek_3_high_reversed	cselekszenek/cselekednek	9	vobzik / vobozik	-0.2876820724517809	vobzotok	voboztok	1	tek	3	42	FALSE	TRUE	high	typical	FALSE	FALSE	NA	NA
hungarian-esp_esp_participant_SESSION_2023-05-23_11h43.59.658.csv	HGFCTO	nő	2003	13	8	posttest trial	122	János imád galározni, ezért sokat galárzik. Ők ritkán...	galároznak	galárzanak	0	galároznak	NA	NA	15203	1235855	cselekszenek_3_high_reversed	cselekszenek/cselekednek	9	galárzik / galározik	-0.49247648509779407	galárzanak	galároznak	2	nek	3	48	FALSE	TRUE	high	typical	TRUE	FALSE	NA	NA
hungarian-esp_esp_participant_SESSION_2023-05-23_11h43.59.658.csv	HGFCTO	nő	2003	13	8	posttest trial	123	János imád frihegezni, ezért sokat friheglik. Mi ritkán...	frihegezünk	friheglünk	1	friheglünk	NA	NA	7518	1243879	cselekszenek_3_high_reversed	cselekszenek/cselekednek	9	friheglik / frihegezik	0.06899287148695142	friheglünk	frihegezünk	2	ünk	3	27	FALSE	FALSE	high	typical	FALSE	TRUE	NA	NA
hungarian-esp_esp_participant_SESSION_2023-05-23_11h43.59.658.csv	HGFCTO	nő	2003	13	8	posttest trial	124	János imád flubokozni, ezért sokat fluboklik. Ti ritkán...	flubokoztok	fluboklotok	1	fluboklotok	NA	NA	12817	1257199	cselekszenek_3_high_reversed	cselekszenek/cselekednek	9	fluboklik / flubokozik	-0.5978370007556204	fluboklotok	flubokoztok	2	tek	3	49	FALSE	TRUE	high	typical	FALSE	TRUE	NA	NA
hungarian-esp_esp_participant_SESSION_2023-05-23_11h43.59.658.csv	HGFCTO	nő	2003	13	8	posttest trial	125	János imád tribejezni, ezért sokat tribejlik. Ti ritkán...	tribejletek	tribejeztek	0	tribejletek	NA	NA	11981	1269695	cselekszenek_3_high_reversed	cselekszenek/cselekednek	9	tribejlik / tribejezik	-0.5978370007556204	tribejletek	tribejeztek	2	tek	3	50	FALSE	TRUE	high	typical	TRUE	TRUE	NA	NA
hungarian-esp_esp_participant_SESSION_2023-05-23_11h43.59.658.csv	HGFCTO	nő	2003	13	8	posttest trial	126	János imád drivegezni, ezért sokat drivegzik. Ti ritkán...	drivegzetek	drivegeztek	1	drivegeztek	NA	NA	7691	1277887	cselekszenek_3_high_reversed	cselekszenek/cselekednek	9	drivegzik / drivegezik	-0.4353180712578455	drivegzetek	drivegeztek	2	tek	3	46	FALSE	TRUE	high	typical	FALSE	FALSE	NA	NA
hungarian-esp_esp_participant_SESSION_2023-05-23_11h43.59.658.csv	HGFCTO	nő	2003	13	8	posttest trial	127	János imád prilepedni, ezért sokat prilepszik. Mi ritkán...	prilepedünk	prilepszünk	1	prilepszünk	NA	NA	16867	1295255	cselekszenek_3_high_reversed	cselekszenek/cselekednek	9	prilepszik / prilepedik	0.8938178760220965	prilepszünk	prilepedünk	2	ünk	3	2	TRUE	FALSE	high	typical	FALSE	TRUE	NA	NA
hungarian-esp_esp_participant_SESSION_2023-05-23_11h43.59.658.csv	HGFCTO	nő	2003	13	8	posttest trial	128	János imád filányozni, ezért sokat filánylik. Mi ritkán...	filányozunk	filánylunk	1	filánylunk	NA	NA	5363	1301119	cselekszenek_3_high_reversed	cselekszenek/cselekednek	9	filánylik / filányozik	0	filánylunk	filányozunk	2	ünk	3	30	FALSE	FALSE	high	typical	FALSE	TRUE	NA	NA
hungarian-esp_esp_participant_SESSION_2023-05-23_11h43.59.658.csv	HGFCTO	nő	2003	13	8	posttest trial	129	János imád sponyozni, ezért sokat sponylik. Ők ritkán...	sponylanak	sponyoznak	0	sponylanak	NA	NA	8098	1309719	cselekszenek_3_high_reversed	cselekszenek/cselekednek	9	sponylik / sponyozik	0.7419373447293773	sponylanak	sponyoznak	1	nek	3	5	TRUE	FALSE	high	typical	TRUE	TRUE	NA	NA
hungarian-esp_esp_participant_SESSION_2023-05-23_11h43.59.658.csv	HGFCTO	nő	2003	13	8	posttest trial	130	János imád mísozni, ezért sokat míslik. Mi ritkán...	mísozunk	míslunk	0	mísozunk	NA	NA	6795	1317015	cselekszenek_3_high_reversed	cselekszenek/cselekednek	9	míslik / mísozik	0.3483066942682158	míslunk	mísozunk	1	ünk	3	16	FALSE	FALSE	high	typical	TRUE	FALSE	NA	NA
hungarian-esp_esp_participant_SESSION_2023-05-23_11h43.59.658.csv	HGFCTO	nő	2003	13	8	posttest trial	131	János imád klarágozni, ezért sokat klarágzik. Ti ritkán...	klarágoztok	klarágzotok	1	klarágzotok	NA	NA	13674	1331191	cselekszenek_3_high_reversed	cselekszenek/cselekednek	9	klarágzik / klarágozik	-0.916290731874155	klarágzotok	klarágoztok	2	tek	3	53	FALSE	TRUE	high	typical	FALSE	TRUE	NA	NA
hungarian-esp_esp_participant_SESSION_2023-05-23_11h43.59.658.csv	HGFCTO	nő	2003	13	8	posttest trial	132	János imád brüszözni, ezért sokat brüszlik. Ti ritkán...	brüszlötök	brüszöztök	0	brüszlötök	NA	NA	5610	1337303	cselekszenek_3_high_reversed	cselekszenek/cselekednek	9	brüszlik / brüszözik	-0.2076393647782445	brüszlötök	brüszöztök	1	tek	3	39	FALSE	FALSE	high	typical	TRUE	TRUE	NA	NA
hungarian-esp_esp_participant_SESSION_2023-05-23_11h43.59.658.csv	HGFCTO	nő	2003	13	8	posttest trial	133	János imád brivepedni, ezért sokat brivepszik. Mi ritkán...	brivepszünk	brivepedünk	1	brivepedünk	NA	NA	15818	1353623	cselekszenek_3_high_reversed	cselekszenek/cselekednek	9	brivepszik / brivepedik	0.9162907318741552	brivepszünk	brivepedünk	2	ünk	3	1	TRUE	FALSE	high	typical	FALSE	FALSE	NA	NA
hungarian-esp_esp_participant_SESSION_2023-05-23_11h43.59.658.csv	HGFCTO	nő	2003	13	8	posttest trial	134	János imád brálamozni, ezért sokat brálamlik. Ők ritkán...	brálamoznak	brálamlanak	0	brálamoznak	NA	NA	7431	1361560	cselekszenek_3_high_reversed	cselekszenek/cselekednek	9	brálamlik / brálamozik	0.4353180712578455	brálamlanak	brálamoznak	2	nek	3	13	TRUE	FALSE	high	typical	TRUE	FALSE	NA	NA
hungarian-esp_esp_participant_SESSION_2023-05-23_11h43.59.658.csv	HGFCTO	nő	2003	13	8	posttest trial	135	János imád drojozni, ezért sokat drojzik. Mi ritkán...	drojzunk	drojozunk	0	drojzunk	NA	NA	7508	1369575	cselekszenek_3_high_reversed	cselekszenek/cselekednek	9	drojzik / drojozik	0.32542240043462795	drojzunk	drojozunk	1	ünk	3	17	FALSE	FALSE	high	typical	TRUE	TRUE	NA	NA
hungarian-esp_esp_participant_SESSION_2023-05-23_11h43.59.658.csv	HGFCTO	nő	2003	13	8	posttest trial	136	János imád flézezni, ezért sokat flézlik. Ti ritkán...	flézletek	flézeztek	0	flézletek	NA	NA	5379	1375456	cselekszenek_3_high_reversed	cselekszenek/cselekednek	9	flézlik / flézezik	-0.4595323293784402	flézletek	flézeztek	1	tek	3	47	FALSE	TRUE	high	typical	TRUE	TRUE	NA	NA
hungarian-esp_esp_participant_SESSION_2023-05-23_11h43.59.658.csv	HGFCTO	nő	2003	13	8	posttest trial	137	János imád pehégedni, ezért sokat pehégszik. Ti ritkán...	pehégszetek	pehégedtek	0	pehégszetek	NA	NA	8714	1384672	cselekszenek_3_high_reversed	cselekszenek/cselekednek	9	pehégszik / pehégedik	0.4353180712578455	pehégszetek	pehégedtek	2	tek	3	15	TRUE	FALSE	high	typical	TRUE	TRUE	NA	NA
hungarian-esp_esp_participant_SESSION_2023-05-23_11h43.59.658.csv	HGFCTO	nő	2003	13	8	posttest trial	138	János imád brározni, ezért sokat brárlik. Ők ritkán...	brárlanak	brároznak	0	brárlanak	NA	NA	7702	1392880	cselekszenek_3_high_reversed	cselekszenek/cselekednek	9	brárlik / brározik	0.14310084364067324	brárlanak	brároznak	1	nek	3	24	FALSE	FALSE	high	typical	TRUE	TRUE	NA	NA
hungarian-esp_esp_participant_SESSION_2023-05-23_11h43.59.658.csv	HGFCTO	nő	2003	13	8	posttest trial	139	János imád tágarozni, ezért sokat tágarzik. Mi ritkán...	tágarozunk	tágarzunk	1	tágarzunk	NA	NA	7891	1401272	cselekszenek_3_high_reversed	cselekszenek/cselekednek	9	tágarzik / tágarozik	-0.06899287148695143	tágarzunk	tágarozunk	2	ünk	3	36	FALSE	FALSE	high	typical	FALSE	TRUE	NA	NA
hungarian-esp_esp_participant_SESSION_2023-05-23_11h43.59.658.csv	HGFCTO	nő	2003	13	8	posttest trial	140	János imád sprigozni, ezért sokat sprigzik. Ti ritkán...	sprigzotok	sprigoztok	0	sprigzotok	NA	NA	9443	1411216	cselekszenek_3_high_reversed	cselekszenek/cselekednek	9	sprigzik / sprigozik	-1.4271163556401458	sprigzotok	sprigoztok	1	tek	3	54	FALSE	TRUE	high	typical	TRUE	TRUE	NA	NA
hungarian-esp_esp_participant_SESSION_2023-05-23_11h43.59.658.csv	HGFCTO	nő	2003	13	8	posttest trial	141	János imád pekedni, ezért sokat pekszik. Mi ritkán...	pekszünk	pekedünk	0	pekszünk	NA	NA	10817	1422544	cselekszenek_3_high_reversed	cselekszenek/cselekednek	9	pekszik / pekedik	0.7985076962177716	pekszünk	pekedünk	1	ünk	3	3	TRUE	FALSE	high	typical	TRUE	TRUE	NA	NA
hungarian-esp_esp_participant_SESSION_2023-05-23_11h43.59.658.csv	HGFCTO	nő	2003	13	8	posttest trial	142	János imád kluzozni, ezért sokat kluzlik. Ti ritkán...	kluzoztok	kluzlotok	1	kluzlotok	NA	NA	7979	1431025	cselekszenek_3_high_reversed	cselekszenek/cselekednek	9	kluzlik / kluzozik	-0.325422400434628	kluzlotok	kluzoztok	1	tek	3	43	FALSE	TRUE	high	typical	FALSE	TRUE	NA	NA
hungarian-esp_esp_participant_SESSION_2023-05-23_11h43.59.658.csv	HGFCTO	nő	2003	13	8	posttest trial	143	János imád mihágozni, ezért sokat mihágzik. Ti ritkán...	mihágoztok	mihágzotok	1	mihágzotok	NA	NA	8305	1439832	cselekszenek_3_high_reversed	cselekszenek/cselekednek	9	mihágzik / mihágozik	-0.7419373447293773	mihágzotok	mihágoztok	2	tek	3	51	FALSE	TRUE	high	typical	FALSE	TRUE	NA	NA
hungarian-esp_esp_participant_SESSION_2023-05-23_11h43.59.658.csv	HGFCTO	nő	2003	13	8	posttest trial	144	János imád riványozni, ezért sokat riványlik. Ti ritkán...	riványoztok	riványlotok	1	riványlotok	NA	NA	8715	1449048	cselekszenek_3_high_reversed	cselekszenek/cselekednek	9	riványlik / riványozik	0.06899287148695142	riványlotok	riványoztok	2	tek	3	28	FALSE	FALSE	high	typical	FALSE	TRUE	NA	NA
hungarian-esp_esp_participant_SESSION_2023-05-23_11h43.59.658.csv	HGFCTO	nő	2003	13	8	posttest trial	145	János imád frivamozni, ezért sokat frivamlik. Mi ritkán...	frivamlunk	frivamozunk	0	frivamlunk	NA	NA	10763	1460312	cselekszenek_3_high_reversed	cselekszenek/cselekednek	9	frivamlik / frivamozik	0.7419373447293773	frivamlunk	frivamozunk	2	ünk	3	4	TRUE	FALSE	high	typical	TRUE	TRUE	NA	NA
hungarian-esp_esp_participant_SESSION_2023-05-23_11h43.59.658.csv	HGFCTO	nő	2003	13	8	posttest trial	146	János imád gibemezni, ezért sokat gibemlik. Mi ritkán...	gibemlünk	gibemezünk	0	gibemlünk	NA	NA	8650	1469463	cselekszenek_3_high_reversed	cselekszenek/cselekednek	9	gibemlik / gibemezik	0.4353180712578455	gibemlünk	gibemezünk	2	ünk	3	14	TRUE	FALSE	high	typical	TRUE	TRUE	NA	NA
hungarian-esp_esp_participant_SESSION_2023-05-23_11h43.59.658.csv	HGFCTO	nő	2003	13	8	posttest trial	147	János imád gatágozni, ezért sokat gatáglik. Mi ritkán...	gatágozunk	gatáglunk	0	gatágozunk	NA	NA	12875	1482839	cselekszenek_3_high_reversed	cselekszenek/cselekednek	9	gatáglik / gatágozik	-0.7985076962177716	gatáglunk	gatágozunk	2	ünk	3	52	FALSE	TRUE	high	typical	TRUE	FALSE	NA	NA
hungarian-esp_esp_participant_SESSION_2023-05-23_11h43.59.658.csv	HGFCTO	nő	2003	13	8	posttest trial	148	János imád sprimozni, ezért sokat sprimlik. Mi ritkán...	sprimlunk	sprimozunk	0	sprimlunk	NA	NA	15937	1499279	cselekszenek_3_high_reversed	cselekszenek/cselekednek	9	sprimlik / sprimozik	0.20763936477824457	sprimlunk	sprimozunk	1	ünk	3	22	FALSE	FALSE	high	typical	TRUE	TRUE	NA	NA
hungarian-esp_esp_participant_SESSION_2023-05-23_11h43.59.658.csv	HGFCTO	nő	2003	13	8	posttest trial	149	János imád trűnyözni, ezért sokat trűnylik. Ők ritkán...	trűnyöznek	trűnylenek	1	trűnylenek	NA	NA	8834	1508615	cselekszenek_3_high_reversed	cselekszenek/cselekednek	9	trűnylik / trűnyözik	0	trűnylenek	trűnyöznek	1	nek	3	32	FALSE	FALSE	high	typical	FALSE	TRUE	NA	NA
hungarian-esp_esp_participant_SESSION_2023-05-23_11h43.59.658.csv	HGFCTO	nő	2003	13	8	posttest trial	150	János imád livényezni, ezért sokat livénylik. Mi ritkán...	livényezünk	livénylünk	1	livénylünk	NA	NA	7283	1516399	cselekszenek_3_high_reversed	cselekszenek/cselekednek	9	livénylik / livényezik	0.4595323293784402	livénylünk	livényezünk	2	ünk	3	12	TRUE	FALSE	high	typical	FALSE	TRUE	NA	NA
hungarian-esp_esp_participant_SESSION_2023-05-23_11h43.59.658.csv	HGFCTO	nő	2003	13	8	posttest trial	151	János imád spöközni, ezért sokat spöklik. Mi ritkán...	spöklünk	spöközünk	0	spöklünk	NA	NA	7583	1524486	cselekszenek_3_high_reversed	cselekszenek/cselekednek	9	spöklik / spöközik	0.5978370007556204	spöklünk	spöközünk	1	ünk	3	8	TRUE	FALSE	high	typical	TRUE	TRUE	NA	NA
hungarian-esp_esp_participant_SESSION_2023-05-23_11h43.59.658.csv	HGFCTO	nő	2003	13	8	posttest trial	152	János imád sztritozni, ezért sokat sztritlik. Ők ritkán...	sztritlanak	sztritoznak	0	sztritlanak	NA	NA	9082	1534071	cselekszenek_3_high_reversed	cselekszenek/cselekednek	9	sztritlik / sztritozik	0.14310084364067324	sztritlanak	sztritoznak	1	nek	3	25	FALSE	FALSE	high	typical	TRUE	TRUE	NA	NA
hungarian-esp_esp_participant_SESSION_2023-05-23_11h43.59.658.csv	HGFCTO	nő	2003	13	8	posttest trial	153	János imád hákodni, ezért sokat hákszik. Ők ritkán...	hákszanak	hákodnak	0	hákszanak	NA	NA	9353	1543935	cselekszenek_3_high_reversed	cselekszenek/cselekednek	9	hákszik / hákodik	0.06453852113757116	hákszanak	hákodnak	1	nek	3	29	FALSE	FALSE	high	typical	TRUE	TRUE	NA	NA
hungarian-esp_esp_participant_SESSION_2023-05-23_11h43.59.658.csv	HGFCTO	nő	2003	13	8	posttest trial	154	János imád nágapodni, ezért sokat nágapszik. Ők ritkán...	nágapodnak	nágapszanak	1	nágapszanak	NA	NA	9016	1553457	cselekszenek_3_high_reversed	cselekszenek/cselekednek	9	nágapszik / nágapodik	0.28768207245178085	nágapszanak	nágapodnak	2	nek	3	20	FALSE	FALSE	high	typical	FALSE	TRUE	NA	NA
hungarian-esp_esp_participant_SESSION_2023-05-23_11h43.59.658.csv	HGFCTO	nő	2003	13	8	posttest trial	155	János imád prazozni, ezért sokat prazlik. Mi ritkán...	prazozunk	prazlunk	1	prazlunk	NA	NA	6698	1560655	cselekszenek_3_high_reversed	cselekszenek/cselekednek	9	prazlik / prazozik	-0.1941560144409575	prazlunk	prazozunk	1	ünk	3	38	FALSE	FALSE	high	typical	FALSE	TRUE	NA	NA
hungarian-esp_esp_participant_SESSION_2023-05-23_11h43.59.658.csv	HGFCTO	nő	2003	13	8	posttest trial	156	János imád míjozni, ezért sokat míjzik. Mi ritkán...	míjozunk	míjzunk	0	míjozunk	NA	NA	8084	1569240	cselekszenek_3_high_reversed	cselekszenek/cselekednek	9	míjzik / míjozik	0.1941560144409574	míjzunk	míjozunk	1	ünk	3	23	FALSE	FALSE	high	typical	TRUE	FALSE	NA	NA
hungarian-esp_esp_participant_SESSION_2023-05-23_11h43.59.658.csv	HGFCTO	nő	2003	13	8	posttest trial	157	János imád brivágozni, ezért sokat briváglik. Ők ritkán...	briváglanak	brivágoznak	0	briváglanak	NA	NA	8802	1578543	cselekszenek_3_high_reversed	cselekszenek/cselekednek	9	briváglik / brivágozik	-0.2876820724517809	briváglanak	brivágoznak	2	nek	3	40	FALSE	TRUE	high	typical	TRUE	TRUE	NA	NA
hungarian-esp_esp_participant_SESSION_2023-05-23_11h43.59.658.csv	HGFCTO	nő	2003	13	8	posttest trial	158	János imád trírozni, ezért sokat trírzik. Mi ritkán...	trírzunk	trírozunk	0	trírzunk	NA	NA	6250	1585295	cselekszenek_3_high_reversed	cselekszenek/cselekednek	9	trírzik / trírozik	-0.06453852113757118	trírzunk	trírozunk	1	ünk	3	34	FALSE	FALSE	high	typical	TRUE	TRUE	NA	NA
hungarian-esp_esp_participant_SESSION_2023-05-23_11h43.59.658.csv	HGFCTO	nő	2003	13	8	posttest trial	159	János imád flivegezni, ezért sokat flivegzik. Ők ritkán...	flivegeznek	flivegzenek	1	flivegzenek	NA	NA	18914	1604719	cselekszenek_3_high_reversed	cselekszenek/cselekednek	9	flivegzik / flivegezik	-0.3483066942682157	flivegzenek	flivegeznek	2	nek	3	44	FALSE	TRUE	high	typical	FALSE	TRUE	NA	NA
hungarian-esp_esp_participant_SESSION_2023-05-23_11h43.59.658.csv	HGFCTO	nő	2003	13	8	posttest trial	160	János imád tibarozni, ezért sokat tibarzik. Ők ritkán...	tibarzanak	tibaroznak	1	tibaroznak	NA	NA	7379	1612599	cselekszenek_3_high_reversed	cselekszenek/cselekednek	9	tibarzik / tibarozik	0	tibarzanak	tibaroznak	2	nek	3	31	FALSE	FALSE	high	typical	FALSE	FALSE	NA	NA
hungarian-esp_esp_participant_SESSION_2023-05-23_11h43.59.658.csv	HGFCTO	nő	2003	13	8	posttest trial	161	János imád sztrajozni, ezért sokat sztrajlik. Ők ritkán...	sztrajlanak	sztrajoznak	0	sztrajlanak	NA	NA	8801	1621904	cselekszenek_3_high_reversed	cselekszenek/cselekednek	9	sztrajlik / sztrajozik	0.49247648509779424	sztrajlanak	sztrajoznak	1	nek	3	11	TRUE	FALSE	high	typical	TRUE	TRUE	NA	NA
hungarian-esp_esp_participant_SESSION_2023-05-23_11h43.59.658.csv	HGFCTO	nő	2003	13	8	posttest trial	162	János imád lírozni, ezért sokat lírlik. Ők ritkán...	líroznak	lírlanak	0	líroznak	NA	NA	9499	1631911	cselekszenek_3_high_reversed	cselekszenek/cselekednek	9	lírlik / lírozik	-0.06453852113757118	lírlanak	líroznak	1	nek	3	33	FALSE	FALSE	high	typical	TRUE	FALSE	NA	NA
hungarian-esp_esp_participant_SESSION_2023-05-23_11h43.59.658.csv	HGFCTO	nő	2003	13	8	posttest trial	163	János imád dirányozni, ezért sokat diránylik. Ők ritkán...	diránylanak	dirányoznak	0	diránylanak	NA	NA	11243	1643655	cselekszenek_3_high_reversed	cselekszenek/cselekednek	9	diránylik / dirányozik	-0.06899287148695143	diránylanak	dirányoznak	2	nek	3	35	FALSE	FALSE	high	typical	TRUE	TRUE	NA	NA
hungarian-esp_esp_participant_SESSION_2023-05-23_11h43.59.658.csv	HGFCTO	nő	2003	13	8	posttest trial	164	János imád bregezni, ezért sokat bregzik. Mi ritkán...	bregezünk	bregzünk	1	bregzünk	NA	NA	7522	1651679	cselekszenek_3_high_reversed	cselekszenek/cselekednek	9	bregzik / bregezik	0.49247648509779424	bregzünk	bregezünk	1	ünk	3	10	TRUE	FALSE	high	typical	FALSE	TRUE	NA	NA
hungarian-esp_esp_participant_SESSION_2023-05-23_11h43.59.658.csv	HGFCTO	nő	2003	13	8	posttest trial	165	János imád spibamozni, ezért sokat spibamlik. Ők ritkán...	spibamlanak	spibamoznak	0	spibamlanak	NA	NA	14062	1666248	cselekszenek_3_high_reversed	cselekszenek/cselekednek	9	spibamlik / spibamozik	0.5877866649021191	spibamlanak	spibamoznak	2	nek	3	9	TRUE	FALSE	high	typical	TRUE	TRUE	NA	NA
hungarian-esp_esp_participant_SESSION_2023-05-23_11h43.59.658.csv	HGFCTO	nő	2003	13	8	posttest trial	166	János imád pörözni, ezért sokat pörzik. Ti ritkán...	pörzötök	pöröztök	1	pöröztök	NA	NA	9882	1676631	cselekszenek_3_high_reversed	cselekszenek/cselekednek	9	pörzik / pörözik	-0.3483066942682157	pörzötök	pöröztök	1	tek	3	45	FALSE	TRUE	high	typical	FALSE	FALSE	NA	NA
hungarian-esp_esp_participant_SESSION_2023-05-23_11h43.59.658.csv	HGFCTO	nő	2003	13	8	posttest trial	167	János imád frésezni, ezért sokat fréslik. Mi ritkán...	frésezünk	fréslünk	1	fréslünk	NA	NA	11299	1688432	cselekszenek_3_high_reversed	cselekszenek/cselekednek	9	fréslik / frésezik	0.5978370007556204	fréslünk	frésezünk	1	ünk	3	7	TRUE	FALSE	high	typical	FALSE	TRUE	NA	NA
hungarian-esp_esp_participant_SESSION_2023-05-23_11h43.59.658.csv	HGFCTO	nő	2003	13	8	posttest trial	168	János imád lumozni, ezért sokat lumlik. Ti ritkán...	lumlotok	lumoztok	0	lumlotok	NA	NA	12038	1700975	cselekszenek_3_high_reversed	cselekszenek/cselekednek	9	lumlik / lumozik	-0.2876820724517809	lumlotok	lumoztok	1	tek	3	41	FALSE	TRUE	high	typical	TRUE	TRUE	NA	NA
hungarian-esp_esp_participant_SESSION_2023-05-23_11h43.59.658.csv	HGFCTO	nő	2003	13	8	posttest trial	169	János imád brilegezni, ezért sokat brilegzik. Mi ritkán...	brilegzünk	brilegezünk	0	brilegzünk	NA	NA	7587	1709064	cselekszenek_3_high_reversed	cselekszenek/cselekednek	9	brilegzik / brilegezik	0.28768207245178085	brilegzünk	brilegezünk	2	ünk	3	19	FALSE	FALSE	high	typical	TRUE	TRUE	NA	NA
hungarian-esp_esp_participant_SESSION_2023-05-23_11h43.59.658.csv	HGFCTO	nő	2003	13	8	posttest trial	170	János imád spalározni, ezért sokat spalárzik. Ők ritkán...	spalárzanak	spalároznak	1	spalároznak	NA	NA	11434	1720999	cselekszenek_3_high_reversed	cselekszenek/cselekednek	9	spalárzik / spalározik	-0.1431008436406733	spalárzanak	spalároznak	2	nek	3	37	FALSE	FALSE	high	typical	FALSE	FALSE	NA	NA
hungarian-esp_esp_participant_SESSION_2023-05-23_11h43.59.658.csv	HGFCTO	nő	2003	13	8	posttest trial	171	János imád gyivepedni, ezért sokat gyivepszik. Ők ritkán...	gyivepednek	gyivepszenek	1	gyivepszenek	NA	NA	9502	1731007	cselekszenek_3_high_reversed	cselekszenek/cselekednek	9	gyivepszik / gyivepedik	0.20763936477824457	gyivepszenek	gyivepednek	2	nek	3	21	FALSE	FALSE	high	typical	FALSE	TRUE	NA	NA
hungarian-esp_esp_participant_SESSION_2023-05-23_11h43.59.658.csv	HGFCTO	nő	2003	13	8	posttest trial	172	János imád tűgözni, ezért sokat tűgzik. Ti ritkán...	tűgzötök	tűgöztök	1	tűgöztök	NA	NA	9296	1740815	cselekszenek_3_high_reversed	cselekszenek/cselekednek	9	tűgzik / tűgözik	0.14310084364067324	tűgzötök	tűgöztök	1	tek	3	26	FALSE	FALSE	high	typical	FALSE	FALSE	NA	NA
hungarian-esp_esp_participant_SESSION_2023-05-23_11h43.59.658.csv	HGFCTO	nő	2003	13	8	posttest trial	173	János imád küsözni, ezért sokat küslik. Mi ritkán...	küslünk	küsözünk	0	küslünk	NA	NA	12296	1753623	cselekszenek_3_high_reversed	cselekszenek/cselekednek	9	küslik / küsözik	0.6418538861723947	küslünk	küsözünk	1	ünk	3	6	TRUE	FALSE	high	typical	TRUE	TRUE	NA	NA
hungarian-esp_esp_participant_SESSION_2023-05-23_22h43.16.631.csv	E2P76N	férfi	2004	12	9	esp trial	11	János imád flézezni, ezért sokat flézlik. Ti ritkán...	flézeztek	flézletek	0	flézeztek	flézeztek	TRUE	8235	369960	cselekszenek_3_high_typical	cselekszenek/cselekednek	10	flézlik / flézezik	-0.4595323293784402	flézletek	flézeztek	1	tek	3	47	FALSE	TRUE	high	typical	TRUE	FALSE	FALSE	FALSE
hungarian-esp_esp_participant_SESSION_2023-05-23_22h43.16.631.csv	E2P76N	férfi	2004	12	9	esp trial	13	János imád prazozni, ezért sokat prazlik. Mi ritkán...	prazlunk	prazozunk	0	prazlunk	prazlunk	TRUE	6083	380056	cselekszenek_3_high_typical	cselekszenek/cselekednek	10	prazlik / prazozik	-0.1941560144409575	prazlunk	prazozunk	1	ünk	3	38	FALSE	FALSE	high	typical	TRUE	TRUE	TRUE	TRUE
hungarian-esp_esp_participant_SESSION_2023-05-23_22h43.16.631.csv	E2P76N	férfi	2004	12	9	esp trial	15	János imád fröjözni, ezért sokat fröjlik. Mi ritkán...	fröjlünk	fröjözünk	1	fröjözünk	fröjlünk	FALSE	5283	389376	cselekszenek_3_high_typical	cselekszenek/cselekednek	10	fröjlik / fröjözik	0.32542240043462795	fröjlünk	fröjözünk	1	ünk	3	18	FALSE	FALSE	high	typical	FALSE	FALSE	TRUE	FALSE
hungarian-esp_esp_participant_SESSION_2023-05-23_22h43.16.631.csv	E2P76N	férfi	2004	12	9	esp trial	17	János imád sponyozni, ezért sokat sponylik. Ők ritkán...	sponylanak	sponyoznak	1	sponyoznak	sponylanak	FALSE	5637	399032	cselekszenek_3_high_typical	cselekszenek/cselekednek	10	sponylik / sponyozik	0.7419373447293773	sponylanak	sponyoznak	1	nek	3	5	TRUE	FALSE	high	typical	FALSE	FALSE	TRUE	FALSE
hungarian-esp_esp_participant_SESSION_2023-05-23_22h43.16.631.csv	E2P76N	férfi	2004	12	9	esp trial	19	János imád prilepedni, ezért sokat prilepszik. Mi ritkán...	prilepedünk	prilepszünk	0	prilepedünk	prilepszünk	FALSE	10370	413408	cselekszenek_3_high_typical	cselekszenek/cselekednek	10	prilepszik / prilepedik	0.8938178760220965	prilepszünk	prilepedünk	2	ünk	3	2	TRUE	FALSE	high	typical	TRUE	FALSE	TRUE	FALSE
hungarian-esp_esp_participant_SESSION_2023-05-23_22h43.16.631.csv	E2P76N	férfi	2004	12	9	esp trial	21	János imád kluzozni, ezért sokat kluzlik. Ti ritkán...	kluzoztok	kluzlotok	0	kluzoztok	kluzoztok	TRUE	5827	423240	cselekszenek_3_high_typical	cselekszenek/cselekednek	10	kluzlik / kluzozik	-0.325422400434628	kluzlotok	kluzoztok	1	tek	3	43	FALSE	TRUE	high	typical	TRUE	FALSE	FALSE	FALSE
hungarian-esp_esp_participant_SESSION_2023-05-23_22h43.16.631.csv	E2P76N	férfi	2004	12	9	esp trial	23	János imád sprigozni, ezért sokat sprigzik. Ti ritkán...	sprigoztok	sprigzotok	0	sprigoztok	sprigoztok	TRUE	5895	433152	cselekszenek_3_high_typical	cselekszenek/cselekednek	10	sprigzik / sprigozik	-1.4271163556401458	sprigzotok	sprigoztok	1	tek	3	54	FALSE	TRUE	high	typical	TRUE	FALSE	FALSE	FALSE
hungarian-esp_esp_participant_SESSION_2023-05-23_22h43.16.631.csv	E2P76N	férfi	2004	12	9	esp trial	25	János imád vobozni, ezért sokat vobzik. Ti ritkán...	voboztok	vobzotok	1	vobzotok	voboztok	FALSE	3927	441369	cselekszenek_3_high_typical	cselekszenek/cselekednek	10	vobzik / vobozik	-0.2876820724517809	vobzotok	voboztok	1	tek	3	42	FALSE	TRUE	high	typical	FALSE	TRUE	FALSE	TRUE
hungarian-esp_esp_participant_SESSION_2023-05-23_22h43.16.631.csv	E2P76N	férfi	2004	12	9	esp trial	27	János imád dirányozni, ezért sokat diránylik. Ők ritkán...	dirányoznak	diránylanak	1	diránylanak	diránylanak	TRUE	6309	451704	cselekszenek_3_high_typical	cselekszenek/cselekednek	10	diránylik / dirányozik	-0.06899287148695143	diránylanak	dirányoznak	2	nek	3	35	FALSE	FALSE	high	typical	FALSE	TRUE	TRUE	TRUE
hungarian-esp_esp_participant_SESSION_2023-05-23_22h43.16.631.csv	E2P76N	férfi	2004	12	9	esp trial	29	János imád pehégedni, ezért sokat pehégszik. Ti ritkán...	pehégedtek	pehégszetek	0	pehégedtek	pehégszetek	FALSE	6124	461831	cselekszenek_3_high_typical	cselekszenek/cselekednek	10	pehégszik / pehégedik	0.4353180712578455	pehégszetek	pehégedtek	2	tek	3	15	TRUE	FALSE	high	typical	TRUE	FALSE	TRUE	FALSE
hungarian-esp_esp_participant_SESSION_2023-05-23_22h43.16.631.csv	E2P76N	férfi	2004	12	9	esp trial	31	János imád hákodni, ezért sokat hákszik. Ők ritkán...	hákszanak	hákodnak	0	hákszanak	hákszanak	TRUE	5815	471664	cselekszenek_3_high_typical	cselekszenek/cselekednek	10	hákszik / hákodik	0.06453852113757116	hákszanak	hákodnak	1	nek	3	29	FALSE	FALSE	high	typical	TRUE	TRUE	TRUE	TRUE
hungarian-esp_esp_participant_SESSION_2023-05-23_22h43.16.631.csv	E2P76N	férfi	2004	12	9	esp trial	33	János imád frivamozni, ezért sokat frivamlik. Mi ritkán...	frivamozunk	frivamlunk	0	frivamozunk	frivamlunk	FALSE	6946	482639	cselekszenek_3_high_typical	cselekszenek/cselekednek	10	frivamlik / frivamozik	0.7419373447293773	frivamlunk	frivamozunk	2	ünk	3	4	TRUE	FALSE	high	typical	TRUE	FALSE	TRUE	FALSE
hungarian-esp_esp_participant_SESSION_2023-05-23_22h43.16.631.csv	E2P76N	férfi	2004	12	9	esp trial	35	János imád frésezni, ezért sokat fréslik. Mi ritkán...	frésezünk	fréslünk	1	fréslünk	fréslünk	TRUE	4227	490903	cselekszenek_3_high_typical	cselekszenek/cselekednek	10	fréslik / frésezik	0.5978370007556204	fréslünk	frésezünk	1	ünk	3	7	TRUE	FALSE	high	typical	FALSE	TRUE	TRUE	TRUE
hungarian-esp_esp_participant_SESSION_2023-05-23_22h43.16.631.csv	E2P76N	férfi	2004	12	9	esp trial	37	János imád trírozni, ezért sokat trírzik. Mi ritkán...	trírzunk	trírozunk	0	trírzunk	trírzunk	TRUE	4212	499143	cselekszenek_3_high_typical	cselekszenek/cselekednek	10	trírzik / trírozik	-0.06453852113757118	trírzunk	trírozunk	1	ünk	3	34	FALSE	FALSE	high	typical	TRUE	TRUE	TRUE	TRUE
hungarian-esp_esp_participant_SESSION_2023-05-23_22h43.16.631.csv	E2P76N	férfi	2004	12	9	esp trial	39	János imád trűnyözni, ezért sokat trűnylik. Ők ritkán...	trűnylenek	trűnyöznek	0	trűnylenek	trűnylenek	TRUE	2373	507365	cselekszenek_3_high_typical	cselekszenek/cselekednek	10	trűnylik / trűnyözik	0	trűnylenek	trűnyöznek	1	nek	3	32	FALSE	FALSE	high	typical	TRUE	TRUE	TRUE	TRUE
hungarian-esp_esp_participant_SESSION_2023-05-23_22h43.16.631.csv	E2P76N	férfi	2004	12	9	esp trial	41	János imád tibarozni, ezért sokat tibarzik. Ők ritkán...	tibarzanak	tibaroznak	0	tibarzanak	tibarzanak	TRUE	3414	515605	cselekszenek_3_high_typical	cselekszenek/cselekednek	10	tibarzik / tibarozik	0	tibarzanak	tibaroznak	2	nek	3	31	FALSE	FALSE	high	typical	TRUE	TRUE	TRUE	TRUE
hungarian-esp_esp_participant_SESSION_2023-05-23_22h43.16.631.csv	E2P76N	férfi	2004	12	9	esp trial	43	János imád drivegezni, ezért sokat drivegzik. Ti ritkán...	drivegeztek	drivegzetek	1	drivegzetek	drivegeztek	FALSE	4038	523827	cselekszenek_3_high_typical	cselekszenek/cselekednek	10	drivegzik / drivegezik	-0.4353180712578455	drivegzetek	drivegeztek	2	tek	3	46	FALSE	TRUE	high	typical	FALSE	TRUE	FALSE	TRUE
hungarian-esp_esp_participant_SESSION_2023-05-23_22h43.16.631.csv	E2P76N	férfi	2004	12	9	esp trial	45	János imád míjozni, ezért sokat míjzik. Mi ritkán...	míjzunk	míjozunk	0	míjzunk	míjzunk	TRUE	3842	532047	cselekszenek_3_high_typical	cselekszenek/cselekednek	10	míjzik / míjozik	0.1941560144409574	míjzunk	míjozunk	1	ünk	3	23	FALSE	FALSE	high	typical	TRUE	TRUE	TRUE	TRUE
hungarian-esp_esp_participant_SESSION_2023-05-23_22h43.16.631.csv	E2P76N	férfi	2004	12	9	esp trial	47	János imád nágapodni, ezért sokat nágapszik. Ők ritkán...	nágapszanak	nágapodnak	0	nágapszanak	nágapszanak	TRUE	4179	540289	cselekszenek_3_high_typical	cselekszenek/cselekednek	10	nágapszik / nágapodik	0.28768207245178085	nágapszanak	nágapodnak	2	nek	3	20	FALSE	FALSE	high	typical	TRUE	TRUE	TRUE	TRUE
hungarian-esp_esp_participant_SESSION_2023-05-23_22h43.16.631.csv	E2P76N	férfi	2004	12	9	esp trial	49	János imád drojozni, ezért sokat drojzik. Mi ritkán...	drojzunk	drojozunk	0	drojzunk	drojzunk	TRUE	3118	548521	cselekszenek_3_high_typical	cselekszenek/cselekednek	10	drojzik / drojozik	0.32542240043462795	drojzunk	drojozunk	1	ünk	3	17	FALSE	FALSE	high	typical	TRUE	TRUE	TRUE	TRUE
hungarian-esp_esp_participant_SESSION_2023-05-23_22h43.16.631.csv	E2P76N	férfi	2004	12	9	esp trial	51	János imád sprimozni, ezért sokat sprimlik. Mi ritkán...	sprimozunk	sprimlunk	1	sprimlunk	sprimlunk	TRUE	2993	556760	cselekszenek_3_high_typical	cselekszenek/cselekednek	10	sprimlik / sprimozik	0.20763936477824457	sprimlunk	sprimozunk	1	ünk	3	22	FALSE	FALSE	high	typical	FALSE	TRUE	TRUE	TRUE
hungarian-esp_esp_participant_SESSION_2023-05-23_22h43.16.631.csv	E2P76N	férfi	2004	12	9	esp trial	53	János imád brivágozni, ezért sokat briváglik. Ők ritkán...	briváglanak	brivágoznak	0	briváglanak	brivágoznak	FALSE	2597	564988	cselekszenek_3_high_typical	cselekszenek/cselekednek	10	briváglik / brivágozik	-0.2876820724517809	briváglanak	brivágoznak	2	nek	3	40	FALSE	TRUE	high	typical	TRUE	TRUE	FALSE	TRUE
hungarian-esp_esp_participant_SESSION_2023-05-23_22h43.16.631.csv	E2P76N	férfi	2004	12	9	esp trial	55	János imád bregezni, ezért sokat bregzik. Mi ritkán...	bregezünk	bregzünk	1	bregzünk	bregzünk	TRUE	4094	573220	cselekszenek_3_high_typical	cselekszenek/cselekednek	10	bregzik / bregezik	0.49247648509779424	bregzünk	bregezünk	1	ünk	3	10	TRUE	FALSE	high	typical	FALSE	TRUE	TRUE	TRUE
hungarian-esp_esp_participant_SESSION_2023-05-23_22h43.16.631.csv	E2P76N	férfi	2004	12	9	esp trial	57	János imád gibemezni, ezért sokat gibemlik. Mi ritkán...	gibemezünk	gibemlünk	1	gibemlünk	gibemlünk	TRUE	4938	582176	cselekszenek_3_high_typical	cselekszenek/cselekednek	10	gibemlik / gibemezik	0.4353180712578455	gibemlünk	gibemezünk	2	ünk	3	14	TRUE	FALSE	high	typical	FALSE	TRUE	TRUE	TRUE
hungarian-esp_esp_participant_SESSION_2023-05-23_22h43.16.631.csv	E2P76N	férfi	2004	12	9	esp trial	59	János imád klarágozni, ezért sokat klarágzik. Ti ritkán...	klarágzotok	klarágoztok	0	klarágzotok	klarágoztok	FALSE	6354	592559	cselekszenek_3_high_typical	cselekszenek/cselekednek	10	klarágzik / klarágozik	-0.916290731874155	klarágzotok	klarágoztok	2	tek	3	53	FALSE	TRUE	high	typical	TRUE	TRUE	FALSE	TRUE
hungarian-esp_esp_participant_SESSION_2023-05-23_22h43.16.631.csv	E2P76N	férfi	2004	12	9	esp trial	61	János imád brilegezni, ezért sokat brilegzik. Mi ritkán...	brilegzünk	brilegezünk	1	brilegezünk	brilegzünk	FALSE	5785	602367	cselekszenek_3_high_typical	cselekszenek/cselekednek	10	brilegzik / brilegezik	0.28768207245178085	brilegzünk	brilegezünk	2	ünk	3	19	FALSE	FALSE	high	typical	FALSE	FALSE	TRUE	FALSE
hungarian-esp_esp_participant_SESSION_2023-05-23_22h43.16.631.csv	E2P76N	férfi	2004	12	9	esp trial	63	János imád brálamozni, ezért sokat brálamlik. Ők ritkán...	brálamoznak	brálamlanak	1	brálamlanak	brálamlanak	TRUE	8496	614888	cselekszenek_3_high_typical	cselekszenek/cselekednek	10	brálamlik / brálamozik	0.4353180712578455	brálamlanak	brálamoznak	2	nek	3	13	TRUE	FALSE	high	typical	FALSE	TRUE	TRUE	TRUE
hungarian-esp_esp_participant_SESSION_2023-05-23_22h43.16.631.csv	E2P76N	férfi	2004	12	9	esp trial	65	János imád lumozni, ezért sokat lumlik. Ti ritkán...	lumoztok	lumlotok	1	lumlotok	lumoztok	FALSE	3920	623112	cselekszenek_3_high_typical	cselekszenek/cselekednek	10	lumlik / lumozik	-0.2876820724517809	lumlotok	lumoztok	1	tek	3	41	FALSE	TRUE	high	typical	FALSE	TRUE	FALSE	TRUE
hungarian-esp_esp_participant_SESSION_2023-05-23_22h43.16.631.csv	E2P76N	férfi	2004	12	9	esp trial	67	János imád livényezni, ezért sokat livénylik. Mi ritkán...	livényezünk	livénylünk	1	livénylünk	livénylünk	TRUE	6047	633175	cselekszenek_3_high_typical	cselekszenek/cselekednek	10	livénylik / livényezik	0.4595323293784402	livénylünk	livényezünk	2	ünk	3	12	TRUE	FALSE	high	typical	FALSE	TRUE	TRUE	TRUE
hungarian-esp_esp_participant_SESSION_2023-05-23_22h43.16.631.csv	E2P76N	férfi	2004	12	9	esp trial	69	János imád tribejezni, ezért sokat tribejlik. Ti ritkán...	tribejeztek	tribejletek	1	tribejletek	tribejeztek	FALSE	7028	644215	cselekszenek_3_high_typical	cselekszenek/cselekednek	10	tribejlik / tribejezik	-0.5978370007556204	tribejletek	tribejeztek	2	tek	3	50	FALSE	TRUE	high	typical	FALSE	TRUE	FALSE	TRUE
hungarian-esp_esp_participant_SESSION_2023-05-23_22h43.16.631.csv	E2P76N	férfi	2004	12	9	esp trial	71	János imád brivepedni, ezért sokat brivepszik. Mi ritkán...	brivepszünk	brivepedünk	0	brivepszünk	brivepszünk	TRUE	5970	654191	cselekszenek_3_high_typical	cselekszenek/cselekednek	10	brivepszik / brivepedik	0.9162907318741552	brivepszünk	brivepedünk	2	ünk	3	1	TRUE	FALSE	high	typical	TRUE	TRUE	TRUE	TRUE
hungarian-esp_esp_participant_SESSION_2023-05-23_22h43.16.631.csv	E2P76N	férfi	2004	12	9	esp trial	73	János imád spalározni, ezért sokat spalárzik. Ők ritkán...	spalároznak	spalárzanak	1	spalárzanak	spalárzanak	TRUE	5982	664199	cselekszenek_3_high_typical	cselekszenek/cselekednek	10	spalárzik / spalározik	-0.1431008436406733	spalárzanak	spalároznak	2	nek	3	37	FALSE	FALSE	high	typical	FALSE	TRUE	TRUE	TRUE
hungarian-esp_esp_participant_SESSION_2023-05-23_22h43.16.631.csv	E2P76N	férfi	2004	12	9	esp trial	75	János imád sztrajozni, ezért sokat sztrajlik. Ők ritkán...	sztrajlanak	sztrajoznak	0	sztrajlanak	sztrajlanak	TRUE	3038	672417	cselekszenek_3_high_typical	cselekszenek/cselekednek	10	sztrajlik / sztrajozik	0.49247648509779424	sztrajlanak	sztrajoznak	1	nek	3	11	TRUE	FALSE	high	typical	TRUE	TRUE	TRUE	TRUE
hungarian-esp_esp_participant_SESSION_2023-05-23_22h43.16.631.csv	E2P76N	férfi	2004	12	9	esp trial	77	János imád tűgözni, ezért sokat tűgzik. Ti ritkán...	tűgzötök	tűgöztök	0	tűgzötök	tűgzötök	TRUE	2606	680642	cselekszenek_3_high_typical	cselekszenek/cselekednek	10	tűgzik / tűgözik	0.14310084364067324	tűgzötök	tűgöztök	1	tek	3	26	FALSE	FALSE	high	typical	TRUE	TRUE	TRUE	TRUE
hungarian-esp_esp_participant_SESSION_2023-05-23_22h43.16.631.csv	E2P76N	férfi	2004	12	9	esp trial	79	János imád pörözni, ezért sokat pörzik. Ti ritkán...	pörzötök	pöröztök	1	pöröztök	pöröztök	TRUE	3451	688886	cselekszenek_3_high_typical	cselekszenek/cselekednek	10	pörzik / pörözik	-0.3483066942682157	pörzötök	pöröztök	1	tek	3	45	FALSE	TRUE	high	typical	FALSE	FALSE	FALSE	FALSE
hungarian-esp_esp_participant_SESSION_2023-05-23_22h43.16.631.csv	E2P76N	férfi	2004	12	9	esp trial	81	János imád filányozni, ezért sokat filánylik. Mi ritkán...	filányozunk	filánylunk	0	filányozunk	filánylunk	FALSE	5894	698799	cselekszenek_3_high_typical	cselekszenek/cselekednek	10	filánylik / filányozik	0	filánylunk	filányozunk	2	ünk	3	30	FALSE	FALSE	high	typical	TRUE	FALSE	TRUE	FALSE
hungarian-esp_esp_participant_SESSION_2023-05-23_22h43.16.631.csv	E2P76N	férfi	2004	12	9	esp trial	83	János imád spöközni, ezért sokat spöklik. Mi ritkán...	spöközünk	spöklünk	1	spöklünk	spöklünk	TRUE	3519	707035	cselekszenek_3_high_typical	cselekszenek/cselekednek	10	spöklik / spöközik	0.5978370007556204	spöklünk	spöközünk	1	ünk	3	8	TRUE	FALSE	high	typical	FALSE	TRUE	TRUE	TRUE
hungarian-esp_esp_participant_SESSION_2023-05-23_22h43.16.631.csv	E2P76N	férfi	2004	12	9	esp trial	85	János imád frihegezni, ezért sokat friheglik. Mi ritkán...	frihegezünk	friheglünk	0	frihegezünk	friheglünk	FALSE	4687	715752	cselekszenek_3_high_typical	cselekszenek/cselekednek	10	friheglik / frihegezik	0.06899287148695142	friheglünk	frihegezünk	2	ünk	3	27	FALSE	FALSE	high	typical	TRUE	FALSE	TRUE	FALSE
hungarian-esp_esp_participant_SESSION_2023-05-23_22h43.16.631.csv	E2P76N	férfi	2004	12	9	esp trial	87	János imád mísozni, ezért sokat míslik. Mi ritkán...	mísozunk	míslunk	1	míslunk	míslunk	TRUE	2560	723979	cselekszenek_3_high_typical	cselekszenek/cselekednek	10	míslik / mísozik	0.3483066942682158	míslunk	mísozunk	1	ünk	3	16	FALSE	FALSE	high	typical	FALSE	TRUE	TRUE	TRUE
hungarian-esp_esp_participant_SESSION_2023-05-23_22h43.16.631.csv	E2P76N	férfi	2004	12	9	esp trial	89	János imád lírozni, ezért sokat lírlik. Ők ritkán...	líroznak	lírlanak	0	líroznak	lírlanak	FALSE	4882	732888	cselekszenek_3_high_typical	cselekszenek/cselekednek	10	lírlik / lírozik	-0.06453852113757118	lírlanak	líroznak	1	nek	3	33	FALSE	FALSE	high	typical	TRUE	FALSE	TRUE	FALSE
hungarian-esp_esp_participant_SESSION_2023-05-23_22h43.16.631.csv	E2P76N	férfi	2004	12	9	esp trial	91	János imád galározni, ezért sokat galárzik. Ők ritkán...	galárzanak	galároznak	0	galárzanak	galároznak	FALSE	3747	741093	cselekszenek_3_high_typical	cselekszenek/cselekednek	10	galárzik / galározik	-0.49247648509779407	galárzanak	galároznak	2	nek	3	48	FALSE	TRUE	high	typical	TRUE	TRUE	FALSE	TRUE
hungarian-esp_esp_participant_SESSION_2023-05-23_22h43.16.631.csv	E2P76N	férfi	2004	12	9	esp trial	93	János imád spibamozni, ezért sokat spibamlik. Ők ritkán...	spibamoznak	spibamlanak	0	spibamoznak	spibamlanak	FALSE	3375	749311	cselekszenek_3_high_typical	cselekszenek/cselekednek	10	spibamlik / spibamozik	0.5877866649021191	spibamlanak	spibamoznak	2	nek	3	9	TRUE	FALSE	high	typical	TRUE	FALSE	TRUE	FALSE
hungarian-esp_esp_participant_SESSION_2023-05-23_22h43.16.631.csv	E2P76N	férfi	2004	12	9	esp trial	95	János imád flubokozni, ezért sokat fluboklik. Ti ritkán...	flubokoztok	fluboklotok	1	fluboklotok	flubokoztok	FALSE	3398	757534	cselekszenek_3_high_typical	cselekszenek/cselekednek	10	fluboklik / flubokozik	-0.5978370007556204	fluboklotok	flubokoztok	2	tek	3	49	FALSE	TRUE	high	typical	FALSE	TRUE	FALSE	TRUE
hungarian-esp_esp_participant_SESSION_2023-05-23_22h43.16.631.csv	E2P76N	férfi	2004	12	9	esp trial	97	János imád gyivepedni, ezért sokat gyivepszik. Ők ritkán...	gyivepszenek	gyivepednek	0	gyivepszenek	gyivepszenek	TRUE	3273	765756	cselekszenek_3_high_typical	cselekszenek/cselekednek	10	gyivepszik / gyivepedik	0.20763936477824457	gyivepszenek	gyivepednek	2	nek	3	21	FALSE	FALSE	high	typical	TRUE	TRUE	TRUE	TRUE
hungarian-esp_esp_participant_SESSION_2023-05-23_22h43.16.631.csv	E2P76N	férfi	2004	12	9	esp trial	99	János imád riványozni, ezért sokat riványlik. Ti ritkán...	riványoztok	riványlotok	1	riványlotok	riványlotok	TRUE	2339	773996	cselekszenek_3_high_typical	cselekszenek/cselekednek	10	riványlik / riványozik	0.06899287148695142	riványlotok	riványoztok	2	tek	3	28	FALSE	FALSE	high	typical	FALSE	TRUE	TRUE	TRUE
hungarian-esp_esp_participant_SESSION_2023-05-23_22h43.16.631.csv	E2P76N	férfi	2004	12	9	esp trial	101	János imád brározni, ezért sokat brárlik. Ők ritkán...	brárlanak	brároznak	0	brárlanak	brárlanak	TRUE	2887	782220	cselekszenek_3_high_typical	cselekszenek/cselekednek	10	brárlik / brározik	0.14310084364067324	brárlanak	brároznak	1	nek	3	24	FALSE	FALSE	high	typical	TRUE	TRUE	TRUE	TRUE
hungarian-esp_esp_participant_SESSION_2023-05-23_22h43.16.631.csv	E2P76N	férfi	2004	12	9	esp trial	103	János imád sztritozni, ezért sokat sztritlik. Ők ritkán...	sztritoznak	sztritlanak	1	sztritlanak	sztritlanak	TRUE	2930	790439	cselekszenek_3_high_typical	cselekszenek/cselekednek	10	sztritlik / sztritozik	0.14310084364067324	sztritlanak	sztritoznak	1	nek	3	25	FALSE	FALSE	high	typical	FALSE	TRUE	TRUE	TRUE
hungarian-esp_esp_participant_SESSION_2023-05-23_22h43.16.631.csv	E2P76N	férfi	2004	12	9	esp trial	105	János imád flivegezni, ezért sokat flivegzik. Ők ritkán...	flivegzenek	flivegeznek	1	flivegeznek	flivegeznek	TRUE	2225	798664	cselekszenek_3_high_typical	cselekszenek/cselekednek	10	flivegzik / flivegezik	-0.3483066942682157	flivegzenek	flivegeznek	2	nek	3	44	FALSE	TRUE	high	typical	FALSE	FALSE	FALSE	FALSE
hungarian-esp_esp_participant_SESSION_2023-05-23_22h43.16.631.csv	E2P76N	férfi	2004	12	9	esp trial	107	János imád gatágozni, ezért sokat gatáglik. Mi ritkán...	gatágozunk	gatáglunk	1	gatáglunk	gatágozunk	FALSE	4752	807432	cselekszenek_3_high_typical	cselekszenek/cselekednek	10	gatáglik / gatágozik	-0.7985076962177716	gatáglunk	gatágozunk	2	ünk	3	52	FALSE	TRUE	high	typical	FALSE	TRUE	FALSE	TRUE
hungarian-esp_esp_participant_SESSION_2023-05-23_22h43.16.631.csv	E2P76N	férfi	2004	12	9	esp trial	109	János imád tágarozni, ezért sokat tágarzik. Mi ritkán...	tágarozunk	tágarzunk	1	tágarzunk	tágarzunk	TRUE	3562	815669	cselekszenek_3_high_typical	cselekszenek/cselekednek	10	tágarzik / tágarozik	-0.06899287148695143	tágarzunk	tágarozunk	2	ünk	3	36	FALSE	FALSE	high	typical	FALSE	TRUE	TRUE	TRUE
hungarian-esp_esp_participant_SESSION_2023-05-23_22h43.16.631.csv	E2P76N	férfi	2004	12	9	esp trial	111	János imád küsözni, ezért sokat küslik. Mi ritkán...	küsözünk	küslünk	1	küslünk	küslünk	TRUE	2752	823913	cselekszenek_3_high_typical	cselekszenek/cselekednek	10	küslik / küsözik	0.6418538861723947	küslünk	küsözünk	1	ünk	3	6	TRUE	FALSE	high	typical	FALSE	TRUE	TRUE	TRUE
hungarian-esp_esp_participant_SESSION_2023-05-23_22h43.16.631.csv	E2P76N	férfi	2004	12	9	esp trial	113	János imád brüszözni, ezért sokat brüszlik. Ti ritkán...	brüszöztök	brüszlötök	1	brüszlötök	brüszlötök	TRUE	6002	833944	cselekszenek_3_high_typical	cselekszenek/cselekednek	10	brüszlik / brüszözik	-0.2076393647782445	brüszlötök	brüszöztök	1	tek	3	39	FALSE	FALSE	high	typical	FALSE	TRUE	TRUE	TRUE
hungarian-esp_esp_participant_SESSION_2023-05-23_22h43.16.631.csv	E2P76N	férfi	2004	12	9	esp trial	115	János imád pekedni, ezért sokat pekszik. Mi ritkán...	pekszünk	pekedünk	0	pekszünk	pekszünk	TRUE	2110	842172	cselekszenek_3_high_typical	cselekszenek/cselekednek	10	pekszik / pekedik	0.7985076962177716	pekszünk	pekedünk	1	ünk	3	3	TRUE	FALSE	high	typical	TRUE	TRUE	TRUE	TRUE
hungarian-esp_esp_participant_SESSION_2023-05-23_22h43.16.631.csv	E2P76N	férfi	2004	12	9	esp trial	117	János imád mihágozni, ezért sokat mihágzik. Ti ritkán...	mihágzotok	mihágoztok	0	mihágzotok	mihágoztok	FALSE	6566	852760	cselekszenek_3_high_typical	cselekszenek/cselekednek	10	mihágzik / mihágozik	-0.7419373447293773	mihágzotok	mihágoztok	2	tek	3	51	FALSE	TRUE	high	typical	TRUE	TRUE	FALSE	TRUE
hungarian-esp_esp_participant_SESSION_2023-05-23_22h43.16.631.csv	E2P76N	férfi	2004	12	1	posttest trial	120	János imád sprebezni, ezért sokat sprebzik. Ők ritkán...	sprebzenek	sprebeznek	0	sprebzenek	NA	NA	8993	878992	cselekszenek_1_high_typical	cselekszenek/cselekednek	2	sprebzik / sprebezik	0.1941560144409574	sprebzenek	sprebeznek	1	nek	1	24	FALSE	FALSE	high	typical	TRUE	TRUE	NA	NA
hungarian-esp_esp_participant_SESSION_2023-05-23_22h43.16.631.csv	E2P76N	férfi	2004	12	1	posttest trial	121	János imád dibágozni, ezért sokat dibáglik. Ti ritkán...	dibáglotok	dibágoztok	0	dibáglotok	NA	NA	8282	887775	cselekszenek_1_high_typical	cselekszenek/cselekednek	2	dibáglik / dibágozik	0.1941560144409574	dibáglotok	dibágoztok	2	tek	1	23	FALSE	FALSE	high	typical	TRUE	TRUE	NA	NA
hungarian-esp_esp_participant_SESSION_2023-05-23_22h43.16.631.csv	E2P76N	férfi	2004	12	1	posttest trial	122	János imád spuborozni, ezért sokat spuborzik. Ők ritkán...	spuborzanak	spuboroznak	1	spuboroznak	NA	NA	9089	897367	cselekszenek_1_high_typical	cselekszenek/cselekednek	2	spuborzik / spuborozik	-0.4353180712578455	spuborzanak	spuboroznak	2	nek	1	47	FALSE	TRUE	high	typical	FALSE	FALSE	NA	NA
hungarian-esp_esp_participant_SESSION_2023-05-23_22h43.16.631.csv	E2P76N	férfi	2004	12	1	posttest trial	123	János imád játozni, ezért sokat játlik. Mi ritkán...	játozunk	játlunk	0	játozunk	NA	NA	9527	907399	cselekszenek_1_high_typical	cselekszenek/cselekednek	2	játlik / játozik	0.5978370007556204	játlunk	játozunk	1	ünk	1	8	TRUE	FALSE	high	typical	TRUE	FALSE	NA	NA
hungarian-esp_esp_participant_SESSION_2023-05-23_22h43.16.631.csv	E2P76N	férfi	2004	12	1	posttest trial	124	János imád frorozni, ezért sokat frorlik. Ők ritkán...	frorlanak	froroznak	1	froroznak	NA	NA	6577	914487	cselekszenek_1_high_typical	cselekszenek/cselekednek	2	frorlik / frorozik	0.49247648509779424	frorlanak	froroznak	1	nek	1	11	TRUE	FALSE	high	typical	FALSE	FALSE	NA	NA
hungarian-esp_esp_participant_SESSION_2023-05-23_22h43.16.631.csv	E2P76N	férfi	2004	12	1	posttest trial	125	János imád ribegedni, ezért sokat ribegszik. Ti ritkán...	ribegedtek	ribegszetek	1	ribegszetek	NA	NA	7107	922095	cselekszenek_1_high_typical	cselekszenek/cselekednek	2	ribegszik / ribegedik	-0.2876820724517809	ribegszetek	ribegedtek	2	tek	1	42	FALSE	TRUE	high	typical	FALSE	TRUE	NA	NA
hungarian-esp_esp_participant_SESSION_2023-05-23_22h43.16.631.csv	E2P76N	férfi	2004	12	1	posttest trial	126	János imád frinyozni, ezért sokat frinylik. Mi ritkán...	frinyozunk	frinylunk	0	frinyozunk	NA	NA	5843	928439	cselekszenek_1_high_typical	cselekszenek/cselekednek	2	frinylik / frinyozik	-0.06899287148695143	frinylunk	frinyozunk	1	ünk	1	36	FALSE	FALSE	high	typical	TRUE	FALSE	NA	NA
hungarian-esp_esp_participant_SESSION_2023-05-23_22h43.16.631.csv	E2P76N	férfi	2004	12	1	posttest trial	127	János imád nivározni, ezért sokat nivárzik. Ti ritkán...	nivárzotok	nivároztok	1	nivároztok	NA	NA	7616	936567	cselekszenek_1_high_typical	cselekszenek/cselekednek	2	nivárzik / nivározik	-0.916290731874155	nivárzotok	nivároztok	2	tek	1	54	FALSE	TRUE	high	typical	FALSE	FALSE	NA	NA
hungarian-esp_esp_participant_SESSION_2023-05-23_22h43.16.631.csv	E2P76N	férfi	2004	12	1	posttest trial	128	János imád brürözni, ezért sokat brürzik. Ők ritkán...	brürzenek	brüröznek	1	brüröznek	NA	NA	11035	948103	cselekszenek_1_high_typical	cselekszenek/cselekednek	2	brürzik / brürözik	-0.1431008436406733	brürzenek	brüröznek	1	nek	1	37	FALSE	FALSE	high	typical	FALSE	FALSE	NA	NA
hungarian-esp_esp_participant_SESSION_2023-05-23_22h43.16.631.csv	E2P76N	férfi	2004	12	1	posttest trial	129	János imád pibegezni, ezért sokat pibegzik. Ők ritkán...	pibegeznek	pibegzenek	0	pibegeznek	NA	NA	6248	954855	cselekszenek_1_high_typical	cselekszenek/cselekednek	2	pibegzik / pibegezik	-0.7472144018302211	pibegzenek	pibegeznek	2	nek	1	52	FALSE	TRUE	high	typical	TRUE	FALSE	NA	NA
hungarian-esp_esp_participant_SESSION_2023-05-23_22h43.16.631.csv	E2P76N	férfi	2004	12	1	posttest trial	130	János imád klűmözni, ezért sokat klűmlik. Ti ritkán...	klűmöztök	klűmlötök	0	klűmöztök	NA	NA	5247	960607	cselekszenek_1_high_typical	cselekszenek/cselekednek	2	klűmlik / klűmözik	-0.4595323293784402	klűmlötök	klűmöztök	1	tek	1	48	FALSE	TRUE	high	typical	TRUE	FALSE	NA	NA
hungarian-esp_esp_participant_SESSION_2023-05-23_22h43.16.631.csv	E2P76N	férfi	2004	12	1	posttest trial	131	János imád klihasozni, ezért sokat klihaslik. Ti ritkán...	klihasoztok	klihaslotok	0	klihasoztok	NA	NA	8301	969415	cselekszenek_1_high_typical	cselekszenek/cselekednek	2	klihaslik / klihasozik	-0.2076393647782445	klihaslotok	klihasoztok	2	tek	1	40	FALSE	TRUE	high	typical	TRUE	FALSE	NA	NA
hungarian-esp_esp_participant_SESSION_2023-05-23_22h43.16.631.csv	E2P76N	férfi	2004	12	1	posttest trial	132	János imád bribasozni, ezért sokat bribaslik. Ők ritkán...	bribaslanak	bribasoznak	1	bribasoznak	NA	NA	6446	976367	cselekszenek_1_high_typical	cselekszenek/cselekednek	2	bribaslik / bribasozik	-0.3483066942682157	bribaslanak	bribasoznak	2	nek	1	44	FALSE	TRUE	high	typical	FALSE	FALSE	NA	NA
hungarian-esp_esp_participant_SESSION_2023-05-23_22h43.16.631.csv	E2P76N	férfi	2004	12	1	posttest trial	133	János imád metégedni, ezért sokat metégszik. Ők ritkán...	metégednek	metégszenek	1	metégszenek	NA	NA	7826	984695	cselekszenek_1_high_typical	cselekszenek/cselekednek	2	metégszik / metégedik	0.06453852113757116	metégszenek	metégednek	2	nek	1	30	FALSE	FALSE	high	typical	FALSE	TRUE	NA	NA
hungarian-esp_esp_participant_SESSION_2023-05-23_22h43.16.631.csv	E2P76N	férfi	2004	12	1	posttest trial	134	János imád hiragozni, ezért sokat hiragzik. Ők ritkán...	hiragzanak	hiragoznak	1	hiragoznak	NA	NA	6667	991863	cselekszenek_1_high_typical	cselekszenek/cselekednek	2	hiragzik / hiragozik	0.20763936477824457	hiragzanak	hiragoznak	2	nek	1	22	FALSE	FALSE	high	typical	FALSE	FALSE	NA	NA
hungarian-esp_esp_participant_SESSION_2023-05-23_22h43.16.631.csv	E2P76N	férfi	2004	12	1	posttest trial	135	János imád bribékedni, ezért sokat bribékszik. Ti ritkán...	bribékedtek	bribékszetek	0	bribékedtek	NA	NA	6650	999015	cselekszenek_1_high_typical	cselekszenek/cselekednek	2	bribékszik / bribékedik	-0.1941560144409575	bribékszetek	bribékedtek	2	tek	1	38	FALSE	FALSE	high	typical	TRUE	FALSE	NA	NA
hungarian-esp_esp_participant_SESSION_2023-05-23_22h43.16.631.csv	E2P76N	férfi	2004	12	1	posttest trial	136	János imád sűjözni, ezért sokat sűjlik. Mi ritkán...	sűjözünk	sűjlünk	0	sűjözünk	NA	NA	7416	1006934	cselekszenek_1_high_typical	cselekszenek/cselekednek	2	sűjlik / sűjözik	0.5877866649021191	sűjlünk	sűjözünk	1	ünk	1	10	TRUE	FALSE	high	typical	TRUE	FALSE	NA	NA
hungarian-esp_esp_participant_SESSION_2023-05-23_22h43.16.631.csv	E2P76N	férfi	2004	12	1	posttest trial	137	János imád bügözni, ezért sokat bügzik. Ők ritkán...	bügöznek	bügzenek	0	bügöznek	NA	NA	9276	1016711	cselekszenek_1_high_typical	cselekszenek/cselekednek	2	bügzik / bügözik	0.6418538861723947	bügzenek	bügöznek	1	nek	1	6	TRUE	FALSE	high	typical	TRUE	FALSE	NA	NA
hungarian-esp_esp_participant_SESSION_2023-05-23_22h43.16.631.csv	E2P76N	férfi	2004	12	1	posttest trial	138	János imád plibozni, ezért sokat plibzik. Ti ritkán...	plibzotok	pliboztok	1	pliboztok	NA	NA	5169	1022383	cselekszenek_1_high_typical	cselekszenek/cselekednek	2	plibzik / plibozik	-0.49247648509779407	plibzotok	pliboztok	1	tek	1	49	FALSE	TRUE	high	typical	FALSE	FALSE	NA	NA
hungarian-esp_esp_participant_SESSION_2023-05-23_22h43.16.631.csv	E2P76N	férfi	2004	12	1	posttest trial	139	János imád prugorozni, ezért sokat prugorzik. Ti ritkán...	prugorzotok	prugoroztok	1	prugoroztok	NA	NA	8915	1031798	cselekszenek_1_high_typical	cselekszenek/cselekednek	2	prugorzik / prugorozik	-0.7985076962177716	prugorzotok	prugoroztok	2	tek	1	53	FALSE	TRUE	high	typical	FALSE	FALSE	NA	NA
hungarian-esp_esp_participant_SESSION_2023-05-23_22h43.16.631.csv	E2P76N	férfi	2004	12	1	posttest trial	140	János imád klégezni, ezért sokat kléglik. Mi ritkán...	klégezünk	kléglünk	0	klégezünk	NA	NA	8169	1040479	cselekszenek_1_high_typical	cselekszenek/cselekednek	2	kléglik / klégezik	0.4353180712578455	kléglünk	klégezünk	1	ünk	1	15	TRUE	FALSE	high	typical	TRUE	FALSE	NA	NA
hungarian-esp_esp_participant_SESSION_2023-05-23_22h43.16.631.csv	E2P76N	férfi	2004	12	1	posttest trial	141	János imád trukodni, ezért sokat trukszik. Ti ritkán...	trukszotok	trukodtok	1	trukodtok	NA	NA	5642	1046630	cselekszenek_1_high_typical	cselekszenek/cselekednek	2	trukszik / trukodik	0.06899287148695142	trukszotok	trukodtok	1	tek	1	29	FALSE	FALSE	high	typical	FALSE	FALSE	NA	NA
hungarian-esp_esp_participant_SESSION_2023-05-23_22h43.16.631.csv	E2P76N	férfi	2004	12	1	posttest trial	142	János imád flerékedni, ezért sokat flerékszik. Mi ritkán...	flerékszünk	flerékedünk	1	flerékedünk	NA	NA	9019	1056151	cselekszenek_1_high_typical	cselekszenek/cselekednek	2	flerékszik / flerékedik	0.32542240043462795	flerékszünk	flerékedünk	2	ünk	1	18	FALSE	FALSE	high	typical	FALSE	FALSE	NA	NA
hungarian-esp_esp_participant_SESSION_2023-05-23_22h43.16.631.csv	E2P76N	férfi	2004	12	1	posttest trial	143	János imád gihamozni, ezért sokat gihamlik. Ők ritkán...	gihamlanak	gihamoznak	1	gihamoznak	NA	NA	16899	1073551	cselekszenek_1_high_typical	cselekszenek/cselekednek	2	gihamlik / gihamozik	0.32542240043462795	gihamlanak	gihamoznak	2	nek	1	19	FALSE	FALSE	high	typical	FALSE	FALSE	NA	NA
hungarian-esp_esp_participant_SESSION_2023-05-23_22h43.16.631.csv	E2P76N	férfi	2004	12	1	posttest trial	144	János imád kláragodni, ezért sokat kláragszik. Ti ritkán...	kláragszotok	kláragodtok	1	kláragodtok	NA	NA	14101	1088167	cselekszenek_1_high_typical	cselekszenek/cselekednek	2	kláragszik / kláragodik	0.28768207245178085	kláragszotok	kláragodtok	2	tek	1	20	FALSE	FALSE	high	typical	FALSE	FALSE	NA	NA
hungarian-esp_esp_participant_SESSION_2023-05-23_22h43.16.631.csv	E2P76N	férfi	2004	12	1	posttest trial	145	János imád tögözni, ezért sokat töglik. Ők ritkán...	töglenek	tögöznek	1	tögöznek	NA	NA	6589	1095263	cselekszenek_1_high_typical	cselekszenek/cselekednek	2	töglik / tögözik	1.2321436812926323	töglenek	tögöznek	1	nek	1	1	TRUE	FALSE	high	typical	FALSE	FALSE	NA	NA
hungarian-esp_esp_participant_SESSION_2023-05-23_22h43.16.631.csv	E2P76N	férfi	2004	12	1	posttest trial	146	János imád bresezni, ezért sokat breslik. Ők ritkán...	breseznek	breslenek	0	breseznek	NA	NA	4612	1100383	cselekszenek_1_high_typical	cselekszenek/cselekednek	2	breslik / bresezik	0.06899287148695142	breslenek	breseznek	1	nek	1	27	FALSE	FALSE	high	typical	TRUE	FALSE	NA	NA
hungarian-esp_esp_participant_SESSION_2023-05-23_22h43.16.631.csv	E2P76N	férfi	2004	12	1	posttest trial	147	János imád vihapodni, ezért sokat vihapszik. Mi ritkán...	vihapodunk	vihapszunk	1	vihapszunk	NA	NA	14874	1115759	cselekszenek_1_high_typical	cselekszenek/cselekednek	2	vihapszik / vihapodik	0.49247648509779424	vihapszunk	vihapodunk	2	ünk	1	12	TRUE	FALSE	high	typical	FALSE	TRUE	NA	NA
hungarian-esp_esp_participant_SESSION_2023-05-23_22h43.16.631.csv	E2P76N	férfi	2004	12	1	posttest trial	148	János imád frirozni, ezért sokat frirzik. Mi ritkán...	frirozunk	frirzunk	0	frirozunk	NA	NA	14755	1131015	cselekszenek_1_high_typical	cselekszenek/cselekednek	2	frirzik / frirozik	-0.3483066942682157	frirzunk	frirozunk	1	ünk	1	45	FALSE	TRUE	high	typical	TRUE	FALSE	NA	NA
hungarian-esp_esp_participant_SESSION_2023-05-23_22h43.16.631.csv	E2P76N	férfi	2004	12	1	posttest trial	149	János imád flodozni, ezért sokat flodlik. Ti ritkán...	flodoztok	flodlotok	0	flodoztok	NA	NA	6322	1137847	cselekszenek_1_high_typical	cselekszenek/cselekednek	2	flodlik / flodozik	-0.325422400434628	flodlotok	flodoztok	1	tek	1	43	FALSE	TRUE	high	typical	TRUE	FALSE	NA	NA
hungarian-esp_esp_participant_SESSION_2023-05-23_22h43.16.631.csv	E2P76N	férfi	2004	12	1	posttest trial	150	János imád hubonyozni, ezért sokat hubonylik. Ti ritkán...	hubonylotok	hubonyoztok	1	hubonyoztok	NA	NA	9819	1148175	cselekszenek_1_high_typical	cselekszenek/cselekednek	2	hubonylik / hubonyozik	-0.5978370007556204	hubonylotok	hubonyoztok	2	tek	1	50	FALSE	TRUE	high	typical	FALSE	FALSE	NA	NA
hungarian-esp_esp_participant_SESSION_2023-05-23_22h43.16.631.csv	E2P76N	férfi	2004	12	1	posttest trial	151	János imád trilekedni, ezért sokat trilekszik. Ti ritkán...	trilekszetek	trilekedtek	1	trilekedtek	NA	NA	11601	1160279	cselekszenek_1_high_typical	cselekszenek/cselekednek	2	trilekszik / trilekedik	0.14310084364067324	trilekszetek	trilekedtek	2	tek	1	26	FALSE	FALSE	high	typical	FALSE	FALSE	NA	NA
hungarian-esp_esp_participant_SESSION_2023-05-23_22h43.16.631.csv	E2P76N	férfi	2004	12	1	posttest trial	152	János imád brűközni, ezért sokat brűklik. Ti ritkán...	brűköztök	brűklötök	0	brűköztök	NA	NA	6806	1167599	cselekszenek_1_high_typical	cselekszenek/cselekednek	2	brűklik / brűközik	0.14310084364067324	brűklötök	brűköztök	1	tek	1	25	FALSE	FALSE	high	typical	TRUE	FALSE	NA	NA
hungarian-esp_esp_participant_SESSION_2023-05-23_22h43.16.631.csv	E2P76N	férfi	2004	12	1	posttest trial	153	János imád flátozni, ezért sokat flátlik. Ti ritkán...	flátlotok	flátoztok	1	flátoztok	NA	NA	5889	1173991	cselekszenek_1_high_typical	cselekszenek/cselekednek	2	flátlik / flátozik	-0.2876820724517809	flátlotok	flátoztok	1	tek	1	41	FALSE	TRUE	high	typical	FALSE	FALSE	NA	NA
hungarian-esp_esp_participant_SESSION_2023-05-23_22h43.16.631.csv	E2P76N	férfi	2004	12	1	posttest trial	154	János imád vehékedni, ezért sokat vehékszik. Mi ritkán...	vehékedünk	vehékszünk	0	vehékedünk	NA	NA	6388	1180895	cselekszenek_1_high_typical	cselekszenek/cselekednek	2	vehékszik / vehékedik	0.7472144018302211	vehékszünk	vehékedünk	2	ünk	1	4	TRUE	FALSE	high	typical	TRUE	FALSE	NA	NA
hungarian-esp_esp_participant_SESSION_2023-05-23_22h43.16.631.csv	E2P76N	férfi	2004	12	1	posttest trial	155	János imád nurokozni, ezért sokat nuroklik. Mi ritkán...	nuroklunk	nurokozunk	1	nurokozunk	NA	NA	8995	1190390	cselekszenek_1_high_typical	cselekszenek/cselekednek	2	nuroklik / nurokozik	0.7419373447293773	nuroklunk	nurokozunk	2	ünk	1	5	TRUE	FALSE	high	typical	FALSE	FALSE	NA	NA
hungarian-esp_esp_participant_SESSION_2023-05-23_22h43.16.631.csv	E2P76N	férfi	2004	12	1	posttest trial	156	János imád trálodni, ezért sokat trálszik. Mi ritkán...	trálszunk	trálodunk	1	trálodunk	NA	NA	10582	1201487	cselekszenek_1_high_typical	cselekszenek/cselekednek	2	trálszik / trálodik	0.9162907318741552	trálszunk	trálodunk	1	ünk	1	2	TRUE	FALSE	high	typical	FALSE	FALSE	NA	NA
hungarian-esp_esp_participant_SESSION_2023-05-23_22h43.16.631.csv	E2P76N	férfi	2004	12	1	posttest trial	157	János imád bejezni, ezért sokat bejzik. Mi ritkán...	bejezünk	bejzünk	0	bejezünk	NA	NA	6465	1208462	cselekszenek_1_high_typical	cselekszenek/cselekednek	2	bejzik / bejezik	-0.06899287148695143	bejzünk	bejezünk	1	ünk	1	35	FALSE	FALSE	high	typical	TRUE	FALSE	NA	NA
hungarian-esp_esp_participant_SESSION_2023-05-23_22h43.16.631.csv	E2P76N	férfi	2004	12	1	posttest trial	158	János imád spivejezni, ezért sokat spivejlik. Ők ritkán...	spivejlenek	spivejeznek	1	spivejeznek	NA	NA	7744	1216710	cselekszenek_1_high_typical	cselekszenek/cselekednek	2	spivejlik / spivejezik	-0.3483066942682157	spivejlenek	spivejeznek	2	nek	1	46	FALSE	TRUE	high	typical	FALSE	FALSE	NA	NA
hungarian-esp_esp_participant_SESSION_2023-05-23_22h43.16.631.csv	E2P76N	férfi	2004	12	1	posttest trial	159	János imád géregezni, ezért sokat géreglik. Ti ritkán...	géregletek	géregeztek	1	géregeztek	NA	NA	11302	1228526	cselekszenek_1_high_typical	cselekszenek/cselekednek	2	géreglik / géregezik	-0.6418538861723948	géregletek	géregeztek	2	tek	1	51	FALSE	TRUE	high	typical	FALSE	FALSE	NA	NA
hungarian-esp_esp_participant_SESSION_2023-05-23_22h43.16.631.csv	E2P76N	férfi	2004	12	1	posttest trial	160	János imád bötőrözni, ezért sokat bötőrzik. Mi ritkán...	bötőrözünk	bötőrzünk	0	bötőrözünk	NA	NA	8279	1237310	cselekszenek_1_high_typical	cselekszenek/cselekednek	2	bötőrzik / bötőrözik	0.3483066942682158	bötőrzünk	bötőrözünk	2	ünk	1	16	FALSE	FALSE	high	typical	TRUE	FALSE	NA	NA
hungarian-esp_esp_participant_SESSION_2023-05-23_22h43.16.631.csv	E2P76N	férfi	2004	12	1	posttest trial	161	János imád frélegezni, ezért sokat frélegzik. Mi ritkán...	frélegezünk	frélegzünk	1	frélegzünk	NA	NA	13287	1251103	cselekszenek_1_high_typical	cselekszenek/cselekednek	2	frélegzik / frélegezik	0.7985076962177716	frélegzünk	frélegezünk	2	ünk	1	3	TRUE	FALSE	high	typical	FALSE	TRUE	NA	NA
hungarian-esp_esp_participant_SESSION_2023-05-23_22h43.16.631.csv	E2P76N	férfi	2004	12	1	posttest trial	162	János imád flugonyozni, ezért sokat flugonylik. Ők ritkán...	flugonylanak	flugonyoznak	1	flugonyoznak	NA	NA	7454	1259070	cselekszenek_1_high_typical	cselekszenek/cselekednek	2	flugonylik / flugonyozik	0	flugonylanak	flugonyoznak	2	nek	1	31	FALSE	FALSE	high	typical	FALSE	FALSE	NA	NA
hungarian-esp_esp_participant_SESSION_2023-05-23_22h43.16.631.csv	E2P76N	férfi	2004	12	1	posttest trial	163	János imád döjözni, ezért sokat döjlik. Ők ritkán...	döjlenek	döjöznek	0	döjlenek	NA	NA	13100	1272678	cselekszenek_1_high_typical	cselekszenek/cselekednek	2	döjlik / döjözik	0.5877866649021191	döjlenek	döjöznek	1	nek	1	9	TRUE	FALSE	high	typical	TRUE	TRUE	NA	NA
hungarian-esp_esp_participant_SESSION_2023-05-23_22h43.16.631.csv	E2P76N	férfi	2004	12	1	posttest trial	164	János imád prihegedni, ezért sokat prihegszik. Ők ritkán...	prihegszenek	prihegednek	1	prihegednek	NA	NA	15087	1288279	cselekszenek_1_high_typical	cselekszenek/cselekednek	2	prihegszik / prihegedik	-0.1941560144409575	prihegszenek	prihegednek	2	nek	1	39	FALSE	FALSE	high	typical	FALSE	FALSE	NA	NA
hungarian-esp_esp_participant_SESSION_2023-05-23_22h43.16.631.csv	E2P76N	férfi	2004	12	1	posttest trial	165	János imád nyizozni, ezért sokat nyizlik. Mi ritkán...	nyizlunk	nyizozunk	1	nyizozunk	NA	NA	7457	1296239	cselekszenek_1_high_typical	cselekszenek/cselekednek	2	nyizlik / nyizozik	0.6418538861723947	nyizlunk	nyizozunk	1	ünk	1	7	TRUE	FALSE	high	typical	FALSE	FALSE	NA	NA
hungarian-esp_esp_participant_SESSION_2023-05-23_22h43.16.631.csv	E2P76N	férfi	2004	12	1	posttest trial	166	János imád dralágozni, ezért sokat dralágzik. Mi ritkán...	dralágzunk	dralágozunk	1	dralágozunk	NA	NA	11814	1308567	cselekszenek_1_high_typical	cselekszenek/cselekednek	2	dralágzik / dralágozik	0.4353180712578455	dralágzunk	dralágozunk	2	ünk	1	14	TRUE	FALSE	high	typical	FALSE	FALSE	NA	NA
hungarian-esp_esp_participant_SESSION_2023-05-23_22h43.16.631.csv	E2P76N	férfi	2004	12	1	posttest trial	167	János imád jurozni, ezért sokat jurlik. Mi ritkán...	jurlunk	jurozunk	1	jurozunk	NA	NA	4399	1313478	cselekszenek_1_high_typical	cselekszenek/cselekednek	2	jurlik / jurozik	0.06899287148695142	jurlunk	jurozunk	1	ünk	1	28	FALSE	FALSE	high	typical	FALSE	FALSE	NA	NA
hungarian-esp_esp_participant_SESSION_2023-05-23_22h43.16.631.csv	E2P76N	férfi	2004	12	1	posttest trial	168	János imád nyülöközni, ezért sokat nyülöklik. Ők ritkán...	nyülöklenek	nyülököznek	1	nyülököznek	NA	NA	6812	1320799	cselekszenek_1_high_typical	cselekszenek/cselekednek	2	nyülöklik / nyülöközik	0.3483066942682158	nyülöklenek	nyülököznek	2	nek	1	17	FALSE	FALSE	high	typical	FALSE	FALSE	NA	NA
hungarian-esp_esp_participant_SESSION_2023-05-23_22h43.16.631.csv	E2P76N	férfi	2004	12	1	posttest trial	169	János imád sztredezni, ezért sokat sztredlik. Ti ritkán...	sztredeztek	sztredletek	0	sztredeztek	NA	NA	49605	1370918	cselekszenek_1_high_typical	cselekszenek/cselekednek	2	sztredlik / sztredezik	0.28768207245178085	sztredletek	sztredeztek	1	tek	1	21	FALSE	FALSE	high	typical	TRUE	FALSE	NA	NA
hungarian-esp_esp_participant_SESSION_2023-05-23_22h43.16.631.csv	E2P76N	férfi	2004	12	1	posttest trial	170	János imád vilesezni, ezért sokat vileslik. Mi ritkán...	vilesezünk	vileslünk	0	vilesezünk	NA	NA	7288	1378710	cselekszenek_1_high_typical	cselekszenek/cselekednek	2	vileslik / vilesezik	0	vileslünk	vilesezünk	2	ünk	1	33	FALSE	FALSE	high	typical	TRUE	FALSE	NA	NA
hungarian-esp_esp_participant_SESSION_2023-05-23_22h43.16.631.csv	E2P76N	férfi	2004	12	1	posttest trial	171	János imád nyádozni, ezért sokat nyádlik. Ők ritkán...	nyádoznak	nyádlanak	1	nyádlanak	NA	NA	9795	1389006	cselekszenek_1_high_typical	cselekszenek/cselekednek	2	nyádlik / nyádozik	0.4595323293784402	nyádlanak	nyádoznak	1	nek	1	13	TRUE	FALSE	high	typical	FALSE	TRUE	NA	NA
hungarian-esp_esp_participant_SESSION_2023-05-23_22h43.16.631.csv	E2P76N	férfi	2004	12	1	posttest trial	172	János imád nyöbözni, ezért sokat nyöbzik. Ők ritkán...	nyöbzenek	nyöböznek	1	nyöböznek	NA	NA	9621	1399142	cselekszenek_1_high_typical	cselekszenek/cselekednek	2	nyöbzik / nyöbözik	-0.06453852113757118	nyöbzenek	nyöböznek	1	nek	1	34	FALSE	FALSE	high	typical	FALSE	FALSE	NA	NA
hungarian-esp_esp_participant_SESSION_2023-05-23_22h43.16.631.csv	E2P76N	férfi	2004	12	1	posttest trial	173	János imád trálakozni, ezért sokat trálaklik. Ők ritkán...	trálaklanak	trálakoznak	1	trálakoznak	NA	NA	6686	1406342	cselekszenek_1_high_typical	cselekszenek/cselekednek	2	trálaklik / trálakozik	0	trálaklanak	trálakoznak	2	nek	1	32	FALSE	FALSE	high	typical	FALSE	FALSE	NA	NA
hungarian-esp_esp_participant_SESSION_2023-05-24_10h53.53.777.csv	EOSX6A	nő	2002	14	10	esp trial	11	János imád mísozni, ezért sokat míslik. Mi ritkán...	míslunk	mísozunk	1	mísozunk	mísozunk	TRUE	17354	106427	cselekszenek_3_low_reversed	cselekszenek/cselekednek	11	míslik / mísozik	0.3483066942682158	míslunk	mísozunk	1	ünk	3	16	FALSE	FALSE	low	reversed	FALSE	FALSE	FALSE	TRUE
hungarian-esp_esp_participant_SESSION_2023-05-24_10h53.53.777.csv	EOSX6A	nő	2002	14	10	esp trial	13	János imád trűnyözni, ezért sokat trűnylik. Ők ritkán...	trűnyöznek	trűnylenek	0	trűnyöznek	trűnyöznek	TRUE	7514	117949	cselekszenek_3_low_reversed	cselekszenek/cselekednek	11	trűnylik / trűnyözik	0	trűnylenek	trűnyöznek	1	nek	3	32	FALSE	FALSE	low	reversed	TRUE	FALSE	FALSE	TRUE
hungarian-esp_esp_participant_SESSION_2023-05-24_10h53.53.777.csv	EOSX6A	nő	2002	14	10	esp trial	15	János imád spalározni, ezért sokat spalárzik. Ők ritkán...	spalárzanak	spalároznak	1	spalároznak	spalároznak	TRUE	8739	130699	cselekszenek_3_low_reversed	cselekszenek/cselekednek	11	spalárzik / spalározik	-0.1431008436406733	spalárzanak	spalároznak	2	nek	3	37	FALSE	FALSE	low	reversed	FALSE	FALSE	FALSE	TRUE
hungarian-esp_esp_participant_SESSION_2023-05-24_10h53.53.777.csv	EOSX6A	nő	2002	14	10	esp trial	17	János imád brivepedni, ezért sokat brivepszik. Mi ritkán...	brivepszünk	brivepedünk	0	brivepszünk	brivepedünk	FALSE	6151	140874	cselekszenek_3_low_reversed	cselekszenek/cselekednek	11	brivepszik / brivepedik	0.9162907318741552	brivepszünk	brivepedünk	2	ünk	3	1	TRUE	FALSE	low	reversed	TRUE	TRUE	FALSE	FALSE
hungarian-esp_esp_participant_SESSION_2023-05-24_10h53.53.777.csv	EOSX6A	nő	2002	14	10	esp trial	19	János imád pekedni, ezért sokat pekszik. Mi ritkán...	pekszünk	pekedünk	1	pekedünk	pekedünk	TRUE	7363	152270	cselekszenek_3_low_reversed	cselekszenek/cselekednek	11	pekszik / pekedik	0.7985076962177716	pekszünk	pekedünk	1	ünk	3	3	TRUE	FALSE	low	reversed	FALSE	FALSE	FALSE	TRUE
hungarian-esp_esp_participant_SESSION_2023-05-24_10h53.53.777.csv	EOSX6A	nő	2002	14	10	esp trial	21	János imád pörözni, ezért sokat pörzik. Ti ritkán...	pörzötök	pöröztök	1	pöröztök	pörzötök	FALSE	8267	164574	cselekszenek_3_low_reversed	cselekszenek/cselekednek	11	pörzik / pörözik	-0.3483066942682157	pörzötök	pöröztök	1	tek	3	45	FALSE	TRUE	low	reversed	FALSE	FALSE	TRUE	TRUE
hungarian-esp_esp_participant_SESSION_2023-05-24_10h53.53.777.csv	EOSX6A	nő	2002	14	10	esp trial	23	János imád kluzozni, ezért sokat kluzlik. Ti ritkán...	kluzoztok	kluzlotok	0	kluzoztok	kluzlotok	FALSE	7431	176034	cselekszenek_3_low_reversed	cselekszenek/cselekednek	11	kluzlik / kluzozik	-0.325422400434628	kluzlotok	kluzoztok	1	tek	3	43	FALSE	TRUE	low	reversed	TRUE	FALSE	TRUE	TRUE
hungarian-esp_esp_participant_SESSION_2023-05-24_10h53.53.777.csv	EOSX6A	nő	2002	14	10	esp trial	25	János imád sprimozni, ezért sokat sprimlik. Mi ritkán...	sprimlunk	sprimozunk	1	sprimozunk	sprimozunk	TRUE	8427	188486	cselekszenek_3_low_reversed	cselekszenek/cselekednek	11	sprimlik / sprimozik	0.20763936477824457	sprimlunk	sprimozunk	1	ünk	3	22	FALSE	FALSE	low	reversed	FALSE	FALSE	FALSE	TRUE
hungarian-esp_esp_participant_SESSION_2023-05-24_10h53.53.777.csv	EOSX6A	nő	2002	14	10	esp trial	27	János imád tibarozni, ezért sokat tibarzik. Ők ritkán...	tibaroznak	tibarzanak	0	tibaroznak	tibaroznak	TRUE	6930	199443	cselekszenek_3_low_reversed	cselekszenek/cselekednek	11	tibarzik / tibarozik	0	tibarzanak	tibaroznak	2	nek	3	31	FALSE	FALSE	low	reversed	TRUE	FALSE	FALSE	TRUE
hungarian-esp_esp_participant_SESSION_2023-05-24_10h53.53.777.csv	EOSX6A	nő	2002	14	10	esp trial	29	János imád míjozni, ezért sokat míjzik. Mi ritkán...	míjzunk	míjozunk	1	míjozunk	míjozunk	TRUE	5507	208979	cselekszenek_3_low_reversed	cselekszenek/cselekednek	11	míjzik / míjozik	0.1941560144409574	míjzunk	míjozunk	1	ünk	3	23	FALSE	FALSE	low	reversed	FALSE	FALSE	FALSE	TRUE
hungarian-esp_esp_participant_SESSION_2023-05-24_10h53.53.777.csv	EOSX6A	nő	2002	14	10	esp trial	31	János imád brálamozni, ezért sokat brálamlik. Ők ritkán...	brálamlanak	brálamoznak	1	brálamoznak	brálamoznak	TRUE	10850	223857	cselekszenek_3_low_reversed	cselekszenek/cselekednek	11	brálamlik / brálamozik	0.4353180712578455	brálamlanak	brálamoznak	2	nek	3	13	TRUE	FALSE	low	reversed	FALSE	FALSE	FALSE	TRUE
hungarian-esp_esp_participant_SESSION_2023-05-24_10h53.53.777.csv	EOSX6A	nő	2002	14	10	esp trial	33	János imád flubokozni, ezért sokat fluboklik. Ti ritkán...	fluboklotok	flubokoztok	1	flubokoztok	fluboklotok	FALSE	12062	239948	cselekszenek_3_low_reversed	cselekszenek/cselekednek	11	fluboklik / flubokozik	-0.5978370007556204	fluboklotok	flubokoztok	2	tek	3	49	FALSE	TRUE	low	reversed	FALSE	FALSE	TRUE	TRUE
hungarian-esp_esp_participant_SESSION_2023-05-24_10h53.53.777.csv	EOSX6A	nő	2002	14	10	esp trial	35	János imád sztritozni, ezért sokat sztritlik. Ők ritkán...	sztritlanak	sztritoznak	1	sztritoznak	sztritoznak	TRUE	6612	250595	cselekszenek_3_low_reversed	cselekszenek/cselekednek	11	sztritlik / sztritozik	0.14310084364067324	sztritlanak	sztritoznak	1	nek	3	25	FALSE	FALSE	low	reversed	FALSE	FALSE	FALSE	TRUE
hungarian-esp_esp_participant_SESSION_2023-05-24_10h53.53.777.csv	EOSX6A	nő	2002	14	10	esp trial	37	János imád lírozni, ezért sokat lírlik. Ők ritkán...	lírlanak	líroznak	1	líroznak	líroznak	TRUE	3223	258827	cselekszenek_3_low_reversed	cselekszenek/cselekednek	11	lírlik / lírozik	-0.06453852113757118	lírlanak	líroznak	1	nek	3	33	FALSE	FALSE	low	reversed	FALSE	FALSE	FALSE	TRUE
hungarian-esp_esp_participant_SESSION_2023-05-24_10h53.53.777.csv	EOSX6A	nő	2002	14	10	esp trial	39	János imád livényezni, ezért sokat livénylik. Mi ritkán...	livénylünk	livényezünk	1	livényezünk	livényezünk	TRUE	4234	267084	cselekszenek_3_low_reversed	cselekszenek/cselekednek	11	livénylik / livényezik	0.4595323293784402	livénylünk	livényezünk	2	ünk	3	12	TRUE	FALSE	low	reversed	FALSE	FALSE	FALSE	TRUE
hungarian-esp_esp_participant_SESSION_2023-05-24_10h53.53.777.csv	EOSX6A	nő	2002	14	10	esp trial	41	János imád galározni, ezért sokat galárzik. Ők ritkán...	galárzanak	galároznak	1	galároznak	galárzanak	FALSE	3341	275322	cselekszenek_3_low_reversed	cselekszenek/cselekednek	11	galárzik / galározik	-0.49247648509779407	galárzanak	galároznak	2	nek	3	48	FALSE	TRUE	low	reversed	FALSE	FALSE	TRUE	TRUE
hungarian-esp_esp_participant_SESSION_2023-05-24_10h53.53.777.csv	EOSX6A	nő	2002	14	10	esp trial	43	János imád prilepedni, ezért sokat prilepszik. Mi ritkán...	prilepedünk	prilepszünk	0	prilepedünk	prilepedünk	TRUE	5281	284631	cselekszenek_3_low_reversed	cselekszenek/cselekednek	11	prilepszik / prilepedik	0.8938178760220965	prilepszünk	prilepedünk	2	ünk	3	2	TRUE	FALSE	low	reversed	TRUE	FALSE	FALSE	TRUE
hungarian-esp_esp_participant_SESSION_2023-05-24_10h53.53.777.csv	EOSX6A	nő	2002	14	10	esp trial	45	János imád gyivepedni, ezért sokat gyivepszik. Ők ritkán...	gyivepednek	gyivepszenek	0	gyivepednek	gyivepednek	TRUE	7236	295905	cselekszenek_3_low_reversed	cselekszenek/cselekednek	11	gyivepszik / gyivepedik	0.20763936477824457	gyivepszenek	gyivepednek	2	nek	3	21	FALSE	FALSE	low	reversed	TRUE	FALSE	FALSE	TRUE
hungarian-esp_esp_participant_SESSION_2023-05-24_10h53.53.777.csv	EOSX6A	nő	2002	14	10	esp trial	47	János imád frésezni, ezért sokat fréslik. Mi ritkán...	fréslünk	frésezünk	1	frésezünk	frésezünk	TRUE	3158	304133	cselekszenek_3_low_reversed	cselekszenek/cselekednek	11	fréslik / frésezik	0.5978370007556204	fréslünk	frésezünk	1	ünk	3	7	TRUE	FALSE	low	reversed	FALSE	FALSE	FALSE	TRUE
hungarian-esp_esp_participant_SESSION_2023-05-24_10h53.53.777.csv	EOSX6A	nő	2002	14	10	esp trial	49	János imád nágapodni, ezért sokat nágapszik. Ők ritkán...	nágapszanak	nágapodnak	1	nágapodnak	nágapodnak	TRUE	6370	314535	cselekszenek_3_low_reversed	cselekszenek/cselekednek	11	nágapszik / nágapodik	0.28768207245178085	nágapszanak	nágapodnak	2	nek	3	20	FALSE	FALSE	low	reversed	FALSE	FALSE	FALSE	TRUE
hungarian-esp_esp_participant_SESSION_2023-05-24_10h53.53.777.csv	EOSX6A	nő	2002	14	10	esp trial	51	János imád flivegezni, ezért sokat flivegzik. Ők ritkán...	flivegeznek	flivegzenek	0	flivegeznek	flivegzenek	FALSE	5603	324163	cselekszenek_3_low_reversed	cselekszenek/cselekednek	11	flivegzik / flivegezik	-0.3483066942682157	flivegzenek	flivegeznek	2	nek	3	44	FALSE	TRUE	low	reversed	TRUE	FALSE	TRUE	TRUE
hungarian-esp_esp_participant_SESSION_2023-05-24_10h53.53.777.csv	EOSX6A	nő	2002	14	10	esp trial	53	János imád spöközni, ezért sokat spöklik. Mi ritkán...	spöklünk	spöközünk	1	spöközünk	spöközünk	TRUE	7597	335791	cselekszenek_3_low_reversed	cselekszenek/cselekednek	11	spöklik / spöközik	0.5978370007556204	spöklünk	spöközünk	1	ünk	3	8	TRUE	FALSE	low	reversed	FALSE	FALSE	FALSE	TRUE
hungarian-esp_esp_participant_SESSION_2023-05-24_10h53.53.777.csv	EOSX6A	nő	2002	14	10	esp trial	55	János imád sponyozni, ezért sokat sponylik. Ők ritkán...	sponyoznak	sponylanak	0	sponyoznak	sponyoznak	TRUE	9146	348964	cselekszenek_3_low_reversed	cselekszenek/cselekednek	11	sponylik / sponyozik	0.7419373447293773	sponylanak	sponyoznak	1	nek	3	5	TRUE	FALSE	low	reversed	TRUE	FALSE	FALSE	TRUE
hungarian-esp_esp_participant_SESSION_2023-05-24_10h53.53.777.csv	EOSX6A	nő	2002	14	10	esp trial	57	János imád klarágozni, ezért sokat klarágzik. Ti ritkán...	klarágoztok	klarágzotok	0	klarágoztok	klarágzotok	FALSE	7934	360930	cselekszenek_3_low_reversed	cselekszenek/cselekednek	11	klarágzik / klarágozik	-0.916290731874155	klarágzotok	klarágoztok	2	tek	3	53	FALSE	TRUE	low	reversed	TRUE	FALSE	TRUE	TRUE
hungarian-esp_esp_participant_SESSION_2023-05-24_10h53.53.777.csv	EOSX6A	nő	2002	14	10	esp trial	59	János imád lumozni, ezért sokat lumlik. Ti ritkán...	lumlotok	lumoztok	1	lumoztok	lumlotok	FALSE	5329	370286	cselekszenek_3_low_reversed	cselekszenek/cselekednek	11	lumlik / lumozik	-0.2876820724517809	lumlotok	lumoztok	1	tek	3	41	FALSE	TRUE	low	reversed	FALSE	FALSE	TRUE	TRUE
hungarian-esp_esp_participant_SESSION_2023-05-24_10h53.53.777.csv	EOSX6A	nő	2002	14	10	esp trial	61	János imád vobozni, ezért sokat vobzik. Ti ritkán...	voboztok	vobzotok	0	voboztok	vobzotok	FALSE	6586	380900	cselekszenek_3_low_reversed	cselekszenek/cselekednek	11	vobzik / vobozik	-0.2876820724517809	vobzotok	voboztok	1	tek	3	42	FALSE	TRUE	low	reversed	TRUE	FALSE	TRUE	TRUE
hungarian-esp_esp_participant_SESSION_2023-05-24_10h53.53.777.csv	EOSX6A	nő	2002	14	10	esp trial	63	János imád tágarozni, ezért sokat tágarzik. Mi ritkán...	tágarzunk	tágarozunk	1	tágarozunk	tágarozunk	TRUE	10428	395347	cselekszenek_3_low_reversed	cselekszenek/cselekednek	11	tágarzik / tágarozik	-0.06899287148695143	tágarzunk	tágarozunk	2	ünk	3	36	FALSE	FALSE	low	reversed	FALSE	FALSE	FALSE	TRUE
hungarian-esp_esp_participant_SESSION_2023-05-24_10h53.53.777.csv	EOSX6A	nő	2002	14	10	esp trial	65	János imád flézezni, ezért sokat flézlik. Ti ritkán...	flézeztek	flézletek	0	flézeztek	flézletek	FALSE	8003	407375	cselekszenek_3_low_reversed	cselekszenek/cselekednek	11	flézlik / flézezik	-0.4595323293784402	flézletek	flézeztek	1	tek	3	47	FALSE	TRUE	low	reversed	TRUE	FALSE	TRUE	TRUE
hungarian-esp_esp_participant_SESSION_2023-05-24_10h53.53.777.csv	EOSX6A	nő	2002	14	10	esp trial	67	János imád tribejezni, ezért sokat tribejlik. Ti ritkán...	tribejeztek	tribejletek	0	tribejeztek	tribejletek	FALSE	9484	420883	cselekszenek_3_low_reversed	cselekszenek/cselekednek	11	tribejlik / tribejezik	-0.5978370007556204	tribejletek	tribejeztek	2	tek	3	50	FALSE	TRUE	low	reversed	TRUE	FALSE	TRUE	TRUE
hungarian-esp_esp_participant_SESSION_2023-05-24_10h53.53.777.csv	EOSX6A	nő	2002	14	10	esp trial	69	János imád mihágozni, ezért sokat mihágzik. Ti ritkán...	mihágzotok	mihágoztok	1	mihágoztok	mihágzotok	FALSE	7144	432059	cselekszenek_3_low_reversed	cselekszenek/cselekednek	11	mihágzik / mihágozik	-0.7419373447293773	mihágzotok	mihágoztok	2	tek	3	51	FALSE	TRUE	low	reversed	FALSE	FALSE	TRUE	TRUE
hungarian-esp_esp_participant_SESSION_2023-05-24_10h53.53.777.csv	EOSX6A	nő	2002	14	10	esp trial	71	János imád gibemezni, ezért sokat gibemlik. Mi ritkán...	gibemlünk	gibemezünk	1	gibemezünk	gibemezünk	TRUE	9274	445363	cselekszenek_3_low_reversed	cselekszenek/cselekednek	11	gibemlik / gibemezik	0.4353180712578455	gibemlünk	gibemezünk	2	ünk	3	14	TRUE	FALSE	low	reversed	FALSE	FALSE	FALSE	TRUE
hungarian-esp_esp_participant_SESSION_2023-05-24_10h53.53.777.csv	EOSX6A	nő	2002	14	10	esp trial	73	János imád küsözni, ezért sokat küslik. Mi ritkán...	küsözünk	küslünk	0	küsözünk	küsözünk	TRUE	10957	460355	cselekszenek_3_low_reversed	cselekszenek/cselekednek	11	küslik / küsözik	0.6418538861723947	küslünk	küsözünk	1	ünk	3	6	TRUE	FALSE	low	reversed	TRUE	FALSE	FALSE	TRUE
hungarian-esp_esp_participant_SESSION_2023-05-24_10h53.53.777.csv	EOSX6A	nő	2002	14	10	esp trial	75	János imád trírozni, ezért sokat trírzik. Mi ritkán...	trírzunk	trírozunk	0	trírzunk	trírozunk	FALSE	6698	471083	cselekszenek_3_low_reversed	cselekszenek/cselekednek	11	trírzik / trírozik	-0.06453852113757118	trírzunk	trírozunk	1	ünk	3	34	FALSE	FALSE	low	reversed	TRUE	TRUE	FALSE	FALSE
hungarian-esp_esp_participant_SESSION_2023-05-24_10h53.53.777.csv	EOSX6A	nő	2002	14	10	esp trial	77	János imád brározni, ezért sokat brárlik. Ők ritkán...	brároznak	brárlanak	0	brároznak	brároznak	TRUE	11076	486191	cselekszenek_3_low_reversed	cselekszenek/cselekednek	11	brárlik / brározik	0.14310084364067324	brárlanak	brároznak	1	nek	3	24	FALSE	FALSE	low	reversed	TRUE	FALSE	FALSE	TRUE
hungarian-esp_esp_participant_SESSION_2023-05-24_10h53.53.777.csv	EOSX6A	nő	2002	14	10	esp trial	79	János imád bregezni, ezért sokat bregzik. Mi ritkán...	bregzünk	bregezünk	0	bregzünk	bregezünk	FALSE	8205	498424	cselekszenek_3_low_reversed	cselekszenek/cselekednek	11	bregzik / bregezik	0.49247648509779424	bregzünk	bregezünk	1	ünk	3	10	TRUE	FALSE	low	reversed	TRUE	TRUE	FALSE	FALSE
hungarian-esp_esp_participant_SESSION_2023-05-24_10h53.53.777.csv	EOSX6A	nő	2002	14	10	esp trial	81	János imád prazozni, ezért sokat prazlik. Mi ritkán...	prazozunk	prazlunk	0	prazozunk	prazozunk	TRUE	9489	511942	cselekszenek_3_low_reversed	cselekszenek/cselekednek	11	prazlik / prazozik	-0.1941560144409575	prazlunk	prazozunk	1	ünk	3	38	FALSE	FALSE	low	reversed	TRUE	FALSE	FALSE	TRUE
hungarian-esp_esp_participant_SESSION_2023-05-24_10h53.53.777.csv	EOSX6A	nő	2002	14	10	esp trial	83	János imád dirányozni, ezért sokat diránylik. Ők ritkán...	dirányoznak	diránylanak	0	dirányoznak	dirányoznak	TRUE	4011	520189	cselekszenek_3_low_reversed	cselekszenek/cselekednek	11	diránylik / dirányozik	-0.06899287148695143	diránylanak	dirányoznak	2	nek	3	35	FALSE	FALSE	low	reversed	TRUE	FALSE	FALSE	TRUE
hungarian-esp_esp_participant_SESSION_2023-05-24_10h53.53.777.csv	EOSX6A	nő	2002	14	10	esp trial	85	János imád brüszözni, ezért sokat brüszlik. Ti ritkán...	brüszöztök	brüszlötök	0	brüszöztök	brüszöztök	TRUE	4298	528513	cselekszenek_3_low_reversed	cselekszenek/cselekednek	11	brüszlik / brüszözik	-0.2076393647782445	brüszlötök	brüszöztök	1	tek	3	39	FALSE	FALSE	low	reversed	TRUE	FALSE	FALSE	TRUE
hungarian-esp_esp_participant_SESSION_2023-05-24_10h53.53.777.csv	EOSX6A	nő	2002	14	10	esp trial	87	János imád gatágozni, ezért sokat gatáglik. Mi ritkán...	gatágozunk	gatáglunk	0	gatágozunk	gatáglunk	FALSE	5761	538306	cselekszenek_3_low_reversed	cselekszenek/cselekednek	11	gatáglik / gatágozik	-0.7985076962177716	gatáglunk	gatágozunk	2	ünk	3	52	FALSE	TRUE	low	reversed	TRUE	FALSE	TRUE	TRUE
