dat_id	part_id	part_gender	part_yob	part_edu	list_number	trial_kind	trial_index	stimulus	choice1	choice2	variant1	variant2	response	response_string	picked_v1	picked_left	esp_response	esp_match	esp_v1	rt	time_elapsed	variation	file_name	column	base	log_odds	prompt	nsyl	suffix	sample_number	word_rank	top_20	bottom_20	reg_rate	reg_dist	picked_majority
hungarian-esp_esp_participant_SESSION_2022-11-19_09h47.48.87.csv	JT0KQV	Nő	2000	15	1	esp trial	11	Te bizony sokat ribegzel. Én is sokat...	ribegzek	ribegzem	ribegzek	ribegzem	0	ribegzek	TRUE	TRUE	ribegzek	TRUE	TRUE	10485	360427	lakok/lakom	lakok_1_high_typical	14	ribegzik	-0.1941560144409575	Te bizony sokat ribegzel. Én is sokat...	2	NA	1	38	FALSE	FALSE	high	typical	TRUE
hungarian-esp_esp_participant_SESSION_2022-11-19_09h47.48.87.csv	JT0KQV	Nő	2000	15	1	esp trial	13	Te bizony sokat spéslesz. Én is sokat...	spéslem	spéslek	spéslek	spéslem	1	spéslek	TRUE	FALSE	spéslek	TRUE	TRUE	6437	370874	lakok/lakom	lakok_1_high_typical	14	spéslik	1.1451323043030026	Te bizony sokat spéslesz. Én is sokat...	1	NA	1	8	TRUE	FALSE	high	typical	TRUE
hungarian-esp_esp_participant_SESSION_2022-11-19_09h47.48.87.csv	JT0KQV	Nő	2000	15	1	esp trial	15	Te bizony sokat herégszel. Én is sokat...	herégszek	herégszem	herégszek	herégszem	1	herégszem	FALSE	FALSE	herégszem	TRUE	FALSE	7957	382840	lakok/lakom	lakok_1_high_typical	14	herégszik	-0.6418538861723948	Te bizony sokat herégszel. Én is sokat...	2	NA	1	50	FALSE	TRUE	high	typical	FALSE
hungarian-esp_esp_participant_SESSION_2022-11-19_09h47.48.87.csv	JT0KQV	Nő	2000	15	1	esp trial	17	Te bizony sokat sprökszöl. Én is sokat...	sprökszök	sprökszöm	sprökszök	sprökszöm	1	sprökszöm	FALSE	FALSE	sprökszöm	TRUE	FALSE	9650	396498	lakok/lakom	lakok_1_high_typical	14	sprökszik	-0.2876820724517809	Te bizony sokat sprökszöl. Én is sokat...	1	NA	1	41	FALSE	TRUE	high	typical	FALSE
hungarian-esp_esp_participant_SESSION_2022-11-19_09h47.48.87.csv	JT0KQV	Nő	2000	15	1	esp trial	19	Te bizony sokat narjárzol. Én is sokat...	narjárzom	narjárzok	narjárzok	narjárzom	1	narjárzok	TRUE	FALSE	narjárzok	TRUE	TRUE	3440	406008	lakok/lakom	lakok_1_high_typical	14	narjárzik	0	Te bizony sokat narjárzol. Én is sokat...	2	NA	1	34	FALSE	FALSE	high	typical	TRUE
hungarian-esp_esp_participant_SESSION_2022-11-19_09h47.48.87.csv	JT0KQV	Nő	2000	15	1	esp trial	21	Te bizony sokat csíszlasz. Én is sokat...	csíszlom	csíszlok	csíszlok	csíszlom	1	csíszlok	TRUE	FALSE	csíszlok	TRUE	TRUE	3830	415517	lakok/lakom	lakok_1_high_typical	14	csíszlik	0.7419373447293773	Te bizony sokat csíszlasz. Én is sokat...	1	NA	1	16	FALSE	FALSE	high	typical	TRUE
hungarian-esp_esp_participant_SESSION_2022-11-19_09h47.48.87.csv	JT0KQV	Nő	2000	15	1	esp trial	23	Te bizony sokat klörlesz. Én is sokat...	klörlöm	klörlök	klörlök	klörlöm	1	klörlök	TRUE	FALSE	klörlök	TRUE	TRUE	6203	425729	lakok/lakom	lakok_1_high_typical	14	klörlik	0.6418538861723947	Te bizony sokat klörlesz. Én is sokat...	1	NA	1	19	FALSE	FALSE	high	typical	TRUE
hungarian-esp_esp_participant_SESSION_2022-11-19_09h47.48.87.csv	JT0KQV	Nő	2000	15	1	esp trial	25	Te bizony sokat tínylasz. Én is sokat...	tínylok	tínylom	tínylok	tínylom	0	tínylok	TRUE	TRUE	tínylok	TRUE	TRUE	4532	435238	lakok/lakom	lakok_1_high_typical	14	tínylik	0.4353180712578455	Te bizony sokat tínylasz. Én is sokat...	1	NA	1	24	FALSE	FALSE	high	typical	TRUE
hungarian-esp_esp_participant_SESSION_2022-11-19_09h47.48.87.csv	JT0KQV	Nő	2000	15	1	esp trial	27	Te bizony sokat feténylesz. Én is sokat...	feténylem	feténylek	feténylek	feténylem	1	feténylek	TRUE	FALSE	feténylek	TRUE	TRUE	3318	444747	lakok/lakom	lakok_1_high_typical	14	feténylik	1.5686159179138452	Te bizony sokat feténylesz. Én is sokat...	2	NA	1	4	TRUE	FALSE	high	typical	TRUE
hungarian-esp_esp_participant_SESSION_2022-11-19_09h47.48.87.csv	JT0KQV	Nő	2000	15	1	esp trial	29	Te bizony sokat brágaklasz. Én is sokat...	brágaklok	brágaklom	brágaklok	brágaklom	1	brágaklom	FALSE	FALSE	brágaklom	TRUE	FALSE	5473	454255	lakok/lakom	lakok_1_high_typical	14	brágaklik	-0.325422400434628	Te bizony sokat brágaklasz. Én is sokat...	2	NA	1	42	FALSE	TRUE	high	typical	FALSE
hungarian-esp_esp_participant_SESSION_2022-11-19_09h47.48.87.csv	JT0KQV	Nő	2000	15	1	esp trial	31	Te bizony sokat femlesz. Én is sokat...	femlek	femlem	femlek	femlem	0	femlek	TRUE	TRUE	femlek	TRUE	TRUE	2742	463764	lakok/lakom	lakok_1_high_typical	14	femlik	1.6486586255873816	Te bizony sokat femlesz. Én is sokat...	1	NA	1	3	TRUE	FALSE	high	typical	TRUE
hungarian-esp_esp_participant_SESSION_2022-11-19_09h47.48.87.csv	JT0KQV	Nő	2000	15	1	esp trial	33	Te bizony sokat fretszel. Én is sokat...	fretszem	fretszek	fretszek	fretszem	0	fretszem	FALSE	TRUE	fretszek	FALSE	TRUE	6628	474399	lakok/lakom	lakok_1_high_typical	14	fretszik	0	Te bizony sokat fretszel. Én is sokat...	1	NA	1	33	FALSE	FALSE	high	typical	FALSE
hungarian-esp_esp_participant_SESSION_2022-11-19_09h47.48.87.csv	JT0KQV	Nő	2000	15	1	esp trial	35	Te bizony sokat pebzel. Én is sokat...	pebzek	pebzem	pebzek	pebzem	0	pebzek	TRUE	TRUE	pebzek	TRUE	TRUE	4836	483908	lakok/lakom	lakok_1_high_typical	14	pebzik	0.49247648509779424	Te bizony sokat pebzel. Én is sokat...	1	NA	1	21	FALSE	FALSE	high	typical	TRUE
hungarian-esp_esp_participant_SESSION_2022-11-19_09h47.48.87.csv	JT0KQV	Nő	2000	15	1	esp trial	37	Te bizony sokat trilszol. Én is sokat...	trilszom	trilszok	trilszok	trilszom	1	trilszok	TRUE	FALSE	trilszok	TRUE	TRUE	8076	495992	lakok/lakom	lakok_1_high_typical	14	trilszik	0.28768207245178085	Te bizony sokat trilszol. Én is sokat...	1	NA	1	27	FALSE	FALSE	high	typical	TRUE
hungarian-esp_esp_participant_SESSION_2022-11-19_09h47.48.87.csv	JT0KQV	Nő	2000	15	1	esp trial	39	Te bizony sokat spilágzol. Én is sokat...	spilágzok	spilágzom	spilágzok	spilágzom	1	spilágzom	FALSE	FALSE	spilágzom	TRUE	FALSE	4096	505501	lakok/lakom	lakok_1_high_typical	14	spilágzik	-0.9650808960435872	Te bizony sokat spilágzol. Én is sokat...	2	NA	1	54	FALSE	TRUE	high	typical	FALSE
hungarian-esp_esp_participant_SESSION_2022-11-19_09h47.48.87.csv	JT0KQV	Nő	2000	15	1	esp trial	41	Te bizony sokat bölszöl. Én is sokat...	bölszök	bölszöm	bölszök	bölszöm	0	bölszök	TRUE	TRUE	bölszök	TRUE	TRUE	5904	515413	lakok/lakom	lakok_1_high_typical	14	bölszik	0.3483066942682158	Te bizony sokat bölszöl. Én is sokat...	1	NA	1	25	FALSE	FALSE	high	typical	TRUE
hungarian-esp_esp_participant_SESSION_2022-11-19_09h47.48.87.csv	JT0KQV	Nő	2000	15	1	esp trial	43	Te bizony sokat szirlasz. Én is sokat...	szirlok	szirlom	szirlok	szirlom	0	szirlok	TRUE	TRUE	szirlok	TRUE	TRUE	7252	526673	lakok/lakom	lakok_1_high_typical	14	szirlik	0.7419373447293773	Te bizony sokat szirlasz. Én is sokat...	1	NA	1	18	FALSE	FALSE	high	typical	TRUE
hungarian-esp_esp_participant_SESSION_2022-11-19_09h47.48.87.csv	JT0KQV	Nő	2000	15	1	esp trial	45	Te bizony sokat pratánylasz. Én is sokat...	pratánylok	pratánylom	pratánylok	pratánylom	1	pratánylom	FALSE	FALSE	pratánylok	FALSE	TRUE	5392	536182	lakok/lakom	lakok_1_high_typical	14	pratánylik	1.2321436812926323	Te bizony sokat pratánylasz. Én is sokat...	2	NA	1	7	TRUE	FALSE	high	typical	FALSE
hungarian-esp_esp_participant_SESSION_2022-11-19_09h47.48.87.csv	JT0KQV	Nő	2000	15	1	esp trial	47	Te bizony sokat brüjlesz. Én is sokat...	brüjlöm	brüjlök	brüjlök	brüjlöm	0	brüjlöm	FALSE	TRUE	brüjlök	FALSE	TRUE	7549	547738	lakok/lakom	lakok_1_high_typical	14	brüjlik	0.7472144018302211	Te bizony sokat brüjlesz. Én is sokat...	1	NA	1	15	TRUE	FALSE	high	typical	FALSE
hungarian-esp_esp_participant_SESSION_2022-11-19_09h47.48.87.csv	JT0KQV	Nő	2000	15	1	esp trial	49	Te bizony sokat piragszol. Én is sokat...	piragszok	piragszom	piragszok	piragszom	1	piragszom	FALSE	FALSE	piragszom	TRUE	FALSE	5164	557247	lakok/lakom	lakok_1_high_typical	14	piragszik	-0.587786664902119	Te bizony sokat piragszol. Én is sokat...	2	NA	1	47	FALSE	TRUE	high	typical	FALSE
hungarian-esp_esp_participant_SESSION_2022-11-19_09h47.48.87.csv	JT0KQV	Nő	2000	15	1	esp trial	51	Te bizony sokat flüröslesz. Én is sokat...	flüröslök	flüröslöm	flüröslök	flüröslöm	0	flüröslök	TRUE	TRUE	flüröslök	TRUE	TRUE	3808	566757	lakok/lakom	lakok_1_high_typical	14	flüröslik	0.7419373447293773	Te bizony sokat flüröslesz. Én is sokat...	2	NA	1	17	FALSE	FALSE	high	typical	TRUE
hungarian-esp_esp_participant_SESSION_2022-11-19_09h47.48.87.csv	JT0KQV	Nő	2000	15	1	esp trial	53	Te bizony sokat sojzol. Én is sokat...	sojzom	sojzok	sojzok	sojzom	1	sojzok	TRUE	FALSE	sojzom	FALSE	FALSE	10550	581314	lakok/lakom	lakok_1_high_typical	14	sojzik	-0.4595323293784402	Te bizony sokat sojzol. Én is sokat...	1	NA	1	46	FALSE	TRUE	high	typical	TRUE
hungarian-esp_esp_participant_SESSION_2022-11-19_09h47.48.87.csv	JT0KQV	Nő	2000	15	1	esp trial	55	Te bizony sokat frilegszel. Én is sokat...	frilegszek	frilegszem	frilegszek	frilegszem	1	frilegszem	FALSE	FALSE	frilegszem	TRUE	FALSE	7297	592618	lakok/lakom	lakok_1_high_typical	14	frilegszik	-0.2876820724517809	Te bizony sokat frilegszel. Én is sokat...	2	NA	1	40	FALSE	TRUE	high	typical	FALSE
hungarian-esp_esp_participant_SESSION_2022-11-19_09h47.48.87.csv	JT0KQV	Nő	2000	15	1	esp trial	57	Te bizony sokat ruslasz. Én is sokat...	ruslok	ruslom	ruslok	ruslom	0	ruslok	TRUE	TRUE	ruslok	TRUE	TRUE	9395	606021	lakok/lakom	lakok_1_high_typical	14	ruslik	0.8938178760220965	Te bizony sokat ruslasz. Én is sokat...	1	NA	1	13	TRUE	FALSE	high	typical	TRUE
hungarian-esp_esp_participant_SESSION_2022-11-19_09h47.48.87.csv	JT0KQV	Nő	2000	15	1	esp trial	59	Te bizony sokat fibamlasz. Én is sokat...	fibamlok	fibamlom	fibamlok	fibamlom	0	fibamlok	TRUE	TRUE	fibamlok	TRUE	TRUE	2972	615529	lakok/lakom	lakok_1_high_typical	14	fibamlik	1.9095425048844383	Te bizony sokat fibamlasz. Én is sokat...	2	NA	1	2	TRUE	FALSE	high	typical	TRUE
hungarian-esp_esp_participant_SESSION_2022-11-19_09h47.48.87.csv	JT0KQV	Nő	2000	15	1	esp trial	61	Te bizony sokat drubódzol. Én is sokat...	drubódzom	drubódzok	drubódzok	drubódzom	1	drubódzok	TRUE	FALSE	drubódzom	FALSE	FALSE	6655	626191	lakok/lakom	lakok_1_high_typical	14	drubódzik	-0.4353180712578455	Te bizony sokat drubódzol. Én is sokat...	2	NA	1	44	FALSE	TRUE	high	typical	TRUE
hungarian-esp_esp_participant_SESSION_2022-11-19_09h47.48.87.csv	JT0KQV	Nő	2000	15	1	esp trial	63	Te bizony sokat tiregzel. Én is sokat...	tiregzek	tiregzem	tiregzek	tiregzem	1	tiregzem	FALSE	FALSE	tiregzek	FALSE	TRUE	8141	638339	lakok/lakom	lakok_1_high_typical	14	tiregzik	0.06453852113757116	Te bizony sokat tiregzel. Én is sokat...	2	NA	1	32	FALSE	FALSE	high	typical	FALSE
hungarian-esp_esp_participant_SESSION_2022-11-19_09h47.48.87.csv	JT0KQV	Nő	2000	15	1	esp trial	65	Te bizony sokat pivegszel. Én is sokat...	pivegszem	pivegszek	pivegszek	pivegszem	1	pivegszek	TRUE	FALSE	pivegszem	FALSE	FALSE	3460	647848	lakok/lakom	lakok_1_high_typical	14	pivegszik	-0.8938178760220964	Te bizony sokat pivegszel. Én is sokat...	2	NA	1	53	FALSE	TRUE	high	typical	TRUE
hungarian-esp_esp_participant_SESSION_2022-11-19_09h47.48.87.csv	JT0KQV	Nő	2000	15	1	esp trial	67	Te bizony sokat flagánylasz. Én is sokat...	flagánylom	flagánylok	flagánylok	flagánylom	1	flagánylok	TRUE	FALSE	flagánylok	TRUE	TRUE	3658	657356	lakok/lakom	lakok_1_high_typical	14	flagánylik	1.0560526742493137	Te bizony sokat flagánylasz. Én is sokat...	2	NA	1	9	TRUE	FALSE	high	typical	TRUE
hungarian-esp_esp_participant_SESSION_2022-11-19_09h47.48.87.csv	JT0KQV	Nő	2000	15	1	esp trial	69	Te bizony sokat ribzol. Én is sokat...	ribzom	ribzok	ribzok	ribzom	1	ribzok	TRUE	FALSE	ribzom	FALSE	FALSE	3491	666865	lakok/lakom	lakok_1_high_typical	14	ribzik	-0.5978370007556204	Te bizony sokat ribzol. Én is sokat...	1	NA	1	49	FALSE	TRUE	high	typical	TRUE
hungarian-esp_esp_participant_SESSION_2022-11-19_09h47.48.87.csv	JT0KQV	Nő	2000	15	1	esp trial	71	Te bizony sokat juszlasz. Én is sokat...	juszlom	juszlok	juszlok	juszlom	0	juszlom	FALSE	TRUE	juszlok	FALSE	TRUE	9483	680355	lakok/lakom	lakok_1_high_typical	14	juszlik	0.4595323293784402	Te bizony sokat juszlasz. Én is sokat...	1	NA	1	22	FALSE	FALSE	high	typical	FALSE
hungarian-esp_esp_participant_SESSION_2022-11-19_09h47.48.87.csv	JT0KQV	Nő	2000	15	1	esp trial	73	Te bizony sokat flagárzol. Én is sokat...	flagárzok	flagárzom	flagárzok	flagárzom	1	flagárzom	FALSE	FALSE	flagárzok	FALSE	TRUE	3676	689863	lakok/lakom	lakok_1_high_typical	14	flagárzik	-0.2076393647782445	Te bizony sokat flagárzol. Én is sokat...	2	NA	1	39	FALSE	FALSE	high	typical	FALSE
hungarian-esp_esp_participant_SESSION_2022-11-19_09h47.48.87.csv	JT0KQV	Nő	2000	15	1	esp trial	75	Te bizony sokat spatárzol. Én is sokat...	spatárzom	spatárzok	spatárzok	spatárzom	1	spatárzok	TRUE	FALSE	spatárzok	TRUE	TRUE	3333	699371	lakok/lakom	lakok_1_high_typical	14	spatárzik	-0.06453852113757118	Te bizony sokat spatárzol. Én is sokat...	2	NA	1	35	FALSE	FALSE	high	typical	TRUE
hungarian-esp_esp_participant_SESSION_2022-11-19_09h47.48.87.csv	JT0KQV	Nő	2000	15	1	esp trial	77	Te bizony sokat vilakszol. Én is sokat...	vilakszom	vilakszok	vilakszok	vilakszom	1	vilakszok	TRUE	FALSE	vilakszom	FALSE	FALSE	4959	708880	lakok/lakom	lakok_1_high_typical	14	vilakszik	-0.7985076962177716	Te bizony sokat vilakszol. Én is sokat...	2	NA	1	52	FALSE	TRUE	high	typical	TRUE
hungarian-esp_esp_participant_SESSION_2022-11-19_09h47.48.87.csv	JT0KQV	Nő	2000	15	1	esp trial	79	Te bizony sokat büglesz. Én is sokat...	büglök	büglöm	büglök	büglöm	0	büglök	TRUE	TRUE	büglök	TRUE	TRUE	3060	718388	lakok/lakom	lakok_1_high_typical	14	büglik	0.9162907318741552	Te bizony sokat büglesz. Én is sokat...	1	NA	1	11	TRUE	FALSE	high	typical	TRUE
hungarian-esp_esp_participant_SESSION_2022-11-19_09h47.48.87.csv	JT0KQV	Nő	2000	15	1	esp trial	81	Te bizony sokat hilarzol. Én is sokat...	hilarzok	hilarzom	hilarzok	hilarzom	1	hilarzom	FALSE	FALSE	hilarzok	FALSE	TRUE	3688	727897	lakok/lakom	lakok_1_high_typical	14	hilarzik	0.06899287148695142	Te bizony sokat hilarzol. Én is sokat...	2	NA	1	30	FALSE	FALSE	high	typical	FALSE
hungarian-esp_esp_participant_SESSION_2022-11-19_09h47.48.87.csv	JT0KQV	Nő	2000	15	1	esp trial	83	Te bizony sokat driládzol. Én is sokat...	driládzom	driládzok	driládzok	driládzom	1	driládzok	TRUE	FALSE	driládzom	FALSE	FALSE	3195	737406	lakok/lakom	lakok_1_high_typical	14	driládzik	-0.5978370007556204	Te bizony sokat driládzol. Én is sokat...	2	NA	1	48	FALSE	TRUE	high	typical	TRUE
hungarian-esp_esp_participant_SESSION_2022-11-19_09h47.48.87.csv	JT0KQV	Nő	2000	15	1	esp trial	85	Te bizony sokat prilegzel. Én is sokat...	prilegzem	prilegzek	prilegzek	prilegzem	1	prilegzek	TRUE	FALSE	prilegzem	FALSE	FALSE	5566	746978	lakok/lakom	lakok_1_high_typical	14	prilegzik	-0.3483066942682157	Te bizony sokat prilegzel. Én is sokat...	2	NA	1	43	FALSE	TRUE	high	typical	TRUE
hungarian-esp_esp_participant_SESSION_2022-11-19_09h47.48.87.csv	JT0KQV	Nő	2000	15	1	esp trial	87	Te bizony sokat sűzlesz. Én is sokat...	sűzlöm	sűzlök	sűzlök	sűzlöm	1	sűzlök	TRUE	FALSE	sűzlök	TRUE	TRUE	4455	756485	lakok/lakom	lakok_1_high_typical	14	sűzlik	0.14310084364067324	Te bizony sokat sűzlesz. Én is sokat...	1	NA	1	29	FALSE	FALSE	high	typical	TRUE
hungarian-esp_esp_participant_SESSION_2022-11-19_09h47.48.87.csv	JT0KQV	Nő	2000	15	1	esp trial	89	Te bizony sokat flűröklesz. Én is sokat...	flűröklöm	flűröklök	flűröklök	flűröklöm	1	flűröklök	TRUE	FALSE	flűröklök	TRUE	TRUE	6232	766723	lakok/lakom	lakok_1_high_typical	14	flűröklik	0.32542240043462795	Te bizony sokat flűröklesz. Én is sokat...	2	NA	1	26	FALSE	FALSE	high	typical	TRUE
hungarian-esp_esp_participant_SESSION_2022-11-19_09h47.48.87.csv	JT0KQV	Nő	2000	15	1	esp trial	91	Te bizony sokat jüslesz. Én is sokat...	jüslök	jüslöm	jüslök	jüslöm	0	jüslök	TRUE	TRUE	jüslök	TRUE	TRUE	6506	777236	lakok/lakom	lakok_1_high_typical	14	jüslik	0.965080896043587	Te bizony sokat jüslesz. Én is sokat...	1	NA	1	10	TRUE	FALSE	high	typical	TRUE
hungarian-esp_esp_participant_SESSION_2022-11-19_09h47.48.87.csv	JT0KQV	Nő	2000	15	1	esp trial	93	Te bizony sokat nyáslasz. Én is sokat...	nyáslok	nyáslom	nyáslok	nyáslom	1	nyáslom	FALSE	FALSE	nyáslok	FALSE	TRUE	3096	786745	lakok/lakom	lakok_1_high_typical	14	nyáslik	0.5877866649021191	Te bizony sokat nyáslasz. Én is sokat...	1	NA	1	20	FALSE	FALSE	high	typical	FALSE
hungarian-esp_esp_participant_SESSION_2022-11-19_09h47.48.87.csv	JT0KQV	Nő	2000	15	1	esp trial	95	Te bizony sokat lorjódzol. Én is sokat...	lorjódzok	lorjódzom	lorjódzok	lorjódzom	1	lorjódzom	FALSE	FALSE	lorjódzok	FALSE	TRUE	4835	796252	lakok/lakom	lakok_1_high_typical	14	lorjódzik	-0.1941560144409575	Te bizony sokat lorjódzol. Én is sokat...	2	NA	1	37	FALSE	FALSE	high	typical	FALSE
hungarian-esp_esp_participant_SESSION_2022-11-19_09h47.48.87.csv	JT0KQV	Nő	2000	15	1	esp trial	97	Te bizony sokat tomlasz. Én is sokat...	tomlok	tomlom	tomlok	tomlom	0	tomlok	TRUE	TRUE	tomlok	TRUE	TRUE	3587	805761	lakok/lakom	lakok_1_high_typical	14	tomlik	2.2335922215070942	Te bizony sokat tomlasz. Én is sokat...	1	NA	1	1	TRUE	FALSE	high	typical	TRUE
hungarian-esp_esp_participant_SESSION_2022-11-19_09h47.48.87.csv	JT0KQV	Nő	2000	15	1	esp trial	99	Te bizony sokat klibamlasz. Én is sokat...	klibamlok	klibamlom	klibamlok	klibamlom	0	klibamlok	TRUE	TRUE	klibamlok	TRUE	TRUE	3150	815269	lakok/lakom	lakok_1_high_typical	14	klibamlik	0.4353180712578455	Te bizony sokat klibamlasz. Én is sokat...	2	NA	1	23	FALSE	FALSE	high	typical	TRUE
hungarian-esp_esp_participant_SESSION_2022-11-19_09h47.48.87.csv	JT0KQV	Nő	2000	15	1	esp trial	101	Te bizony sokat marzol. Én is sokat...	marzom	marzok	marzok	marzom	1	marzok	TRUE	FALSE	marzok	TRUE	TRUE	2891	824778	lakok/lakom	lakok_1_high_typical	14	marzik	0.7985076962177716	Te bizony sokat marzol. Én is sokat...	1	NA	1	14	TRUE	FALSE	high	typical	TRUE
hungarian-esp_esp_participant_SESSION_2022-11-19_09h47.48.87.csv	JT0KQV	Nő	2000	15	1	esp trial	103	Te bizony sokat prűrlesz. Én is sokat...	prűrlök	prűrlöm	prűrlök	prűrlöm	0	prűrlök	TRUE	TRUE	prűrlök	TRUE	TRUE	4208	834285	lakok/lakom	lakok_1_high_typical	14	prűrlik	0.9162907318741552	Te bizony sokat prűrlesz. Én is sokat...	1	NA	1	12	TRUE	FALSE	high	typical	TRUE
hungarian-esp_esp_participant_SESSION_2022-11-19_09h47.48.87.csv	JT0KQV	Nő	2000	15	1	esp trial	105	Te bizony sokat spibaklasz. Én is sokat...	spibaklok	spibaklom	spibaklok	spibaklom	0	spibaklok	TRUE	TRUE	spibaklok	TRUE	TRUE	5090	843793	lakok/lakom	lakok_1_high_typical	14	spibaklik	0.06899287148695142	Te bizony sokat spibaklasz. Én is sokat...	2	NA	1	31	FALSE	FALSE	high	typical	TRUE
hungarian-esp_esp_participant_SESSION_2022-11-19_09h47.48.87.csv	JT0KQV	Nő	2000	15	1	esp trial	107	Te bizony sokat siladzol. Én is sokat...	siladzok	siladzom	siladzok	siladzom	0	siladzok	TRUE	TRUE	siladzom	FALSE	FALSE	2971	853302	lakok/lakom	lakok_1_high_typical	14	siladzik	-0.4353180712578455	Te bizony sokat siladzol. Én is sokat...	2	NA	1	45	FALSE	TRUE	high	typical	TRUE
hungarian-esp_esp_participant_SESSION_2022-11-19_09h47.48.87.csv	JT0KQV	Nő	2000	15	1	esp trial	109	Te bizony sokat málapszol. Én is sokat...	málapszok	málapszom	málapszok	málapszom	0	málapszok	TRUE	TRUE	málapszok	TRUE	TRUE	11915	869223	lakok/lakom	lakok_1_high_typical	14	málapszik	-0.06899287148695143	Te bizony sokat málapszol. Én is sokat...	2	NA	1	36	FALSE	FALSE	high	typical	TRUE
hungarian-esp_esp_participant_SESSION_2022-11-19_09h47.48.87.csv	JT0KQV	Nő	2000	15	1	esp trial	111	Te bizony sokat spűmlesz. Én is sokat...	spűmlök	spűmlöm	spűmlök	spűmlöm	0	spűmlök	TRUE	TRUE	spűmlök	TRUE	TRUE	2711	878731	lakok/lakom	lakok_1_high_typical	14	spűmlik	1.5686159179138452	Te bizony sokat spűmlesz. Én is sokat...	1	NA	1	5	TRUE	FALSE	high	typical	TRUE
hungarian-esp_esp_participant_SESSION_2022-11-19_09h47.48.87.csv	JT0KQV	Nő	2000	15	1	esp trial	113	Te bizony sokat sprogzol. Én is sokat...	sprogzom	sprogzok	sprogzok	sprogzom	1	sprogzok	TRUE	FALSE	sprogzom	FALSE	FALSE	7988	890727	lakok/lakom	lakok_1_high_typical	14	sprogzik	-0.7419373447293773	Te bizony sokat sprogzol. Én is sokat...	1	NA	1	51	FALSE	TRUE	high	typical	TRUE
hungarian-esp_esp_participant_SESSION_2022-11-19_09h47.48.87.csv	JT0KQV	Nő	2000	15	1	esp trial	115	Te bizony sokat sztremlesz. Én is sokat...	sztremlek	sztremlem	sztremlek	sztremlem	0	sztremlek	TRUE	TRUE	sztremlek	TRUE	TRUE	3993	900234	lakok/lakom	lakok_1_high_typical	14	sztremlik	1.3437347467010947	Te bizony sokat sztremlesz. Én is sokat...	1	NA	1	6	TRUE	FALSE	high	typical	TRUE
hungarian-esp_esp_participant_SESSION_2022-11-19_09h47.48.87.csv	JT0KQV	Nő	2000	15	1	esp trial	117	Te bizony sokat böjzöl. Én is sokat...	böjzök	böjzöm	böjzök	böjzöm	0	böjzök	TRUE	TRUE	böjzök	TRUE	TRUE	2863	909743	lakok/lakom	lakok_1_high_typical	14	böjzik	0.14310084364067324	Te bizony sokat böjzöl. Én is sokat...	1	NA	1	28	FALSE	FALSE	high	typical	TRUE
hungarian-esp_esp_participant_SESSION_2022-11-19_09h47.48.87.csv	JT0KQV	Nő	2000	15	4	posttest trial	120	Te bizony sokat sztrozlasz. Én is sokat...	sztrozlom	sztrozlok	sztrozlok	sztrozlom	1	sztrozlok	TRUE	FALSE	NA	NA	NA	4448	928055	lakok/lakom	lakok_2_high_reversed	17	sztrozlik	0.4353180712578455	Te bizony sokat sztrozlasz. Én is sokat...	1	NA	2	23	FALSE	FALSE	high	reversed	TRUE
hungarian-esp_esp_participant_SESSION_2022-11-19_09h47.48.87.csv	JT0KQV	Nő	2000	15	4	posttest trial	121	Te bizony sokat spülűdzöl. Én is sokat...	spülűdzöm	spülűdzök	spülűdzök	spülűdzöm	0	spülűdzöm	FALSE	TRUE	NA	NA	NA	3202	931760	lakok/lakom	lakok_2_high_reversed	17	spülűdzik	-0.1941560144409575	Te bizony sokat spülűdzöl. Én is sokat...	2	NA	2	38	FALSE	FALSE	high	reversed	FALSE
hungarian-esp_esp_participant_SESSION_2022-11-19_09h47.48.87.csv	JT0KQV	Nő	2000	15	4	posttest trial	122	Te bizony sokat trehégszel. Én is sokat...	trehégszem	trehégszek	trehégszek	trehégszem	0	trehégszem	FALSE	TRUE	NA	NA	NA	6772	939035	lakok/lakom	lakok_2_high_reversed	17	trehégszik	-0.7472144018302211	Te bizony sokat trehégszel. Én is sokat...	2	NA	2	51	FALSE	TRUE	high	reversed	FALSE
hungarian-esp_esp_participant_SESSION_2022-11-19_09h47.48.87.csv	JT0KQV	Nő	2000	15	4	posttest trial	123	Te bizony sokat pribemlesz. Én is sokat...	pribemlem	pribemlek	pribemlek	pribemlem	1	pribemlek	TRUE	FALSE	NA	NA	NA	2858	942395	lakok/lakom	lakok_2_high_reversed	17	pribemlik	1.9095425048844383	Te bizony sokat pribemlesz. Én is sokat...	2	NA	2	2	TRUE	FALSE	high	reversed	TRUE
hungarian-esp_esp_participant_SESSION_2022-11-19_09h47.48.87.csv	JT0KQV	Nő	2000	15	4	posttest trial	124	Te bizony sokat hurjorzol. Én is sokat...	hurjorzom	hurjorzok	hurjorzok	hurjorzom	1	hurjorzok	TRUE	FALSE	NA	NA	NA	6787	949684	lakok/lakom	lakok_2_high_reversed	17	hurjorzik	0.06899287148695142	Te bizony sokat hurjorzol. Én is sokat...	2	NA	2	30	FALSE	FALSE	high	reversed	TRUE
hungarian-esp_esp_participant_SESSION_2022-11-19_09h47.48.87.csv	JT0KQV	Nő	2000	15	4	posttest trial	125	Te bizony sokat vanylasz. Én is sokat...	vanylok	vanylom	vanylok	vanylom	0	vanylok	TRUE	TRUE	NA	NA	NA	2189	952375	lakok/lakom	lakok_2_high_reversed	17	vanylik	1.1451323043030026	Te bizony sokat vanylasz. Én is sokat...	1	NA	2	8	TRUE	FALSE	high	reversed	TRUE
hungarian-esp_esp_participant_SESSION_2022-11-19_09h47.48.87.csv	JT0KQV	Nő	2000	15	4	posttest trial	126	Te bizony sokat rájzol. Én is sokat...	rájzok	rájzom	rájzok	rájzom	1	rájzom	FALSE	FALSE	NA	NA	NA	4840	957718	lakok/lakom	lakok_2_high_reversed	17	rájzik	0	Te bizony sokat rájzol. Én is sokat...	1	NA	2	34	FALSE	FALSE	high	reversed	FALSE
hungarian-esp_esp_participant_SESSION_2022-11-19_09h47.48.87.csv	JT0KQV	Nő	2000	15	4	posttest trial	127	Te bizony sokat spihegzel. Én is sokat...	spihegzem	spihegzek	spihegzek	spihegzem	1	spihegzek	TRUE	FALSE	NA	NA	NA	3107	961327	lakok/lakom	lakok_2_high_reversed	17	spihegzik	-0.06453852113757118	Te bizony sokat spihegzel. Én is sokat...	2	NA	2	35	FALSE	FALSE	high	reversed	TRUE
hungarian-esp_esp_participant_SESSION_2022-11-19_09h47.48.87.csv	JT0KQV	Nő	2000	15	4	posttest trial	128	Te bizony sokat filágzol. Én is sokat...	filágzok	filágzom	filágzok	filágzom	0	filágzok	TRUE	TRUE	NA	NA	NA	4569	966399	lakok/lakom	lakok_2_high_reversed	17	filágzik	-0.9650808960435872	Te bizony sokat filágzol. Én is sokat...	2	NA	2	53	FALSE	TRUE	high	reversed	TRUE
hungarian-esp_esp_participant_SESSION_2022-11-19_09h47.48.87.csv	JT0KQV	Nő	2000	15	4	posttest trial	129	Te bizony sokat flitlasz. Én is sokat...	flitlom	flitlok	flitlok	flitlom	1	flitlok	TRUE	FALSE	NA	NA	NA	4700	971602	lakok/lakom	lakok_2_high_reversed	17	flitlik	1.6486586255873816	Te bizony sokat flitlasz. Én is sokat...	1	NA	2	3	TRUE	FALSE	high	reversed	TRUE
hungarian-esp_esp_participant_SESSION_2022-11-19_09h47.48.87.csv	JT0KQV	Nő	2000	15	4	posttest trial	130	Te bizony sokat brubzol. Én is sokat...	brubzom	brubzok	brubzok	brubzom	0	brubzom	FALSE	TRUE	NA	NA	NA	2579	974684	lakok/lakom	lakok_2_high_reversed	17	brubzik	0.3483066942682158	Te bizony sokat brubzol. Én is sokat...	1	NA	2	25	FALSE	FALSE	high	reversed	FALSE
hungarian-esp_esp_participant_SESSION_2022-11-19_09h47.48.87.csv	JT0KQV	Nő	2000	15	4	posttest trial	131	Te bizony sokat flátszol. Én is sokat...	flátszok	flátszom	flátszok	flátszom	1	flátszom	FALSE	FALSE	NA	NA	NA	4603	979790	lakok/lakom	lakok_2_high_reversed	17	flátszik	-0.4595323293784402	Te bizony sokat flátszol. Én is sokat...	1	NA	2	45	FALSE	TRUE	high	reversed	FALSE
hungarian-esp_esp_participant_SESSION_2022-11-19_09h47.48.87.csv	JT0KQV	Nő	2000	15	4	posttest trial	132	Te bizony sokat huroslasz. Én is sokat...	huroslok	huroslom	huroslok	huroslom	0	huroslok	TRUE	TRUE	NA	NA	NA	3340	983632	lakok/lakom	lakok_2_high_reversed	17	huroslik	1.0560526742493137	Te bizony sokat huroslasz. Én is sokat...	2	NA	2	9	TRUE	FALSE	high	reversed	TRUE
hungarian-esp_esp_participant_SESSION_2022-11-19_09h47.48.87.csv	JT0KQV	Nő	2000	15	4	posttest trial	133	Te bizony sokat prínylasz. Én is sokat...	prínylom	prínylok	prínylok	prínylom	1	prínylok	TRUE	FALSE	NA	NA	NA	2787	986922	lakok/lakom	lakok_2_high_reversed	17	prínylik	0.5877866649021191	Te bizony sokat prínylasz. Én is sokat...	1	NA	2	20	FALSE	FALSE	high	reversed	TRUE
hungarian-esp_esp_participant_SESSION_2022-11-19_09h47.48.87.csv	JT0KQV	Nő	2000	15	4	posttest trial	134	Te bizony sokat plugzol. Én is sokat...	plugzom	plugzok	plugzok	plugzom	1	plugzok	TRUE	FALSE	NA	NA	NA	3253	990678	lakok/lakom	lakok_2_high_reversed	17	plugzik	-0.325422400434628	Te bizony sokat plugzol. Én is sokat...	1	NA	2	42	FALSE	TRUE	high	reversed	TRUE
hungarian-esp_esp_participant_SESSION_2022-11-19_09h47.48.87.csv	JT0KQV	Nő	2000	15	4	posttest trial	135	Te bizony sokat bűtszöl. Én is sokat...	bűtszök	bűtszöm	bűtszök	bűtszöm	0	bűtszök	TRUE	TRUE	NA	NA	NA	3875	995055	lakok/lakom	lakok_2_high_reversed	17	bűtszik	0.14310084364067324	Te bizony sokat bűtszöl. Én is sokat...	1	NA	2	28	FALSE	FALSE	high	reversed	TRUE
hungarian-esp_esp_participant_SESSION_2022-11-19_09h47.48.87.csv	JT0KQV	Nő	2000	15	4	posttest trial	136	Te bizony sokat düjzöl. Én is sokat...	düjzöm	düjzök	düjzök	düjzöm	0	düjzöm	FALSE	TRUE	NA	NA	NA	2290	997847	lakok/lakom	lakok_2_high_reversed	17	düjzik	0	Te bizony sokat düjzöl. Én is sokat...	1	NA	2	32	FALSE	FALSE	high	reversed	FALSE
hungarian-esp_esp_participant_SESSION_2022-11-19_09h47.48.87.csv	JT0KQV	Nő	2000	15	4	posttest trial	137	Te bizony sokat spubonylasz. Én is sokat...	spubonylok	spubonylom	spubonylok	spubonylom	0	spubonylok	TRUE	TRUE	NA	NA	NA	6666	1005015	lakok/lakom	lakok_2_high_reversed	17	spubonylik	1.2321436812926323	Te bizony sokat spubonylasz. Én is sokat...	2	NA	2	7	TRUE	FALSE	high	reversed	TRUE
hungarian-esp_esp_participant_SESSION_2022-11-19_09h47.48.87.csv	JT0KQV	Nő	2000	15	4	posttest trial	138	Te bizony sokat hűgzöl. Én is sokat...	hűgzök	hűgzöm	hűgzök	hűgzöm	1	hűgzöm	FALSE	FALSE	NA	NA	NA	4744	1010262	lakok/lakom	lakok_2_high_reversed	17	hűgzik	0	Te bizony sokat hűgzöl. Én is sokat...	1	NA	2	33	FALSE	FALSE	high	reversed	FALSE
hungarian-esp_esp_participant_SESSION_2022-11-19_09h47.48.87.csv	JT0KQV	Nő	2000	15	4	posttest trial	139	Te bizony sokat gyibeslesz. Én is sokat...	gyibeslek	gyibeslem	gyibeslek	gyibeslem	0	gyibeslek	TRUE	TRUE	NA	NA	NA	3614	1014380	lakok/lakom	lakok_2_high_reversed	17	gyibeslik	0.6418538861723947	Te bizony sokat gyibeslesz. Én is sokat...	2	NA	2	18	FALSE	FALSE	high	reversed	TRUE
hungarian-esp_esp_participant_SESSION_2022-11-19_09h47.48.87.csv	JT0KQV	Nő	2000	15	4	posttest trial	140	Te bizony sokat salárzol. Én is sokat...	salárzom	salárzok	salárzok	salárzom	1	salárzok	TRUE	FALSE	NA	NA	NA	3058	1017940	lakok/lakom	lakok_2_high_reversed	17	salárzik	0.20763936477824457	Te bizony sokat salárzol. Én is sokat...	2	NA	2	27	FALSE	FALSE	high	reversed	TRUE
hungarian-esp_esp_participant_SESSION_2022-11-19_09h47.48.87.csv	JT0KQV	Nő	2000	15	4	posttest trial	141	Te bizony sokat pítszol. Én is sokat...	pítszok	pítszom	pítszok	pítszom	0	pítszok	TRUE	TRUE	NA	NA	NA	3228	1021670	lakok/lakom	lakok_2_high_reversed	17	pítszik	-0.49247648509779407	Te bizony sokat pítszol. Én is sokat...	1	NA	2	46	FALSE	TRUE	high	reversed	TRUE
hungarian-esp_esp_participant_SESSION_2022-11-19_09h47.48.87.csv	JT0KQV	Nő	2000	15	4	posttest trial	142	Te bizony sokat plűbzöl. Én is sokat...	plűbzöm	plűbzök	plűbzök	plűbzöm	1	plűbzök	TRUE	FALSE	NA	NA	NA	2674	1024848	lakok/lakom	lakok_2_high_reversed	17	plűbzik	0.49247648509779424	Te bizony sokat plűbzöl. Én is sokat...	1	NA	2	21	FALSE	FALSE	high	reversed	TRUE
hungarian-esp_esp_participant_SESSION_2022-11-19_09h47.48.87.csv	JT0KQV	Nő	2000	15	4	posttest trial	143	Te bizony sokat flehékszel. Én is sokat...	flehékszem	flehékszek	flehékszek	flehékszem	0	flehékszem	FALSE	TRUE	NA	NA	NA	3094	1028444	lakok/lakom	lakok_2_high_reversed	17	flehékszik	-0.5978370007556204	Te bizony sokat flehékszel. Én is sokat...	2	NA	2	48	FALSE	TRUE	high	reversed	FALSE
hungarian-esp_esp_participant_SESSION_2022-11-19_09h47.48.87.csv	JT0KQV	Nő	2000	15	4	posttest trial	144	Te bizony sokat nűröklesz. Én is sokat...	nűröklök	nűröklöm	nűröklök	nűröklöm	0	nűröklök	TRUE	TRUE	NA	NA	NA	6228	1035176	lakok/lakom	lakok_2_high_reversed	17	nűröklik	-0.1941560144409575	Te bizony sokat nűröklesz. Én is sokat...	2	NA	2	37	FALSE	FALSE	high	reversed	TRUE
hungarian-esp_esp_participant_SESSION_2022-11-19_09h47.48.87.csv	JT0KQV	Nő	2000	15	4	posttest trial	145	Te bizony sokat figlasz. Én is sokat...	figlok	figlom	figlok	figlom	0	figlok	TRUE	TRUE	NA	NA	NA	5199	1040877	lakok/lakom	lakok_2_high_reversed	17	figlik	0.7419373447293773	Te bizony sokat figlasz. Én is sokat...	1	NA	2	16	FALSE	FALSE	high	reversed	TRUE
hungarian-esp_esp_participant_SESSION_2022-11-19_09h47.48.87.csv	JT0KQV	Nő	2000	15	4	posttest trial	146	Te bizony sokat flehénylesz. Én is sokat...	flehénylek	flehénylem	flehénylek	flehénylem	0	flehénylek	TRUE	TRUE	NA	NA	NA	3976	1045357	lakok/lakom	lakok_2_high_reversed	17	flehénylik	1.5686159179138452	Te bizony sokat flehénylesz. Én is sokat...	2	NA	2	4	TRUE	FALSE	high	reversed	TRUE
hungarian-esp_esp_participant_SESSION_2022-11-19_09h47.48.87.csv	JT0KQV	Nő	2000	15	4	posttest trial	147	Te bizony sokat ibékszel. Én is sokat...	ibékszek	ibékszem	ibékszek	ibékszem	1	ibékszem	FALSE	FALSE	NA	NA	NA	3791	1049650	lakok/lakom	lakok_2_high_reversed	17	ibékszik	-0.4353180712578455	Te bizony sokat ibékszel. Én is sokat...	2	NA	2	44	FALSE	TRUE	high	reversed	FALSE
hungarian-esp_esp_participant_SESSION_2022-11-19_09h47.48.87.csv	JT0KQV	Nő	2000	15	4	posttest trial	148	Te bizony sokat spáraklasz. Én is sokat...	spáraklok	spáraklom	spáraklok	spáraklom	0	spáraklok	TRUE	TRUE	NA	NA	NA	3973	1054126	lakok/lakom	lakok_2_high_reversed	17	spáraklik	0.4595323293784402	Te bizony sokat spáraklasz. Én is sokat...	2	NA	2	22	FALSE	FALSE	high	reversed	TRUE
hungarian-esp_esp_participant_SESSION_2022-11-19_09h47.48.87.csv	JT0KQV	Nő	2000	15	4	posttest trial	149	Te bizony sokat klivaslasz. Én is sokat...	klivaslok	klivaslom	klivaslok	klivaslom	0	klivaslok	TRUE	TRUE	NA	NA	NA	4503	1059132	lakok/lakom	lakok_2_high_reversed	17	klivaslik	0.9162907318741552	Te bizony sokat klivaslasz. Én is sokat...	2	NA	2	11	TRUE	FALSE	high	reversed	TRUE
hungarian-esp_esp_participant_SESSION_2022-11-19_09h47.48.87.csv	JT0KQV	Nő	2000	15	4	posttest trial	150	Te bizony sokat jonylasz. Én is sokat...	jonylok	jonylom	jonylok	jonylom	0	jonylok	TRUE	TRUE	NA	NA	NA	3003	1062637	lakok/lakom	lakok_2_high_reversed	17	jonylik	0.8938178760220965	Te bizony sokat jonylasz. Én is sokat...	1	NA	2	12	TRUE	FALSE	high	reversed	TRUE
hungarian-esp_esp_participant_SESSION_2022-11-19_09h47.48.87.csv	JT0KQV	Nő	2000	15	4	posttest trial	151	Te bizony sokat tragzol. Én is sokat...	tragzom	tragzok	tragzok	tragzom	0	tragzom	FALSE	TRUE	NA	NA	NA	7897	1071038	lakok/lakom	lakok_2_high_reversed	17	tragzik	-0.06899287148695143	Te bizony sokat tragzol. Én is sokat...	1	NA	2	36	FALSE	FALSE	high	reversed	FALSE
hungarian-esp_esp_participant_SESSION_2022-11-19_09h47.48.87.csv	JT0KQV	Nő	2000	15	4	posttest trial	152	Te bizony sokat sztrűkszöl. Én is sokat...	sztrűkszök	sztrűkszöm	sztrűkszök	sztrűkszöm	0	sztrűkszök	TRUE	TRUE	NA	NA	NA	8835	1080376	lakok/lakom	lakok_2_high_reversed	17	sztrűkszik	-0.2876820724517809	Te bizony sokat sztrűkszöl. Én is sokat...	1	NA	2	41	FALSE	TRUE	high	reversed	TRUE
hungarian-esp_esp_participant_SESSION_2022-11-19_09h47.48.87.csv	JT0KQV	Nő	2000	15	4	posttest trial	153	Te bizony sokat lörűdzöl. Én is sokat...	lörűdzök	lörűdzöm	lörűdzök	lörűdzöm	1	lörűdzöm	FALSE	FALSE	NA	NA	NA	3971	1084857	lakok/lakom	lakok_2_high_reversed	17	lörűdzik	-0.2076393647782445	Te bizony sokat lörűdzöl. Én is sokat...	2	NA	2	39	FALSE	FALSE	high	reversed	FALSE
hungarian-esp_esp_participant_SESSION_2022-11-19_09h47.48.87.csv	JT0KQV	Nő	2000	15	4	posttest trial	154	Te bizony sokat bihánylasz. Én is sokat...	bihánylok	bihánylom	bihánylok	bihánylom	0	bihánylok	TRUE	TRUE	NA	NA	NA	2869	1088235	lakok/lakom	lakok_2_high_reversed	17	bihánylik	1.2992829841302609	Te bizony sokat bihánylasz. Én is sokat...	2	NA	2	6	TRUE	FALSE	high	reversed	TRUE
hungarian-esp_esp_participant_SESSION_2022-11-19_09h47.48.87.csv	JT0KQV	Nő	2000	15	4	posttest trial	155	Te bizony sokat szibánylasz. Én is sokat...	szibánylom	szibánylok	szibánylok	szibánylom	1	szibánylok	TRUE	FALSE	NA	NA	NA	2888	1091629	lakok/lakom	lakok_2_high_reversed	17	szibánylik	0.7985076962177716	Te bizony sokat szibánylasz. Én is sokat...	2	NA	2	14	TRUE	FALSE	high	reversed	TRUE
hungarian-esp_esp_participant_SESSION_2022-11-19_09h47.48.87.csv	JT0KQV	Nő	2000	15	4	posttest trial	156	Te bizony sokat trádlasz. Én is sokat...	trádlok	trádlom	trádlok	trádlom	0	trádlok	TRUE	TRUE	NA	NA	NA	3692	1095827	lakok/lakom	lakok_2_high_reversed	17	trádlik	0.4353180712578455	Te bizony sokat trádlasz. Én is sokat...	1	NA	2	24	FALSE	FALSE	high	reversed	TRUE
hungarian-esp_esp_participant_SESSION_2022-11-19_09h47.48.87.csv	JT0KQV	Nő	2000	15	4	posttest trial	157	Te bizony sokat rokszol. Én is sokat...	rokszok	rokszom	rokszok	rokszom	1	rokszom	FALSE	FALSE	NA	NA	NA	3798	1100131	lakok/lakom	lakok_2_high_reversed	17	rokszik	-0.3483066942682157	Te bizony sokat rokszol. Én is sokat...	1	NA	2	43	FALSE	TRUE	high	reversed	FALSE
hungarian-esp_esp_participant_SESSION_2022-11-19_09h47.48.87.csv	JT0KQV	Nő	2000	15	4	posttest trial	158	Te bizony sokat píjlasz. Én is sokat...	píjlok	píjlom	píjlok	píjlom	0	píjlok	TRUE	TRUE	NA	NA	NA	2569	1103203	lakok/lakom	lakok_2_high_reversed	17	píjlik	0.6418538861723947	Te bizony sokat píjlasz. Én is sokat...	1	NA	2	19	FALSE	FALSE	high	reversed	TRUE
hungarian-esp_esp_participant_SESSION_2022-11-19_09h47.48.87.csv	JT0KQV	Nő	2000	15	4	posttest trial	159	Te bizony sokat spüjzöl. Én is sokat...	spüjzöm	spüjzök	spüjzök	spüjzöm	1	spüjzök	TRUE	FALSE	NA	NA	NA	4143	1107850	lakok/lakom	lakok_2_high_reversed	17	spüjzik	0.8938178760220965	Te bizony sokat spüjzöl. Én is sokat...	1	NA	2	13	TRUE	FALSE	high	reversed	TRUE
hungarian-esp_esp_participant_SESSION_2022-11-19_09h47.48.87.csv	JT0KQV	Nő	2000	15	4	posttest trial	160	Te bizony sokat spröbzöl. Én is sokat...	spröbzök	spröbzöm	spröbzök	spröbzöm	1	spröbzöm	FALSE	FALSE	NA	NA	NA	3213	1111567	lakok/lakom	lakok_2_high_reversed	17	spröbzik	0.28768207245178085	Te bizony sokat spröbzöl. Én is sokat...	1	NA	2	26	FALSE	FALSE	high	reversed	FALSE
hungarian-esp_esp_participant_SESSION_2022-11-19_09h47.48.87.csv	JT0KQV	Nő	2000	15	4	posttest trial	161	Te bizony sokat spihemlesz. Én is sokat...	spihemlek	spihemlem	spihemlek	spihemlem	0	spihemlek	TRUE	TRUE	NA	NA	NA	4550	1116621	lakok/lakom	lakok_2_high_reversed	17	spihemlik	2.159484249353372	Te bizony sokat spihemlesz. Én is sokat...	2	NA	2	1	TRUE	FALSE	high	reversed	TRUE
hungarian-esp_esp_participant_SESSION_2022-11-19_09h47.48.87.csv	JT0KQV	Nő	2000	15	4	posttest trial	162	Te bizony sokat brivegzel. Én is sokat...	brivegzem	brivegzek	brivegzek	brivegzem	0	brivegzem	FALSE	TRUE	NA	NA	NA	2683	1119808	lakok/lakom	lakok_2_high_reversed	17	brivegzik	-0.8938178760220964	Te bizony sokat brivegzel. Én is sokat...	2	NA	2	52	FALSE	TRUE	high	reversed	FALSE
hungarian-esp_esp_participant_SESSION_2022-11-19_09h47.48.87.csv	JT0KQV	Nő	2000	15	4	posttest trial	163	Te bizony sokat brobódzol. Én is sokat...	brobódzom	brobódzok	brobódzok	brobódzom	0	brobódzom	FALSE	TRUE	NA	NA	NA	6304	1126615	lakok/lakom	lakok_2_high_reversed	17	brobódzik	-0.6418538861723948	Te bizony sokat brobódzol. Én is sokat...	2	NA	2	49	FALSE	TRUE	high	reversed	FALSE
hungarian-esp_esp_participant_SESSION_2022-11-19_09h47.48.87.csv	JT0KQV	Nő	2000	15	4	posttest trial	164	Te bizony sokat vülődzöl. Én is sokat...	vülődzök	vülődzöm	vülődzök	vülődzöm	0	vülődzök	TRUE	TRUE	NA	NA	NA	3076	1130194	lakok/lakom	lakok_2_high_reversed	17	vülődzik	0.06899287148695142	Te bizony sokat vülődzöl. Én is sokat...	2	NA	2	31	FALSE	FALSE	high	reversed	TRUE
hungarian-esp_esp_participant_SESSION_2022-11-19_09h47.48.87.csv	JT0KQV	Nő	2000	15	4	posttest trial	165	Te bizony sokat klétszel. Én is sokat...	klétszek	klétszem	klétszek	klétszem	1	klétszem	FALSE	FALSE	NA	NA	NA	4163	1134860	lakok/lakom	lakok_2_high_reversed	17	klétszik	-0.2876820724517809	Te bizony sokat klétszel. Én is sokat...	1	NA	2	40	FALSE	TRUE	high	reversed	FALSE
hungarian-esp_esp_participant_SESSION_2022-11-19_09h47.48.87.csv	JT0KQV	Nő	2000	15	4	posttest trial	166	Te bizony sokat flűmlesz. Én is sokat...	flűmlök	flűmlöm	flűmlök	flűmlöm	0	flűmlök	TRUE	TRUE	NA	NA	NA	3273	1138637	lakok/lakom	lakok_2_high_reversed	17	flűmlik	1.4271163556401458	Te bizony sokat flűmlesz. Én is sokat...	1	NA	2	5	TRUE	FALSE	high	reversed	TRUE
hungarian-esp_esp_participant_SESSION_2022-11-19_09h47.48.87.csv	JT0KQV	Nő	2000	15	4	posttest trial	167	Te bizony sokat pribagszol. Én is sokat...	pribagszom	pribagszok	pribagszok	pribagszom	1	pribagszok	TRUE	FALSE	NA	NA	NA	4946	1144086	lakok/lakom	lakok_2_high_reversed	17	pribagszik	-0.587786664902119	Te bizony sokat pribagszol. Én is sokat...	2	NA	2	47	FALSE	TRUE	high	reversed	TRUE
hungarian-esp_esp_participant_SESSION_2022-11-19_09h47.48.87.csv	JT0KQV	Nő	2000	15	4	posttest trial	168	Te bizony sokat treglesz. Én is sokat...	treglem	treglek	treglek	treglem	1	treglek	TRUE	FALSE	NA	NA	NA	2809	1147397	lakok/lakom	lakok_2_high_reversed	17	treglik	0.7472144018302211	Te bizony sokat treglesz. Én is sokat...	1	NA	2	15	TRUE	FALSE	high	reversed	TRUE
hungarian-esp_esp_participant_SESSION_2022-11-19_09h47.48.87.csv	JT0KQV	Nő	2000	15	4	posttest trial	169	Te bizony sokat narádzol. Én is sokat...	narádzom	narádzok	narádzok	narádzom	1	narádzok	TRUE	FALSE	NA	NA	NA	5550	1153450	lakok/lakom	lakok_2_high_reversed	17	narádzik	-0.6418538861723948	Te bizony sokat narádzol. Én is sokat...	2	NA	2	50	FALSE	TRUE	high	reversed	TRUE
hungarian-esp_esp_participant_SESSION_2022-11-19_09h47.48.87.csv	JT0KQV	Nő	2000	15	4	posttest trial	170	Te bizony sokat bivégszel. Én is sokat...	bivégszem	bivégszek	bivégszek	bivégszem	0	bivégszem	FALSE	TRUE	NA	NA	NA	2814	1156767	lakok/lakom	lakok_2_high_reversed	17	bivégszik	-1.0560526742493137	Te bizony sokat bivégszel. Én is sokat...	2	NA	2	54	FALSE	TRUE	high	reversed	FALSE
hungarian-esp_esp_participant_SESSION_2022-11-19_09h47.48.87.csv	JT0KQV	Nő	2000	15	4	posttest trial	171	Te bizony sokat klaráglasz. Én is sokat...	klaráglom	klaráglok	klaráglok	klaráglom	1	klaráglok	TRUE	FALSE	NA	NA	NA	3270	1160540	lakok/lakom	lakok_2_high_reversed	17	klaráglik	0.965080896043587	Te bizony sokat klaráglasz. Én is sokat...	2	NA	2	10	TRUE	FALSE	high	reversed	TRUE
hungarian-esp_esp_participant_SESSION_2022-11-19_09h47.48.87.csv	JT0KQV	Nő	2000	15	4	posttest trial	172	Te bizony sokat sztrijzol. Én is sokat...	sztrijzom	sztrijzok	sztrijzok	sztrijzom	1	sztrijzok	TRUE	FALSE	NA	NA	NA	3166	1164208	lakok/lakom	lakok_2_high_reversed	17	sztrijzik	0.14310084364067324	Te bizony sokat sztrijzol. Én is sokat...	1	NA	2	29	FALSE	FALSE	high	reversed	TRUE
hungarian-esp_esp_participant_SESSION_2022-11-19_09h47.48.87.csv	JT0KQV	Nő	2000	15	4	posttest trial	173	Te bizony sokat frodlasz. Én is sokat...	frodlom	frodlok	frodlok	frodlom	0	frodlom	FALSE	TRUE	NA	NA	NA	2866	1167577	lakok/lakom	lakok_2_high_reversed	17	frodlik	0.7419373447293773	Te bizony sokat frodlasz. Én is sokat...	1	NA	2	17	FALSE	FALSE	high	reversed	FALSE
hungarian-esp_esp_participant_SESSION_2022-11-19_09h56.28.75.csv	EIDWFP	nő	2002	14	5	esp trial	11	Te bizony sokat sztrűkszöl. Én is sokat...	sztrűkszöm	sztrűkszök	sztrűkszök	sztrűkszöm	1	sztrűkszök	TRUE	FALSE	sztrűkszöm	FALSE	FALSE	9742	240805	lakok/lakom	lakok_2_high_typical	18	sztrűkszik	-0.2876820724517809	Te bizony sokat sztrűkszöl. Én is sokat...	1	NA	2	41	FALSE	TRUE	high	typical	TRUE
hungarian-esp_esp_participant_SESSION_2022-11-19_09h56.28.75.csv	EIDWFP	nő	2002	14	5	esp trial	13	Te bizony sokat bihánylasz. Én is sokat...	bihánylok	bihánylom	bihánylok	bihánylom	0	bihánylok	TRUE	TRUE	bihánylok	TRUE	TRUE	10774	255633	lakok/lakom	lakok_2_high_typical	18	bihánylik	1.2992829841302609	Te bizony sokat bihánylasz. Én is sokat...	2	NA	2	6	TRUE	FALSE	high	typical	TRUE
hungarian-esp_esp_participant_SESSION_2022-11-19_09h56.28.75.csv	EIDWFP	nő	2002	14	5	esp trial	15	Te bizony sokat pítszol. Én is sokat...	pítszok	pítszom	pítszok	pítszom	1	pítszom	FALSE	FALSE	pítszom	TRUE	FALSE	5629	265308	lakok/lakom	lakok_2_high_typical	18	pítszik	-0.49247648509779407	Te bizony sokat pítszol. Én is sokat...	1	NA	2	46	FALSE	TRUE	high	typical	FALSE
hungarian-esp_esp_participant_SESSION_2022-11-19_09h56.28.75.csv	EIDWFP	nő	2002	14	5	esp trial	17	Te bizony sokat bivégszel. Én is sokat...	bivégszem	bivégszek	bivégszek	bivégszem	1	bivégszek	TRUE	FALSE	bivégszem	FALSE	FALSE	3573	273449	lakok/lakom	lakok_2_high_typical	18	bivégszik	-1.0560526742493137	Te bizony sokat bivégszel. Én is sokat...	2	NA	2	54	FALSE	TRUE	high	typical	TRUE
hungarian-esp_esp_participant_SESSION_2022-11-19_09h56.28.75.csv	EIDWFP	nő	2002	14	5	esp trial	19	Te bizony sokat spihegzel. Én is sokat...	spihegzek	spihegzem	spihegzek	spihegzem	1	spihegzem	FALSE	FALSE	spihegzek	FALSE	TRUE	4075	281616	lakok/lakom	lakok_2_high_typical	18	spihegzik	-0.06453852113757118	Te bizony sokat spihegzel. Én is sokat...	2	NA	2	35	FALSE	FALSE	high	typical	FALSE
hungarian-esp_esp_participant_SESSION_2022-11-19_09h56.28.75.csv	EIDWFP	nő	2002	14	5	esp trial	21	Te bizony sokat huroslasz. Én is sokat...	huroslom	huroslok	huroslok	huroslom	1	huroslok	TRUE	FALSE	huroslok	TRUE	TRUE	6721	292387	lakok/lakom	lakok_2_high_typical	18	huroslik	1.0560526742493137	Te bizony sokat huroslasz. Én is sokat...	2	NA	2	9	TRUE	FALSE	high	typical	TRUE
hungarian-esp_esp_participant_SESSION_2022-11-19_09h56.28.75.csv	EIDWFP	nő	2002	14	5	esp trial	23	Te bizony sokat salárzol. Én is sokat...	salárzok	salárzom	salárzok	salárzom	0	salárzok	TRUE	TRUE	salárzok	TRUE	TRUE	4127	300562	lakok/lakom	lakok_2_high_typical	18	salárzik	0.20763936477824457	Te bizony sokat salárzol. Én is sokat...	2	NA	2	27	FALSE	FALSE	high	typical	TRUE
hungarian-esp_esp_participant_SESSION_2022-11-19_09h56.28.75.csv	EIDWFP	nő	2002	14	5	esp trial	25	Te bizony sokat spröbzöl. Én is sokat...	spröbzök	spröbzöm	spröbzök	spröbzöm	0	spröbzök	TRUE	TRUE	spröbzök	TRUE	TRUE	4737	309334	lakok/lakom	lakok_2_high_typical	18	spröbzik	0.28768207245178085	Te bizony sokat spröbzöl. Én is sokat...	1	NA	2	26	FALSE	FALSE	high	typical	TRUE
hungarian-esp_esp_participant_SESSION_2022-11-19_09h56.28.75.csv	EIDWFP	nő	2002	14	5	esp trial	27	Te bizony sokat spüjzöl. Én is sokat...	spüjzöm	spüjzök	spüjzök	spüjzöm	1	spüjzök	TRUE	FALSE	spüjzök	TRUE	TRUE	3875	317488	lakok/lakom	lakok_2_high_typical	18	spüjzik	0.8938178760220965	Te bizony sokat spüjzöl. Én is sokat...	1	NA	2	13	TRUE	FALSE	high	typical	TRUE
hungarian-esp_esp_participant_SESSION_2022-11-19_09h56.28.75.csv	EIDWFP	nő	2002	14	5	esp trial	29	Te bizony sokat filágzol. Én is sokat...	filágzom	filágzok	filágzok	filágzom	1	filágzok	TRUE	FALSE	filágzom	FALSE	FALSE	3217	325641	lakok/lakom	lakok_2_high_typical	18	filágzik	-0.9650808960435872	Te bizony sokat filágzol. Én is sokat...	2	NA	2	53	FALSE	TRUE	high	typical	TRUE
hungarian-esp_esp_participant_SESSION_2022-11-19_09h56.28.75.csv	EIDWFP	nő	2002	14	5	esp trial	31	Te bizony sokat trehégszel. Én is sokat...	trehégszek	trehégszem	trehégszek	trehégszem	1	trehégszem	FALSE	FALSE	trehégszem	TRUE	FALSE	5183	334862	lakok/lakom	lakok_2_high_typical	18	trehégszik	-0.7472144018302211	Te bizony sokat trehégszel. Én is sokat...	2	NA	2	51	FALSE	TRUE	high	typical	FALSE
hungarian-esp_esp_participant_SESSION_2022-11-19_09h56.28.75.csv	EIDWFP	nő	2002	14	5	esp trial	33	Te bizony sokat gyibeslesz. Én is sokat...	gyibeslem	gyibeslek	gyibeslek	gyibeslem	1	gyibeslek	TRUE	FALSE	gyibeslek	TRUE	TRUE	4127	343043	lakok/lakom	lakok_2_high_typical	18	gyibeslik	0.6418538861723947	Te bizony sokat gyibeslesz. Én is sokat...	2	NA	2	18	FALSE	FALSE	high	typical	TRUE
hungarian-esp_esp_participant_SESSION_2022-11-19_09h56.28.75.csv	EIDWFP	nő	2002	14	5	esp trial	35	Te bizony sokat spihemlesz. Én is sokat...	spihemlem	spihemlek	spihemlek	spihemlem	1	spihemlek	TRUE	FALSE	spihemlek	TRUE	TRUE	4300	351384	lakok/lakom	lakok_2_high_typical	18	spihemlik	2.159484249353372	Te bizony sokat spihemlesz. Én is sokat...	2	NA	2	1	TRUE	FALSE	high	typical	TRUE
hungarian-esp_esp_participant_SESSION_2022-11-19_09h56.28.75.csv	EIDWFP	nő	2002	14	5	esp trial	37	Te bizony sokat brubzol. Én is sokat...	brubzom	brubzok	brubzok	brubzom	0	brubzom	FALSE	TRUE	brubzok	FALSE	TRUE	6182	361609	lakok/lakom	lakok_2_high_typical	18	brubzik	0.3483066942682158	Te bizony sokat brubzol. Én is sokat...	1	NA	2	25	FALSE	FALSE	high	typical	FALSE
hungarian-esp_esp_participant_SESSION_2022-11-19_09h56.28.75.csv	EIDWFP	nő	2002	14	5	esp trial	39	Te bizony sokat brobódzol. Én is sokat...	brobódzok	brobódzom	brobódzok	brobódzom	0	brobódzok	TRUE	TRUE	brobódzom	FALSE	FALSE	5270	370927	lakok/lakom	lakok_2_high_typical	18	brobódzik	-0.6418538861723948	Te bizony sokat brobódzol. Én is sokat...	2	NA	2	49	FALSE	TRUE	high	typical	TRUE
hungarian-esp_esp_participant_SESSION_2022-11-19_09h56.28.75.csv	EIDWFP	nő	2002	14	5	esp trial	41	Te bizony sokat klaráglasz. Én is sokat...	klaráglom	klaráglok	klaráglok	klaráglom	1	klaráglok	TRUE	FALSE	klaráglok	TRUE	TRUE	5332	380311	lakok/lakom	lakok_2_high_typical	18	klaráglik	0.965080896043587	Te bizony sokat klaráglasz. Én is sokat...	2	NA	2	10	TRUE	FALSE	high	typical	TRUE
hungarian-esp_esp_participant_SESSION_2022-11-19_09h56.28.75.csv	EIDWFP	nő	2002	14	5	esp trial	43	Te bizony sokat narádzol. Én is sokat...	narádzom	narádzok	narádzok	narádzom	0	narádzom	FALSE	TRUE	narádzom	TRUE	FALSE	4060	388473	lakok/lakom	lakok_2_high_typical	18	narádzik	-0.6418538861723948	Te bizony sokat narádzol. Én is sokat...	2	NA	2	50	FALSE	TRUE	high	typical	FALSE
hungarian-esp_esp_participant_SESSION_2022-11-19_09h56.28.75.csv	EIDWFP	nő	2002	14	5	esp trial	45	Te bizony sokat bűtszöl. Én is sokat...	bűtszök	bűtszöm	bűtszök	bűtszöm	1	bűtszöm	FALSE	FALSE	bűtszök	FALSE	TRUE	3841	396638	lakok/lakom	lakok_2_high_typical	18	bűtszik	0.14310084364067324	Te bizony sokat bűtszöl. Én is sokat...	1	NA	2	28	FALSE	FALSE	high	typical	FALSE
hungarian-esp_esp_participant_SESSION_2022-11-19_09h56.28.75.csv	EIDWFP	nő	2002	14	5	esp trial	47	Te bizony sokat klivaslasz. Én is sokat...	klivaslom	klivaslok	klivaslok	klivaslom	1	klivaslok	TRUE	FALSE	klivaslok	TRUE	TRUE	4330	405006	lakok/lakom	lakok_2_high_typical	18	klivaslik	0.9162907318741552	Te bizony sokat klivaslasz. Én is sokat...	2	NA	2	11	TRUE	FALSE	high	typical	TRUE
hungarian-esp_esp_participant_SESSION_2022-11-19_09h56.28.75.csv	EIDWFP	nő	2002	14	5	esp trial	49	Te bizony sokat düjzöl. Én is sokat...	düjzök	düjzöm	düjzök	düjzöm	0	düjzök	TRUE	TRUE	düjzök	TRUE	TRUE	4329	413401	lakok/lakom	lakok_2_high_typical	18	düjzik	0	Te bizony sokat düjzöl. Én is sokat...	1	NA	2	32	FALSE	FALSE	high	typical	TRUE
hungarian-esp_esp_participant_SESSION_2022-11-19_09h56.28.75.csv	EIDWFP	nő	2002	14	5	esp trial	51	Te bizony sokat spáraklasz. Én is sokat...	spáraklom	spáraklok	spáraklok	spáraklom	1	spáraklok	TRUE	FALSE	spáraklok	TRUE	TRUE	5010	422460	lakok/lakom	lakok_2_high_typical	18	spáraklik	0.4595323293784402	Te bizony sokat spáraklasz. Én is sokat...	2	NA	2	22	FALSE	FALSE	high	typical	TRUE
hungarian-esp_esp_participant_SESSION_2022-11-19_09h56.28.75.csv	EIDWFP	nő	2002	14	5	esp trial	53	Te bizony sokat klétszel. Én is sokat...	klétszek	klétszem	klétszek	klétszem	1	klétszem	FALSE	FALSE	klétszem	TRUE	FALSE	5348	431845	lakok/lakom	lakok_2_high_typical	18	klétszik	-0.2876820724517809	Te bizony sokat klétszel. Én is sokat...	1	NA	2	40	FALSE	TRUE	high	typical	FALSE
hungarian-esp_esp_participant_SESSION_2022-11-19_09h56.28.75.csv	EIDWFP	nő	2002	14	5	esp trial	55	Te bizony sokat sztrijzol. Én is sokat...	sztrijzok	sztrijzom	sztrijzok	sztrijzom	0	sztrijzok	TRUE	TRUE	sztrijzok	TRUE	TRUE	3046	440015	lakok/lakom	lakok_2_high_typical	18	sztrijzik	0.14310084364067324	Te bizony sokat sztrijzol. Én is sokat...	1	NA	2	29	FALSE	FALSE	high	typical	TRUE
hungarian-esp_esp_participant_SESSION_2022-11-19_09h56.28.75.csv	EIDWFP	nő	2002	14	5	esp trial	57	Te bizony sokat hűgzöl. Én is sokat...	hűgzöm	hűgzök	hűgzök	hűgzöm	0	hűgzöm	FALSE	TRUE	hűgzök	FALSE	TRUE	3990	448189	lakok/lakom	lakok_2_high_typical	18	hűgzik	0	Te bizony sokat hűgzöl. Én is sokat...	1	NA	2	33	FALSE	FALSE	high	typical	FALSE
hungarian-esp_esp_participant_SESSION_2022-11-19_09h56.28.75.csv	EIDWFP	nő	2002	14	5	esp trial	59	Te bizony sokat flátszol. Én is sokat...	flátszok	flátszom	flátszok	flátszom	0	flátszok	TRUE	TRUE	flátszom	FALSE	FALSE	4702	456935	lakok/lakom	lakok_2_high_typical	18	flátszik	-0.4595323293784402	Te bizony sokat flátszol. Én is sokat...	1	NA	2	45	FALSE	TRUE	high	typical	TRUE
hungarian-esp_esp_participant_SESSION_2022-11-19_09h56.28.75.csv	EIDWFP	nő	2002	14	5	esp trial	61	Te bizony sokat figlasz. Én is sokat...	figlom	figlok	figlok	figlom	1	figlok	TRUE	FALSE	figlok	TRUE	TRUE	3462	465109	lakok/lakom	lakok_2_high_typical	18	figlik	0.7419373447293773	Te bizony sokat figlasz. Én is sokat...	1	NA	2	16	FALSE	FALSE	high	typical	TRUE
hungarian-esp_esp_participant_SESSION_2022-11-19_09h56.28.75.csv	EIDWFP	nő	2002	14	5	esp trial	63	Te bizony sokat trádlasz. Én is sokat...	trádlok	trádlom	trádlok	trádlom	0	trádlok	TRUE	TRUE	trádlok	TRUE	TRUE	3576	473274	lakok/lakom	lakok_2_high_typical	18	trádlik	0.4353180712578455	Te bizony sokat trádlasz. Én is sokat...	1	NA	2	24	FALSE	FALSE	high	typical	TRUE
hungarian-esp_esp_participant_SESSION_2022-11-19_09h56.28.75.csv	EIDWFP	nő	2002	14	5	esp trial	65	Te bizony sokat plugzol. Én is sokat...	plugzom	plugzok	plugzok	plugzom	1	plugzok	TRUE	FALSE	plugzom	FALSE	FALSE	3802	481436	lakok/lakom	lakok_2_high_typical	18	plugzik	-0.325422400434628	Te bizony sokat plugzol. Én is sokat...	1	NA	2	42	FALSE	TRUE	high	typical	TRUE
hungarian-esp_esp_participant_SESSION_2022-11-19_09h56.28.75.csv	EIDWFP	nő	2002	14	5	esp trial	67	Te bizony sokat frodlasz. Én is sokat...	frodlom	frodlok	frodlok	frodlom	1	frodlok	TRUE	FALSE	frodlok	TRUE	TRUE	2882	489623	lakok/lakom	lakok_2_high_typical	18	frodlik	0.7419373447293773	Te bizony sokat frodlasz. Én is sokat...	1	NA	2	17	FALSE	FALSE	high	typical	TRUE
hungarian-esp_esp_participant_SESSION_2022-11-19_09h56.28.75.csv	EIDWFP	nő	2002	14	5	esp trial	69	Te bizony sokat flehékszel. Én is sokat...	flehékszek	flehékszem	flehékszek	flehékszem	1	flehékszem	FALSE	FALSE	flehékszem	TRUE	FALSE	10563	504243	lakok/lakom	lakok_2_high_typical	18	flehékszik	-0.5978370007556204	Te bizony sokat flehékszel. Én is sokat...	2	NA	2	48	FALSE	TRUE	high	typical	FALSE
hungarian-esp_esp_participant_SESSION_2022-11-19_09h56.28.75.csv	EIDWFP	nő	2002	14	5	esp trial	71	Te bizony sokat vülődzöl. Én is sokat...	vülődzök	vülődzöm	vülődzök	vülődzöm	1	vülődzöm	FALSE	FALSE	vülődzök	FALSE	TRUE	4883	513151	lakok/lakom	lakok_2_high_typical	18	vülődzik	0.06899287148695142	Te bizony sokat vülődzöl. Én is sokat...	2	NA	2	31	FALSE	FALSE	high	typical	FALSE
hungarian-esp_esp_participant_SESSION_2022-11-19_09h56.28.75.csv	EIDWFP	nő	2002	14	5	esp trial	73	Te bizony sokat flűmlesz. Én is sokat...	flűmlök	flűmlöm	flűmlök	flűmlöm	0	flűmlök	TRUE	TRUE	flűmlök	TRUE	TRUE	3871	521300	lakok/lakom	lakok_2_high_typical	18	flűmlik	1.4271163556401458	Te bizony sokat flűmlesz. Én is sokat...	1	NA	2	5	TRUE	FALSE	high	typical	TRUE
hungarian-esp_esp_participant_SESSION_2022-11-19_09h56.28.75.csv	EIDWFP	nő	2002	14	5	esp trial	75	Te bizony sokat rokszol. Én is sokat...	rokszom	rokszok	rokszok	rokszom	0	rokszom	FALSE	TRUE	rokszom	TRUE	FALSE	4765	530115	lakok/lakom	lakok_2_high_typical	18	rokszik	-0.3483066942682157	Te bizony sokat rokszol. Én is sokat...	1	NA	2	43	FALSE	TRUE	high	typical	FALSE
hungarian-esp_esp_participant_SESSION_2022-11-19_09h56.28.75.csv	EIDWFP	nő	2002	14	5	esp trial	77	Te bizony sokat spubonylasz. Én is sokat...	spubonylom	spubonylok	spubonylok	spubonylom	1	spubonylok	TRUE	FALSE	spubonylok	TRUE	TRUE	4418	538576	lakok/lakom	lakok_2_high_typical	18	spubonylik	1.2321436812926323	Te bizony sokat spubonylasz. Én is sokat...	2	NA	2	7	TRUE	FALSE	high	typical	TRUE
hungarian-esp_esp_participant_SESSION_2022-11-19_09h56.28.75.csv	EIDWFP	nő	2002	14	5	esp trial	79	Te bizony sokat pribagszol. Én is sokat...	pribagszom	pribagszok	pribagszok	pribagszom	1	pribagszok	TRUE	FALSE	pribagszom	FALSE	FALSE	3727	546744	lakok/lakom	lakok_2_high_typical	18	pribagszik	-0.587786664902119	Te bizony sokat pribagszol. Én is sokat...	2	NA	2	47	FALSE	TRUE	high	typical	TRUE
hungarian-esp_esp_participant_SESSION_2022-11-19_09h56.28.75.csv	EIDWFP	nő	2002	14	5	esp trial	81	Te bizony sokat flehénylesz. Én is sokat...	flehénylek	flehénylem	flehénylek	flehénylem	0	flehénylek	TRUE	TRUE	flehénylek	TRUE	TRUE	3180	554903	lakok/lakom	lakok_2_high_typical	18	flehénylik	1.5686159179138452	Te bizony sokat flehénylesz. Én is sokat...	2	NA	2	4	TRUE	FALSE	high	typical	TRUE
hungarian-esp_esp_participant_SESSION_2022-11-19_09h56.28.75.csv	EIDWFP	nő	2002	14	5	esp trial	83	Te bizony sokat flitlasz. Én is sokat...	flitlok	flitlom	flitlok	flitlom	0	flitlok	TRUE	TRUE	flitlok	TRUE	TRUE	2959	563061	lakok/lakom	lakok_2_high_typical	18	flitlik	1.6486586255873816	Te bizony sokat flitlasz. Én is sokat...	1	NA	2	3	TRUE	FALSE	high	typical	TRUE
hungarian-esp_esp_participant_SESSION_2022-11-19_09h56.28.75.csv	EIDWFP	nő	2002	14	5	esp trial	85	Te bizony sokat prínylasz. Én is sokat...	prínylok	prínylom	prínylok	prínylom	0	prínylok	TRUE	TRUE	prínylok	TRUE	TRUE	4371	571464	lakok/lakom	lakok_2_high_typical	18	prínylik	0.5877866649021191	Te bizony sokat prínylasz. Én is sokat...	1	NA	2	20	FALSE	FALSE	high	typical	TRUE
hungarian-esp_esp_participant_SESSION_2022-11-19_09h56.28.75.csv	EIDWFP	nő	2002	14	5	esp trial	87	Te bizony sokat treglesz. Én is sokat...	treglem	treglek	treglek	treglem	1	treglek	TRUE	FALSE	treglek	TRUE	TRUE	6428	581939	lakok/lakom	lakok_2_high_typical	18	treglik	0.7472144018302211	Te bizony sokat treglesz. Én is sokat...	1	NA	2	15	TRUE	FALSE	high	typical	TRUE
hungarian-esp_esp_participant_SESSION_2022-11-19_09h56.28.75.csv	EIDWFP	nő	2002	14	5	esp trial	89	Te bizony sokat tragzol. Én is sokat...	tragzom	tragzok	tragzok	tragzom	1	tragzok	TRUE	FALSE	tragzok	TRUE	TRUE	3895	590104	lakok/lakom	lakok_2_high_typical	18	tragzik	-0.06899287148695143	Te bizony sokat tragzol. Én is sokat...	1	NA	2	36	FALSE	FALSE	high	typical	TRUE
hungarian-esp_esp_participant_SESSION_2022-11-19_09h56.28.75.csv	EIDWFP	nő	2002	14	5	esp trial	91	Te bizony sokat rájzol. Én is sokat...	rájzom	rájzok	rájzok	rájzom	1	rájzok	TRUE	FALSE	rájzok	TRUE	TRUE	5025	599179	lakok/lakom	lakok_2_high_typical	18	rájzik	0	Te bizony sokat rájzol. Én is sokat...	1	NA	2	34	FALSE	FALSE	high	typical	TRUE
hungarian-esp_esp_participant_SESSION_2022-11-19_09h56.28.75.csv	EIDWFP	nő	2002	14	5	esp trial	93	Te bizony sokat píjlasz. Én is sokat...	píjlok	píjlom	píjlok	píjlom	0	píjlok	TRUE	TRUE	píjlok	TRUE	TRUE	3098	607357	lakok/lakom	lakok_2_high_typical	18	píjlik	0.6418538861723947	Te bizony sokat píjlasz. Én is sokat...	1	NA	2	19	FALSE	FALSE	high	typical	TRUE
hungarian-esp_esp_participant_SESSION_2022-11-19_09h56.28.75.csv	EIDWFP	nő	2002	14	5	esp trial	95	Te bizony sokat szibánylasz. Én is sokat...	szibánylom	szibánylok	szibánylok	szibánylom	1	szibánylok	TRUE	FALSE	szibánylok	TRUE	TRUE	3735	615544	lakok/lakom	lakok_2_high_typical	18	szibánylik	0.7985076962177716	Te bizony sokat szibánylasz. Én is sokat...	2	NA	2	14	TRUE	FALSE	high	typical	TRUE
hungarian-esp_esp_participant_SESSION_2022-11-19_09h56.28.75.csv	EIDWFP	nő	2002	14	5	esp trial	97	Te bizony sokat nűröklesz. Én is sokat...	nűröklöm	nűröklök	nűröklök	nűröklöm	0	nűröklöm	FALSE	TRUE	nűröklök	FALSE	TRUE	5418	624988	lakok/lakom	lakok_2_high_typical	18	nűröklik	-0.1941560144409575	Te bizony sokat nűröklesz. Én is sokat...	2	NA	2	37	FALSE	FALSE	high	typical	FALSE
hungarian-esp_esp_participant_SESSION_2022-11-19_09h56.28.75.csv	EIDWFP	nő	2002	14	5	esp trial	99	Te bizony sokat spülűdzöl. Én is sokat...	spülűdzöm	spülűdzök	spülűdzök	spülűdzöm	1	spülűdzök	TRUE	FALSE	spülűdzök	TRUE	TRUE	5777	634811	lakok/lakom	lakok_2_high_typical	18	spülűdzik	-0.1941560144409575	Te bizony sokat spülűdzöl. Én is sokat...	2	NA	2	38	FALSE	FALSE	high	typical	TRUE
hungarian-esp_esp_participant_SESSION_2022-11-19_09h56.28.75.csv	EIDWFP	nő	2002	14	5	esp trial	101	Te bizony sokat hurjorzol. Én is sokat...	hurjorzom	hurjorzok	hurjorzok	hurjorzom	0	hurjorzom	FALSE	TRUE	hurjorzok	FALSE	TRUE	5451	644326	lakok/lakom	lakok_2_high_typical	18	hurjorzik	0.06899287148695142	Te bizony sokat hurjorzol. Én is sokat...	2	NA	2	30	FALSE	FALSE	high	typical	FALSE
hungarian-esp_esp_participant_SESSION_2022-11-19_09h56.28.75.csv	EIDWFP	nő	2002	14	5	esp trial	103	Te bizony sokat plűbzöl. Én is sokat...	plűbzök	plűbzöm	plűbzök	plűbzöm	0	plűbzök	TRUE	TRUE	plűbzök	TRUE	TRUE	4793	653153	lakok/lakom	lakok_2_high_typical	18	plűbzik	0.49247648509779424	Te bizony sokat plűbzöl. Én is sokat...	1	NA	2	21	FALSE	FALSE	high	typical	TRUE
hungarian-esp_esp_participant_SESSION_2022-11-19_09h56.28.75.csv	EIDWFP	nő	2002	14	5	esp trial	105	Te bizony sokat vanylasz. Én is sokat...	vanylom	vanylok	vanylok	vanylom	1	vanylok	TRUE	FALSE	vanylok	TRUE	TRUE	3888	661287	lakok/lakom	lakok_2_high_typical	18	vanylik	1.1451323043030026	Te bizony sokat vanylasz. Én is sokat...	1	NA	2	8	TRUE	FALSE	high	typical	TRUE
hungarian-esp_esp_participant_SESSION_2022-11-19_09h56.28.75.csv	EIDWFP	nő	2002	14	5	esp trial	107	Te bizony sokat ibékszel. Én is sokat...	ibékszem	ibékszek	ibékszek	ibékszem	0	ibékszem	FALSE	TRUE	ibékszem	TRUE	FALSE	2930	669446	lakok/lakom	lakok_2_high_typical	18	ibékszik	-0.4353180712578455	Te bizony sokat ibékszel. Én is sokat...	2	NA	2	44	FALSE	TRUE	high	typical	FALSE
hungarian-esp_esp_participant_SESSION_2022-11-19_09h56.28.75.csv	EIDWFP	nő	2002	14	5	esp trial	109	Te bizony sokat sztrozlasz. Én is sokat...	sztrozlok	sztrozlom	sztrozlok	sztrozlom	0	sztrozlok	TRUE	TRUE	sztrozlok	TRUE	TRUE	6348	679834	lakok/lakom	lakok_2_high_typical	18	sztrozlik	0.4353180712578455	Te bizony sokat sztrozlasz. Én is sokat...	1	NA	2	23	FALSE	FALSE	high	typical	TRUE
hungarian-esp_esp_participant_SESSION_2022-11-19_09h56.28.75.csv	EIDWFP	nő	2002	14	5	esp trial	111	Te bizony sokat jonylasz. Én is sokat...	jonylom	jonylok	jonylok	jonylom	1	jonylok	TRUE	FALSE	jonylok	TRUE	TRUE	5275	689158	lakok/lakom	lakok_2_high_typical	18	jonylik	0.8938178760220965	Te bizony sokat jonylasz. Én is sokat...	1	NA	2	12	TRUE	FALSE	high	typical	TRUE
hungarian-esp_esp_participant_SESSION_2022-11-19_09h56.28.75.csv	EIDWFP	nő	2002	14	5	esp trial	113	Te bizony sokat brivegzel. Én is sokat...	brivegzek	brivegzem	brivegzek	brivegzem	1	brivegzem	FALSE	FALSE	brivegzem	TRUE	FALSE	4681	697873	lakok/lakom	lakok_2_high_typical	18	brivegzik	-0.8938178760220964	Te bizony sokat brivegzel. Én is sokat...	2	NA	2	52	FALSE	TRUE	high	typical	FALSE
hungarian-esp_esp_participant_SESSION_2022-11-19_09h56.28.75.csv	EIDWFP	nő	2002	14	5	esp trial	115	Te bizony sokat pribemlesz. Én is sokat...	pribemlek	pribemlem	pribemlek	pribemlem	0	pribemlek	TRUE	TRUE	pribemlek	TRUE	TRUE	2779	706043	lakok/lakom	lakok_2_high_typical	18	pribemlik	1.9095425048844383	Te bizony sokat pribemlesz. Én is sokat...	2	NA	2	2	TRUE	FALSE	high	typical	TRUE
hungarian-esp_esp_participant_SESSION_2022-11-19_09h56.28.75.csv	EIDWFP	nő	2002	14	5	esp trial	117	Te bizony sokat lörűdzöl. Én is sokat...	lörűdzök	lörűdzöm	lörűdzök	lörűdzöm	0	lörűdzök	TRUE	TRUE	lörűdzök	TRUE	TRUE	4202	714311	lakok/lakom	lakok_2_high_typical	18	lörűdzik	-0.2076393647782445	Te bizony sokat lörűdzöl. Én is sokat...	2	NA	2	39	FALSE	FALSE	high	typical	TRUE
hungarian-esp_esp_participant_SESSION_2022-11-19_09h56.28.75.csv	EIDWFP	nő	2002	14	8	posttest trial	120	Te bizony sokat ibáglasz. Én is sokat...	ibáglok	ibáglom	ibáglok	ibáglom	0	ibáglok	TRUE	TRUE	NA	NA	NA	5522	737216	lakok/lakom	lakok_3_high_reversed	21	ibáglik	0.6418538861723947	Te bizony sokat ibáglasz. Én is sokat...	2	NA	3	18	FALSE	FALSE	high	reversed	TRUE
hungarian-esp_esp_participant_SESSION_2022-11-19_09h56.28.75.csv	EIDWFP	nő	2002	14	8	posttest trial	121	Te bizony sokat spülöklesz. Én is sokat...	spülöklök	spülöklöm	spülöklök	spülöklöm	1	spülöklöm	FALSE	FALSE	NA	NA	NA	5719	743452	lakok/lakom	lakok_3_high_reversed	21	spülöklik	0.28768207245178085	Te bizony sokat spülöklesz. Én is sokat...	2	NA	3	26	FALSE	FALSE	high	reversed	FALSE
hungarian-esp_esp_participant_SESSION_2022-11-19_09h56.28.75.csv	EIDWFP	nő	2002	14	8	posttest trial	122	Te bizony sokat prezlesz. Én is sokat...	prezlem	prezlek	prezlek	prezlem	1	prezlek	TRUE	FALSE	NA	NA	NA	5519	749487	lakok/lakom	lakok_3_high_reversed	21	prezlik	0.9162907318741552	Te bizony sokat prezlesz. Én is sokat...	1	NA	3	11	TRUE	FALSE	high	reversed	TRUE
hungarian-esp_esp_participant_SESSION_2022-11-19_09h56.28.75.csv	EIDWFP	nő	2002	14	8	posttest trial	123	Te bizony sokat pugoslasz. Én is sokat...	pugoslok	pugoslom	pugoslok	pugoslom	0	pugoslok	TRUE	TRUE	NA	NA	NA	3235	753238	lakok/lakom	lakok_3_high_reversed	21	pugoslik	0.965080896043587	Te bizony sokat pugoslasz. Én is sokat...	2	NA	3	10	TRUE	FALSE	high	reversed	TRUE
hungarian-esp_esp_participant_SESSION_2022-11-19_09h56.28.75.csv	EIDWFP	nő	2002	14	8	posttest trial	124	Te bizony sokat gyivádzol. Én is sokat...	gyivádzom	gyivádzok	gyivádzok	gyivádzom	1	gyivádzok	TRUE	FALSE	NA	NA	NA	3936	757695	lakok/lakom	lakok_3_high_reversed	21	gyivádzik	-0.6418538861723948	Te bizony sokat gyivádzol. Én is sokat...	2	NA	3	49	FALSE	TRUE	high	reversed	TRUE
hungarian-esp_esp_participant_SESSION_2022-11-19_09h56.28.75.csv	EIDWFP	nő	2002	14	8	posttest trial	125	Te bizony sokat floglasz. Én is sokat...	floglok	floglom	floglok	floglom	0	floglok	TRUE	TRUE	NA	NA	NA	8022	766237	lakok/lakom	lakok_3_high_reversed	21	floglik	0.4595323293784402	Te bizony sokat floglasz. Én is sokat...	1	NA	3	21	FALSE	FALSE	high	reversed	TRUE
hungarian-esp_esp_participant_SESSION_2022-11-19_09h56.28.75.csv	EIDWFP	nő	2002	14	8	posttest trial	126	Te bizony sokat flibekszel. Én is sokat...	flibekszem	flibekszek	flibekszek	flibekszem	0	flibekszem	FALSE	TRUE	NA	NA	NA	3666	770425	lakok/lakom	lakok_3_high_reversed	21	flibekszik	-0.4595323293784402	Te bizony sokat flibekszel. Én is sokat...	2	NA	3	45	FALSE	TRUE	high	reversed	FALSE
hungarian-esp_esp_participant_SESSION_2022-11-19_09h56.28.75.csv	EIDWFP	nő	2002	14	8	posttest trial	127	Te bizony sokat spibádzol. Én is sokat...	spibádzok	spibádzom	spibádzok	spibádzom	0	spibádzok	TRUE	TRUE	NA	NA	NA	6864	777804	lakok/lakom	lakok_3_high_reversed	21	spibádzik	-0.2076393647782445	Te bizony sokat spibádzol. Én is sokat...	2	NA	3	39	FALSE	FALSE	high	reversed	TRUE
hungarian-esp_esp_participant_SESSION_2022-11-19_09h56.28.75.csv	EIDWFP	nő	2002	14	8	posttest trial	128	Te bizony sokat gyibakszol. Én is sokat...	gyibakszom	gyibakszok	gyibakszok	gyibakszom	0	gyibakszom	FALSE	TRUE	NA	NA	NA	5770	784080	lakok/lakom	lakok_3_high_reversed	21	gyibakszik	-0.587786664902119	Te bizony sokat gyibakszol. Én is sokat...	2	NA	3	46	FALSE	TRUE	high	reversed	FALSE
hungarian-esp_esp_participant_SESSION_2022-11-19_09h56.28.75.csv	EIDWFP	nő	2002	14	8	posttest trial	129	Te bizony sokat péleslesz. Én is sokat...	péleslek	péleslem	péleslek	péleslem	0	péleslek	TRUE	TRUE	NA	NA	NA	5724	790314	lakok/lakom	lakok_3_high_reversed	21	péleslik	0.7419373447293773	Te bizony sokat péleslesz. Én is sokat...	2	NA	3	17	FALSE	FALSE	high	reversed	TRUE
hungarian-esp_esp_participant_SESSION_2022-11-19_09h56.28.75.csv	EIDWFP	nő	2002	14	8	posttest trial	130	Te bizony sokat aglasz. Én is sokat...	aglok	aglom	aglok	aglom	0	aglok	TRUE	TRUE	NA	NA	NA	7606	798434	lakok/lakom	lakok_3_high_reversed	21	aglik	-0.2076393647782445	Te bizony sokat aglasz. Én is sokat...	1	NA	3	38	FALSE	FALSE	high	reversed	TRUE
hungarian-esp_esp_participant_SESSION_2022-11-19_09h56.28.75.csv	EIDWFP	nő	2002	14	8	posttest trial	131	Te bizony sokat szűslesz. Én is sokat...	szűslöm	szűslök	szűslök	szűslöm	1	szűslök	TRUE	FALSE	NA	NA	NA	8955	807906	lakok/lakom	lakok_3_high_reversed	21	szűslik	0.8938178760220965	Te bizony sokat szűslesz. Én is sokat...	1	NA	3	13	TRUE	FALSE	high	reversed	TRUE
hungarian-esp_esp_participant_SESSION_2022-11-19_09h56.28.75.csv	EIDWFP	nő	2002	14	8	posttest trial	132	Te bizony sokat friszlasz. Én is sokat...	friszlom	friszlok	friszlok	friszlom	1	friszlok	TRUE	FALSE	NA	NA	NA	4935	813356	lakok/lakom	lakok_3_high_reversed	21	friszlik	0.06453852113757116	Te bizony sokat friszlasz. Én is sokat...	1	NA	3	31	FALSE	FALSE	high	reversed	TRUE
hungarian-esp_esp_participant_SESSION_2022-11-19_09h56.28.75.csv	EIDWFP	nő	2002	14	8	posttest trial	133	Te bizony sokat prohódzol. Én is sokat...	prohódzom	prohódzok	prohódzok	prohódzom	1	prohódzok	TRUE	FALSE	NA	NA	NA	3612	817480	lakok/lakom	lakok_3_high_reversed	21	prohódzik	-1.0560526742493137	Te bizony sokat prohódzol. Én is sokat...	2	NA	3	54	FALSE	TRUE	high	reversed	TRUE
hungarian-esp_esp_participant_SESSION_2022-11-19_09h56.28.75.csv	EIDWFP	nő	2002	14	8	posttest trial	134	Te bizony sokat drügzöl. Én is sokat...	drügzök	drügzöm	drügzök	drügzöm	0	drügzök	TRUE	TRUE	NA	NA	NA	2323	820324	lakok/lakom	lakok_3_high_reversed	21	drügzik	0.06899287148695142	Te bizony sokat drügzöl. Én is sokat...	1	NA	3	29	FALSE	FALSE	high	reversed	TRUE
hungarian-esp_esp_participant_SESSION_2022-11-19_09h56.28.75.csv	EIDWFP	nő	2002	14	8	posttest trial	135	Te bizony sokat spatszol. Én is sokat...	spatszom	spatszok	spatszok	spatszom	1	spatszok	TRUE	FALSE	NA	NA	NA	3142	823981	lakok/lakom	lakok_3_high_reversed	21	spatszik	-0.3483066942682157	Te bizony sokat spatszol. Én is sokat...	1	NA	3	43	FALSE	TRUE	high	reversed	TRUE
hungarian-esp_esp_participant_SESSION_2022-11-19_09h56.28.75.csv	EIDWFP	nő	2002	14	8	posttest trial	136	Te bizony sokat bivejlesz. Én is sokat...	bivejlem	bivejlek	bivejlek	bivejlem	1	bivejlek	TRUE	FALSE	NA	NA	NA	2908	827399	lakok/lakom	lakok_3_high_reversed	21	bivejlik	0.7472144018302211	Te bizony sokat bivejlesz. Én is sokat...	2	NA	3	14	TRUE	FALSE	high	reversed	TRUE
hungarian-esp_esp_participant_SESSION_2022-11-19_09h56.28.75.csv	EIDWFP	nő	2002	14	8	posttest trial	137	Te bizony sokat frágapszol. Én is sokat...	frágapszok	frágapszom	frágapszok	frágapszom	0	frágapszok	TRUE	TRUE	NA	NA	NA	3807	831728	lakok/lakom	lakok_3_high_reversed	21	frágapszik	-0.3483066942682157	Te bizony sokat frágapszol. Én is sokat...	2	NA	3	42	FALSE	TRUE	high	reversed	TRUE
hungarian-esp_esp_participant_SESSION_2022-11-19_09h56.28.75.csv	EIDWFP	nő	2002	14	8	posttest trial	138	Te bizony sokat prihekszel. Én is sokat...	prihekszem	prihekszek	prihekszek	prihekszem	1	prihekszek	TRUE	FALSE	NA	NA	NA	5166	837410	lakok/lakom	lakok_3_high_reversed	21	prihekszik	-0.1941560144409575	Te bizony sokat prihekszel. Én is sokat...	2	NA	3	37	FALSE	FALSE	high	reversed	TRUE
hungarian-esp_esp_participant_SESSION_2022-11-19_09h56.28.75.csv	EIDWFP	nő	2002	14	8	posttest trial	139	Te bizony sokat spülőrzöl. Én is sokat...	spülőrzöm	spülőrzök	spülőrzök	spülőrzöm	1	spülőrzök	TRUE	FALSE	NA	NA	NA	3606	841522	lakok/lakom	lakok_3_high_reversed	21	spülőrzik	0.5877866649021191	Te bizony sokat spülőrzöl. Én is sokat...	2	NA	3	20	FALSE	FALSE	high	reversed	TRUE
hungarian-esp_esp_participant_SESSION_2022-11-19_09h56.28.75.csv	EIDWFP	nő	2002	14	8	posttest trial	140	Te bizony sokat praslasz. Én is sokat...	praslom	praslok	praslok	praslom	1	praslok	TRUE	FALSE	NA	NA	NA	2072	844104	lakok/lakom	lakok_3_high_reversed	21	praslik	1.4271163556401458	Te bizony sokat praslasz. Én is sokat...	1	NA	3	5	TRUE	FALSE	high	reversed	TRUE
hungarian-esp_esp_participant_SESSION_2022-11-19_09h56.28.75.csv	EIDWFP	nő	2002	14	8	posttest trial	141	Te bizony sokat huklasz. Én is sokat...	huklok	huklom	huklok	huklom	0	huklok	TRUE	TRUE	NA	NA	NA	3145	847763	lakok/lakom	lakok_3_high_reversed	21	huklik	-0.06899287148695143	Te bizony sokat huklasz. Én is sokat...	1	NA	3	35	FALSE	FALSE	high	reversed	TRUE
hungarian-esp_esp_participant_SESSION_2022-11-19_09h56.28.75.csv	EIDWFP	nő	2002	14	8	posttest trial	142	Te bizony sokat plövőrzöl. Én is sokat...	plövőrzöm	plövőrzök	plövőrzök	plövőrzöm	1	plövőrzök	TRUE	FALSE	NA	NA	NA	3419	851697	lakok/lakom	lakok_3_high_reversed	21	plövőrzik	0.06899287148695142	Te bizony sokat plövőrzöl. Én is sokat...	2	NA	3	30	FALSE	FALSE	high	reversed	TRUE
hungarian-esp_esp_participant_SESSION_2022-11-19_09h56.28.75.csv	EIDWFP	nő	2002	14	8	posttest trial	143	Te bizony sokat spélszel. Én is sokat...	spélszem	spélszek	spélszek	spélszem	1	spélszek	TRUE	FALSE	NA	NA	NA	3431	855644	lakok/lakom	lakok_3_high_reversed	21	spélszik	0.3483066942682158	Te bizony sokat spélszel. Én is sokat...	1	NA	3	25	FALSE	FALSE	high	reversed	TRUE
hungarian-esp_esp_participant_SESSION_2022-11-19_09h56.28.75.csv	EIDWFP	nő	2002	14	8	posttest trial	144	Te bizony sokat lihadzol. Én is sokat...	lihadzom	lihadzok	lihadzok	lihadzom	1	lihadzok	TRUE	FALSE	NA	NA	NA	3324	859478	lakok/lakom	lakok_3_high_reversed	21	lihadzik	0.1941560144409574	Te bizony sokat lihadzol. Én is sokat...	2	NA	3	27	FALSE	FALSE	high	reversed	TRUE
hungarian-esp_esp_participant_SESSION_2022-11-19_09h56.28.75.csv	EIDWFP	nő	2002	14	8	posttest trial	145	Te bizony sokat féjzel. Én is sokat...	féjzem	féjzek	féjzek	féjzem	1	féjzek	TRUE	FALSE	NA	NA	NA	4184	864181	lakok/lakom	lakok_3_high_reversed	21	féjzik	0.4353180712578455	Te bizony sokat féjzel. Én is sokat...	1	NA	3	22	FALSE	FALSE	high	reversed	TRUE
hungarian-esp_esp_participant_SESSION_2022-11-19_09h56.28.75.csv	EIDWFP	nő	2002	14	8	posttest trial	146	Te bizony sokat klárzol. Én is sokat...	klárzok	klárzom	klárzok	klárzom	0	klárzok	TRUE	TRUE	NA	NA	NA	2582	867277	lakok/lakom	lakok_3_high_reversed	21	klárzik	0	Te bizony sokat klárzol. Én is sokat...	1	NA	3	33	FALSE	FALSE	high	reversed	TRUE
hungarian-esp_esp_participant_SESSION_2022-11-19_09h56.28.75.csv	EIDWFP	nő	2002	14	8	posttest trial	147	Te bizony sokat fliraklasz. Én is sokat...	fliraklom	fliraklok	fliraklok	fliraklom	1	fliraklok	TRUE	FALSE	NA	NA	NA	3262	871055	lakok/lakom	lakok_3_high_reversed	21	fliraklik	0	Te bizony sokat fliraklasz. Én is sokat...	2	NA	3	32	FALSE	FALSE	high	reversed	TRUE
hungarian-esp_esp_participant_SESSION_2022-11-19_09h56.28.75.csv	EIDWFP	nő	2002	14	8	posttest trial	148	Te bizony sokat spírzol. Én is sokat...	spírzok	spírzom	spírzok	spírzom	0	spírzok	TRUE	TRUE	NA	NA	NA	2249	873825	lakok/lakom	lakok_3_high_reversed	21	spírzik	0	Te bizony sokat spírzol. Én is sokat...	1	NA	3	34	FALSE	FALSE	high	reversed	TRUE
hungarian-esp_esp_participant_SESSION_2022-11-19_09h56.28.75.csv	EIDWFP	nő	2002	14	8	posttest trial	149	Te bizony sokat mékszel. Én is sokat...	mékszek	mékszem	mékszek	mékszem	1	mékszem	FALSE	FALSE	NA	NA	NA	5970	880317	lakok/lakom	lakok_3_high_reversed	21	mékszik	-0.1431008436406733	Te bizony sokat mékszel. Én is sokat...	1	NA	3	36	FALSE	FALSE	high	reversed	FALSE
hungarian-esp_esp_participant_SESSION_2022-11-19_09h56.28.75.csv	EIDWFP	nő	2002	14	8	posttest trial	150	Te bizony sokat frivajlasz. Én is sokat...	frivajlom	frivajlok	frivajlok	frivajlom	1	frivajlok	TRUE	FALSE	NA	NA	NA	2148	882979	lakok/lakom	lakok_3_high_reversed	21	frivajlik	1.2992829841302609	Te bizony sokat frivajlasz. Én is sokat...	2	NA	3	6	TRUE	FALSE	high	reversed	TRUE
hungarian-esp_esp_participant_SESSION_2022-11-19_09h56.28.75.csv	EIDWFP	nő	2002	14	8	posttest trial	151	Te bizony sokat sprédlesz. Én is sokat...	sprédlek	sprédlem	sprédlek	sprédlem	0	sprédlek	TRUE	TRUE	NA	NA	NA	2317	885800	lakok/lakom	lakok_3_high_reversed	21	sprédlik	2.159484249353372	Te bizony sokat sprédlesz. Én is sokat...	1	NA	3	1	TRUE	FALSE	high	reversed	TRUE
hungarian-esp_esp_participant_SESSION_2022-11-19_09h56.28.75.csv	EIDWFP	nő	2002	14	8	posttest trial	152	Te bizony sokat flözlesz. Én is sokat...	flözlök	flözlöm	flözlök	flözlöm	0	flözlök	TRUE	TRUE	NA	NA	NA	3294	889608	lakok/lakom	lakok_3_high_reversed	21	flözlik	0.965080896043587	Te bizony sokat flözlesz. Én is sokat...	1	NA	3	9	TRUE	FALSE	high	reversed	TRUE
hungarian-esp_esp_participant_SESSION_2022-11-19_09h56.28.75.csv	EIDWFP	nő	2002	14	8	posttest trial	153	Te bizony sokat vihepszel. Én is sokat...	vihepszem	vihepszek	vihepszek	vihepszem	1	vihepszek	TRUE	FALSE	NA	NA	NA	3322	893443	lakok/lakom	lakok_3_high_reversed	21	vihepszik	-0.7472144018302211	Te bizony sokat vihepszel. Én is sokat...	2	NA	3	51	FALSE	TRUE	high	reversed	TRUE
hungarian-esp_esp_participant_SESSION_2022-11-19_09h56.28.75.csv	EIDWFP	nő	2002	14	8	posttest trial	154	Te bizony sokat plágadzol. Én is sokat...	plágadzok	plágadzom	plágadzok	plágadzom	0	plágadzok	TRUE	TRUE	NA	NA	NA	6928	900879	lakok/lakom	lakok_3_high_reversed	21	plágadzik	-0.4353180712578455	Te bizony sokat plágadzol. Én is sokat...	2	NA	3	44	FALSE	TRUE	high	reversed	TRUE
hungarian-esp_esp_participant_SESSION_2022-11-19_09h56.28.75.csv	EIDWFP	nő	2002	14	8	posttest trial	155	Te bizony sokat gilárzol. Én is sokat...	gilárzok	gilárzom	gilárzok	gilárzom	0	gilárzok	TRUE	TRUE	NA	NA	NA	3321	904723	lakok/lakom	lakok_3_high_reversed	21	gilárzik	-0.8938178760220964	Te bizony sokat gilárzol. Én is sokat...	2	NA	3	52	FALSE	TRUE	high	reversed	TRUE
hungarian-esp_esp_participant_SESSION_2022-11-19_09h56.28.75.csv	EIDWFP	nő	2002	14	8	posttest trial	156	Te bizony sokat flérlesz. Én is sokat...	flérlek	flérlem	flérlek	flérlem	0	flérlek	TRUE	TRUE	NA	NA	NA	2127	907367	lakok/lakom	lakok_3_high_reversed	21	flérlik	1.5686159179138452	Te bizony sokat flérlesz. Én is sokat...	1	NA	3	4	TRUE	FALSE	high	reversed	TRUE
hungarian-esp_esp_participant_SESSION_2022-11-19_09h56.28.75.csv	EIDWFP	nő	2002	14	8	posttest trial	157	Te bizony sokat kumlasz. Én is sokat...	kumlok	kumlom	kumlok	kumlom	0	kumlok	TRUE	TRUE	NA	NA	NA	1988	909873	lakok/lakom	lakok_3_high_reversed	21	kumlik	1.6486586255873816	Te bizony sokat kumlasz. Én is sokat...	1	NA	3	3	TRUE	FALSE	high	reversed	TRUE
hungarian-esp_esp_participant_SESSION_2022-11-19_09h56.28.75.csv	EIDWFP	nő	2002	14	8	posttest trial	158	Te bizony sokat spüszlesz. Én is sokat...	spüszlök	spüszlöm	spüszlök	spüszlöm	0	spüszlök	TRUE	TRUE	NA	NA	NA	5129	915522	lakok/lakom	lakok_3_high_reversed	21	spüszlik	0.14310084364067324	Te bizony sokat spüszlesz. Én is sokat...	1	NA	3	28	FALSE	FALSE	high	reversed	TRUE
hungarian-esp_esp_participant_SESSION_2022-11-19_09h56.28.75.csv	EIDWFP	nő	2002	14	8	posttest trial	159	Te bizony sokat tuboklasz. Én is sokat...	tuboklom	tuboklok	tuboklok	tuboklom	0	tuboklom	FALSE	TRUE	NA	NA	NA	4124	920162	lakok/lakom	lakok_3_high_reversed	21	tuboklik	0.4353180712578455	Te bizony sokat tuboklasz. Én is sokat...	2	NA	3	24	FALSE	FALSE	high	reversed	FALSE
hungarian-esp_esp_participant_SESSION_2022-11-19_09h56.28.75.csv	EIDWFP	nő	2002	14	8	posttest trial	160	Te bizony sokat zödlesz. Én is sokat...	zödlök	zödlöm	zödlök	zödlöm	0	zödlök	TRUE	TRUE	NA	NA	NA	6891	927567	lakok/lakom	lakok_3_high_reversed	21	zödlik	0.7472144018302211	Te bizony sokat zödlesz. Én is sokat...	1	NA	3	15	TRUE	FALSE	high	reversed	TRUE
hungarian-esp_esp_participant_SESSION_2022-11-19_09h56.28.75.csv	EIDWFP	nő	2002	14	8	posttest trial	161	Te bizony sokat trihagzol. Én is sokat...	trihagzok	trihagzom	trihagzok	trihagzom	0	trihagzok	TRUE	TRUE	NA	NA	NA	2360	930450	lakok/lakom	lakok_3_high_reversed	21	trihagzik	-0.6418538861723948	Te bizony sokat trihagzol. Én is sokat...	2	NA	3	50	FALSE	TRUE	high	reversed	TRUE
hungarian-esp_esp_participant_SESSION_2022-11-19_09h56.28.75.csv	EIDWFP	nő	2002	14	8	posttest trial	162	Te bizony sokat brarlasz. Én is sokat...	brarlok	brarlom	brarlok	brarlom	0	brarlok	TRUE	TRUE	NA	NA	NA	3937	934901	lakok/lakom	lakok_3_high_reversed	21	brarlik	1.1451323043030026	Te bizony sokat brarlasz. Én is sokat...	1	NA	3	7	TRUE	FALSE	high	reversed	TRUE
hungarian-esp_esp_participant_SESSION_2022-11-19_09h56.28.75.csv	EIDWFP	nő	2002	14	8	posttest trial	163	Te bizony sokat vűjlesz. Én is sokat...	vűjlök	vűjlöm	vűjlök	vűjlöm	0	vűjlök	TRUE	TRUE	NA	NA	NA	3125	938542	lakok/lakom	lakok_3_high_reversed	21	vűjlik	1.0986122886681098	Te bizony sokat vűjlesz. Én is sokat...	1	NA	3	8	TRUE	FALSE	high	reversed	TRUE
hungarian-esp_esp_participant_SESSION_2022-11-19_09h56.28.75.csv	EIDWFP	nő	2002	14	8	posttest trial	164	Te bizony sokat préleglesz. Én is sokat...	préleglek	préleglem	préleglek	préleglem	0	préleglek	TRUE	TRUE	NA	NA	NA	1786	940848	lakok/lakom	lakok_3_high_reversed	21	préleglik	0.6418538861723947	Te bizony sokat préleglesz. Én is sokat...	2	NA	3	19	FALSE	FALSE	high	reversed	TRUE
hungarian-esp_esp_participant_SESSION_2022-11-19_09h56.28.75.csv	EIDWFP	nő	2002	14	8	posttest trial	165	Te bizony sokat gerénylesz. Én is sokat...	gerénylem	gerénylek	gerénylek	gerénylem	1	gerénylek	TRUE	FALSE	NA	NA	NA	7211	948574	lakok/lakom	lakok_3_high_reversed	21	gerénylik	1.791759469228055	Te bizony sokat gerénylesz. Én is sokat...	2	NA	3	2	TRUE	FALSE	high	reversed	TRUE
hungarian-esp_esp_participant_SESSION_2022-11-19_09h56.28.75.csv	EIDWFP	nő	2002	14	8	posttest trial	166	Te bizony sokat táklasz. Én is sokat...	táklom	táklok	táklok	táklom	0	táklom	FALSE	TRUE	NA	NA	NA	3276	952369	lakok/lakom	lakok_3_high_reversed	21	táklik	-0.2876820724517809	Te bizony sokat táklasz. Én is sokat...	1	NA	3	41	FALSE	TRUE	high	reversed	FALSE
hungarian-esp_esp_participant_SESSION_2022-11-19_09h56.28.75.csv	EIDWFP	nő	2002	14	8	posttest trial	167	Te bizony sokat csólorzol. Én is sokat...	csólorzom	csólorzok	csólorzok	csólorzom	1	csólorzok	TRUE	FALSE	NA	NA	NA	3786	956670	lakok/lakom	lakok_3_high_reversed	21	csólorzik	-0.5978370007556204	Te bizony sokat csólorzol. Én is sokat...	2	NA	3	47	FALSE	TRUE	high	reversed	TRUE
hungarian-esp_esp_participant_SESSION_2022-11-19_09h56.28.75.csv	EIDWFP	nő	2002	14	8	posttest trial	168	Te bizony sokat fligzol. Én is sokat...	fligzom	fligzok	fligzok	fligzom	1	fligzok	TRUE	FALSE	NA	NA	NA	2742	959926	lakok/lakom	lakok_3_high_reversed	21	fligzik	-0.5978370007556204	Te bizony sokat fligzol. Én is sokat...	1	NA	3	48	FALSE	TRUE	high	reversed	TRUE
hungarian-esp_esp_participant_SESSION_2022-11-19_09h56.28.75.csv	EIDWFP	nő	2002	14	8	posttest trial	169	Te bizony sokat sprálszol. Én is sokat...	sprálszom	sprálszok	sprálszok	sprálszom	1	sprálszok	TRUE	FALSE	NA	NA	NA	3595	964037	lakok/lakom	lakok_3_high_reversed	21	sprálszik	-0.2876820724517809	Te bizony sokat sprálszol. Én is sokat...	1	NA	3	40	FALSE	TRUE	high	reversed	TRUE
hungarian-esp_esp_participant_SESSION_2022-11-19_09h56.28.75.csv	EIDWFP	nő	2002	14	8	posttest trial	170	Te bizony sokat klidlasz. Én is sokat...	klidlok	klidlom	klidlok	klidlom	0	klidlok	TRUE	TRUE	NA	NA	NA	2808	967349	lakok/lakom	lakok_3_high_reversed	21	klidlik	0.8938178760220965	Te bizony sokat klidlasz. Én is sokat...	1	NA	3	12	TRUE	FALSE	high	reversed	TRUE
hungarian-esp_esp_participant_SESSION_2022-11-19_09h56.28.75.csv	EIDWFP	nő	2002	14	8	posttest trial	171	Te bizony sokat livaklasz. Én is sokat...	livaklom	livaklok	livaklok	livaklom	1	livaklok	TRUE	FALSE	NA	NA	NA	3274	971130	lakok/lakom	lakok_3_high_reversed	21	livaklik	-0.9650808960435872	Te bizony sokat livaklasz. Én is sokat...	2	NA	3	53	FALSE	TRUE	high	reversed	TRUE
hungarian-esp_esp_participant_SESSION_2022-11-19_09h56.28.75.csv	EIDWFP	nő	2002	14	8	posttest trial	172	Te bizony sokat fivénylesz. Én is sokat...	fivénylek	fivénylem	fivénylek	fivénylem	0	fivénylek	TRUE	TRUE	NA	NA	NA	2874	974518	lakok/lakom	lakok_3_high_reversed	21	fivénylik	0.7419373447293773	Te bizony sokat fivénylesz. Én is sokat...	2	NA	3	16	FALSE	FALSE	high	reversed	TRUE
hungarian-esp_esp_participant_SESSION_2022-11-19_09h56.28.75.csv	EIDWFP	nő	2002	14	8	posttest trial	173	Te bizony sokat sztruglasz. Én is sokat...	sztruglom	sztruglok	sztruglok	sztruglom	1	sztruglok	TRUE	FALSE	NA	NA	NA	2156	977195	lakok/lakom	lakok_3_high_reversed	21	sztruglik	0.4353180712578455	Te bizony sokat sztruglasz. Én is sokat...	1	NA	3	23	FALSE	FALSE	high	reversed	TRUE
hungarian-esp_esp_participant_SESSION_2022-11-19_11h48.31.729.csv	SWLTXH	nő	2001	15	6	esp trial	11	Te bizony sokat flitlasz. Én is sokat...	flitlom	flitlok	flitlok	flitlom	0	flitlom	FALSE	TRUE	flitlom	TRUE	FALSE	5313	162280	lakok/lakom	lakok_2_low_reversed	19	flitlik	1.6486586255873816	Te bizony sokat flitlasz. Én is sokat...	1	NA	2	3	TRUE	FALSE	low	reversed	TRUE
hungarian-esp_esp_participant_SESSION_2022-11-19_11h48.31.729.csv	SWLTXH	nő	2001	15	6	esp trial	13	Te bizony sokat figlasz. Én is sokat...	figlok	figlom	figlok	figlom	1	figlom	FALSE	FALSE	figlom	TRUE	FALSE	6122	172454	lakok/lakom	lakok_2_low_reversed	19	figlik	0.7419373447293773	Te bizony sokat figlasz. Én is sokat...	1	NA	2	16	FALSE	FALSE	low	reversed	TRUE
hungarian-esp_esp_participant_SESSION_2022-11-19_11h48.31.729.csv	SWLTXH	nő	2001	15	6	esp trial	15	Te bizony sokat lörűdzöl. Én is sokat...	lörűdzök	lörűdzöm	lörűdzök	lörűdzöm	1	lörűdzöm	FALSE	FALSE	lörűdzöm	TRUE	FALSE	5933	182415	lakok/lakom	lakok_2_low_reversed	19	lörűdzik	-0.2076393647782445	Te bizony sokat lörűdzöl. Én is sokat...	2	NA	2	39	FALSE	FALSE	low	reversed	TRUE
hungarian-esp_esp_participant_SESSION_2022-11-19_11h48.31.729.csv	SWLTXH	nő	2001	15	6	esp trial	17	Te bizony sokat píjlasz. Én is sokat...	píjlok	píjlom	píjlok	píjlom	1	píjlom	FALSE	FALSE	píjlom	TRUE	FALSE	3184	190574	lakok/lakom	lakok_2_low_reversed	19	píjlik	0.6418538861723947	Te bizony sokat píjlasz. Én is sokat...	1	NA	2	19	FALSE	FALSE	low	reversed	TRUE
hungarian-esp_esp_participant_SESSION_2022-11-19_11h48.31.729.csv	SWLTXH	nő	2001	15	6	esp trial	19	Te bizony sokat hurjorzol. Én is sokat...	hurjorzok	hurjorzom	hurjorzok	hurjorzom	1	hurjorzom	FALSE	FALSE	hurjorzom	TRUE	FALSE	4756	199371	lakok/lakom	lakok_2_low_reversed	19	hurjorzik	0.06899287148695142	Te bizony sokat hurjorzol. Én is sokat...	2	NA	2	30	FALSE	FALSE	low	reversed	TRUE
hungarian-esp_esp_participant_SESSION_2022-11-19_11h48.31.729.csv	SWLTXH	nő	2001	15	6	esp trial	21	Te bizony sokat pítszol. Én is sokat...	pítszok	pítszom	pítszok	pítszom	1	pítszom	FALSE	FALSE	pítszok	FALSE	TRUE	2883	207514	lakok/lakom	lakok_2_low_reversed	19	pítszik	-0.49247648509779407	Te bizony sokat pítszol. Én is sokat...	1	NA	2	46	FALSE	TRUE	low	reversed	TRUE
hungarian-esp_esp_participant_SESSION_2022-11-19_11h48.31.729.csv	SWLTXH	nő	2001	15	6	esp trial	23	Te bizony sokat flehékszel. Én is sokat...	flehékszek	flehékszem	flehékszek	flehékszem	1	flehékszem	FALSE	FALSE	flehékszek	FALSE	TRUE	4877	216437	lakok/lakom	lakok_2_low_reversed	19	flehékszik	-0.5978370007556204	Te bizony sokat flehékszel. Én is sokat...	2	NA	2	48	FALSE	TRUE	low	reversed	TRUE
hungarian-esp_esp_participant_SESSION_2022-11-19_11h48.31.729.csv	SWLTXH	nő	2001	15	6	esp trial	25	Te bizony sokat vülődzöl. Én is sokat...	vülődzök	vülődzöm	vülődzök	vülődzöm	0	vülődzök	TRUE	TRUE	vülődzöm	FALSE	FALSE	3737	224584	lakok/lakom	lakok_2_low_reversed	19	vülődzik	0.06899287148695142	Te bizony sokat vülődzöl. Én is sokat...	2	NA	2	31	FALSE	FALSE	low	reversed	FALSE
hungarian-esp_esp_participant_SESSION_2022-11-19_11h48.31.729.csv	SWLTXH	nő	2001	15	6	esp trial	27	Te bizony sokat plűbzöl. Én is sokat...	plűbzök	plűbzöm	plűbzök	plűbzöm	1	plűbzöm	FALSE	FALSE	plűbzöm	TRUE	FALSE	4118	232742	lakok/lakom	lakok_2_low_reversed	19	plűbzik	0.49247648509779424	Te bizony sokat plűbzöl. Én is sokat...	1	NA	2	21	FALSE	FALSE	low	reversed	TRUE
hungarian-esp_esp_participant_SESSION_2022-11-19_11h48.31.729.csv	SWLTXH	nő	2001	15	6	esp trial	29	Te bizony sokat brivegzel. Én is sokat...	brivegzem	brivegzek	brivegzek	brivegzem	0	brivegzem	FALSE	TRUE	brivegzek	FALSE	TRUE	4689	241470	lakok/lakom	lakok_2_low_reversed	19	brivegzik	-0.8938178760220964	Te bizony sokat brivegzel. Én is sokat...	2	NA	2	52	FALSE	TRUE	low	reversed	TRUE
hungarian-esp_esp_participant_SESSION_2022-11-19_11h48.31.729.csv	SWLTXH	nő	2001	15	6	esp trial	31	Te bizony sokat klaráglasz. Én is sokat...	klaráglom	klaráglok	klaráglok	klaráglom	1	klaráglok	TRUE	FALSE	klaráglom	FALSE	FALSE	7237	252743	lakok/lakom	lakok_2_low_reversed	19	klaráglik	0.965080896043587	Te bizony sokat klaráglasz. Én is sokat...	2	NA	2	10	TRUE	FALSE	low	reversed	FALSE
hungarian-esp_esp_participant_SESSION_2022-11-19_11h48.31.729.csv	SWLTXH	nő	2001	15	6	esp trial	33	Te bizony sokat rájzol. Én is sokat...	rájzok	rájzom	rájzok	rájzom	1	rájzom	FALSE	FALSE	rájzom	TRUE	FALSE	6112	262885	lakok/lakom	lakok_2_low_reversed	19	rájzik	0	Te bizony sokat rájzol. Én is sokat...	1	NA	2	34	FALSE	FALSE	low	reversed	TRUE
hungarian-esp_esp_participant_SESSION_2022-11-19_11h48.31.729.csv	SWLTXH	nő	2001	15	6	esp trial	35	Te bizony sokat hűgzöl. Én is sokat...	hűgzök	hűgzöm	hűgzök	hűgzöm	0	hűgzök	TRUE	TRUE	hűgzöm	FALSE	FALSE	3722	271033	lakok/lakom	lakok_2_low_reversed	19	hűgzik	0	Te bizony sokat hűgzöl. Én is sokat...	1	NA	2	33	FALSE	FALSE	low	reversed	FALSE
hungarian-esp_esp_participant_SESSION_2022-11-19_11h48.31.729.csv	SWLTXH	nő	2001	15	6	esp trial	37	Te bizony sokat prínylasz. Én is sokat...	prínylok	prínylom	prínylok	prínylom	0	prínylok	TRUE	TRUE	prínylom	FALSE	FALSE	4675	279730	lakok/lakom	lakok_2_low_reversed	19	prínylik	0.5877866649021191	Te bizony sokat prínylasz. Én is sokat...	1	NA	2	20	FALSE	FALSE	low	reversed	FALSE
hungarian-esp_esp_participant_SESSION_2022-11-19_11h48.31.729.csv	SWLTXH	nő	2001	15	6	esp trial	39	Te bizony sokat sztrozlasz. Én is sokat...	sztrozlok	sztrozlom	sztrozlok	sztrozlom	1	sztrozlom	FALSE	FALSE	sztrozlom	TRUE	FALSE	5379	289140	lakok/lakom	lakok_2_low_reversed	19	sztrozlik	0.4353180712578455	Te bizony sokat sztrozlasz. Én is sokat...	1	NA	2	23	FALSE	FALSE	low	reversed	TRUE
hungarian-esp_esp_participant_SESSION_2022-11-19_11h48.31.729.csv	SWLTXH	nő	2001	15	6	esp trial	41	Te bizony sokat ibékszel. Én is sokat...	ibékszem	ibékszek	ibékszek	ibékszem	0	ibékszem	FALSE	TRUE	ibékszek	FALSE	TRUE	4457	297644	lakok/lakom	lakok_2_low_reversed	19	ibékszik	-0.4353180712578455	Te bizony sokat ibékszel. Én is sokat...	2	NA	2	44	FALSE	TRUE	low	reversed	TRUE
hungarian-esp_esp_participant_SESSION_2022-11-19_11h48.31.729.csv	SWLTXH	nő	2001	15	6	esp trial	43	Te bizony sokat bihánylasz. Én is sokat...	bihánylok	bihánylom	bihánylok	bihánylom	1	bihánylom	FALSE	FALSE	bihánylom	TRUE	FALSE	4014	305825	lakok/lakom	lakok_2_low_reversed	19	bihánylik	1.2992829841302609	Te bizony sokat bihánylasz. Én is sokat...	2	NA	2	6	TRUE	FALSE	low	reversed	TRUE
hungarian-esp_esp_participant_SESSION_2022-11-19_11h48.31.729.csv	SWLTXH	nő	2001	15	6	esp trial	45	Te bizony sokat gyibeslesz. Én is sokat...	gyibeslem	gyibeslek	gyibeslek	gyibeslem	1	gyibeslek	TRUE	FALSE	gyibeslem	FALSE	FALSE	4202	314069	lakok/lakom	lakok_2_low_reversed	19	gyibeslik	0.6418538861723947	Te bizony sokat gyibeslesz. Én is sokat...	2	NA	2	18	FALSE	FALSE	low	reversed	FALSE
hungarian-esp_esp_participant_SESSION_2022-11-19_11h48.31.729.csv	SWLTXH	nő	2001	15	6	esp trial	47	Te bizony sokat vanylasz. Én is sokat...	vanylom	vanylok	vanylok	vanylom	0	vanylom	FALSE	TRUE	vanylom	TRUE	FALSE	4815	322937	lakok/lakom	lakok_2_low_reversed	19	vanylik	1.1451323043030026	Te bizony sokat vanylasz. Én is sokat...	1	NA	2	8	TRUE	FALSE	low	reversed	TRUE
hungarian-esp_esp_participant_SESSION_2022-11-19_11h48.31.729.csv	SWLTXH	nő	2001	15	6	esp trial	49	Te bizony sokat flátszol. Én is sokat...	flátszom	flátszok	flátszok	flátszom	0	flátszom	FALSE	TRUE	flátszok	FALSE	TRUE	3213	331121	lakok/lakom	lakok_2_low_reversed	19	flátszik	-0.4595323293784402	Te bizony sokat flátszol. Én is sokat...	1	NA	2	45	FALSE	TRUE	low	reversed	TRUE
hungarian-esp_esp_participant_SESSION_2022-11-19_11h48.31.729.csv	SWLTXH	nő	2001	15	6	esp trial	51	Te bizony sokat jonylasz. Én is sokat...	jonylom	jonylok	jonylok	jonylom	0	jonylom	FALSE	TRUE	jonylom	TRUE	FALSE	3579	339298	lakok/lakom	lakok_2_low_reversed	19	jonylik	0.8938178760220965	Te bizony sokat jonylasz. Én is sokat...	1	NA	2	12	TRUE	FALSE	low	reversed	TRUE
hungarian-esp_esp_participant_SESSION_2022-11-19_11h48.31.729.csv	SWLTXH	nő	2001	15	6	esp trial	53	Te bizony sokat narádzol. Én is sokat...	narádzom	narádzok	narádzok	narádzom	0	narádzom	FALSE	TRUE	narádzok	FALSE	TRUE	4607	347948	lakok/lakom	lakok_2_low_reversed	19	narádzik	-0.6418538861723948	Te bizony sokat narádzol. Én is sokat...	2	NA	2	50	FALSE	TRUE	low	reversed	TRUE
hungarian-esp_esp_participant_SESSION_2022-11-19_11h48.31.729.csv	SWLTXH	nő	2001	15	6	esp trial	55	Te bizony sokat trádlasz. Én is sokat...	trádlom	trádlok	trádlok	trádlom	1	trádlok	TRUE	FALSE	trádlom	FALSE	FALSE	2907	356105	lakok/lakom	lakok_2_low_reversed	19	trádlik	0.4353180712578455	Te bizony sokat trádlasz. Én is sokat...	1	NA	2	24	FALSE	FALSE	low	reversed	FALSE
hungarian-esp_esp_participant_SESSION_2022-11-19_11h48.31.729.csv	SWLTXH	nő	2001	15	6	esp trial	57	Te bizony sokat filágzol. Én is sokat...	filágzok	filágzom	filágzok	filágzom	1	filágzom	FALSE	FALSE	filágzok	FALSE	TRUE	4093	364257	lakok/lakom	lakok_2_low_reversed	19	filágzik	-0.9650808960435872	Te bizony sokat filágzol. Én is sokat...	2	NA	2	53	FALSE	TRUE	low	reversed	TRUE
hungarian-esp_esp_participant_SESSION_2022-11-19_11h48.31.729.csv	SWLTXH	nő	2001	15	6	esp trial	59	Te bizony sokat trehégszel. Én is sokat...	trehégszem	trehégszek	trehégszek	trehégszem	0	trehégszem	FALSE	TRUE	trehégszek	FALSE	TRUE	5749	374045	lakok/lakom	lakok_2_low_reversed	19	trehégszik	-0.7472144018302211	Te bizony sokat trehégszel. Én is sokat...	2	NA	2	51	FALSE	TRUE	low	reversed	TRUE
hungarian-esp_esp_participant_SESSION_2022-11-19_11h48.31.729.csv	SWLTXH	nő	2001	15	6	esp trial	61	Te bizony sokat huroslasz. Én is sokat...	huroslok	huroslom	huroslok	huroslom	1	huroslom	FALSE	FALSE	huroslom	TRUE	FALSE	5393	383484	lakok/lakom	lakok_2_low_reversed	19	huroslik	1.0560526742493137	Te bizony sokat huroslasz. Én is sokat...	2	NA	2	9	TRUE	FALSE	low	reversed	TRUE
hungarian-esp_esp_participant_SESSION_2022-11-19_11h48.31.729.csv	SWLTXH	nő	2001	15	6	esp trial	63	Te bizony sokat frodlasz. Én is sokat...	frodlom	frodlok	frodlok	frodlom	0	frodlom	FALSE	TRUE	frodlom	TRUE	FALSE	1810	391658	lakok/lakom	lakok_2_low_reversed	19	frodlik	0.7419373447293773	Te bizony sokat frodlasz. Én is sokat...	1	NA	2	17	FALSE	FALSE	low	reversed	TRUE
hungarian-esp_esp_participant_SESSION_2022-11-19_11h48.31.729.csv	SWLTXH	nő	2001	15	6	esp trial	65	Te bizony sokat spröbzöl. Én is sokat...	spröbzök	spröbzöm	spröbzök	spröbzöm	1	spröbzöm	FALSE	FALSE	spröbzöm	TRUE	FALSE	4892	400570	lakok/lakom	lakok_2_low_reversed	19	spröbzik	0.28768207245178085	Te bizony sokat spröbzöl. Én is sokat...	1	NA	2	26	FALSE	FALSE	low	reversed	TRUE
hungarian-esp_esp_participant_SESSION_2022-11-19_11h48.31.729.csv	SWLTXH	nő	2001	15	6	esp trial	67	Te bizony sokat szibánylasz. Én is sokat...	szibánylok	szibánylom	szibánylok	szibánylom	1	szibánylom	FALSE	FALSE	szibánylom	TRUE	FALSE	1365	408733	lakok/lakom	lakok_2_low_reversed	19	szibánylik	0.7985076962177716	Te bizony sokat szibánylasz. Én is sokat...	2	NA	2	14	TRUE	FALSE	low	reversed	TRUE
hungarian-esp_esp_participant_SESSION_2022-11-19_11h48.31.729.csv	SWLTXH	nő	2001	15	6	esp trial	69	Te bizony sokat düjzöl. Én is sokat...	düjzöm	düjzök	düjzök	düjzöm	1	düjzök	TRUE	FALSE	düjzöm	FALSE	FALSE	2162	416902	lakok/lakom	lakok_2_low_reversed	19	düjzik	0	Te bizony sokat düjzöl. Én is sokat...	1	NA	2	32	FALSE	FALSE	low	reversed	FALSE
hungarian-esp_esp_participant_SESSION_2022-11-19_11h48.31.729.csv	SWLTXH	nő	2001	15	6	esp trial	71	Te bizony sokat brubzol. Én is sokat...	brubzok	brubzom	brubzok	brubzom	1	brubzom	FALSE	FALSE	brubzom	TRUE	FALSE	1311	425061	lakok/lakom	lakok_2_low_reversed	19	brubzik	0.3483066942682158	Te bizony sokat brubzol. Én is sokat...	1	NA	2	25	FALSE	FALSE	low	reversed	TRUE
hungarian-esp_esp_participant_SESSION_2022-11-19_11h48.31.729.csv	SWLTXH	nő	2001	15	6	esp trial	73	Te bizony sokat flűmlesz. Én is sokat...	flűmlöm	flűmlök	flűmlök	flűmlöm	0	flűmlöm	FALSE	TRUE	flűmlöm	TRUE	FALSE	1919	433223	lakok/lakom	lakok_2_low_reversed	19	flűmlik	1.4271163556401458	Te bizony sokat flűmlesz. Én is sokat...	1	NA	2	5	TRUE	FALSE	low	reversed	TRUE
hungarian-esp_esp_participant_SESSION_2022-11-19_11h48.31.729.csv	SWLTXH	nő	2001	15	6	esp trial	75	Te bizony sokat brobódzol. Én is sokat...	brobódzom	brobódzok	brobódzok	brobódzom	0	brobódzom	FALSE	TRUE	brobódzok	FALSE	TRUE	930	441372	lakok/lakom	lakok_2_low_reversed	19	brobódzik	-0.6418538861723948	Te bizony sokat brobódzol. Én is sokat...	2	NA	2	49	FALSE	TRUE	low	reversed	TRUE
hungarian-esp_esp_participant_SESSION_2022-11-19_11h48.31.729.csv	SWLTXH	nő	2001	15	6	esp trial	77	Te bizony sokat bivégszel. Én is sokat...	bivégszek	bivégszem	bivégszek	bivégszem	0	bivégszek	TRUE	TRUE	bivégszek	TRUE	TRUE	1690	449533	lakok/lakom	lakok_2_low_reversed	19	bivégszik	-1.0560526742493137	Te bizony sokat bivégszel. Én is sokat...	2	NA	2	54	FALSE	TRUE	low	reversed	FALSE
hungarian-esp_esp_participant_SESSION_2022-11-19_11h48.31.729.csv	SWLTXH	nő	2001	15	6	esp trial	79	Te bizony sokat sztrijzol. Én is sokat...	sztrijzok	sztrijzom	sztrijzok	sztrijzom	1	sztrijzom	FALSE	FALSE	sztrijzom	TRUE	FALSE	1350	457676	lakok/lakom	lakok_2_low_reversed	19	sztrijzik	0.14310084364067324	Te bizony sokat sztrijzol. Én is sokat...	1	NA	2	29	FALSE	FALSE	low	reversed	TRUE
hungarian-esp_esp_participant_SESSION_2022-11-19_11h48.31.729.csv	SWLTXH	nő	2001	15	6	esp trial	81	Te bizony sokat spülűdzöl. Én is sokat...	spülűdzök	spülűdzöm	spülűdzök	spülűdzöm	0	spülűdzök	TRUE	TRUE	spülűdzöm	FALSE	FALSE	1973	465855	lakok/lakom	lakok_2_low_reversed	19	spülűdzik	-0.1941560144409575	Te bizony sokat spülűdzöl. Én is sokat...	2	NA	2	38	FALSE	FALSE	low	reversed	FALSE
hungarian-esp_esp_participant_SESSION_2022-11-19_11h48.31.729.csv	SWLTXH	nő	2001	15	6	esp trial	83	Te bizony sokat tragzol. Én is sokat...	tragzok	tragzom	tragzok	tragzom	1	tragzom	FALSE	FALSE	tragzom	TRUE	FALSE	596	474009	lakok/lakom	lakok_2_low_reversed	19	tragzik	-0.06899287148695143	Te bizony sokat tragzol. Én is sokat...	1	NA	2	36	FALSE	FALSE	low	reversed	TRUE
hungarian-esp_esp_participant_SESSION_2022-11-19_11h48.31.729.csv	SWLTXH	nő	2001	15	6	esp trial	85	Te bizony sokat nűröklesz. Én is sokat...	nűröklöm	nűröklök	nűröklök	nűröklöm	0	nűröklöm	FALSE	TRUE	nűröklöm	TRUE	FALSE	1351	482187	lakok/lakom	lakok_2_low_reversed	19	nűröklik	-0.1941560144409575	Te bizony sokat nűröklesz. Én is sokat...	2	NA	2	37	FALSE	FALSE	low	reversed	TRUE
hungarian-esp_esp_participant_SESSION_2022-11-19_11h48.31.729.csv	SWLTXH	nő	2001	15	6	esp trial	87	Te bizony sokat sztrűkszöl. Én is sokat...	sztrűkszöm	sztrűkszök	sztrűkszök	sztrűkszöm	0	sztrűkszöm	FALSE	TRUE	sztrűkszök	FALSE	TRUE	1730	490335	lakok/lakom	lakok_2_low_reversed	19	sztrűkszik	-0.2876820724517809	Te bizony sokat sztrűkszöl. Én is sokat...	1	NA	2	41	FALSE	TRUE	low	reversed	TRUE
hungarian-esp_esp_participant_SESSION_2022-11-19_11h48.31.729.csv	SWLTXH	nő	2001	15	6	esp trial	89	Te bizony sokat pribemlesz. Én is sokat...	pribemlem	pribemlek	pribemlek	pribemlem	1	pribemlek	TRUE	FALSE	pribemlem	FALSE	FALSE	1409	498478	lakok/lakom	lakok_2_low_reversed	19	pribemlik	1.9095425048844383	Te bizony sokat pribemlesz. Én is sokat...	2	NA	2	2	TRUE	FALSE	low	reversed	FALSE
hungarian-esp_esp_participant_SESSION_2022-11-19_11h48.31.729.csv	SWLTXH	nő	2001	15	6	esp trial	91	Te bizony sokat spihemlesz. Én is sokat...	spihemlem	spihemlek	spihemlek	spihemlem	1	spihemlek	TRUE	FALSE	spihemlem	FALSE	FALSE	983	506643	lakok/lakom	lakok_2_low_reversed	19	spihemlik	2.159484249353372	Te bizony sokat spihemlesz. Én is sokat...	2	NA	2	1	TRUE	FALSE	low	reversed	FALSE
hungarian-esp_esp_participant_SESSION_2022-11-19_11h48.31.729.csv	SWLTXH	nő	2001	15	6	esp trial	93	Te bizony sokat spüjzöl. Én is sokat...	spüjzöm	spüjzök	spüjzök	spüjzöm	0	spüjzöm	FALSE	TRUE	spüjzöm	TRUE	FALSE	1334	514809	lakok/lakom	lakok_2_low_reversed	19	spüjzik	0.8938178760220965	Te bizony sokat spüjzöl. Én is sokat...	1	NA	2	13	TRUE	FALSE	low	reversed	TRUE
hungarian-esp_esp_participant_SESSION_2022-11-19_11h48.31.729.csv	SWLTXH	nő	2001	15	6	esp trial	95	Te bizony sokat pribagszol. Én is sokat...	pribagszok	pribagszom	pribagszok	pribagszom	1	pribagszom	FALSE	FALSE	pribagszok	FALSE	TRUE	2347	522982	lakok/lakom	lakok_2_low_reversed	19	pribagszik	-0.587786664902119	Te bizony sokat pribagszol. Én is sokat...	2	NA	2	47	FALSE	TRUE	low	reversed	TRUE
hungarian-esp_esp_participant_SESSION_2022-11-19_11h48.31.729.csv	SWLTXH	nő	2001	15	6	esp trial	97	Te bizony sokat spubonylasz. Én is sokat...	spubonylom	spubonylok	spubonylok	spubonylom	0	spubonylom	FALSE	TRUE	spubonylom	TRUE	FALSE	1420	531121	lakok/lakom	lakok_2_low_reversed	19	spubonylik	1.2321436812926323	Te bizony sokat spubonylasz. Én is sokat...	2	NA	2	7	TRUE	FALSE	low	reversed	TRUE
hungarian-esp_esp_participant_SESSION_2022-11-19_11h48.31.729.csv	SWLTXH	nő	2001	15	6	esp trial	99	Te bizony sokat klivaslasz. Én is sokat...	klivaslok	klivaslom	klivaslok	klivaslom	1	klivaslom	FALSE	FALSE	klivaslom	TRUE	FALSE	1337	539289	lakok/lakom	lakok_2_low_reversed	19	klivaslik	0.9162907318741552	Te bizony sokat klivaslasz. Én is sokat...	2	NA	2	11	TRUE	FALSE	low	reversed	TRUE
hungarian-esp_esp_participant_SESSION_2022-11-19_11h48.31.729.csv	SWLTXH	nő	2001	15	6	esp trial	101	Te bizony sokat bűtszöl. Én is sokat...	bűtszök	bűtszöm	bűtszök	bűtszöm	0	bűtszök	TRUE	TRUE	bűtszöm	FALSE	FALSE	1245	547440	lakok/lakom	lakok_2_low_reversed	19	bűtszik	0.14310084364067324	Te bizony sokat bűtszöl. Én is sokat...	1	NA	2	28	FALSE	FALSE	low	reversed	FALSE
hungarian-esp_esp_participant_SESSION_2022-11-19_11h48.31.729.csv	SWLTXH	nő	2001	15	6	esp trial	103	Te bizony sokat salárzol. Én is sokat...	salárzok	salárzom	salárzok	salárzom	1	salárzom	FALSE	FALSE	salárzom	TRUE	FALSE	1423	555606	lakok/lakom	lakok_2_low_reversed	19	salárzik	0.20763936477824457	Te bizony sokat salárzol. Én is sokat...	2	NA	2	27	FALSE	FALSE	low	reversed	TRUE
hungarian-esp_esp_participant_SESSION_2022-11-19_11h48.31.729.csv	SWLTXH	nő	2001	15	6	esp trial	105	Te bizony sokat plugzol. Én is sokat...	plugzok	plugzom	plugzok	plugzom	1	plugzom	FALSE	FALSE	plugzok	FALSE	TRUE	1012	563760	lakok/lakom	lakok_2_low_reversed	19	plugzik	-0.325422400434628	Te bizony sokat plugzol. Én is sokat...	1	NA	2	42	FALSE	TRUE	low	reversed	TRUE
hungarian-esp_esp_participant_SESSION_2022-11-19_11h48.31.729.csv	SWLTXH	nő	2001	15	6	esp trial	107	Te bizony sokat klétszel. Én is sokat...	klétszek	klétszem	klétszek	klétszem	1	klétszem	FALSE	FALSE	klétszek	FALSE	TRUE	1867	571929	lakok/lakom	lakok_2_low_reversed	19	klétszik	-0.2876820724517809	Te bizony sokat klétszel. Én is sokat...	1	NA	2	40	FALSE	TRUE	low	reversed	TRUE
hungarian-esp_esp_participant_SESSION_2022-11-19_11h48.31.729.csv	SWLTXH	nő	2001	15	6	esp trial	109	Te bizony sokat spáraklasz. Én is sokat...	spáraklok	spáraklom	spáraklok	spáraklom	1	spáraklom	FALSE	FALSE	spáraklom	TRUE	FALSE	2852	580080	lakok/lakom	lakok_2_low_reversed	19	spáraklik	0.4595323293784402	Te bizony sokat spáraklasz. Én is sokat...	2	NA	2	22	FALSE	FALSE	low	reversed	TRUE
hungarian-esp_esp_participant_SESSION_2022-11-19_11h48.31.729.csv	SWLTXH	nő	2001	15	6	esp trial	111	Te bizony sokat rokszol. Én is sokat...	rokszom	rokszok	rokszok	rokszom	0	rokszom	FALSE	TRUE	rokszok	FALSE	TRUE	1222	588235	lakok/lakom	lakok_2_low_reversed	19	rokszik	-0.3483066942682157	Te bizony sokat rokszol. Én is sokat...	1	NA	2	43	FALSE	TRUE	low	reversed	TRUE
