dat_id	part_id	part_gender	part_yob	part_edu	list_number	trial_kind	trial_index	stimulus	choice1	choice2	response	response_string	esp_response	esp_match	rt	time_elapsed	variation	file_name	column	base	log_odds	variant1	variant2	nsyl	suffix	sample_number	word_rank	top_20	bottom_20	reg_rate	reg_dist	picked_left	picked_v1	esp_v1	picked_majority
hungarian-esp_esp_participant_SESSION_2022-11-30_13h31.31.706.csv	CJL7V6	Nő	2002	14	6	esp trial	11	János imád dabozni, ezért sokat dabzik. Ti ritkán...	dabzotok	daboztok	1	daboztok	daboztok	TRUE	7492	219845	cselekszenek/cselekednek	cselekszenek_2_low_reversed	7	dabzik / dabozik	-0.1941560144409575	dabzotok	daboztok	1	tek	2	38	FALSE	FALSE	low	reversed	FALSE	FALSE	FALSE	TRUE
hungarian-esp_esp_participant_SESSION_2022-11-30_13h31.31.706.csv	CJL7V6	Nő	2002	14	6	esp trial	13	János imád gyihegezni, ezért sokat gyihegzik. Ti ritkán...	gyihegeztek	gyihegzetek	0	gyihegeztek	gyihegzetek	FALSE	7745	231602	cselekszenek/cselekednek	cselekszenek_2_low_reversed	7	gyihegzik / gyihegezik	-0.325422400434628	gyihegzetek	gyihegeztek	2	tek	2	43	FALSE	TRUE	low	reversed	TRUE	FALSE	TRUE	TRUE
hungarian-esp_esp_participant_SESSION_2022-11-30_13h31.31.706.csv	CJL7V6	Nő	2002	14	6	esp trial	15	János imád privékedni, ezért sokat privékszik. Ők ritkán...	privékszenek	privékednek	1	privékednek	privékednek	TRUE	8730	244344	cselekszenek/cselekednek	cselekszenek_2_low_reversed	7	privékszik / privékedik	0.06899287148695142	privékszenek	privékednek	2	nek	2	28	FALSE	FALSE	low	reversed	FALSE	FALSE	FALSE	TRUE
hungarian-esp_esp_participant_SESSION_2022-11-30_13h31.31.706.csv	CJL7V6	Nő	2002	14	6	esp trial	17	János imád flüröközni, ezért sokat flüröklik. Ti ritkán...	flürököztök	flüröklötök	0	flürököztök	flürököztök	TRUE	8032	256384	cselekszenek/cselekednek	cselekszenek_2_low_reversed	7	flüröklik / flüröközik	0.1941560144409574	flüröklötök	flürököztök	2	tek	2	23	FALSE	FALSE	low	reversed	TRUE	FALSE	FALSE	TRUE
hungarian-esp_esp_participant_SESSION_2022-11-30_13h31.31.706.csv	CJL7V6	Nő	2002	14	6	esp trial	19	János imád frálasozni, ezért sokat frálaslik. Ők ritkán...	frálaslanak	frálasoznak	1	frálasoznak	frálasoznak	TRUE	12625	273017	cselekszenek/cselekednek	cselekszenek_2_low_reversed	7	frálaslik / frálasozik	0.4595323293784402	frálaslanak	frálasoznak	2	nek	2	12	TRUE	FALSE	low	reversed	FALSE	FALSE	FALSE	TRUE
hungarian-esp_esp_participant_SESSION_2022-11-30_13h31.31.706.csv	CJL7V6	Nő	2002	14	6	esp trial	21	János imád posozni, ezért sokat poslik. Ti ritkán...	posoztok	poslotok	0	posoztok	posoztok	TRUE	5891	282916	cselekszenek/cselekednek	cselekszenek_2_low_reversed	7	poslik / posozik	0.7419373447293773	poslotok	posoztok	1	tek	2	5	TRUE	FALSE	low	reversed	TRUE	FALSE	FALSE	TRUE
hungarian-esp_esp_participant_SESSION_2022-11-30_13h31.31.706.csv	CJL7V6	Nő	2002	14	6	esp trial	23	János imád lűközni, ezért sokat lűklik. Ők ritkán...	lűköznek	lűklenek	0	lűköznek	lűklenek	FALSE	6448	293373	cselekszenek/cselekednek	cselekszenek_2_low_reversed	7	lűklik / lűközik	-0.2876820724517809	lűklenek	lűköznek	1	nek	2	41	FALSE	TRUE	low	reversed	TRUE	FALSE	TRUE	TRUE
hungarian-esp_esp_participant_SESSION_2022-11-30_13h31.31.706.csv	CJL7V6	Nő	2002	14	6	esp trial	25	János imád mágamozni, ezért sokat mágamlik. Mi ritkán...	mágamlunk	mágamozunk	1	mágamozunk	mágamozunk	TRUE	8785	306165	cselekszenek/cselekednek	cselekszenek_2_low_reversed	7	mágamlik / mágamozik	0.5877866649021191	mágamlunk	mágamozunk	2	ünk	2	9	TRUE	FALSE	low	reversed	FALSE	FALSE	FALSE	TRUE
hungarian-esp_esp_participant_SESSION_2022-11-30_13h31.31.706.csv	CJL7V6	Nő	2002	14	6	esp trial	27	János imád püzözni, ezért sokat püzlik. Ti ritkán...	püzöztök	püzlötök	0	püzöztök	püzöztök	TRUE	5748	315922	cselekszenek/cselekednek	cselekszenek_2_low_reversed	7	püzlik / püzözik	-0.06899287148695143	püzlötök	püzöztök	1	tek	2	36	FALSE	FALSE	low	reversed	TRUE	FALSE	FALSE	TRUE
hungarian-esp_esp_participant_SESSION_2022-11-30_13h31.31.706.csv	CJL7V6	Nő	2002	14	6	esp trial	29	János imád brözözni, ezért sokat brözlik. Ti ritkán...	brözlötök	brözöztök	1	brözöztök	brözöztök	TRUE	6017	325947	cselekszenek/cselekednek	cselekszenek_2_low_reversed	7	brözlik / brözözik	0.06899287148695142	brözlötök	brözöztök	1	tek	2	27	FALSE	FALSE	low	reversed	FALSE	FALSE	FALSE	TRUE
hungarian-esp_esp_participant_SESSION_2022-11-30_13h31.31.706.csv	CJL7V6	Nő	2002	14	6	esp trial	31	János imád nyürözni, ezért sokat nyürzik. Ők ritkán...	nyüröznek	nyürzenek	0	nyüröznek	nyüröznek	TRUE	5661	335614	cselekszenek/cselekednek	cselekszenek_2_low_reversed	7	nyürzik / nyürözik	-0.06453852113757118	nyürzenek	nyüröznek	1	nek	2	34	FALSE	FALSE	low	reversed	TRUE	FALSE	FALSE	TRUE
hungarian-esp_esp_participant_SESSION_2022-11-30_13h31.31.706.csv	CJL7V6	Nő	2002	14	6	esp trial	33	János imád flemezni, ezért sokat flemlik. Mi ritkán...	flemezünk	flemlünk	1	flemlünk	flemlünk	TRUE	10341	349963	cselekszenek/cselekednek	cselekszenek_2_low_reversed	7	flemlik / flemezik	-0.5978370007556204	flemlünk	flemezünk	1	ünk	2	49	FALSE	TRUE	low	reversed	FALSE	TRUE	TRUE	FALSE
hungarian-esp_esp_participant_SESSION_2022-11-30_13h31.31.706.csv	CJL7V6	Nő	2002	14	6	esp trial	35	János imád spirágozni, ezért sokat spiráglik. Ti ritkán...	spiráglotok	spirágoztok	1	spirágoztok	spiráglotok	FALSE	9527	363497	cselekszenek/cselekednek	cselekszenek_2_low_reversed	7	spiráglik / spirágozik	-0.2876820724517809	spiráglotok	spirágoztok	2	tek	2	42	FALSE	TRUE	low	reversed	FALSE	FALSE	TRUE	TRUE
hungarian-esp_esp_participant_SESSION_2022-11-30_13h31.31.706.csv	CJL7V6	Nő	2002	14	6	esp trial	37	János imád prögözni, ezért sokat prögzik. Ti ritkán...	prögzötök	prögöztök	0	prögzötök	prögzötök	TRUE	7092	374596	cselekszenek/cselekednek	cselekszenek_2_low_reversed	7	prögzik / prögözik	-0.6418538861723948	prögzötök	prögöztök	1	tek	2	51	FALSE	TRUE	low	reversed	TRUE	TRUE	TRUE	FALSE
hungarian-esp_esp_participant_SESSION_2022-11-30_13h31.31.706.csv	CJL7V6	Nő	2002	14	6	esp trial	39	János imád spibegezni, ezért sokat spibeglik. Mi ritkán...	spibegezünk	spibeglünk	1	spibeglünk	spibegezünk	FALSE	6167	384771	cselekszenek/cselekednek	cselekszenek_2_low_reversed	7	spibeglik / spibegezik	0.5978370007556204	spibeglünk	spibegezünk	2	ünk	2	8	TRUE	FALSE	low	reversed	FALSE	TRUE	FALSE	FALSE
hungarian-esp_esp_participant_SESSION_2022-11-30_13h31.31.706.csv	CJL7V6	Nő	2002	14	6	esp trial	41	János imád gihejezni, ezért sokat gihejlik. Mi ritkán...	gihejlünk	gihejezünk	0	gihejlünk	gihejezünk	FALSE	5683	394462	cselekszenek/cselekednek	cselekszenek_2_low_reversed	7	gihejlik / gihejezik	0.49247648509779424	gihejlünk	gihejezünk	2	ünk	2	11	TRUE	FALSE	low	reversed	TRUE	TRUE	FALSE	FALSE
hungarian-esp_esp_participant_SESSION_2022-11-30_13h31.31.706.csv	CJL7V6	Nő	2002	14	6	esp trial	43	János imád csubozni, ezért sokat csubzik. Mi ritkán...	csubzunk	csubozunk	1	csubozunk	csubozunk	TRUE	6590	405061	cselekszenek/cselekednek	cselekszenek_2_low_reversed	7	csubzik / csubozik	0.7419373447293773	csubzunk	csubozunk	1	ünk	2	4	TRUE	FALSE	low	reversed	FALSE	FALSE	FALSE	TRUE
hungarian-esp_esp_participant_SESSION_2022-11-30_13h31.31.706.csv	CJL7V6	Nő	2002	14	6	esp trial	45	János imád pragányozni, ezért sokat pragánylik. Ti ritkán...	pragányoztok	pragánylotok	0	pragányoztok	pragányoztok	TRUE	6290	415360	cselekszenek/cselekednek	cselekszenek_2_low_reversed	7	pragánylik / pragányozik	0	pragánylotok	pragányoztok	2	tek	2	31	FALSE	FALSE	low	reversed	TRUE	FALSE	FALSE	TRUE
hungarian-esp_esp_participant_SESSION_2022-11-30_13h31.31.706.csv	CJL7V6	Nő	2002	14	6	esp trial	47	János imád mülőrözni, ezért sokat mülőrzik. Mi ritkán...	mülőrzünk	mülőrözünk	0	mülőrzünk	mülőrözünk	FALSE	8559	427926	cselekszenek/cselekednek	cselekszenek_2_low_reversed	7	mülőrzik / mülőrözik	0.28768207245178085	mülőrzünk	mülőrözünk	2	ünk	2	20	FALSE	FALSE	low	reversed	TRUE	TRUE	FALSE	FALSE
hungarian-esp_esp_participant_SESSION_2022-11-30_13h31.31.706.csv	CJL7V6	Nő	2002	14	6	esp trial	49	János imád trivakodni, ezért sokat trivakszik. Mi ritkán...	trivakodunk	trivakszunk	1	trivakszunk	trivakodunk	FALSE	5893	437826	cselekszenek/cselekednek	cselekszenek_2_low_reversed	7	trivakszik / trivakodik	0	trivakszunk	trivakodunk	2	ünk	2	32	FALSE	FALSE	low	reversed	FALSE	TRUE	FALSE	FALSE
hungarian-esp_esp_participant_SESSION_2022-11-30_13h31.31.706.csv	CJL7V6	Nő	2002	14	6	esp trial	51	János imád dirozni, ezért sokat dirlik. Ti ritkán...	diroztok	dirlotok	0	diroztok	diroztok	TRUE	6643	448475	cselekszenek/cselekednek	cselekszenek_2_low_reversed	7	dirlik / dirozik	0	dirlotok	diroztok	1	tek	2	30	FALSE	FALSE	low	reversed	TRUE	FALSE	FALSE	TRUE
hungarian-esp_esp_participant_SESSION_2022-11-30_13h31.31.706.csv	CJL7V6	Nő	2002	14	6	esp trial	53	János imád virozni, ezért sokat virzik. Ők ritkán...	virzanak	viroznak	1	viroznak	viroznak	TRUE	7309	459792	cselekszenek/cselekednek	cselekszenek_2_low_reversed	7	virzik / virozik	0	virzanak	viroznak	1	nek	2	33	FALSE	FALSE	low	reversed	FALSE	FALSE	FALSE	TRUE
hungarian-esp_esp_participant_SESSION_2022-11-30_13h31.31.706.csv	CJL7V6	Nő	2002	14	6	esp trial	55	János imád fröjözni, ezért sokat fröjzik. Ti ritkán...	fröjzötök	fröjöztök	1	fröjöztök	fröjzötök	FALSE	7142	470941	cselekszenek/cselekednek	cselekszenek_2_low_reversed	7	fröjzik / fröjözik	-0.8938178760220964	fröjzötök	fröjöztök	1	tek	2	53	FALSE	TRUE	low	reversed	FALSE	FALSE	TRUE	TRUE
hungarian-esp_esp_participant_SESSION_2022-11-30_13h31.31.706.csv	CJL7V6	Nő	2002	14	6	esp trial	57	János imád dilakozni, ezért sokat dilaklik. Ti ritkán...	dilakoztok	dilaklotok	0	dilakoztok	dilaklotok	FALSE	5750	480698	cselekszenek/cselekednek	cselekszenek_2_low_reversed	7	dilaklik / dilakozik	-0.4595323293784402	dilaklotok	dilakoztok	2	tek	2	47	FALSE	TRUE	low	reversed	TRUE	FALSE	TRUE	TRUE
hungarian-esp_esp_participant_SESSION_2022-11-30_13h31.31.706.csv	CJL7V6	Nő	2002	14	6	esp trial	59	János imád molodni, ezért sokat molszik. Ti ritkán...	molszotok	molodtok	1	molodtok	molodtok	TRUE	4651	489607	cselekszenek/cselekednek	cselekszenek_2_low_reversed	7	molszik / molodik	0.8938178760220965	molszotok	molodtok	1	tek	2	2	TRUE	FALSE	low	reversed	FALSE	FALSE	FALSE	TRUE
hungarian-esp_esp_participant_SESSION_2022-11-30_13h31.31.706.csv	CJL7V6	Nő	2002	14	6	esp trial	61	János imád kűdözni, ezért sokat kűdlik. Ők ritkán...	kűdlenek	kűdöznek	0	kűdlenek	kűdöznek	FALSE	4026	498515	cselekszenek/cselekednek	cselekszenek_2_low_reversed	7	kűdlik / kűdözik	0.7985076962177716	kűdlenek	kűdöznek	1	nek	2	3	TRUE	FALSE	low	reversed	TRUE	TRUE	FALSE	FALSE
hungarian-esp_esp_participant_SESSION_2022-11-30_13h31.31.706.csv	CJL7V6	Nő	2002	14	6	esp trial	63	János imád frakozni, ezért sokat fraklik. Mi ritkán...	fraklunk	frakozunk	1	frakozunk	frakozunk	TRUE	4300	507423	cselekszenek/cselekednek	cselekszenek_2_low_reversed	7	fraklik / frakozik	0.20763936477824457	fraklunk	frakozunk	1	ünk	2	21	FALSE	FALSE	low	reversed	FALSE	FALSE	FALSE	TRUE
hungarian-esp_esp_participant_SESSION_2022-11-30_13h31.31.706.csv	CJL7V6	Nő	2002	14	6	esp trial	65	János imád trikozni, ezért sokat triklik. Ti ritkán...	trikoztok	triklotok	0	trikoztok	trikoztok	TRUE	11993	523422	cselekszenek/cselekednek	cselekszenek_2_low_reversed	7	triklik / trikozik	0.5877866649021191	triklotok	trikoztok	1	tek	2	10	TRUE	FALSE	low	reversed	TRUE	FALSE	FALSE	TRUE
hungarian-esp_esp_participant_SESSION_2022-11-30_13h31.31.706.csv	CJL7V6	Nő	2002	14	6	esp trial	67	János imád branyozni, ezért sokat branylik. Ők ritkán...	branyoznak	branylanak	0	branyoznak	branyoznak	TRUE	5652	533081	cselekszenek/cselekednek	cselekszenek_2_low_reversed	7	branylik / branyozik	0.32542240043462795	branylanak	branyoznak	1	nek	2	17	FALSE	FALSE	low	reversed	TRUE	FALSE	FALSE	TRUE
hungarian-esp_esp_participant_SESSION_2022-11-30_13h31.31.706.csv	CJL7V6	Nő	2002	14	6	esp trial	69	János imád nyivágozni, ezért sokat nyivágzik. Mi ritkán...	nyivágzunk	nyivágozunk	0	nyivágzunk	nyivágozunk	FALSE	5300	542387	cselekszenek/cselekednek	cselekszenek_2_low_reversed	7	nyivágzik / nyivágozik	0.965080896043587	nyivágzunk	nyivágozunk	2	ünk	2	1	TRUE	FALSE	low	reversed	TRUE	TRUE	FALSE	FALSE
hungarian-esp_esp_participant_SESSION_2022-11-30_13h31.31.706.csv	CJL7V6	Nő	2002	14	6	esp trial	71	János imád spiharozni, ezért sokat spiharzik. Ti ritkán...	spiharzotok	spiharoztok	1	spiharoztok	spiharzotok	FALSE	5119	551512	cselekszenek/cselekednek	cselekszenek_2_low_reversed	7	spiharzik / spiharozik	-0.5978370007556204	spiharzotok	spiharoztok	2	tek	2	50	FALSE	TRUE	low	reversed	FALSE	FALSE	TRUE	TRUE
hungarian-esp_esp_participant_SESSION_2022-11-30_13h31.31.706.csv	CJL7V6	Nő	2002	14	6	esp trial	73	János imád brülösözni, ezért sokat brülöslik. Mi ritkán...	brülösözünk	brülöslünk	1	brülöslünk	brülösözünk	FALSE	5777	561296	cselekszenek/cselekednek	cselekszenek_2_low_reversed	7	brülöslik / brülösözik	-0.06899287148695143	brülöslünk	brülösözünk	2	ünk	2	35	FALSE	FALSE	low	reversed	FALSE	TRUE	FALSE	FALSE
hungarian-esp_esp_participant_SESSION_2022-11-30_13h31.31.706.csv	CJL7V6	Nő	2002	14	6	esp trial	75	János imád prélemezni, ezért sokat prélemlik. Ők ritkán...	prélemeznek	prélemlenek	0	prélemeznek	prélemeznek	TRUE	6748	572051	cselekszenek/cselekednek	cselekszenek_2_low_reversed	7	prélemlik / prélemezik	0.20763936477824457	prélemlenek	prélemeznek	2	nek	2	22	FALSE	FALSE	low	reversed	TRUE	FALSE	FALSE	TRUE
hungarian-esp_esp_participant_SESSION_2022-11-30_13h31.31.706.csv	CJL7V6	Nő	2002	14	6	esp trial	77	János imád klehényezni, ezért sokat klehénylik. Ti ritkán...	klehényeztek	klehényletek	0	klehényeztek	klehényeztek	TRUE	6071	582128	cselekszenek/cselekednek	cselekszenek_2_low_reversed	7	klehénylik / klehényezik	0.32542240043462795	klehényletek	klehényeztek	2	tek	2	19	FALSE	FALSE	low	reversed	TRUE	FALSE	FALSE	TRUE
hungarian-esp_esp_participant_SESSION_2022-11-30_13h31.31.706.csv	CJL7V6	Nő	2002	14	6	esp trial	79	János imád brivakozni, ezért sokat brivaklik. Ti ritkán...	brivakoztok	brivaklotok	0	brivakoztok	brivakoztok	TRUE	7009	593144	cselekszenek/cselekednek	cselekszenek_2_low_reversed	7	brivaklik / brivakozik	-0.2076393647782445	brivaklotok	brivakoztok	2	tek	2	39	FALSE	FALSE	low	reversed	TRUE	FALSE	FALSE	TRUE
hungarian-esp_esp_participant_SESSION_2022-11-30_13h31.31.706.csv	CJL7V6	Nő	2002	14	6	esp trial	81	János imád bratározni, ezért sokat bratárzik. Ők ritkán...	bratároznak	bratárzanak	0	bratároznak	bratárzanak	FALSE	6575	603727	cselekszenek/cselekednek	cselekszenek_2_low_reversed	7	bratárzik / bratározik	-1.2992829841302609	bratárzanak	bratároznak	2	nek	2	54	FALSE	TRUE	low	reversed	TRUE	FALSE	TRUE	TRUE
hungarian-esp_esp_participant_SESSION_2022-11-30_13h31.31.706.csv	CJL7V6	Nő	2002	14	6	esp trial	83	János imád sprozozni, ezért sokat sprozlik. Ők ritkán...	sprozoznak	sprozlanak	0	sprozoznak	sprozoznak	TRUE	9483	617218	cselekszenek/cselekednek	cselekszenek_2_low_reversed	7	sprozlik / sprozozik	0.14310084364067324	sprozlanak	sprozoznak	1	nek	2	25	FALSE	FALSE	low	reversed	TRUE	FALSE	FALSE	TRUE
hungarian-esp_esp_participant_SESSION_2022-11-30_13h31.31.706.csv	CJL7V6	Nő	2002	14	6	esp trial	85	János imád sprudozni, ezért sokat sprudlik. Mi ritkán...	sprudlunk	sprudozunk	1	sprudozunk	sprudlunk	FALSE	8287	629512	cselekszenek/cselekednek	cselekszenek_2_low_reversed	7	sprudlik / sprudozik	-0.2076393647782445	sprudlunk	sprudozunk	1	ünk	2	40	FALSE	TRUE	low	reversed	FALSE	FALSE	TRUE	TRUE
hungarian-esp_esp_participant_SESSION_2022-11-30_13h31.31.706.csv	CJL7V6	Nő	2002	14	6	esp trial	87	János imád drilarozni, ezért sokat drilarzik. Mi ritkán...	drilarozunk	drilarzunk	0	drilarozunk	drilarzunk	FALSE	4040	638421	cselekszenek/cselekednek	cselekszenek_2_low_reversed	7	drilarzik / drilarozik	-0.4353180712578455	drilarzunk	drilarozunk	2	ünk	2	46	FALSE	TRUE	low	reversed	TRUE	FALSE	TRUE	TRUE
hungarian-esp_esp_participant_SESSION_2022-11-30_13h31.31.706.csv	CJL7V6	Nő	2002	14	6	esp trial	89	János imád flöközni, ezért sokat flöklik. Ti ritkán...	flököztök	flöklötök	1	flöklötök	flököztök	FALSE	4792	647329	cselekszenek/cselekednek	cselekszenek_2_low_reversed	7	flöklik / flöközik	-0.1431008436406733	flöklötök	flököztök	1	tek	2	37	FALSE	FALSE	low	reversed	FALSE	TRUE	FALSE	FALSE
hungarian-esp_esp_participant_SESSION_2022-11-30_13h31.31.706.csv	CJL7V6	Nő	2002	14	6	esp trial	91	János imád trugozni, ezért sokat trugzik. Ők ritkán...	trugoznak	trugzanak	0	trugoznak	trugzanak	FALSE	3357	656235	cselekszenek/cselekednek	cselekszenek_2_low_reversed	7	trugzik / trugozik	-0.4595323293784402	trugzanak	trugoznak	1	nek	2	48	FALSE	TRUE	low	reversed	TRUE	FALSE	TRUE	TRUE
hungarian-esp_esp_participant_SESSION_2022-11-30_13h31.31.706.csv	CJL7V6	Nő	2002	14	6	esp trial	93	János imád trugokozni, ezért sokat trugoklik. Ők ritkán...	trugoklanak	trugokoznak	1	trugokoznak	trugokoznak	TRUE	5339	665581	cselekszenek/cselekednek	cselekszenek_2_low_reversed	7	trugoklik / trugokozik	0.14310084364067324	trugoklanak	trugokoznak	2	nek	2	26	FALSE	FALSE	low	reversed	FALSE	FALSE	FALSE	TRUE
hungarian-esp_esp_participant_SESSION_2022-11-30_13h31.31.706.csv	CJL7V6	Nő	2002	14	6	esp trial	95	János imád flűgözni, ezért sokat flűgzik. Mi ritkán...	flűgzünk	flűgözünk	1	flűgözünk	flűgözünk	TRUE	3061	674487	cselekszenek/cselekednek	cselekszenek_2_low_reversed	7	flűgzik / flűgözik	0.32542240043462795	flűgzünk	flűgözünk	1	ünk	2	18	FALSE	FALSE	low	reversed	FALSE	FALSE	FALSE	TRUE
hungarian-esp_esp_participant_SESSION_2022-11-30_13h31.31.706.csv	CJL7V6	Nő	2002	14	6	esp trial	97	János imád drűrözni, ezért sokat drűrzik. Ők ritkán...	drűrzenek	drűröznek	1	drűröznek	drűrzenek	FALSE	3845	683396	cselekszenek/cselekednek	cselekszenek_2_low_reversed	7	drűrzik / drűrözik	-0.3483066942682157	drűrzenek	drűröznek	1	nek	2	44	FALSE	TRUE	low	reversed	FALSE	FALSE	TRUE	TRUE
hungarian-esp_esp_participant_SESSION_2022-11-30_13h31.31.706.csv	CJL7V6	Nő	2002	14	6	esp trial	99	János imád dujozni, ezért sokat dujzik. Ők ritkán...	dujoznak	dujzanak	1	dujzanak	dujoznak	FALSE	4202	692305	cselekszenek/cselekednek	cselekszenek_2_low_reversed	7	dujzik / dujozik	0.3483066942682158	dujzanak	dujoznak	1	nek	2	16	FALSE	FALSE	low	reversed	FALSE	TRUE	FALSE	FALSE
hungarian-esp_esp_participant_SESSION_2022-11-30_13h31.31.706.csv	CJL7V6	Nő	2002	14	6	esp trial	101	János imád csibagozni, ezért sokat csibagzik. Ti ritkán...	csibagoztok	csibagzotok	0	csibagoztok	csibagzotok	FALSE	6367	702680	cselekszenek/cselekednek	cselekszenek_2_low_reversed	7	csibagzik / csibagozik	-0.7985076962177716	csibagzotok	csibagoztok	2	tek	2	52	FALSE	TRUE	low	reversed	TRUE	FALSE	TRUE	TRUE
hungarian-esp_esp_participant_SESSION_2022-11-30_13h31.31.706.csv	CJL7V6	Nő	2002	14	6	esp trial	103	János imád föködni, ezért sokat fökszik. Ők ritkán...	fökszenek	föködnek	1	föködnek	föködnek	TRUE	8550	715237	cselekszenek/cselekednek	cselekszenek_2_low_reversed	7	fökszik / föködik	0.6418538861723947	fökszenek	föködnek	1	nek	2	6	TRUE	FALSE	low	reversed	FALSE	FALSE	FALSE	TRUE
hungarian-esp_esp_participant_SESSION_2022-11-30_13h31.31.706.csv	CJL7V6	Nő	2002	14	6	esp trial	105	János imád köszözni, ezért sokat köszlik. Ti ritkán...	köszöztök	köszlötök	0	köszöztök	köszlötök	FALSE	5344	724588	cselekszenek/cselekednek	cselekszenek_2_low_reversed	7	köszlik / köszözik	-0.3483066942682157	köszlötök	köszöztök	1	tek	2	45	FALSE	TRUE	low	reversed	TRUE	FALSE	TRUE	TRUE
hungarian-esp_esp_participant_SESSION_2022-11-30_13h31.31.706.csv	CJL7V6	Nő	2002	14	6	esp trial	107	János imád lájozni, ezért sokat lájzik. Ti ritkán...	lájzotok	lájoztok	0	lájzotok	lájoztok	FALSE	5325	733920	cselekszenek/cselekednek	cselekszenek_2_low_reversed	7	lájzik / lájozik	0.4353180712578455	lájzotok	lájoztok	1	tek	2	15	TRUE	FALSE	low	reversed	TRUE	TRUE	FALSE	FALSE
hungarian-esp_esp_participant_SESSION_2022-11-30_13h31.31.706.csv	CJL7V6	Nő	2002	14	6	esp trial	109	János imád sprűrözni, ezért sokat sprűrlik. Ők ritkán...	sprűrlenek	sprűröznek	1	sprűröznek	sprűröznek	TRUE	2984	742829	cselekszenek/cselekednek	cselekszenek_2_low_reversed	7	sprűrlik / sprűrözik	0.1941560144409574	sprűrlenek	sprűröznek	1	nek	2	24	FALSE	FALSE	low	reversed	FALSE	FALSE	FALSE	TRUE
hungarian-esp_esp_participant_SESSION_2022-11-30_13h31.31.706.csv	CJL7V6	Nő	2002	14	6	esp trial	111	János imád frálapodni, ezért sokat frálapszik. Ti ritkán...	frálapszotok	frálapodtok	1	frálapodtok	frálapodtok	TRUE	6700	753536	cselekszenek/cselekednek	cselekszenek_2_low_reversed	7	frálapszik / frálapodik	0.4353180712578455	frálapszotok	frálapodtok	2	tek	2	14	TRUE	FALSE	low	reversed	FALSE	FALSE	FALSE	TRUE
hungarian-esp_esp_participant_SESSION_2022-11-30_13h31.31.706.csv	CJL7V6	Nő	2002	14	6	esp trial	113	János imád pilégedni, ezért sokat pilégszik. Ők ritkán...	pilégednek	pilégszenek	1	pilégszenek	pilégednek	FALSE	7742	765284	cselekszenek/cselekednek	cselekszenek_2_low_reversed	7	pilégszik / pilégedik	0.6418538861723947	pilégszenek	pilégednek	2	nek	2	7	TRUE	FALSE	low	reversed	FALSE	TRUE	FALSE	FALSE
hungarian-esp_esp_participant_SESSION_2022-11-30_13h31.31.706.csv	CJL7V6	Nő	2002	14	6	esp trial	115	János imád dárakodni, ezért sokat dárakszik. Mi ritkán...	dárakodunk	dárakszunk	0	dárakodunk	dárakodunk	TRUE	4919	774209	cselekszenek/cselekednek	cselekszenek_2_low_reversed	7	dárakszik / dárakodik	0.06453852113757116	dárakszunk	dárakodunk	2	ünk	2	29	FALSE	FALSE	low	reversed	TRUE	FALSE	FALSE	TRUE
hungarian-esp_esp_participant_SESSION_2022-11-30_13h31.31.706.csv	CJL7V6	Nő	2002	14	6	esp trial	117	János imád spügözni, ezért sokat spügzik. Mi ritkán...	spügözünk	spügzünk	0	spügözünk	spügözünk	TRUE	8700	786917	cselekszenek/cselekednek	cselekszenek_2_low_reversed	7	spügzik / spügözik	0.4595323293784402	spügzünk	spügözünk	1	ünk	2	13	TRUE	FALSE	low	reversed	TRUE	FALSE	FALSE	TRUE
hungarian-esp_esp_participant_SESSION_2022-11-30_13h31.31.706.csv	CJL7V6	Nő	2002	14	8	posttest trial	120	János imád spibamozni, ezért sokat spibamlik. Ők ritkán...	spibamlanak	spibamoznak	1	spibamoznak	NA	NA	15108	818681	cselekszenek/cselekednek	cselekszenek_3_high_reversed	9	spibamlik / spibamozik	0.5877866649021191	spibamlanak	spibamoznak	2	nek	3	9	TRUE	FALSE	low	reversed	FALSE	FALSE	NA	NA
hungarian-esp_esp_participant_SESSION_2022-11-30_13h31.31.706.csv	CJL7V6	Nő	2002	14	8	posttest trial	121	János imád livényezni, ezért sokat livénylik. Mi ritkán...	livényezünk	livénylünk	0	livényezünk	NA	NA	7175	826358	cselekszenek/cselekednek	cselekszenek_3_high_reversed	9	livénylik / livényezik	0.4595323293784402	livénylünk	livényezünk	2	ünk	3	12	TRUE	FALSE	low	reversed	TRUE	FALSE	NA	NA
hungarian-esp_esp_participant_SESSION_2022-11-30_13h31.31.706.csv	CJL7V6	Nő	2002	14	8	posttest trial	122	János imád pörözni, ezért sokat pörzik. Ti ritkán...	pörzötök	pöröztök	1	pöröztök	NA	NA	5338	832199	cselekszenek/cselekednek	cselekszenek_3_high_reversed	9	pörzik / pörözik	-0.3483066942682157	pörzötök	pöröztök	1	tek	3	45	FALSE	TRUE	low	reversed	FALSE	FALSE	NA	NA
hungarian-esp_esp_participant_SESSION_2022-11-30_13h31.31.706.csv	CJL7V6	Nő	2002	14	8	posttest trial	123	János imád drojozni, ezért sokat drojzik. Mi ritkán...	drojozunk	drojzunk	1	drojzunk	NA	NA	9113	841815	cselekszenek/cselekednek	cselekszenek_3_high_reversed	9	drojzik / drojozik	0.32542240043462795	drojzunk	drojozunk	1	ünk	3	17	FALSE	FALSE	low	reversed	FALSE	TRUE	NA	NA
hungarian-esp_esp_participant_SESSION_2022-11-30_13h31.31.706.csv	CJL7V6	Nő	2002	14	8	posttest trial	124	János imád flivegezni, ezért sokat flivegzik. Ők ritkán...	flivegeznek	flivegzenek	0	flivegeznek	NA	NA	5938	848256	cselekszenek/cselekednek	cselekszenek_3_high_reversed	9	flivegzik / flivegezik	-0.3483066942682157	flivegzenek	flivegeznek	2	nek	3	44	FALSE	TRUE	low	reversed	TRUE	FALSE	NA	NA
hungarian-esp_esp_participant_SESSION_2022-11-30_13h31.31.706.csv	CJL7V6	Nő	2002	14	8	posttest trial	125	János imád kluzozni, ezért sokat kluzlik. Ti ritkán...	kluzoztok	kluzlotok	0	kluzoztok	NA	NA	6541	855298	cselekszenek/cselekednek	cselekszenek_3_high_reversed	9	kluzlik / kluzozik	-0.325422400434628	kluzlotok	kluzoztok	1	tek	3	43	FALSE	TRUE	low	reversed	TRUE	FALSE	NA	NA
hungarian-esp_esp_participant_SESSION_2022-11-30_13h31.31.706.csv	CJL7V6	Nő	2002	14	8	posttest trial	126	János imád tibarozni, ezért sokat tibarzik. Ők ritkán...	tibarzanak	tibaroznak	1	tibaroznak	NA	NA	5113	860914	cselekszenek/cselekednek	cselekszenek_3_high_reversed	9	tibarzik / tibarozik	0	tibarzanak	tibaroznak	2	nek	3	31	FALSE	FALSE	low	reversed	FALSE	FALSE	NA	NA
hungarian-esp_esp_participant_SESSION_2022-11-30_13h31.31.706.csv	CJL7V6	Nő	2002	14	8	posttest trial	127	János imád pehégedni, ezért sokat pehégszik. Ti ritkán...	pehégszetek	pehégedtek	0	pehégszetek	NA	NA	9112	870530	cselekszenek/cselekednek	cselekszenek_3_high_reversed	9	pehégszik / pehégedik	0.4353180712578455	pehégszetek	pehégedtek	2	tek	3	15	TRUE	FALSE	low	reversed	TRUE	TRUE	NA	NA
hungarian-esp_esp_participant_SESSION_2022-11-30_13h31.31.706.csv	CJL7V6	Nő	2002	14	8	posttest trial	128	János imád sztritozni, ezért sokat sztritlik. Ők ritkán...	sztritlanak	sztritoznak	1	sztritoznak	NA	NA	7315	878347	cselekszenek/cselekednek	cselekszenek_3_high_reversed	9	sztritlik / sztritozik	0.14310084364067324	sztritlanak	sztritoznak	1	nek	3	25	FALSE	FALSE	low	reversed	FALSE	FALSE	NA	NA
hungarian-esp_esp_participant_SESSION_2022-11-30_13h31.31.706.csv	CJL7V6	Nő	2002	14	8	posttest trial	129	János imád spöközni, ezért sokat spöklik. Mi ritkán...	spöközünk	spöklünk	0	spöközünk	NA	NA	6813	885664	cselekszenek/cselekednek	cselekszenek_3_high_reversed	9	spöklik / spöközik	0.5978370007556204	spöklünk	spöközünk	1	ünk	3	8	TRUE	FALSE	low	reversed	TRUE	FALSE	NA	NA
hungarian-esp_esp_participant_SESSION_2022-11-30_13h31.31.706.csv	CJL7V6	Nő	2002	14	8	posttest trial	130	János imád drivegezni, ezért sokat drivegzik. Ti ritkán...	drivegzetek	drivegeztek	1	drivegeztek	NA	NA	8138	894303	cselekszenek/cselekednek	cselekszenek_3_high_reversed	9	drivegzik / drivegezik	-0.4353180712578455	drivegzetek	drivegeztek	2	tek	3	46	FALSE	TRUE	low	reversed	FALSE	FALSE	NA	NA
hungarian-esp_esp_participant_SESSION_2022-11-30_13h31.31.706.csv	CJL7V6	Nő	2002	14	8	posttest trial	131	János imád fröjözni, ezért sokat fröjlik. Mi ritkán...	fröjözünk	fröjlünk	1	fröjlünk	NA	NA	11632	906437	cselekszenek/cselekednek	cselekszenek_3_high_reversed	9	fröjlik / fröjözik	0.32542240043462795	fröjlünk	fröjözünk	1	ünk	3	18	FALSE	FALSE	low	reversed	FALSE	TRUE	NA	NA
hungarian-esp_esp_participant_SESSION_2022-11-30_13h31.31.706.csv	CJL7V6	Nő	2002	14	8	posttest trial	132	János imád trírozni, ezért sokat trírzik. Mi ritkán...	trírozunk	trírzunk	0	trírozunk	NA	NA	8250	915189	cselekszenek/cselekednek	cselekszenek_3_high_reversed	9	trírzik / trírozik	-0.06453852113757118	trírzunk	trírozunk	1	ünk	3	34	FALSE	FALSE	low	reversed	TRUE	FALSE	NA	NA
hungarian-esp_esp_participant_SESSION_2022-11-30_13h31.31.706.csv	CJL7V6	Nő	2002	14	8	posttest trial	133	János imád prazozni, ezért sokat prazlik. Mi ritkán...	prazozunk	prazlunk	0	prazozunk	NA	NA	10069	925762	cselekszenek/cselekednek	cselekszenek_3_high_reversed	9	prazlik / prazozik	-0.1941560144409575	prazlunk	prazozunk	1	ünk	3	38	FALSE	FALSE	low	reversed	TRUE	FALSE	NA	NA
hungarian-esp_esp_participant_SESSION_2022-11-30_13h31.31.706.csv	CJL7V6	Nő	2002	14	8	posttest trial	134	János imád galározni, ezért sokat galárzik. Ők ritkán...	galároznak	galárzanak	0	galároznak	NA	NA	5713	931977	cselekszenek/cselekednek	cselekszenek_3_high_reversed	9	galárzik / galározik	-0.49247648509779407	galárzanak	galároznak	2	nek	3	48	FALSE	TRUE	low	reversed	TRUE	FALSE	NA	NA
hungarian-esp_esp_participant_SESSION_2022-11-30_13h31.31.706.csv	CJL7V6	Nő	2002	14	8	posttest trial	135	János imád brivágozni, ezért sokat briváglik. Ők ritkán...	brivágoznak	briváglanak	0	brivágoznak	NA	NA	5873	938352	cselekszenek/cselekednek	cselekszenek_3_high_reversed	9	briváglik / brivágozik	-0.2876820724517809	briváglanak	brivágoznak	2	nek	3	40	FALSE	TRUE	low	reversed	TRUE	FALSE	NA	NA
hungarian-esp_esp_participant_SESSION_2022-11-30_13h31.31.706.csv	CJL7V6	Nő	2002	14	8	posttest trial	136	János imád míjozni, ezért sokat míjzik. Mi ritkán...	míjzunk	míjozunk	1	míjozunk	NA	NA	6262	945118	cselekszenek/cselekednek	cselekszenek_3_high_reversed	9	míjzik / míjozik	0.1941560144409574	míjzunk	míjozunk	1	ünk	3	23	FALSE	FALSE	low	reversed	FALSE	FALSE	NA	NA
hungarian-esp_esp_participant_SESSION_2022-11-30_13h31.31.706.csv	CJL7V6	Nő	2002	14	8	posttest trial	137	János imád sprimozni, ezért sokat sprimlik. Mi ritkán...	sprimozunk	sprimlunk	0	sprimozunk	NA	NA	6940	952560	cselekszenek/cselekednek	cselekszenek_3_high_reversed	9	sprimlik / sprimozik	0.20763936477824457	sprimlunk	sprimozunk	1	ünk	3	22	FALSE	FALSE	low	reversed	TRUE	FALSE	NA	NA
hungarian-esp_esp_participant_SESSION_2022-11-30_13h31.31.706.csv	CJL7V6	Nő	2002	14	8	posttest trial	138	János imád gyivepedni, ezért sokat gyivepszik. Ők ritkán...	gyivepednek	gyivepszenek	0	gyivepednek	NA	NA	5771	958834	cselekszenek/cselekednek	cselekszenek_3_high_reversed	9	gyivepszik / gyivepedik	0.20763936477824457	gyivepszenek	gyivepednek	2	nek	3	21	FALSE	FALSE	low	reversed	TRUE	FALSE	NA	NA
hungarian-esp_esp_participant_SESSION_2022-11-30_13h31.31.706.csv	CJL7V6	Nő	2002	14	8	posttest trial	139	János imád frivamozni, ezért sokat frivamlik. Mi ritkán...	frivamozunk	frivamlunk	1	frivamlunk	NA	NA	6681	966019	cselekszenek/cselekednek	cselekszenek_3_high_reversed	9	frivamlik / frivamozik	0.7419373447293773	frivamlunk	frivamozunk	2	ünk	3	4	TRUE	FALSE	low	reversed	FALSE	TRUE	NA	NA
hungarian-esp_esp_participant_SESSION_2022-11-30_13h31.31.706.csv	CJL7V6	Nő	2002	14	8	posttest trial	140	János imád brilegezni, ezért sokat brilegzik. Mi ritkán...	brilegzünk	brilegezünk	0	brilegzünk	NA	NA	8945	975467	cselekszenek/cselekednek	cselekszenek_3_high_reversed	9	brilegzik / brilegezik	0.28768207245178085	brilegzünk	brilegezünk	2	ünk	3	19	FALSE	FALSE	low	reversed	TRUE	TRUE	NA	NA
hungarian-esp_esp_participant_SESSION_2022-11-30_13h31.31.706.csv	CJL7V6	Nő	2002	14	8	posttest trial	141	János imád frésezni, ezért sokat fréslik. Mi ritkán...	frésezünk	fréslünk	1	fréslünk	NA	NA	5455	981425	cselekszenek/cselekednek	cselekszenek_3_high_reversed	9	fréslik / frésezik	0.5978370007556204	fréslünk	frésezünk	1	ünk	3	7	TRUE	FALSE	low	reversed	FALSE	TRUE	NA	NA
hungarian-esp_esp_participant_SESSION_2022-11-30_13h31.31.706.csv	CJL7V6	Nő	2002	14	8	posttest trial	142	János imád brálamozni, ezért sokat brálamlik. Ők ritkán...	brálamoznak	brálamlanak	1	brálamlanak	NA	NA	4307	986235	cselekszenek/cselekednek	cselekszenek_3_high_reversed	9	brálamlik / brálamozik	0.4353180712578455	brálamlanak	brálamoznak	2	nek	3	13	TRUE	FALSE	low	reversed	FALSE	TRUE	NA	NA
hungarian-esp_esp_participant_SESSION_2022-11-30_13h31.31.706.csv	CJL7V6	Nő	2002	14	8	posttest trial	143	János imád brározni, ezért sokat brárlik. Ők ritkán...	brároznak	brárlanak	0	brároznak	NA	NA	8435	995173	cselekszenek/cselekednek	cselekszenek_3_high_reversed	9	brárlik / brározik	0.14310084364067324	brárlanak	brároznak	1	nek	3	24	FALSE	FALSE	low	reversed	TRUE	FALSE	NA	NA
hungarian-esp_esp_participant_SESSION_2022-11-30_13h31.31.706.csv	CJL7V6	Nő	2002	14	8	posttest trial	144	János imád lírozni, ezért sokat lírlik. Ők ritkán...	líroznak	lírlanak	0	líroznak	NA	NA	7831	1003507	cselekszenek/cselekednek	cselekszenek_3_high_reversed	9	lírlik / lírozik	-0.06453852113757118	lírlanak	líroznak	1	nek	3	33	FALSE	FALSE	low	reversed	TRUE	FALSE	NA	NA
hungarian-esp_esp_participant_SESSION_2022-11-30_13h31.31.706.csv	CJL7V6	Nő	2002	14	8	posttest trial	145	János imád prilepedni, ezért sokat prilepszik. Mi ritkán...	prilepedünk	prilepszünk	1	prilepszünk	NA	NA	6430	1010440	cselekszenek/cselekednek	cselekszenek_3_high_reversed	9	prilepszik / prilepedik	0.8938178760220965	prilepszünk	prilepedünk	2	ünk	3	2	TRUE	FALSE	low	reversed	FALSE	TRUE	NA	NA
hungarian-esp_esp_participant_SESSION_2022-11-30_13h31.31.706.csv	CJL7V6	Nő	2002	14	8	posttest trial	146	János imád sztrajozni, ezért sokat sztrajlik. Ők ritkán...	sztrajlanak	sztrajoznak	1	sztrajoznak	NA	NA	3721	1014664	cselekszenek/cselekednek	cselekszenek_3_high_reversed	9	sztrajlik / sztrajozik	0.49247648509779424	sztrajlanak	sztrajoznak	1	nek	3	11	TRUE	FALSE	low	reversed	FALSE	FALSE	NA	NA
hungarian-esp_esp_participant_SESSION_2022-11-30_13h31.31.706.csv	CJL7V6	Nő	2002	14	8	posttest trial	147	János imád gibemezni, ezért sokat gibemlik. Mi ritkán...	gibemlünk	gibemezünk	1	gibemezünk	NA	NA	5980	1021147	cselekszenek/cselekednek	cselekszenek_3_high_reversed	9	gibemlik / gibemezik	0.4353180712578455	gibemlünk	gibemezünk	2	ünk	3	14	TRUE	FALSE	low	reversed	FALSE	FALSE	NA	NA
hungarian-esp_esp_participant_SESSION_2022-11-30_13h31.31.706.csv	CJL7V6	Nő	2002	14	8	posttest trial	148	János imád mísozni, ezért sokat míslik. Mi ritkán...	míslunk	mísozunk	1	mísozunk	NA	NA	4338	1025989	cselekszenek/cselekednek	cselekszenek_3_high_reversed	9	míslik / mísozik	0.3483066942682158	míslunk	mísozunk	1	ünk	3	16	FALSE	FALSE	low	reversed	FALSE	FALSE	NA	NA
hungarian-esp_esp_participant_SESSION_2022-11-30_13h31.31.706.csv	CJL7V6	Nő	2002	14	8	posttest trial	149	János imád tágarozni, ezért sokat tágarzik. Mi ritkán...	tágarozunk	tágarzunk	1	tágarzunk	NA	NA	4039	1030530	cselekszenek/cselekednek	cselekszenek_3_high_reversed	9	tágarzik / tágarozik	-0.06899287148695143	tágarzunk	tágarozunk	2	ünk	3	36	FALSE	FALSE	low	reversed	FALSE	TRUE	NA	NA
hungarian-esp_esp_participant_SESSION_2022-11-30_13h31.31.706.csv	CJL7V6	Nő	2002	14	8	posttest trial	150	János imád trűnyözni, ezért sokat trűnylik. Ők ritkán...	trűnyöznek	trűnylenek	0	trűnyöznek	NA	NA	4391	1035423	cselekszenek/cselekednek	cselekszenek_3_high_reversed	9	trűnylik / trűnyözik	0	trűnylenek	trűnyöznek	1	nek	3	32	FALSE	FALSE	low	reversed	TRUE	FALSE	NA	NA
hungarian-esp_esp_participant_SESSION_2022-11-30_13h31.31.706.csv	CJL7V6	Nő	2002	14	8	posttest trial	151	János imád filányozni, ezért sokat filánylik. Mi ritkán...	filányozunk	filánylunk	1	filánylunk	NA	NA	3828	1039755	cselekszenek/cselekednek	cselekszenek_3_high_reversed	9	filánylik / filányozik	0	filánylunk	filányozunk	2	ünk	3	30	FALSE	FALSE	low	reversed	FALSE	TRUE	NA	NA
hungarian-esp_esp_participant_SESSION_2022-11-30_13h31.31.706.csv	CJL7V6	Nő	2002	14	8	posttest trial	152	János imád flubokozni, ezért sokat fluboklik. Ti ritkán...	fluboklotok	flubokoztok	0	fluboklotok	NA	NA	9448	1049705	cselekszenek/cselekednek	cselekszenek_3_high_reversed	9	fluboklik / flubokozik	-0.5978370007556204	fluboklotok	flubokoztok	2	tek	3	49	FALSE	TRUE	low	reversed	TRUE	TRUE	NA	NA
hungarian-esp_esp_participant_SESSION_2022-11-30_13h31.31.706.csv	CJL7V6	Nő	2002	14	8	posttest trial	153	János imád tribejezni, ezért sokat tribejlik. Ti ritkán...	tribejeztek	tribejletek	0	tribejeztek	NA	NA	4588	1054796	cselekszenek/cselekednek	cselekszenek_3_high_reversed	9	tribejlik / tribejezik	-0.5978370007556204	tribejletek	tribejeztek	2	tek	3	50	FALSE	TRUE	low	reversed	TRUE	FALSE	NA	NA
hungarian-esp_esp_participant_SESSION_2022-11-30_13h31.31.706.csv	CJL7V6	Nő	2002	14	8	posttest trial	154	János imád pekedni, ezért sokat pekszik. Mi ritkán...	pekszünk	pekedünk	1	pekedünk	NA	NA	5698	1060996	cselekszenek/cselekednek	cselekszenek_3_high_reversed	9	pekszik / pekedik	0.7985076962177716	pekszünk	pekedünk	1	ünk	3	3	TRUE	FALSE	low	reversed	FALSE	FALSE	NA	NA
hungarian-esp_esp_participant_SESSION_2022-11-30_13h31.31.706.csv	CJL7V6	Nő	2002	14	8	posttest trial	155	János imád nágapodni, ezért sokat nágapszik. Ők ritkán...	nágapodnak	nágapszanak	0	nágapodnak	NA	NA	7689	1069188	cselekszenek/cselekednek	cselekszenek_3_high_reversed	9	nágapszik / nágapodik	0.28768207245178085	nágapszanak	nágapodnak	2	nek	3	20	FALSE	FALSE	low	reversed	TRUE	FALSE	NA	NA
hungarian-esp_esp_participant_SESSION_2022-11-30_13h31.31.706.csv	CJL7V6	Nő	2002	14	8	posttest trial	156	János imád sprigozni, ezért sokat sprigzik. Ti ritkán...	sprigzotok	sprigoztok	1	sprigoztok	NA	NA	6220	1075911	cselekszenek/cselekednek	cselekszenek_3_high_reversed	9	sprigzik / sprigozik	-1.4271163556401458	sprigzotok	sprigoztok	1	tek	3	54	FALSE	TRUE	low	reversed	FALSE	FALSE	NA	NA
hungarian-esp_esp_participant_SESSION_2022-11-30_13h31.31.706.csv	CJL7V6	Nő	2002	14	8	posttest trial	157	János imád lumozni, ezért sokat lumlik. Ti ritkán...	lumoztok	lumlotok	0	lumoztok	NA	NA	11306	1087720	cselekszenek/cselekednek	cselekszenek_3_high_reversed	9	lumlik / lumozik	-0.2876820724517809	lumlotok	lumoztok	1	tek	3	41	FALSE	TRUE	low	reversed	TRUE	FALSE	NA	NA
hungarian-esp_esp_participant_SESSION_2022-11-30_13h31.31.706.csv	CJL7V6	Nő	2002	14	8	posttest trial	158	János imád riványozni, ezért sokat riványlik. Ti ritkán...	riványlotok	riványoztok	0	riványlotok	NA	NA	10713	1098936	cselekszenek/cselekednek	cselekszenek_3_high_reversed	9	riványlik / riványozik	0.06899287148695142	riványlotok	riványoztok	2	tek	3	28	FALSE	FALSE	low	reversed	TRUE	TRUE	NA	NA
hungarian-esp_esp_participant_SESSION_2022-11-30_13h31.31.706.csv	CJL7V6	Nő	2002	14	8	posttest trial	159	János imád dirányozni, ezért sokat diránylik. Ők ritkán...	diránylanak	dirányoznak	1	dirányoznak	NA	NA	8838	1108277	cselekszenek/cselekednek	cselekszenek_3_high_reversed	9	diránylik / dirányozik	-0.06899287148695143	diránylanak	dirányoznak	2	nek	3	35	FALSE	FALSE	low	reversed	FALSE	FALSE	NA	NA
hungarian-esp_esp_participant_SESSION_2022-11-30_13h31.31.706.csv	CJL7V6	Nő	2002	14	8	posttest trial	160	János imád spalározni, ezért sokat spalárzik. Ők ritkán...	spalároznak	spalárzanak	0	spalároznak	NA	NA	8706	1117485	cselekszenek/cselekednek	cselekszenek_3_high_reversed	9	spalárzik / spalározik	-0.1431008436406733	spalárzanak	spalároznak	2	nek	3	37	FALSE	FALSE	low	reversed	TRUE	FALSE	NA	NA
hungarian-esp_esp_participant_SESSION_2022-11-30_13h31.31.706.csv	CJL7V6	Nő	2002	14	8	posttest trial	161	János imád sponyozni, ezért sokat sponylik. Ők ritkán...	sponyoznak	sponylanak	0	sponyoznak	NA	NA	6086	1124077	cselekszenek/cselekednek	cselekszenek_3_high_reversed	9	sponylik / sponyozik	0.7419373447293773	sponylanak	sponyoznak	1	nek	3	5	TRUE	FALSE	low	reversed	TRUE	FALSE	NA	NA
hungarian-esp_esp_participant_SESSION_2022-11-30_13h31.31.706.csv	CJL7V6	Nő	2002	14	8	posttest trial	162	János imád vobozni, ezért sokat vobzik. Ti ritkán...	vobzotok	voboztok	1	voboztok	NA	NA	5238	1129818	cselekszenek/cselekednek	cselekszenek_3_high_reversed	9	vobzik / vobozik	-0.2876820724517809	vobzotok	voboztok	1	tek	3	42	FALSE	TRUE	low	reversed	FALSE	FALSE	NA	NA
hungarian-esp_esp_participant_SESSION_2022-11-30_13h31.31.706.csv	CJL7V6	Nő	2002	14	8	posttest trial	163	János imád flézezni, ezért sokat flézlik. Ti ritkán...	flézeztek	flézletek	0	flézeztek	NA	NA	6656	1136977	cselekszenek/cselekednek	cselekszenek_3_high_reversed	9	flézlik / flézezik	-0.4595323293784402	flézletek	flézeztek	1	tek	3	47	FALSE	TRUE	low	reversed	TRUE	FALSE	NA	NA
hungarian-esp_esp_participant_SESSION_2022-11-30_13h31.31.706.csv	CJL7V6	Nő	2002	14	8	posttest trial	164	János imád mihágozni, ezért sokat mihágzik. Ti ritkán...	mihágzotok	mihágoztok	1	mihágoztok	NA	NA	6128	1143608	cselekszenek/cselekednek	cselekszenek_3_high_reversed	9	mihágzik / mihágozik	-0.7419373447293773	mihágzotok	mihágoztok	2	tek	3	51	FALSE	TRUE	low	reversed	FALSE	FALSE	NA	NA
hungarian-esp_esp_participant_SESSION_2022-11-30_13h31.31.706.csv	CJL7V6	Nő	2002	14	8	posttest trial	165	János imád gatágozni, ezért sokat gatáglik. Mi ritkán...	gatáglunk	gatágozunk	1	gatágozunk	NA	NA	6665	1150776	cselekszenek/cselekednek	cselekszenek_3_high_reversed	9	gatáglik / gatágozik	-0.7985076962177716	gatáglunk	gatágozunk	2	ünk	3	52	FALSE	TRUE	low	reversed	FALSE	FALSE	NA	NA
hungarian-esp_esp_participant_SESSION_2022-11-30_13h31.31.706.csv	CJL7V6	Nő	2002	14	8	posttest trial	166	János imád tűgözni, ezért sokat tűgzik. Ti ritkán...	tűgzötök	tűgöztök	1	tűgöztök	NA	NA	6855	1158134	cselekszenek/cselekednek	cselekszenek_3_high_reversed	9	tűgzik / tűgözik	0.14310084364067324	tűgzötök	tűgöztök	1	tek	3	26	FALSE	FALSE	low	reversed	FALSE	FALSE	NA	NA
hungarian-esp_esp_participant_SESSION_2022-11-30_13h31.31.706.csv	CJL7V6	Nő	2002	14	8	posttest trial	167	János imád küsözni, ezért sokat küslik. Mi ritkán...	küslünk	küsözünk	1	küsözünk	NA	NA	5488	1164125	cselekszenek/cselekednek	cselekszenek_3_high_reversed	9	küslik / küsözik	0.6418538861723947	küslünk	küsözünk	1	ünk	3	6	TRUE	FALSE	low	reversed	FALSE	FALSE	NA	NA
hungarian-esp_esp_participant_SESSION_2022-11-30_13h31.31.706.csv	CJL7V6	Nő	2002	14	8	posttest trial	168	János imád klarágozni, ezért sokat klarágzik. Ti ritkán...	klarágoztok	klarágzotok	0	klarágoztok	NA	NA	5839	1170466	cselekszenek/cselekednek	cselekszenek_3_high_reversed	9	klarágzik / klarágozik	-0.916290731874155	klarágzotok	klarágoztok	2	tek	3	53	FALSE	TRUE	low	reversed	TRUE	FALSE	NA	NA
hungarian-esp_esp_participant_SESSION_2022-11-30_13h31.31.706.csv	CJL7V6	Nő	2002	14	8	posttest trial	169	János imád hákodni, ezért sokat hákszik. Ők ritkán...	hákodnak	hákszanak	0	hákodnak	NA	NA	8095	1179065	cselekszenek/cselekednek	cselekszenek_3_high_reversed	9	hákszik / hákodik	0.06453852113757116	hákszanak	hákodnak	1	nek	3	29	FALSE	FALSE	low	reversed	TRUE	FALSE	NA	NA
hungarian-esp_esp_participant_SESSION_2022-11-30_13h31.31.706.csv	CJL7V6	Nő	2002	14	8	posttest trial	170	János imád brivepedni, ezért sokat brivepszik. Mi ritkán...	brivepszünk	brivepedünk	1	brivepedünk	NA	NA	6064	1185632	cselekszenek/cselekednek	cselekszenek_3_high_reversed	9	brivepszik / brivepedik	0.9162907318741552	brivepszünk	brivepedünk	2	ünk	3	1	TRUE	FALSE	low	reversed	FALSE	FALSE	NA	NA
hungarian-esp_esp_participant_SESSION_2022-11-30_13h31.31.706.csv	CJL7V6	Nő	2002	14	8	posttest trial	171	János imád bregezni, ezért sokat bregzik. Mi ritkán...	bregzünk	bregezünk	0	bregzünk	NA	NA	6864	1192998	cselekszenek/cselekednek	cselekszenek_3_high_reversed	9	bregzik / bregezik	0.49247648509779424	bregzünk	bregezünk	1	ünk	3	10	TRUE	FALSE	low	reversed	TRUE	TRUE	NA	NA
hungarian-esp_esp_participant_SESSION_2022-11-30_13h31.31.706.csv	CJL7V6	Nő	2002	14	8	posttest trial	172	János imád brüszözni, ezért sokat brüszlik. Ti ritkán...	brüszlötök	brüszöztök	1	brüszöztök	NA	NA	7722	1201223	cselekszenek/cselekednek	cselekszenek_3_high_reversed	9	brüszlik / brüszözik	-0.2076393647782445	brüszlötök	brüszöztök	1	tek	3	39	FALSE	FALSE	low	reversed	FALSE	FALSE	NA	NA
hungarian-esp_esp_participant_SESSION_2022-11-30_13h31.31.706.csv	CJL7V6	Nő	2002	14	8	posttest trial	173	János imád frihegezni, ezért sokat friheglik. Mi ritkán...	frihegezünk	friheglünk	1	friheglünk	NA	NA	3865	1205590	cselekszenek/cselekednek	cselekszenek_3_high_reversed	9	friheglik / frihegezik	0.06899287148695142	friheglünk	frihegezünk	2	ünk	3	27	FALSE	FALSE	low	reversed	FALSE	TRUE	NA	NA
hungarian-esp_esp_participant_SESSION_2022-11-30_18h03.08.668.csv	SN2010	nő	1998	18	4	esp trial	11	János imád nyivágozni, ezért sokat nyivágzik. Mi ritkán...	nyivágzunk	nyivágozunk	1	nyivágozunk	nyivágozunk	TRUE	3350	202511	cselekszenek/cselekednek	cselekszenek_2_high_reversed	5	nyivágzik / nyivágozik	0.965080896043587	nyivágzunk	nyivágozunk	2	ünk	2	1	TRUE	FALSE	high	reversed	FALSE	FALSE	FALSE	FALSE
hungarian-esp_esp_participant_SESSION_2022-11-30_18h03.08.668.csv	SN2010	nő	1998	18	4	esp trial	13	János imád köszözni, ezért sokat köszlik. Ti ritkán...	köszlötök	köszöztök	1	köszöztök	köszlötök	FALSE	5737	212311	cselekszenek/cselekednek	cselekszenek_2_high_reversed	5	köszlik / köszözik	-0.3483066942682157	köszlötök	köszöztök	1	tek	2	45	FALSE	TRUE	high	reversed	FALSE	FALSE	TRUE	FALSE
hungarian-esp_esp_participant_SESSION_2022-11-30_18h03.08.668.csv	SN2010	nő	1998	18	4	esp trial	15	János imád molodni, ezért sokat molszik. Ti ritkán...	molodtok	molszotok	1	molszotok	molodtok	FALSE	5245	221860	cselekszenek/cselekednek	cselekszenek_2_high_reversed	5	molszik / molodik	0.8938178760220965	molszotok	molodtok	1	tek	2	2	TRUE	FALSE	high	reversed	FALSE	TRUE	FALSE	TRUE
hungarian-esp_esp_participant_SESSION_2022-11-30_18h03.08.668.csv	SN2010	nő	1998	18	4	esp trial	17	János imád sprozozni, ezért sokat sprozlik. Ők ritkán...	sprozlanak	sprozoznak	0	sprozlanak	sprozlanak	TRUE	6097	232013	cselekszenek/cselekednek	cselekszenek_2_high_reversed	5	sprozlik / sprozozik	0.14310084364067324	sprozlanak	sprozoznak	1	nek	2	25	FALSE	FALSE	high	reversed	TRUE	TRUE	TRUE	TRUE
hungarian-esp_esp_participant_SESSION_2022-11-30_18h03.08.668.csv	SN2010	nő	1998	18	4	esp trial	19	János imád virozni, ezért sokat virzik. Ők ritkán...	viroznak	virzanak	1	virzanak	virzanak	TRUE	8286	244354	cselekszenek/cselekednek	cselekszenek_2_high_reversed	5	virzik / virozik	0	virzanak	viroznak	1	nek	2	33	FALSE	FALSE	high	reversed	FALSE	TRUE	TRUE	TRUE
hungarian-esp_esp_participant_SESSION_2022-11-30_18h03.08.668.csv	SN2010	nő	1998	18	4	esp trial	21	János imád csibagozni, ezért sokat csibagzik. Ti ritkán...	csibagzotok	csibagoztok	1	csibagoztok	csibagzotok	FALSE	6638	255014	cselekszenek/cselekednek	cselekszenek_2_high_reversed	5	csibagzik / csibagozik	-0.7985076962177716	csibagzotok	csibagoztok	2	tek	2	52	FALSE	TRUE	high	reversed	FALSE	FALSE	TRUE	FALSE
hungarian-esp_esp_participant_SESSION_2022-11-30_18h03.08.668.csv	SN2010	nő	1998	18	4	esp trial	23	János imád pilégedni, ezért sokat pilégszik. Ők ritkán...	pilégednek	pilégszenek	0	pilégednek	pilégednek	TRUE	7795	266858	cselekszenek/cselekednek	cselekszenek_2_high_reversed	5	pilégszik / pilégedik	0.6418538861723947	pilégszenek	pilégednek	2	nek	2	7	TRUE	FALSE	high	reversed	TRUE	FALSE	FALSE	FALSE
hungarian-esp_esp_participant_SESSION_2022-11-30_18h03.08.668.csv	SN2010	nő	1998	18	4	esp trial	25	János imád flűgözni, ezért sokat flűgzik. Mi ritkán...	flűgözünk	flűgzünk	0	flűgözünk	flűgzünk	FALSE	4143	276418	cselekszenek/cselekednek	cselekszenek_2_high_reversed	5	flűgzik / flűgözik	0.32542240043462795	flűgzünk	flűgözünk	1	ünk	2	18	FALSE	FALSE	high	reversed	TRUE	FALSE	TRUE	FALSE
hungarian-esp_esp_participant_SESSION_2022-11-30_18h03.08.668.csv	SN2010	nő	1998	18	4	esp trial	27	János imád pragányozni, ezért sokat pragánylik. Ti ritkán...	pragányoztok	pragánylotok	0	pragányoztok	pragánylotok	FALSE	4786	285986	cselekszenek/cselekednek	cselekszenek_2_high_reversed	5	pragánylik / pragányozik	0	pragánylotok	pragányoztok	2	tek	2	31	FALSE	FALSE	high	reversed	TRUE	FALSE	TRUE	FALSE
hungarian-esp_esp_participant_SESSION_2022-11-30_18h03.08.668.csv	SN2010	nő	1998	18	4	esp trial	29	János imád csubozni, ezért sokat csubzik. Mi ritkán...	csubzunk	csubozunk	1	csubozunk	csubozunk	TRUE	5743	295785	cselekszenek/cselekednek	cselekszenek_2_high_reversed	5	csubzik / csubozik	0.7419373447293773	csubzunk	csubozunk	1	ünk	2	4	TRUE	FALSE	high	reversed	FALSE	FALSE	FALSE	FALSE
hungarian-esp_esp_participant_SESSION_2022-11-30_18h03.08.668.csv	SN2010	nő	1998	18	4	esp trial	31	János imád dirozni, ezért sokat dirlik. Ti ritkán...	dirlotok	diroztok	1	diroztok	dirlotok	FALSE	4800	305302	cselekszenek/cselekednek	cselekszenek_2_high_reversed	5	dirlik / dirozik	0	dirlotok	diroztok	1	tek	2	30	FALSE	FALSE	high	reversed	FALSE	FALSE	TRUE	FALSE
hungarian-esp_esp_participant_SESSION_2022-11-30_18h03.08.668.csv	SN2010	nő	1998	18	4	esp trial	33	János imád fröjözni, ezért sokat fröjzik. Ti ritkán...	fröjöztök	fröjzötök	0	fröjöztök	fröjzötök	FALSE	4135	314863	cselekszenek/cselekednek	cselekszenek_2_high_reversed	5	fröjzik / fröjözik	-0.8938178760220964	fröjzötök	fröjöztök	1	tek	2	53	FALSE	TRUE	high	reversed	TRUE	FALSE	TRUE	FALSE
hungarian-esp_esp_participant_SESSION_2022-11-30_18h03.08.668.csv	SN2010	nő	1998	18	4	esp trial	35	János imád dilakozni, ezért sokat dilaklik. Ti ritkán...	dilakoztok	dilaklotok	0	dilakoztok	dilaklotok	FALSE	9277	328197	cselekszenek/cselekednek	cselekszenek_2_high_reversed	5	dilaklik / dilakozik	-0.4595323293784402	dilaklotok	dilakoztok	2	tek	2	47	FALSE	TRUE	high	reversed	TRUE	FALSE	TRUE	FALSE
hungarian-esp_esp_participant_SESSION_2022-11-30_18h03.08.668.csv	SN2010	nő	1998	18	4	esp trial	37	János imád nyürözni, ezért sokat nyürzik. Ők ritkán...	nyürzenek	nyüröznek	1	nyüröznek	nyürzenek	FALSE	7268	339528	cselekszenek/cselekednek	cselekszenek_2_high_reversed	5	nyürzik / nyürözik	-0.06453852113757118	nyürzenek	nyüröznek	1	nek	2	34	FALSE	FALSE	high	reversed	FALSE	FALSE	TRUE	FALSE
hungarian-esp_esp_participant_SESSION_2022-11-30_18h03.08.668.csv	SN2010	nő	1998	18	4	esp trial	39	János imád mülőrözni, ezért sokat mülőrzik. Mi ritkán...	mülőrzünk	mülőrözünk	1	mülőrözünk	mülőrzünk	FALSE	11639	355220	cselekszenek/cselekednek	cselekszenek_2_high_reversed	5	mülőrzik / mülőrözik	0.28768207245178085	mülőrzünk	mülőrözünk	2	ünk	2	20	FALSE	FALSE	high	reversed	FALSE	FALSE	TRUE	FALSE
hungarian-esp_esp_participant_SESSION_2022-11-30_18h03.08.668.csv	SN2010	nő	1998	18	4	esp trial	41	János imád brivakozni, ezért sokat brivaklik. Ti ritkán...	brivaklotok	brivakoztok	1	brivakoztok	brivaklotok	FALSE	7535	366805	cselekszenek/cselekednek	cselekszenek_2_high_reversed	5	brivaklik / brivakozik	-0.2076393647782445	brivaklotok	brivakoztok	2	tek	2	39	FALSE	FALSE	high	reversed	FALSE	FALSE	TRUE	FALSE
hungarian-esp_esp_participant_SESSION_2022-11-30_18h03.08.668.csv	SN2010	nő	1998	18	4	esp trial	43	János imád flüröközni, ezért sokat flüröklik. Ti ritkán...	flürököztök	flüröklötök	1	flüröklötök	flüröklötök	TRUE	4558	376369	cselekszenek/cselekednek	cselekszenek_2_high_reversed	5	flüröklik / flüröközik	0.1941560144409574	flüröklötök	flürököztök	2	tek	2	23	FALSE	FALSE	high	reversed	FALSE	TRUE	TRUE	TRUE
hungarian-esp_esp_participant_SESSION_2022-11-30_18h03.08.668.csv	SN2010	nő	1998	18	4	esp trial	45	János imád drűrözni, ezért sokat drűrzik. Ők ritkán...	drűröznek	drűrzenek	1	drűrzenek	drűrzenek	TRUE	5217	385919	cselekszenek/cselekednek	cselekszenek_2_high_reversed	5	drűrzik / drűrözik	-0.3483066942682157	drűrzenek	drűröznek	1	nek	2	44	FALSE	TRUE	high	reversed	FALSE	TRUE	TRUE	TRUE
hungarian-esp_esp_participant_SESSION_2022-11-30_18h03.08.668.csv	SN2010	nő	1998	18	4	esp trial	47	János imád bratározni, ezért sokat bratárzik. Ők ritkán...	bratároznak	bratárzanak	0	bratároznak	bratárzanak	FALSE	4373	395487	cselekszenek/cselekednek	cselekszenek_2_high_reversed	5	bratárzik / bratározik	-1.2992829841302609	bratárzanak	bratároznak	2	nek	2	54	FALSE	TRUE	high	reversed	TRUE	FALSE	TRUE	FALSE
hungarian-esp_esp_participant_SESSION_2022-11-30_18h03.08.668.csv	SN2010	nő	1998	18	4	esp trial	49	János imád spiharozni, ezért sokat spiharzik. Ti ritkán...	spiharoztok	spiharzotok	0	spiharoztok	spiharzotok	FALSE	7309	406853	cselekszenek/cselekednek	cselekszenek_2_high_reversed	5	spiharzik / spiharozik	-0.5978370007556204	spiharzotok	spiharoztok	2	tek	2	50	FALSE	TRUE	high	reversed	TRUE	FALSE	TRUE	FALSE
hungarian-esp_esp_participant_SESSION_2022-11-30_18h03.08.668.csv	SN2010	nő	1998	18	4	esp trial	51	János imád kűdözni, ezért sokat kűdlik. Ők ritkán...	kűdlenek	kűdöznek	0	kűdlenek	kűdöznek	FALSE	8631	419533	cselekszenek/cselekednek	cselekszenek_2_high_reversed	5	kűdlik / kűdözik	0.7985076962177716	kűdlenek	kűdöznek	1	nek	2	3	TRUE	FALSE	high	reversed	TRUE	TRUE	FALSE	TRUE
hungarian-esp_esp_participant_SESSION_2022-11-30_18h03.08.668.csv	SN2010	nő	1998	18	4	esp trial	53	János imád prélemezni, ezért sokat prélemlik. Ők ritkán...	prélemlenek	prélemeznek	1	prélemeznek	prélemlenek	FALSE	7062	430621	cselekszenek/cselekednek	cselekszenek_2_high_reversed	5	prélemlik / prélemezik	0.20763936477824457	prélemlenek	prélemeznek	2	nek	2	22	FALSE	FALSE	high	reversed	FALSE	FALSE	TRUE	FALSE
hungarian-esp_esp_participant_SESSION_2022-11-30_18h03.08.668.csv	SN2010	nő	1998	18	4	esp trial	55	János imád trugozni, ezért sokat trugzik. Ők ritkán...	trugoznak	trugzanak	0	trugoznak	trugzanak	FALSE	5224	440187	cselekszenek/cselekednek	cselekszenek_2_high_reversed	5	trugzik / trugozik	-0.4595323293784402	trugzanak	trugoznak	1	nek	2	48	FALSE	TRUE	high	reversed	TRUE	FALSE	TRUE	FALSE
hungarian-esp_esp_participant_SESSION_2022-11-30_18h03.08.668.csv	SN2010	nő	1998	18	4	esp trial	57	János imád prögözni, ezért sokat prögzik. Ti ritkán...	prögzötök	prögöztök	0	prögzötök	prögzötök	TRUE	3628	449755	cselekszenek/cselekednek	cselekszenek_2_high_reversed	5	prögzik / prögözik	-0.6418538861723948	prögzötök	prögöztök	1	tek	2	51	FALSE	TRUE	high	reversed	TRUE	TRUE	TRUE	TRUE
hungarian-esp_esp_participant_SESSION_2022-11-30_18h03.08.668.csv	SN2010	nő	1998	18	4	esp trial	59	János imád sprudozni, ezért sokat sprudlik. Mi ritkán...	sprudlunk	sprudozunk	0	sprudlunk	sprudlunk	TRUE	5996	459813	cselekszenek/cselekednek	cselekszenek_2_high_reversed	5	sprudlik / sprudozik	-0.2076393647782445	sprudlunk	sprudozunk	1	ünk	2	40	FALSE	TRUE	high	reversed	TRUE	TRUE	TRUE	TRUE
hungarian-esp_esp_participant_SESSION_2022-11-30_18h03.08.668.csv	SN2010	nő	1998	18	4	esp trial	61	János imád klehényezni, ezért sokat klehénylik. Ti ritkán...	klehényeztek	klehényletek	0	klehényeztek	klehényletek	FALSE	5265	469372	cselekszenek/cselekednek	cselekszenek_2_high_reversed	5	klehénylik / klehényezik	0.32542240043462795	klehényletek	klehényeztek	2	tek	2	19	FALSE	FALSE	high	reversed	TRUE	FALSE	TRUE	FALSE
hungarian-esp_esp_participant_SESSION_2022-11-30_18h03.08.668.csv	SN2010	nő	1998	18	4	esp trial	63	János imád privékedni, ezért sokat privékszik. Ők ritkán...	privékszenek	privékednek	1	privékednek	privékszenek	FALSE	3939	478946	cselekszenek/cselekednek	cselekszenek_2_high_reversed	5	privékszik / privékedik	0.06899287148695142	privékszenek	privékednek	2	nek	2	28	FALSE	FALSE	high	reversed	FALSE	FALSE	TRUE	FALSE
hungarian-esp_esp_participant_SESSION_2022-11-30_18h03.08.668.csv	SN2010	nő	1998	18	4	esp trial	65	János imád brülösözni, ezért sokat brülöslik. Mi ritkán...	brülöslünk	brülösözünk	0	brülöslünk	brülöslünk	TRUE	4630	488511	cselekszenek/cselekednek	cselekszenek_2_high_reversed	5	brülöslik / brülösözik	-0.06899287148695143	brülöslünk	brülösözünk	2	ünk	2	35	FALSE	FALSE	high	reversed	TRUE	TRUE	TRUE	TRUE
hungarian-esp_esp_participant_SESSION_2022-11-30_18h03.08.668.csv	SN2010	nő	1998	18	4	esp trial	67	János imád lájozni, ezért sokat lájzik. Ti ritkán...	lájzotok	lájoztok	0	lájzotok	lájoztok	FALSE	4080	498057	cselekszenek/cselekednek	cselekszenek_2_high_reversed	5	lájzik / lájozik	0.4353180712578455	lájzotok	lájoztok	1	tek	2	15	TRUE	FALSE	high	reversed	TRUE	TRUE	FALSE	TRUE
hungarian-esp_esp_participant_SESSION_2022-11-30_18h03.08.668.csv	SN2010	nő	1998	18	4	esp trial	69	János imád branyozni, ezért sokat branylik. Ők ritkán...	branylanak	branyoznak	1	branyoznak	branylanak	FALSE	10962	513079	cselekszenek/cselekednek	cselekszenek_2_high_reversed	5	branylik / branyozik	0.32542240043462795	branylanak	branyoznak	1	nek	2	17	FALSE	FALSE	high	reversed	FALSE	FALSE	TRUE	FALSE
hungarian-esp_esp_participant_SESSION_2022-11-30_18h03.08.668.csv	SN2010	nő	1998	18	4	esp trial	71	János imád flöközni, ezért sokat flöklik. Ti ritkán...	flököztök	flöklötök	1	flöklötök	flöklötök	TRUE	7696	524837	cselekszenek/cselekednek	cselekszenek_2_high_reversed	5	flöklik / flöközik	-0.1431008436406733	flöklötök	flököztök	1	tek	2	37	FALSE	FALSE	high	reversed	FALSE	TRUE	TRUE	TRUE
hungarian-esp_esp_participant_SESSION_2022-11-30_18h03.08.668.csv	SN2010	nő	1998	18	4	esp trial	73	János imád spibegezni, ezért sokat spibeglik. Mi ritkán...	spibeglünk	spibegezünk	1	spibegezünk	spibegezünk	TRUE	5176	534385	cselekszenek/cselekednek	cselekszenek_2_high_reversed	5	spibeglik / spibegezik	0.5978370007556204	spibeglünk	spibegezünk	2	ünk	2	8	TRUE	FALSE	high	reversed	FALSE	FALSE	FALSE	FALSE
hungarian-esp_esp_participant_SESSION_2022-11-30_18h03.08.668.csv	SN2010	nő	1998	18	4	esp trial	75	János imád brözözni, ezért sokat brözlik. Ti ritkán...	brözöztök	brözlötök	0	brözöztök	brözlötök	FALSE	3717	543945	cselekszenek/cselekednek	cselekszenek_2_high_reversed	5	brözlik / brözözik	0.06899287148695142	brözlötök	brözöztök	1	tek	2	27	FALSE	FALSE	high	reversed	TRUE	FALSE	TRUE	FALSE
hungarian-esp_esp_participant_SESSION_2022-11-30_18h03.08.668.csv	SN2010	nő	1998	18	4	esp trial	77	János imád posozni, ezért sokat poslik. Ti ritkán...	posoztok	poslotok	1	poslotok	posoztok	FALSE	11654	559645	cselekszenek/cselekednek	cselekszenek_2_high_reversed	5	poslik / posozik	0.7419373447293773	poslotok	posoztok	1	tek	2	5	TRUE	FALSE	high	reversed	FALSE	TRUE	FALSE	TRUE
hungarian-esp_esp_participant_SESSION_2022-11-30_18h03.08.668.csv	SN2010	nő	1998	18	4	esp trial	79	János imád dujozni, ezért sokat dujzik. Ők ritkán...	dujoznak	dujzanak	0	dujoznak	dujzanak	FALSE	5413	569193	cselekszenek/cselekednek	cselekszenek_2_high_reversed	5	dujzik / dujozik	0.3483066942682158	dujzanak	dujoznak	1	nek	2	16	FALSE	FALSE	high	reversed	TRUE	FALSE	TRUE	FALSE
hungarian-esp_esp_participant_SESSION_2022-11-30_18h03.08.668.csv	SN2010	nő	1998	18	4	esp trial	81	János imád frálapodni, ezért sokat frálapszik. Ti ritkán...	frálapszotok	frálapodtok	0	frálapszotok	frálapodtok	FALSE	7316	580573	cselekszenek/cselekednek	cselekszenek_2_high_reversed	5	frálapszik / frálapodik	0.4353180712578455	frálapszotok	frálapodtok	2	tek	2	14	TRUE	FALSE	high	reversed	TRUE	TRUE	FALSE	TRUE
hungarian-esp_esp_participant_SESSION_2022-11-30_18h03.08.668.csv	SN2010	nő	1998	18	4	esp trial	83	János imád trikozni, ezért sokat triklik. Ti ritkán...	triklotok	trikoztok	1	trikoztok	trikoztok	TRUE	3813	590134	cselekszenek/cselekednek	cselekszenek_2_high_reversed	5	triklik / trikozik	0.5877866649021191	triklotok	trikoztok	1	tek	2	10	TRUE	FALSE	high	reversed	FALSE	FALSE	FALSE	FALSE
hungarian-esp_esp_participant_SESSION_2022-11-30_18h03.08.668.csv	SN2010	nő	1998	18	4	esp trial	85	János imád föködni, ezért sokat fökszik. Ők ritkán...	föködnek	fökszenek	1	fökszenek	föködnek	FALSE	7176	601357	cselekszenek/cselekednek	cselekszenek_2_high_reversed	5	fökszik / föködik	0.6418538861723947	fökszenek	föködnek	1	nek	2	6	TRUE	FALSE	high	reversed	FALSE	TRUE	FALSE	TRUE
hungarian-esp_esp_participant_SESSION_2022-11-30_18h03.08.668.csv	SN2010	nő	1998	18	4	esp trial	87	János imád spügözni, ezért sokat spügzik. Mi ritkán...	spügözünk	spügzünk	0	spügözünk	spügözünk	TRUE	6825	612229	cselekszenek/cselekednek	cselekszenek_2_high_reversed	5	spügzik / spügözik	0.4595323293784402	spügzünk	spügözünk	1	ünk	2	13	TRUE	FALSE	high	reversed	TRUE	FALSE	FALSE	FALSE
hungarian-esp_esp_participant_SESSION_2022-11-30_18h03.08.668.csv	SN2010	nő	1998	18	4	esp trial	89	János imád püzözni, ezért sokat püzlik. Ti ritkán...	püzlötök	püzöztök	0	püzlötök	püzlötök	TRUE	10049	626305	cselekszenek/cselekednek	cselekszenek_2_high_reversed	5	püzlik / püzözik	-0.06899287148695143	püzlötök	püzöztök	1	tek	2	36	FALSE	FALSE	high	reversed	TRUE	TRUE	TRUE	TRUE
hungarian-esp_esp_participant_SESSION_2022-11-30_18h03.08.668.csv	SN2010	nő	1998	18	4	esp trial	91	János imád drilarozni, ezért sokat drilarzik. Mi ritkán...	drilarozunk	drilarzunk	0	drilarozunk	drilarzunk	FALSE	5185	635865	cselekszenek/cselekednek	cselekszenek_2_high_reversed	5	drilarzik / drilarozik	-0.4353180712578455	drilarzunk	drilarozunk	2	ünk	2	46	FALSE	TRUE	high	reversed	TRUE	FALSE	TRUE	FALSE
hungarian-esp_esp_participant_SESSION_2022-11-30_18h03.08.668.csv	SN2010	nő	1998	18	4	esp trial	93	János imád dabozni, ezért sokat dabzik. Ti ritkán...	daboztok	dabzotok	0	daboztok	dabzotok	FALSE	2971	645427	cselekszenek/cselekednek	cselekszenek_2_high_reversed	5	dabzik / dabozik	-0.1941560144409575	dabzotok	daboztok	1	tek	2	38	FALSE	FALSE	high	reversed	TRUE	FALSE	TRUE	FALSE
hungarian-esp_esp_participant_SESSION_2022-11-30_18h03.08.668.csv	SN2010	nő	1998	18	4	esp trial	95	János imád frakozni, ezért sokat fraklik. Mi ritkán...	fraklunk	frakozunk	1	frakozunk	fraklunk	FALSE	5740	655229	cselekszenek/cselekednek	cselekszenek_2_high_reversed	5	fraklik / frakozik	0.20763936477824457	fraklunk	frakozunk	1	ünk	2	21	FALSE	FALSE	high	reversed	FALSE	FALSE	TRUE	FALSE
hungarian-esp_esp_participant_SESSION_2022-11-30_18h03.08.668.csv	SN2010	nő	1998	18	4	esp trial	97	János imád gyihegezni, ezért sokat gyihegzik. Ti ritkán...	gyihegeztek	gyihegzetek	0	gyihegeztek	gyihegzetek	FALSE	8318	667588	cselekszenek/cselekednek	cselekszenek_2_high_reversed	5	gyihegzik / gyihegezik	-0.325422400434628	gyihegzetek	gyihegeztek	2	tek	2	43	FALSE	TRUE	high	reversed	TRUE	FALSE	TRUE	FALSE
hungarian-esp_esp_participant_SESSION_2022-11-30_18h03.08.668.csv	SN2010	nő	1998	18	4	esp trial	99	János imád lűközni, ezért sokat lűklik. Ők ritkán...	lűklenek	lűköznek	0	lűklenek	lűklenek	TRUE	7014	678653	cselekszenek/cselekednek	cselekszenek_2_high_reversed	5	lűklik / lűközik	-0.2876820724517809	lűklenek	lűköznek	1	nek	2	41	FALSE	TRUE	high	reversed	TRUE	TRUE	TRUE	TRUE
hungarian-esp_esp_participant_SESSION_2022-11-30_18h03.08.668.csv	SN2010	nő	1998	18	4	esp trial	101	János imád gihejezni, ezért sokat gihejlik. Mi ritkán...	gihejezünk	gihejlünk	1	gihejlünk	gihejezünk	FALSE	8882	691593	cselekszenek/cselekednek	cselekszenek_2_high_reversed	5	gihejlik / gihejezik	0.49247648509779424	gihejlünk	gihejezünk	2	ünk	2	11	TRUE	FALSE	high	reversed	FALSE	TRUE	FALSE	TRUE
hungarian-esp_esp_participant_SESSION_2022-11-30_18h03.08.668.csv	SN2010	nő	1998	18	4	esp trial	103	János imád frálasozni, ezért sokat frálaslik. Ők ritkán...	frálasoznak	frálaslanak	0	frálasoznak	frálasoznak	TRUE	5223	701163	cselekszenek/cselekednek	cselekszenek_2_high_reversed	5	frálaslik / frálasozik	0.4595323293784402	frálaslanak	frálasoznak	2	nek	2	12	TRUE	FALSE	high	reversed	TRUE	FALSE	FALSE	FALSE
hungarian-esp_esp_participant_SESSION_2022-11-30_18h03.08.668.csv	SN2010	nő	1998	18	4	esp trial	105	János imád trugokozni, ezért sokat trugoklik. Ők ritkán...	trugokoznak	trugoklanak	0	trugokoznak	trugoklanak	FALSE	9644	714861	cselekszenek/cselekednek	cselekszenek_2_high_reversed	5	trugoklik / trugokozik	0.14310084364067324	trugoklanak	trugokoznak	2	nek	2	26	FALSE	FALSE	high	reversed	TRUE	FALSE	TRUE	FALSE
hungarian-esp_esp_participant_SESSION_2022-11-30_18h03.08.668.csv	SN2010	nő	1998	18	4	esp trial	107	János imád dárakodni, ezért sokat dárakszik. Mi ritkán...	dárakodunk	dárakszunk	0	dárakodunk	dárakszunk	FALSE	7764	726669	cselekszenek/cselekednek	cselekszenek_2_high_reversed	5	dárakszik / dárakodik	0.06453852113757116	dárakszunk	dárakodunk	2	ünk	2	29	FALSE	FALSE	high	reversed	TRUE	FALSE	TRUE	FALSE
hungarian-esp_esp_participant_SESSION_2022-11-30_18h03.08.668.csv	SN2010	nő	1998	18	4	esp trial	109	János imád flemezni, ezért sokat flemlik. Mi ritkán...	flemlünk	flemezünk	1	flemezünk	flemlünk	FALSE	5749	736469	cselekszenek/cselekednek	cselekszenek_2_high_reversed	5	flemlik / flemezik	-0.5978370007556204	flemlünk	flemezünk	1	ünk	2	49	FALSE	TRUE	high	reversed	FALSE	FALSE	TRUE	FALSE
hungarian-esp_esp_participant_SESSION_2022-11-30_18h03.08.668.csv	SN2010	nő	1998	18	4	esp trial	111	János imád trivakodni, ezért sokat trivakszik. Mi ritkán...	trivakszunk	trivakodunk	1	trivakodunk	trivakszunk	FALSE	5946	746465	cselekszenek/cselekednek	cselekszenek_2_high_reversed	5	trivakszik / trivakodik	0	trivakszunk	trivakodunk	2	ünk	2	32	FALSE	FALSE	high	reversed	FALSE	FALSE	TRUE	FALSE
hungarian-esp_esp_participant_SESSION_2022-11-30_18h03.08.668.csv	SN2010	nő	1998	18	4	esp trial	113	János imád sprűrözni, ezért sokat sprűrlik. Ők ritkán...	sprűröznek	sprűrlenek	1	sprűrlenek	sprűrlenek	TRUE	8257	758782	cselekszenek/cselekednek	cselekszenek_2_high_reversed	5	sprűrlik / sprűrözik	0.1941560144409574	sprűrlenek	sprűröznek	1	nek	2	24	FALSE	FALSE	high	reversed	FALSE	TRUE	TRUE	TRUE
hungarian-esp_esp_participant_SESSION_2022-11-30_18h03.08.668.csv	SN2010	nő	1998	18	4	esp trial	115	János imád spirágozni, ezért sokat spiráglik. Ti ritkán...	spiráglotok	spirágoztok	1	spirágoztok	spiráglotok	FALSE	3725	768338	cselekszenek/cselekednek	cselekszenek_2_high_reversed	5	spiráglik / spirágozik	-0.2876820724517809	spiráglotok	spirágoztok	2	tek	2	42	FALSE	TRUE	high	reversed	FALSE	FALSE	TRUE	FALSE
hungarian-esp_esp_participant_SESSION_2022-11-30_18h03.08.668.csv	SN2010	nő	1998	18	4	esp trial	117	János imád mágamozni, ezért sokat mágamlik. Mi ritkán...	mágamlunk	mágamozunk	0	mágamlunk	mágamozunk	FALSE	7140	779517	cselekszenek/cselekednek	cselekszenek_2_high_reversed	5	mágamlik / mágamozik	0.5877866649021191	mágamlunk	mágamozunk	2	ünk	2	9	TRUE	FALSE	high	reversed	TRUE	TRUE	FALSE	TRUE
hungarian-esp_esp_participant_SESSION_2022-11-30_18h03.08.668.csv	SN2010	nő	1998	18	8	posttest trial	120	János imád flubokozni, ezért sokat fluboklik. Ti ritkán...	fluboklotok	flubokoztok	0	fluboklotok	NA	NA	6507	798778	cselekszenek/cselekednek	cselekszenek_3_high_reversed	9	fluboklik / flubokozik	-0.5978370007556204	fluboklotok	flubokoztok	2	tek	3	49	FALSE	TRUE	high	reversed	TRUE	TRUE	NA	NA
hungarian-esp_esp_participant_SESSION_2022-11-30_18h03.08.668.csv	SN2010	nő	1998	18	8	posttest trial	121	János imád sztrajozni, ezért sokat sztrajlik. Ők ritkán...	sztrajoznak	sztrajlanak	0	sztrajoznak	NA	NA	4845	804138	cselekszenek/cselekednek	cselekszenek_3_high_reversed	9	sztrajlik / sztrajozik	0.49247648509779424	sztrajlanak	sztrajoznak	1	nek	3	11	TRUE	FALSE	high	reversed	TRUE	FALSE	NA	NA
hungarian-esp_esp_participant_SESSION_2022-11-30_18h03.08.668.csv	SN2010	nő	1998	18	8	posttest trial	122	János imád riványozni, ezért sokat riványlik. Ti ritkán...	riványlotok	riványoztok	1	riványoztok	NA	NA	5935	810586	cselekszenek/cselekednek	cselekszenek_3_high_reversed	9	riványlik / riványozik	0.06899287148695142	riványlotok	riványoztok	2	tek	3	28	FALSE	FALSE	high	reversed	FALSE	FALSE	NA	NA
hungarian-esp_esp_participant_SESSION_2022-11-30_18h03.08.668.csv	SN2010	nő	1998	18	8	posttest trial	123	János imád brározni, ezért sokat brárlik. Ők ritkán...	brárlanak	brároznak	1	brároznak	NA	NA	16328	827427	cselekszenek/cselekednek	cselekszenek_3_high_reversed	9	brárlik / brározik	0.14310084364067324	brárlanak	brároznak	1	nek	3	24	FALSE	FALSE	high	reversed	FALSE	FALSE	NA	NA
hungarian-esp_esp_participant_SESSION_2022-11-30_18h03.08.668.csv	SN2010	nő	1998	18	8	posttest trial	124	János imád tágarozni, ezért sokat tágarzik. Mi ritkán...	tágarozunk	tágarzunk	0	tágarozunk	NA	NA	5949	833889	cselekszenek/cselekednek	cselekszenek_3_high_reversed	9	tágarzik / tágarozik	-0.06899287148695143	tágarzunk	tágarozunk	2	ünk	3	36	FALSE	FALSE	high	reversed	TRUE	FALSE	NA	NA
hungarian-esp_esp_participant_SESSION_2022-11-30_18h03.08.668.csv	SN2010	nő	1998	18	8	posttest trial	125	János imád drivegezni, ezért sokat drivegzik. Ti ritkán...	drivegeztek	drivegzetek	0	drivegeztek	NA	NA	6815	841213	cselekszenek/cselekednek	cselekszenek_3_high_reversed	9	drivegzik / drivegezik	-0.4353180712578455	drivegzetek	drivegeztek	2	tek	3	46	FALSE	TRUE	high	reversed	TRUE	FALSE	NA	NA
hungarian-esp_esp_participant_SESSION_2022-11-30_18h03.08.668.csv	SN2010	nő	1998	18	8	posttest trial	126	János imád hákodni, ezért sokat hákszik. Ők ritkán...	hákodnak	hákszanak	0	hákodnak	NA	NA	4556	846281	cselekszenek/cselekednek	cselekszenek_3_high_reversed	9	hákszik / hákodik	0.06453852113757116	hákszanak	hákodnak	1	nek	3	29	FALSE	FALSE	high	reversed	TRUE	FALSE	NA	NA
hungarian-esp_esp_participant_SESSION_2022-11-30_18h03.08.668.csv	SN2010	nő	1998	18	8	posttest trial	127	János imád nágapodni, ezért sokat nágapszik. Ők ritkán...	nágapszanak	nágapodnak	0	nágapszanak	NA	NA	13689	860489	cselekszenek/cselekednek	cselekszenek_3_high_reversed	9	nágapszik / nágapodik	0.28768207245178085	nágapszanak	nágapodnak	2	nek	3	20	FALSE	FALSE	high	reversed	TRUE	TRUE	NA	NA
hungarian-esp_esp_participant_SESSION_2022-11-30_18h03.08.668.csv	SN2010	nő	1998	18	8	posttest trial	128	János imád spöközni, ezért sokat spöklik. Mi ritkán...	spöklünk	spöközünk	0	spöklünk	NA	NA	13116	874117	cselekszenek/cselekednek	cselekszenek_3_high_reversed	9	spöklik / spöközik	0.5978370007556204	spöklünk	spöközünk	1	ünk	3	8	TRUE	FALSE	high	reversed	TRUE	TRUE	NA	NA
hungarian-esp_esp_participant_SESSION_2022-11-30_18h03.08.668.csv	SN2010	nő	1998	18	8	posttest trial	129	János imád vobozni, ezért sokat vobzik. Ti ritkán...	voboztok	vobzotok	0	voboztok	NA	NA	7361	882001	cselekszenek/cselekednek	cselekszenek_3_high_reversed	9	vobzik / vobozik	-0.2876820724517809	vobzotok	voboztok	1	tek	3	42	FALSE	TRUE	high	reversed	TRUE	FALSE	NA	NA
hungarian-esp_esp_participant_SESSION_2022-11-30_18h03.08.668.csv	SN2010	nő	1998	18	8	posttest trial	130	János imád küsözni, ezért sokat küslik. Mi ritkán...	küslünk	küsözünk	1	küsözünk	NA	NA	5768	888281	cselekszenek/cselekednek	cselekszenek_3_high_reversed	9	küslik / küsözik	0.6418538861723947	küslünk	küsözünk	1	ünk	3	6	TRUE	FALSE	high	reversed	FALSE	FALSE	NA	NA
hungarian-esp_esp_participant_SESSION_2022-11-30_18h03.08.668.csv	SN2010	nő	1998	18	8	posttest trial	131	János imád tűgözni, ezért sokat tűgzik. Ti ritkán...	tűgöztök	tűgzötök	0	tűgöztök	NA	NA	5268	894061	cselekszenek/cselekednek	cselekszenek_3_high_reversed	9	tűgzik / tűgözik	0.14310084364067324	tűgzötök	tűgöztök	1	tek	3	26	FALSE	FALSE	high	reversed	TRUE	FALSE	NA	NA
hungarian-esp_esp_participant_SESSION_2022-11-30_18h03.08.668.csv	SN2010	nő	1998	18	8	posttest trial	132	János imád tribejezni, ezért sokat tribejlik. Ti ritkán...	tribejeztek	tribejletek	0	tribejeztek	NA	NA	3953	898525	cselekszenek/cselekednek	cselekszenek_3_high_reversed	9	tribejlik / tribejezik	-0.5978370007556204	tribejletek	tribejeztek	2	tek	3	50	FALSE	TRUE	high	reversed	TRUE	FALSE	NA	NA
hungarian-esp_esp_participant_SESSION_2022-11-30_18h03.08.668.csv	SN2010	nő	1998	18	8	posttest trial	133	János imád gyivepedni, ezért sokat gyivepszik. Ők ritkán...	gyivepednek	gyivepszenek	0	gyivepednek	NA	NA	5805	904845	cselekszenek/cselekednek	cselekszenek_3_high_reversed	9	gyivepszik / gyivepedik	0.20763936477824457	gyivepszenek	gyivepednek	2	nek	3	21	FALSE	FALSE	high	reversed	TRUE	FALSE	NA	NA
hungarian-esp_esp_participant_SESSION_2022-11-30_18h03.08.668.csv	SN2010	nő	1998	18	8	posttest trial	134	János imád sponyozni, ezért sokat sponylik. Ők ritkán...	sponylanak	sponyoznak	0	sponylanak	NA	NA	11585	916940	cselekszenek/cselekednek	cselekszenek_3_high_reversed	9	sponylik / sponyozik	0.7419373447293773	sponylanak	sponyoznak	1	nek	3	5	TRUE	FALSE	high	reversed	TRUE	TRUE	NA	NA
hungarian-esp_esp_participant_SESSION_2022-11-30_18h03.08.668.csv	SN2010	nő	1998	18	8	posttest trial	135	János imád filányozni, ezért sokat filánylik. Mi ritkán...	filányozunk	filánylunk	0	filányozunk	NA	NA	4000	921448	cselekszenek/cselekednek	cselekszenek_3_high_reversed	9	filánylik / filányozik	0	filánylunk	filányozunk	2	ünk	3	30	FALSE	FALSE	high	reversed	TRUE	FALSE	NA	NA
hungarian-esp_esp_participant_SESSION_2022-11-30_18h03.08.668.csv	SN2010	nő	1998	18	8	posttest trial	136	János imád lírozni, ezért sokat lírlik. Ők ritkán...	líroznak	lírlanak	0	líroznak	NA	NA	5845	927801	cselekszenek/cselekednek	cselekszenek_3_high_reversed	9	lírlik / lírozik	-0.06453852113757118	lírlanak	líroznak	1	nek	3	33	FALSE	FALSE	high	reversed	TRUE	FALSE	NA	NA
hungarian-esp_esp_participant_SESSION_2022-11-30_18h03.08.668.csv	SN2010	nő	1998	18	8	posttest trial	137	János imád bregezni, ezért sokat bregzik. Mi ritkán...	bregezünk	bregzünk	1	bregzünk	NA	NA	8171	936481	cselekszenek/cselekednek	cselekszenek_3_high_reversed	9	bregzik / bregezik	0.49247648509779424	bregzünk	bregezünk	1	ünk	3	10	TRUE	FALSE	high	reversed	FALSE	TRUE	NA	NA
hungarian-esp_esp_participant_SESSION_2022-11-30_18h03.08.668.csv	SN2010	nő	1998	18	8	posttest trial	138	János imád sztritozni, ezért sokat sztritlik. Ők ritkán...	sztritlanak	sztritoznak	1	sztritoznak	NA	NA	9279	946270	cselekszenek/cselekednek	cselekszenek_3_high_reversed	9	sztritlik / sztritozik	0.14310084364067324	sztritlanak	sztritoznak	1	nek	3	25	FALSE	FALSE	high	reversed	FALSE	FALSE	NA	NA
hungarian-esp_esp_participant_SESSION_2022-11-30_18h03.08.668.csv	SN2010	nő	1998	18	8	posttest trial	139	János imád klarágozni, ezért sokat klarágzik. Ti ritkán...	klarágoztok	klarágzotok	0	klarágoztok	NA	NA	4755	951545	cselekszenek/cselekednek	cselekszenek_3_high_reversed	9	klarágzik / klarágozik	-0.916290731874155	klarágzotok	klarágoztok	2	tek	3	53	FALSE	TRUE	high	reversed	TRUE	FALSE	NA	NA
hungarian-esp_esp_participant_SESSION_2022-11-30_18h03.08.668.csv	SN2010	nő	1998	18	8	posttest trial	140	János imád tibarozni, ezért sokat tibarzik. Ők ritkán...	tibarzanak	tibaroznak	1	tibaroznak	NA	NA	4090	956150	cselekszenek/cselekednek	cselekszenek_3_high_reversed	9	tibarzik / tibarozik	0	tibarzanak	tibaroznak	2	nek	3	31	FALSE	FALSE	high	reversed	FALSE	FALSE	NA	NA
hungarian-esp_esp_participant_SESSION_2022-11-30_18h03.08.668.csv	SN2010	nő	1998	18	8	posttest trial	141	János imád sprimozni, ezért sokat sprimlik. Mi ritkán...	sprimozunk	sprimlunk	0	sprimozunk	NA	NA	9019	965685	cselekszenek/cselekednek	cselekszenek_3_high_reversed	9	sprimlik / sprimozik	0.20763936477824457	sprimlunk	sprimozunk	1	ünk	3	22	FALSE	FALSE	high	reversed	TRUE	FALSE	NA	NA
hungarian-esp_esp_participant_SESSION_2022-11-30_18h03.08.668.csv	SN2010	nő	1998	18	8	posttest trial	142	János imád lumozni, ezért sokat lumlik. Ti ritkán...	lumlotok	lumoztok	0	lumlotok	NA	NA	8217	974421	cselekszenek/cselekednek	cselekszenek_3_high_reversed	9	lumlik / lumozik	-0.2876820724517809	lumlotok	lumoztok	1	tek	3	41	FALSE	TRUE	high	reversed	TRUE	TRUE	NA	NA
hungarian-esp_esp_participant_SESSION_2022-11-30_18h03.08.668.csv	SN2010	nő	1998	18	8	posttest trial	143	János imád spalározni, ezért sokat spalárzik. Ők ritkán...	spalároznak	spalárzanak	0	spalároznak	NA	NA	3881	978813	cselekszenek/cselekednek	cselekszenek_3_high_reversed	9	spalárzik / spalározik	-0.1431008436406733	spalárzanak	spalároznak	2	nek	3	37	FALSE	FALSE	high	reversed	TRUE	FALSE	NA	NA
hungarian-esp_esp_participant_SESSION_2022-11-30_18h03.08.668.csv	SN2010	nő	1998	18	8	posttest trial	144	János imád flézezni, ezért sokat flézlik. Ti ritkán...	flézletek	flézeztek	1	flézeztek	NA	NA	3795	983117	cselekszenek/cselekednek	cselekszenek_3_high_reversed	9	flézlik / flézezik	-0.4595323293784402	flézletek	flézeztek	1	tek	3	47	FALSE	TRUE	high	reversed	FALSE	FALSE	NA	NA
hungarian-esp_esp_participant_SESSION_2022-11-30_18h03.08.668.csv	SN2010	nő	1998	18	8	posttest trial	145	János imád frihegezni, ezért sokat friheglik. Mi ritkán...	friheglünk	frihegezünk	0	friheglünk	NA	NA	6663	990293	cselekszenek/cselekednek	cselekszenek_3_high_reversed	9	friheglik / frihegezik	0.06899287148695142	friheglünk	frihegezünk	2	ünk	3	27	FALSE	FALSE	high	reversed	TRUE	TRUE	NA	NA
hungarian-esp_esp_participant_SESSION_2022-11-30_18h03.08.668.csv	SN2010	nő	1998	18	8	posttest trial	146	János imád spibamozni, ezért sokat spibamlik. Ők ritkán...	spibamoznak	spibamlanak	0	spibamoznak	NA	NA	3922	994725	cselekszenek/cselekednek	cselekszenek_3_high_reversed	9	spibamlik / spibamozik	0.5877866649021191	spibamlanak	spibamoznak	2	nek	3	9	TRUE	FALSE	high	reversed	TRUE	FALSE	NA	NA
hungarian-esp_esp_participant_SESSION_2022-11-30_18h03.08.668.csv	SN2010	nő	1998	18	8	posttest trial	147	János imád mísozni, ezért sokat míslik. Mi ritkán...	mísozunk	míslunk	0	mísozunk	NA	NA	4951	1000197	cselekszenek/cselekednek	cselekszenek_3_high_reversed	9	míslik / mísozik	0.3483066942682158	míslunk	mísozunk	1	ünk	3	16	FALSE	FALSE	high	reversed	TRUE	FALSE	NA	NA
hungarian-esp_esp_participant_SESSION_2022-11-30_18h03.08.668.csv	SN2010	nő	1998	18	8	posttest trial	148	János imád drojozni, ezért sokat drojzik. Mi ritkán...	drojozunk	drojzunk	0	drojozunk	NA	NA	3738	1004453	cselekszenek/cselekednek	cselekszenek_3_high_reversed	9	drojzik / drojozik	0.32542240043462795	drojzunk	drojozunk	1	ünk	3	17	FALSE	FALSE	high	reversed	TRUE	FALSE	NA	NA
hungarian-esp_esp_participant_SESSION_2022-11-30_18h03.08.668.csv	SN2010	nő	1998	18	8	posttest trial	149	János imád livényezni, ezért sokat livénylik. Mi ritkán...	livényezünk	livénylünk	0	livényezünk	NA	NA	3818	1008793	cselekszenek/cselekednek	cselekszenek_3_high_reversed	9	livénylik / livényezik	0.4595323293784402	livénylünk	livényezünk	2	ünk	3	12	TRUE	FALSE	high	reversed	TRUE	FALSE	NA	NA
hungarian-esp_esp_participant_SESSION_2022-11-30_18h03.08.668.csv	SN2010	nő	1998	18	8	posttest trial	150	János imád dirányozni, ezért sokat diránylik. Ők ritkán...	diránylanak	dirányoznak	1	dirányoznak	NA	NA	3765	1013069	cselekszenek/cselekednek	cselekszenek_3_high_reversed	9	diránylik / dirányozik	-0.06899287148695143	diránylanak	dirányoznak	2	nek	3	35	FALSE	FALSE	high	reversed	FALSE	FALSE	NA	NA
hungarian-esp_esp_participant_SESSION_2022-11-30_18h03.08.668.csv	SN2010	nő	1998	18	8	posttest trial	151	János imád brivepedni, ezért sokat brivepszik. Mi ritkán...	brivepedünk	brivepszünk	1	brivepszünk	NA	NA	4776	1018365	cselekszenek/cselekednek	cselekszenek_3_high_reversed	9	brivepszik / brivepedik	0.9162907318741552	brivepszünk	brivepedünk	2	ünk	3	1	TRUE	FALSE	high	reversed	FALSE	TRUE	NA	NA
hungarian-esp_esp_participant_SESSION_2022-11-30_18h03.08.668.csv	SN2010	nő	1998	18	8	posttest trial	152	János imád galározni, ezért sokat galárzik. Ők ritkán...	galárzanak	galároznak	1	galároznak	NA	NA	6307	1025190	cselekszenek/cselekednek	cselekszenek_3_high_reversed	9	galárzik / galározik	-0.49247648509779407	galárzanak	galároznak	2	nek	3	48	FALSE	TRUE	high	reversed	FALSE	FALSE	NA	NA
hungarian-esp_esp_participant_SESSION_2022-11-30_18h03.08.668.csv	SN2010	nő	1998	18	8	posttest trial	153	János imád gibemezni, ezért sokat gibemlik. Mi ritkán...	gibemlünk	gibemezünk	1	gibemezünk	NA	NA	6152	1031861	cselekszenek/cselekednek	cselekszenek_3_high_reversed	9	gibemlik / gibemezik	0.4353180712578455	gibemlünk	gibemezünk	2	ünk	3	14	TRUE	FALSE	high	reversed	FALSE	FALSE	NA	NA
hungarian-esp_esp_participant_SESSION_2022-11-30_18h03.08.668.csv	SN2010	nő	1998	18	8	posttest trial	154	János imád brilegezni, ezért sokat brilegzik. Mi ritkán...	brilegezünk	brilegzünk	0	brilegezünk	NA	NA	8069	1040453	cselekszenek/cselekednek	cselekszenek_3_high_reversed	9	brilegzik / brilegezik	0.28768207245178085	brilegzünk	brilegezünk	2	ünk	3	19	FALSE	FALSE	high	reversed	TRUE	FALSE	NA	NA
hungarian-esp_esp_participant_SESSION_2022-11-30_18h03.08.668.csv	SN2010	nő	1998	18	8	posttest trial	155	János imád trírozni, ezért sokat trírzik. Mi ritkán...	trírzunk	trírozunk	1	trírozunk	NA	NA	5163	1046124	cselekszenek/cselekednek	cselekszenek_3_high_reversed	9	trírzik / trírozik	-0.06453852113757118	trírzunk	trírozunk	1	ünk	3	34	FALSE	FALSE	high	reversed	FALSE	FALSE	NA	NA
hungarian-esp_esp_participant_SESSION_2022-11-30_18h03.08.668.csv	SN2010	nő	1998	18	8	posttest trial	156	János imád fröjözni, ezért sokat fröjlik. Mi ritkán...	fröjözünk	fröjlünk	1	fröjlünk	NA	NA	4707	1051349	cselekszenek/cselekednek	cselekszenek_3_high_reversed	9	fröjlik / fröjözik	0.32542240043462795	fröjlünk	fröjözünk	1	ünk	3	18	FALSE	FALSE	high	reversed	FALSE	TRUE	NA	NA
hungarian-esp_esp_participant_SESSION_2022-11-30_18h03.08.668.csv	SN2010	nő	1998	18	8	posttest trial	157	János imád brálamozni, ezért sokat brálamlik. Ők ritkán...	brálamlanak	brálamoznak	0	brálamlanak	NA	NA	5187	1057049	cselekszenek/cselekednek	cselekszenek_3_high_reversed	9	brálamlik / brálamozik	0.4353180712578455	brálamlanak	brálamoznak	2	nek	3	13	TRUE	FALSE	high	reversed	TRUE	TRUE	NA	NA
hungarian-esp_esp_participant_SESSION_2022-11-30_18h03.08.668.csv	SN2010	nő	1998	18	8	posttest trial	158	János imád trűnyözni, ezért sokat trűnylik. Ők ritkán...	trűnylenek	trűnyöznek	0	trűnylenek	NA	NA	7771	1065324	cselekszenek/cselekednek	cselekszenek_3_high_reversed	9	trűnylik / trűnyözik	0	trűnylenek	trűnyöznek	1	nek	3	32	FALSE	FALSE	high	reversed	TRUE	TRUE	NA	NA
hungarian-esp_esp_participant_SESSION_2022-11-30_18h03.08.668.csv	SN2010	nő	1998	18	8	posttest trial	159	János imád flivegezni, ezért sokat flivegzik. Ők ritkán...	flivegzenek	flivegeznek	1	flivegeznek	NA	NA	4076	1069924	cselekszenek/cselekednek	cselekszenek_3_high_reversed	9	flivegzik / flivegezik	-0.3483066942682157	flivegzenek	flivegeznek	2	nek	3	44	FALSE	TRUE	high	reversed	FALSE	FALSE	NA	NA
hungarian-esp_esp_participant_SESSION_2022-11-30_18h03.08.668.csv	SN2010	nő	1998	18	8	posttest trial	160	János imád kluzozni, ezért sokat kluzlik. Ti ritkán...	kluzoztok	kluzlotok	0	kluzoztok	NA	NA	7823	1078257	cselekszenek/cselekednek	cselekszenek_3_high_reversed	9	kluzlik / kluzozik	-0.325422400434628	kluzlotok	kluzoztok	1	tek	3	43	FALSE	TRUE	high	reversed	TRUE	FALSE	NA	NA
hungarian-esp_esp_participant_SESSION_2022-11-30_18h03.08.668.csv	SN2010	nő	1998	18	8	posttest trial	161	János imád sprigozni, ezért sokat sprigzik. Ti ritkán...	sprigzotok	sprigoztok	1	sprigoztok	NA	NA	5822	1084593	cselekszenek/cselekednek	cselekszenek_3_high_reversed	9	sprigzik / sprigozik	-1.4271163556401458	sprigzotok	sprigoztok	1	tek	3	54	FALSE	TRUE	high	reversed	FALSE	FALSE	NA	NA
hungarian-esp_esp_participant_SESSION_2022-11-30_18h03.08.668.csv	SN2010	nő	1998	18	8	posttest trial	162	János imád frivamozni, ezért sokat frivamlik. Mi ritkán...	frivamozunk	frivamlunk	1	frivamlunk	NA	NA	3617	1088729	cselekszenek/cselekednek	cselekszenek_3_high_reversed	9	frivamlik / frivamozik	0.7419373447293773	frivamlunk	frivamozunk	2	ünk	3	4	TRUE	FALSE	high	reversed	FALSE	TRUE	NA	NA
hungarian-esp_esp_participant_SESSION_2022-11-30_18h03.08.668.csv	SN2010	nő	1998	18	8	posttest trial	163	János imád frésezni, ezért sokat fréslik. Mi ritkán...	frésezünk	fréslünk	1	fréslünk	NA	NA	4020	1093253	cselekszenek/cselekednek	cselekszenek_3_high_reversed	9	fréslik / frésezik	0.5978370007556204	fréslünk	frésezünk	1	ünk	3	7	TRUE	FALSE	high	reversed	FALSE	TRUE	NA	NA
hungarian-esp_esp_participant_SESSION_2022-11-30_18h03.08.668.csv	SN2010	nő	1998	18	8	posttest trial	164	János imád pörözni, ezért sokat pörzik. Ti ritkán...	pörzötök	pöröztök	1	pöröztök	NA	NA	5599	1099370	cselekszenek/cselekednek	cselekszenek_3_high_reversed	9	pörzik / pörözik	-0.3483066942682157	pörzötök	pöröztök	1	tek	3	45	FALSE	TRUE	high	reversed	FALSE	FALSE	NA	NA
hungarian-esp_esp_participant_SESSION_2022-11-30_18h03.08.668.csv	SN2010	nő	1998	18	8	posttest trial	165	János imád prilepedni, ezért sokat prilepszik. Mi ritkán...	prilepedünk	prilepszünk	1	prilepszünk	NA	NA	3628	1103509	cselekszenek/cselekednek	cselekszenek_3_high_reversed	9	prilepszik / prilepedik	0.8938178760220965	prilepszünk	prilepedünk	2	ünk	3	2	TRUE	FALSE	high	reversed	FALSE	TRUE	NA	NA
hungarian-esp_esp_participant_SESSION_2022-11-30_18h03.08.668.csv	SN2010	nő	1998	18	8	posttest trial	166	János imád pekedni, ezért sokat pekszik. Mi ritkán...	pekszünk	pekedünk	0	pekszünk	NA	NA	6714	1110733	cselekszenek/cselekednek	cselekszenek_3_high_reversed	9	pekszik / pekedik	0.7985076962177716	pekszünk	pekedünk	1	ünk	3	3	TRUE	FALSE	high	reversed	TRUE	TRUE	NA	NA
hungarian-esp_esp_participant_SESSION_2022-11-30_18h03.08.668.csv	SN2010	nő	1998	18	8	posttest trial	167	János imád gatágozni, ezért sokat gatáglik. Mi ritkán...	gatáglunk	gatágozunk	0	gatáglunk	NA	NA	6796	1118045	cselekszenek/cselekednek	cselekszenek_3_high_reversed	9	gatáglik / gatágozik	-0.7985076962177716	gatáglunk	gatágozunk	2	ünk	3	52	FALSE	TRUE	high	reversed	TRUE	TRUE	NA	NA
hungarian-esp_esp_participant_SESSION_2022-11-30_18h03.08.668.csv	SN2010	nő	1998	18	8	posttest trial	168	János imád pehégedni, ezért sokat pehégszik. Ti ritkán...	pehégedtek	pehégszetek	0	pehégedtek	NA	NA	4874	1123433	cselekszenek/cselekednek	cselekszenek_3_high_reversed	9	pehégszik / pehégedik	0.4353180712578455	pehégszetek	pehégedtek	2	tek	3	15	TRUE	FALSE	high	reversed	TRUE	FALSE	NA	NA
hungarian-esp_esp_participant_SESSION_2022-11-30_18h03.08.668.csv	SN2010	nő	1998	18	8	posttest trial	169	János imád brüszözni, ezért sokat brüszlik. Ti ritkán...	brüszlötök	brüszöztök	1	brüszöztök	NA	NA	3877	1127829	cselekszenek/cselekednek	cselekszenek_3_high_reversed	9	brüszlik / brüszözik	-0.2076393647782445	brüszlötök	brüszöztök	1	tek	3	39	FALSE	FALSE	high	reversed	FALSE	FALSE	NA	NA
hungarian-esp_esp_participant_SESSION_2022-11-30_18h03.08.668.csv	SN2010	nő	1998	18	8	posttest trial	170	János imád míjozni, ezért sokat míjzik. Mi ritkán...	míjozunk	míjzunk	0	míjozunk	NA	NA	5521	1133857	cselekszenek/cselekednek	cselekszenek_3_high_reversed	9	míjzik / míjozik	0.1941560144409574	míjzunk	míjozunk	1	ünk	3	23	FALSE	FALSE	high	reversed	TRUE	FALSE	NA	NA
hungarian-esp_esp_participant_SESSION_2022-11-30_18h03.08.668.csv	SN2010	nő	1998	18	8	posttest trial	171	János imád brivágozni, ezért sokat briváglik. Ők ritkán...	briváglanak	brivágoznak	0	briváglanak	NA	NA	3398	1137765	cselekszenek/cselekednek	cselekszenek_3_high_reversed	9	briváglik / brivágozik	-0.2876820724517809	briváglanak	brivágoznak	2	nek	3	40	FALSE	TRUE	high	reversed	TRUE	TRUE	NA	NA
hungarian-esp_esp_participant_SESSION_2022-11-30_18h03.08.668.csv	SN2010	nő	1998	18	8	posttest trial	172	János imád prazozni, ezért sokat prazlik. Mi ritkán...	prazlunk	prazozunk	0	prazlunk	NA	NA	8778	1147053	cselekszenek/cselekednek	cselekszenek_3_high_reversed	9	prazlik / prazozik	-0.1941560144409575	prazlunk	prazozunk	1	ünk	3	38	FALSE	FALSE	high	reversed	TRUE	TRUE	NA	NA
hungarian-esp_esp_participant_SESSION_2022-11-30_18h03.08.668.csv	SN2010	nő	1998	18	8	posttest trial	173	János imád mihágozni, ezért sokat mihágzik. Ti ritkán...	mihágoztok	mihágzotok	0	mihágoztok	NA	NA	3315	1150885	cselekszenek/cselekednek	cselekszenek_3_high_reversed	9	mihágzik / mihágozik	-0.7419373447293773	mihágzotok	mihágoztok	2	tek	3	51	FALSE	TRUE	high	reversed	TRUE	FALSE	NA	NA
hungarian-esp_esp_participant_SESSION_2022-11-30_21h35.37.901.csv	3841398	nő	1999	18	10	esp trial	11	János imád flivegezni, ezért sokat flivegzik. Ők ritkán...	flivegzenek	flivegeznek	0	flivegzenek	flivegzenek	TRUE	5127	131000	cselekszenek/cselekednek	cselekszenek_3_low_reversed	11	flivegzik / flivegezik	-0.3483066942682157	flivegzenek	flivegeznek	2	nek	3	44	FALSE	TRUE	low	reversed	TRUE	TRUE	TRUE	FALSE
hungarian-esp_esp_participant_SESSION_2022-11-30_21h35.37.901.csv	3841398	nő	1999	18	10	esp trial	13	János imád spalározni, ezért sokat spalárzik. Ők ritkán...	spalároznak	spalárzanak	1	spalárzanak	spalároznak	FALSE	2939	139206	cselekszenek/cselekednek	cselekszenek_3_low_reversed	11	spalárzik / spalározik	-0.1431008436406733	spalárzanak	spalároznak	2	nek	3	37	FALSE	FALSE	low	reversed	FALSE	TRUE	FALSE	FALSE
hungarian-esp_esp_participant_SESSION_2022-11-30_21h35.37.901.csv	3841398	nő	1999	18	10	esp trial	15	János imád bregezni, ezért sokat bregzik. Mi ritkán...	bregzünk	bregezünk	0	bregzünk	bregezünk	FALSE	5131	148342	cselekszenek/cselekednek	cselekszenek_3_low_reversed	11	bregzik / bregezik	0.49247648509779424	bregzünk	bregezünk	1	ünk	3	10	TRUE	FALSE	low	reversed	TRUE	TRUE	FALSE	FALSE
hungarian-esp_esp_participant_SESSION_2022-11-30_21h35.37.901.csv	3841398	nő	1999	18	10	esp trial	17	János imád fröjözni, ezért sokat fröjlik. Mi ritkán...	fröjlünk	fröjözünk	1	fröjözünk	fröjözünk	TRUE	7162	159510	cselekszenek/cselekednek	cselekszenek_3_low_reversed	11	fröjlik / fröjözik	0.32542240043462795	fröjlünk	fröjözünk	1	ünk	3	18	FALSE	FALSE	low	reversed	FALSE	FALSE	FALSE	TRUE
hungarian-esp_esp_participant_SESSION_2022-11-30_21h35.37.901.csv	3841398	nő	1999	18	10	esp trial	19	János imád mísozni, ezért sokat míslik. Mi ritkán...	míslunk	mísozunk	1	mísozunk	mísozunk	TRUE	5036	168550	cselekszenek/cselekednek	cselekszenek_3_low_reversed	11	míslik / mísozik	0.3483066942682158	míslunk	mísozunk	1	ünk	3	16	FALSE	FALSE	low	reversed	FALSE	FALSE	FALSE	TRUE
hungarian-esp_esp_participant_SESSION_2022-11-30_21h35.37.901.csv	3841398	nő	1999	18	10	esp trial	21	János imád sztritozni, ezért sokat sztritlik. Ők ritkán...	sztritlanak	sztritoznak	1	sztritoznak	sztritoznak	TRUE	4826	177380	cselekszenek/cselekednek	cselekszenek_3_low_reversed	11	sztritlik / sztritozik	0.14310084364067324	sztritlanak	sztritoznak	1	nek	3	25	FALSE	FALSE	low	reversed	FALSE	FALSE	FALSE	TRUE
hungarian-esp_esp_participant_SESSION_2022-11-30_21h35.37.901.csv	3841398	nő	1999	18	10	esp trial	23	János imád trűnyözni, ezért sokat trűnylik. Ők ritkán...	trűnylenek	trűnyöznek	1	trűnyöznek	trűnyöznek	TRUE	6566	187951	cselekszenek/cselekednek	cselekszenek_3_low_reversed	11	trűnylik / trűnyözik	0	trűnylenek	trűnyöznek	1	nek	3	32	FALSE	FALSE	low	reversed	FALSE	FALSE	FALSE	TRUE
hungarian-esp_esp_participant_SESSION_2022-11-30_21h35.37.901.csv	3841398	nő	1999	18	10	esp trial	25	János imád sztrajozni, ezért sokat sztrajlik. Ők ritkán...	sztrajoznak	sztrajlanak	0	sztrajoznak	sztrajoznak	TRUE	5011	196966	cselekszenek/cselekednek	cselekszenek_3_low_reversed	11	sztrajlik / sztrajozik	0.49247648509779424	sztrajlanak	sztrajoznak	1	nek	3	11	TRUE	FALSE	low	reversed	TRUE	FALSE	FALSE	TRUE
hungarian-esp_esp_participant_SESSION_2022-11-30_21h35.37.901.csv	3841398	nő	1999	18	10	esp trial	27	János imád frivamozni, ezért sokat frivamlik. Mi ritkán...	frivamozunk	frivamlunk	0	frivamozunk	frivamozunk	TRUE	5288	206258	cselekszenek/cselekednek	cselekszenek_3_low_reversed	11	frivamlik / frivamozik	0.7419373447293773	frivamlunk	frivamozunk	2	ünk	3	4	TRUE	FALSE	low	reversed	TRUE	FALSE	FALSE	TRUE
hungarian-esp_esp_participant_SESSION_2022-11-30_21h35.37.901.csv	3841398	nő	1999	18	10	esp trial	29	János imád sprigozni, ezért sokat sprigzik. Ti ritkán...	sprigzotok	sprigoztok	1	sprigoztok	sprigzotok	FALSE	5860	216122	cselekszenek/cselekednek	cselekszenek_3_low_reversed	11	sprigzik / sprigozik	-1.4271163556401458	sprigzotok	sprigoztok	1	tek	3	54	FALSE	TRUE	low	reversed	FALSE	FALSE	TRUE	TRUE
hungarian-esp_esp_participant_SESSION_2022-11-30_21h35.37.901.csv	3841398	nő	1999	18	10	esp trial	31	János imád flézezni, ezért sokat flézlik. Ti ritkán...	flézletek	flézeztek	0	flézletek	flézletek	TRUE	7375	227500	cselekszenek/cselekednek	cselekszenek_3_low_reversed	11	flézlik / flézezik	-0.4595323293784402	flézletek	flézeztek	1	tek	3	47	FALSE	TRUE	low	reversed	TRUE	TRUE	TRUE	FALSE
hungarian-esp_esp_participant_SESSION_2022-11-30_21h35.37.901.csv	3841398	nő	1999	18	10	esp trial	33	János imád pekedni, ezért sokat pekszik. Mi ritkán...	pekszünk	pekedünk	1	pekedünk	pekedünk	TRUE	4494	235998	cselekszenek/cselekednek	cselekszenek_3_low_reversed	11	pekszik / pekedik	0.7985076962177716	pekszünk	pekedünk	1	ünk	3	3	TRUE	FALSE	low	reversed	FALSE	FALSE	FALSE	TRUE
hungarian-esp_esp_participant_SESSION_2022-11-30_21h35.37.901.csv	3841398	nő	1999	18	10	esp trial	35	János imád brivepedni, ezért sokat brivepszik. Mi ritkán...	brivepedünk	brivepszünk	1	brivepszünk	brivepedünk	FALSE	6591	246592	cselekszenek/cselekednek	cselekszenek_3_low_reversed	11	brivepszik / brivepedik	0.9162907318741552	brivepszünk	brivepedünk	2	ünk	3	1	TRUE	FALSE	low	reversed	FALSE	TRUE	FALSE	FALSE
hungarian-esp_esp_participant_SESSION_2022-11-30_21h35.37.901.csv	3841398	nő	1999	18	10	esp trial	37	János imád lírozni, ezért sokat lírlik. Ők ritkán...	lírlanak	líroznak	1	líroznak	líroznak	TRUE	3767	254796	cselekszenek/cselekednek	cselekszenek_3_low_reversed	11	lírlik / lírozik	-0.06453852113757118	lírlanak	líroznak	1	nek	3	33	FALSE	FALSE	low	reversed	FALSE	FALSE	FALSE	TRUE
hungarian-esp_esp_participant_SESSION_2022-11-30_21h35.37.901.csv	3841398	nő	1999	18	10	esp trial	39	János imád spöközni, ezért sokat spöklik. Mi ritkán...	spöközünk	spöklünk	1	spöklünk	spöközünk	FALSE	5645	264444	cselekszenek/cselekednek	cselekszenek_3_low_reversed	11	spöklik / spöközik	0.5978370007556204	spöklünk	spöközünk	1	ünk	3	8	TRUE	FALSE	low	reversed	FALSE	TRUE	FALSE	FALSE
hungarian-esp_esp_participant_SESSION_2022-11-30_21h35.37.901.csv	3841398	nő	1999	18	10	esp trial	41	János imád flubokozni, ezért sokat fluboklik. Ti ritkán...	fluboklotok	flubokoztok	1	flubokoztok	fluboklotok	FALSE	6615	275062	cselekszenek/cselekednek	cselekszenek_3_low_reversed	11	fluboklik / flubokozik	-0.5978370007556204	fluboklotok	flubokoztok	2	tek	3	49	FALSE	TRUE	low	reversed	FALSE	FALSE	TRUE	TRUE
hungarian-esp_esp_participant_SESSION_2022-11-30_21h35.37.901.csv	3841398	nő	1999	18	10	esp trial	43	János imád tibarozni, ezért sokat tibarzik. Ők ritkán...	tibarzanak	tibaroznak	0	tibarzanak	tibaroznak	FALSE	3429	283266	cselekszenek/cselekednek	cselekszenek_3_low_reversed	11	tibarzik / tibarozik	0	tibarzanak	tibaroznak	2	nek	3	31	FALSE	FALSE	low	reversed	TRUE	TRUE	FALSE	FALSE
hungarian-esp_esp_participant_SESSION_2022-11-30_21h35.37.901.csv	3841398	nő	1999	18	10	esp trial	45	János imád frésezni, ezért sokat fréslik. Mi ritkán...	frésezünk	fréslünk	0	frésezünk	frésezünk	TRUE	3880	291470	cselekszenek/cselekednek	cselekszenek_3_low_reversed	11	fréslik / frésezik	0.5978370007556204	fréslünk	frésezünk	1	ünk	3	7	TRUE	FALSE	low	reversed	TRUE	FALSE	FALSE	TRUE
hungarian-esp_esp_participant_SESSION_2022-11-30_21h35.37.901.csv	3841398	nő	1999	18	10	esp trial	47	János imád tágarozni, ezért sokat tágarzik. Mi ritkán...	tágarzunk	tágarozunk	1	tágarozunk	tágarozunk	TRUE	7783	303258	cselekszenek/cselekednek	cselekszenek_3_low_reversed	11	tágarzik / tágarozik	-0.06899287148695143	tágarzunk	tágarozunk	2	ünk	3	36	FALSE	FALSE	low	reversed	FALSE	FALSE	FALSE	TRUE
hungarian-esp_esp_participant_SESSION_2022-11-30_21h35.37.901.csv	3841398	nő	1999	18	10	esp trial	49	János imád mihágozni, ezért sokat mihágzik. Ti ritkán...	mihágoztok	mihágzotok	0	mihágoztok	mihágzotok	FALSE	6158	313420	cselekszenek/cselekednek	cselekszenek_3_low_reversed	11	mihágzik / mihágozik	-0.7419373447293773	mihágzotok	mihágoztok	2	tek	3	51	FALSE	TRUE	low	reversed	TRUE	FALSE	TRUE	TRUE
hungarian-esp_esp_participant_SESSION_2022-11-30_21h35.37.901.csv	3841398	nő	1999	18	10	esp trial	51	János imád livényezni, ezért sokat livénylik. Mi ritkán...	livényezünk	livénylünk	0	livényezünk	livényezünk	TRUE	4716	322137	cselekszenek/cselekednek	cselekszenek_3_low_reversed	11	livénylik / livényezik	0.4595323293784402	livénylünk	livényezünk	2	ünk	3	12	TRUE	FALSE	low	reversed	TRUE	FALSE	FALSE	TRUE
hungarian-esp_esp_participant_SESSION_2022-11-30_21h35.37.901.csv	3841398	nő	1999	18	10	esp trial	53	János imád pörözni, ezért sokat pörzik. Ti ritkán...	pöröztök	pörzötök	0	pöröztök	pörzötök	FALSE	4975	331116	cselekszenek/cselekednek	cselekszenek_3_low_reversed	11	pörzik / pörözik	-0.3483066942682157	pörzötök	pöröztök	1	tek	3	45	FALSE	TRUE	low	reversed	TRUE	FALSE	TRUE	TRUE
hungarian-esp_esp_participant_SESSION_2022-11-30_21h35.37.901.csv	3841398	nő	1999	18	10	esp trial	55	János imád trírozni, ezért sokat trírzik. Mi ritkán...	trírzunk	trírozunk	1	trírozunk	trírozunk	TRUE	5445	340564	cselekszenek/cselekednek	cselekszenek_3_low_reversed	11	trírzik / trírozik	-0.06453852113757118	trírzunk	trírozunk	1	ünk	3	34	FALSE	FALSE	low	reversed	FALSE	FALSE	FALSE	TRUE
hungarian-esp_esp_participant_SESSION_2022-11-30_21h35.37.901.csv	3841398	nő	1999	18	10	esp trial	57	János imád kluzozni, ezért sokat kluzlik. Ti ritkán...	kluzlotok	kluzoztok	1	kluzoztok	kluzlotok	FALSE	4408	348976	cselekszenek/cselekednek	cselekszenek_3_low_reversed	11	kluzlik / kluzozik	-0.325422400434628	kluzlotok	kluzoztok	1	tek	3	43	FALSE	TRUE	low	reversed	FALSE	FALSE	TRUE	TRUE
hungarian-esp_esp_participant_SESSION_2022-11-30_21h35.37.901.csv	3841398	nő	1999	18	10	esp trial	59	János imád spibamozni, ezért sokat spibamlik. Ők ritkán...	spibamlanak	spibamoznak	0	spibamlanak	spibamoznak	FALSE	3603	357179	cselekszenek/cselekednek	cselekszenek_3_low_reversed	11	spibamlik / spibamozik	0.5877866649021191	spibamlanak	spibamoznak	2	nek	3	9	TRUE	FALSE	low	reversed	TRUE	TRUE	FALSE	FALSE
hungarian-esp_esp_participant_SESSION_2022-11-30_21h35.37.901.csv	3841398	nő	1999	18	10	esp trial	61	János imád frihegezni, ezért sokat friheglik. Mi ritkán...	frihegezünk	friheglünk	1	friheglünk	frihegezünk	FALSE	5823	367006	cselekszenek/cselekednek	cselekszenek_3_low_reversed	11	friheglik / frihegezik	0.06899287148695142	friheglünk	frihegezünk	2	ünk	3	27	FALSE	FALSE	low	reversed	FALSE	TRUE	FALSE	FALSE
hungarian-esp_esp_participant_SESSION_2022-11-30_21h35.37.901.csv	3841398	nő	1999	18	10	esp trial	63	János imád prazozni, ezért sokat prazlik. Mi ritkán...	prazlunk	prazozunk	0	prazlunk	prazozunk	FALSE	1317	375210	cselekszenek/cselekednek	cselekszenek_3_low_reversed	11	prazlik / prazozik	-0.1941560144409575	prazlunk	prazozunk	1	ünk	3	38	FALSE	FALSE	low	reversed	TRUE	TRUE	FALSE	FALSE
hungarian-esp_esp_participant_SESSION_2022-11-30_21h35.37.901.csv	3841398	nő	1999	18	10	esp trial	65	János imád hákodni, ezért sokat hákszik. Ők ritkán...	hákodnak	hákszanak	0	hákodnak	hákodnak	TRUE	10649	389862	cselekszenek/cselekednek	cselekszenek_3_low_reversed	11	hákszik / hákodik	0.06453852113757116	hákszanak	hákodnak	1	nek	3	29	FALSE	FALSE	low	reversed	TRUE	FALSE	FALSE	TRUE
hungarian-esp_esp_participant_SESSION_2022-11-30_21h35.37.901.csv	3841398	nő	1999	18	10	esp trial	67	János imád gyivepedni, ezért sokat gyivepszik. Ők ritkán...	gyivepszenek	gyivepednek	1	gyivepednek	gyivepednek	TRUE	7208	401074	cselekszenek/cselekednek	cselekszenek_3_low_reversed	11	gyivepszik / gyivepedik	0.20763936477824457	gyivepszenek	gyivepednek	2	nek	3	21	FALSE	FALSE	low	reversed	FALSE	FALSE	FALSE	TRUE
hungarian-esp_esp_participant_SESSION_2022-11-30_21h35.37.901.csv	3841398	nő	1999	18	10	esp trial	69	János imád brálamozni, ezért sokat brálamlik. Ők ritkán...	brálamoznak	brálamlanak	0	brálamoznak	brálamoznak	TRUE	7444	412522	cselekszenek/cselekednek	cselekszenek_3_low_reversed	11	brálamlik / brálamozik	0.4353180712578455	brálamlanak	brálamoznak	2	nek	3	13	TRUE	FALSE	low	reversed	TRUE	FALSE	FALSE	TRUE
hungarian-esp_esp_participant_SESSION_2022-11-30_21h35.37.901.csv	3841398	nő	1999	18	10	esp trial	71	János imád gibemezni, ezért sokat gibemlik. Mi ritkán...	gibemlünk	gibemezünk	1	gibemezünk	gibemezünk	TRUE	5405	421930	cselekszenek/cselekednek	cselekszenek_3_low_reversed	11	gibemlik / gibemezik	0.4353180712578455	gibemlünk	gibemezünk	2	ünk	3	14	TRUE	FALSE	low	reversed	FALSE	FALSE	FALSE	TRUE
hungarian-esp_esp_participant_SESSION_2022-11-30_21h35.37.901.csv	3841398	nő	1999	18	10	esp trial	73	János imád dirányozni, ezért sokat diránylik. Ők ritkán...	diránylanak	dirányoznak	1	dirányoznak	dirányoznak	TRUE	8665	434599	cselekszenek/cselekednek	cselekszenek_3_low_reversed	11	diránylik / dirányozik	-0.06899287148695143	diránylanak	dirányoznak	2	nek	3	35	FALSE	FALSE	low	reversed	FALSE	FALSE	FALSE	TRUE
hungarian-esp_esp_participant_SESSION_2022-11-30_21h35.37.901.csv	3841398	nő	1999	18	10	esp trial	75	János imád galározni, ezért sokat galárzik. Ők ritkán...	galároznak	galárzanak	0	galároznak	galárzanak	FALSE	5901	444506	cselekszenek/cselekednek	cselekszenek_3_low_reversed	11	galárzik / galározik	-0.49247648509779407	galárzanak	galároznak	2	nek	3	48	FALSE	TRUE	low	reversed	TRUE	FALSE	TRUE	TRUE
hungarian-esp_esp_participant_SESSION_2022-11-30_21h35.37.901.csv	3841398	nő	1999	18	10	esp trial	77	János imád pehégedni, ezért sokat pehégszik. Ti ritkán...	pehégszetek	pehégedtek	1	pehégedtek	pehégedtek	TRUE	3276	452710	cselekszenek/cselekednek	cselekszenek_3_low_reversed	11	pehégszik / pehégedik	0.4353180712578455	pehégszetek	pehégedtek	2	tek	3	15	TRUE	FALSE	low	reversed	FALSE	FALSE	FALSE	TRUE
hungarian-esp_esp_participant_SESSION_2022-11-30_21h35.37.901.csv	3841398	nő	1999	18	10	esp trial	79	János imád vobozni, ezért sokat vobzik. Ti ritkán...	voboztok	vobzotok	0	voboztok	vobzotok	FALSE	5116	461830	cselekszenek/cselekednek	cselekszenek_3_low_reversed	11	vobzik / vobozik	-0.2876820724517809	vobzotok	voboztok	1	tek	3	42	FALSE	TRUE	low	reversed	TRUE	FALSE	TRUE	TRUE
hungarian-esp_esp_participant_SESSION_2022-11-30_21h35.37.901.csv	3841398	nő	1999	18	10	esp trial	81	János imád lumozni, ezért sokat lumlik. Ti ritkán...	lumlotok	lumoztok	1	lumoztok	lumlotok	FALSE	1049	470034	cselekszenek/cselekednek	cselekszenek_3_low_reversed	11	lumlik / lumozik	-0.2876820724517809	lumlotok	lumoztok	1	tek	3	41	FALSE	TRUE	low	reversed	FALSE	FALSE	TRUE	TRUE
hungarian-esp_esp_participant_SESSION_2022-11-30_21h35.37.901.csv	3841398	nő	1999	18	10	esp trial	83	János imád sponyozni, ezért sokat sponylik. Ők ritkán...	sponylanak	sponyoznak	0	sponylanak	sponyoznak	FALSE	1011	478238	cselekszenek/cselekednek	cselekszenek_3_low_reversed	11	sponylik / sponyozik	0.7419373447293773	sponylanak	sponyoznak	1	nek	3	5	TRUE	FALSE	low	reversed	TRUE	TRUE	FALSE	FALSE
hungarian-esp_esp_participant_SESSION_2022-11-30_21h35.37.901.csv	3841398	nő	1999	18	10	esp trial	85	János imád riványozni, ezért sokat riványlik. Ti ritkán...	riványoztok	riványlotok	0	riványoztok	riványoztok	TRUE	3539	486443	cselekszenek/cselekednek	cselekszenek_3_low_reversed	11	riványlik / riványozik	0.06899287148695142	riványlotok	riványoztok	2	tek	3	28	FALSE	FALSE	low	reversed	TRUE	FALSE	FALSE	TRUE
hungarian-esp_esp_participant_SESSION_2022-11-30_21h35.37.901.csv	3841398	nő	1999	18	10	esp trial	87	János imád küsözni, ezért sokat küslik. Mi ritkán...	küslünk	küsözünk	1	küsözünk	küsözünk	TRUE	3086	494647	cselekszenek/cselekednek	cselekszenek_3_low_reversed	11	küslik / küsözik	0.6418538861723947	küslünk	küsözünk	1	ünk	3	6	TRUE	FALSE	low	reversed	FALSE	FALSE	FALSE	TRUE
hungarian-esp_esp_participant_SESSION_2022-11-30_21h35.37.901.csv	3841398	nő	1999	18	10	esp trial	89	János imád brározni, ezért sokat brárlik. Ők ritkán...	brárlanak	brároznak	1	brároznak	brároznak	TRUE	4970	503620	cselekszenek/cselekednek	cselekszenek_3_low_reversed	11	brárlik / brározik	0.14310084364067324	brárlanak	brároznak	1	nek	3	24	FALSE	FALSE	low	reversed	FALSE	FALSE	FALSE	TRUE
