dat_id	record_date	part_id	part_gender	part_yob	part_edu	list_number	trial_kind	trial_index	stimulus	choice1	choice2	response	response_string	esp_response	esp_match	rt	time_elapsed	file_name	variation	column	base	log_odds	variant1	variant2	nsyl	suffix	sample_number	word_rank	top_20	bottom_20	reg_rate	reg_dist	picked_left	picked_v1	esp_v1	picked_majority
hungarian-esp_esp_participant_SESSION_2023-06-19_16h41.14.732.csv	2023-06-19T16:41:00Z	600e8770316e2671811f49ac	Férfi	1997	17	2	esp trial	11	Te bizony sokat sojzol. Én is sokat...	sojzok	sojzom	0	sojzok	sojzok	TRUE	3789	117693	lakok_1_low_reversed	lakok/lakom	27	sojzik	-0.4595323293784402	sojzok	sojzom	1	NA	1	46	FALSE	TRUE	low	reversed	TRUE	TRUE	TRUE	FALSE
hungarian-esp_esp_participant_SESSION_2023-06-19_16h41.14.732.csv	2023-06-19T16:41:00Z	600e8770316e2671811f49ac	Férfi	1997	17	2	esp trial	13	Te bizony sokat szirlasz. Én is sokat...	szirlok	szirlom	0	szirlok	szirlom	FALSE	2726	129621	lakok_1_low_reversed	lakok/lakom	27	szirlik	0.7419373447293773	szirlok	szirlom	1	NA	1	18	FALSE	FALSE	low	reversed	TRUE	TRUE	FALSE	FALSE
hungarian-esp_esp_participant_SESSION_2023-06-19_16h41.14.732.csv	2023-06-19T16:41:00Z	600e8770316e2671811f49ac	Férfi	1997	17	2	esp trial	15	Te bizony sokat klörlesz. Én is sokat...	klörlöm	klörlök	1	klörlök	klörlöm	FALSE	4883	141537	lakok_1_low_reversed	lakok/lakom	27	klörlik	0.6418538861723947	klörlök	klörlöm	1	NA	1	19	FALSE	FALSE	low	reversed	FALSE	TRUE	FALSE	FALSE
hungarian-esp_esp_participant_SESSION_2023-06-19_16h41.14.732.csv	2023-06-19T16:41:00Z	600e8770316e2671811f49ac	Férfi	1997	17	2	esp trial	17	Te bizony sokat pivegszel. Én is sokat...	pivegszem	pivegszek	0	pivegszem	pivegszek	FALSE	4186	153456	lakok_1_low_reversed	lakok/lakom	27	pivegszik	-0.8938178760220964	pivegszek	pivegszem	2	NA	1	53	FALSE	TRUE	low	reversed	TRUE	FALSE	TRUE	TRUE
hungarian-esp_esp_participant_SESSION_2023-06-19_16h41.14.732.csv	2023-06-19T16:41:00Z	600e8770316e2671811f49ac	Férfi	1997	17	2	esp trial	19	Te bizony sokat marzol. Én is sokat...	marzom	marzok	1	marzok	marzom	FALSE	4220	165372	lakok_1_low_reversed	lakok/lakom	27	marzik	0.7985076962177716	marzok	marzom	1	NA	1	14	TRUE	FALSE	low	reversed	FALSE	TRUE	FALSE	FALSE
hungarian-esp_esp_participant_SESSION_2023-06-19_16h41.14.732.csv	2023-06-19T16:41:00Z	600e8770316e2671811f49ac	Férfi	1997	17	2	esp trial	21	Te bizony sokat ribegzel. Én is sokat...	ribegzek	ribegzem	1	ribegzem	ribegzem	TRUE	2010	177297	lakok_1_low_reversed	lakok/lakom	27	ribegzik	-0.1941560144409575	ribegzek	ribegzem	2	NA	1	38	FALSE	FALSE	low	reversed	FALSE	FALSE	FALSE	TRUE
hungarian-esp_esp_participant_SESSION_2023-06-19_16h41.14.732.csv	2023-06-19T16:41:00Z	600e8770316e2671811f49ac	Férfi	1997	17	2	esp trial	23	Te bizony sokat sűzlesz. Én is sokat...	sűzlök	sűzlöm	1	sűzlöm	sűzlöm	TRUE	1725	189210	lakok_1_low_reversed	lakok/lakom	27	sűzlik	0.14310084364067324	sűzlök	sűzlöm	1	NA	1	29	FALSE	FALSE	low	reversed	FALSE	FALSE	FALSE	TRUE
hungarian-esp_esp_participant_SESSION_2023-06-19_16h41.14.732.csv	2023-06-19T16:41:00Z	600e8770316e2671811f49ac	Férfi	1997	17	2	esp trial	25	Te bizony sokat brüjlesz. Én is sokat...	brüjlöm	brüjlök	0	brüjlöm	brüjlöm	TRUE	1599	201126	lakok_1_low_reversed	lakok/lakom	27	brüjlik	0.7472144018302211	brüjlök	brüjlöm	1	NA	1	15	TRUE	FALSE	low	reversed	TRUE	FALSE	FALSE	TRUE
hungarian-esp_esp_participant_SESSION_2023-06-19_16h41.14.732.csv	2023-06-19T16:41:00Z	600e8770316e2671811f49ac	Férfi	1997	17	2	esp trial	27	Te bizony sokat flüröslesz. Én is sokat...	flüröslök	flüröslöm	1	flüröslöm	flüröslöm	TRUE	1907	213038	lakok_1_low_reversed	lakok/lakom	27	flüröslik	0.7419373447293773	flüröslök	flüröslöm	2	NA	1	17	FALSE	FALSE	low	reversed	FALSE	FALSE	FALSE	TRUE
hungarian-esp_esp_participant_SESSION_2023-06-19_16h41.14.732.csv	2023-06-19T16:41:00Z	600e8770316e2671811f49ac	Férfi	1997	17	2	esp trial	29	Te bizony sokat siladzol. Én is sokat...	siladzok	siladzom	1	siladzom	siladzok	FALSE	2249	224967	lakok_1_low_reversed	lakok/lakom	27	siladzik	-0.4353180712578455	siladzok	siladzom	2	NA	1	45	FALSE	TRUE	low	reversed	FALSE	FALSE	TRUE	TRUE
hungarian-esp_esp_participant_SESSION_2023-06-19_16h41.14.732.csv	2023-06-19T16:41:00Z	600e8770316e2671811f49ac	Férfi	1997	17	2	esp trial	31	Te bizony sokat tiregzel. Én is sokat...	tiregzem	tiregzek	0	tiregzem	tiregzem	TRUE	1847	236884	lakok_1_low_reversed	lakok/lakom	27	tiregzik	0.06453852113757116	tiregzek	tiregzem	2	NA	1	32	FALSE	FALSE	low	reversed	TRUE	FALSE	FALSE	TRUE
hungarian-esp_esp_participant_SESSION_2023-06-19_16h41.14.732.csv	2023-06-19T16:41:00Z	600e8770316e2671811f49ac	Férfi	1997	17	2	esp trial	33	Te bizony sokat pebzel. Én is sokat...	pebzek	pebzem	1	pebzem	pebzem	TRUE	2035	248817	lakok_1_low_reversed	lakok/lakom	27	pebzik	0.49247648509779424	pebzek	pebzem	1	NA	1	21	FALSE	FALSE	low	reversed	FALSE	FALSE	FALSE	TRUE
hungarian-esp_esp_participant_SESSION_2023-06-19_16h41.14.732.csv	2023-06-19T16:41:00Z	600e8770316e2671811f49ac	Férfi	1997	17	2	esp trial	35	Te bizony sokat vilakszol. Én is sokat...	vilakszok	vilakszom	1	vilakszom	vilakszok	FALSE	1113	260735	lakok_1_low_reversed	lakok/lakom	27	vilakszik	-0.7985076962177716	vilakszok	vilakszom	2	NA	1	52	FALSE	TRUE	low	reversed	FALSE	FALSE	TRUE	TRUE
hungarian-esp_esp_participant_SESSION_2023-06-19_16h41.14.732.csv	2023-06-19T16:41:00Z	600e8770316e2671811f49ac	Férfi	1997	17	2	esp trial	37	Te bizony sokat frilegszel. Én is sokat...	frilegszek	frilegszem	1	frilegszem	frilegszek	FALSE	1290	272653	lakok_1_low_reversed	lakok/lakom	27	frilegszik	-0.2876820724517809	frilegszek	frilegszem	2	NA	1	40	FALSE	TRUE	low	reversed	FALSE	FALSE	TRUE	TRUE
hungarian-esp_esp_participant_SESSION_2023-06-19_16h41.14.732.csv	2023-06-19T16:41:00Z	600e8770316e2671811f49ac	Férfi	1997	17	2	esp trial	39	Te bizony sokat prilegzel. Én is sokat...	prilegzek	prilegzem	1	prilegzem	prilegzek	FALSE	1105	284574	lakok_1_low_reversed	lakok/lakom	27	prilegzik	-0.3483066942682157	prilegzek	prilegzem	2	NA	1	43	FALSE	TRUE	low	reversed	FALSE	FALSE	TRUE	TRUE
hungarian-esp_esp_participant_SESSION_2023-06-19_16h41.14.732.csv	2023-06-19T16:41:00Z	600e8770316e2671811f49ac	Férfi	1997	17	2	esp trial	41	Te bizony sokat tomlasz. Én is sokat...	tomlok	tomlom	1	tomlom	tomlom	TRUE	1758	296488	lakok_1_low_reversed	lakok/lakom	27	tomlik	2.2335922215070942	tomlok	tomlom	1	NA	1	1	TRUE	FALSE	low	reversed	FALSE	FALSE	FALSE	TRUE
hungarian-esp_esp_participant_SESSION_2023-06-19_16h41.14.732.csv	2023-06-19T16:41:00Z	600e8770316e2671811f49ac	Férfi	1997	17	2	esp trial	43	Te bizony sokat pratánylasz. Én is sokat...	pratánylok	pratánylom	1	pratánylom	pratánylom	TRUE	1217	308394	lakok_1_low_reversed	lakok/lakom	27	pratánylik	1.2321436812926323	pratánylok	pratánylom	2	NA	1	7	TRUE	FALSE	low	reversed	FALSE	FALSE	FALSE	TRUE
hungarian-esp_esp_participant_SESSION_2023-06-19_16h41.14.732.csv	2023-06-19T16:41:00Z	600e8770316e2671811f49ac	Férfi	1997	17	2	esp trial	45	Te bizony sokat juszlasz. Én is sokat...	juszlok	juszlom	1	juszlom	juszlom	TRUE	2108	320314	lakok_1_low_reversed	lakok/lakom	27	juszlik	0.4595323293784402	juszlok	juszlom	1	NA	1	22	FALSE	FALSE	low	reversed	FALSE	FALSE	FALSE	TRUE
hungarian-esp_esp_participant_SESSION_2023-06-19_16h41.14.732.csv	2023-06-19T16:41:00Z	600e8770316e2671811f49ac	Férfi	1997	17	2	esp trial	47	Te bizony sokat nyáslasz. Én is sokat...	nyáslok	nyáslom	1	nyáslom	nyáslom	TRUE	2593	332223	lakok_1_low_reversed	lakok/lakom	27	nyáslik	0.5877866649021191	nyáslok	nyáslom	1	NA	1	20	FALSE	FALSE	low	reversed	FALSE	FALSE	FALSE	TRUE
hungarian-esp_esp_participant_SESSION_2023-06-19_16h41.14.732.csv	2023-06-19T16:41:00Z	600e8770316e2671811f49ac	Férfi	1997	17	2	esp trial	49	Te bizony sokat spatárzol. Én is sokat...	spatárzok	spatárzom	1	spatárzom	spatárzom	TRUE	1255	344138	lakok_1_low_reversed	lakok/lakom	27	spatárzik	-0.06453852113757118	spatárzok	spatárzom	2	NA	1	35	FALSE	FALSE	low	reversed	FALSE	FALSE	FALSE	TRUE
hungarian-esp_esp_participant_SESSION_2023-06-19_16h41.14.732.csv	2023-06-19T16:41:00Z	600e8770316e2671811f49ac	Férfi	1997	17	2	esp trial	51	Te bizony sokat fibamlasz. Én is sokat...	fibamlom	fibamlok	0	fibamlom	fibamlom	TRUE	1484	356066	lakok_1_low_reversed	lakok/lakom	27	fibamlik	1.9095425048844383	fibamlok	fibamlom	2	NA	1	2	TRUE	FALSE	low	reversed	TRUE	FALSE	FALSE	TRUE
hungarian-esp_esp_participant_SESSION_2023-06-19_16h41.14.732.csv	2023-06-19T16:41:00Z	600e8770316e2671811f49ac	Férfi	1997	17	2	esp trial	53	Te bizony sokat ribzol. Én is sokat...	ribzok	ribzom	1	ribzom	ribzok	FALSE	1435	367981	lakok_1_low_reversed	lakok/lakom	27	ribzik	-0.5978370007556204	ribzok	ribzom	1	NA	1	49	FALSE	TRUE	low	reversed	FALSE	FALSE	TRUE	TRUE
hungarian-esp_esp_participant_SESSION_2023-06-19_16h41.14.732.csv	2023-06-19T16:41:00Z	600e8770316e2671811f49ac	Férfi	1997	17	2	esp trial	55	Te bizony sokat málapszol. Én is sokat...	málapszok	málapszom	1	málapszom	málapszom	TRUE	1473	379915	lakok_1_low_reversed	lakok/lakom	27	málapszik	-0.06899287148695143	málapszok	málapszom	2	NA	1	36	FALSE	FALSE	low	reversed	FALSE	FALSE	FALSE	TRUE
hungarian-esp_esp_participant_SESSION_2023-06-19_16h41.14.732.csv	2023-06-19T16:41:00Z	600e8770316e2671811f49ac	Férfi	1997	17	2	esp trial	57	Te bizony sokat spilágzol. Én is sokat...	spilágzok	spilágzom	1	spilágzom	spilágzok	FALSE	2022	392153	lakok_1_low_reversed	lakok/lakom	27	spilágzik	-0.9650808960435872	spilágzok	spilágzom	2	NA	1	54	FALSE	TRUE	low	reversed	FALSE	FALSE	TRUE	TRUE
hungarian-esp_esp_participant_SESSION_2023-06-19_16h41.14.732.csv	2023-06-19T16:41:00Z	600e8770316e2671811f49ac	Férfi	1997	17	2	esp trial	59	Te bizony sokat prűrlesz. Én is sokat...	prűrlöm	prűrlök	0	prűrlöm	prűrlöm	TRUE	1251	404542	lakok_1_low_reversed	lakok/lakom	27	prűrlik	0.9162907318741552	prűrlök	prűrlöm	1	NA	1	12	TRUE	FALSE	low	reversed	TRUE	FALSE	FALSE	TRUE
hungarian-esp_esp_participant_SESSION_2023-06-19_16h41.14.732.csv	2023-06-19T16:41:00Z	600e8770316e2671811f49ac	Férfi	1997	17	2	esp trial	61	Te bizony sokat büglesz. Én is sokat...	büglök	büglöm	1	büglöm	büglöm	TRUE	1453	416461	lakok_1_low_reversed	lakok/lakom	27	büglik	0.9162907318741552	büglök	büglöm	1	NA	1	11	TRUE	FALSE	low	reversed	FALSE	FALSE	FALSE	TRUE
hungarian-esp_esp_participant_SESSION_2023-06-19_16h41.14.732.csv	2023-06-19T16:41:00Z	600e8770316e2671811f49ac	Férfi	1997	17	2	esp trial	63	Te bizony sokat sprökszöl. Én is sokat...	sprökszöm	sprökszök	0	sprökszöm	sprökszök	FALSE	1341	428392	lakok_1_low_reversed	lakok/lakom	27	sprökszik	-0.2876820724517809	sprökszök	sprökszöm	1	NA	1	41	FALSE	TRUE	low	reversed	TRUE	FALSE	TRUE	TRUE
hungarian-esp_esp_participant_SESSION_2023-06-19_16h41.14.732.csv	2023-06-19T16:41:00Z	600e8770316e2671811f49ac	Férfi	1997	17	2	esp trial	65	Te bizony sokat lorjódzol. Én is sokat...	lorjódzok	lorjódzom	1	lorjódzom	lorjódzom	TRUE	1617	440311	lakok_1_low_reversed	lakok/lakom	27	lorjódzik	-0.1941560144409575	lorjódzok	lorjódzom	2	NA	1	37	FALSE	FALSE	low	reversed	FALSE	FALSE	FALSE	TRUE
hungarian-esp_esp_participant_SESSION_2023-06-19_16h41.14.732.csv	2023-06-19T16:41:00Z	600e8770316e2671811f49ac	Férfi	1997	17	2	esp trial	67	Te bizony sokat klibamlasz. Én is sokat...	klibamlom	klibamlok	1	klibamlok	klibamlom	FALSE	1945	452231	lakok_1_low_reversed	lakok/lakom	27	klibamlik	0.4353180712578455	klibamlok	klibamlom	2	NA	1	23	FALSE	FALSE	low	reversed	FALSE	TRUE	FALSE	FALSE
hungarian-esp_esp_participant_SESSION_2023-06-19_16h41.14.732.csv	2023-06-19T16:41:00Z	600e8770316e2671811f49ac	Férfi	1997	17	2	esp trial	69	Te bizony sokat jüslesz. Én is sokat...	jüslök	jüslöm	1	jüslöm	jüslöm	TRUE	1586	464149	lakok_1_low_reversed	lakok/lakom	27	jüslik	0.965080896043587	jüslök	jüslöm	1	NA	1	10	TRUE	FALSE	low	reversed	FALSE	FALSE	FALSE	TRUE
hungarian-esp_esp_participant_SESSION_2023-06-19_16h41.14.732.csv	2023-06-19T16:41:00Z	600e8770316e2671811f49ac	Férfi	1997	17	2	esp trial	71	Te bizony sokat spűmlesz. Én is sokat...	spűmlök	spűmlöm	1	spűmlöm	spűmlöm	TRUE	1784	476060	lakok_1_low_reversed	lakok/lakom	27	spűmlik	1.5686159179138452	spűmlök	spűmlöm	1	NA	1	5	TRUE	FALSE	low	reversed	FALSE	FALSE	FALSE	TRUE
hungarian-esp_esp_participant_SESSION_2023-06-19_16h41.14.732.csv	2023-06-19T16:41:00Z	600e8770316e2671811f49ac	Férfi	1997	17	2	esp trial	73	Te bizony sokat flagárzol. Én is sokat...	flagárzok	flagárzom	1	flagárzom	flagárzom	TRUE	1527	487975	lakok_1_low_reversed	lakok/lakom	27	flagárzik	-0.2076393647782445	flagárzok	flagárzom	2	NA	1	39	FALSE	FALSE	low	reversed	FALSE	FALSE	FALSE	TRUE
hungarian-esp_esp_participant_SESSION_2023-06-19_16h41.14.732.csv	2023-06-19T16:41:00Z	600e8770316e2671811f49ac	Férfi	1997	17	2	esp trial	75	Te bizony sokat spéslesz. Én is sokat...	spéslek	spéslem	1	spéslem	spéslem	TRUE	1501	499896	lakok_1_low_reversed	lakok/lakom	27	spéslik	1.1451323043030026	spéslek	spéslem	1	NA	1	8	TRUE	FALSE	low	reversed	FALSE	FALSE	FALSE	TRUE
hungarian-esp_esp_participant_SESSION_2023-06-19_16h41.14.732.csv	2023-06-19T16:41:00Z	600e8770316e2671811f49ac	Férfi	1997	17	2	esp trial	77	Te bizony sokat tínylasz. Én is sokat...	tínylom	tínylok	0	tínylom	tínylom	TRUE	1675	511818	lakok_1_low_reversed	lakok/lakom	27	tínylik	0.4353180712578455	tínylok	tínylom	1	NA	1	24	FALSE	FALSE	low	reversed	TRUE	FALSE	FALSE	TRUE
hungarian-esp_esp_participant_SESSION_2023-06-19_16h41.14.732.csv	2023-06-19T16:41:00Z	600e8770316e2671811f49ac	Férfi	1997	17	2	esp trial	79	Te bizony sokat trilszol. Én is sokat...	trilszok	trilszom	1	trilszom	trilszom	TRUE	1516	523747	lakok_1_low_reversed	lakok/lakom	27	trilszik	0.28768207245178085	trilszok	trilszom	1	NA	1	27	FALSE	FALSE	low	reversed	FALSE	FALSE	FALSE	TRUE
hungarian-esp_esp_participant_SESSION_2023-06-19_16h41.14.732.csv	2023-06-19T16:41:00Z	600e8770316e2671811f49ac	Férfi	1997	17	2	esp trial	81	Te bizony sokat piragszol. Én is sokat...	piragszok	piragszom	1	piragszom	piragszok	FALSE	2294	535656	lakok_1_low_reversed	lakok/lakom	27	piragszik	-0.587786664902119	piragszok	piragszom	2	NA	1	47	FALSE	TRUE	low	reversed	FALSE	FALSE	TRUE	TRUE
hungarian-esp_esp_participant_SESSION_2023-06-19_16h41.14.732.csv	2023-06-19T16:41:00Z	600e8770316e2671811f49ac	Férfi	1997	17	2	esp trial	83	Te bizony sokat fretszel. Én is sokat...	fretszek	fretszem	1	fretszem	fretszem	TRUE	1255	547607	lakok_1_low_reversed	lakok/lakom	27	fretszik	0	fretszek	fretszem	1	NA	1	33	FALSE	FALSE	low	reversed	FALSE	FALSE	FALSE	TRUE
hungarian-esp_esp_participant_SESSION_2023-06-19_16h41.14.732.csv	2023-06-19T16:41:00Z	600e8770316e2671811f49ac	Férfi	1997	17	2	esp trial	85	Te bizony sokat sztremlesz. Én is sokat...	sztremlek	sztremlem	1	sztremlem	sztremlem	TRUE	930	559525	lakok_1_low_reversed	lakok/lakom	27	sztremlik	1.3437347467010947	sztremlek	sztremlem	1	NA	1	6	TRUE	FALSE	low	reversed	FALSE	FALSE	FALSE	TRUE
hungarian-esp_esp_participant_SESSION_2023-06-19_16h41.14.732.csv	2023-06-19T16:41:00Z	600e8770316e2671811f49ac	Férfi	1997	17	2	esp trial	87	Te bizony sokat femlesz. Én is sokat...	femlek	femlem	1	femlem	femlem	TRUE	4030	571458	lakok_1_low_reversed	lakok/lakom	27	femlik	1.6486586255873816	femlek	femlem	1	NA	1	3	TRUE	FALSE	low	reversed	FALSE	FALSE	FALSE	TRUE
hungarian-esp_esp_participant_SESSION_2023-06-19_16h41.14.732.csv	2023-06-19T16:41:00Z	600e8770316e2671811f49ac	Férfi	1997	17	2	esp trial	89	Te bizony sokat hilarzol. Én is sokat...	hilarzom	hilarzok	0	hilarzom	hilarzom	TRUE	2049	583362	lakok_1_low_reversed	lakok/lakom	27	hilarzik	0.06899287148695142	hilarzok	hilarzom	2	NA	1	30	FALSE	FALSE	low	reversed	TRUE	FALSE	FALSE	TRUE
hungarian-esp_esp_participant_SESSION_2023-06-19_16h41.14.732.csv	2023-06-19T16:41:00Z	600e8770316e2671811f49ac	Férfi	1997	17	2	esp trial	91	Te bizony sokat spibaklasz. Én is sokat...	spibaklom	spibaklok	0	spibaklom	spibaklom	TRUE	1368	595276	lakok_1_low_reversed	lakok/lakom	27	spibaklik	0.06899287148695142	spibaklok	spibaklom	2	NA	1	31	FALSE	FALSE	low	reversed	TRUE	FALSE	FALSE	TRUE
hungarian-esp_esp_participant_SESSION_2023-06-19_16h41.14.732.csv	2023-06-19T16:41:00Z	600e8770316e2671811f49ac	Férfi	1997	17	2	esp trial	93	Te bizony sokat feténylesz. Én is sokat...	feténylem	feténylek	0	feténylem	feténylem	TRUE	1532	607183	lakok_1_low_reversed	lakok/lakom	27	feténylik	1.5686159179138452	feténylek	feténylem	2	NA	1	4	TRUE	FALSE	low	reversed	TRUE	FALSE	FALSE	TRUE
hungarian-esp_esp_participant_SESSION_2023-06-19_16h41.14.732.csv	2023-06-19T16:41:00Z	600e8770316e2671811f49ac	Férfi	1997	17	2	esp trial	95	Te bizony sokat flűröklesz. Én is sokat...	flűröklök	flűröklöm	1	flűröklöm	flűröklöm	TRUE	2284	619098	lakok_1_low_reversed	lakok/lakom	27	flűröklik	0.32542240043462795	flűröklök	flűröklöm	2	NA	1	26	FALSE	FALSE	low	reversed	FALSE	FALSE	FALSE	TRUE
hungarian-esp_esp_participant_SESSION_2023-06-19_16h41.14.732.csv	2023-06-19T16:41:00Z	600e8770316e2671811f49ac	Férfi	1997	17	2	esp trial	97	Te bizony sokat herégszel. Én is sokat...	herégszek	herégszem	1	herégszem	herégszek	FALSE	1129	631037	lakok_1_low_reversed	lakok/lakom	27	herégszik	-0.6418538861723948	herégszek	herégszem	2	NA	1	50	FALSE	TRUE	low	reversed	FALSE	FALSE	TRUE	TRUE
hungarian-esp_esp_participant_SESSION_2023-06-19_16h41.14.732.csv	2023-06-19T16:41:00Z	600e8770316e2671811f49ac	Férfi	1997	17	2	esp trial	99	Te bizony sokat csíszlasz. Én is sokat...	csíszlom	csíszlok	0	csíszlom	csíszlom	TRUE	1962	642949	lakok_1_low_reversed	lakok/lakom	27	csíszlik	0.7419373447293773	csíszlok	csíszlom	1	NA	1	16	FALSE	FALSE	low	reversed	TRUE	FALSE	FALSE	TRUE
hungarian-esp_esp_participant_SESSION_2023-06-19_16h41.14.732.csv	2023-06-19T16:41:00Z	600e8770316e2671811f49ac	Férfi	1997	17	2	esp trial	101	Te bizony sokat driládzol. Én is sokat...	driládzom	driládzok	0	driládzom	driládzok	FALSE	1205	654858	lakok_1_low_reversed	lakok/lakom	27	driládzik	-0.5978370007556204	driládzok	driládzom	2	NA	1	48	FALSE	TRUE	low	reversed	TRUE	FALSE	TRUE	TRUE
hungarian-esp_esp_participant_SESSION_2023-06-19_16h41.14.732.csv	2023-06-19T16:41:00Z	600e8770316e2671811f49ac	Férfi	1997	17	2	esp trial	103	Te bizony sokat bölszöl. Én is sokat...	bölszöm	bölszök	0	bölszöm	bölszöm	TRUE	1761	666779	lakok_1_low_reversed	lakok/lakom	27	bölszik	0.3483066942682158	bölszök	bölszöm	1	NA	1	25	FALSE	FALSE	low	reversed	TRUE	FALSE	FALSE	TRUE
hungarian-esp_esp_participant_SESSION_2023-06-19_16h41.14.732.csv	2023-06-19T16:41:00Z	600e8770316e2671811f49ac	Férfi	1997	17	2	esp trial	105	Te bizony sokat böjzöl. Én is sokat...	böjzöm	böjzök	0	böjzöm	böjzöm	TRUE	1088	678682	lakok_1_low_reversed	lakok/lakom	27	böjzik	0.14310084364067324	böjzök	böjzöm	1	NA	1	28	FALSE	FALSE	low	reversed	TRUE	FALSE	FALSE	TRUE
hungarian-esp_esp_participant_SESSION_2023-06-19_16h41.14.732.csv	2023-06-19T16:41:00Z	600e8770316e2671811f49ac	Férfi	1997	17	2	esp trial	107	Te bizony sokat narjárzol. Én is sokat...	narjárzom	narjárzok	0	narjárzom	narjárzom	TRUE	1821	690598	lakok_1_low_reversed	lakok/lakom	27	narjárzik	0	narjárzok	narjárzom	2	NA	1	34	FALSE	FALSE	low	reversed	TRUE	FALSE	FALSE	TRUE
hungarian-esp_esp_participant_SESSION_2023-06-19_16h41.14.732.csv	2023-06-19T16:41:00Z	600e8770316e2671811f49ac	Férfi	1997	17	2	esp trial	109	Te bizony sokat ruslasz. Én is sokat...	ruslok	ruslom	1	ruslom	ruslom	TRUE	5901	702520	lakok_1_low_reversed	lakok/lakom	27	ruslik	0.8938178760220965	ruslok	ruslom	1	NA	1	13	TRUE	FALSE	low	reversed	FALSE	FALSE	FALSE	TRUE
hungarian-esp_esp_participant_SESSION_2023-06-19_16h41.14.732.csv	2023-06-19T16:41:00Z	600e8770316e2671811f49ac	Férfi	1997	17	2	esp trial	111	Te bizony sokat sprogzol. Én is sokat...	sprogzom	sprogzok	0	sprogzom	sprogzok	FALSE	2592	714428	lakok_1_low_reversed	lakok/lakom	27	sprogzik	-0.7419373447293773	sprogzok	sprogzom	1	NA	1	51	FALSE	TRUE	low	reversed	TRUE	FALSE	TRUE	TRUE
hungarian-esp_esp_participant_SESSION_2023-06-19_16h41.14.732.csv	2023-06-19T16:41:00Z	600e8770316e2671811f49ac	Férfi	1997	17	2	esp trial	113	Te bizony sokat drubódzol. Én is sokat...	drubódzom	drubódzok	0	drubódzom	drubódzok	FALSE	3367	726349	lakok_1_low_reversed	lakok/lakom	27	drubódzik	-0.4353180712578455	drubódzok	drubódzom	2	NA	1	44	FALSE	TRUE	low	reversed	TRUE	FALSE	TRUE	TRUE
hungarian-esp_esp_participant_SESSION_2023-06-19_16h41.14.732.csv	2023-06-19T16:41:00Z	600e8770316e2671811f49ac	Férfi	1997	17	2	esp trial	115	Te bizony sokat flagánylasz. Én is sokat...	flagánylok	flagánylom	1	flagánylom	flagánylom	TRUE	3188	738270	lakok_1_low_reversed	lakok/lakom	27	flagánylik	1.0560526742493137	flagánylok	flagánylom	2	NA	1	9	TRUE	FALSE	low	reversed	FALSE	FALSE	FALSE	TRUE
hungarian-esp_esp_participant_SESSION_2023-06-19_16h41.14.732.csv	2023-06-19T16:41:00Z	600e8770316e2671811f49ac	Férfi	1997	17	2	esp trial	117	Te bizony sokat brágaklasz. Én is sokat...	brágaklom	brágaklok	0	brágaklom	brágaklok	FALSE	3533	750188	lakok_1_low_reversed	lakok/lakom	27	brágaklik	-0.325422400434628	brágaklok	brágaklom	2	NA	1	42	FALSE	TRUE	low	reversed	TRUE	FALSE	TRUE	TRUE
hungarian-esp_esp_participant_SESSION_2023-06-19_16h41.14.732.csv	2023-06-19T16:41:00Z	600e8770316e2671811f49ac	Férfi	1997	17	4	posttest trial	120	Te bizony sokat plűbzöl. Én is sokat...	plűbzök	plűbzöm	1	plűbzöm	NA	NA	2484	826312	lakok_2_high_reversed	lakok/lakom	29	plűbzik	0.49247648509779424	plűbzök	plűbzöm	1	NA	2	21	FALSE	FALSE	low	reversed	FALSE	FALSE	NA	NA
hungarian-esp_esp_participant_SESSION_2023-06-19_16h41.14.732.csv	2023-06-19T16:41:00Z	600e8770316e2671811f49ac	Férfi	1997	17	4	posttest trial	121	Te bizony sokat hűgzöl. Én is sokat...	hűgzök	hűgzöm	0	hűgzök	NA	NA	3961	830788	lakok_2_high_reversed	lakok/lakom	29	hűgzik	0	hűgzök	hűgzöm	1	NA	2	33	FALSE	FALSE	low	reversed	TRUE	TRUE	NA	NA
hungarian-esp_esp_participant_SESSION_2023-06-19_16h41.14.732.csv	2023-06-19T16:41:00Z	600e8770316e2671811f49ac	Férfi	1997	17	4	posttest trial	122	Te bizony sokat düjzöl. Én is sokat...	düjzöm	düjzök	1	düjzök	NA	NA	1781	833076	lakok_2_high_reversed	lakok/lakom	29	düjzik	0	düjzök	düjzöm	1	NA	2	32	FALSE	FALSE	low	reversed	FALSE	TRUE	NA	NA
hungarian-esp_esp_participant_SESSION_2023-06-19_16h41.14.732.csv	2023-06-19T16:41:00Z	600e8770316e2671811f49ac	Férfi	1997	17	4	posttest trial	123	Te bizony sokat plugzol. Én is sokat...	plugzok	plugzom	1	plugzom	NA	NA	2068	835648	lakok_2_high_reversed	lakok/lakom	29	plugzik	-0.325422400434628	plugzok	plugzom	1	NA	2	42	FALSE	TRUE	low	reversed	FALSE	FALSE	NA	NA
hungarian-esp_esp_participant_SESSION_2023-06-19_16h41.14.732.csv	2023-06-19T16:41:00Z	600e8770316e2671811f49ac	Férfi	1997	17	4	posttest trial	124	Te bizony sokat flátszol. Én is sokat...	flátszok	flátszom	1	flátszom	NA	NA	802	836956	lakok_2_high_reversed	lakok/lakom	29	flátszik	-0.4595323293784402	flátszok	flátszom	1	NA	2	45	FALSE	TRUE	low	reversed	FALSE	FALSE	NA	NA
hungarian-esp_esp_participant_SESSION_2023-06-19_16h41.14.732.csv	2023-06-19T16:41:00Z	600e8770316e2671811f49ac	Férfi	1997	17	4	posttest trial	125	Te bizony sokat spihemlesz. Én is sokat...	spihemlek	spihemlem	0	spihemlek	NA	NA	1597	839068	lakok_2_high_reversed	lakok/lakom	29	spihemlik	2.159484249353372	spihemlek	spihemlem	2	NA	2	1	TRUE	FALSE	low	reversed	TRUE	TRUE	NA	NA
hungarian-esp_esp_participant_SESSION_2023-06-19_16h41.14.732.csv	2023-06-19T16:41:00Z	600e8770316e2671811f49ac	Férfi	1997	17	4	posttest trial	126	Te bizony sokat klivaslasz. Én is sokat...	klivaslom	klivaslok	1	klivaslok	NA	NA	729	840312	lakok_2_high_reversed	lakok/lakom	29	klivaslik	0.9162907318741552	klivaslok	klivaslom	2	NA	2	11	TRUE	FALSE	low	reversed	FALSE	TRUE	NA	NA
hungarian-esp_esp_participant_SESSION_2023-06-19_16h41.14.732.csv	2023-06-19T16:41:00Z	600e8770316e2671811f49ac	Férfi	1997	17	4	posttest trial	127	Te bizony sokat pítszol. Én is sokat...	pítszom	pítszok	1	pítszok	NA	NA	917	841739	lakok_2_high_reversed	lakok/lakom	29	pítszik	-0.49247648509779407	pítszok	pítszom	1	NA	2	46	FALSE	TRUE	low	reversed	FALSE	TRUE	NA	NA
hungarian-esp_esp_participant_SESSION_2023-06-19_16h41.14.732.csv	2023-06-19T16:41:00Z	600e8770316e2671811f49ac	Férfi	1997	17	4	posttest trial	128	Te bizony sokat filágzol. Én is sokat...	filágzok	filágzom	0	filágzok	NA	NA	683	842935	lakok_2_high_reversed	lakok/lakom	29	filágzik	-0.9650808960435872	filágzok	filágzom	2	NA	2	53	FALSE	TRUE	low	reversed	TRUE	TRUE	NA	NA
hungarian-esp_esp_participant_SESSION_2023-06-19_16h41.14.732.csv	2023-06-19T16:41:00Z	600e8770316e2671811f49ac	Férfi	1997	17	4	posttest trial	129	Te bizony sokat flehékszel. Én is sokat...	flehékszek	flehékszem	0	flehékszek	NA	NA	644	844096	lakok_2_high_reversed	lakok/lakom	29	flehékszik	-0.5978370007556204	flehékszek	flehékszem	2	NA	2	48	FALSE	TRUE	low	reversed	TRUE	TRUE	NA	NA
hungarian-esp_esp_participant_SESSION_2023-06-19_16h41.14.732.csv	2023-06-19T16:41:00Z	600e8770316e2671811f49ac	Férfi	1997	17	4	posttest trial	130	Te bizony sokat trehégszel. Én is sokat...	trehégszek	trehégszem	0	trehégszek	NA	NA	550	845160	lakok_2_high_reversed	lakok/lakom	29	trehégszik	-0.7472144018302211	trehégszek	trehégszem	2	NA	2	51	FALSE	TRUE	low	reversed	TRUE	TRUE	NA	NA
hungarian-esp_esp_participant_SESSION_2023-06-19_16h41.14.732.csv	2023-06-19T16:41:00Z	600e8770316e2671811f49ac	Férfi	1997	17	4	posttest trial	131	Te bizony sokat klétszel. Én is sokat...	klétszem	klétszek	1	klétszek	NA	NA	860	846523	lakok_2_high_reversed	lakok/lakom	29	klétszik	-0.2876820724517809	klétszek	klétszem	1	NA	2	40	FALSE	TRUE	low	reversed	FALSE	TRUE	NA	NA
hungarian-esp_esp_participant_SESSION_2023-06-19_16h41.14.732.csv	2023-06-19T16:41:00Z	600e8770316e2671811f49ac	Férfi	1997	17	4	posttest trial	132	Te bizony sokat figlasz. Én is sokat...	figlom	figlok	1	figlok	NA	NA	1163	848194	lakok_2_high_reversed	lakok/lakom	29	figlik	0.7419373447293773	figlok	figlom	1	NA	2	16	FALSE	FALSE	low	reversed	FALSE	TRUE	NA	NA
hungarian-esp_esp_participant_SESSION_2023-06-19_16h41.14.732.csv	2023-06-19T16:41:00Z	600e8770316e2671811f49ac	Férfi	1997	17	4	posttest trial	133	Te bizony sokat rokszol. Én is sokat...	rokszok	rokszom	1	rokszom	NA	NA	1257	849963	lakok_2_high_reversed	lakok/lakom	29	rokszik	-0.3483066942682157	rokszok	rokszom	1	NA	2	43	FALSE	TRUE	low	reversed	FALSE	FALSE	NA	NA
hungarian-esp_esp_participant_SESSION_2023-06-19_16h41.14.732.csv	2023-06-19T16:41:00Z	600e8770316e2671811f49ac	Férfi	1997	17	4	posttest trial	134	Te bizony sokat pribagszol. Én is sokat...	pribagszom	pribagszok	1	pribagszok	NA	NA	602	851082	lakok_2_high_reversed	lakok/lakom	29	pribagszik	-0.587786664902119	pribagszok	pribagszom	2	NA	2	47	FALSE	TRUE	low	reversed	FALSE	TRUE	NA	NA
hungarian-esp_esp_participant_SESSION_2023-06-19_16h41.14.732.csv	2023-06-19T16:41:00Z	600e8770316e2671811f49ac	Férfi	1997	17	4	posttest trial	135	Te bizony sokat spáraklasz. Én is sokat...	spáraklok	spáraklom	1	spáraklom	NA	NA	542	852131	lakok_2_high_reversed	lakok/lakom	29	spáraklik	0.4595323293784402	spáraklok	spáraklom	2	NA	2	22	FALSE	FALSE	low	reversed	FALSE	FALSE	NA	NA
hungarian-esp_esp_participant_SESSION_2023-06-19_16h41.14.732.csv	2023-06-19T16:41:00Z	600e8770316e2671811f49ac	Férfi	1997	17	4	posttest trial	136	Te bizony sokat spülűdzöl. Én is sokat...	spülűdzök	spülűdzöm	0	spülűdzök	NA	NA	610	853244	lakok_2_high_reversed	lakok/lakom	29	spülűdzik	-0.1941560144409575	spülűdzök	spülűdzöm	2	NA	2	38	FALSE	FALSE	low	reversed	TRUE	TRUE	NA	NA
hungarian-esp_esp_participant_SESSION_2023-06-19_16h41.14.732.csv	2023-06-19T16:41:00Z	600e8770316e2671811f49ac	Férfi	1997	17	4	posttest trial	137	Te bizony sokat prínylasz. Én is sokat...	prínylok	prínylom	0	prínylok	NA	NA	465	854215	lakok_2_high_reversed	lakok/lakom	29	prínylik	0.5877866649021191	prínylok	prínylom	1	NA	2	20	FALSE	FALSE	low	reversed	TRUE	TRUE	NA	NA
hungarian-esp_esp_participant_SESSION_2023-06-19_16h41.14.732.csv	2023-06-19T16:41:00Z	600e8770316e2671811f49ac	Férfi	1997	17	4	posttest trial	138	Te bizony sokat rájzol. Én is sokat...	rájzom	rájzok	1	rájzok	NA	NA	455	855174	lakok_2_high_reversed	lakok/lakom	29	rájzik	0	rájzok	rájzom	1	NA	2	34	FALSE	FALSE	low	reversed	FALSE	TRUE	NA	NA
hungarian-esp_esp_participant_SESSION_2023-06-19_16h41.14.732.csv	2023-06-19T16:41:00Z	600e8770316e2671811f49ac	Férfi	1997	17	4	posttest trial	139	Te bizony sokat brivegzel. Én is sokat...	brivegzek	brivegzem	0	brivegzek	NA	NA	499	856180	lakok_2_high_reversed	lakok/lakom	29	brivegzik	-0.8938178760220964	brivegzek	brivegzem	2	NA	2	52	FALSE	TRUE	low	reversed	TRUE	TRUE	NA	NA
hungarian-esp_esp_participant_SESSION_2023-06-19_16h41.14.732.csv	2023-06-19T16:41:00Z	600e8770316e2671811f49ac	Férfi	1997	17	4	posttest trial	140	Te bizony sokat narádzol. Én is sokat...	narádzok	narádzom	1	narádzom	NA	NA	463	857160	lakok_2_high_reversed	lakok/lakom	29	narádzik	-0.6418538861723948	narádzok	narádzom	2	NA	2	50	FALSE	TRUE	low	reversed	FALSE	FALSE	NA	NA
hungarian-esp_esp_participant_SESSION_2023-06-19_16h41.14.732.csv	2023-06-19T16:41:00Z	600e8770316e2671811f49ac	Férfi	1997	17	4	posttest trial	141	Te bizony sokat pribemlesz. Én is sokat...	pribemlem	pribemlek	1	pribemlek	NA	NA	930	858594	lakok_2_high_reversed	lakok/lakom	29	pribemlik	1.9095425048844383	pribemlek	pribemlem	2	NA	2	2	TRUE	FALSE	low	reversed	FALSE	TRUE	NA	NA
hungarian-esp_esp_participant_SESSION_2023-06-19_16h41.14.732.csv	2023-06-19T16:41:00Z	600e8770316e2671811f49ac	Férfi	1997	17	4	posttest trial	142	Te bizony sokat vülődzöl. Én is sokat...	vülődzök	vülődzöm	1	vülődzöm	NA	NA	689	859789	lakok_2_high_reversed	lakok/lakom	29	vülődzik	0.06899287148695142	vülődzök	vülődzöm	2	NA	2	31	FALSE	FALSE	low	reversed	FALSE	FALSE	NA	NA
hungarian-esp_esp_participant_SESSION_2023-06-19_16h41.14.732.csv	2023-06-19T16:41:00Z	600e8770316e2671811f49ac	Férfi	1997	17	4	posttest trial	143	Te bizony sokat vanylasz. Én is sokat...	vanylok	vanylom	1	vanylom	NA	NA	637	860930	lakok_2_high_reversed	lakok/lakom	29	vanylik	1.1451323043030026	vanylok	vanylom	1	NA	2	8	TRUE	FALSE	low	reversed	FALSE	FALSE	NA	NA
hungarian-esp_esp_participant_SESSION_2023-06-19_16h41.14.732.csv	2023-06-19T16:41:00Z	600e8770316e2671811f49ac	Férfi	1997	17	4	posttest trial	144	Te bizony sokat salárzol. Én is sokat...	salárzom	salárzok	1	salárzok	NA	NA	1266	862705	lakok_2_high_reversed	lakok/lakom	29	salárzik	0.20763936477824457	salárzok	salárzom	2	NA	2	27	FALSE	FALSE	low	reversed	FALSE	TRUE	NA	NA
hungarian-esp_esp_participant_SESSION_2023-06-19_16h41.14.732.csv	2023-06-19T16:41:00Z	600e8770316e2671811f49ac	Férfi	1997	17	4	posttest trial	145	Te bizony sokat jonylasz. Én is sokat...	jonylom	jonylok	0	jonylom	NA	NA	618	863839	lakok_2_high_reversed	lakok/lakom	29	jonylik	0.8938178760220965	jonylok	jonylom	1	NA	2	12	TRUE	FALSE	low	reversed	TRUE	FALSE	NA	NA
hungarian-esp_esp_participant_SESSION_2023-06-19_16h41.14.732.csv	2023-06-19T16:41:00Z	600e8770316e2671811f49ac	Férfi	1997	17	4	posttest trial	146	Te bizony sokat hurjorzol. Én is sokat...	hurjorzok	hurjorzom	0	hurjorzok	NA	NA	926	865279	lakok_2_high_reversed	lakok/lakom	29	hurjorzik	0.06899287148695142	hurjorzok	hurjorzom	2	NA	2	30	FALSE	FALSE	low	reversed	TRUE	TRUE	NA	NA
hungarian-esp_esp_participant_SESSION_2023-06-19_16h41.14.732.csv	2023-06-19T16:41:00Z	600e8770316e2671811f49ac	Férfi	1997	17	4	posttest trial	147	Te bizony sokat flehénylesz. Én is sokat...	flehénylem	flehénylek	0	flehénylem	NA	NA	982	866769	lakok_2_high_reversed	lakok/lakom	29	flehénylik	1.5686159179138452	flehénylek	flehénylem	2	NA	2	4	TRUE	FALSE	low	reversed	TRUE	FALSE	NA	NA
hungarian-esp_esp_participant_SESSION_2023-06-19_16h41.14.732.csv	2023-06-19T16:41:00Z	600e8770316e2671811f49ac	Férfi	1997	17	4	posttest trial	148	Te bizony sokat píjlasz. Én is sokat...	píjlom	píjlok	1	píjlok	NA	NA	827	868105	lakok_2_high_reversed	lakok/lakom	29	píjlik	0.6418538861723947	píjlok	píjlom	1	NA	2	19	FALSE	FALSE	low	reversed	FALSE	TRUE	NA	NA
hungarian-esp_esp_participant_SESSION_2023-06-19_16h41.14.732.csv	2023-06-19T16:41:00Z	600e8770316e2671811f49ac	Férfi	1997	17	4	posttest trial	149	Te bizony sokat trádlasz. Én is sokat...	trádlok	trádlom	0	trádlok	NA	NA	515	869126	lakok_2_high_reversed	lakok/lakom	29	trádlik	0.4353180712578455	trádlok	trádlom	1	NA	2	24	FALSE	FALSE	low	reversed	TRUE	TRUE	NA	NA
hungarian-esp_esp_participant_SESSION_2023-06-19_16h41.14.732.csv	2023-06-19T16:41:00Z	600e8770316e2671811f49ac	Férfi	1997	17	4	posttest trial	150	Te bizony sokat flitlasz. Én is sokat...	flitlok	flitlom	0	flitlok	NA	NA	397	870028	lakok_2_high_reversed	lakok/lakom	29	flitlik	1.6486586255873816	flitlok	flitlom	1	NA	2	3	TRUE	FALSE	low	reversed	TRUE	TRUE	NA	NA
hungarian-esp_esp_participant_SESSION_2023-06-19_16h41.14.732.csv	2023-06-19T16:41:00Z	600e8770316e2671811f49ac	Férfi	1997	17	4	posttest trial	151	Te bizony sokat gyibeslesz. Én is sokat...	gyibeslek	gyibeslem	0	gyibeslek	NA	NA	402	870936	lakok_2_high_reversed	lakok/lakom	29	gyibeslik	0.6418538861723947	gyibeslek	gyibeslem	2	NA	2	18	FALSE	FALSE	low	reversed	TRUE	TRUE	NA	NA
hungarian-esp_esp_participant_SESSION_2023-06-19_16h41.14.732.csv	2023-06-19T16:41:00Z	600e8770316e2671811f49ac	Férfi	1997	17	4	posttest trial	152	Te bizony sokat szibánylasz. Én is sokat...	szibánylok	szibánylom	0	szibánylok	NA	NA	464	871901	lakok_2_high_reversed	lakok/lakom	29	szibánylik	0.7985076962177716	szibánylok	szibánylom	2	NA	2	14	TRUE	FALSE	low	reversed	TRUE	TRUE	NA	NA
hungarian-esp_esp_participant_SESSION_2023-06-19_16h41.14.732.csv	2023-06-19T16:41:00Z	600e8770316e2671811f49ac	Férfi	1997	17	4	posttest trial	153	Te bizony sokat sztrijzol. Én is sokat...	sztrijzok	sztrijzom	1	sztrijzom	NA	NA	691	873097	lakok_2_high_reversed	lakok/lakom	29	sztrijzik	0.14310084364067324	sztrijzok	sztrijzom	1	NA	2	29	FALSE	FALSE	low	reversed	FALSE	FALSE	NA	NA
hungarian-esp_esp_participant_SESSION_2023-06-19_16h41.14.732.csv	2023-06-19T16:41:00Z	600e8770316e2671811f49ac	Férfi	1997	17	4	posttest trial	154	Te bizony sokat bihánylasz. Én is sokat...	bihánylom	bihánylok	1	bihánylok	NA	NA	559	874160	lakok_2_high_reversed	lakok/lakom	29	bihánylik	1.2992829841302609	bihánylok	bihánylom	2	NA	2	6	TRUE	FALSE	low	reversed	FALSE	TRUE	NA	NA
hungarian-esp_esp_participant_SESSION_2023-06-19_16h41.14.732.csv	2023-06-19T16:41:00Z	600e8770316e2671811f49ac	Férfi	1997	17	4	posttest trial	155	Te bizony sokat spubonylasz. Én is sokat...	spubonylok	spubonylom	0	spubonylok	NA	NA	555	875223	lakok_2_high_reversed	lakok/lakom	29	spubonylik	1.2321436812926323	spubonylok	spubonylom	2	NA	2	7	TRUE	FALSE	low	reversed	TRUE	TRUE	NA	NA
hungarian-esp_esp_participant_SESSION_2023-06-19_16h41.14.732.csv	2023-06-19T16:41:00Z	600e8770316e2671811f49ac	Férfi	1997	17	4	posttest trial	156	Te bizony sokat treglesz. Én is sokat...	treglem	treglek	0	treglem	NA	NA	353	876090	lakok_2_high_reversed	lakok/lakom	29	treglik	0.7472144018302211	treglek	treglem	1	NA	2	15	TRUE	FALSE	low	reversed	TRUE	FALSE	NA	NA
hungarian-esp_esp_participant_SESSION_2023-06-19_16h41.14.732.csv	2023-06-19T16:41:00Z	600e8770316e2671811f49ac	Férfi	1997	17	4	posttest trial	157	Te bizony sokat frodlasz. Én is sokat...	frodlom	frodlok	1	frodlok	NA	NA	692	877286	lakok_2_high_reversed	lakok/lakom	29	frodlik	0.7419373447293773	frodlok	frodlom	1	NA	2	17	FALSE	FALSE	low	reversed	FALSE	TRUE	NA	NA
hungarian-esp_esp_participant_SESSION_2023-06-19_16h41.14.732.csv	2023-06-19T16:41:00Z	600e8770316e2671811f49ac	Férfi	1997	17	4	posttest trial	158	Te bizony sokat sztrozlasz. Én is sokat...	sztrozlok	sztrozlom	0	sztrozlok	NA	NA	552	878356	lakok_2_high_reversed	lakok/lakom	29	sztrozlik	0.4353180712578455	sztrozlok	sztrozlom	1	NA	2	23	FALSE	FALSE	low	reversed	TRUE	TRUE	NA	NA
hungarian-esp_esp_participant_SESSION_2023-06-19_16h41.14.732.csv	2023-06-19T16:41:00Z	600e8770316e2671811f49ac	Férfi	1997	17	4	posttest trial	159	Te bizony sokat tragzol. Én is sokat...	tragzok	tragzom	1	tragzom	NA	NA	437	879308	lakok_2_high_reversed	lakok/lakom	29	tragzik	-0.06899287148695143	tragzok	tragzom	1	NA	2	36	FALSE	FALSE	low	reversed	FALSE	FALSE	NA	NA
hungarian-esp_esp_participant_SESSION_2023-06-19_16h41.14.732.csv	2023-06-19T16:41:00Z	600e8770316e2671811f49ac	Férfi	1997	17	4	posttest trial	160	Te bizony sokat spüjzöl. Én is sokat...	spüjzöm	spüjzök	1	spüjzök	NA	NA	683	880497	lakok_2_high_reversed	lakok/lakom	29	spüjzik	0.8938178760220965	spüjzök	spüjzöm	1	NA	2	13	TRUE	FALSE	low	reversed	FALSE	TRUE	NA	NA
hungarian-esp_esp_participant_SESSION_2023-06-19_16h41.14.732.csv	2023-06-19T16:41:00Z	600e8770316e2671811f49ac	Férfi	1997	17	4	posttest trial	161	Te bizony sokat brubzol. Én is sokat...	brubzok	brubzom	0	brubzok	NA	NA	1266	882265	lakok_2_high_reversed	lakok/lakom	29	brubzik	0.3483066942682158	brubzok	brubzom	1	NA	2	25	FALSE	FALSE	low	reversed	TRUE	TRUE	NA	NA
hungarian-esp_esp_participant_SESSION_2023-06-19_16h41.14.732.csv	2023-06-19T16:41:00Z	600e8770316e2671811f49ac	Férfi	1997	17	4	posttest trial	162	Te bizony sokat lörűdzöl. Én is sokat...	lörűdzök	lörűdzöm	0	lörűdzök	NA	NA	1525	884303	lakok_2_high_reversed	lakok/lakom	29	lörűdzik	-0.2076393647782445	lörűdzök	lörűdzöm	2	NA	2	39	FALSE	FALSE	low	reversed	TRUE	TRUE	NA	NA
hungarian-esp_esp_participant_SESSION_2023-06-19_16h41.14.732.csv	2023-06-19T16:41:00Z	600e8770316e2671811f49ac	Férfi	1997	17	4	posttest trial	163	Te bizony sokat nűröklesz. Én is sokat...	nűröklök	nűröklöm	1	nűröklöm	NA	NA	522	885331	lakok_2_high_reversed	lakok/lakom	29	nűröklik	-0.1941560144409575	nűröklök	nűröklöm	2	NA	2	37	FALSE	FALSE	low	reversed	FALSE	FALSE	NA	NA
hungarian-esp_esp_participant_SESSION_2023-06-19_16h41.14.732.csv	2023-06-19T16:41:00Z	600e8770316e2671811f49ac	Férfi	1997	17	4	posttest trial	164	Te bizony sokat spihegzel. Én is sokat...	spihegzek	spihegzem	0	spihegzek	NA	NA	912	886750	lakok_2_high_reversed	lakok/lakom	29	spihegzik	-0.06453852113757118	spihegzek	spihegzem	2	NA	2	35	FALSE	FALSE	low	reversed	TRUE	TRUE	NA	NA
hungarian-esp_esp_participant_SESSION_2023-06-19_16h41.14.732.csv	2023-06-19T16:41:00Z	600e8770316e2671811f49ac	Férfi	1997	17	4	posttest trial	165	Te bizony sokat flűmlesz. Én is sokat...	flűmlöm	flűmlök	1	flűmlök	NA	NA	1093	888346	lakok_2_high_reversed	lakok/lakom	29	flűmlik	1.4271163556401458	flűmlök	flűmlöm	1	NA	2	5	TRUE	FALSE	low	reversed	FALSE	TRUE	NA	NA
hungarian-esp_esp_participant_SESSION_2023-06-19_16h41.14.732.csv	2023-06-19T16:41:00Z	600e8770316e2671811f49ac	Férfi	1997	17	4	posttest trial	166	Te bizony sokat brobódzol. Én is sokat...	brobódzom	brobódzok	0	brobódzom	NA	NA	964	889821	lakok_2_high_reversed	lakok/lakom	29	brobódzik	-0.6418538861723948	brobódzok	brobódzom	2	NA	2	49	FALSE	TRUE	low	reversed	TRUE	FALSE	NA	NA
hungarian-esp_esp_participant_SESSION_2023-06-19_16h41.14.732.csv	2023-06-19T16:41:00Z	600e8770316e2671811f49ac	Férfi	1997	17	4	posttest trial	167	Te bizony sokat ibékszel. Én is sokat...	ibékszek	ibékszem	0	ibékszek	NA	NA	665	890989	lakok_2_high_reversed	lakok/lakom	29	ibékszik	-0.4353180712578455	ibékszek	ibékszem	2	NA	2	44	FALSE	TRUE	low	reversed	TRUE	TRUE	NA	NA
hungarian-esp_esp_participant_SESSION_2023-06-19_16h41.14.732.csv	2023-06-19T16:41:00Z	600e8770316e2671811f49ac	Férfi	1997	17	4	posttest trial	168	Te bizony sokat bűtszöl. Én is sokat...	bűtszök	bűtszöm	1	bűtszöm	NA	NA	961	892464	lakok_2_high_reversed	lakok/lakom	29	bűtszik	0.14310084364067324	bűtszök	bűtszöm	1	NA	2	28	FALSE	FALSE	low	reversed	FALSE	FALSE	NA	NA
hungarian-esp_esp_participant_SESSION_2023-06-19_16h41.14.732.csv	2023-06-19T16:41:00Z	600e8770316e2671811f49ac	Férfi	1997	17	4	posttest trial	169	Te bizony sokat klaráglasz. Én is sokat...	klaráglom	klaráglok	0	klaráglom	NA	NA	528	893499	lakok_2_high_reversed	lakok/lakom	29	klaráglik	0.965080896043587	klaráglok	klaráglom	2	NA	2	10	TRUE	FALSE	low	reversed	TRUE	FALSE	NA	NA
hungarian-esp_esp_participant_SESSION_2023-06-19_16h41.14.732.csv	2023-06-19T16:41:00Z	600e8770316e2671811f49ac	Férfi	1997	17	4	posttest trial	170	Te bizony sokat spröbzöl. Én is sokat...	spröbzöm	spröbzök	0	spröbzöm	NA	NA	674	894681	lakok_2_high_reversed	lakok/lakom	29	spröbzik	0.28768207245178085	spröbzök	spröbzöm	1	NA	2	26	FALSE	FALSE	low	reversed	TRUE	FALSE	NA	NA
hungarian-esp_esp_participant_SESSION_2023-06-19_16h41.14.732.csv	2023-06-19T16:41:00Z	600e8770316e2671811f49ac	Férfi	1997	17	4	posttest trial	171	Te bizony sokat sztrűkszöl. Én is sokat...	sztrűkszök	sztrűkszöm	0	sztrűkszök	NA	NA	766	895954	lakok_2_high_reversed	lakok/lakom	29	sztrűkszik	-0.2876820724517809	sztrűkszök	sztrűkszöm	1	NA	2	41	FALSE	TRUE	low	reversed	TRUE	TRUE	NA	NA
hungarian-esp_esp_participant_SESSION_2023-06-19_16h41.14.732.csv	2023-06-19T16:41:00Z	600e8770316e2671811f49ac	Férfi	1997	17	4	posttest trial	172	Te bizony sokat bivégszel. Én is sokat...	bivégszem	bivégszek	1	bivégszek	NA	NA	473	896933	lakok_2_high_reversed	lakok/lakom	29	bivégszik	-1.0560526742493137	bivégszek	bivégszem	2	NA	2	54	FALSE	TRUE	low	reversed	FALSE	TRUE	NA	NA
hungarian-esp_esp_participant_SESSION_2023-06-19_16h41.14.732.csv	2023-06-19T16:41:00Z	600e8770316e2671811f49ac	Férfi	1997	17	4	posttest trial	173	Te bizony sokat huroslasz. Én is sokat...	huroslom	huroslok	0	huroslom	NA	NA	677	898115	lakok_2_high_reversed	lakok/lakom	29	huroslik	1.0560526742493137	huroslok	huroslom	2	NA	2	9	TRUE	FALSE	low	reversed	TRUE	FALSE	NA	NA
hungarian-esp_esp_participant_SESSION_2023-06-19_16h50.46.22.csv	2023-06-19T16:50:00Z	6107aa76ee9845023fb0cb80	nő	1999	17	2	esp trial	11	Te bizony sokat ribegzel. Én is sokat...	ribegzek	ribegzem	1	ribegzem	ribegzem	TRUE	8435	226377	lakok_1_low_reversed	lakok/lakom	27	ribegzik	-0.1941560144409575	ribegzek	ribegzem	2	NA	1	38	FALSE	FALSE	low	reversed	FALSE	FALSE	FALSE	TRUE
hungarian-esp_esp_participant_SESSION_2023-06-19_16h50.46.22.csv	2023-06-19T16:50:00Z	6107aa76ee9845023fb0cb80	nő	1999	17	2	esp trial	13	Te bizony sokat juszlasz. Én is sokat...	juszlok	juszlom	1	juszlom	juszlom	TRUE	4333	238278	lakok_1_low_reversed	lakok/lakom	27	juszlik	0.4595323293784402	juszlok	juszlom	1	NA	1	22	FALSE	FALSE	low	reversed	FALSE	FALSE	FALSE	TRUE
hungarian-esp_esp_participant_SESSION_2023-06-19_16h50.46.22.csv	2023-06-19T16:50:00Z	6107aa76ee9845023fb0cb80	nő	1999	17	2	esp trial	15	Te bizony sokat sprökszöl. Én is sokat...	sprökszök	sprökszöm	1	sprökszöm	sprökszök	FALSE	5497	250174	lakok_1_low_reversed	lakok/lakom	27	sprökszik	-0.2876820724517809	sprökszök	sprökszöm	1	NA	1	41	FALSE	TRUE	low	reversed	FALSE	FALSE	TRUE	TRUE
hungarian-esp_esp_participant_SESSION_2023-06-19_16h50.46.22.csv	2023-06-19T16:50:00Z	6107aa76ee9845023fb0cb80	nő	1999	17	2	esp trial	17	Te bizony sokat spatárzol. Én is sokat...	spatárzok	spatárzom	0	spatárzok	spatárzom	FALSE	7721	262070	lakok_1_low_reversed	lakok/lakom	27	spatárzik	-0.06453852113757118	spatárzok	spatárzom	2	NA	1	35	FALSE	FALSE	low	reversed	TRUE	TRUE	FALSE	FALSE
hungarian-esp_esp_participant_SESSION_2023-06-19_16h50.46.22.csv	2023-06-19T16:50:00Z	6107aa76ee9845023fb0cb80	nő	1999	17	2	esp trial	19	Te bizony sokat spűmlesz. Én is sokat...	spűmlöm	spűmlök	1	spűmlök	spűmlöm	FALSE	6243	273967	lakok_1_low_reversed	lakok/lakom	27	spűmlik	1.5686159179138452	spűmlök	spűmlöm	1	NA	1	5	TRUE	FALSE	low	reversed	FALSE	TRUE	FALSE	FALSE
hungarian-esp_esp_participant_SESSION_2023-06-19_16h50.46.22.csv	2023-06-19T16:50:00Z	6107aa76ee9845023fb0cb80	nő	1999	17	2	esp trial	21	Te bizony sokat flagánylasz. Én is sokat...	flagánylok	flagánylom	0	flagánylok	flagánylom	FALSE	8336	286309	lakok_1_low_reversed	lakok/lakom	27	flagánylik	1.0560526742493137	flagánylok	flagánylom	2	NA	1	9	TRUE	FALSE	low	reversed	TRUE	TRUE	FALSE	FALSE
hungarian-esp_esp_participant_SESSION_2023-06-19_16h50.46.22.csv	2023-06-19T16:50:00Z	6107aa76ee9845023fb0cb80	nő	1999	17	2	esp trial	23	Te bizony sokat böjzöl. Én is sokat...	böjzöm	böjzök	0	böjzöm	böjzöm	TRUE	7073	298206	lakok_1_low_reversed	lakok/lakom	27	böjzik	0.14310084364067324	böjzök	böjzöm	1	NA	1	28	FALSE	FALSE	low	reversed	TRUE	FALSE	FALSE	TRUE
hungarian-esp_esp_participant_SESSION_2023-06-19_16h50.46.22.csv	2023-06-19T16:50:00Z	6107aa76ee9845023fb0cb80	nő	1999	17	2	esp trial	25	Te bizony sokat ruslasz. Én is sokat...	ruslom	ruslok	0	ruslom	ruslom	TRUE	14532	316746	lakok_1_low_reversed	lakok/lakom	27	ruslik	0.8938178760220965	ruslok	ruslom	1	NA	1	13	TRUE	FALSE	low	reversed	TRUE	FALSE	FALSE	TRUE
hungarian-esp_esp_participant_SESSION_2023-06-19_16h50.46.22.csv	2023-06-19T16:50:00Z	6107aa76ee9845023fb0cb80	nő	1999	17	2	esp trial	27	Te bizony sokat sojzol. Én is sokat...	sojzom	sojzok	0	sojzom	sojzok	FALSE	6269	328642	lakok_1_low_reversed	lakok/lakom	27	sojzik	-0.4595323293784402	sojzok	sojzom	1	NA	1	46	FALSE	TRUE	low	reversed	TRUE	FALSE	TRUE	TRUE
hungarian-esp_esp_participant_SESSION_2023-06-19_16h50.46.22.csv	2023-06-19T16:50:00Z	6107aa76ee9845023fb0cb80	nő	1999	17	2	esp trial	29	Te bizony sokat flagárzol. Én is sokat...	flagárzom	flagárzok	1	flagárzok	flagárzom	FALSE	11005	343654	lakok_1_low_reversed	lakok/lakom	27	flagárzik	-0.2076393647782445	flagárzok	flagárzom	2	NA	1	39	FALSE	FALSE	low	reversed	FALSE	TRUE	FALSE	FALSE
hungarian-esp_esp_participant_SESSION_2023-06-19_16h50.46.22.csv	2023-06-19T16:50:00Z	6107aa76ee9845023fb0cb80	nő	1999	17	2	esp trial	31	Te bizony sokat pratánylasz. Én is sokat...	pratánylom	pratánylok	0	pratánylom	pratánylom	TRUE	3976	355550	lakok_1_low_reversed	lakok/lakom	27	pratánylik	1.2321436812926323	pratánylok	pratánylom	2	NA	1	7	TRUE	FALSE	low	reversed	TRUE	FALSE	FALSE	TRUE
hungarian-esp_esp_participant_SESSION_2023-06-19_16h50.46.22.csv	2023-06-19T16:50:00Z	6107aa76ee9845023fb0cb80	nő	1999	17	2	esp trial	33	Te bizony sokat brüjlesz. Én is sokat...	brüjlök	brüjlöm	0	brüjlök	brüjlöm	FALSE	5444	367445	lakok_1_low_reversed	lakok/lakom	27	brüjlik	0.7472144018302211	brüjlök	brüjlöm	1	NA	1	15	TRUE	FALSE	low	reversed	TRUE	TRUE	FALSE	FALSE
hungarian-esp_esp_participant_SESSION_2023-06-19_16h50.46.22.csv	2023-06-19T16:50:00Z	6107aa76ee9845023fb0cb80	nő	1999	17	2	esp trial	35	Te bizony sokat drubódzol. Én is sokat...	drubódzok	drubódzom	1	drubódzom	drubódzok	FALSE	4672	379342	lakok_1_low_reversed	lakok/lakom	27	drubódzik	-0.4353180712578455	drubódzok	drubódzom	2	NA	1	44	FALSE	TRUE	low	reversed	FALSE	FALSE	TRUE	TRUE
hungarian-esp_esp_participant_SESSION_2023-06-19_16h50.46.22.csv	2023-06-19T16:50:00Z	6107aa76ee9845023fb0cb80	nő	1999	17	2	esp trial	37	Te bizony sokat flűröklesz. Én is sokat...	flűröklök	flűröklöm	1	flűröklöm	flűröklöm	TRUE	6280	391238	lakok_1_low_reversed	lakok/lakom	27	flűröklik	0.32542240043462795	flűröklök	flűröklöm	2	NA	1	26	FALSE	FALSE	low	reversed	FALSE	FALSE	FALSE	TRUE
hungarian-esp_esp_participant_SESSION_2023-06-19_16h50.46.22.csv	2023-06-19T16:50:00Z	6107aa76ee9845023fb0cb80	nő	1999	17	2	esp trial	39	Te bizony sokat hilarzol. Én is sokat...	hilarzom	hilarzok	0	hilarzom	hilarzom	TRUE	4790	403133	lakok_1_low_reversed	lakok/lakom	27	hilarzik	0.06899287148695142	hilarzok	hilarzom	2	NA	1	30	FALSE	FALSE	low	reversed	TRUE	FALSE	FALSE	TRUE
hungarian-esp_esp_participant_SESSION_2023-06-19_16h50.46.22.csv	2023-06-19T16:50:00Z	6107aa76ee9845023fb0cb80	nő	1999	17	2	esp trial	41	Te bizony sokat femlesz. Én is sokat...	femlem	femlek	1	femlek	femlem	FALSE	4233	415029	lakok_1_low_reversed	lakok/lakom	27	femlik	1.6486586255873816	femlek	femlem	1	NA	1	3	TRUE	FALSE	low	reversed	FALSE	TRUE	FALSE	FALSE
hungarian-esp_esp_participant_SESSION_2023-06-19_16h50.46.22.csv	2023-06-19T16:50:00Z	6107aa76ee9845023fb0cb80	nő	1999	17	2	esp trial	43	Te bizony sokat narjárzol. Én is sokat...	narjárzom	narjárzok	0	narjárzom	narjárzom	TRUE	5365	426925	lakok_1_low_reversed	lakok/lakom	27	narjárzik	0	narjárzok	narjárzom	2	NA	1	34	FALSE	FALSE	low	reversed	TRUE	FALSE	FALSE	TRUE
hungarian-esp_esp_participant_SESSION_2023-06-19_16h50.46.22.csv	2023-06-19T16:50:00Z	6107aa76ee9845023fb0cb80	nő	1999	17	2	esp trial	45	Te bizony sokat spilágzol. Én is sokat...	spilágzok	spilágzom	1	spilágzom	spilágzok	FALSE	3783	438820	lakok_1_low_reversed	lakok/lakom	27	spilágzik	-0.9650808960435872	spilágzok	spilágzom	2	NA	1	54	FALSE	TRUE	low	reversed	FALSE	FALSE	TRUE	TRUE
hungarian-esp_esp_participant_SESSION_2023-06-19_16h50.46.22.csv	2023-06-19T16:50:00Z	6107aa76ee9845023fb0cb80	nő	1999	17	2	esp trial	47	Te bizony sokat prilegzel. Én is sokat...	prilegzek	prilegzem	1	prilegzem	prilegzek	FALSE	5820	450715	lakok_1_low_reversed	lakok/lakom	27	prilegzik	-0.3483066942682157	prilegzek	prilegzem	2	NA	1	43	FALSE	TRUE	low	reversed	FALSE	FALSE	TRUE	TRUE
hungarian-esp_esp_participant_SESSION_2023-06-19_16h50.46.22.csv	2023-06-19T16:50:00Z	6107aa76ee9845023fb0cb80	nő	1999	17	2	esp trial	49	Te bizony sokat ribzol. Én is sokat...	ribzom	ribzok	1	ribzok	ribzok	TRUE	2915	462613	lakok_1_low_reversed	lakok/lakom	27	ribzik	-0.5978370007556204	ribzok	ribzom	1	NA	1	49	FALSE	TRUE	low	reversed	FALSE	TRUE	TRUE	FALSE
hungarian-esp_esp_participant_SESSION_2023-06-19_16h50.46.22.csv	2023-06-19T16:50:00Z	6107aa76ee9845023fb0cb80	nő	1999	17	2	esp trial	51	Te bizony sokat jüslesz. Én is sokat...	jüslök	jüslöm	1	jüslöm	jüslöm	TRUE	3371	474510	lakok_1_low_reversed	lakok/lakom	27	jüslik	0.965080896043587	jüslök	jüslöm	1	NA	1	10	TRUE	FALSE	low	reversed	FALSE	FALSE	FALSE	TRUE
hungarian-esp_esp_participant_SESSION_2023-06-19_16h50.46.22.csv	2023-06-19T16:50:00Z	6107aa76ee9845023fb0cb80	nő	1999	17	2	esp trial	53	Te bizony sokat klörlesz. Én is sokat...	klörlöm	klörlök	1	klörlök	klörlöm	FALSE	4260	486405	lakok_1_low_reversed	lakok/lakom	27	klörlik	0.6418538861723947	klörlök	klörlöm	1	NA	1	19	FALSE	FALSE	low	reversed	FALSE	TRUE	FALSE	FALSE
hungarian-esp_esp_participant_SESSION_2023-06-19_16h50.46.22.csv	2023-06-19T16:50:00Z	6107aa76ee9845023fb0cb80	nő	1999	17	2	esp trial	55	Te bizony sokat tínylasz. Én is sokat...	tínylok	tínylom	1	tínylom	tínylom	TRUE	4321	498300	lakok_1_low_reversed	lakok/lakom	27	tínylik	0.4353180712578455	tínylok	tínylom	1	NA	1	24	FALSE	FALSE	low	reversed	FALSE	FALSE	FALSE	TRUE
hungarian-esp_esp_participant_SESSION_2023-06-19_16h50.46.22.csv	2023-06-19T16:50:00Z	6107aa76ee9845023fb0cb80	nő	1999	17	2	esp trial	57	Te bizony sokat marzol. Én is sokat...	marzok	marzom	0	marzok	marzom	FALSE	6567	510196	lakok_1_low_reversed	lakok/lakom	27	marzik	0.7985076962177716	marzok	marzom	1	NA	1	14	TRUE	FALSE	low	reversed	TRUE	TRUE	FALSE	FALSE
hungarian-esp_esp_participant_SESSION_2023-06-19_16h50.46.22.csv	2023-06-19T16:50:00Z	6107aa76ee9845023fb0cb80	nő	1999	17	2	esp trial	59	Te bizony sokat nyáslasz. Én is sokat...	nyáslom	nyáslok	0	nyáslom	nyáslom	TRUE	6310	522093	lakok_1_low_reversed	lakok/lakom	27	nyáslik	0.5877866649021191	nyáslok	nyáslom	1	NA	1	20	FALSE	FALSE	low	reversed	TRUE	FALSE	FALSE	TRUE
hungarian-esp_esp_participant_SESSION_2023-06-19_16h50.46.22.csv	2023-06-19T16:50:00Z	6107aa76ee9845023fb0cb80	nő	1999	17	2	esp trial	61	Te bizony sokat fibamlasz. Én is sokat...	fibamlok	fibamlom	0	fibamlok	fibamlom	FALSE	3666	533988	lakok_1_low_reversed	lakok/lakom	27	fibamlik	1.9095425048844383	fibamlok	fibamlom	2	NA	1	2	TRUE	FALSE	low	reversed	TRUE	TRUE	FALSE	FALSE
hungarian-esp_esp_participant_SESSION_2023-06-19_16h50.46.22.csv	2023-06-19T16:50:00Z	6107aa76ee9845023fb0cb80	nő	1999	17	2	esp trial	63	Te bizony sokat klibamlasz. Én is sokat...	klibamlom	klibamlok	1	klibamlok	klibamlom	FALSE	5053	545883	lakok_1_low_reversed	lakok/lakom	27	klibamlik	0.4353180712578455	klibamlok	klibamlom	2	NA	1	23	FALSE	FALSE	low	reversed	FALSE	TRUE	FALSE	FALSE
hungarian-esp_esp_participant_SESSION_2023-06-19_16h50.46.22.csv	2023-06-19T16:50:00Z	6107aa76ee9845023fb0cb80	nő	1999	17	2	esp trial	65	Te bizony sokat csíszlasz. Én is sokat...	csíszlom	csíszlok	0	csíszlom	csíszlom	TRUE	5831	557778	lakok_1_low_reversed	lakok/lakom	27	csíszlik	0.7419373447293773	csíszlok	csíszlom	1	NA	1	16	FALSE	FALSE	low	reversed	TRUE	FALSE	FALSE	TRUE
hungarian-esp_esp_participant_SESSION_2023-06-19_16h50.46.22.csv	2023-06-19T16:50:00Z	6107aa76ee9845023fb0cb80	nő	1999	17	2	esp trial	67	Te bizony sokat málapszol. Én is sokat...	málapszok	málapszom	1	málapszom	málapszom	TRUE	5168	569675	lakok_1_low_reversed	lakok/lakom	27	málapszik	-0.06899287148695143	málapszok	málapszom	2	NA	1	36	FALSE	FALSE	low	reversed	FALSE	FALSE	FALSE	TRUE
hungarian-esp_esp_participant_SESSION_2023-06-19_16h50.46.22.csv	2023-06-19T16:50:00Z	6107aa76ee9845023fb0cb80	nő	1999	17	2	esp trial	69	Te bizony sokat siladzol. Én is sokat...	siladzom	siladzok	0	siladzom	siladzok	FALSE	3546	581571	lakok_1_low_reversed	lakok/lakom	27	siladzik	-0.4353180712578455	siladzok	siladzom	2	NA	1	45	FALSE	TRUE	low	reversed	TRUE	FALSE	TRUE	TRUE
hungarian-esp_esp_participant_SESSION_2023-06-19_16h50.46.22.csv	2023-06-19T16:50:00Z	6107aa76ee9845023fb0cb80	nő	1999	17	2	esp trial	71	Te bizony sokat spibaklasz. Én is sokat...	spibaklok	spibaklom	1	spibaklom	spibaklom	TRUE	6401	593465	lakok_1_low_reversed	lakok/lakom	27	spibaklik	0.06899287148695142	spibaklok	spibaklom	2	NA	1	31	FALSE	FALSE	low	reversed	FALSE	FALSE	FALSE	TRUE
hungarian-esp_esp_participant_SESSION_2023-06-19_16h50.46.22.csv	2023-06-19T16:50:00Z	6107aa76ee9845023fb0cb80	nő	1999	17	2	esp trial	73	Te bizony sokat feténylesz. Én is sokat...	feténylem	feténylek	1	feténylek	feténylem	FALSE	4860	605362	lakok_1_low_reversed	lakok/lakom	27	feténylik	1.5686159179138452	feténylek	feténylem	2	NA	1	4	TRUE	FALSE	low	reversed	FALSE	TRUE	FALSE	FALSE
hungarian-esp_esp_participant_SESSION_2023-06-19_16h50.46.22.csv	2023-06-19T16:50:00Z	6107aa76ee9845023fb0cb80	nő	1999	17	2	esp trial	75	Te bizony sokat tomlasz. Én is sokat...	tomlok	tomlom	1	tomlom	tomlom	TRUE	1806	617258	lakok_1_low_reversed	lakok/lakom	27	tomlik	2.2335922215070942	tomlok	tomlom	1	NA	1	1	TRUE	FALSE	low	reversed	FALSE	FALSE	FALSE	TRUE
hungarian-esp_esp_participant_SESSION_2023-06-19_16h50.46.22.csv	2023-06-19T16:50:00Z	6107aa76ee9845023fb0cb80	nő	1999	17	2	esp trial	77	Te bizony sokat frilegszel. Én is sokat...	frilegszem	frilegszek	0	frilegszem	frilegszek	FALSE	5296	629156	lakok_1_low_reversed	lakok/lakom	27	frilegszik	-0.2876820724517809	frilegszek	frilegszem	2	NA	1	40	FALSE	TRUE	low	reversed	TRUE	FALSE	TRUE	TRUE
hungarian-esp_esp_participant_SESSION_2023-06-19_16h50.46.22.csv	2023-06-19T16:50:00Z	6107aa76ee9845023fb0cb80	nő	1999	17	2	esp trial	79	Te bizony sokat piragszol. Én is sokat...	piragszom	piragszok	0	piragszom	piragszok	FALSE	3917	641051	lakok_1_low_reversed	lakok/lakom	27	piragszik	-0.587786664902119	piragszok	piragszom	2	NA	1	47	FALSE	TRUE	low	reversed	TRUE	FALSE	TRUE	TRUE
hungarian-esp_esp_participant_SESSION_2023-06-19_16h50.46.22.csv	2023-06-19T16:50:00Z	6107aa76ee9845023fb0cb80	nő	1999	17	2	esp trial	81	Te bizony sokat prűrlesz. Én is sokat...	prűrlök	prűrlöm	0	prűrlök	prűrlöm	FALSE	4075	652973	lakok_1_low_reversed	lakok/lakom	27	prűrlik	0.9162907318741552	prűrlök	prűrlöm	1	NA	1	12	TRUE	FALSE	low	reversed	TRUE	TRUE	FALSE	FALSE
hungarian-esp_esp_participant_SESSION_2023-06-19_16h50.46.22.csv	2023-06-19T16:50:00Z	6107aa76ee9845023fb0cb80	nő	1999	17	2	esp trial	83	Te bizony sokat pebzel. Én is sokat...	pebzem	pebzek	1	pebzek	pebzem	FALSE	4474	664886	lakok_1_low_reversed	lakok/lakom	27	pebzik	0.49247648509779424	pebzek	pebzem	1	NA	1	21	FALSE	FALSE	low	reversed	FALSE	TRUE	FALSE	FALSE
hungarian-esp_esp_participant_SESSION_2023-06-19_16h50.46.22.csv	2023-06-19T16:50:00Z	6107aa76ee9845023fb0cb80	nő	1999	17	2	esp trial	85	Te bizony sokat driládzol. Én is sokat...	driládzok	driládzom	1	driládzom	driládzok	FALSE	4819	676783	lakok_1_low_reversed	lakok/lakom	27	driládzik	-0.5978370007556204	driládzok	driládzom	2	NA	1	48	FALSE	TRUE	low	reversed	FALSE	FALSE	TRUE	TRUE
hungarian-esp_esp_participant_SESSION_2023-06-19_16h50.46.22.csv	2023-06-19T16:50:00Z	6107aa76ee9845023fb0cb80	nő	1999	17	2	esp trial	87	Te bizony sokat lorjódzol. Én is sokat...	lorjódzom	lorjódzok	0	lorjódzom	lorjódzom	TRUE	3890	688677	lakok_1_low_reversed	lakok/lakom	27	lorjódzik	-0.1941560144409575	lorjódzok	lorjódzom	2	NA	1	37	FALSE	FALSE	low	reversed	TRUE	FALSE	FALSE	TRUE
hungarian-esp_esp_participant_SESSION_2023-06-19_16h50.46.22.csv	2023-06-19T16:50:00Z	6107aa76ee9845023fb0cb80	nő	1999	17	2	esp trial	89	Te bizony sokat szirlasz. Én is sokat...	szirlok	szirlom	1	szirlom	szirlom	TRUE	6251	700572	lakok_1_low_reversed	lakok/lakom	27	szirlik	0.7419373447293773	szirlok	szirlom	1	NA	1	18	FALSE	FALSE	low	reversed	FALSE	FALSE	FALSE	TRUE
hungarian-esp_esp_participant_SESSION_2023-06-19_16h50.46.22.csv	2023-06-19T16:50:00Z	6107aa76ee9845023fb0cb80	nő	1999	17	2	esp trial	91	Te bizony sokat flüröslesz. Én is sokat...	flüröslöm	flüröslök	1	flüröslök	flüröslöm	FALSE	8998	713582	lakok_1_low_reversed	lakok/lakom	27	flüröslik	0.7419373447293773	flüröslök	flüröslöm	2	NA	1	17	FALSE	FALSE	low	reversed	FALSE	TRUE	FALSE	FALSE
hungarian-esp_esp_participant_SESSION_2023-06-19_16h50.46.22.csv	2023-06-19T16:50:00Z	6107aa76ee9845023fb0cb80	nő	1999	17	2	esp trial	93	Te bizony sokat fretszel. Én is sokat...	fretszek	fretszem	1	fretszem	fretszem	TRUE	8205	725795	lakok_1_low_reversed	lakok/lakom	27	fretszik	0	fretszek	fretszem	1	NA	1	33	FALSE	FALSE	low	reversed	FALSE	FALSE	FALSE	TRUE
hungarian-esp_esp_participant_SESSION_2023-06-19_16h50.46.22.csv	2023-06-19T16:50:00Z	6107aa76ee9845023fb0cb80	nő	1999	17	2	esp trial	95	Te bizony sokat bölszöl. Én is sokat...	bölszöm	bölszök	1	bölszök	bölszöm	FALSE	2140	737690	lakok_1_low_reversed	lakok/lakom	27	bölszik	0.3483066942682158	bölszök	bölszöm	1	NA	1	25	FALSE	FALSE	low	reversed	FALSE	TRUE	FALSE	FALSE
hungarian-esp_esp_participant_SESSION_2023-06-19_16h50.46.22.csv	2023-06-19T16:50:00Z	6107aa76ee9845023fb0cb80	nő	1999	17	2	esp trial	97	Te bizony sokat sztremlesz. Én is sokat...	sztremlek	sztremlem	0	sztremlek	sztremlem	FALSE	5578	749585	lakok_1_low_reversed	lakok/lakom	27	sztremlik	1.3437347467010947	sztremlek	sztremlem	1	NA	1	6	TRUE	FALSE	low	reversed	TRUE	TRUE	FALSE	FALSE
hungarian-esp_esp_participant_SESSION_2023-06-19_16h50.46.22.csv	2023-06-19T16:50:00Z	6107aa76ee9845023fb0cb80	nő	1999	17	2	esp trial	99	Te bizony sokat tiregzel. Én is sokat...	tiregzem	tiregzek	0	tiregzem	tiregzem	TRUE	7199	761483	lakok_1_low_reversed	lakok/lakom	27	tiregzik	0.06453852113757116	tiregzek	tiregzem	2	NA	1	32	FALSE	FALSE	low	reversed	TRUE	FALSE	FALSE	TRUE
hungarian-esp_esp_participant_SESSION_2023-06-19_16h50.46.22.csv	2023-06-19T16:50:00Z	6107aa76ee9845023fb0cb80	nő	1999	17	2	esp trial	101	Te bizony sokat vilakszol. Én is sokat...	vilakszom	vilakszok	0	vilakszom	vilakszok	FALSE	4728	773379	lakok_1_low_reversed	lakok/lakom	27	vilakszik	-0.7985076962177716	vilakszok	vilakszom	2	NA	1	52	FALSE	TRUE	low	reversed	TRUE	FALSE	TRUE	TRUE
hungarian-esp_esp_participant_SESSION_2023-06-19_16h50.46.22.csv	2023-06-19T16:50:00Z	6107aa76ee9845023fb0cb80	nő	1999	17	2	esp trial	103	Te bizony sokat büglesz. Én is sokat...	büglök	büglöm	0	büglök	büglöm	FALSE	4058	785274	lakok_1_low_reversed	lakok/lakom	27	büglik	0.9162907318741552	büglök	büglöm	1	NA	1	11	TRUE	FALSE	low	reversed	TRUE	TRUE	FALSE	FALSE
hungarian-esp_esp_participant_SESSION_2023-06-19_16h50.46.22.csv	2023-06-19T16:50:00Z	6107aa76ee9845023fb0cb80	nő	1999	17	2	esp trial	105	Te bizony sokat herégszel. Én is sokat...	herégszem	herégszek	0	herégszem	herégszek	FALSE	7358	797170	lakok_1_low_reversed	lakok/lakom	27	herégszik	-0.6418538861723948	herégszek	herégszem	2	NA	1	50	FALSE	TRUE	low	reversed	TRUE	FALSE	TRUE	TRUE
hungarian-esp_esp_participant_SESSION_2023-06-19_16h50.46.22.csv	2023-06-19T16:50:00Z	6107aa76ee9845023fb0cb80	nő	1999	17	2	esp trial	107	Te bizony sokat spéslesz. Én is sokat...	spéslem	spéslek	0	spéslem	spéslem	TRUE	4548	809064	lakok_1_low_reversed	lakok/lakom	27	spéslik	1.1451323043030026	spéslek	spéslem	1	NA	1	8	TRUE	FALSE	low	reversed	TRUE	FALSE	FALSE	TRUE
hungarian-esp_esp_participant_SESSION_2023-06-19_16h50.46.22.csv	2023-06-19T16:50:00Z	6107aa76ee9845023fb0cb80	nő	1999	17	2	esp trial	109	Te bizony sokat trilszol. Én is sokat...	trilszok	trilszom	1	trilszom	trilszom	TRUE	4993	820960	lakok_1_low_reversed	lakok/lakom	27	trilszik	0.28768207245178085	trilszok	trilszom	1	NA	1	27	FALSE	FALSE	low	reversed	FALSE	FALSE	FALSE	TRUE
hungarian-esp_esp_participant_SESSION_2023-06-19_16h50.46.22.csv	2023-06-19T16:50:00Z	6107aa76ee9845023fb0cb80	nő	1999	17	2	esp trial	111	Te bizony sokat brágaklasz. Én is sokat...	brágaklom	brágaklok	0	brágaklom	brágaklok	FALSE	8445	833410	lakok_1_low_reversed	lakok/lakom	27	brágaklik	-0.325422400434628	brágaklok	brágaklom	2	NA	1	42	FALSE	TRUE	low	reversed	TRUE	FALSE	TRUE	TRUE
hungarian-esp_esp_participant_SESSION_2023-06-19_16h50.46.22.csv	2023-06-19T16:50:00Z	6107aa76ee9845023fb0cb80	nő	1999	17	2	esp trial	113	Te bizony sokat sűzlesz. Én is sokat...	sűzlök	sűzlöm	0	sűzlök	sűzlöm	FALSE	6148	845307	lakok_1_low_reversed	lakok/lakom	27	sűzlik	0.14310084364067324	sűzlök	sűzlöm	1	NA	1	29	FALSE	FALSE	low	reversed	TRUE	TRUE	FALSE	FALSE
hungarian-esp_esp_participant_SESSION_2023-06-19_16h50.46.22.csv	2023-06-19T16:50:00Z	6107aa76ee9845023fb0cb80	nő	1999	17	2	esp trial	115	Te bizony sokat pivegszel. Én is sokat...	pivegszem	pivegszek	0	pivegszem	pivegszek	FALSE	4069	857202	lakok_1_low_reversed	lakok/lakom	27	pivegszik	-0.8938178760220964	pivegszek	pivegszem	2	NA	1	53	FALSE	TRUE	low	reversed	TRUE	FALSE	TRUE	TRUE
hungarian-esp_esp_participant_SESSION_2023-06-19_16h50.46.22.csv	2023-06-19T16:50:00Z	6107aa76ee9845023fb0cb80	nő	1999	17	2	esp trial	117	Te bizony sokat sprogzol. Én is sokat...	sprogzok	sprogzom	1	sprogzom	sprogzok	FALSE	4277	869098	lakok_1_low_reversed	lakok/lakom	27	sprogzik	-0.7419373447293773	sprogzok	sprogzom	1	NA	1	51	FALSE	TRUE	low	reversed	FALSE	FALSE	TRUE	TRUE
hungarian-esp_esp_participant_SESSION_2023-06-19_16h50.46.22.csv	2023-06-19T16:50:00Z	6107aa76ee9845023fb0cb80	nő	1999	17	4	posttest trial	120	Te bizony sokat trehégszel. Én is sokat...	trehégszek	trehégszem	1	trehégszem	NA	NA	6307	889444	lakok_2_high_reversed	lakok/lakom	29	trehégszik	-0.7472144018302211	trehégszek	trehégszem	2	NA	2	51	FALSE	TRUE	low	reversed	FALSE	FALSE	NA	NA
hungarian-esp_esp_participant_SESSION_2023-06-19_16h50.46.22.csv	2023-06-19T16:50:00Z	6107aa76ee9845023fb0cb80	nő	1999	17	4	posttest trial	121	Te bizony sokat filágzol. Én is sokat...	filágzom	filágzok	1	filágzok	NA	NA	4018	893966	lakok_2_high_reversed	lakok/lakom	29	filágzik	-0.9650808960435872	filágzok	filágzom	2	NA	2	53	FALSE	TRUE	low	reversed	FALSE	TRUE	NA	NA
hungarian-esp_esp_participant_SESSION_2023-06-19_16h50.46.22.csv	2023-06-19T16:50:00Z	6107aa76ee9845023fb0cb80	nő	1999	17	4	posttest trial	122	Te bizony sokat klétszel. Én is sokat...	klétszem	klétszek	0	klétszem	NA	NA	2150	896620	lakok_2_high_reversed	lakok/lakom	29	klétszik	-0.2876820724517809	klétszek	klétszem	1	NA	2	40	FALSE	TRUE	low	reversed	TRUE	FALSE	NA	NA
hungarian-esp_esp_participant_SESSION_2023-06-19_16h50.46.22.csv	2023-06-19T16:50:00Z	6107aa76ee9845023fb0cb80	nő	1999	17	4	posttest trial	123	Te bizony sokat brivegzel. Én is sokat...	brivegzek	brivegzem	1	brivegzem	NA	NA	3412	900537	lakok_2_high_reversed	lakok/lakom	29	brivegzik	-0.8938178760220964	brivegzek	brivegzem	2	NA	2	52	FALSE	TRUE	low	reversed	FALSE	FALSE	NA	NA
hungarian-esp_esp_participant_SESSION_2023-06-19_16h50.46.22.csv	2023-06-19T16:50:00Z	6107aa76ee9845023fb0cb80	nő	1999	17	4	posttest trial	124	Te bizony sokat sztrűkszöl. Én is sokat...	sztrűkszöm	sztrűkszök	1	sztrűkszök	NA	NA	2943	903982	lakok_2_high_reversed	lakok/lakom	29	sztrűkszik	-0.2876820724517809	sztrűkszök	sztrűkszöm	1	NA	2	41	FALSE	TRUE	low	reversed	FALSE	TRUE	NA	NA
hungarian-esp_esp_participant_SESSION_2023-06-19_16h50.46.22.csv	2023-06-19T16:50:00Z	6107aa76ee9845023fb0cb80	nő	1999	17	4	posttest trial	125	Te bizony sokat ibékszel. Én is sokat...	ibékszem	ibékszek	0	ibékszem	NA	NA	5095	909582	lakok_2_high_reversed	lakok/lakom	29	ibékszik	-0.4353180712578455	ibékszek	ibékszem	2	NA	2	44	FALSE	TRUE	low	reversed	TRUE	FALSE	NA	NA
hungarian-esp_esp_participant_SESSION_2023-06-19_16h50.46.22.csv	2023-06-19T16:50:00Z	6107aa76ee9845023fb0cb80	nő	1999	17	4	posttest trial	126	Te bizony sokat trádlasz. Én is sokat...	trádlom	trádlok	1	trádlok	NA	NA	6197	916284	lakok_2_high_reversed	lakok/lakom	29	trádlik	0.4353180712578455	trádlok	trádlom	1	NA	2	24	FALSE	FALSE	low	reversed	FALSE	TRUE	NA	NA
hungarian-esp_esp_participant_SESSION_2023-06-19_16h50.46.22.csv	2023-06-19T16:50:00Z	6107aa76ee9845023fb0cb80	nő	1999	17	4	posttest trial	127	Te bizony sokat nűröklesz. Én is sokat...	nűröklöm	nűröklök	1	nűröklök	NA	NA	3848	920635	lakok_2_high_reversed	lakok/lakom	29	nűröklik	-0.1941560144409575	nűröklök	nűröklöm	2	NA	2	37	FALSE	FALSE	low	reversed	FALSE	TRUE	NA	NA
hungarian-esp_esp_participant_SESSION_2023-06-19_16h50.46.22.csv	2023-06-19T16:50:00Z	6107aa76ee9845023fb0cb80	nő	1999	17	4	posttest trial	128	Te bizony sokat flitlasz. Én is sokat...	flitlom	flitlok	0	flitlom	NA	NA	1952	923091	lakok_2_high_reversed	lakok/lakom	29	flitlik	1.6486586255873816	flitlok	flitlom	1	NA	2	3	TRUE	FALSE	low	reversed	TRUE	FALSE	NA	NA
hungarian-esp_esp_participant_SESSION_2023-06-19_16h50.46.22.csv	2023-06-19T16:50:00Z	6107aa76ee9845023fb0cb80	nő	1999	17	4	posttest trial	129	Te bizony sokat sztrozlasz. Én is sokat...	sztrozlok	sztrozlom	0	sztrozlok	NA	NA	3877	927472	lakok_2_high_reversed	lakok/lakom	29	sztrozlik	0.4353180712578455	sztrozlok	sztrozlom	1	NA	2	23	FALSE	FALSE	low	reversed	TRUE	TRUE	NA	NA
hungarian-esp_esp_participant_SESSION_2023-06-19_16h50.46.22.csv	2023-06-19T16:50:00Z	6107aa76ee9845023fb0cb80	nő	1999	17	4	posttest trial	130	Te bizony sokat bűtszöl. Én is sokat...	bűtszöm	bűtszök	0	bűtszöm	NA	NA	3729	931705	lakok_2_high_reversed	lakok/lakom	29	bűtszik	0.14310084364067324	bűtszök	bűtszöm	1	NA	2	28	FALSE	FALSE	low	reversed	TRUE	FALSE	NA	NA
hungarian-esp_esp_participant_SESSION_2023-06-19_16h50.46.22.csv	2023-06-19T16:50:00Z	6107aa76ee9845023fb0cb80	nő	1999	17	4	posttest trial	131	Te bizony sokat hurjorzol. Én is sokat...	hurjorzok	hurjorzom	1	hurjorzom	NA	NA	7591	939799	lakok_2_high_reversed	lakok/lakom	29	hurjorzik	0.06899287148695142	hurjorzok	hurjorzom	2	NA	2	30	FALSE	FALSE	low	reversed	FALSE	FALSE	NA	NA
hungarian-esp_esp_participant_SESSION_2023-06-19_16h50.46.22.csv	2023-06-19T16:50:00Z	6107aa76ee9845023fb0cb80	nő	1999	17	4	posttest trial	132	Te bizony sokat tragzol. Én is sokat...	tragzok	tragzom	0	tragzok	NA	NA	3345	943649	lakok_2_high_reversed	lakok/lakom	29	tragzik	-0.06899287148695143	tragzok	tragzom	1	NA	2	36	FALSE	FALSE	low	reversed	TRUE	TRUE	NA	NA
hungarian-esp_esp_participant_SESSION_2023-06-19_16h50.46.22.csv	2023-06-19T16:50:00Z	6107aa76ee9845023fb0cb80	nő	1999	17	4	posttest trial	133	Te bizony sokat hűgzöl. Én is sokat...	hűgzök	hűgzöm	1	hűgzöm	NA	NA	2130	946282	lakok_2_high_reversed	lakok/lakom	29	hűgzik	0	hűgzök	hűgzöm	1	NA	2	33	FALSE	FALSE	low	reversed	FALSE	FALSE	NA	NA
hungarian-esp_esp_participant_SESSION_2023-06-19_16h50.46.22.csv	2023-06-19T16:50:00Z	6107aa76ee9845023fb0cb80	nő	1999	17	4	posttest trial	134	Te bizony sokat bivégszel. Én is sokat...	bivégszem	bivégszek	1	bivégszek	NA	NA	2541	949329	lakok_2_high_reversed	lakok/lakom	29	bivégszik	-1.0560526742493137	bivégszek	bivégszem	2	NA	2	54	FALSE	TRUE	low	reversed	FALSE	TRUE	NA	NA
hungarian-esp_esp_participant_SESSION_2023-06-19_16h50.46.22.csv	2023-06-19T16:50:00Z	6107aa76ee9845023fb0cb80	nő	1999	17	4	posttest trial	135	Te bizony sokat huroslasz. Én is sokat...	huroslom	huroslok	1	huroslok	NA	NA	3749	953582	lakok_2_high_reversed	lakok/lakom	29	huroslik	1.0560526742493137	huroslok	huroslom	2	NA	2	9	TRUE	FALSE	low	reversed	FALSE	TRUE	NA	NA
hungarian-esp_esp_participant_SESSION_2023-06-19_16h50.46.22.csv	2023-06-19T16:50:00Z	6107aa76ee9845023fb0cb80	nő	1999	17	4	posttest trial	136	Te bizony sokat flehénylesz. Én is sokat...	flehénylek	flehénylem	0	flehénylek	NA	NA	4002	958090	lakok_2_high_reversed	lakok/lakom	29	flehénylik	1.5686159179138452	flehénylek	flehénylem	2	NA	2	4	TRUE	FALSE	low	reversed	TRUE	TRUE	NA	NA
hungarian-esp_esp_participant_SESSION_2023-06-19_16h50.46.22.csv	2023-06-19T16:50:00Z	6107aa76ee9845023fb0cb80	nő	1999	17	4	posttest trial	137	Te bizony sokat jonylasz. Én is sokat...	jonylok	jonylom	1	jonylom	NA	NA	2587	961181	lakok_2_high_reversed	lakok/lakom	29	jonylik	0.8938178760220965	jonylok	jonylom	1	NA	2	12	TRUE	FALSE	low	reversed	FALSE	FALSE	NA	NA
hungarian-esp_esp_participant_SESSION_2023-06-19_16h50.46.22.csv	2023-06-19T16:50:00Z	6107aa76ee9845023fb0cb80	nő	1999	17	4	posttest trial	138	Te bizony sokat narádzol. Én is sokat...	narádzom	narádzok	1	narádzok	NA	NA	2550	964235	lakok_2_high_reversed	lakok/lakom	29	narádzik	-0.6418538861723948	narádzok	narádzom	2	NA	2	50	FALSE	TRUE	low	reversed	FALSE	TRUE	NA	NA
hungarian-esp_esp_participant_SESSION_2023-06-19_16h50.46.22.csv	2023-06-19T16:50:00Z	6107aa76ee9845023fb0cb80	nő	1999	17	4	posttest trial	139	Te bizony sokat píjlasz. Én is sokat...	píjlom	píjlok	1	píjlok	NA	NA	2679	967418	lakok_2_high_reversed	lakok/lakom	29	píjlik	0.6418538861723947	píjlok	píjlom	1	NA	2	19	FALSE	FALSE	low	reversed	FALSE	TRUE	NA	NA
hungarian-esp_esp_participant_SESSION_2023-06-19_16h50.46.22.csv	2023-06-19T16:50:00Z	6107aa76ee9845023fb0cb80	nő	1999	17	4	posttest trial	140	Te bizony sokat plugzol. Én is sokat...	plugzok	plugzom	1	plugzom	NA	NA	1393	969314	lakok_2_high_reversed	lakok/lakom	29	plugzik	-0.325422400434628	plugzok	plugzom	1	NA	2	42	FALSE	TRUE	low	reversed	FALSE	FALSE	NA	NA
hungarian-esp_esp_participant_SESSION_2023-06-19_16h50.46.22.csv	2023-06-19T16:50:00Z	6107aa76ee9845023fb0cb80	nő	1999	17	4	posttest trial	141	Te bizony sokat lörűdzöl. Én is sokat...	lörűdzök	lörűdzöm	0	lörűdzök	NA	NA	3065	972883	lakok_2_high_reversed	lakok/lakom	29	lörűdzik	-0.2076393647782445	lörűdzök	lörűdzöm	2	NA	2	39	FALSE	FALSE	low	reversed	TRUE	TRUE	NA	NA
hungarian-esp_esp_participant_SESSION_2023-06-19_16h50.46.22.csv	2023-06-19T16:50:00Z	6107aa76ee9845023fb0cb80	nő	1999	17	4	posttest trial	142	Te bizony sokat gyibeslesz. Én is sokat...	gyibeslem	gyibeslek	1	gyibeslek	NA	NA	2359	975746	lakok_2_high_reversed	lakok/lakom	29	gyibeslik	0.6418538861723947	gyibeslek	gyibeslem	2	NA	2	18	FALSE	FALSE	low	reversed	FALSE	TRUE	NA	NA
hungarian-esp_esp_participant_SESSION_2023-06-19_16h50.46.22.csv	2023-06-19T16:50:00Z	6107aa76ee9845023fb0cb80	nő	1999	17	4	posttest trial	143	Te bizony sokat vülődzöl. Én is sokat...	vülődzöm	vülődzök	1	vülődzök	NA	NA	4531	980781	lakok_2_high_reversed	lakok/lakom	29	vülődzik	0.06899287148695142	vülődzök	vülődzöm	2	NA	2	31	FALSE	FALSE	low	reversed	FALSE	TRUE	NA	NA
hungarian-esp_esp_participant_SESSION_2023-06-19_16h50.46.22.csv	2023-06-19T16:50:00Z	6107aa76ee9845023fb0cb80	nő	1999	17	4	posttest trial	144	Te bizony sokat szibánylasz. Én is sokat...	szibánylok	szibánylom	0	szibánylok	NA	NA	2239	983524	lakok_2_high_reversed	lakok/lakom	29	szibánylik	0.7985076962177716	szibánylok	szibánylom	2	NA	2	14	TRUE	FALSE	low	reversed	TRUE	TRUE	NA	NA
hungarian-esp_esp_participant_SESSION_2023-06-19_16h50.46.22.csv	2023-06-19T16:50:00Z	6107aa76ee9845023fb0cb80	nő	1999	17	4	posttest trial	145	Te bizony sokat klivaslasz. Én is sokat...	klivaslom	klivaslok	1	klivaslok	NA	NA	4776	988805	lakok_2_high_reversed	lakok/lakom	29	klivaslik	0.9162907318741552	klivaslok	klivaslom	2	NA	2	11	TRUE	FALSE	low	reversed	FALSE	TRUE	NA	NA
hungarian-esp_esp_participant_SESSION_2023-06-19_16h50.46.22.csv	2023-06-19T16:50:00Z	6107aa76ee9845023fb0cb80	nő	1999	17	4	posttest trial	146	Te bizony sokat spihegzel. Én is sokat...	spihegzem	spihegzek	1	spihegzek	NA	NA	2793	992101	lakok_2_high_reversed	lakok/lakom	29	spihegzik	-0.06453852113757118	spihegzek	spihegzem	2	NA	2	35	FALSE	FALSE	low	reversed	FALSE	TRUE	NA	NA
hungarian-esp_esp_participant_SESSION_2023-06-19_16h50.46.22.csv	2023-06-19T16:50:00Z	6107aa76ee9845023fb0cb80	nő	1999	17	4	posttest trial	147	Te bizony sokat salárzol. Én is sokat...	salárzom	salárzok	1	salárzok	NA	NA	10049	1002655	lakok_2_high_reversed	lakok/lakom	29	salárzik	0.20763936477824457	salárzok	salárzom	2	NA	2	27	FALSE	FALSE	low	reversed	FALSE	TRUE	NA	NA
hungarian-esp_esp_participant_SESSION_2023-06-19_16h50.46.22.csv	2023-06-19T16:50:00Z	6107aa76ee9845023fb0cb80	nő	1999	17	4	posttest trial	148	Te bizony sokat sztrijzol. Én is sokat...	sztrijzok	sztrijzom	0	sztrijzok	NA	NA	3877	1007035	lakok_2_high_reversed	lakok/lakom	29	sztrijzik	0.14310084364067324	sztrijzok	sztrijzom	1	NA	2	29	FALSE	FALSE	low	reversed	TRUE	TRUE	NA	NA
hungarian-esp_esp_participant_SESSION_2023-06-19_16h50.46.22.csv	2023-06-19T16:50:00Z	6107aa76ee9845023fb0cb80	nő	1999	17	4	posttest trial	149	Te bizony sokat frodlasz. Én is sokat...	frodlom	frodlok	1	frodlok	NA	NA	5839	1013378	lakok_2_high_reversed	lakok/lakom	29	frodlik	0.7419373447293773	frodlok	frodlom	1	NA	2	17	FALSE	FALSE	low	reversed	FALSE	TRUE	NA	NA
hungarian-esp_esp_participant_SESSION_2023-06-19_16h50.46.22.csv	2023-06-19T16:50:00Z	6107aa76ee9845023fb0cb80	nő	1999	17	4	posttest trial	150	Te bizony sokat düjzöl. Én is sokat...	düjzöm	düjzök	1	düjzök	NA	NA	3597	1017478	lakok_2_high_reversed	lakok/lakom	29	düjzik	0	düjzök	düjzöm	1	NA	2	32	FALSE	FALSE	low	reversed	FALSE	TRUE	NA	NA
hungarian-esp_esp_participant_SESSION_2023-06-19_16h50.46.22.csv	2023-06-19T16:50:00Z	6107aa76ee9845023fb0cb80	nő	1999	17	4	posttest trial	151	Te bizony sokat vanylasz. Én is sokat...	vanylok	vanylom	1	vanylom	NA	NA	3132	1021114	lakok_2_high_reversed	lakok/lakom	29	vanylik	1.1451323043030026	vanylok	vanylom	1	NA	2	8	TRUE	FALSE	low	reversed	FALSE	FALSE	NA	NA
hungarian-esp_esp_participant_SESSION_2023-06-19_16h50.46.22.csv	2023-06-19T16:50:00Z	6107aa76ee9845023fb0cb80	nő	1999	17	4	posttest trial	152	Te bizony sokat bihánylasz. Én is sokat...	bihánylom	bihánylok	0	bihánylom	NA	NA	2977	1024595	lakok_2_high_reversed	lakok/lakom	29	bihánylik	1.2992829841302609	bihánylok	bihánylom	2	NA	2	6	TRUE	FALSE	low	reversed	TRUE	FALSE	NA	NA
hungarian-esp_esp_participant_SESSION_2023-06-19_16h50.46.22.csv	2023-06-19T16:50:00Z	6107aa76ee9845023fb0cb80	nő	1999	17	4	posttest trial	153	Te bizony sokat spubonylasz. Én is sokat...	spubonylok	spubonylom	0	spubonylok	NA	NA	3494	1028593	lakok_2_high_reversed	lakok/lakom	29	spubonylik	1.2321436812926323	spubonylok	spubonylom	2	NA	2	7	TRUE	FALSE	low	reversed	TRUE	TRUE	NA	NA
hungarian-esp_esp_participant_SESSION_2023-06-19_16h50.46.22.csv	2023-06-19T16:50:00Z	6107aa76ee9845023fb0cb80	nő	1999	17	4	posttest trial	154	Te bizony sokat pribagszol. Én is sokat...	pribagszom	pribagszok	0	pribagszom	NA	NA	2364	1031461	lakok_2_high_reversed	lakok/lakom	29	pribagszik	-0.587786664902119	pribagszok	pribagszom	2	NA	2	47	FALSE	TRUE	low	reversed	TRUE	FALSE	NA	NA
hungarian-esp_esp_participant_SESSION_2023-06-19_16h50.46.22.csv	2023-06-19T16:50:00Z	6107aa76ee9845023fb0cb80	nő	1999	17	4	posttest trial	155	Te bizony sokat spröbzöl. Én is sokat...	spröbzök	spröbzöm	0	spröbzök	NA	NA	3923	1035887	lakok_2_high_reversed	lakok/lakom	29	spröbzik	0.28768207245178085	spröbzök	spröbzöm	1	NA	2	26	FALSE	FALSE	low	reversed	TRUE	TRUE	NA	NA
hungarian-esp_esp_participant_SESSION_2023-06-19_16h50.46.22.csv	2023-06-19T16:50:00Z	6107aa76ee9845023fb0cb80	nő	1999	17	4	posttest trial	156	Te bizony sokat klaráglasz. Én is sokat...	klaráglom	klaráglok	1	klaráglok	NA	NA	3635	1040026	lakok_2_high_reversed	lakok/lakom	29	klaráglik	0.965080896043587	klaráglok	klaráglom	2	NA	2	10	TRUE	FALSE	low	reversed	FALSE	TRUE	NA	NA
hungarian-esp_esp_participant_SESSION_2023-06-19_16h50.46.22.csv	2023-06-19T16:50:00Z	6107aa76ee9845023fb0cb80	nő	1999	17	4	posttest trial	157	Te bizony sokat spihemlesz. Én is sokat...	spihemlem	spihemlek	0	spihemlem	NA	NA	1561	1042092	lakok_2_high_reversed	lakok/lakom	29	spihemlik	2.159484249353372	spihemlek	spihemlem	2	NA	2	1	TRUE	FALSE	low	reversed	TRUE	FALSE	NA	NA
hungarian-esp_esp_participant_SESSION_2023-06-19_16h50.46.22.csv	2023-06-19T16:50:00Z	6107aa76ee9845023fb0cb80	nő	1999	17	4	posttest trial	158	Te bizony sokat rokszol. Én is sokat...	rokszom	rokszok	0	rokszom	NA	NA	5548	1048144	lakok_2_high_reversed	lakok/lakom	29	rokszik	-0.3483066942682157	rokszok	rokszom	1	NA	2	43	FALSE	TRUE	low	reversed	TRUE	FALSE	NA	NA
hungarian-esp_esp_participant_SESSION_2023-06-19_16h50.46.22.csv	2023-06-19T16:50:00Z	6107aa76ee9845023fb0cb80	nő	1999	17	4	posttest trial	159	Te bizony sokat pítszol. Én is sokat...	pítszom	pítszok	0	pítszom	NA	NA	1696	1050344	lakok_2_high_reversed	lakok/lakom	29	pítszik	-0.49247648509779407	pítszok	pítszom	1	NA	2	46	FALSE	TRUE	low	reversed	TRUE	FALSE	NA	NA
hungarian-esp_esp_participant_SESSION_2023-06-19_16h50.46.22.csv	2023-06-19T16:50:00Z	6107aa76ee9845023fb0cb80	nő	1999	17	4	posttest trial	160	Te bizony sokat brubzol. Én is sokat...	brubzok	brubzom	1	brubzom	NA	NA	2208	1053057	lakok_2_high_reversed	lakok/lakom	29	brubzik	0.3483066942682158	brubzok	brubzom	1	NA	2	25	FALSE	FALSE	low	reversed	FALSE	FALSE	NA	NA
hungarian-esp_esp_participant_SESSION_2023-06-19_16h50.46.22.csv	2023-06-19T16:50:00Z	6107aa76ee9845023fb0cb80	nő	1999	17	4	posttest trial	161	Te bizony sokat flehékszel. Én is sokat...	flehékszem	flehékszek	0	flehékszem	NA	NA	3359	1056920	lakok_2_high_reversed	lakok/lakom	29	flehékszik	-0.5978370007556204	flehékszek	flehékszem	2	NA	2	48	FALSE	TRUE	low	reversed	TRUE	FALSE	NA	NA
hungarian-esp_esp_participant_SESSION_2023-06-19_16h50.46.22.csv	2023-06-19T16:50:00Z	6107aa76ee9845023fb0cb80	nő	1999	17	4	posttest trial	162	Te bizony sokat brobódzol. Én is sokat...	brobódzom	brobódzok	0	brobódzom	NA	NA	3890	1061314	lakok_2_high_reversed	lakok/lakom	29	brobódzik	-0.6418538861723948	brobódzok	brobódzom	2	NA	2	49	FALSE	TRUE	low	reversed	TRUE	FALSE	NA	NA
hungarian-esp_esp_participant_SESSION_2023-06-19_16h50.46.22.csv	2023-06-19T16:50:00Z	6107aa76ee9845023fb0cb80	nő	1999	17	4	posttest trial	163	Te bizony sokat spüjzöl. Én is sokat...	spüjzöm	spüjzök	1	spüjzök	NA	NA	3109	1064927	lakok_2_high_reversed	lakok/lakom	29	spüjzik	0.8938178760220965	spüjzök	spüjzöm	1	NA	2	13	TRUE	FALSE	low	reversed	FALSE	TRUE	NA	NA
hungarian-esp_esp_participant_SESSION_2023-06-19_16h50.46.22.csv	2023-06-19T16:50:00Z	6107aa76ee9845023fb0cb80	nő	1999	17	4	posttest trial	164	Te bizony sokat pribemlesz. Én is sokat...	pribemlek	pribemlem	0	pribemlek	NA	NA	3561	1068992	lakok_2_high_reversed	lakok/lakom	29	pribemlik	1.9095425048844383	pribemlek	pribemlem	2	NA	2	2	TRUE	FALSE	low	reversed	TRUE	TRUE	NA	NA
hungarian-esp_esp_participant_SESSION_2023-06-19_16h50.46.22.csv	2023-06-19T16:50:00Z	6107aa76ee9845023fb0cb80	nő	1999	17	4	posttest trial	165	Te bizony sokat flátszol. Én is sokat...	flátszok	flátszom	1	flátszom	NA	NA	2039	1071535	lakok_2_high_reversed	lakok/lakom	29	flátszik	-0.4595323293784402	flátszok	flátszom	1	NA	2	45	FALSE	TRUE	low	reversed	FALSE	FALSE	NA	NA
hungarian-esp_esp_participant_SESSION_2023-06-19_16h50.46.22.csv	2023-06-19T16:50:00Z	6107aa76ee9845023fb0cb80	nő	1999	17	4	posttest trial	166	Te bizony sokat figlasz. Én is sokat...	figlok	figlom	1	figlom	NA	NA	1495	1073533	lakok_2_high_reversed	lakok/lakom	29	figlik	0.7419373447293773	figlok	figlom	1	NA	2	16	FALSE	FALSE	low	reversed	FALSE	FALSE	NA	NA
hungarian-esp_esp_participant_SESSION_2023-06-19_16h50.46.22.csv	2023-06-19T16:50:00Z	6107aa76ee9845023fb0cb80	nő	1999	17	4	posttest trial	167	Te bizony sokat flűmlesz. Én is sokat...	flűmlöm	flűmlök	1	flűmlök	NA	NA	2423	1076460	lakok_2_high_reversed	lakok/lakom	29	flűmlik	1.4271163556401458	flűmlök	flűmlöm	1	NA	2	5	TRUE	FALSE	low	reversed	FALSE	TRUE	NA	NA
hungarian-esp_esp_participant_SESSION_2023-06-19_16h50.46.22.csv	2023-06-19T16:50:00Z	6107aa76ee9845023fb0cb80	nő	1999	17	4	posttest trial	168	Te bizony sokat rájzol. Én is sokat...	rájzom	rájzok	1	rájzok	NA	NA	6244	1083209	lakok_2_high_reversed	lakok/lakom	29	rájzik	0	rájzok	rájzom	1	NA	2	34	FALSE	FALSE	low	reversed	FALSE	TRUE	NA	NA
hungarian-esp_esp_participant_SESSION_2023-06-19_16h50.46.22.csv	2023-06-19T16:50:00Z	6107aa76ee9845023fb0cb80	nő	1999	17	4	posttest trial	169	Te bizony sokat spülűdzöl. Én is sokat...	spülűdzöm	spülűdzök	1	spülűdzök	NA	NA	7924	1091639	lakok_2_high_reversed	lakok/lakom	29	spülűdzik	-0.1941560144409575	spülűdzök	spülűdzöm	2	NA	2	38	FALSE	FALSE	low	reversed	FALSE	TRUE	NA	NA
hungarian-esp_esp_participant_SESSION_2023-06-19_16h50.46.22.csv	2023-06-19T16:50:00Z	6107aa76ee9845023fb0cb80	nő	1999	17	4	posttest trial	170	Te bizony sokat plűbzöl. Én is sokat...	plűbzök	plűbzöm	0	plűbzök	NA	NA	4256	1096400	lakok_2_high_reversed	lakok/lakom	29	plűbzik	0.49247648509779424	plűbzök	plűbzöm	1	NA	2	21	FALSE	FALSE	low	reversed	TRUE	TRUE	NA	NA
hungarian-esp_esp_participant_SESSION_2023-06-19_16h50.46.22.csv	2023-06-19T16:50:00Z	6107aa76ee9845023fb0cb80	nő	1999	17	4	posttest trial	171	Te bizony sokat spáraklasz. Én is sokat...	spáraklom	spáraklok	0	spáraklom	NA	NA	4667	1101570	lakok_2_high_reversed	lakok/lakom	29	spáraklik	0.4595323293784402	spáraklok	spáraklom	2	NA	2	22	FALSE	FALSE	low	reversed	TRUE	FALSE	NA	NA
hungarian-esp_esp_participant_SESSION_2023-06-19_16h50.46.22.csv	2023-06-19T16:50:00Z	6107aa76ee9845023fb0cb80	nő	1999	17	4	posttest trial	172	Te bizony sokat prínylasz. Én is sokat...	prínylom	prínylok	0	prínylom	NA	NA	1184	1103258	lakok_2_high_reversed	lakok/lakom	29	prínylik	0.5877866649021191	prínylok	prínylom	1	NA	2	20	FALSE	FALSE	low	reversed	TRUE	FALSE	NA	NA
hungarian-esp_esp_participant_SESSION_2023-06-19_16h50.46.22.csv	2023-06-19T16:50:00Z	6107aa76ee9845023fb0cb80	nő	1999	17	4	posttest trial	173	Te bizony sokat treglesz. Én is sokat...	treglem	treglek	0	treglem	NA	NA	3377	1107139	lakok_2_high_reversed	lakok/lakom	29	treglik	0.7472144018302211	treglek	treglem	1	NA	2	15	TRUE	FALSE	low	reversed	TRUE	FALSE	NA	NA
hungarian-esp_esp_participant_SESSION_2023-06-19_16h52.02.524.csv	2023-06-19T16:52:00Z	5ef5f78600093427dfd5e120	nő	1995	16	2	esp trial	11	Te bizony sokat spibaklasz. Én is sokat...	spibaklok	spibaklom	0	spibaklok	spibaklom	FALSE	11476	285942	lakok_1_low_reversed	lakok/lakom	27	spibaklik	0.06899287148695142	spibaklok	spibaklom	2	NA	1	31	FALSE	FALSE	low	reversed	TRUE	TRUE	FALSE	FALSE
hungarian-esp_esp_participant_SESSION_2023-06-19_16h52.02.524.csv	2023-06-19T16:52:00Z	5ef5f78600093427dfd5e120	nő	1995	16	2	esp trial	13	Te bizony sokat fretszel. Én is sokat...	fretszem	fretszek	0	fretszem	fretszem	TRUE	3826	299004	lakok_1_low_reversed	lakok/lakom	27	fretszik	0	fretszek	fretszem	1	NA	1	33	FALSE	FALSE	low	reversed	TRUE	FALSE	FALSE	TRUE
hungarian-esp_esp_participant_SESSION_2023-06-19_16h52.02.524.csv	2023-06-19T16:52:00Z	5ef5f78600093427dfd5e120	nő	1995	16	2	esp trial	15	Te bizony sokat csíszlasz. Én is sokat...	csíszlom	csíszlok	1	csíszlok	csíszlom	FALSE	4412	312052	lakok_1_low_reversed	lakok/lakom	27	csíszlik	0.7419373447293773	csíszlok	csíszlom	1	NA	1	16	FALSE	FALSE	low	reversed	FALSE	TRUE	FALSE	FALSE
hungarian-esp_esp_participant_SESSION_2023-06-19_16h52.02.524.csv	2023-06-19T16:52:00Z	5ef5f78600093427dfd5e120	nő	1995	16	2	esp trial	17	Te bizony sokat spatárzol. Én is sokat...	spatárzom	spatárzok	1	spatárzok	spatárzom	FALSE	5216	325100	lakok_1_low_reversed	lakok/lakom	27	spatárzik	-0.06453852113757118	spatárzok	spatárzom	2	NA	1	35	FALSE	FALSE	low	reversed	FALSE	TRUE	FALSE	FALSE
hungarian-esp_esp_participant_SESSION_2023-06-19_16h52.02.524.csv	2023-06-19T16:52:00Z	5ef5f78600093427dfd5e120	nő	1995	16	2	esp trial	19	Te bizony sokat feténylesz. Én is sokat...	feténylek	feténylem	0	feténylek	feténylem	FALSE	5250	338148	lakok_1_low_reversed	lakok/lakom	27	feténylik	1.5686159179138452	feténylek	feténylem	2	NA	1	4	TRUE	FALSE	low	reversed	TRUE	TRUE	FALSE	FALSE
hungarian-esp_esp_participant_SESSION_2023-06-19_16h52.02.524.csv	2023-06-19T16:52:00Z	5ef5f78600093427dfd5e120	nő	1995	16	2	esp trial	21	Te bizony sokat hilarzol. Én is sokat...	hilarzom	hilarzok	1	hilarzok	hilarzom	FALSE	5133	351196	lakok_1_low_reversed	lakok/lakom	27	hilarzik	0.06899287148695142	hilarzok	hilarzom	2	NA	1	30	FALSE	FALSE	low	reversed	FALSE	TRUE	FALSE	FALSE
hungarian-esp_esp_participant_SESSION_2023-06-19_16h52.02.524.csv	2023-06-19T16:52:00Z	5ef5f78600093427dfd5e120	nő	1995	16	2	esp trial	23	Te bizony sokat tiregzel. Én is sokat...	tiregzek	tiregzem	0	tiregzek	tiregzem	FALSE	8100	364244	lakok_1_low_reversed	lakok/lakom	27	tiregzik	0.06453852113757116	tiregzek	tiregzem	2	NA	1	32	FALSE	FALSE	low	reversed	TRUE	TRUE	FALSE	FALSE
hungarian-esp_esp_participant_SESSION_2023-06-19_16h52.02.524.csv	2023-06-19T16:52:00Z	5ef5f78600093427dfd5e120	nő	1995	16	2	esp trial	25	Te bizony sokat tomlasz. Én is sokat...	tomlok	tomlom	0	tomlok	tomlom	FALSE	3557	377292	lakok_1_low_reversed	lakok/lakom	27	tomlik	2.2335922215070942	tomlok	tomlom	1	NA	1	1	TRUE	FALSE	low	reversed	TRUE	TRUE	FALSE	FALSE
hungarian-esp_esp_participant_SESSION_2023-06-19_16h52.02.524.csv	2023-06-19T16:52:00Z	5ef5f78600093427dfd5e120	nő	1995	16	2	esp trial	27	Te bizony sokat sojzol. Én is sokat...	sojzom	sojzok	1	sojzok	sojzok	TRUE	4516	390340	lakok_1_low_reversed	lakok/lakom	27	sojzik	-0.4595323293784402	sojzok	sojzom	1	NA	1	46	FALSE	TRUE	low	reversed	FALSE	TRUE	TRUE	FALSE
hungarian-esp_esp_participant_SESSION_2023-06-19_16h52.02.524.csv	2023-06-19T16:52:00Z	5ef5f78600093427dfd5e120	nő	1995	16	2	esp trial	29	Te bizony sokat pebzel. Én is sokat...	pebzek	pebzem	0	pebzek	pebzem	FALSE	4091	403388	lakok_1_low_reversed	lakok/lakom	27	pebzik	0.49247648509779424	pebzek	pebzem	1	NA	1	21	FALSE	FALSE	low	reversed	TRUE	TRUE	FALSE	FALSE
hungarian-esp_esp_participant_SESSION_2023-06-19_16h52.02.524.csv	2023-06-19T16:52:00Z	5ef5f78600093427dfd5e120	nő	1995	16	2	esp trial	31	Te bizony sokat tínylasz. Én is sokat...	tínylok	tínylom	0	tínylok	tínylom	FALSE	7450	416436	lakok_1_low_reversed	lakok/lakom	27	tínylik	0.4353180712578455	tínylok	tínylom	1	NA	1	24	FALSE	FALSE	low	reversed	TRUE	TRUE	FALSE	FALSE
hungarian-esp_esp_participant_SESSION_2023-06-19_16h52.02.524.csv	2023-06-19T16:52:00Z	5ef5f78600093427dfd5e120	nő	1995	16	2	esp trial	33	Te bizony sokat driládzol. Én is sokat...	driládzok	driládzom	0	driládzok	driládzok	TRUE	13222	433675	lakok_1_low_reversed	lakok/lakom	27	driládzik	-0.5978370007556204	driládzok	driládzom	2	NA	1	48	FALSE	TRUE	low	reversed	TRUE	TRUE	TRUE	FALSE
hungarian-esp_esp_participant_SESSION_2023-06-19_16h52.02.524.csv	2023-06-19T16:52:00Z	5ef5f78600093427dfd5e120	nő	1995	16	2	esp trial	35	Te bizony sokat pratánylasz. Én is sokat...	pratánylom	pratánylok	1	pratánylok	pratánylom	FALSE	5653	446724	lakok_1_low_reversed	lakok/lakom	27	pratánylik	1.2321436812926323	pratánylok	pratánylom	2	NA	1	7	TRUE	FALSE	low	reversed	FALSE	TRUE	FALSE	FALSE
hungarian-esp_esp_participant_SESSION_2023-06-19_16h52.02.524.csv	2023-06-19T16:52:00Z	5ef5f78600093427dfd5e120	nő	1995	16	2	esp trial	37	Te bizony sokat prilegzel. Én is sokat...	prilegzek	prilegzem	1	prilegzem	prilegzek	FALSE	8974	459772	lakok_1_low_reversed	lakok/lakom	27	prilegzik	-0.3483066942682157	prilegzek	prilegzem	2	NA	1	43	FALSE	TRUE	low	reversed	FALSE	FALSE	TRUE	TRUE
hungarian-esp_esp_participant_SESSION_2023-06-19_16h52.02.524.csv	2023-06-19T16:52:00Z	5ef5f78600093427dfd5e120	nő	1995	16	2	esp trial	39	Te bizony sokat flagárzol. Én is sokat...	flagárzok	flagárzom	0	flagárzok	flagárzom	FALSE	7668	472820	lakok_1_low_reversed	lakok/lakom	27	flagárzik	-0.2076393647782445	flagárzok	flagárzom	2	NA	1	39	FALSE	FALSE	low	reversed	TRUE	TRUE	FALSE	FALSE
hungarian-esp_esp_participant_SESSION_2023-06-19_16h52.02.524.csv	2023-06-19T16:52:00Z	5ef5f78600093427dfd5e120	nő	1995	16	2	esp trial	41	Te bizony sokat szirlasz. Én is sokat...	szirlok	szirlom	0	szirlok	szirlom	FALSE	3968	485868	lakok_1_low_reversed	lakok/lakom	27	szirlik	0.7419373447293773	szirlok	szirlom	1	NA	1	18	FALSE	FALSE	low	reversed	TRUE	TRUE	FALSE	FALSE
hungarian-esp_esp_participant_SESSION_2023-06-19_16h52.02.524.csv	2023-06-19T16:52:00Z	5ef5f78600093427dfd5e120	nő	1995	16	2	esp trial	43	Te bizony sokat klibamlasz. Én is sokat...	klibamlom	klibamlok	1	klibamlok	klibamlom	FALSE	15220	505105	lakok_1_low_reversed	lakok/lakom	27	klibamlik	0.4353180712578455	klibamlok	klibamlom	2	NA	1	23	FALSE	FALSE	low	reversed	FALSE	TRUE	FALSE	FALSE
hungarian-esp_esp_participant_SESSION_2023-06-19_16h52.02.524.csv	2023-06-19T16:52:00Z	5ef5f78600093427dfd5e120	nő	1995	16	2	esp trial	45	Te bizony sokat büglesz. Én is sokat...	büglök	büglöm	0	büglök	büglöm	FALSE	9983	519108	lakok_1_low_reversed	lakok/lakom	27	büglik	0.9162907318741552	büglök	büglöm	1	NA	1	11	TRUE	FALSE	low	reversed	TRUE	TRUE	FALSE	FALSE
hungarian-esp_esp_participant_SESSION_2023-06-19_16h52.02.524.csv	2023-06-19T16:52:00Z	5ef5f78600093427dfd5e120	nő	1995	16	2	esp trial	47	Te bizony sokat flűröklesz. Én is sokat...	flűröklök	flűröklöm	1	flűröklöm	flűröklöm	TRUE	9343	532467	lakok_1_low_reversed	lakok/lakom	27	flűröklik	0.32542240043462795	flűröklök	flűröklöm	2	NA	1	26	FALSE	FALSE	low	reversed	FALSE	FALSE	FALSE	TRUE
hungarian-esp_esp_participant_SESSION_2023-06-19_16h52.02.524.csv	2023-06-19T16:52:00Z	5ef5f78600093427dfd5e120	nő	1995	16	2	esp trial	49	Te bizony sokat spéslesz. Én is sokat...	spéslek	spéslem	0	spéslek	spéslem	FALSE	7080	545516	lakok_1_low_reversed	lakok/lakom	27	spéslik	1.1451323043030026	spéslek	spéslem	1	NA	1	8	TRUE	FALSE	low	reversed	TRUE	TRUE	FALSE	FALSE
hungarian-esp_esp_participant_SESSION_2023-06-19_16h52.02.524.csv	2023-06-19T16:52:00Z	5ef5f78600093427dfd5e120	nő	1995	16	2	esp trial	51	Te bizony sokat pivegszel. Én is sokat...	pivegszem	pivegszek	0	pivegszem	pivegszek	FALSE	8431	558564	lakok_1_low_reversed	lakok/lakom	27	pivegszik	-0.8938178760220964	pivegszek	pivegszem	2	NA	1	53	FALSE	TRUE	low	reversed	TRUE	FALSE	TRUE	TRUE
hungarian-esp_esp_participant_SESSION_2023-06-19_16h52.02.524.csv	2023-06-19T16:52:00Z	5ef5f78600093427dfd5e120	nő	1995	16	2	esp trial	53	Te bizony sokat trilszol. Én is sokat...	trilszok	trilszom	1	trilszom	trilszom	TRUE	6154	571612	lakok_1_low_reversed	lakok/lakom	27	trilszik	0.28768207245178085	trilszok	trilszom	1	NA	1	27	FALSE	FALSE	low	reversed	FALSE	FALSE	FALSE	TRUE
hungarian-esp_esp_participant_SESSION_2023-06-19_16h52.02.524.csv	2023-06-19T16:52:00Z	5ef5f78600093427dfd5e120	nő	1995	16	2	esp trial	55	Te bizony sokat siladzol. Én is sokat...	siladzom	siladzok	1	siladzok	siladzok	TRUE	4602	584660	lakok_1_low_reversed	lakok/lakom	27	siladzik	-0.4353180712578455	siladzok	siladzom	2	NA	1	45	FALSE	TRUE	low	reversed	FALSE	TRUE	TRUE	FALSE
hungarian-esp_esp_participant_SESSION_2023-06-19_16h52.02.524.csv	2023-06-19T16:52:00Z	5ef5f78600093427dfd5e120	nő	1995	16	2	esp trial	57	Te bizony sokat sűzlesz. Én is sokat...	sűzlök	sűzlöm	0	sűzlök	sűzlöm	FALSE	5285	597708	lakok_1_low_reversed	lakok/lakom	27	sűzlik	0.14310084364067324	sűzlök	sűzlöm	1	NA	1	29	FALSE	FALSE	low	reversed	TRUE	TRUE	FALSE	FALSE
hungarian-esp_esp_participant_SESSION_2023-06-19_16h52.02.524.csv	2023-06-19T16:52:00Z	5ef5f78600093427dfd5e120	nő	1995	16	2	esp trial	59	Te bizony sokat prűrlesz. Én is sokat...	prűrlök	prűrlöm	0	prűrlök	prűrlöm	FALSE	6363	610756	lakok_1_low_reversed	lakok/lakom	27	prűrlik	0.9162907318741552	prűrlök	prűrlöm	1	NA	1	12	TRUE	FALSE	low	reversed	TRUE	TRUE	FALSE	FALSE
hungarian-esp_esp_participant_SESSION_2023-06-19_16h52.02.524.csv	2023-06-19T16:52:00Z	5ef5f78600093427dfd5e120	nő	1995	16	2	esp trial	61	Te bizony sokat brágaklasz. Én is sokat...	brágaklok	brágaklom	0	brágaklok	brágaklok	TRUE	9988	624761	lakok_1_low_reversed	lakok/lakom	27	brágaklik	-0.325422400434628	brágaklok	brágaklom	2	NA	1	42	FALSE	TRUE	low	reversed	TRUE	TRUE	TRUE	FALSE
hungarian-esp_esp_participant_SESSION_2023-06-19_16h52.02.524.csv	2023-06-19T16:52:00Z	5ef5f78600093427dfd5e120	nő	1995	16	2	esp trial	63	Te bizony sokat lorjódzol. Én is sokat...	lorjódzom	lorjódzok	1	lorjódzok	lorjódzom	FALSE	5154	637812	lakok_1_low_reversed	lakok/lakom	27	lorjódzik	-0.1941560144409575	lorjódzok	lorjódzom	2	NA	1	37	FALSE	FALSE	low	reversed	FALSE	TRUE	FALSE	FALSE
hungarian-esp_esp_participant_SESSION_2023-06-19_16h52.02.524.csv	2023-06-19T16:52:00Z	5ef5f78600093427dfd5e120	nő	1995	16	2	esp trial	65	Te bizony sokat ribegzel. Én is sokat...	ribegzem	ribegzek	0	ribegzem	ribegzem	TRUE	11101	652930	lakok_1_low_reversed	lakok/lakom	27	ribegzik	-0.1941560144409575	ribegzek	ribegzem	2	NA	1	38	FALSE	FALSE	low	reversed	TRUE	FALSE	FALSE	TRUE
hungarian-esp_esp_participant_SESSION_2023-06-19_16h52.02.524.csv	2023-06-19T16:52:00Z	5ef5f78600093427dfd5e120	nő	1995	16	2	esp trial	67	Te bizony sokat bölszöl. Én is sokat...	bölszök	bölszöm	0	bölszök	bölszöm	FALSE	16988	673937	lakok_1_low_reversed	lakok/lakom	27	bölszik	0.3483066942682158	bölszök	bölszöm	1	NA	1	25	FALSE	FALSE	low	reversed	TRUE	TRUE	FALSE	FALSE
hungarian-esp_esp_participant_SESSION_2023-06-19_16h52.02.524.csv	2023-06-19T16:52:00Z	5ef5f78600093427dfd5e120	nő	1995	16	2	esp trial	69	Te bizony sokat narjárzol. Én is sokat...	narjárzok	narjárzom	0	narjárzok	narjárzom	FALSE	7769	686988	lakok_1_low_reversed	lakok/lakom	27	narjárzik	0	narjárzok	narjárzom	2	NA	1	34	FALSE	FALSE	low	reversed	TRUE	TRUE	FALSE	FALSE
hungarian-esp_esp_participant_SESSION_2023-06-19_16h52.02.524.csv	2023-06-19T16:52:00Z	5ef5f78600093427dfd5e120	nő	1995	16	2	esp trial	71	Te bizony sokat vilakszol. Én is sokat...	vilakszom	vilakszok	0	vilakszom	vilakszok	FALSE	4712	700036	lakok_1_low_reversed	lakok/lakom	27	vilakszik	-0.7985076962177716	vilakszok	vilakszom	2	NA	1	52	FALSE	TRUE	low	reversed	TRUE	FALSE	TRUE	TRUE
hungarian-esp_esp_participant_SESSION_2023-06-19_16h52.02.524.csv	2023-06-19T16:52:00Z	5ef5f78600093427dfd5e120	nő	1995	16	2	esp trial	73	Te bizony sokat spilágzol. Én is sokat...	spilágzok	spilágzom	0	spilágzok	spilágzok	TRUE	7992	713084	lakok_1_low_reversed	lakok/lakom	27	spilágzik	-0.9650808960435872	spilágzok	spilágzom	2	NA	1	54	FALSE	TRUE	low	reversed	TRUE	TRUE	TRUE	FALSE
hungarian-esp_esp_participant_SESSION_2023-06-19_16h52.02.524.csv	2023-06-19T16:52:00Z	5ef5f78600093427dfd5e120	nő	1995	16	2	esp trial	75	Te bizony sokat sztremlesz. Én is sokat...	sztremlek	sztremlem	0	sztremlek	sztremlem	FALSE	7305	726132	lakok_1_low_reversed	lakok/lakom	27	sztremlik	1.3437347467010947	sztremlek	sztremlem	1	NA	1	6	TRUE	FALSE	low	reversed	TRUE	TRUE	FALSE	FALSE
hungarian-esp_esp_participant_SESSION_2023-06-19_16h52.02.524.csv	2023-06-19T16:52:00Z	5ef5f78600093427dfd5e120	nő	1995	16	2	esp trial	77	Te bizony sokat spűmlesz. Én is sokat...	spűmlök	spűmlöm	0	spűmlök	spűmlöm	FALSE	5360	739180	lakok_1_low_reversed	lakok/lakom	27	spűmlik	1.5686159179138452	spűmlök	spűmlöm	1	NA	1	5	TRUE	FALSE	low	reversed	TRUE	TRUE	FALSE	FALSE
hungarian-esp_esp_participant_SESSION_2023-06-19_16h52.02.524.csv	2023-06-19T16:52:00Z	5ef5f78600093427dfd5e120	nő	1995	16	2	esp trial	79	Te bizony sokat juszlasz. Én is sokat...	juszlom	juszlok	0	juszlom	juszlom	TRUE	8014	752228	lakok_1_low_reversed	lakok/lakom	27	juszlik	0.4595323293784402	juszlok	juszlom	1	NA	1	22	FALSE	FALSE	low	reversed	TRUE	FALSE	FALSE	TRUE
hungarian-esp_esp_participant_SESSION_2023-06-19_16h52.02.524.csv	2023-06-19T16:52:00Z	5ef5f78600093427dfd5e120	nő	1995	16	2	esp trial	81	Te bizony sokat drubódzol. Én is sokat...	drubódzok	drubódzom	0	drubódzok	drubódzok	TRUE	4837	765276	lakok_1_low_reversed	lakok/lakom	27	drubódzik	-0.4353180712578455	drubódzok	drubódzom	2	NA	1	44	FALSE	TRUE	low	reversed	TRUE	TRUE	TRUE	FALSE
hungarian-esp_esp_participant_SESSION_2023-06-19_16h52.02.524.csv	2023-06-19T16:52:00Z	5ef5f78600093427dfd5e120	nő	1995	16	2	esp trial	83	Te bizony sokat jüslesz. Én is sokat...	jüslöm	jüslök	1	jüslök	jüslöm	FALSE	5550	778324	lakok_1_low_reversed	lakok/lakom	27	jüslik	0.965080896043587	jüslök	jüslöm	1	NA	1	10	TRUE	FALSE	low	reversed	FALSE	TRUE	FALSE	FALSE
hungarian-esp_esp_participant_SESSION_2023-06-19_16h52.02.524.csv	2023-06-19T16:52:00Z	5ef5f78600093427dfd5e120	nő	1995	16	2	esp trial	85	Te bizony sokat marzol. Én is sokat...	marzom	marzok	1	marzok	marzom	FALSE	2737	791372	lakok_1_low_reversed	lakok/lakom	27	marzik	0.7985076962177716	marzok	marzom	1	NA	1	14	TRUE	FALSE	low	reversed	FALSE	TRUE	FALSE	FALSE
hungarian-esp_esp_participant_SESSION_2023-06-19_16h52.02.524.csv	2023-06-19T16:52:00Z	5ef5f78600093427dfd5e120	nő	1995	16	2	esp trial	87	Te bizony sokat nyáslasz. Én is sokat...	nyáslom	nyáslok	1	nyáslok	nyáslom	FALSE	5857	804420	lakok_1_low_reversed	lakok/lakom	27	nyáslik	0.5877866649021191	nyáslok	nyáslom	1	NA	1	20	FALSE	FALSE	low	reversed	FALSE	TRUE	FALSE	FALSE
hungarian-esp_esp_participant_SESSION_2023-06-19_16h52.02.524.csv	2023-06-19T16:52:00Z	5ef5f78600093427dfd5e120	nő	1995	16	2	esp trial	89	Te bizony sokat klörlesz. Én is sokat...	klörlök	klörlöm	0	klörlök	klörlöm	FALSE	6082	817468	lakok_1_low_reversed	lakok/lakom	27	klörlik	0.6418538861723947	klörlök	klörlöm	1	NA	1	19	FALSE	FALSE	low	reversed	TRUE	TRUE	FALSE	FALSE
hungarian-esp_esp_participant_SESSION_2023-06-19_16h52.02.524.csv	2023-06-19T16:52:00Z	5ef5f78600093427dfd5e120	nő	1995	16	2	esp trial	91	Te bizony sokat femlesz. Én is sokat...	femlem	femlek	1	femlek	femlem	FALSE	5062	830516	lakok_1_low_reversed	lakok/lakom	27	femlik	1.6486586255873816	femlek	femlem	1	NA	1	3	TRUE	FALSE	low	reversed	FALSE	TRUE	FALSE	FALSE
hungarian-esp_esp_participant_SESSION_2023-06-19_16h52.02.524.csv	2023-06-19T16:52:00Z	5ef5f78600093427dfd5e120	nő	1995	16	2	esp trial	93	Te bizony sokat flagánylasz. Én is sokat...	flagánylom	flagánylok	1	flagánylok	flagánylom	FALSE	5559	843564	lakok_1_low_reversed	lakok/lakom	27	flagánylik	1.0560526742493137	flagánylok	flagánylom	2	NA	1	9	TRUE	FALSE	low	reversed	FALSE	TRUE	FALSE	FALSE
hungarian-esp_esp_participant_SESSION_2023-06-19_16h52.02.524.csv	2023-06-19T16:52:00Z	5ef5f78600093427dfd5e120	nő	1995	16	2	esp trial	95	Te bizony sokat frilegszel. Én is sokat...	frilegszek	frilegszem	1	frilegszem	frilegszek	FALSE	6012	856612	lakok_1_low_reversed	lakok/lakom	27	frilegszik	-0.2876820724517809	frilegszek	frilegszem	2	NA	1	40	FALSE	TRUE	low	reversed	FALSE	FALSE	TRUE	TRUE
hungarian-esp_esp_participant_SESSION_2023-06-19_16h52.02.524.csv	2023-06-19T16:52:00Z	5ef5f78600093427dfd5e120	nő	1995	16	2	esp trial	97	Te bizony sokat sprogzol. Én is sokat...	sprogzok	sprogzom	0	sprogzok	sprogzok	TRUE	8609	869660	lakok_1_low_reversed	lakok/lakom	27	sprogzik	-0.7419373447293773	sprogzok	sprogzom	1	NA	1	51	FALSE	TRUE	low	reversed	TRUE	TRUE	TRUE	FALSE
hungarian-esp_esp_participant_SESSION_2023-06-19_16h52.02.524.csv	2023-06-19T16:52:00Z	5ef5f78600093427dfd5e120	nő	1995	16	2	esp trial	99	Te bizony sokat fibamlasz. Én is sokat...	fibamlok	fibamlom	0	fibamlok	fibamlom	FALSE	4797	882708	lakok_1_low_reversed	lakok/lakom	27	fibamlik	1.9095425048844383	fibamlok	fibamlom	2	NA	1	2	TRUE	FALSE	low	reversed	TRUE	TRUE	FALSE	FALSE
hungarian-esp_esp_participant_SESSION_2023-06-19_16h52.02.524.csv	2023-06-19T16:52:00Z	5ef5f78600093427dfd5e120	nő	1995	16	2	esp trial	101	Te bizony sokat brüjlesz. Én is sokat...	brüjlök	brüjlöm	0	brüjlök	brüjlöm	FALSE	4538	895756	lakok_1_low_reversed	lakok/lakom	27	brüjlik	0.7472144018302211	brüjlök	brüjlöm	1	NA	1	15	TRUE	FALSE	low	reversed	TRUE	TRUE	FALSE	FALSE
hungarian-esp_esp_participant_SESSION_2023-06-19_16h52.02.524.csv	2023-06-19T16:52:00Z	5ef5f78600093427dfd5e120	nő	1995	16	2	esp trial	103	Te bizony sokat herégszel. Én is sokat...	herégszem	herégszek	0	herégszem	herégszek	FALSE	10191	909964	lakok_1_low_reversed	lakok/lakom	27	herégszik	-0.6418538861723948	herégszek	herégszem	2	NA	1	50	FALSE	TRUE	low	reversed	TRUE	FALSE	TRUE	TRUE
hungarian-esp_esp_participant_SESSION_2023-06-19_16h52.02.524.csv	2023-06-19T16:52:00Z	5ef5f78600093427dfd5e120	nő	1995	16	2	esp trial	105	Te bizony sokat böjzöl. Én is sokat...	böjzök	böjzöm	0	böjzök	böjzöm	FALSE	7372	923012	lakok_1_low_reversed	lakok/lakom	27	böjzik	0.14310084364067324	böjzök	böjzöm	1	NA	1	28	FALSE	FALSE	low	reversed	TRUE	TRUE	FALSE	FALSE
hungarian-esp_esp_participant_SESSION_2023-06-19_16h52.02.524.csv	2023-06-19T16:52:00Z	5ef5f78600093427dfd5e120	nő	1995	16	2	esp trial	107	Te bizony sokat sprökszöl. Én is sokat...	sprökszöm	sprökszök	0	sprökszöm	sprökszök	FALSE	18214	945244	lakok_1_low_reversed	lakok/lakom	27	sprökszik	-0.2876820724517809	sprökszök	sprökszöm	1	NA	1	41	FALSE	TRUE	low	reversed	TRUE	FALSE	TRUE	TRUE
hungarian-esp_esp_participant_SESSION_2023-06-19_16h52.02.524.csv	2023-06-19T16:52:00Z	5ef5f78600093427dfd5e120	nő	1995	16	2	esp trial	109	Te bizony sokat flüröslesz. Én is sokat...	flüröslöm	flüröslök	0	flüröslöm	flüröslöm	TRUE	5950	958292	lakok_1_low_reversed	lakok/lakom	27	flüröslik	0.7419373447293773	flüröslök	flüröslöm	2	NA	1	17	FALSE	FALSE	low	reversed	TRUE	FALSE	FALSE	TRUE
hungarian-esp_esp_participant_SESSION_2023-06-19_16h52.02.524.csv	2023-06-19T16:52:00Z	5ef5f78600093427dfd5e120	nő	1995	16	2	esp trial	111	Te bizony sokat málapszol. Én is sokat...	málapszok	málapszom	0	málapszok	málapszom	FALSE	6268	971340	lakok_1_low_reversed	lakok/lakom	27	málapszik	-0.06899287148695143	málapszok	málapszom	2	NA	1	36	FALSE	FALSE	low	reversed	TRUE	TRUE	FALSE	FALSE
hungarian-esp_esp_participant_SESSION_2023-06-19_16h52.02.524.csv	2023-06-19T16:52:00Z	5ef5f78600093427dfd5e120	nő	1995	16	2	esp trial	113	Te bizony sokat ruslasz. Én is sokat...	ruslok	ruslom	0	ruslok	ruslom	FALSE	14422	989779	lakok_1_low_reversed	lakok/lakom	27	ruslik	0.8938178760220965	ruslok	ruslom	1	NA	1	13	TRUE	FALSE	low	reversed	TRUE	TRUE	FALSE	FALSE
