"trial_type","trial_index","time_elapsed","internal_node_id","rt","stimulus","response","response_string","choices","esp_response","trial_kind","list_number","esp_match"
"pavlovia","0","818","0.0-0.0","","","","","","","","",""
"html-button-response","1","87554","0.0-1.0","86224","<p>Kedves Résztvevő! A Budapesti Műszaki és Gazdaságtudományi Egyetem Kognitív Tudományi Tanszékének kutatásában való részvételed kérjük. A kutatásban azt vizsgáljuk, hogy a magyar anyanyelvűek hogyan használnak bizonyos szóalakokat, és hogy milyen képük van arról, hogy mások hogyan használják, hogyan képzik a szavakat. Ez hozzásegít bennünket ahhoz, hogy jobban megértsük, hogyan dolgozza fel és tárolja a nyelvet az emberi agy, és hogyan működnek, hogyan változnak egy adott közösség nyelvi konvenciói.</p><p>A vizsgálat egy rövid számítógépes feladatból fog állni. A kutatásban való részvétel önkéntes, a részvételi szándék bármikor visszavonható. A résztvevők eredményeit név nélkül kezeljük, így nem beazonosíthatók az adatok feldolgozása során. Minden személyes adatot az EU általános adatvédelmi rendeletének (GDPR) megfelelően kezelünk és legfeljebb öt éven belül megsemmisítünk. A vizsgálat jellemzően húsz percet vesz igénybe.</p><p>Kutatásvezető:</p><p>Dr. Rácz Péter, tudományos munkatárs, BME KTT</p><p>e-mail: racz.peter.marton@ttk.bme.hu</p>","0","","","","","",""
"html-button-response","2","205232","0.0-2.0","117166","<p>A kísérletben szavakat fogsz látni. Ezek között lesznek olyanok, amelyeket ismersz, de előfordulhatnak olyanok is, amelyeket nem ismersz, sőt, vannak köztük kitalált szavak is. Minden szónál látni fogsz toldalékolt alakokat. A te feladatod az lesz, hogy minden szóhoz kiválaszd azt a toldalékolt alakot, amely a te számodra ismerősebben, természetesebben hangzik. Rossz válaszok nincsenek, mert van olyan, hogy különböző embereknek más és más szó tűnik jobb választásnak. A választ úgy tudod majd kiválasztani, ha rákattintasz.</p><p>Ebben a szóválasztós játékban egy másik játékossal együtt veszel majd részt. A másik játékos is minden esetben azok közül a lehetőségek közül válogathat, mint te. Kettőtök feladata az, hogy ugyanazt a lehetőséget válasszátok minden esetben. Ahhoz, hogy ez sikerüljön, neked figyelned kell arra, hogy a másik játékos milyen válaszokat ad, és ennek alapján meg kell tippelned, hogyan választ legközelebb. Ha eltalálod, akkor pontot kapsz.</p>","0","","","","","",""
"html-button-response","3","217878","0.0-3.0","12142","<p>Kérjük, olvasd el az alábbi nyilatkozatot, és amennyiben egyetértesz vele, nyomj a Beleegyezés gombra!</p><p>Kijelentem, hogy magyar anyanyelvű személyként önként veszek részt a BME KTT kísérletében. A kutatás céljával és folyamatával kapcsolatban elegendő tájékoztatást kaptam, lehetőségem volt kérdések feltételére, és esetleges kérdéseimre megfelelő válaszokat kaptam. A tájékoztatás alapján elegendő mennyiségű információ áll a rendelkezésemre, hogy eldönthessem, részt kívánok-e venni a kutatásban.</p><p>Tisztában vagyok vele, hogy részvételi szándékomat és adataimat bármikor, indoklás nélkül visszavonhatom.</p><p>Értem és tudomásul veszem, hogy a kutatás tudományos célokat szolgál, és az általam szolgáltatott adatokat a BME kizárólag kutatási célból használja fel. Tudomásul veszem, hogy eredményeimet a többi résztvevő eredményeivel együtt kezelik, így egyéni teljesítményemről visszajelzést, szakvéleményt nem kapok.</p><p>Megértettem, hogy adataim kezelését illetően a BME az EU általános adatvédelmi rendelete (GDPR), a hatályos adatvédelmi törvény és a nemzetközi kutatás-etikai alapelvek szerint jár el. Eredményeim anonim módon kerülnek feldolgozásra, és a kutatás résztvevői az azonosításomra alkalmas adataimat harmadik félnek nem szolgáltatják ki. Engedélyezem a BME számára a jelen kutatásban felvett adataim feldolgozását és tárolását, beleértve azok későbbi kutatásokhoz való felhasználását is. Személyes adataim kezelésével kapcsolatban tájékoztatást kérhetek a kutatás résztvevőitől, az adatkezelés ellen tiltakozhatok, kérhetem személyes adataim helyesbítését, törlését vagy zárolását, valamint jogorvoslatért a Nemzeti Adatvédelmi és Információszabadság Hatósághoz fordulhatok.</p><p>Kijelentem, hogy a kutatásban való részvételem körülményeiről részletes tájékoztatást kaptam, és a feltételeket elfogadom.</p>","0","","","","","",""
"survey-text","4","257131","0.0-4.0","38745","","{""Q0"":""EIPAU5"",""Q1"":""nő"",""Q2"":""1998"",""Q3"":""16""}","","","","","",""
"html-button-response","5","275355","0.0-5.0","17721","<p>Ebben a játékban szavakat kell toldalékolni.</p> <p>Minden körben mutatunk majd egy példamondatot, amiben lesz egy szó.</p> <p>Alatta jön egy második mondat, ezt a mondatot neked kell majd befejezni, ugyanezzel a szóval.</p> <p>Nem biztos, hogy a szó eleve ismerős lesz számodra!</p> <p>Minden mondathoz adunk két lehetőséget, ezeket balra és jobbra látod majd.</p> <p>A játék kb. negyedóráig-húsz percig tart.</p>","0","","","","","",""
"html-button-response","6","295268","0.0-6.0","19409","<p>Nézzünk egy példát!</p> <p>A példamondat: ""Ez itt egy blumbnyeg.""</p><p>Neked ezt a mondatot kell befejezned: ""Ott vagyunk a...""</p><p>A lehetőségek pedig ezek:</p>","0","","","","","",""
"html-button-response","7","303961","0.0-7.0","8191","<p>Nagyon jó.</p><p>Ezt a játékot nem egyedül fogod játszani, hanem egy másik játékossal.</p><p>Mielőtt továbblépünk, összekapcsolunk titeket egymással.</p><p>Ez igénybe vehet néhány másodpercet, amihez szíves türelmed kérjük.</p>","0","","","","","",""
"html-button-response","8","309697","0.0-8.0","null","<p>Csatlakozás a másik játékoshoz...</p>","null","","","","","",""
"html-button-response","9","312204","0.0-9.0","null","<p> Sikeres kapcsolódás!</p>","null","","","","","",""
"html-button-response","10","322710","0.0-10.0","null","<p>A következőkben ketten játsszátok a szóválasztós játékot.</p><p>A feladatotok az lesz, hogy minden körben <b>ugyanazt</b> a szót válasszátok.</p><p>Minden ilyen egyező válaszért pontot kaptok.</p><p>Próbáld meg kitalálni, mit választ a másik játékos!</p><p>Bármikor választhatsz, a körnek akkor van vége, ha mindketten döntöttetek.</p><p>Sok sikert!</p>","null","","","","","",""
"html-button-response-esp","11","329446","0.0-11.0-0.0","6232","Ez itt egy pristél. Ott vagyunk a...","1","pristélben","[""pristélban"",""pristélben""]","pristélban","esp trial","4","false"
"html-button-response","12","332953","0.0-11.0-1.0","null","<p>A másik játékos ezt választotta: <b>pristélban</b>.</p><p>&#10060;</p><p>A válaszaitok <b>nem</b> egyeznek meg.</p>","null","","","","feedback trial","",""
"html-button-response-esp","13","341218","0.0-11.0-0.1","7757","Ez itt egy szibed. Ott vagyunk a...","0","szibedban","[""szibedban"",""szibedben""]","szibedban","esp trial","4","true"
"html-button-response","14","344720","0.0-11.0-1.1","null","<p>A másik játékos ezt választotta: <b>szibedban</b>.</p><p>&#x2705;</p><p>A te válaszod és a másik játékos válasza <b>megegyeznek</b>.</p>","null","","","","feedback trial","",""
"html-button-response-esp","15","357777","0.0-11.0-0.2","12555","Ez itt egy vodec. Nincs is jobb egy jó...","0","vodecnál","[""vodecnál"",""vodecnél""]","vodecnál","esp trial","4","true"
"html-button-response","16","361280","0.0-11.0-1.2","null","<p>A másik játékos ezt választotta: <b>vodecnál</b>.</p><p>&#x2705;</p><p>A te válaszod és a másik játékos válasza <b>megegyeznek</b>.</p>","null","","","","feedback trial","",""
"html-button-response-esp","17","370214","0.0-11.0-0.3","8432","Ez itt egy klítegy. Nincs is jobb egy jó...","0","klítegynál","[""klítegynál"",""klítegynél""]","klítegynál","esp trial","4","true"
"html-button-response","18","373727","0.0-11.0-1.3","null","<p>A másik játékos ezt választotta: <b>klítegynál</b>.</p><p>&#x2705;</p><p>A te válaszod és a másik játékos válasza <b>megegyeznek</b>.</p>","null","","","","feedback trial","",""
"html-button-response-esp","19","381092","0.0-11.0-0.4","6863","Ez itt egy csodeg. Nincs is jobb egy jó...","1","csodegnál","[""csodegnél"",""csodegnál""]","csodegnál","esp trial","4","true"
"html-button-response","20","384597","0.0-11.0-1.4","null","<p>A másik játékos ezt választotta: <b>csodegnál</b>.</p><p>&#x2705;</p><p>A te válaszod és a másik játékos válasza <b>megegyeznek</b>.</p>","null","","","","feedback trial","",""
"html-button-response-esp","21","390613","0.0-11.0-0.5","4436","Ez itt egy dutec. Nincs is jobb egy jó...","0","dutecnál","[""dutecnál"",""dutecnél""]","dutecnál","esp trial","4","true"
"html-button-response","22","394127","0.0-11.0-1.5","null","<p>A másik játékos ezt választotta: <b>dutecnál</b>.</p><p>&#x2705;</p><p>A te válaszod és a másik játékos válasza <b>megegyeznek</b>.</p>","null","","","","feedback trial","",""
"html-button-response-esp","23","401260","0.0-11.0-0.6","6619","Ez itt egy spizec. Elneveztem a kutyámat...","0","spizecnak","[""spizecnak"",""spizecnek""]","spizecnak","esp trial","4","true"
"html-button-response","24","404773","0.0-11.0-1.6","null","<p>A másik játékos ezt választotta: <b>spizecnak</b>.</p><p>&#x2705;</p><p>A te válaszod és a másik játékos válasza <b>megegyeznek</b>.</p>","null","","","","feedback trial","",""
"html-button-response-esp","25","410785","0.0-11.0-0.7","4071","Ez itt egy sihen. Nincs is jobb egy jó...","0","sihennál","[""sihennál"",""sihennél""]","sihennál","esp trial","4","true"
"html-button-response","26","414305","0.0-11.0-1.7","null","<p>A másik játékos ezt választotta: <b>sihennál</b>.</p><p>&#x2705;</p><p>A te válaszod és a másik játékos válasza <b>megegyeznek</b>.</p>","null","","","","feedback trial","",""
"html-button-response-esp","27","424679","0.0-11.0-0.8","9859","Ez itt egy pazév. Nincs is jobb egy jó...","0","pazévnál","[""pazévnál"",""pazévnél""]","pazévnél","esp trial","4","false"
"html-button-response","28","428207","0.0-11.0-1.8","null","<p>A másik játékos ezt választotta: <b>pazévnél</b>.</p><p>&#10060;</p><p>A válaszaitok <b>nem</b> egyeznek meg.</p>","null","","","","feedback trial","",""
"html-button-response-esp","29","440079","0.0-11.0-0.9","11358","Ez itt egy fojlegy. Elneveztem a kutyámat...","0","fojlegynek","[""fojlegynek"",""fojlegynak""]","fojlegynak","esp trial","4","false"
"html-button-response","30","443604","0.0-11.0-1.9","null","<p>A másik játékos ezt választotta: <b>fojlegynak</b>.</p><p>&#10060;</p><p>A válaszaitok <b>nem</b> egyeznek meg.</p>","null","","","","feedback trial","",""
"html-button-response-esp","31","449621","0.0-11.0-0.10","4412","Ez itt egy fágyép. Nincs is jobb egy jó...","0","fágyépnél","[""fágyépnél"",""fágyépnál""]","fágyépnél","esp trial","4","true"
"html-button-response","32","453143","0.0-11.0-1.10","null","<p>A másik játékos ezt választotta: <b>fágyépnél</b>.</p><p>&#x2705;</p><p>A te válaszod és a másik játékos válasza <b>megegyeznek</b>.</p>","null","","","","feedback trial","",""
"html-button-response-esp","33","459147","0.0-11.0-0.11","4211","Ez itt egy lihény. Elneveztem a kutyámat...","0","lihénynak","[""lihénynak"",""lihénynek""]","lihénynak","esp trial","4","true"
"html-button-response","34","462652","0.0-11.0-1.11","null","<p>A másik játékos ezt választotta: <b>lihénynak</b>.</p><p>&#x2705;</p><p>A te válaszod és a másik játékos válasza <b>megegyeznek</b>.</p>","null","","","","feedback trial","",""
"html-button-response-esp","35","468665","0.0-11.0-0.12","2553","Ez itt egy lingék. Nincs is jobb egy jó...","1","lingéknál","[""lingéknél"",""lingéknál""]","lingéknál","esp trial","4","true"
"html-button-response","36","472173","0.0-11.0-1.12","null","<p>A másik játékos ezt választotta: <b>lingéknál</b>.</p><p>&#x2705;</p><p>A te válaszod és a másik játékos válasza <b>megegyeznek</b>.</p>","null","","","","feedback trial","",""
"html-button-response-esp","37","478194","0.0-11.0-0.13","3562","Ez itt egy hijegy. Nincs is jobb egy jó...","1","hijegynál","[""hijegynél"",""hijegynál""]","hijegynál","esp trial","4","true"
"html-button-response","38","481709","0.0-11.0-1.13","null","<p>A másik játékos ezt választotta: <b>hijegynál</b>.</p><p>&#x2705;</p><p>A te válaszod és a másik játékos válasza <b>megegyeznek</b>.</p>","null","","","","feedback trial","",""
"html-button-response-esp","39","490109","0.0-11.0-0.14","7899","Ez itt egy szanéj. Elneveztem a kutyámat...","1","szanéjnek","[""szanéjnak"",""szanéjnek""]","szanéjnek","esp trial","4","true"
"html-button-response","40","493623","0.0-11.0-1.14","null","<p>A másik játékos ezt választotta: <b>szanéjnek</b>.</p><p>&#x2705;</p><p>A te válaszod és a másik játékos válasza <b>megegyeznek</b>.</p>","null","","","","feedback trial","",""
"html-button-response-esp","41","500282","0.0-11.0-0.15","6158","Ez itt egy hosét. Elneveztem a kutyámat...","1","hosétnak","[""hosétnek"",""hosétnak""]","hosétnek","esp trial","4","false"
"html-button-response","42","503803","0.0-11.0-1.15","null","<p>A másik játékos ezt választotta: <b>hosétnek</b>.</p><p>&#10060;</p><p>A válaszaitok <b>nem</b> egyeznek meg.</p>","null","","","","feedback trial","",""
"html-button-response-esp","43","515258","0.0-11.0-0.16","10952","Ez itt egy murdes. Nincs is jobb egy jó...","0","murdesnál","[""murdesnál"",""murdesnél""]","murdesnál","esp trial","4","true"
"html-button-response","44","518770","0.0-11.0-1.16","null","<p>A másik játékos ezt választotta: <b>murdesnál</b>.</p><p>&#x2705;</p><p>A te válaszod és a másik játékos válasza <b>megegyeznek</b>.</p>","null","","","","feedback trial","",""
"html-button-response-esp","45","524786","0.0-11.0-0.17","5474","Ez itt egy vurnel. Elneveztem a kutyámat...","1","vurnelnak","[""vurnelnek"",""vurnelnak""]","vurnelnak","esp trial","4","true"
"html-button-response","46","528306","0.0-11.0-1.17","null","<p>A másik játékos ezt választotta: <b>vurnelnak</b>.</p><p>&#x2705;</p><p>A te válaszod és a másik játékos válasza <b>megegyeznek</b>.</p>","null","","","","feedback trial","",""
"html-button-response-esp","47","543086","0.0-11.0-0.18","14268","Ez itt egy klazér. Ott vagyunk a...","0","klazérben","[""klazérben"",""klazérban""]","klazérben","esp trial","4","true"
"html-button-response","48","546598","0.0-11.0-1.18","null","<p>A másik játékos ezt választotta: <b>klazérben</b>.</p><p>&#x2705;</p><p>A te válaszod és a másik játékos válasza <b>megegyeznek</b>.</p>","null","","","","feedback trial","",""
"html-button-response-esp","49","552607","0.0-11.0-0.19","5361","Ez itt egy zined. Elneveztem a kutyámat...","1","zinednak","[""zinednek"",""zinednak""]","zinednak","esp trial","4","true"
"html-button-response","50","556119","0.0-11.0-1.19","null","<p>A másik játékos ezt választotta: <b>zinednak</b>.</p><p>&#x2705;</p><p>A te válaszod és a másik játékos válasza <b>megegyeznek</b>.</p>","null","","","","feedback trial","",""
"html-button-response-esp","51","564760","0.0-11.0-0.20","8140","Ez itt egy zuten. Nincs is jobb egy jó...","1","zutennál","[""zutennél"",""zutennál""]","zutennál","esp trial","4","true"
"html-button-response","52","568278","0.0-11.0-1.20","null","<p>A másik játékos ezt választotta: <b>zutennál</b>.</p><p>&#x2705;</p><p>A te válaszod és a másik játékos válasza <b>megegyeznek</b>.</p>","null","","","","feedback trial","",""
"html-button-response-esp","53","598201","0.0-11.0-0.21","29411","Ez itt egy kátéd. Nincs is jobb egy jó...","1","kátédnél","[""kátédnál"",""kátédnél""]","kátédnél","esp trial","4","true"
"html-button-response","54","601708","0.0-11.0-1.21","null","<p>A másik játékos ezt választotta: <b>kátédnél</b>.</p><p>&#x2705;</p><p>A te válaszod és a másik játékos válasza <b>megegyeznek</b>.</p>","null","","","","feedback trial","",""
"html-button-response-esp","55","609846","0.0-11.0-0.22","7636","Ez itt egy spatel. Elneveztem a kutyámat...","0","spatelnek","[""spatelnek"",""spatelnak""]","spatelnak","esp trial","4","false"
"html-button-response","56","613362","0.0-11.0-1.22","null","<p>A másik játékos ezt választotta: <b>spatelnak</b>.</p><p>&#10060;</p><p>A válaszaitok <b>nem</b> egyeznek meg.</p>","null","","","","feedback trial","",""
"html-button-response-esp","57","619779","0.0-11.0-0.23","5915","Ez itt egy zsalrén. Elneveztem a kutyámat...","0","zsalrénnek","[""zsalrénnek"",""zsalrénnak""]","zsalrénnak","esp trial","4","false"
"html-button-response","58","623302","0.0-11.0-1.23","null","<p>A másik játékos ezt választotta: <b>zsalrénnak</b>.</p><p>&#10060;</p><p>A válaszaitok <b>nem</b> egyeznek meg.</p>","null","","","","feedback trial","",""
"html-button-response-esp","59","629306","0.0-11.0-0.24","4923","Ez itt egy trikép. Ott vagyunk a...","1","triképban","[""triképben"",""triképban""]","triképban","esp trial","4","true"
"html-button-response","60","632821","0.0-11.0-1.24","null","<p>A másik játékos ezt választotta: <b>triképban</b>.</p><p>&#x2705;</p><p>A te válaszod és a másik játékos válasza <b>megegyeznek</b>.</p>","null","","","","feedback trial","",""
"html-button-response-esp","61","642366","0.0-11.0-0.25","9044","Ez itt egy klajrén. Elneveztem a kutyámat...","1","klajrénnek","[""klajrénnak"",""klajrénnek""]","klajrénnek","esp trial","4","true"
"html-button-response","62","645876","0.0-11.0-1.25","null","<p>A másik játékos ezt választotta: <b>klajrénnek</b>.</p><p>&#x2705;</p><p>A te válaszod és a másik játékos válasza <b>megegyeznek</b>.</p>","null","","","","feedback trial","",""
"html-button-response-esp","63","651886","0.0-11.0-0.26","3350","Ez itt egy spivél. Elneveztem a kutyámat...","1","spivélnak","[""spivélnek"",""spivélnak""]","spivélnak","esp trial","4","true"
"html-button-response","64","655401","0.0-11.0-1.26","null","<p>A másik játékos ezt választotta: <b>spivélnak</b>.</p><p>&#x2705;</p><p>A te válaszod és a másik játékos válasza <b>megegyeznek</b>.</p>","null","","","","feedback trial","",""
"html-button-response-esp","65","667679","0.0-11.0-0.27","11774","Ez itt egy fupét. Nincs is jobb egy jó...","0","fupétnél","[""fupétnél"",""fupétnál""]","fupétnál","esp trial","4","false"
"html-button-response","66","671193","0.0-11.0-1.27","null","<p>A másik játékos ezt választotta: <b>fupétnál</b>.</p><p>&#10060;</p><p>A válaszaitok <b>nem</b> egyeznek meg.</p>","null","","","","feedback trial","",""
"html-button-response-esp","67","677202","0.0-11.0-0.28","4606","Ez itt egy gábéd. Nincs is jobb egy jó...","0","gábédnál","[""gábédnál"",""gábédnél""]","gábédnél","esp trial","4","false"
"html-button-response","68","680713","0.0-11.0-1.28","null","<p>A másik játékos ezt választotta: <b>gábédnél</b>.</p><p>&#10060;</p><p>A válaszaitok <b>nem</b> egyeznek meg.</p>","null","","","","feedback trial","",""
"html-button-response-esp","69","701504","0.0-11.0-0.29","20290","Ez itt egy trodély. Ott vagyunk a...","1","trodélyben","[""trodélyban"",""trodélyben""]","trodélyben","esp trial","4","true"
"html-button-response","70","705029","0.0-11.0-1.29","null","<p>A másik játékos ezt választotta: <b>trodélyben</b>.</p><p>&#x2705;</p><p>A te válaszod és a másik játékos válasza <b>megegyeznek</b>.</p>","null","","","","feedback trial","",""
"html-button-response-esp","71","711035","0.0-11.0-0.30","4858","Ez itt egy fizend. Ott vagyunk a...","0","fizendban","[""fizendban"",""fizendben""]","fizendban","esp trial","4","true"
"html-button-response","72","714536","0.0-11.0-1.30","null","<p>A másik játékos ezt választotta: <b>fizendban</b>.</p><p>&#x2705;</p><p>A te válaszod és a másik játékos válasza <b>megegyeznek</b>.</p>","null","","","","feedback trial","",""
"html-button-response-esp","73","723883","0.0-11.0-0.31","8845","Ez itt egy dajrens. Nincs is jobb egy jó...","0","dajrensnál","[""dajrensnál"",""dajrensnél""]","dajrensnál","esp trial","4","true"
"html-button-response","74","727385","0.0-11.0-1.31","null","<p>A másik játékos ezt választotta: <b>dajrensnál</b>.</p><p>&#x2705;</p><p>A te válaszod és a másik játékos válasza <b>megegyeznek</b>.</p>","null","","","","feedback trial","",""
"html-button-response-esp","75","734159","0.0-11.0-0.32","6272","Ez itt egy dóbem. Elneveztem a kutyámat...","1","dóbemnak","[""dóbemnek"",""dóbemnak""]","dóbemnak","esp trial","4","true"
"html-button-response","76","737673","0.0-11.0-1.32","null","<p>A másik játékos ezt választotta: <b>dóbemnak</b>.</p><p>&#x2705;</p><p>A te válaszod és a másik játékos válasza <b>megegyeznek</b>.</p>","null","","","","feedback trial","",""
"html-button-response-esp","77","747574","0.0-11.0-0.33","9400","Ez itt egy briskéd. Nincs is jobb egy jó...","1","briskédnál","[""briskédnél"",""briskédnál""]","briskédnál","esp trial","4","true"
"html-button-response","78","751096","0.0-11.0-1.33","null","<p>A másik játékos ezt választotta: <b>briskédnál</b>.</p><p>&#x2705;</p><p>A te válaszod és a másik játékos válasza <b>megegyeznek</b>.</p>","null","","","","feedback trial","",""
"html-button-response-esp","79","766647","0.0-11.0-0.34","15051","Ez itt egy nuhét. Nincs is jobb egy jó...","1","nuhétnál","[""nuhétnél"",""nuhétnál""]","nuhétnál","esp trial","4","true"
"html-button-response","80","770160","0.0-11.0-1.34","null","<p>A másik játékos ezt választotta: <b>nuhétnál</b>.</p><p>&#x2705;</p><p>A te válaszod és a másik játékos válasza <b>megegyeznek</b>.</p>","null","","","","feedback trial","",""
"html-button-response-esp","81","782246","0.0-11.0-0.35","11585","Ez itt egy dunkész. Ott vagyunk a...","0","dunkészban","[""dunkészban"",""dunkészben""]","dunkészben","esp trial","4","false"
"html-button-response","82","785759","0.0-11.0-1.35","null","<p>A másik játékos ezt választotta: <b>dunkészben</b>.</p><p>&#10060;</p><p>A válaszaitok <b>nem</b> egyeznek meg.</p>","null","","","","feedback trial","",""
"html-button-response-esp","83","810091","0.0-11.0-0.36","23831","Ez itt egy zatéj. Nincs is jobb egy jó...","1","zatéjnél","[""zatéjnál"",""zatéjnél""]","zatéjnál","esp trial","4","false"
"html-button-response","84","813607","0.0-11.0-1.36","null","<p>A másik játékos ezt választotta: <b>zatéjnál</b>.</p><p>&#10060;</p><p>A válaszaitok <b>nem</b> egyeznek meg.</p>","null","","","","feedback trial","",""
"html-button-response-esp","85","820912","0.0-11.0-0.37","6793","Ez itt egy lijez. Elneveztem a kutyámat...","1","lijeznak","[""lijeznek"",""lijeznak""]","lijeznak","esp trial","4","true"
"html-button-response","86","824421","0.0-11.0-1.37","null","<p>A másik játékos ezt választotta: <b>lijeznak</b>.</p><p>&#x2705;</p><p>A te válaszod és a másik játékos válasza <b>megegyeznek</b>.</p>","null","","","","feedback trial","",""
"html-button-response-esp","87","830716","0.0-11.0-0.38","5793","Ez itt egy zábény. Elneveztem a kutyámat...","1","zábénynak","[""zábénynek"",""zábénynak""]","zábénynak","esp trial","4","true"
"html-button-response","88","834224","0.0-11.0-1.38","null","<p>A másik játékos ezt választotta: <b>zábénynak</b>.</p><p>&#x2705;</p><p>A te válaszod és a másik játékos válasza <b>megegyeznek</b>.</p>","null","","","","feedback trial","",""
"html-button-response-esp","89","840225","0.0-11.0-0.39","5172","Ez itt egy csublény. Ott vagyunk a...","1","csublényban","[""csublényben"",""csublényban""]","csublényben","esp trial","4","false"
"html-button-response","90","843736","0.0-11.0-1.39","null","<p>A másik játékos ezt választotta: <b>csublényben</b>.</p><p>&#10060;</p><p>A válaszaitok <b>nem</b> egyeznek meg.</p>","null","","","","feedback trial","",""
"html-button-response-esp","91","851247","0.0-11.0-0.40","7002","Ez itt egy vismer. Nincs is jobb egy jó...","0","vismernál","[""vismernál"",""vismernél""]","vismernál","esp trial","4","true"
"html-button-response","92","854754","0.0-11.0-1.40","null","<p>A másik játékos ezt választotta: <b>vismernál</b>.</p><p>&#x2705;</p><p>A te válaszod és a másik játékos válasza <b>megegyeznek</b>.</p>","null","","","","feedback trial","",""
"html-button-response-esp","93","861267","0.0-11.0-0.41","6006","Ez itt egy bingéj. Elneveztem a kutyámat...","1","bingéjnak","[""bingéjnek"",""bingéjnak""]","bingéjnak","esp trial","4","true"
"html-button-response","94","864770","0.0-11.0-1.41","null","<p>A másik játékos ezt választotta: <b>bingéjnak</b>.</p><p>&#x2705;</p><p>A te válaszod és a másik játékos válasza <b>megegyeznek</b>.</p>","null","","","","feedback trial","",""
"html-button-response-esp","95","877658","0.0-11.0-0.42","12388","Ez itt egy cságyelt. Ott vagyunk a...","0","cságyeltban","[""cságyeltban"",""cságyeltben""]","cságyeltban","esp trial","4","true"
"html-button-response","96","881171","0.0-11.0-1.42","null","<p>A másik játékos ezt választotta: <b>cságyeltban</b>.</p><p>&#x2705;</p><p>A te válaszod és a másik játékos válasza <b>megegyeznek</b>.</p>","null","","","","feedback trial","",""
"html-button-response-esp","97","894731","0.0-11.0-0.43","13058","Ez itt egy humék. Elneveztem a kutyámat...","1","huméknak","[""huméknek"",""huméknak""]","huméknek","esp trial","4","false"
"html-button-response","98","898244","0.0-11.0-1.43","null","<p>A másik játékos ezt választotta: <b>huméknek</b>.</p><p>&#10060;</p><p>A válaszaitok <b>nem</b> egyeznek meg.</p>","null","","","","feedback trial","",""
"html-button-response-esp","99","906928","0.0-11.0-0.44","8183","Ez itt egy jutély. Nincs is jobb egy jó...","0","jutélynél","[""jutélynél"",""jutélynál""]","jutélynél","esp trial","4","true"
"html-button-response","100","910434","0.0-11.0-1.44","null","<p>A másik játékos ezt választotta: <b>jutélynél</b>.</p><p>&#x2705;</p><p>A te válaszod és a másik játékos válasza <b>megegyeznek</b>.</p>","null","","","","feedback trial","",""
"html-button-response-esp","101","918902","0.0-11.0-0.45","7966","Ez itt egy surnegy. Nincs is jobb egy jó...","0","surnegynál","[""surnegynál"",""surnegynél""]","surnegynál","esp trial","4","true"
"html-button-response","102","922411","0.0-11.0-1.45","null","<p>A másik játékos ezt választotta: <b>surnegynál</b>.</p><p>&#x2705;</p><p>A te válaszod és a másik játékos válasza <b>megegyeznek</b>.</p>","null","","","","feedback trial","",""
"html-button-response-esp","103","928739","0.0-11.0-0.46","5826","Ez itt egy tarhéz. Ott vagyunk a...","0","tarhézben","[""tarhézben"",""tarhézban""]","tarhézben","esp trial","4","true"
"html-button-response","104","932249","0.0-11.0-1.46","null","<p>A másik játékos ezt választotta: <b>tarhézben</b>.</p><p>&#x2705;</p><p>A te válaszod és a másik játékos válasza <b>megegyeznek</b>.</p>","null","","","","feedback trial","",""
"html-button-response-esp","105","943578","0.0-11.0-0.47","10828","Ez itt egy jurdent. Nincs is jobb egy jó...","1","jurdentnál","[""jurdentnél"",""jurdentnál""]","jurdentnál","esp trial","4","true"
"html-button-response","106","947085","0.0-11.0-1.47","null","<p>A másik játékos ezt választotta: <b>jurdentnál</b>.</p><p>&#x2705;</p><p>A te válaszod és a másik játékos válasza <b>megegyeznek</b>.</p>","null","","","","feedback trial","",""
"html-button-response-esp","107","960970","0.0-11.0-0.48","13384","Ez itt egy tumély. Nincs is jobb egy jó...","0","tumélynél","[""tumélynél"",""tumélynál""]","tumélynál","esp trial","4","false"
"html-button-response","108","964472","0.0-11.0-1.48","null","<p>A másik játékos ezt választotta: <b>tumélynál</b>.</p><p>&#10060;</p><p>A válaszaitok <b>nem</b> egyeznek meg.</p>","null","","","","feedback trial","",""
"html-button-response-esp","109","981684","0.0-11.0-0.49","16710","Ez itt egy dinelt. Ott vagyunk a...","0","dineltban","[""dineltban"",""dineltben""]","dineltban","esp trial","4","true"
"html-button-response","110","985185","0.0-11.0-1.49","null","<p>A másik játékos ezt választotta: <b>dineltban</b>.</p><p>&#x2705;</p><p>A te válaszod és a másik játékos válasza <b>megegyeznek</b>.</p>","null","","","","feedback trial","",""
"html-button-response-esp","111","991188","0.0-11.0-0.50","3801","Ez itt egy tivenc. Ott vagyunk a...","0","tivencban","[""tivencban"",""tivencben""]","tivencban","esp trial","4","true"
"html-button-response","112","994691","0.0-11.0-1.50","null","<p>A másik játékos ezt választotta: <b>tivencban</b>.</p><p>&#x2705;</p><p>A te válaszod és a másik játékos válasza <b>megegyeznek</b>.</p>","null","","","","feedback trial","",""
"html-button-response-esp","113","1000693","0.0-11.0-0.51","4867","Ez itt egy dibez. Ott vagyunk a...","0","dibezban","[""dibezban"",""dibezben""]","dibezban","esp trial","4","true"
"html-button-response","114","1004195","0.0-11.0-1.51","null","<p>A másik játékos ezt választotta: <b>dibezban</b>.</p><p>&#x2705;</p><p>A te válaszod és a másik játékos válasza <b>megegyeznek</b>.</p>","null","","","","feedback trial","",""
"html-button-response-esp","115","1011777","0.0-11.0-0.52","7080","Ez itt egy zarcég. Nincs is jobb egy jó...","0","zarcégnál","[""zarcégnál"",""zarcégnél""]","zarcégnál","esp trial","4","true"
"html-button-response","116","1015288","0.0-11.0-1.52","null","<p>A másik játékos ezt választotta: <b>zarcégnál</b>.</p><p>&#x2705;</p><p>A te válaszod és a másik játékos válasza <b>megegyeznek</b>.</p>","null","","","","feedback trial","",""
"html-button-response-esp","117","1025327","0.0-11.0-0.53","9537","Ez itt egy mádép. Nincs is jobb egy jó...","0","mádépnál","[""mádépnál"",""mádépnél""]","mádépnél","esp trial","4","false"
"html-button-response","118","1028837","0.0-11.0-1.53","null","<p>A másik játékos ezt választotta: <b>mádépnél</b>.</p><p>&#10060;</p><p>A válaszaitok <b>nem</b> egyeznek meg.</p>","null","","","","feedback trial","",""
"html-button-response","119","1046600","0.0-12.0","17262","<p>A közös játék most véget ért.</p><p>Mielőtt eláruljuk a végső pontszámodat, arra kérlek, játszd a szóválasztós játékot néhány percig egyedül is.</p><p>A feladatod ugyanaz lesz, választani két lehetőség közül.</p><p>Most viszont egyedül kell döntened, hogy te melyiket választanád.</p>","0","","","","","",""
"html-button-response-clever","120","1052575","0.0-13.0-0.0","5473","Ez itt egy kluhéj. Nincs is jobb egy jó...","0","kluhéjnál","[""kluhéjnál"",""kluhéjnél""]","","posttest trial","8",""
"html-button-response-clever","121","1058058","0.0-13.0-0.1","4975","Ez itt egy szihét. Elneveztem a kutyámat...","0","szihétnek","[""szihétnek"",""szihétnak""]","","posttest trial","8",""
"html-button-response-clever","122","1066459","0.0-13.0-0.2","7892","Ez itt egy tránély. Elneveztem a kutyámat...","0","tránélynak","[""tránélynak"",""tránélynek""]","","posttest trial","8",""
"html-button-response-clever","123","1071069","0.0-13.0-0.3","4108","Ez itt egy bidem. Ott vagyunk a...","1","bidemben","[""bidemban"",""bidemben""]","","posttest trial","8",""
"html-button-response-clever","124","1083844","0.0-13.0-0.4","12273","Ez itt egy vublet. Nincs is jobb egy jó...","0","vubletnél","[""vubletnél"",""vubletnál""]","","posttest trial","8",""
"html-button-response-clever","125","1097170","0.0-13.0-0.5","12823","Ez itt egy jalrény. Nincs is jobb egy jó...","1","jalrénynél","[""jalrénynál"",""jalrénynél""]","","posttest trial","8",""
"html-button-response-clever","126","1104468","0.0-13.0-0.6","6796","Ez itt egy kábesz. Nincs is jobb egy jó...","1","kábesznál","[""kábesznél"",""kábesznál""]","","posttest trial","8",""
"html-button-response-clever","127","1110512","0.0-13.0-0.7","5541","Ez itt egy hóbens. Ott vagyunk a...","1","hóbensben","[""hóbensban"",""hóbensben""]","","posttest trial","8",""
"html-button-response-clever","128","1116138","0.0-13.0-0.8","5111","Ez itt egy dingec. Elneveztem a kutyámat...","1","dingecnek","[""dingecnak"",""dingecnek""]","","posttest trial","8",""
"html-button-response-clever","129","1120317","0.0-13.0-0.9","3677","Ez itt egy trincseg. Ott vagyunk a...","1","trincsegben","[""trincsegban"",""trincsegben""]","","posttest trial","8",""
"html-button-response-clever","130","1125247","0.0-13.0-0.10","4428","Ez itt egy fincek. Nincs is jobb egy jó...","0","finceknél","[""finceknél"",""finceknál""]","","posttest trial","8",""
"html-button-response-clever","131","1129297","0.0-13.0-0.11","3536","Ez itt egy kliszer. Nincs is jobb egy jó...","0","kliszernél","[""kliszernél"",""kliszernál""]","","posttest trial","8",""
"html-button-response-clever","132","1135772","0.0-13.0-0.12","5973","Ez itt egy spáten. Elneveztem a kutyámat...","1","spátennek","[""spátennak"",""spátennek""]","","posttest trial","8",""
"html-button-response-clever","133","1141360","0.0-13.0-0.13","5086","Ez itt egy trigenc. Elneveztem a kutyámat...","1","trigencnek","[""trigencnak"",""trigencnek""]","","posttest trial","8",""
"html-button-response-clever","134","1150346","0.0-13.0-0.14","8486","Ez itt egy gonszék. Nincs is jobb egy jó...","0","gonszéknél","[""gonszéknél"",""gonszéknál""]","","posttest trial","8",""
"html-button-response-clever","135","1157569","0.0-13.0-0.15","6721","Ez itt egy zsopéd. Ott vagyunk a...","0","zsopédban","[""zsopédban"",""zsopédben""]","","posttest trial","8",""
"html-button-response-clever","136","1163440","0.0-13.0-0.16","5370","Ez itt egy kadér. Nincs is jobb egy jó...","0","kadérnál","[""kadérnál"",""kadérnél""]","","posttest trial","8",""
"html-button-response-clever","137","1169171","0.0-13.0-0.17","5229","Ez itt egy brukész. Nincs is jobb egy jó...","0","brukésznél","[""brukésznél"",""brukésznál""]","","posttest trial","8",""
"html-button-response-clever","138","1176167","0.0-13.0-0.18","6494","Ez itt egy csinték. Ott vagyunk a...","0","csintékben","[""csintékben"",""csintékban""]","","posttest trial","8",""
"html-button-response-clever","139","1183602","0.0-13.0-0.19","6925","Ez itt egy nidét. Ott vagyunk a...","0","nidétben","[""nidétben"",""nidétban""]","","posttest trial","8",""
"html-button-response-clever","140","1188484","0.0-13.0-0.20","4382","Ez itt egy szutend. Ott vagyunk a...","1","szutendben","[""szutendban"",""szutendben""]","","posttest trial","8",""
"html-button-response-clever","141","1193206","0.0-13.0-0.21","4220","Ez itt egy jábéz. Ott vagyunk a...","0","jábézben","[""jábézben"",""jábézban""]","","posttest trial","8",""
"html-button-response-clever","142","1202370","0.0-13.0-0.22","8662","Ez itt egy jorzég. Elneveztem a kutyámat...","1","jorzégnak","[""jorzégnek"",""jorzégnak""]","","posttest trial","8",""
"html-button-response-clever","143","1206164","0.0-13.0-0.23","3292","Ez itt egy navec. Ott vagyunk a...","0","navecban","[""navecban"",""navecben""]","","posttest trial","8",""
"html-button-response-clever","144","1211736","0.0-13.0-0.24","5070","Ez itt egy sporzem. Elneveztem a kutyámat...","1","sporzemnek","[""sporzemnak"",""sporzemnek""]","","posttest trial","8",""
"html-button-response-clever","145","1217122","0.0-13.0-0.25","4886","Ez itt egy nyábét. Ott vagyunk a...","0","nyábétben","[""nyábétben"",""nyábétban""]","","posttest trial","8",""
"html-button-response-clever","146","1234147","0.0-13.0-0.26","16523","Ez itt egy prately. Elneveztem a kutyámat...","0","pratelynek","[""pratelynek"",""pratelynak""]","","posttest trial","8",""
"html-button-response-clever","147","1261782","0.0-13.0-0.27","27133","Ez itt egy gótem. Elneveztem a kutyámat...","0","gótemnek","[""gótemnek"",""gótemnak""]","","posttest trial","8",""
"html-button-response-clever","148","1283105","0.0-13.0-0.28","20815","Ez itt egy sprízem. Nincs is jobb egy jó...","1","sprízemnél","[""sprízemnál"",""sprízemnél""]","","posttest trial","8",""
"html-button-response-clever","149","1287539","0.0-13.0-0.29","3925","Ez itt egy vodép. Elneveztem a kutyámat...","0","vodépnak","[""vodépnak"",""vodépnek""]","","posttest trial","8",""
"html-button-response-clever","150","1292342","0.0-13.0-0.30","4302","Ez itt egy júder. Elneveztem a kutyámat...","0","júdernak","[""júdernak"",""júdernek""]","","posttest trial","8",""
"html-button-response-clever","151","1330599","0.0-13.0-0.31","37756","Ez itt egy klordény. Elneveztem a kutyámat...","1","klordénynak","[""klordénynek"",""klordénynak""]","","posttest trial","8",""
"html-button-response-clever","152","1336040","0.0-13.0-0.32","4941","Ez itt egy brágéd. Elneveztem a kutyámat...","0","brágédnak","[""brágédnak"",""brágédnek""]","","posttest trial","8",""
"html-button-response-clever","153","1339195","0.0-13.0-0.33","2642","Ez itt egy brotes. Ott vagyunk a...","0","brotesben","[""brotesben"",""brotesban""]","","posttest trial","8",""
"html-button-response-clever","154","1343048","0.0-13.0-0.34","3350","Ez itt egy priszkenc. Elneveztem a kutyámat...","1","priszkencnek","[""priszkencnak"",""priszkencnek""]","","posttest trial","8",""
"html-button-response-clever","155","1347886","0.0-13.0-0.35","4336","Ez itt egy trapszegy. Nincs is jobb egy jó...","0","trapszegynél","[""trapszegynél"",""trapszegynál""]","","posttest trial","8",""
"html-button-response-clever","156","1353369","0.0-13.0-0.36","4982","Ez itt egy gicéj. Nincs is jobb egy jó...","0","gicéjnél","[""gicéjnél"",""gicéjnál""]","","posttest trial","8",""
"html-button-response-clever","157","1357178","0.0-13.0-0.37","3307","Ez itt egy forzéd. Elneveztem a kutyámat...","0","forzédnak","[""forzédnak"",""forzédnek""]","","posttest trial","8",""
"html-button-response-clever","158","1372914","0.0-13.0-0.38","15234","Ez itt egy hivép. Ott vagyunk a...","1","hivépben","[""hivépban"",""hivépben""]","","posttest trial","8",""
"html-button-response-clever","159","1383312","0.0-13.0-0.39","9896","Ez itt egy csartény. Elneveztem a kutyámat...","1","csarténynek","[""csarténynak"",""csarténynek""]","","posttest trial","8",""
"html-button-response-clever","160","1387465","0.0-13.0-0.40","3652","Ez itt egy matéz. Ott vagyunk a...","0","matézban","[""matézban"",""matézben""]","","posttest trial","8",""
"html-button-response-clever","161","1394388","0.0-13.0-0.41","6422","Ez itt egy ikszert. Ott vagyunk a...","0","ikszertben","[""ikszertben"",""ikszertban""]","","posttest trial","8",""
"html-button-response-clever","162","1399015","0.0-13.0-0.42","4126","Ez itt egy giheszt. Elneveztem a kutyámat...","0","gihesztnek","[""gihesztnek"",""gihesztnak""]","","posttest trial","8",""
"html-button-response-clever","163","1410268","0.0-13.0-0.43","10747","Ez itt egy lismév. Ott vagyunk a...","1","lismévben","[""lismévban"",""lismévben""]","","posttest trial","8",""
"html-button-response-clever","164","1414070","0.0-13.0-0.44","3289","Ez itt egy brigeszt. Elneveztem a kutyámat...","0","brigesztnek","[""brigesztnek"",""brigesztnak""]","","posttest trial","8",""
"html-button-response-clever","165","1420121","0.0-13.0-0.45","5549","Ez itt egy csimen. Nincs is jobb egy jó...","1","csimennél","[""csimennál"",""csimennél""]","","posttest trial","8",""
"html-button-response-clever","166","1427475","0.0-13.0-0.46","6853","Ez itt egy sartely. Ott vagyunk a...","1","sartelyban","[""sartelyben"",""sartelyban""]","","posttest trial","8",""
"html-button-response-clever","167","1440185","0.0-13.0-0.47","12208","Ez itt egy licegy. Ott vagyunk a...","0","licegyben","[""licegyben"",""licegyban""]","","posttest trial","8",""
"html-button-response-clever","168","1449689","0.0-13.0-0.48","9000","Ez itt egy bródesz. Elneveztem a kutyámat...","1","bródesznek","[""bródesznak"",""bródesznek""]","","posttest trial","8",""
"html-button-response-clever","169","1455633","0.0-13.0-0.49","5442","Ez itt egy ronvet. Elneveztem a kutyámat...","1","ronvetnek","[""ronvetnak"",""ronvetnek""]","","posttest trial","8",""
"html-button-response-clever","170","1467207","0.0-13.0-0.50","11056","Ez itt egy nyarcéj. Elneveztem a kutyámat...","1","nyarcéjnek","[""nyarcéjnak"",""nyarcéjnek""]","","posttest trial","8",""
"html-button-response-clever","171","1473209","0.0-13.0-0.51","5501","Ez itt egy buhény. Ott vagyunk a...","0","buhényben","[""buhényben"",""buhényban""]","","posttest trial","8",""
"html-button-response-clever","172","1477923","0.0-13.0-0.52","4209","Ez itt egy tranék. Ott vagyunk a...","0","tranékban","[""tranékban"",""tranékben""]","","posttest trial","8",""
"html-button-response-clever","173","1487721","0.0-13.0-0.53","9297","Ez itt egy fádens. Elneveztem a kutyámat...","0","fádensnek","[""fádensnek"",""fádensnak""]","","posttest trial","8",""
"html-button-response","174","1498606","0.0-14.0","10382","<p> Vége a játéknak. A teljes pontszámod 40/54.</p><p> Szép munka! &#128526;&#128526;&#128526;</p><p>A Befejezés gomb megnyomása után bezárhatod a böngészőablakot.</p>","0","","","","","",""
"html-keyboard-response","175","1504110","0.0-15.0","null","<div class=""message"">
         <p>Egy kis türelmet kérünk, amíg elmentjük az adatokat...</p>
         </div>","null","","","","","",""
