"trial_type","trial_index","time_elapsed","internal_node_id","rt","stimulus","response","response_string","choices","esp_response","trial_kind","list_number","esp_match"
"pavlovia","0","796","0.0-0.0","","","","","","","","",""
"html-button-response","1","4476","0.0-1.0","3172","<p>Kedves Résztvevő! A Budapesti Műszaki és Gazdaságtudományi Egyetem Kognitív Tudományi Tanszékének kutatásában való részvételed kérjük. A kutatásban azt vizsgáljuk, hogy a magyar anyanyelvűek hogyan használnak bizonyos szóalakokat, és hogy milyen képük van arról, hogy mások hogyan használják, hogyan képzik a szavakat. Ez hozzásegít bennünket ahhoz, hogy jobban megértsük, hogyan dolgozza fel és tárolja a nyelvet az emberi agy, és hogyan működnek, hogyan változnak egy adott közösség nyelvi konvenciói.</p><p>A vizsgálat egy rövid számítógépes feladatból fog állni. A kutatásban való részvétel önkéntes, a részvételi szándék bármikor visszavonható. A résztvevők eredményeit név nélkül kezeljük, így nem beazonosíthatók az adatok feldolgozása során. Minden személyes adatot az EU általános adatvédelmi rendeletének (GDPR) megfelelően kezelünk és legfeljebb öt éven belül megsemmisítünk. A vizsgálat jellemzően húsz percet vesz igénybe.</p><p>Kutatásvezető:</p><p>Dr. Rácz Péter, tudományos munkatárs, BME KTT</p><p>e-mail: racz.peter.marton@ttk.bme.hu</p>","0","","","","","",""
"html-button-response","2","6377","0.0-2.0","1399","<p>A kísérletben szavakat fogsz látni. Ezek között lesznek olyanok, amelyeket ismersz, de előfordulhatnak olyanok is, amelyeket nem ismersz, sőt, vannak köztük kitalált szavak is. Minden szónál látni fogsz toldalékolt alakokat. A te feladatod az lesz, hogy minden szóhoz kiválaszd azt a toldalékolt alakot, amely a te számodra ismerősebben, természetesebben hangzik. Rossz válaszok nincsenek, mert van olyan, hogy különböző embereknek más és más szó tűnik jobb választásnak. A választ úgy tudod majd kiválasztani, ha rákattintasz.</p><p>Ebben a szóválasztós játékban egy másik játékossal együtt veszel majd részt. A másik játékos is minden esetben azok közül a lehetőségek közül válogathat, mint te. Kettőtök feladata az, hogy ugyanazt a lehetőséget válasszátok minden esetben. Ahhoz, hogy ez sikerüljön, neked figyelned kell arra, hogy a másik játékos milyen válaszokat ad, és ennek alapján meg kell tippelned, hogyan választ legközelebb. Ha eltalálod, akkor pontot kapsz.</p>","0","","","","","",""
"html-button-response","3","8532","0.0-3.0","1651","<p>Kérjük, olvasd el az alábbi nyilatkozatot, és amennyiben egyetértesz vele, nyomj a Beleegyezés gombra!</p><p>Kijelentem, hogy magyar anyanyelvű személyként önként veszek részt a BME KTT kísérletében. A kutatás céljával és folyamatával kapcsolatban elegendő tájékoztatást kaptam, lehetőségem volt kérdések feltételére, és esetleges kérdéseimre megfelelő válaszokat kaptam. A tájékoztatás alapján elegendő mennyiségű információ áll a rendelkezésemre, hogy eldönthessem, részt kívánok-e venni a kutatásban.</p><p>Tisztában vagyok vele, hogy részvételi szándékomat és adataimat bármikor, indoklás nélkül visszavonhatom.</p><p>Értem és tudomásul veszem, hogy a kutatás tudományos célokat szolgál, és az általam szolgáltatott adatokat a BME kizárólag kutatási célból használja fel. Tudomásul veszem, hogy eredményeimet a többi résztvevő eredményeivel együtt kezelik, így egyéni teljesítményemről visszajelzést, szakvéleményt nem kapok.</p><p>Megértettem, hogy adataim kezelését illetően a BME az EU általános adatvédelmi rendelete (GDPR), a hatályos adatvédelmi törvény és a nemzetközi kutatás-etikai alapelvek szerint jár el. Eredményeim anonim módon kerülnek feldolgozásra, és a kutatás résztvevői az azonosításomra alkalmas adataimat harmadik félnek nem szolgáltatják ki. Engedélyezem a BME számára a jelen kutatásban felvett adataim feldolgozását és tárolását, beleértve azok későbbi kutatásokhoz való felhasználását is. Személyes adataim kezelésével kapcsolatban tájékoztatást kérhetek a kutatás résztvevőitől, az adatkezelés ellen tiltakozhatok, kérhetem személyes adataim helyesbítését, törlését vagy zárolását, valamint jogorvoslatért a Nemzeti Adatvédelmi és Információszabadság Hatósághoz fordulhatok.</p><p>Kijelentem, hogy a kutatásban való részvételem körülményeiről részletes tájékoztatást kaptam, és a feltételeket elfogadom.</p>","0","","","","","",""
"survey-text","4","25345","0.0-4.0","16298","","{""Q0"":""J6VW4H"",""Q1"":""Nő"",""Q2"":""2001"",""Q3"":""12""}","","","","","",""
"html-button-response","5","28923","0.0-5.0","3075","<p>Ebben a játékban szavakat kell toldalékolni.</p> <p>Minden körben mutatunk majd egy példamondatot, amiben lesz egy szó.</p> <p>Alatta jön egy második mondat, ezt a mondatot neked kell majd befejezni, ugyanezzel a szóval.</p> <p>Nem biztos, hogy a szó eleve ismerős lesz számodra!</p> <p>Minden mondathoz adunk két lehetőséget, ezeket balra és jobbra látod majd.</p> <p>A játék kb. negyedóráig-húsz percig tart.</p>","0","","","","","",""
"html-button-response","6","47812","0.0-6.0","18386","<p>Nézzünk egy példát!</p> <p>A példamondat: ""Ez itt egy blumbnyeg.""</p><p>Neked ezt a mondatot kell befejezned: ""Ott vagyunk a...""</p><p>A lehetőségek pedig ezek:</p>","0","","","","","",""
"html-button-response","7","52822","0.0-7.0","4508","<p>Nagyon jó.</p><p>Ezt a játékot nem egyedül fogod játszani, hanem egy másik játékossal.</p><p>Mielőtt továbblépünk, összekapcsolunk titeket egymással.</p><p>Ez igénybe vehet néhány másodpercet, amihez szíves türelmed kérjük.</p>","0","","","","","",""
"html-button-response","8","58547","0.0-8.0","null","<p>Csatlakozás a másik játékoshoz...</p>","null","","","","","",""
"html-button-response","9","61051","0.0-9.0","null","<p> Sikeres kapcsolódás!</p>","null","","","","","",""
"html-button-response","10","68757","0.0-10.0","7203","<p>A következőkben ketten játsszátok a szóválasztós játékot.</p><p>A feladatotok az lesz, hogy minden körben <b>ugyanazt</b> a szót válasszátok.</p><p>Minden ilyen egyező válaszért pontot kaptok.</p><p>Próbáld meg kitalálni, mit választ a másik játékos!</p><p>Bármikor választhatsz, a körnek akkor van vége, ha mindketten döntöttetek.</p><p>Sok sikert!</p>","0","","","","","",""
"html-button-response-esp","11","76859","0.0-11.0-0.0","7597","Ez itt egy dutec. Nincs is jobb egy jó...","1","dutecnél","[""dutecnál"",""dutecnél""]","dutecnél","esp trial","6","true"
"html-button-response","12","80364","0.0-11.0-1.0","null","<p>A másik játékos ezt választotta: <b>dutecnél</b>.</p><p>&#x2705;</p><p>A te válaszod és a másik játékos válasza <b>megegyeznek</b>.</p>","null","","","","feedback trial","",""
"html-button-response-esp","13","88000","0.0-11.0-0.1","7131","Ez itt egy zsalrén. Elneveztem a kutyámat...","1","zsalrénnak","[""zsalrénnek"",""zsalrénnak""]","zsalrénnek","esp trial","6","false"
"html-button-response","14","91505","0.0-11.0-1.1","null","<p>A másik játékos ezt választotta: <b>zsalrénnek</b>.</p><p>&#10060;</p><p>A válaszaitok <b>nem</b> egyeznek meg.</p>","null","","","","feedback trial","",""
"html-button-response-esp","15","97238","0.0-11.0-0.2","5229","Ez itt egy dinelt. Ott vagyunk a...","0","dineltben","[""dineltben"",""dineltban""]","dineltban","esp trial","6","false"
"html-button-response","16","100743","0.0-11.0-1.2","null","<p>A másik játékos ezt választotta: <b>dineltban</b>.</p><p>&#10060;</p><p>A válaszaitok <b>nem</b> egyeznek meg.</p>","null","","","","feedback trial","",""
"html-button-response-esp","17","106526","0.0-11.0-0.3","5281","Ez itt egy nuhét. Nincs is jobb egy jó...","0","nuhétnél","[""nuhétnél"",""nuhétnál""]","nuhétnél","esp trial","6","true"
"html-button-response","18","110031","0.0-11.0-1.3","null","<p>A másik játékos ezt választotta: <b>nuhétnél</b>.</p><p>&#x2705;</p><p>A te válaszod és a másik játékos válasza <b>megegyeznek</b>.</p>","null","","","","feedback trial","",""
"html-button-response-esp","19","117144","0.0-11.0-0.4","6611","Ez itt egy tarhéz. Ott vagyunk a...","1","tarhézban","[""tarhézben"",""tarhézban""]","tarhézben","esp trial","6","false"
"html-button-response","20","120649","0.0-11.0-1.4","null","<p>A másik játékos ezt választotta: <b>tarhézben</b>.</p><p>&#10060;</p><p>A válaszaitok <b>nem</b> egyeznek meg.</p>","null","","","","feedback trial","",""
"html-button-response-esp","21","125263","0.0-11.0-0.5","3822","Ez itt egy humék. Elneveztem a kutyámat...","0","huméknak","[""huméknak"",""huméknek""]","huméknek","esp trial","6","false"
"html-button-response","22","128768","0.0-11.0-1.5","null","<p>A másik játékos ezt választotta: <b>huméknek</b>.</p><p>&#10060;</p><p>A válaszaitok <b>nem</b> egyeznek meg.</p>","null","","","","feedback trial","",""
"html-button-response-esp","23","133382","0.0-11.0-0.6","2836","Ez itt egy hijegy. Nincs is jobb egy jó...","0","hijegynél","[""hijegynél"",""hijegynál""]","hijegynál","esp trial","6","false"
"html-button-response","24","136886","0.0-11.0-1.6","null","<p>A másik játékos ezt választotta: <b>hijegynál</b>.</p><p>&#10060;</p><p>A válaszaitok <b>nem</b> egyeznek meg.</p>","null","","","","feedback trial","",""
"html-button-response-esp","25","141501","0.0-11.0-0.7","2851","Ez itt egy szanéj. Elneveztem a kutyámat...","0","szanéjnak","[""szanéjnak"",""szanéjnek""]","szanéjnek","esp trial","6","false"
"html-button-response","26","145005","0.0-11.0-1.7","null","<p>A másik játékos ezt választotta: <b>szanéjnek</b>.</p><p>&#10060;</p><p>A válaszaitok <b>nem</b> egyeznek meg.</p>","null","","","","feedback trial","",""
"html-button-response-esp","27","149619","0.0-11.0-0.8","2149","Ez itt egy zarcég. Nincs is jobb egy jó...","0","zarcégnál","[""zarcégnál"",""zarcégnél""]","zarcégnél","esp trial","6","false"
"html-button-response","28","153123","0.0-11.0-1.8","null","<p>A másik játékos ezt választotta: <b>zarcégnél</b>.</p><p>&#10060;</p><p>A válaszaitok <b>nem</b> egyeznek meg.</p>","null","","","","feedback trial","",""
"html-button-response-esp","29","157738","0.0-11.0-0.9","2430","Ez itt egy zatéj. Nincs is jobb egy jó...","0","zatéjnél","[""zatéjnél"",""zatéjnál""]","zatéjnél","esp trial","6","true"
"html-button-response","30","161241","0.0-11.0-1.9","null","<p>A másik játékos ezt választotta: <b>zatéjnél</b>.</p><p>&#x2705;</p><p>A te válaszod és a másik játékos válasza <b>megegyeznek</b>.</p>","null","","","","feedback trial","",""
"html-button-response-esp","31","165854","0.0-11.0-0.10","3103","Ez itt egy spatel. Elneveztem a kutyámat...","1","spatelnak","[""spatelnek"",""spatelnak""]","spatelnek","esp trial","6","false"
"html-button-response","32","169359","0.0-11.0-1.10","null","<p>A másik játékos ezt választotta: <b>spatelnek</b>.</p><p>&#10060;</p><p>A válaszaitok <b>nem</b> egyeznek meg.</p>","null","","","","feedback trial","",""
"html-button-response-esp","33","173973","0.0-11.0-0.11","2205","Ez itt egy klítegy. Nincs is jobb egy jó...","0","klítegynél","[""klítegynél"",""klítegynál""]","klítegynél","esp trial","6","true"
"html-button-response","34","177476","0.0-11.0-1.11","null","<p>A másik játékos ezt választotta: <b>klítegynél</b>.</p><p>&#x2705;</p><p>A te válaszod és a másik játékos válasza <b>megegyeznek</b>.</p>","null","","","","feedback trial","",""
"html-button-response-esp","35","182091","0.0-11.0-0.12","2058","Ez itt egy tumély. Nincs is jobb egy jó...","0","tumélynél","[""tumélynél"",""tumélynál""]","tumélynél","esp trial","6","true"
"html-button-response","36","185595","0.0-11.0-1.12","null","<p>A másik játékos ezt választotta: <b>tumélynél</b>.</p><p>&#x2705;</p><p>A te válaszod és a másik játékos válasza <b>megegyeznek</b>.</p>","null","","","","feedback trial","",""
"html-button-response-esp","37","190210","0.0-11.0-0.13","1743","Ez itt egy bingéj. Elneveztem a kutyámat...","1","bingéjnek","[""bingéjnak"",""bingéjnek""]","bingéjnek","esp trial","6","true"
"html-button-response","38","193713","0.0-11.0-1.13","null","<p>A másik játékos ezt választotta: <b>bingéjnek</b>.</p><p>&#x2705;</p><p>A te válaszod és a másik játékos válasza <b>megegyeznek</b>.</p>","null","","","","feedback trial","",""
"html-button-response-esp","39","198328","0.0-11.0-0.14","1291","Ez itt egy hosét. Elneveztem a kutyámat...","1","hosétnek","[""hosétnak"",""hosétnek""]","hosétnek","esp trial","6","true"
"html-button-response","40","201832","0.0-11.0-1.14","null","<p>A másik játékos ezt választotta: <b>hosétnek</b>.</p><p>&#x2705;</p><p>A te válaszod és a másik játékos válasza <b>megegyeznek</b>.</p>","null","","","","feedback trial","",""
"html-button-response-esp","41","206446","0.0-11.0-0.15","1709","Ez itt egy trodély. Ott vagyunk a...","1","trodélyben","[""trodélyban"",""trodélyben""]","trodélyben","esp trial","6","true"
"html-button-response","42","209950","0.0-11.0-1.15","null","<p>A másik játékos ezt választotta: <b>trodélyben</b>.</p><p>&#x2705;</p><p>A te válaszod és a másik játékos válasza <b>megegyeznek</b>.</p>","null","","","","feedback trial","",""
"html-button-response-esp","43","214566","0.0-11.0-0.16","1342","Ez itt egy pristél. Ott vagyunk a...","1","pristélben","[""pristélban"",""pristélben""]","pristélban","esp trial","6","false"
"html-button-response","44","218070","0.0-11.0-1.16","null","<p>A másik játékos ezt választotta: <b>pristélban</b>.</p><p>&#10060;</p><p>A válaszaitok <b>nem</b> egyeznek meg.</p>","null","","","","feedback trial","",""
"html-button-response-esp","45","222684","0.0-11.0-0.17","3833","Ez itt egy briskéd. Nincs is jobb egy jó...","1","briskédnál","[""briskédnél"",""briskédnál""]","briskédnél","esp trial","6","false"
"html-button-response","46","226187","0.0-11.0-1.17","null","<p>A másik játékos ezt választotta: <b>briskédnél</b>.</p><p>&#10060;</p><p>A válaszaitok <b>nem</b> egyeznek meg.</p>","null","","","","feedback trial","",""
"html-button-response-esp","47","230802","0.0-11.0-0.18","947","Ez itt egy gábéd. Nincs is jobb egy jó...","0","gábédnál","[""gábédnál"",""gábédnél""]","gábédnél","esp trial","6","false"
"html-button-response","48","234306","0.0-11.0-1.18","null","<p>A másik játékos ezt választotta: <b>gábédnél</b>.</p><p>&#10060;</p><p>A válaszaitok <b>nem</b> egyeznek meg.</p>","null","","","","feedback trial","",""
"html-button-response-esp","49","238920","0.0-11.0-0.19","2787","Ez itt egy fágyép. Nincs is jobb egy jó...","0","fágyépnél","[""fágyépnél"",""fágyépnál""]","fágyépnél","esp trial","6","true"
"html-button-response","50","242425","0.0-11.0-1.19","null","<p>A másik játékos ezt választotta: <b>fágyépnél</b>.</p><p>&#x2705;</p><p>A te válaszod és a másik játékos válasza <b>megegyeznek</b>.</p>","null","","","","feedback trial","",""
"html-button-response-esp","51","255297","0.0-11.0-0.20","12370","Ez itt egy zined. Elneveztem a kutyámat...","1","zinednek","[""zinednak"",""zinednek""]","zinednak","esp trial","6","false"
"html-button-response","52","258802","0.0-11.0-1.20","null","<p>A másik játékos ezt választotta: <b>zinednak</b>.</p><p>&#10060;</p><p>A válaszaitok <b>nem</b> egyeznek meg.</p>","null","","","","feedback trial","",""
"html-button-response-esp","53","263419","0.0-11.0-0.21","852","Ez itt egy spivél. Elneveztem a kutyámat...","0","spivélnek","[""spivélnek"",""spivélnak""]","spivélnek","esp trial","6","true"
"html-button-response","54","266923","0.0-11.0-1.21","null","<p>A másik játékos ezt választotta: <b>spivélnek</b>.</p><p>&#x2705;</p><p>A te válaszod és a másik játékos válasza <b>megegyeznek</b>.</p>","null","","","","feedback trial","",""
"html-button-response-esp","55","271537","0.0-11.0-0.22","1055","Ez itt egy jurdent. Nincs is jobb egy jó...","1","jurdentnél","[""jurdentnál"",""jurdentnél""]","jurdentnél","esp trial","6","true"
"html-button-response","56","275041","0.0-11.0-1.22","null","<p>A másik játékos ezt választotta: <b>jurdentnél</b>.</p><p>&#x2705;</p><p>A te válaszod és a másik játékos válasza <b>megegyeznek</b>.</p>","null","","","","feedback trial","",""
"html-button-response-esp","57","279656","0.0-11.0-0.23","2058","Ez itt egy trikép. Ott vagyunk a...","0","triképban","[""triképban"",""triképben""]","triképban","esp trial","6","true"
"html-button-response","58","283160","0.0-11.0-1.23","null","<p>A másik játékos ezt választotta: <b>triképban</b>.</p><p>&#x2705;</p><p>A te válaszod és a másik játékos válasza <b>megegyeznek</b>.</p>","null","","","","feedback trial","",""
"html-button-response-esp","59","287774","0.0-11.0-0.24","2158","Ez itt egy jutély. Nincs is jobb egy jó...","1","jutélynél","[""jutélynál"",""jutélynél""]","jutélynél","esp trial","6","true"
"html-button-response","60","291278","0.0-11.0-1.24","null","<p>A másik játékos ezt választotta: <b>jutélynél</b>.</p><p>&#x2705;</p><p>A te válaszod és a másik játékos válasza <b>megegyeznek</b>.</p>","null","","","","feedback trial","",""
"html-button-response-esp","61","295892","0.0-11.0-0.25","1058","Ez itt egy csublény. Ott vagyunk a...","0","csublényben","[""csublényben"",""csublényban""]","csublényben","esp trial","6","true"
"html-button-response","62","299396","0.0-11.0-1.25","null","<p>A másik játékos ezt választotta: <b>csublényben</b>.</p><p>&#x2705;</p><p>A te válaszod és a másik játékos válasza <b>megegyeznek</b>.</p>","null","","","","feedback trial","",""
"html-button-response-esp","63","304010","0.0-11.0-0.26","1027","Ez itt egy zuten. Nincs is jobb egy jó...","0","zutennál","[""zutennál"",""zutennél""]","zutennél","esp trial","6","false"
"html-button-response","64","307514","0.0-11.0-1.26","null","<p>A másik játékos ezt választotta: <b>zutennél</b>.</p><p>&#10060;</p><p>A válaszaitok <b>nem</b> egyeznek meg.</p>","null","","","","feedback trial","",""
"html-button-response-esp","65","312128","0.0-11.0-0.27","1295","Ez itt egy vismer. Nincs is jobb egy jó...","0","vismernél","[""vismernél"",""vismernál""]","vismernál","esp trial","6","false"
"html-button-response","66","315632","0.0-11.0-1.27","null","<p>A másik játékos ezt választotta: <b>vismernál</b>.</p><p>&#10060;</p><p>A válaszaitok <b>nem</b> egyeznek meg.</p>","null","","","","feedback trial","",""
"html-button-response-esp","67","321254","0.0-11.0-0.28","5119","Ez itt egy zábény. Elneveztem a kutyámat...","0","zábénynak","[""zábénynak"",""zábénynek""]","zábénynek","esp trial","6","false"
"html-button-response","68","324758","0.0-11.0-1.28","null","<p>A másik játékos ezt választotta: <b>zábénynek</b>.</p><p>&#10060;</p><p>A válaszaitok <b>nem</b> egyeznek meg.</p>","null","","","","feedback trial","",""
"html-button-response-esp","69","329372","0.0-11.0-0.29","992","Ez itt egy vodec. Nincs is jobb egy jó...","0","vodecnél","[""vodecnél"",""vodecnál""]","vodecnél","esp trial","6","true"
"html-button-response","70","332876","0.0-11.0-1.29","null","<p>A másik játékos ezt választotta: <b>vodecnél</b>.</p><p>&#x2705;</p><p>A te válaszod és a másik játékos válasza <b>megegyeznek</b>.</p>","null","","","","feedback trial","",""
"html-button-response-esp","71","337828","0.0-11.0-0.30","4448","Ez itt egy dibez. Ott vagyunk a...","0","dibezben","[""dibezben"",""dibezban""]","dibezban","esp trial","6","false"
"html-button-response","72","341332","0.0-11.0-1.30","null","<p>A másik játékos ezt választotta: <b>dibezban</b>.</p><p>&#10060;</p><p>A válaszaitok <b>nem</b> egyeznek meg.</p>","null","","","","feedback trial","",""
"html-button-response-esp","73","345946","0.0-11.0-0.31","1391","Ez itt egy cságyelt. Ott vagyunk a...","0","cságyeltban","[""cságyeltban"",""cságyeltben""]","cságyeltben","esp trial","6","false"
"html-button-response","74","349449","0.0-11.0-1.31","null","<p>A másik játékos ezt választotta: <b>cságyeltben</b>.</p><p>&#10060;</p><p>A válaszaitok <b>nem</b> egyeznek meg.</p>","null","","","","feedback trial","",""
"html-button-response-esp","75","354063","0.0-11.0-0.32","944","Ez itt egy murdes. Nincs is jobb egy jó...","0","murdesnél","[""murdesnél"",""murdesnál""]","murdesnél","esp trial","6","true"
"html-button-response","76","357567","0.0-11.0-1.32","null","<p>A másik játékos ezt választotta: <b>murdesnél</b>.</p><p>&#x2705;</p><p>A te válaszod és a másik játékos válasza <b>megegyeznek</b>.</p>","null","","","","feedback trial","",""
"html-button-response-esp","77","362181","0.0-11.0-0.33","1094","Ez itt egy fupét. Nincs is jobb egy jó...","1","fupétnél","[""fupétnál"",""fupétnél""]","fupétnél","esp trial","6","true"
"html-button-response","78","365685","0.0-11.0-1.33","null","<p>A másik játékos ezt választotta: <b>fupétnél</b>.</p><p>&#x2705;</p><p>A te válaszod és a másik játékos válasza <b>megegyeznek</b>.</p>","null","","","","feedback trial","",""
"html-button-response-esp","79","370299","0.0-11.0-0.34","982","Ez itt egy klazér. Ott vagyunk a...","0","klazérben","[""klazérben"",""klazérban""]","klazérben","esp trial","6","true"
"html-button-response","80","373803","0.0-11.0-1.34","null","<p>A másik játékos ezt választotta: <b>klazérben</b>.</p><p>&#x2705;</p><p>A te válaszod és a másik játékos válasza <b>megegyeznek</b>.</p>","null","","","","feedback trial","",""
"html-button-response-esp","81","378417","0.0-11.0-0.35","2123","Ez itt egy sihen. Nincs is jobb egy jó...","1","sihennál","[""sihennél"",""sihennál""]","sihennál","esp trial","6","true"
"html-button-response","82","381921","0.0-11.0-1.35","null","<p>A másik játékos ezt választotta: <b>sihennál</b>.</p><p>&#x2705;</p><p>A te válaszod és a másik játékos válasza <b>megegyeznek</b>.</p>","null","","","","feedback trial","",""
"html-button-response-esp","83","386535","0.0-11.0-0.36","3479","Ez itt egy lingék. Nincs is jobb egy jó...","1","lingéknál","[""lingéknél"",""lingéknál""]","lingéknál","esp trial","6","true"
"html-button-response","84","390037","0.0-11.0-1.36","null","<p>A másik játékos ezt választotta: <b>lingéknál</b>.</p><p>&#x2705;</p><p>A te válaszod és a másik játékos válasza <b>megegyeznek</b>.</p>","null","","","","feedback trial","",""
"html-button-response-esp","85","394650","0.0-11.0-0.37","4106","Ez itt egy szibed. Ott vagyunk a...","1","szibedben","[""szibedban"",""szibedben""]","szibedban","esp trial","6","false"
"html-button-response","86","398154","0.0-11.0-1.37","null","<p>A másik játékos ezt választotta: <b>szibedban</b>.</p><p>&#10060;</p><p>A válaszaitok <b>nem</b> egyeznek meg.</p>","null","","","","feedback trial","",""
"html-button-response-esp","87","402768","0.0-11.0-0.38","1019","Ez itt egy pazév. Nincs is jobb egy jó...","0","pazévnál","[""pazévnál"",""pazévnél""]","pazévnél","esp trial","6","false"
"html-button-response","88","406272","0.0-11.0-1.38","null","<p>A másik játékos ezt választotta: <b>pazévnél</b>.</p><p>&#10060;</p><p>A válaszaitok <b>nem</b> egyeznek meg.</p>","null","","","","feedback trial","",""
"html-button-response-esp","89","410885","0.0-11.0-0.39","3345","Ez itt egy dunkész. Ott vagyunk a...","1","dunkészben","[""dunkészban"",""dunkészben""]","dunkészben","esp trial","6","true"
"html-button-response","90","414387","0.0-11.0-1.39","null","<p>A másik játékos ezt választotta: <b>dunkészben</b>.</p><p>&#x2705;</p><p>A te válaszod és a másik játékos válasza <b>megegyeznek</b>.</p>","null","","","","feedback trial","",""
"html-button-response-esp","91","419002","0.0-11.0-0.40","3149","Ez itt egy lijez. Elneveztem a kutyámat...","1","lijeznak","[""lijeznek"",""lijeznak""]","lijeznak","esp trial","6","true"
"html-button-response","92","422506","0.0-11.0-1.40","null","<p>A másik játékos ezt választotta: <b>lijeznak</b>.</p><p>&#x2705;</p><p>A te válaszod és a másik játékos válasza <b>megegyeznek</b>.</p>","null","","","","feedback trial","",""
"html-button-response-esp","93","427119","0.0-11.0-0.41","1199","Ez itt egy surnegy. Nincs is jobb egy jó...","1","surnegynál","[""surnegynél"",""surnegynál""]","surnegynél","esp trial","6","false"
"html-button-response","94","430623","0.0-11.0-1.41","null","<p>A másik játékos ezt választotta: <b>surnegynél</b>.</p><p>&#10060;</p><p>A válaszaitok <b>nem</b> egyeznek meg.</p>","null","","","","feedback trial","",""
"html-button-response-esp","95","435237","0.0-11.0-0.42","1003","Ez itt egy dóbem. Elneveztem a kutyámat...","0","dóbemnek","[""dóbemnek"",""dóbemnak""]","dóbemnek","esp trial","6","true"
"html-button-response","96","438741","0.0-11.0-1.42","null","<p>A másik játékos ezt választotta: <b>dóbemnek</b>.</p><p>&#x2705;</p><p>A te válaszod és a másik játékos válasza <b>megegyeznek</b>.</p>","null","","","","feedback trial","",""
"html-button-response-esp","97","443355","0.0-11.0-0.43","3232","Ez itt egy tivenc. Ott vagyunk a...","1","tivencban","[""tivencben"",""tivencban""]","tivencben","esp trial","6","false"
"html-button-response","98","446859","0.0-11.0-1.43","null","<p>A másik játékos ezt választotta: <b>tivencben</b>.</p><p>&#10060;</p><p>A válaszaitok <b>nem</b> egyeznek meg.</p>","null","","","","feedback trial","",""
"html-button-response-esp","99","454975","0.0-11.0-0.44","7613","Ez itt egy vurnel. Elneveztem a kutyámat...","1","vurnelnak","[""vurnelnek"",""vurnelnak""]","vurnelnek","esp trial","6","false"
"html-button-response","100","458479","0.0-11.0-1.44","null","<p>A másik játékos ezt választotta: <b>vurnelnek</b>.</p><p>&#10060;</p><p>A válaszaitok <b>nem</b> egyeznek meg.</p>","null","","","","feedback trial","",""
"html-button-response-esp","101","463958","0.0-11.0-0.45","4977","Ez itt egy fizend. Ott vagyunk a...","1","fizendban","[""fizendben"",""fizendban""]","fizendban","esp trial","6","true"
"html-button-response","102","467462","0.0-11.0-1.45","null","<p>A másik játékos ezt választotta: <b>fizendban</b>.</p><p>&#x2705;</p><p>A te válaszod és a másik játékos válasza <b>megegyeznek</b>.</p>","null","","","","feedback trial","",""
"html-button-response-esp","103","472076","0.0-11.0-0.46","1039","Ez itt egy klajrén. Elneveztem a kutyámat...","0","klajrénnek","[""klajrénnek"",""klajrénnak""]","klajrénnek","esp trial","6","true"
"html-button-response","104","475580","0.0-11.0-1.46","null","<p>A másik játékos ezt választotta: <b>klajrénnek</b>.</p><p>&#x2705;</p><p>A te válaszod és a másik játékos válasza <b>megegyeznek</b>.</p>","null","","","","feedback trial","",""
"html-button-response-esp","105","480194","0.0-11.0-0.47","1194","Ez itt egy mádép. Nincs is jobb egy jó...","1","mádépnál","[""mádépnél"",""mádépnál""]","mádépnél","esp trial","6","false"
"html-button-response","106","483698","0.0-11.0-1.47","null","<p>A másik játékos ezt választotta: <b>mádépnél</b>.</p><p>&#10060;</p><p>A válaszaitok <b>nem</b> egyeznek meg.</p>","null","","","","feedback trial","",""
"html-button-response-esp","107","488313","0.0-11.0-0.48","2482","Ez itt egy kátéd. Nincs is jobb egy jó...","0","kátédnél","[""kátédnél"",""kátédnál""]","kátédnél","esp trial","6","true"
"html-button-response","108","491817","0.0-11.0-1.48","null","<p>A másik játékos ezt választotta: <b>kátédnél</b>.</p><p>&#x2705;</p><p>A te válaszod és a másik játékos válasza <b>megegyeznek</b>.</p>","null","","","","feedback trial","",""
"html-button-response-esp","109","496510","0.0-11.0-0.49","4190","Ez itt egy spizec. Elneveztem a kutyámat...","1","spizecnak","[""spizecnek"",""spizecnak""]","spizecnak","esp trial","6","true"
"html-button-response","110","500014","0.0-11.0-1.49","null","<p>A másik játékos ezt választotta: <b>spizecnak</b>.</p><p>&#x2705;</p><p>A te válaszod és a másik játékos válasza <b>megegyeznek</b>.</p>","null","","","","feedback trial","",""
"html-button-response-esp","111","504627","0.0-11.0-0.50","3212","Ez itt egy dajrens. Nincs is jobb egy jó...","0","dajrensnél","[""dajrensnél"",""dajrensnál""]","dajrensnél","esp trial","6","true"
"html-button-response","112","508130","0.0-11.0-1.50","null","<p>A másik játékos ezt választotta: <b>dajrensnél</b>.</p><p>&#x2705;</p><p>A te válaszod és a másik játékos válasza <b>megegyeznek</b>.</p>","null","","","","feedback trial","",""
"html-button-response-esp","113","512744","0.0-11.0-0.51","1328","Ez itt egy fojlegy. Elneveztem a kutyámat...","1","fojlegynak","[""fojlegynek"",""fojlegynak""]","fojlegynak","esp trial","6","true"
"html-button-response","114","516248","0.0-11.0-1.51","null","<p>A másik játékos ezt választotta: <b>fojlegynak</b>.</p><p>&#x2705;</p><p>A te válaszod és a másik játékos válasza <b>megegyeznek</b>.</p>","null","","","","feedback trial","",""
"html-button-response-esp","115","520862","0.0-11.0-0.52","1231","Ez itt egy csodeg. Nincs is jobb egy jó...","1","csodegnél","[""csodegnál"",""csodegnél""]","csodegnél","esp trial","6","true"
"html-button-response","116","524366","0.0-11.0-1.52","null","<p>A másik játékos ezt választotta: <b>csodegnél</b>.</p><p>&#x2705;</p><p>A te válaszod és a másik játékos válasza <b>megegyeznek</b>.</p>","null","","","","feedback trial","",""
"html-button-response-esp","117","528979","0.0-11.0-0.53","986","Ez itt egy lihény. Elneveztem a kutyámat...","1","lihénynak","[""lihénynek"",""lihénynak""]","lihénynak","esp trial","6","true"
"html-button-response","118","532482","0.0-11.0-1.53","null","<p>A másik játékos ezt választotta: <b>lihénynak</b>.</p><p>&#x2705;</p><p>A te válaszod és a másik játékos válasza <b>megegyeznek</b>.</p>","null","","","","feedback trial","",""
"html-button-response","119","564766","0.0-12.0","31781","<p>A közös játék most véget ért.</p><p>Mielőtt eláruljuk a végső pontszámodat, arra kérlek, játszd a szóválasztós játékot néhány percig egyedül is.</p><p>A feladatod ugyanaz lesz, választani két lehetőség közül.</p><p>Most viszont egyedül kell döntened, hogy te melyiket választanád.</p>","0","","","","","",""
"html-button-response-clever","120","566542","0.0-13.0-0.0","1274","Ez itt egy csimen. Nincs is jobb egy jó...","0","csimennál","[""csimennál"",""csimennél""]","","posttest trial","8",""
"html-button-response-clever","121","567844","0.0-13.0-0.1","799","Ez itt egy trapszegy. Nincs is jobb egy jó...","1","trapszegynál","[""trapszegynél"",""trapszegynál""]","","posttest trial","8",""
"html-button-response-clever","122","570451","0.0-13.0-0.2","2105","Ez itt egy vublet. Nincs is jobb egy jó...","0","vubletnál","[""vubletnál"",""vubletnél""]","","posttest trial","8",""
"html-button-response-clever","123","573141","0.0-13.0-0.3","2186","Ez itt egy zsopéd. Ott vagyunk a...","1","zsopédban","[""zsopédben"",""zsopédban""]","","posttest trial","8",""
"html-button-response-clever","124","575679","0.0-13.0-0.4","2036","Ez itt egy giheszt. Elneveztem a kutyámat...","0","gihesztnek","[""gihesztnek"",""gihesztnak""]","","posttest trial","8",""
"html-button-response-clever","125","578003","0.0-13.0-0.5","1820","Ez itt egy hivép. Ott vagyunk a...","0","hivépban","[""hivépban"",""hivépben""]","","posttest trial","8",""
"html-button-response-clever","126","580608","0.0-13.0-0.6","2102","Ez itt egy csartény. Elneveztem a kutyámat...","1","csarténynek","[""csarténynak"",""csarténynek""]","","posttest trial","8",""
"html-button-response-clever","127","583816","0.0-13.0-0.7","2705","Ez itt egy nidét. Ott vagyunk a...","0","nidétben","[""nidétben"",""nidétban""]","","posttest trial","8",""
"html-button-response-clever","128","585755","0.0-13.0-0.8","1436","Ez itt egy nyarcéj. Elneveztem a kutyámat...","1","nyarcéjnek","[""nyarcéjnak"",""nyarcéjnek""]","","posttest trial","8",""
"html-button-response-clever","129","587374","0.0-13.0-0.9","1117","Ez itt egy gonszék. Nincs is jobb egy jó...","0","gonszéknál","[""gonszéknál"",""gonszéknél""]","","posttest trial","8",""
"html-button-response-clever","130","589914","0.0-13.0-0.10","2038","Ez itt egy priszkenc. Elneveztem a kutyámat...","1","priszkencnak","[""priszkencnek"",""priszkencnak""]","","posttest trial","8",""
"html-button-response-clever","131","591335","0.0-13.0-0.11","918","Ez itt egy licegy. Ott vagyunk a...","0","licegyben","[""licegyben"",""licegyban""]","","posttest trial","8",""
"html-button-response-clever","132","593222","0.0-13.0-0.12","1385","Ez itt egy prately. Elneveztem a kutyámat...","1","pratelynek","[""pratelynak"",""pratelynek""]","","posttest trial","8",""
"html-button-response-clever","133","594594","0.0-13.0-0.13","868","Ez itt egy lismév. Ott vagyunk a...","0","lismévben","[""lismévben"",""lismévban""]","","posttest trial","8",""
"html-button-response-clever","134","597684","0.0-13.0-0.14","2587","Ez itt egy dingec. Elneveztem a kutyámat...","1","dingecnek","[""dingecnak"",""dingecnek""]","","posttest trial","8",""
"html-button-response-clever","135","603031","0.0-13.0-0.15","4845","Ez itt egy sartely. Ott vagyunk a...","0","sartelyben","[""sartelyben"",""sartelyban""]","","posttest trial","8",""
"html-button-response-clever","136","604283","0.0-13.0-0.16","750","Ez itt egy júder. Elneveztem a kutyámat...","1","júdernak","[""júdernek"",""júdernak""]","","posttest trial","8",""
"html-button-response-clever","137","605187","0.0-13.0-0.17","401","Ez itt egy sprízem. Nincs is jobb egy jó...","0","sprízemnál","[""sprízemnál"",""sprízemnél""]","","posttest trial","8",""
"html-button-response-clever","138","606405","0.0-13.0-0.18","714","Ez itt egy gótem. Elneveztem a kutyámat...","0","gótemnek","[""gótemnek"",""gótemnak""]","","posttest trial","8",""
"html-button-response-clever","139","607642","0.0-13.0-0.19","734","Ez itt egy nyábét. Ott vagyunk a...","0","nyábétban","[""nyábétban"",""nyábétben""]","","posttest trial","8",""
"html-button-response-clever","140","614260","0.0-13.0-0.20","6115","Ez itt egy buhény. Ott vagyunk a...","0","buhényban","[""buhényban"",""buhényben""]","","posttest trial","8",""
"html-button-response-clever","141","616297","0.0-13.0-0.21","1535","Ez itt egy forzéd. Elneveztem a kutyámat...","1","forzédnak","[""forzédnek"",""forzédnak""]","","posttest trial","8",""
"html-button-response-clever","142","618452","0.0-13.0-0.22","1651","Ez itt egy tránély. Elneveztem a kutyámat...","1","tránélynak","[""tránélynek"",""tránélynak""]","","posttest trial","8",""
"html-button-response-clever","143","620272","0.0-13.0-0.23","1318","Ez itt egy fincek. Nincs is jobb egy jó...","1","finceknél","[""finceknál"",""finceknél""]","","posttest trial","8",""
"html-button-response-clever","144","621693","0.0-13.0-0.24","917","Ez itt egy hóbens. Ott vagyunk a...","0","hóbensban","[""hóbensban"",""hóbensben""]","","posttest trial","8",""
"html-button-response-clever","145","623079","0.0-13.0-0.25","883","Ez itt egy szutend. Ott vagyunk a...","1","szutendban","[""szutendben"",""szutendban""]","","posttest trial","8",""
"html-button-response-clever","146","625368","0.0-13.0-0.26","1786","Ez itt egy gicéj. Nincs is jobb egy jó...","0","gicéjnél","[""gicéjnél"",""gicéjnál""]","","posttest trial","8",""
"html-button-response-clever","147","627773","0.0-13.0-0.27","1901","Ez itt egy kluhéj. Nincs is jobb egy jó...","0","kluhéjnél","[""kluhéjnél"",""kluhéjnál""]","","posttest trial","8",""
"html-button-response-clever","148","630111","0.0-13.0-0.28","1834","Ez itt egy bidem. Ott vagyunk a...","0","bidemban","[""bidemban"",""bidemben""]","","posttest trial","8",""
"html-button-response-clever","149","632033","0.0-13.0-0.29","1420","Ez itt egy kadér. Nincs is jobb egy jó...","0","kadérnél","[""kadérnél"",""kadérnál""]","","posttest trial","8",""
"html-button-response-clever","150","634572","0.0-13.0-0.30","2037","Ez itt egy kábesz. Nincs is jobb egy jó...","0","kábesznél","[""kábesznél"",""kábesznál""]","","posttest trial","8",""
"html-button-response-clever","151","639449","0.0-13.0-0.31","4374","Ez itt egy matéz. Ott vagyunk a...","1","matézban","[""matézben"",""matézban""]","","posttest trial","8",""
"html-button-response-clever","152","641806","0.0-13.0-0.32","1855","Ez itt egy fádens. Elneveztem a kutyámat...","1","fádensnek","[""fádensnak"",""fádensnek""]","","posttest trial","8",""
"html-button-response-clever","153","643326","0.0-13.0-0.33","1017","Ez itt egy vodép. Elneveztem a kutyámat...","0","vodépnak","[""vodépnak"",""vodépnek""]","","posttest trial","8",""
"html-button-response-clever","154","644697","0.0-13.0-0.34","868","Ez itt egy navec. Ott vagyunk a...","1","navecban","[""navecben"",""navecban""]","","posttest trial","8",""
"html-button-response-clever","155","658435","0.0-13.0-0.35","13235","Ez itt egy sporzem. Elneveztem a kutyámat...","0","sporzemnak","[""sporzemnak"",""sporzemnek""]","","posttest trial","8",""
"html-button-response-clever","156","660522","0.0-13.0-0.36","1584","Ez itt egy szihét. Elneveztem a kutyámat...","1","szihétnak","[""szihétnek"",""szihétnak""]","","posttest trial","8",""
"html-button-response-clever","157","687820","0.0-13.0-0.37","26796","Ez itt egy kliszer. Nincs is jobb egy jó...","0","kliszernál","[""kliszernál"",""kliszernél""]","","posttest trial","8",""
"html-button-response-clever","158","711321","0.0-13.0-0.38","22998","Ez itt egy brigeszt. Elneveztem a kutyámat...","0","brigesztnek","[""brigesztnek"",""brigesztnak""]","","posttest trial","8",""
"html-button-response-clever","159","714703","0.0-13.0-0.39","2879","Ez itt egy spáten. Elneveztem a kutyámat...","1","spátennak","[""spátennek"",""spátennak""]","","posttest trial","8",""
"html-button-response-clever","160","717243","0.0-13.0-0.40","2037","Ez itt egy csinték. Ott vagyunk a...","0","csintékban","[""csintékban"",""csintékben""]","","posttest trial","8",""
"html-button-response-clever","161","726198","0.0-13.0-0.41","8452","Ez itt egy trincseg. Ott vagyunk a...","0","trincsegben","[""trincsegben"",""trincsegban""]","","posttest trial","8",""
"html-button-response-clever","162","736978","0.0-13.0-0.42","10278","Ez itt egy jorzég. Elneveztem a kutyámat...","1","jorzégnek","[""jorzégnak"",""jorzégnek""]","","posttest trial","8",""
"html-button-response-clever","163","738632","0.0-13.0-0.43","1151","Ez itt egy bródesz. Elneveztem a kutyámat...","1","bródesznak","[""bródesznek"",""bródesznak""]","","posttest trial","8",""
"html-button-response-clever","164","739935","0.0-13.0-0.44","801","Ez itt egy klordény. Elneveztem a kutyámat...","1","klordénynak","[""klordénynek"",""klordénynak""]","","posttest trial","8",""
"html-button-response-clever","165","741239","0.0-13.0-0.45","802","Ez itt egy jábéz. Ott vagyunk a...","0","jábézban","[""jábézban"",""jábézben""]","","posttest trial","8",""
"html-button-response-clever","166","742493","0.0-13.0-0.46","752","Ez itt egy trigenc. Elneveztem a kutyámat...","1","trigencnek","[""trigencnak"",""trigencnek""]","","posttest trial","8",""
"html-button-response-clever","167","743714","0.0-13.0-0.47","717","Ez itt egy brotes. Ott vagyunk a...","0","brotesben","[""brotesben"",""brotesban""]","","posttest trial","8",""
"html-button-response-clever","168","745001","0.0-13.0-0.48","784","Ez itt egy tranék. Ott vagyunk a...","0","tranékben","[""tranékben"",""tranékban""]","","posttest trial","8",""
"html-button-response-clever","169","745902","0.0-13.0-0.49","400","Ez itt egy brukész. Nincs is jobb egy jó...","0","brukésznél","[""brukésznél"",""brukésznál""]","","posttest trial","8",""
"html-button-response-clever","170","748093","0.0-13.0-0.50","1688","Ez itt egy brágéd. Elneveztem a kutyámat...","1","brágédnak","[""brágédnek"",""brágédnak""]","","posttest trial","8",""
"html-button-response-clever","171","749363","0.0-13.0-0.51","768","Ez itt egy ikszert. Ott vagyunk a...","0","ikszertban","[""ikszertban"",""ikszertben""]","","posttest trial","8",""
"html-button-response-clever","172","750834","0.0-13.0-0.52","968","Ez itt egy ronvet. Elneveztem a kutyámat...","1","ronvetnak","[""ronvetnek"",""ronvetnak""]","","posttest trial","8",""
"html-button-response-clever","173","752021","0.0-13.0-0.53","684","Ez itt egy jalrény. Nincs is jobb egy jó...","1","jalrénynél","[""jalrénynál"",""jalrénynél""]","","posttest trial","8",""
"html-button-response","174","756435","0.0-14.0","3911","<p> Vége a játéknak. A teljes pontszámod 31/54.</p><p> Szép munka! &#128526;&#128526;&#128526;</p><p>A Befejezés gomb megnyomása után bezárhatod a böngészőablakot.</p>","0","","","","","",""
"html-keyboard-response","175","761940","0.0-15.0","null","<div class=""message"">
         <p>Egy kis türelmet kérünk, amíg elmentjük az adatokat...</p>
         </div>","null","","","","","",""
