"trial_type","trial_index","time_elapsed","internal_node_id","rt","stimulus","response","response_string","choices","esp_response","trial_kind","list_number","esp_match"
"pavlovia","0","845","0.0-0.0","","","","","","","","",""
"html-button-response","1","59987","0.0-1.0","58632","<p>Kedves Résztvevő! A Budapesti Műszaki és Gazdaságtudományi Egyetem Kognitív Tudományi Tanszékének kutatásában való részvételed kérjük. A kutatásban azt vizsgáljuk, hogy a magyar anyanyelvűek hogyan használnak bizonyos szóalakokat, és hogy milyen képük van arról, hogy mások hogyan használják, hogyan képzik a szavakat. Ez hozzásegít bennünket ahhoz, hogy jobban megértsük, hogyan dolgozza fel és tárolja a nyelvet az emberi agy, és hogyan működnek, hogyan változnak egy adott közösség nyelvi konvenciói.</p><p>A vizsgálat egy rövid számítógépes feladatból fog állni. A kutatásban való részvétel önkéntes, a részvételi szándék bármikor visszavonható. A résztvevők eredményeit név nélkül kezeljük, így nem beazonosíthatók az adatok feldolgozása során. Minden személyes adatot az EU általános adatvédelmi rendeletének (GDPR) megfelelően kezelünk és legfeljebb öt éven belül megsemmisítünk. A vizsgálat jellemzően húsz percet vesz igénybe.</p><p>Kutatásvezető:</p><p>Dr. Rácz Péter, tudományos munkatárs, BME KTT</p><p>e-mail: racz.peter.marton@ttk.bme.hu</p>","0","","","","","",""
"html-button-response","2","106215","0.0-2.0","45707","<p>A kísérletben szavakat fogsz látni. Ezek között lesznek olyanok, amelyeket ismersz, de előfordulhatnak olyanok is, amelyeket nem ismersz, sőt, vannak köztük kitalált szavak is. Minden szónál látni fogsz toldalékolt alakokat. A te feladatod az lesz, hogy minden szóhoz kiválaszd azt a toldalékolt alakot, amely a te számodra ismerősebben, természetesebben hangzik. Rossz válaszok nincsenek, mert van olyan, hogy különböző embereknek más és más szó tűnik jobb választásnak. A választ úgy tudod majd kiválasztani, ha rákattintasz.</p><p>Ebben a szóválasztós játékban egy másik játékossal együtt veszel majd részt. A másik játékos is minden esetben azok közül a lehetőségek közül válogathat, mint te. Kettőtök feladata az, hogy ugyanazt a lehetőséget válasszátok minden esetben. Ahhoz, hogy ez sikerüljön, neked figyelned kell arra, hogy a másik játékos milyen válaszokat ad, és ennek alapján meg kell tippelned, hogyan választ legközelebb. Ha eltalálod, akkor pontot kapsz.</p>","0","","","","","",""
"html-button-response","3","197183","0.0-3.0","90446","<p>Kérjük, olvasd el az alábbi nyilatkozatot, és amennyiben egyetértesz vele, nyomj a Beleegyezés gombra!</p><p>Kijelentem, hogy magyar anyanyelvű személyként önként veszek részt a BME KTT kísérletében. A kutatás céljával és folyamatával kapcsolatban elegendő tájékoztatást kaptam, lehetőségem volt kérdések feltételére, és esetleges kérdéseimre megfelelő válaszokat kaptam. A tájékoztatás alapján elegendő mennyiségű információ áll a rendelkezésemre, hogy eldönthessem, részt kívánok-e venni a kutatásban.</p><p>Tisztában vagyok vele, hogy részvételi szándékomat és adataimat bármikor, indoklás nélkül visszavonhatom.</p><p>Értem és tudomásul veszem, hogy a kutatás tudományos célokat szolgál, és az általam szolgáltatott adatokat a BME kizárólag kutatási célból használja fel. Tudomásul veszem, hogy eredményeimet a többi résztvevő eredményeivel együtt kezelik, így egyéni teljesítményemről visszajelzést, szakvéleményt nem kapok.</p><p>Megértettem, hogy adataim kezelését illetően a BME az EU általános adatvédelmi rendelete (GDPR), a hatályos adatvédelmi törvény és a nemzetközi kutatás-etikai alapelvek szerint jár el. Eredményeim anonim módon kerülnek feldolgozásra, és a kutatás résztvevői az azonosításomra alkalmas adataimat harmadik félnek nem szolgáltatják ki. Engedélyezem a BME számára a jelen kutatásban felvett adataim feldolgozását és tárolását, beleértve azok későbbi kutatásokhoz való felhasználását is. Személyes adataim kezelésével kapcsolatban tájékoztatást kérhetek a kutatás résztvevőitől, az adatkezelés ellen tiltakozhatok, kérhetem személyes adataim helyesbítését, törlését vagy zárolását, valamint jogorvoslatért a Nemzeti Adatvédelmi és Információszabadság Hatósághoz fordulhatok.</p><p>Kijelentem, hogy a kutatásban való részvételem körülményeiről részletes tájékoztatást kaptam, és a feltételeket elfogadom.</p>","0","","","","","",""
"survey-text","4","287890","0.0-4.0","90190","","{""Q0"":""SN233"",""Q1"":""nő"",""Q2"":""2002"",""Q3"":""12""}","","","","","",""
"html-button-response","5","322713","0.0-5.0","34307","<p>Ebben a játékban szavakat kell toldalékolni.</p> <p>Minden körben mutatunk majd egy példamondatot, amiben lesz egy szó.</p> <p>Alatta jön egy második mondat, ezt a mondatot neked kell majd befejezni, ugyanezzel a szóval.</p> <p>Nem biztos, hogy a szó eleve ismerős lesz számodra!</p> <p>Minden mondathoz adunk két lehetőséget, ezeket balra és jobbra látod majd.</p> <p>A játék kb. negyedóráig-húsz percig tart.</p>","0","","","","","",""
"html-button-response","6","358411","0.0-6.0","35192","<p>Nézzünk egy példát!</p> <p>A példamondat: ""János imád fláramolni, ezért sokat fláramlik. Mi ritkán...""</p><p>Neked ezt a mondatot kell befejezned: ""Ti ritkán...""</p><p>A lehetőségek pedig ezek:</p>","0","","","","","",""
"html-button-response","7","366226","0.0-7.0","7310","<p>Nagyon jó.</p><p>Ezt a játékot nem egyedül fogod játszani, hanem egy másik játékossal.</p><p>Mielőtt továbblépünk, összekapcsolunk titeket egymással.</p><p>Ez igénybe vehet néhány másodpercet, amihez szíves türelmed kérjük.</p>","0","","","","","",""
"html-button-response","8","371969","0.0-8.0","null","<p>Csatlakozás a másik játékoshoz...</p>","null","","","","","",""
"html-button-response","9","374498","0.0-9.0","null","<p> Sikeres kapcsolódás!</p>","null","","","","","",""
"html-button-response","10","385020","0.0-10.0","null","<p>A következőkben ketten játsszátok a szóválasztós játékot.</p><p>A feladatotok az lesz, hogy minden körben <b>ugyanazt</b> a szót válasszátok.</p><p>Minden ilyen egyező válaszért pontot kaptok.</p><p>Próbáld meg kitalálni, mit választ a másik játékos!</p><p>Bármikor választhatsz, a körnek akkor van vége, ha mindketten döntöttetek.</p><p>Sok sikert!</p>","null","","","","","",""
"html-button-response-esp","11","398115","0.0-11.0-0.0","12584","János imád tribejezni, ezért sokat tribejlik. Ti ritkán...","0","tribejeztek","[""tribejeztek"",""tribejletek""]","tribejletek","esp trial","10","false"
"html-button-response","12","401630","0.0-11.0-1.0","null","<p>A másik játékos ezt választotta: <b>tribejletek</b>.</p><p>&#10060;</p><p>A válaszaitok <b>nem</b> egyeznek meg.</p>","null","","","","feedback trial","",""
"html-button-response-esp","13","414640","0.0-11.0-0.1","12493","János imád gatágozni, ezért sokat gatáglik. Mi ritkán...","1","gatáglunk","[""gatágozunk"",""gatáglunk""]","gatáglunk","esp trial","10","true"
"html-button-response","14","418150","0.0-11.0-1.1","null","<p>A másik játékos ezt választotta: <b>gatáglunk</b>.</p><p>&#x2705;</p><p>A te válaszod és a másik játékos válasza <b>megegyeznek</b>.</p>","null","","","","feedback trial","",""
"html-button-response-esp","15","431256","0.0-11.0-0.2","12594","János imád sztritozni, ezért sokat sztritlik. Ők ritkán...","1","sztritoznak","[""sztritlanak"",""sztritoznak""]","sztritoznak","esp trial","10","true"
"html-button-response","16","434769","0.0-11.0-1.2","null","<p>A másik játékos ezt választotta: <b>sztritoznak</b>.</p><p>&#x2705;</p><p>A te válaszod és a másik játékos válasza <b>megegyeznek</b>.</p>","null","","","","feedback trial","",""
"html-button-response-esp","17","445361","0.0-11.0-0.3","10079","János imád mihágozni, ezért sokat mihágzik. Ti ritkán...","0","mihágzotok","[""mihágzotok"",""mihágoztok""]","mihágzotok","esp trial","10","true"
"html-button-response","18","448883","0.0-11.0-1.3","null","<p>A másik játékos ezt választotta: <b>mihágzotok</b>.</p><p>&#x2705;</p><p>A te válaszod és a másik játékos válasza <b>megegyeznek</b>.</p>","null","","","","feedback trial","",""
"html-button-response-esp","19","463457","0.0-11.0-0.4","14062","János imád tibarozni, ezért sokat tibarzik. Ők ritkán...","1","tibaroznak","[""tibarzanak"",""tibaroznak""]","tibaroznak","esp trial","10","true"
"html-button-response","20","466979","0.0-11.0-1.4","null","<p>A másik játékos ezt választotta: <b>tibaroznak</b>.</p><p>&#x2705;</p><p>A te válaszod és a másik játékos válasza <b>megegyeznek</b>.</p>","null","","","","feedback trial","",""
"html-button-response-esp","21","477711","0.0-11.0-0.5","10217","János imád pörözni, ezért sokat pörzik. Ti ritkán...","0","pöröztök","[""pöröztök"",""pörzötök""]","pörzötök","esp trial","10","false"
"html-button-response","22","481232","0.0-11.0-1.5","null","<p>A másik játékos ezt választotta: <b>pörzötök</b>.</p><p>&#10060;</p><p>A válaszaitok <b>nem</b> egyeznek meg.</p>","null","","","","feedback trial","",""
"html-button-response-esp","23","491745","0.0-11.0-0.6","10010","János imád lumozni, ezért sokat lumlik. Ti ritkán...","1","lumoztok","[""lumlotok"",""lumoztok""]","lumlotok","esp trial","10","false"
"html-button-response","24","495258","0.0-11.0-1.6","null","<p>A másik játékos ezt választotta: <b>lumlotok</b>.</p><p>&#10060;</p><p>A válaszaitok <b>nem</b> egyeznek meg.</p>","null","","","","feedback trial","",""
"html-button-response-esp","25","506105","0.0-11.0-0.7","10331","János imád sztrajozni, ezért sokat sztrajlik. Ők ritkán...","1","sztrajoznak","[""sztrajlanak"",""sztrajoznak""]","sztrajoznak","esp trial","10","true"
"html-button-response","26","509628","0.0-11.0-1.7","null","<p>A másik játékos ezt választotta: <b>sztrajoznak</b>.</p><p>&#x2705;</p><p>A te válaszod és a másik játékos válasza <b>megegyeznek</b>.</p>","null","","","","feedback trial","",""
"html-button-response-esp","27","523157","0.0-11.0-0.8","13015","János imád brivepedni, ezért sokat brivepszik. Mi ritkán...","0","brivepedünk","[""brivepedünk"",""brivepszünk""]","brivepedünk","esp trial","10","true"
"html-button-response","28","526683","0.0-11.0-1.8","null","<p>A másik játékos ezt választotta: <b>brivepedünk</b>.</p><p>&#x2705;</p><p>A te válaszod és a másik játékos válasza <b>megegyeznek</b>.</p>","null","","","","feedback trial","",""
"html-button-response-esp","29","536223","0.0-11.0-0.9","8202","János imád hákodni, ezért sokat hákszik. Ők ritkán...","1","hákodnak","[""hákszanak"",""hákodnak""]","hákodnak","esp trial","10","true"
"html-button-response","30","539752","0.0-11.0-1.9","null","<p>A másik játékos ezt választotta: <b>hákodnak</b>.</p><p>&#x2705;</p><p>A te válaszod és a másik játékos válasza <b>megegyeznek</b>.</p>","null","","","","feedback trial","",""
"html-button-response-esp","31","549315","0.0-11.0-0.10","5046","János imád vobozni, ezért sokat vobzik. Ti ritkán...","0","voboztok","[""voboztok"",""vobzotok""]","vobzotok","esp trial","10","false"
"html-button-response","32","552834","0.0-11.0-1.10","null","<p>A másik játékos ezt választotta: <b>vobzotok</b>.</p><p>&#10060;</p><p>A válaszaitok <b>nem</b> egyeznek meg.</p>","null","","","","feedback trial","",""
"html-button-response-esp","33","564855","0.0-11.0-0.11","11519","János imád prilepedni, ezért sokat prilepszik. Mi ritkán...","0","prilepedünk","[""prilepedünk"",""prilepszünk""]","prilepedünk","esp trial","10","true"
"html-button-response","34","568370","0.0-11.0-1.11","null","<p>A másik játékos ezt választotta: <b>prilepedünk</b>.</p><p>&#x2705;</p><p>A te válaszod és a másik játékos válasza <b>megegyeznek</b>.</p>","null","","","","feedback trial","",""
"html-button-response-esp","35","580831","0.0-11.0-0.12","11955","János imád míjozni, ezért sokat míjzik. Mi ritkán...","0","míjzunk","[""míjzunk"",""míjozunk""]","míjozunk","esp trial","10","false"
"html-button-response","36","584357","0.0-11.0-1.12","null","<p>A másik játékos ezt választotta: <b>míjozunk</b>.</p><p>&#10060;</p><p>A válaszaitok <b>nem</b> egyeznek meg.</p>","null","","","","feedback trial","",""
"html-button-response-esp","37","593915","0.0-11.0-0.13","9013","János imád sponyozni, ezért sokat sponylik. Ők ritkán...","0","sponyoznak","[""sponyoznak"",""sponylanak""]","sponyoznak","esp trial","10","true"
"html-button-response","38","597443","0.0-11.0-1.13","null","<p>A másik játékos ezt választotta: <b>sponyoznak</b>.</p><p>&#x2705;</p><p>A te válaszod és a másik játékos válasza <b>megegyeznek</b>.</p>","null","","","","feedback trial","",""
"html-button-response-esp","39","606990","0.0-11.0-0.14","8523","János imád pekedni, ezért sokat pekszik. Mi ritkán...","0","pekszünk","[""pekszünk"",""pekedünk""]","pekedünk","esp trial","10","false"
"html-button-response","40","610498","0.0-11.0-1.14","null","<p>A másik játékos ezt választotta: <b>pekedünk</b>.</p><p>&#10060;</p><p>A válaszaitok <b>nem</b> egyeznek meg.</p>","null","","","","feedback trial","",""
"html-button-response-esp","41","620052","0.0-11.0-0.15","8615","János imád drivegezni, ezért sokat drivegzik. Ti ritkán...","0","drivegzetek","[""drivegzetek"",""drivegeztek""]","drivegzetek","esp trial","10","true"
"html-button-response","42","623567","0.0-11.0-1.15","null","<p>A másik játékos ezt választotta: <b>drivegzetek</b>.</p><p>&#x2705;</p><p>A te válaszod és a másik játékos válasza <b>megegyeznek</b>.</p>","null","","","","feedback trial","",""
"html-button-response-esp","43","633112","0.0-11.0-0.16","8507","János imád frihegezni, ezért sokat friheglik. Mi ritkán...","0","frihegezünk","[""frihegezünk"",""friheglünk""]","frihegezünk","esp trial","10","true"
"html-button-response","44","636635","0.0-11.0-1.16","null","<p>A másik játékos ezt választotta: <b>frihegezünk</b>.</p><p>&#x2705;</p><p>A te válaszod és a másik játékos válasza <b>megegyeznek</b>.</p>","null","","","","feedback trial","",""
"html-button-response-esp","45","646196","0.0-11.0-0.17","6915","János imád frésezni, ezért sokat fréslik. Mi ritkán...","0","frésezünk","[""frésezünk"",""fréslünk""]","frésezünk","esp trial","10","true"
"html-button-response","46","649716","0.0-11.0-1.17","null","<p>A másik játékos ezt választotta: <b>frésezünk</b>.</p><p>&#x2705;</p><p>A te válaszod és a másik játékos válasza <b>megegyeznek</b>.</p>","null","","","","feedback trial","",""
"html-button-response-esp","47","659258","0.0-11.0-0.18","6362","János imád küsözni, ezért sokat küslik. Mi ritkán...","1","küsözünk","[""küslünk"",""küsözünk""]","küsözünk","esp trial","10","true"
"html-button-response","48","662785","0.0-11.0-1.18","null","<p>A másik játékos ezt választotta: <b>küsözünk</b>.</p><p>&#x2705;</p><p>A te válaszod és a másik játékos válasza <b>megegyeznek</b>.</p>","null","","","","feedback trial","",""
"html-button-response-esp","49","672335","0.0-11.0-0.19","6317","János imád bregezni, ezért sokat bregzik. Mi ritkán...","1","bregezünk","[""bregzünk"",""bregezünk""]","bregezünk","esp trial","10","true"
"html-button-response","50","675856","0.0-11.0-1.19","null","<p>A másik játékos ezt választotta: <b>bregezünk</b>.</p><p>&#x2705;</p><p>A te válaszod és a másik játékos válasza <b>megegyeznek</b>.</p>","null","","","","feedback trial","",""
"html-button-response-esp","51","685394","0.0-11.0-0.20","7694","János imád drojozni, ezért sokat drojzik. Mi ritkán...","0","drojozunk","[""drojozunk"",""drojzunk""]","drojozunk","esp trial","10","true"
"html-button-response","52","688920","0.0-11.0-1.20","null","<p>A másik játékos ezt választotta: <b>drojozunk</b>.</p><p>&#x2705;</p><p>A te válaszod és a másik játékos válasza <b>megegyeznek</b>.</p>","null","","","","feedback trial","",""
"html-button-response-esp","53","698474","0.0-11.0-0.21","8796","János imád galározni, ezért sokat galárzik. Ők ritkán...","1","galároznak","[""galárzanak"",""galároznak""]","galárzanak","esp trial","10","false"
"html-button-response","54","701996","0.0-11.0-1.21","null","<p>A másik játékos ezt választotta: <b>galárzanak</b>.</p><p>&#10060;</p><p>A válaszaitok <b>nem</b> egyeznek meg.</p>","null","","","","feedback trial","",""
"html-button-response-esp","55","711887","0.0-11.0-0.22","9376","János imád flézezni, ezért sokat flézlik. Ti ritkán...","1","flézeztek","[""flézletek"",""flézeztek""]","flézletek","esp trial","10","false"
"html-button-response","56","715405","0.0-11.0-1.22","null","<p>A másik játékos ezt választotta: <b>flézletek</b>.</p><p>&#10060;</p><p>A válaszaitok <b>nem</b> egyeznek meg.</p>","null","","","","feedback trial","",""
"html-button-response-esp","57","724950","0.0-11.0-0.23","6773","János imád lírozni, ezért sokat lírlik. Ők ritkán...","1","líroznak","[""lírlanak"",""líroznak""]","líroznak","esp trial","10","true"
"html-button-response","58","728476","0.0-11.0-1.23","null","<p>A másik játékos ezt választotta: <b>líroznak</b>.</p><p>&#x2705;</p><p>A te válaszod és a másik játékos válasza <b>megegyeznek</b>.</p>","null","","","","feedback trial","",""
"html-button-response-esp","59","740456","0.0-11.0-0.24","11467","János imád spibamozni, ezért sokat spibamlik. Ők ritkán...","1","spibamoznak","[""spibamlanak"",""spibamoznak""]","spibamoznak","esp trial","10","true"
"html-button-response","60","743967","0.0-11.0-1.24","null","<p>A másik játékos ezt választotta: <b>spibamoznak</b>.</p><p>&#x2705;</p><p>A te válaszod és a másik játékos válasza <b>megegyeznek</b>.</p>","null","","","","feedback trial","",""
"html-button-response-esp","61","756861","0.0-11.0-0.25","12383","János imád sprigozni, ezért sokat sprigzik. Ti ritkán...","0","sprigoztok","[""sprigoztok"",""sprigzotok""]","sprigzotok","esp trial","10","false"
"html-button-response","62","760386","0.0-11.0-1.25","null","<p>A másik játékos ezt választotta: <b>sprigzotok</b>.</p><p>&#10060;</p><p>A válaszaitok <b>nem</b> egyeznek meg.</p>","null","","","","feedback trial","",""
"html-button-response-esp","63","769923","0.0-11.0-0.26","7244","János imád mísozni, ezért sokat míslik. Mi ritkán...","0","mísozunk","[""mísozunk"",""míslunk""]","mísozunk","esp trial","10","true"
"html-button-response","64","773447","0.0-11.0-1.26","null","<p>A másik játékos ezt választotta: <b>mísozunk</b>.</p><p>&#x2705;</p><p>A te válaszod és a másik játékos válasza <b>megegyeznek</b>.</p>","null","","","","feedback trial","",""
"html-button-response-esp","65","782985","0.0-11.0-0.27","4904","János imád prazozni, ezért sokat prazlik. Mi ritkán...","0","prazozunk","[""prazozunk"",""prazlunk""]","prazozunk","esp trial","10","true"
"html-button-response","66","786493","0.0-11.0-1.27","null","<p>A másik játékos ezt választotta: <b>prazozunk</b>.</p><p>&#x2705;</p><p>A te válaszod és a másik játékos válasza <b>megegyeznek</b>.</p>","null","","","","feedback trial","",""
"html-button-response-esp","67","796030","0.0-11.0-0.28","6615","János imád sprimozni, ezért sokat sprimlik. Mi ritkán...","1","sprimozunk","[""sprimlunk"",""sprimozunk""]","sprimozunk","esp trial","10","true"
"html-button-response","68","799542","0.0-11.0-1.28","null","<p>A másik játékos ezt választotta: <b>sprimozunk</b>.</p><p>&#x2705;</p><p>A te válaszod és a másik játékos válasza <b>megegyeznek</b>.</p>","null","","","","feedback trial","",""
"html-button-response-esp","69","809076","0.0-11.0-0.29","5936","János imád frivamozni, ezért sokat frivamlik. Mi ritkán...","1","frivamozunk","[""frivamlunk"",""frivamozunk""]","frivamozunk","esp trial","10","true"
"html-button-response","70","812594","0.0-11.0-1.29","null","<p>A másik játékos ezt választotta: <b>frivamozunk</b>.</p><p>&#x2705;</p><p>A te válaszod és a másik játékos válasza <b>megegyeznek</b>.</p>","null","","","","feedback trial","",""
"html-button-response-esp","71","822138","0.0-11.0-0.30","3558","János imád brározni, ezért sokat brárlik. Ők ritkán...","0","brároznak","[""brároznak"",""brárlanak""]","brároznak","esp trial","10","true"
"html-button-response","72","825650","0.0-11.0-1.30","null","<p>A másik játékos ezt választotta: <b>brároznak</b>.</p><p>&#x2705;</p><p>A te válaszod és a másik játékos válasza <b>megegyeznek</b>.</p>","null","","","","feedback trial","",""
"html-button-response-esp","73","835190","0.0-11.0-0.31","3842","János imád gyivepedni, ezért sokat gyivepszik. Ők ritkán...","0","gyivepednek","[""gyivepednek"",""gyivepszenek""]","gyivepednek","esp trial","10","true"
"html-button-response","74","838698","0.0-11.0-1.31","null","<p>A másik játékos ezt választotta: <b>gyivepednek</b>.</p><p>&#x2705;</p><p>A te válaszod és a másik játékos válasza <b>megegyeznek</b>.</p>","null","","","","feedback trial","",""
"html-button-response-esp","75","848245","0.0-11.0-0.32","3533","János imád gibemezni, ezért sokat gibemlik. Mi ritkán...","1","gibemezünk","[""gibemlünk"",""gibemezünk""]","gibemezünk","esp trial","10","true"
"html-button-response","76","851755","0.0-11.0-1.32","null","<p>A másik játékos ezt választotta: <b>gibemezünk</b>.</p><p>&#x2705;</p><p>A te válaszod és a másik játékos válasza <b>megegyeznek</b>.</p>","null","","","","feedback trial","",""
"html-button-response-esp","77","861302","0.0-11.0-0.33","4262","János imád tágarozni, ezért sokat tágarzik. Mi ritkán...","0","tágarzunk","[""tágarzunk"",""tágarozunk""]","tágarozunk","esp trial","10","false"
"html-button-response","78","864815","0.0-11.0-1.33","null","<p>A másik játékos ezt választotta: <b>tágarozunk</b>.</p><p>&#10060;</p><p>A válaszaitok <b>nem</b> egyeznek meg.</p>","null","","","","feedback trial","",""
"html-button-response-esp","79","874360","0.0-11.0-0.34","6749","János imád fröjözni, ezért sokat fröjlik. Mi ritkán...","0","fröjözünk","[""fröjözünk"",""fröjlünk""]","fröjözünk","esp trial","10","true"
"html-button-response","80","877876","0.0-11.0-1.34","null","<p>A másik játékos ezt választotta: <b>fröjözünk</b>.</p><p>&#x2705;</p><p>A te válaszod és a másik játékos válasza <b>megegyeznek</b>.</p>","null","","","","feedback trial","",""
"html-button-response-esp","81","887421","0.0-11.0-0.35","6088","János imád spalározni, ezért sokat spalárzik. Ők ritkán...","1","spalároznak","[""spalárzanak"",""spalároznak""]","spalároznak","esp trial","10","true"
"html-button-response","82","890933","0.0-11.0-1.35","null","<p>A másik játékos ezt választotta: <b>spalároznak</b>.</p><p>&#x2705;</p><p>A te válaszod és a másik játékos válasza <b>megegyeznek</b>.</p>","null","","","","feedback trial","",""
"html-button-response-esp","83","900475","0.0-11.0-0.36","5817","János imád nágapodni, ezért sokat nágapszik. Ők ritkán...","1","nágapodnak","[""nágapszanak"",""nágapodnak""]","nágapodnak","esp trial","10","true"
"html-button-response","84","903986","0.0-11.0-1.36","null","<p>A másik játékos ezt választotta: <b>nágapodnak</b>.</p><p>&#x2705;</p><p>A te válaszod és a másik játékos válasza <b>megegyeznek</b>.</p>","null","","","","feedback trial","",""
"html-button-response-esp","85","913521","0.0-11.0-0.37","8310","János imád brálamozni, ezért sokat brálamlik. Ők ritkán...","1","brálamoznak","[""brálamlanak"",""brálamoznak""]","brálamoznak","esp trial","10","true"
"html-button-response","86","917037","0.0-11.0-1.37","null","<p>A másik játékos ezt választotta: <b>brálamoznak</b>.</p><p>&#x2705;</p><p>A te válaszod és a másik játékos válasza <b>megegyeznek</b>.</p>","null","","","","feedback trial","",""
"html-button-response-esp","87","926582","0.0-11.0-0.38","3247","János imád brivágozni, ezért sokat briváglik. Ők ritkán...","0","brivágoznak","[""brivágoznak"",""briváglanak""]","briváglanak","esp trial","10","false"
"html-button-response","88","930097","0.0-11.0-1.38","null","<p>A másik játékos ezt választotta: <b>briváglanak</b>.</p><p>&#10060;</p><p>A válaszaitok <b>nem</b> egyeznek meg.</p>","null","","","","feedback trial","",""
"html-button-response-esp","89","939642","0.0-11.0-0.39","3798","János imád trűnyözni, ezért sokat trűnylik. Ők ritkán...","0","trűnyöznek","[""trűnyöznek"",""trűnylenek""]","trűnyöznek","esp trial","10","true"
"html-button-response","90","943171","0.0-11.0-1.39","null","<p>A másik játékos ezt választotta: <b>trűnyöznek</b>.</p><p>&#x2705;</p><p>A te válaszod és a másik játékos válasza <b>megegyeznek</b>.</p>","null","","","","feedback trial","",""
"html-button-response-esp","91","952713","0.0-11.0-0.40","5380","János imád pehégedni, ezért sokat pehégszik. Ti ritkán...","1","pehégedtek","[""pehégszetek"",""pehégedtek""]","pehégedtek","esp trial","10","true"
"html-button-response","92","956230","0.0-11.0-1.40","null","<p>A másik játékos ezt választotta: <b>pehégedtek</b>.</p><p>&#x2705;</p><p>A te válaszod és a másik játékos válasza <b>megegyeznek</b>.</p>","null","","","","feedback trial","",""
"html-button-response-esp","93","965776","0.0-11.0-0.41","4311","János imád dirányozni, ezért sokat diránylik. Ők ritkán...","0","dirányoznak","[""dirányoznak"",""diránylanak""]","dirányoznak","esp trial","10","true"
"html-button-response","94","969293","0.0-11.0-1.41","null","<p>A másik játékos ezt választotta: <b>dirányoznak</b>.</p><p>&#x2705;</p><p>A te válaszod és a másik játékos válasza <b>megegyeznek</b>.</p>","null","","","","feedback trial","",""
"html-button-response-esp","95","980374","0.0-11.0-0.42","10566","János imád trírozni, ezért sokat trírzik. Mi ritkán...","1","trírozunk","[""trírzunk"",""trírozunk""]","trírozunk","esp trial","10","true"
"html-button-response","96","983896","0.0-11.0-1.42","null","<p>A másik játékos ezt választotta: <b>trírozunk</b>.</p><p>&#x2705;</p><p>A te válaszod és a másik játékos válasza <b>megegyeznek</b>.</p>","null","","","","feedback trial","",""
"html-button-response-esp","97","995693","0.0-11.0-0.43","11284","János imád brüszözni, ezért sokat brüszlik. Ti ritkán...","1","brüszöztök","[""brüszlötök"",""brüszöztök""]","brüszöztök","esp trial","10","true"
"html-button-response","98","999222","0.0-11.0-1.43","null","<p>A másik játékos ezt választotta: <b>brüszöztök</b>.</p><p>&#x2705;</p><p>A te válaszod és a másik játékos válasza <b>megegyeznek</b>.</p>","null","","","","feedback trial","",""
"html-button-response-esp","99","1009727","0.0-11.0-0.44","9993","János imád riványozni, ezért sokat riványlik. Ti ritkán...","1","riványoztok","[""riványlotok"",""riványoztok""]","riványoztok","esp trial","10","true"
"html-button-response","100","1013245","0.0-11.0-1.44","null","<p>A másik játékos ezt választotta: <b>riványoztok</b>.</p><p>&#x2705;</p><p>A te válaszod és a másik játékos válasza <b>megegyeznek</b>.</p>","null","","","","feedback trial","",""
"html-button-response-esp","101","1029006","0.0-11.0-0.45","15248","János imád brilegezni, ezért sokat brilegzik. Mi ritkán...","0","brilegezünk","[""brilegezünk"",""brilegzünk""]","brilegezünk","esp trial","10","true"
"html-button-response","102","1032534","0.0-11.0-1.45","null","<p>A másik játékos ezt választotta: <b>brilegezünk</b>.</p><p>&#x2705;</p><p>A te válaszod és a másik játékos válasza <b>megegyeznek</b>.</p>","null","","","","feedback trial","",""
"html-button-response-esp","103","1042080","0.0-11.0-0.46","5876","János imád kluzozni, ezért sokat kluzlik. Ti ritkán...","1","kluzoztok","[""kluzlotok"",""kluzoztok""]","kluzlotok","esp trial","10","false"
"html-button-response","104","1045584","0.0-11.0-1.46","null","<p>A másik játékos ezt választotta: <b>kluzlotok</b>.</p><p>&#10060;</p><p>A válaszaitok <b>nem</b> egyeznek meg.</p>","null","","","","feedback trial","",""
"html-button-response-esp","105","1055159","0.0-11.0-0.47","9059","János imád spöközni, ezért sokat spöklik. Mi ritkán...","1","spöközünk","[""spöklünk"",""spöközünk""]","spöközünk","esp trial","10","true"
"html-button-response","106","1058678","0.0-11.0-1.47","null","<p>A másik játékos ezt választotta: <b>spöközünk</b>.</p><p>&#x2705;</p><p>A te válaszod és a másik játékos válasza <b>megegyeznek</b>.</p>","null","","","","feedback trial","",""
"html-button-response-esp","107","1068225","0.0-11.0-0.48","6292","János imád livényezni, ezért sokat livénylik. Mi ritkán...","0","livényezünk","[""livényezünk"",""livénylünk""]","livényezünk","esp trial","10","true"
"html-button-response","108","1071738","0.0-11.0-1.48","null","<p>A másik játékos ezt választotta: <b>livényezünk</b>.</p><p>&#x2705;</p><p>A te válaszod és a másik játékos válasza <b>megegyeznek</b>.</p>","null","","","","feedback trial","",""
"html-button-response-esp","109","1081437","0.0-11.0-0.49","9186","János imád flivegezni, ezért sokat flivegzik. Ők ritkán...","1","flivegeznek","[""flivegzenek"",""flivegeznek""]","flivegzenek","esp trial","10","false"
"html-button-response","110","1084947","0.0-11.0-1.49","null","<p>A másik játékos ezt választotta: <b>flivegzenek</b>.</p><p>&#10060;</p><p>A válaszaitok <b>nem</b> egyeznek meg.</p>","null","","","","feedback trial","",""
"html-button-response-esp","111","1097197","0.0-11.0-0.50","11736","János imád flubokozni, ezért sokat fluboklik. Ti ritkán...","0","fluboklotok","[""fluboklotok"",""flubokoztok""]","fluboklotok","esp trial","10","true"
"html-button-response","112","1100719","0.0-11.0-1.50","null","<p>A másik játékos ezt választotta: <b>fluboklotok</b>.</p><p>&#x2705;</p><p>A te válaszod és a másik játékos válasza <b>megegyeznek</b>.</p>","null","","","","feedback trial","",""
"html-button-response-esp","113","1110269","0.0-11.0-0.51","5124","János imád filányozni, ezért sokat filánylik. Mi ritkán...","1","filánylunk","[""filányozunk"",""filánylunk""]","filányozunk","esp trial","10","false"
"html-button-response","114","1113783","0.0-11.0-1.51","null","<p>A másik játékos ezt választotta: <b>filányozunk</b>.</p><p>&#10060;</p><p>A válaszaitok <b>nem</b> egyeznek meg.</p>","null","","","","feedback trial","",""
"html-button-response-esp","115","1123334","0.0-11.0-0.52","7577","János imád klarágozni, ezért sokat klarágzik. Ti ritkán...","1","klarágoztok","[""klarágzotok"",""klarágoztok""]","klarágzotok","esp trial","10","false"
"html-button-response","116","1126851","0.0-11.0-1.52","null","<p>A másik játékos ezt választotta: <b>klarágzotok</b>.</p><p>&#10060;</p><p>A válaszaitok <b>nem</b> egyeznek meg.</p>","null","","","","feedback trial","",""
"html-button-response-esp","117","1136408","0.0-11.0-0.53","6529","János imád tűgözni, ezért sokat tűgzik. Ti ritkán...","0","tűgöztök","[""tűgöztök"",""tűgzötök""]","tűgöztök","esp trial","10","true"
"html-button-response","118","1139930","0.0-11.0-1.53","null","<p>A másik játékos ezt választotta: <b>tűgöztök</b>.</p><p>&#x2705;</p><p>A te válaszod és a másik játékos válasza <b>megegyeznek</b>.</p>","null","","","","feedback trial","",""
"html-button-response","119","1153587","0.0-12.0","13144","<p>A közös játék most véget ért.</p><p>Mielőtt eláruljuk a végső pontszámodat, arra kérlek, játszd a szóválasztós játékot néhány percig egyedül is.</p><p>A feladatod ugyanaz lesz, választani két lehetőség közül.</p><p>Most viszont egyedül kell döntened, hogy te melyiket választanád.</p>","0","","","","","",""
"html-button-response-clever","120","1160742","0.0-13.0-0.0","6635","János imád flodozni, ezért sokat flodlik. Ti ritkán...","1","flodoztok","[""flodlotok"",""flodoztok""]","","posttest trial","1",""
"html-button-response-clever","121","1178145","0.0-13.0-0.1","16898","János imád nyizozni, ezért sokat nyizlik. Mi ritkán...","0","nyizlunk","[""nyizlunk"",""nyizozunk""]","","posttest trial","1",""
"html-button-response-clever","122","1186244","0.0-13.0-0.2","7583","János imád plibozni, ezért sokat plibzik. Ti ritkán...","1","pliboztok","[""plibzotok"",""pliboztok""]","","posttest trial","1",""
"html-button-response-clever","123","1191774","0.0-13.0-0.3","5018","János imád bejezni, ezért sokat bejzik. Mi ritkán...","0","bejzünk","[""bejzünk"",""bejezünk""]","","posttest trial","1",""
"html-button-response-clever","124","1203344","0.0-13.0-0.4","11063","János imád flátozni, ezért sokat flátlik. Ti ritkán...","1","flátlotok","[""flátoztok"",""flátlotok""]","","posttest trial","1",""
"html-button-response-clever","125","1209813","0.0-13.0-0.5","5955","János imád bresezni, ezért sokat breslik. Ők ritkán...","1","breseznek","[""breslenek"",""breseznek""]","","posttest trial","1",""
"html-button-response-clever","126","1217596","0.0-13.0-0.6","7279","János imád jurozni, ezért sokat jurlik. Mi ritkán...","0","jurozunk","[""jurozunk"",""jurlunk""]","","posttest trial","1",""
"html-button-response-clever","127","1223466","0.0-13.0-0.7","5362","János imád vilesezni, ezért sokat vileslik. Mi ritkán...","0","vilesezünk","[""vilesezünk"",""vileslünk""]","","posttest trial","1",""
"html-button-response-clever","128","1235232","0.0-13.0-0.8","11261","János imád trilekedni, ezért sokat trilekszik. Ti ritkán...","0","trilekedtek","[""trilekedtek"",""trilekszetek""]","","posttest trial","1",""
"html-button-response-clever","129","1242465","0.0-13.0-0.9","6728","János imád frorozni, ezért sokat frorlik. Ők ritkán...","0","frorlanak","[""frorlanak"",""froroznak""]","","posttest trial","1",""
"html-button-response-clever","130","1248326","0.0-13.0-0.10","5347","János imád vihapodni, ezért sokat vihapszik. Mi ritkán...","0","vihapodunk","[""vihapodunk"",""vihapszunk""]","","posttest trial","1",""
"html-button-response-clever","131","1255775","0.0-13.0-0.11","6945","János imád metégedni, ezért sokat metégszik. Ők ritkán...","0","metégszenek","[""metégszenek"",""metégednek""]","","posttest trial","1",""
"html-button-response-clever","132","1270248","0.0-13.0-0.12","13962","János imád sztredezni, ezért sokat sztredlik. Ti ritkán...","0","sztredeztek","[""sztredeztek"",""sztredletek""]","","posttest trial","1",""
"html-button-response-clever","133","1281257","0.0-13.0-0.13","10494","János imád bötőrözni, ezért sokat bötőrzik. Mi ritkán...","0","bötőrözünk","[""bötőrözünk"",""bötőrzünk""]","","posttest trial","1",""
"html-button-response-clever","134","1291905","0.0-13.0-0.14","10142","János imád ribegedni, ezért sokat ribegszik. Ti ritkán...","1","ribegedtek","[""ribegszetek"",""ribegedtek""]","","posttest trial","1",""
"html-button-response-clever","135","1306663","0.0-13.0-0.15","14248","János imád trálakozni, ezért sokat trálaklik. Ők ritkán...","1","trálakoznak","[""trálaklanak"",""trálakoznak""]","","posttest trial","1",""
"html-button-response-clever","136","1312858","0.0-13.0-0.16","5685","János imád sprebezni, ezért sokat sprebzik. Ők ritkán...","0","sprebeznek","[""sprebeznek"",""sprebzenek""]","","posttest trial","1",""
"html-button-response-clever","137","1320180","0.0-13.0-0.17","6817","János imád flerékedni, ezért sokat flerékszik. Mi ritkán...","1","flerékszünk","[""flerékedünk"",""flerékszünk""]","","posttest trial","1",""
"html-button-response-clever","138","1324634","0.0-13.0-0.18","3938","János imád prugorozni, ezért sokat prugorzik. Ti ritkán...","1","prugoroztok","[""prugorzotok"",""prugoroztok""]","","posttest trial","1",""
"html-button-response-clever","139","1328638","0.0-13.0-0.19","3490","János imád frinyozni, ezért sokat frinylik. Mi ritkán...","1","frinyozunk","[""frinylunk"",""frinyozunk""]","","posttest trial","1",""
"html-button-response-clever","140","1332353","0.0-13.0-0.20","3199","János imád nyöbözni, ezért sokat nyöbzik. Ők ritkán...","0","nyöböznek","[""nyöböznek"",""nyöbzenek""]","","posttest trial","1",""
"html-button-response-clever","141","1338137","0.0-13.0-0.21","5269","János imád flugonyozni, ezért sokat flugonylik. Ők ritkán...","1","flugonyoznak","[""flugonylanak"",""flugonyoznak""]","","posttest trial","1",""
"html-button-response-clever","142","1344588","0.0-13.0-0.22","5936","János imád dralágozni, ezért sokat dralágzik. Mi ritkán...","0","dralágozunk","[""dralágozunk"",""dralágzunk""]","","posttest trial","1",""
"html-button-response-clever","143","1351940","0.0-13.0-0.23","6846","János imád spuborozni, ezért sokat spuborzik. Ők ritkán...","0","spuboroznak","[""spuboroznak"",""spuborzanak""]","","posttest trial","1",""
"html-button-response-clever","144","1358234","0.0-13.0-0.24","5780","János imád vehékedni, ezért sokat vehékszik. Mi ritkán...","0","vehékszünk","[""vehékszünk"",""vehékedünk""]","","posttest trial","1",""
"html-button-response-clever","145","1366782","0.0-13.0-0.25","8034","János imád brűközni, ezért sokat brűklik. Ti ritkán...","0","brűköztök","[""brűköztök"",""brűklötök""]","","posttest trial","1",""
"html-button-response-clever","146","1374682","0.0-13.0-0.26","7393","János imád bribasozni, ezért sokat bribaslik. Ők ritkán...","0","bribasoznak","[""bribasoznak"",""bribaslanak""]","","posttest trial","1",""
"html-button-response-clever","147","1379255","0.0-13.0-0.27","4059","János imád brürözni, ezért sokat brürzik. Ők ritkán...","0","brüröznek","[""brüröznek"",""brürzenek""]","","posttest trial","1",""
"html-button-response-clever","148","1384366","0.0-13.0-0.28","4594","János imád sűjözni, ezért sokat sűjlik. Mi ritkán...","1","sűjözünk","[""sűjlünk"",""sűjözünk""]","","posttest trial","1",""
"html-button-response-clever","149","1389762","0.0-13.0-0.29","4880","János imád bribékedni, ezért sokat bribékszik. Ti ritkán...","0","bribékedtek","[""bribékedtek"",""bribékszetek""]","","posttest trial","1",""
"html-button-response-clever","150","1395926","0.0-13.0-0.30","5648","János imád nyülöközni, ezért sokat nyülöklik. Ők ritkán...","0","nyülököznek","[""nyülököznek"",""nyülöklenek""]","","posttest trial","1",""
"html-button-response-clever","151","1405151","0.0-13.0-0.31","8706","János imád nivározni, ezért sokat nivárzik. Ti ritkán...","0","nivároztok","[""nivároztok"",""nivárzotok""]","","posttest trial","1",""
"html-button-response-clever","152","1412903","0.0-13.0-0.32","7237","János imád klűmözni, ezért sokat klűmlik. Ti ritkán...","0","klűmöztök","[""klűmöztök"",""klűmlötök""]","","posttest trial","1",""
"html-button-response-clever","153","1419966","0.0-13.0-0.33","6548","János imád dibágozni, ezért sokat dibáglik. Ti ritkán...","0","dibágoztok","[""dibágoztok"",""dibáglotok""]","","posttest trial","1",""
"html-button-response-clever","154","1431657","0.0-13.0-0.34","11179","János imád frélegezni, ezért sokat frélegzik. Mi ritkán...","1","frélegzünk","[""frélegezünk"",""frélegzünk""]","","posttest trial","1",""
"html-button-response-clever","155","1437190","0.0-13.0-0.35","5023","János imád spivejezni, ezért sokat spivejlik. Ők ritkán...","0","spivejeznek","[""spivejeznek"",""spivejlenek""]","","posttest trial","1",""
"html-button-response-clever","156","1445281","0.0-13.0-0.36","7586","János imád gihamozni, ezért sokat gihamlik. Ők ritkán...","0","gihamoznak","[""gihamoznak"",""gihamlanak""]","","posttest trial","1",""
"html-button-response-clever","157","1453419","0.0-13.0-0.37","7633","János imád trálodni, ezért sokat trálszik. Mi ritkán...","0","trálszunk","[""trálszunk"",""trálodunk""]","","posttest trial","1",""
"html-button-response-clever","158","1460638","0.0-13.0-0.38","6702","János imád prihegedni, ezért sokat prihegszik. Ők ritkán...","1","prihegednek","[""prihegszenek"",""prihegednek""]","","posttest trial","1",""
"html-button-response-clever","159","1464753","0.0-13.0-0.39","3603","János imád bügözni, ezért sokat bügzik. Ők ritkán...","1","bügöznek","[""bügzenek"",""bügöznek""]","","posttest trial","1",""
"html-button-response-clever","160","1470257","0.0-13.0-0.40","5000","János imád géregezni, ezért sokat géreglik. Ti ritkán...","0","géregeztek","[""géregeztek"",""géregletek""]","","posttest trial","1",""
"html-button-response-clever","161","1474887","0.0-13.0-0.41","4124","János imád játozni, ezért sokat játlik. Mi ritkán...","1","játozunk","[""játlunk"",""játozunk""]","","posttest trial","1",""
"html-button-response-clever","162","1480044","0.0-13.0-0.42","4647","János imád nurokozni, ezért sokat nuroklik. Mi ritkán...","1","nurokozunk","[""nuroklunk"",""nurokozunk""]","","posttest trial","1",""
"html-button-response-clever","163","1484857","0.0-13.0-0.43","4308","János imád pibegezni, ezért sokat pibegzik. Ők ritkán...","0","pibegeznek","[""pibegeznek"",""pibegzenek""]","","posttest trial","1",""
"html-button-response-clever","164","1495368","0.0-13.0-0.44","10003","János imád hubonyozni, ezért sokat hubonylik. Ti ritkán...","1","hubonyoztok","[""hubonylotok"",""hubonyoztok""]","","posttest trial","1",""
"html-button-response-clever","165","1506944","0.0-13.0-0.45","11063","János imád tögözni, ezért sokat töglik. Ők ritkán...","1","tögöznek","[""töglenek"",""tögöznek""]","","posttest trial","1",""
"html-button-response-clever","166","1513822","0.0-13.0-0.46","6367","János imád hiragozni, ezért sokat hiragzik. Ők ritkán...","1","hiragoznak","[""hiragzanak"",""hiragoznak""]","","posttest trial","1",""
"html-button-response-clever","167","1543009","0.0-13.0-0.47","28680","János imád kláragodni, ezért sokat kláragszik. Ti ritkán...","0","kláragszotok","[""kláragszotok"",""kláragodtok""]","","posttest trial","1",""
"html-button-response-clever","168","1553619","0.0-13.0-0.48","10091","János imád frirozni, ezért sokat frirzik. Mi ritkán...","1","frirozunk","[""frirzunk"",""frirozunk""]","","posttest trial","1",""
"html-button-response-clever","169","1559371","0.0-13.0-0.49","5246","János imád döjözni, ezért sokat döjlik. Ők ritkán...","1","döjlenek","[""döjöznek"",""döjlenek""]","","posttest trial","1",""
"html-button-response-clever","170","1568618","0.0-13.0-0.50","8744","János imád klihasozni, ezért sokat klihaslik. Ti ritkán...","1","klihasoztok","[""klihaslotok"",""klihasoztok""]","","posttest trial","1",""
"html-button-response-clever","171","1574981","0.0-13.0-0.51","5847","János imád klégezni, ezért sokat kléglik. Mi ritkán...","0","klégezünk","[""klégezünk"",""kléglünk""]","","posttest trial","1",""
"html-button-response-clever","172","1582758","0.0-13.0-0.52","7260","János imád nyádozni, ezért sokat nyádlik. Ők ritkán...","1","nyádoznak","[""nyádlanak"",""nyádoznak""]","","posttest trial","1",""
"html-button-response-clever","173","1589773","0.0-13.0-0.53","6498","János imád trukodni, ezért sokat trukszik. Ti ritkán...","0","trukodtok","[""trukodtok"",""trukszotok""]","","posttest trial","1",""
"html-button-response","174","1607789","0.0-14.0","17493","<p> Vége a játéknak. A teljes pontszámod 39/54.</p><p> Szép munka! &#128526;&#128526;&#128526;</p><p>A Befejezés gomb megnyomása után bezárhatod a böngészőablakot.</p>","0","","","","","",""
"html-keyboard-response","175","1613315","0.0-15.0","null","<div class=""message"">
         <p>Egy kis türelmet kérünk, amíg elmentjük az adatokat...</p>
         </div>","null","","","","","",""
