"trial_type","trial_index","time_elapsed","internal_node_id","rt","stimulus","response","response_string","choices","esp_response","trial_kind","list_number","esp_match"
"pavlovia","0","661","0.0-0.0","","","","","","","","",""
"html-button-response","1","39591","0.0-1.0","38426","<p>Kedves Résztvevő! A Budapesti Műszaki és Gazdaságtudományi Egyetem Kognitív Tudományi Tanszékének kutatásában való részvételed kérjük. A kutatásban azt vizsgáljuk, hogy a magyar anyanyelvűek hogyan használnak bizonyos szóalakokat, és hogy milyen képük van arról, hogy mások hogyan használják, hogyan képzik a szavakat. Ez hozzásegít bennünket ahhoz, hogy jobban megértsük, hogyan dolgozza fel és tárolja a nyelvet az emberi agy, és hogyan működnek, hogyan változnak egy adott közösség nyelvi konvenciói.</p><p>A vizsgálat egy rövid számítógépes feladatból fog állni. A kutatásban való részvétel önkéntes, a részvételi szándék bármikor visszavonható. A résztvevők eredményeit név nélkül kezeljük, így nem beazonosíthatók az adatok feldolgozása során. Minden személyes adatot az EU általános adatvédelmi rendeletének (GDPR) megfelelően kezelünk és legfeljebb öt éven belül megsemmisítünk. A vizsgálat jellemzően húsz percet vesz igénybe.</p><p>Kutatásvezető:</p><p>Dr. Rácz Péter, tudományos munkatárs, BME KTT</p><p>e-mail: racz.peter.marton@ttk.bme.hu</p>","0","","","","","",""
"html-button-response","2","108734","0.0-2.0","68632","<p>A kísérletben szavakat fogsz látni. Ezek között lesznek olyanok, amelyeket ismersz, de előfordulhatnak olyanok is, amelyeket nem ismersz, sőt, vannak köztük kitalált szavak is. Minden szónál látni fogsz toldalékolt alakokat. A te feladatod az lesz, hogy minden szóhoz kiválaszd azt a toldalékolt alakot, amely a te számodra ismerősebben, természetesebben hangzik. Rossz válaszok nincsenek, mert van olyan, hogy különböző embereknek más és más szó tűnik jobb választásnak. A választ úgy tudod majd kiválasztani, ha rákattintasz.</p><p>Ebben a szóválasztós játékban egy másik játékossal együtt veszel majd részt. A másik játékos is minden esetben azok közül a lehetőségek közül válogathat, mint te. Kettőtök feladata az, hogy ugyanazt a lehetőséget válasszátok minden esetben. Ahhoz, hogy ez sikerüljön, neked figyelned kell arra, hogy a másik játékos milyen válaszokat ad, és ennek alapján meg kell tippelned, hogyan választ legközelebb. Ha eltalálod, akkor pontot kapsz.</p>","0","","","","","",""
"html-button-response","3","128478","0.0-3.0","19243","<p>Kérjük, olvasd el az alábbi nyilatkozatot, és amennyiben egyetértesz vele, nyomj a Beleegyezés gombra!</p><p>Kijelentem, hogy magyar anyanyelvű személyként önként veszek részt a BME KTT kísérletében. A kutatás céljával és folyamatával kapcsolatban elegendő tájékoztatást kaptam, lehetőségem volt kérdések feltételére, és esetleges kérdéseimre megfelelő válaszokat kaptam. A tájékoztatás alapján elegendő mennyiségű információ áll a rendelkezésemre, hogy eldönthessem, részt kívánok-e venni a kutatásban.</p><p>Tisztában vagyok vele, hogy részvételi szándékomat és adataimat bármikor, indoklás nélkül visszavonhatom.</p><p>Értem és tudomásul veszem, hogy a kutatás tudományos célokat szolgál, és az általam szolgáltatott adatokat a BME kizárólag kutatási célból használja fel. Tudomásul veszem, hogy eredményeimet a többi résztvevő eredményeivel együtt kezelik, így egyéni teljesítményemről visszajelzést, szakvéleményt nem kapok.</p><p>Megértettem, hogy adataim kezelését illetően a BME az EU általános adatvédelmi rendelete (GDPR), a hatályos adatvédelmi törvény és a nemzetközi kutatás-etikai alapelvek szerint jár el. Eredményeim anonim módon kerülnek feldolgozásra, és a kutatás résztvevői az azonosításomra alkalmas adataimat harmadik félnek nem szolgáltatják ki. Engedélyezem a BME számára a jelen kutatásban felvett adataim feldolgozását és tárolását, beleértve azok későbbi kutatásokhoz való felhasználását is. Személyes adataim kezelésével kapcsolatban tájékoztatást kérhetek a kutatás résztvevőitől, az adatkezelés ellen tiltakozhatok, kérhetem személyes adataim helyesbítését, törlését vagy zárolását, valamint jogorvoslatért a Nemzeti Adatvédelmi és Információszabadság Hatósághoz fordulhatok.</p><p>Kijelentem, hogy a kutatásban való részvételem körülményeiről részletes tájékoztatást kaptam, és a feltételeket elfogadom.</p>","0","","","","","",""
"survey-text","4","147959","0.0-4.0","18975","","{""Q0"":""RQLTEN"",""Q1"":"""",""Q2"":""2001"",""Q3"":""15""}","","","","","",""
"html-button-response","5","191212","0.0-5.0","42753","<p>Ebben a játékban szavakat kell toldalékolni.</p> <p>Minden körben mutatunk majd egy példamondatot, amiben lesz egy szó.</p> <p>Alatta jön egy második mondat, ezt a mondatot neked kell majd befejezni, ugyanezzel a szóval.</p> <p>Nem biztos, hogy a szó eleve ismerős lesz számodra!</p> <p>Minden mondathoz adunk két lehetőséget, ezeket balra és jobbra látod majd.</p> <p>A játék kb. negyedóráig-húsz percig tart.</p>","0","","","","","",""
"html-button-response","6","213580","0.0-6.0","21852","<p>Nézzünk egy példát!</p> <p>A példamondat: ""János imád fláramolni, ezért sokat fláramlik.""</p><p>Neked ezt a mondatot kell befejezned: ""Ti ritkán...""</p><p>A lehetőségek pedig ezek:</p>","0","","","","","",""
"html-button-response","7","221788","0.0-7.0","7706","<p>Nagyon jó.</p><p>Ezt a játékot nem egyedül fogod játszani, hanem egy másik játékossal.</p><p>Mielőtt továbblépünk, összekapcsolunk titeket egymással.</p><p>Ez igénybe vehet néhány másodpercet, amihez szíves türelmed kérjük.</p>","0","","","","","",""
"html-button-response","8","227524","0.0-8.0","null","<p>Csatlakozás a másik játékoshoz...</p>","null","","","","","",""
"html-button-response","9","230026","0.0-9.0","null","<p> Sikeres kapcsolódás!</p>","null","","","","","",""
"html-button-response","10","240529","0.0-10.0","null","<p>A következőkben ketten játsszátok a szóválasztós játékot.</p><p>A feladatotok az lesz, hogy minden körben <b>ugyanazt</b> a szót válasszátok.</p><p>Minden ilyen egyező válaszért pontot kaptok.</p><p>Próbáld meg kitalálni, mit választ a másik játékos!</p><p>Bármikor választhatsz, a körnek akkor van vége, ha mindketten döntöttetek.</p><p>Sok sikert!</p>","null","","","","","",""
"html-button-response-esp","11","250556","0.0-11.0-0.0","9522","János imád fröjözni, ezért sokat fröjlik. Mi ritkán...","0","fröjözünk","[""fröjözünk"",""fröjlünk""]","fröjözünk","esp trial","11","true"
"html-button-response","12","254069","0.0-11.0-1.0","null","<p>A másik játékos ezt választotta: <b>fröjözünk</b>.</p><p>&#x2705;</p><p>A te válaszod és a másik játékos válasza <b>megegyeznek</b>.</p>","null","","","","feedback trial","",""
"html-button-response-esp","13","267836","0.0-11.0-0.1","13265","János imád brározni, ezért sokat brárlik. Ők ritkán...","0","brárlanak","[""brárlanak"",""brároznak""]","brároznak","esp trial","11","false"
"html-button-response","14","271343","0.0-11.0-1.1","null","<p>A másik játékos ezt választotta: <b>brároznak</b>.</p><p>&#10060;</p><p>A válaszaitok <b>nem</b> egyeznek meg.</p>","null","","","","feedback trial","",""
"html-button-response-esp","15","279252","0.0-11.0-0.2","7407","János imád dirányozni, ezért sokat diránylik. Ők ritkán...","0","dirányoznak","[""dirányoznak"",""diránylanak""]","dirányoznak","esp trial","11","true"
"html-button-response","16","282753","0.0-11.0-1.2","null","<p>A másik játékos ezt választotta: <b>dirányoznak</b>.</p><p>&#x2705;</p><p>A te válaszod és a másik játékos válasza <b>megegyeznek</b>.</p>","null","","","","feedback trial","",""
"html-button-response-esp","17","294532","0.0-11.0-0.3","11278","János imád lumozni, ezért sokat lumlik. Ti ritkán...","0","lumoztok","[""lumoztok"",""lumlotok""]","lumoztok","esp trial","11","true"
"html-button-response","18","298037","0.0-11.0-1.3","null","<p>A másik játékos ezt választotta: <b>lumoztok</b>.</p><p>&#x2705;</p><p>A te válaszod és a másik játékos válasza <b>megegyeznek</b>.</p>","null","","","","feedback trial","",""
"html-button-response-esp","19","306084","0.0-11.0-0.4","7546","János imád prilepedni, ezért sokat prilepszik. Mi ritkán...","1","prilepszünk","[""prilepedünk"",""prilepszünk""]","prilepszünk","esp trial","11","true"
"html-button-response","20","309598","0.0-11.0-1.4","null","<p>A másik játékos ezt választotta: <b>prilepszünk</b>.</p><p>&#x2705;</p><p>A te válaszod és a másik játékos válasza <b>megegyeznek</b>.</p>","null","","","","feedback trial","",""
"html-button-response-esp","21","319243","0.0-11.0-0.5","9143","János imád flézezni, ezért sokat flézlik. Ti ritkán...","0","flézeztek","[""flézeztek"",""flézletek""]","flézeztek","esp trial","11","true"
"html-button-response","22","322746","0.0-11.0-1.5","null","<p>A másik játékos ezt választotta: <b>flézeztek</b>.</p><p>&#x2705;</p><p>A te válaszod és a másik játékos válasza <b>megegyeznek</b>.</p>","null","","","","feedback trial","",""
"html-button-response-esp","23","328979","0.0-11.0-0.6","5732","János imád kluzozni, ezért sokat kluzlik. Ti ritkán...","1","kluzoztok","[""kluzlotok"",""kluzoztok""]","kluzoztok","esp trial","11","true"
"html-button-response","24","332488","0.0-11.0-1.6","null","<p>A másik játékos ezt választotta: <b>kluzoztok</b>.</p><p>&#x2705;</p><p>A te válaszod és a másik játékos válasza <b>megegyeznek</b>.</p>","null","","","","feedback trial","",""
"html-button-response-esp","25","338923","0.0-11.0-0.7","5927","János imád filányozni, ezért sokat filánylik. Mi ritkán...","0","filányozunk","[""filányozunk"",""filánylunk""]","filányozunk","esp trial","11","true"
"html-button-response","26","342427","0.0-11.0-1.7","null","<p>A másik játékos ezt választotta: <b>filányozunk</b>.</p><p>&#x2705;</p><p>A te válaszod és a másik játékos válasza <b>megegyeznek</b>.</p>","null","","","","feedback trial","",""
"html-button-response-esp","27","350338","0.0-11.0-0.8","7409","János imád tűgözni, ezért sokat tűgzik. Ti ritkán...","1","tűgöztök","[""tűgzötök"",""tűgöztök""]","tűgöztök","esp trial","11","true"
"html-button-response","28","353842","0.0-11.0-1.8","null","<p>A másik játékos ezt választotta: <b>tűgöztök</b>.</p><p>&#x2705;</p><p>A te válaszod és a másik játékos válasza <b>megegyeznek</b>.</p>","null","","","","feedback trial","",""
"html-button-response-esp","29","359443","0.0-11.0-0.9","5100","János imád pörözni, ezért sokat pörzik. Ti ritkán...","0","pöröztök","[""pöröztök"",""pörzötök""]","pöröztök","esp trial","11","true"
"html-button-response","30","362947","0.0-11.0-1.9","null","<p>A másik játékos ezt választotta: <b>pöröztök</b>.</p><p>&#x2705;</p><p>A te válaszod és a másik játékos válasza <b>megegyeznek</b>.</p>","null","","","","feedback trial","",""
"html-button-response-esp","31","370370","0.0-11.0-0.10","6922","János imád frivamozni, ezért sokat frivamlik. Mi ritkán...","1","frivamozunk","[""frivamlunk"",""frivamozunk""]","frivamlunk","esp trial","11","false"
"html-button-response","32","373881","0.0-11.0-1.10","null","<p>A másik játékos ezt választotta: <b>frivamlunk</b>.</p><p>&#10060;</p><p>A válaszaitok <b>nem</b> egyeznek meg.</p>","null","","","","feedback trial","",""
"html-button-response-esp","33","381898","0.0-11.0-0.11","7515","János imád brálamozni, ezért sokat brálamlik. Ők ritkán...","1","brálamoznak","[""brálamlanak"",""brálamoznak""]","brálamlanak","esp trial","11","false"
"html-button-response","34","385401","0.0-11.0-1.11","null","<p>A másik játékos ezt választotta: <b>brálamlanak</b>.</p><p>&#10060;</p><p>A válaszaitok <b>nem</b> egyeznek meg.</p>","null","","","","feedback trial","",""
"html-button-response-esp","35","391842","0.0-11.0-0.12","5933","János imád mihágozni, ezért sokat mihágzik. Ti ritkán...","0","mihágoztok","[""mihágoztok"",""mihágzotok""]","mihágoztok","esp trial","11","true"
"html-button-response","36","395346","0.0-11.0-1.12","null","<p>A másik játékos ezt választotta: <b>mihágoztok</b>.</p><p>&#x2705;</p><p>A te válaszod és a másik játékos válasza <b>megegyeznek</b>.</p>","null","","","","feedback trial","",""
"html-button-response-esp","37","402082","0.0-11.0-0.13","6235","János imád küsözni, ezért sokat küslik. Mi ritkán...","0","küsözünk","[""küsözünk"",""küslünk""]","küslünk","esp trial","11","false"
"html-button-response","38","405599","0.0-11.0-1.13","null","<p>A másik játékos ezt választotta: <b>küslünk</b>.</p><p>&#10060;</p><p>A válaszaitok <b>nem</b> egyeznek meg.</p>","null","","","","feedback trial","",""
"html-button-response-esp","39","415882","0.0-11.0-0.14","9781","János imád bregezni, ezért sokat bregzik. Mi ritkán...","0","bregzünk","[""bregzünk"",""bregezünk""]","bregzünk","esp trial","11","true"
"html-button-response","40","419391","0.0-11.0-1.14","null","<p>A másik játékos ezt választotta: <b>bregzünk</b>.</p><p>&#x2705;</p><p>A te válaszod és a másik játékos válasza <b>megegyeznek</b>.</p>","null","","","","feedback trial","",""
"html-button-response-esp","41","425930","0.0-11.0-0.15","6037","János imád sprimozni, ezért sokat sprimlik. Mi ritkán...","0","sprimlunk","[""sprimlunk"",""sprimozunk""]","sprimozunk","esp trial","11","false"
"html-button-response","42","429447","0.0-11.0-1.15","null","<p>A másik játékos ezt választotta: <b>sprimozunk</b>.</p><p>&#10060;</p><p>A válaszaitok <b>nem</b> egyeznek meg.</p>","null","","","","feedback trial","",""
"html-button-response-esp","43","437561","0.0-11.0-0.16","7613","János imád mísozni, ezért sokat míslik. Mi ritkán...","1","mísozunk","[""míslunk"",""mísozunk""]","mísozunk","esp trial","11","true"
"html-button-response","44","441077","0.0-11.0-1.16","null","<p>A másik játékos ezt választotta: <b>mísozunk</b>.</p><p>&#x2705;</p><p>A te válaszod és a másik játékos válasza <b>megegyeznek</b>.</p>","null","","","","feedback trial","",""
"html-button-response-esp","45","446490","0.0-11.0-0.17","4912","János imád frihegezni, ezért sokat friheglik. Mi ritkán...","1","friheglünk","[""frihegezünk"",""friheglünk""]","frihegezünk","esp trial","11","false"
"html-button-response","46","450008","0.0-11.0-1.17","null","<p>A másik játékos ezt választotta: <b>frihegezünk</b>.</p><p>&#10060;</p><p>A válaszaitok <b>nem</b> egyeznek meg.</p>","null","","","","feedback trial","",""
"html-button-response-esp","47","458273","0.0-11.0-0.18","7763","János imád prazozni, ezért sokat prazlik. Mi ritkán...","0","prazozunk","[""prazozunk"",""prazlunk""]","prazozunk","esp trial","11","true"
"html-button-response","48","461787","0.0-11.0-1.18","null","<p>A másik játékos ezt választotta: <b>prazozunk</b>.</p><p>&#x2705;</p><p>A te válaszod és a másik játékos válasza <b>megegyeznek</b>.</p>","null","","","","feedback trial","",""
"html-button-response-esp","49","470226","0.0-11.0-0.19","7937","János imád sztritozni, ezért sokat sztritlik. Ők ritkán...","1","sztritoznak","[""sztritlanak"",""sztritoznak""]","sztritoznak","esp trial","11","true"
"html-button-response","50","473728","0.0-11.0-1.19","null","<p>A másik játékos ezt választotta: <b>sztritoznak</b>.</p><p>&#x2705;</p><p>A te válaszod és a másik játékos válasza <b>megegyeznek</b>.</p>","null","","","","feedback trial","",""
"html-button-response-esp","51","479369","0.0-11.0-0.20","5139","János imád riványozni, ezért sokat riványlik. Ti ritkán...","1","riványoztok","[""riványlotok"",""riványoztok""]","riványoztok","esp trial","11","true"
"html-button-response","52","482871","0.0-11.0-1.20","null","<p>A másik játékos ezt választotta: <b>riványoztok</b>.</p><p>&#x2705;</p><p>A te válaszod és a másik játékos válasza <b>megegyeznek</b>.</p>","null","","","","feedback trial","",""
"html-button-response-esp","53","491105","0.0-11.0-0.21","7732","János imád klarágozni, ezért sokat klarágzik. Ti ritkán...","0","klarágoztok","[""klarágoztok"",""klarágzotok""]","klarágoztok","esp trial","11","true"
"html-button-response","54","494614","0.0-11.0-1.21","null","<p>A másik játékos ezt választotta: <b>klarágoztok</b>.</p><p>&#x2705;</p><p>A te válaszod és a másik játékos válasza <b>megegyeznek</b>.</p>","null","","","","feedback trial","",""
"html-button-response-esp","55","500816","0.0-11.0-0.22","5700","János imád vobozni, ezért sokat vobzik. Ti ritkán...","1","voboztok","[""vobzotok"",""voboztok""]","voboztok","esp trial","11","true"
"html-button-response","56","504329","0.0-11.0-1.22","null","<p>A másik játékos ezt választotta: <b>voboztok</b>.</p><p>&#x2705;</p><p>A te válaszod és a másik játékos válasza <b>megegyeznek</b>.</p>","null","","","","feedback trial","",""
"html-button-response-esp","57","511312","0.0-11.0-0.23","6482","János imád tibarozni, ezért sokat tibarzik. Ők ritkán...","0","tibaroznak","[""tibaroznak"",""tibarzanak""]","tibaroznak","esp trial","11","true"
"html-button-response","58","514814","0.0-11.0-1.23","null","<p>A másik játékos ezt választotta: <b>tibaroznak</b>.</p><p>&#x2705;</p><p>A te válaszod és a másik játékos válasza <b>megegyeznek</b>.</p>","null","","","","feedback trial","",""
"html-button-response-esp","59","526184","0.0-11.0-0.24","10868","János imád trírozni, ezért sokat trírzik. Mi ritkán...","0","trírozunk","[""trírozunk"",""trírzunk""]","trírozunk","esp trial","11","true"
"html-button-response","60","529704","0.0-11.0-1.24","null","<p>A másik játékos ezt választotta: <b>trírozunk</b>.</p><p>&#x2705;</p><p>A te válaszod és a másik játékos válasza <b>megegyeznek</b>.</p>","null","","","","feedback trial","",""
"html-button-response-esp","61","536889","0.0-11.0-0.25","6682","János imád flivegezni, ezért sokat flivegzik. Ők ritkán...","1","flivegeznek","[""flivegzenek"",""flivegeznek""]","flivegeznek","esp trial","11","true"
"html-button-response","62","540404","0.0-11.0-1.25","null","<p>A másik játékos ezt választotta: <b>flivegeznek</b>.</p><p>&#x2705;</p><p>A te válaszod és a másik játékos válasza <b>megegyeznek</b>.</p>","null","","","","feedback trial","",""
"html-button-response-esp","63","546465","0.0-11.0-0.26","5559","János imád sztrajozni, ezért sokat sztrajlik. Ők ritkán...","1","sztrajoznak","[""sztrajlanak"",""sztrajoznak""]","sztrajlanak","esp trial","11","false"
"html-button-response","64","549968","0.0-11.0-1.26","null","<p>A másik játékos ezt választotta: <b>sztrajlanak</b>.</p><p>&#10060;</p><p>A válaszaitok <b>nem</b> egyeznek meg.</p>","null","","","","feedback trial","",""
"html-button-response-esp","65","557872","0.0-11.0-0.27","7402","János imád brivágozni, ezért sokat briváglik. Ők ritkán...","1","brivágoznak","[""briváglanak"",""brivágoznak""]","brivágoznak","esp trial","11","true"
"html-button-response","66","561382","0.0-11.0-1.27","null","<p>A másik játékos ezt választotta: <b>brivágoznak</b>.</p><p>&#x2705;</p><p>A te válaszod és a másik játékos válasza <b>megegyeznek</b>.</p>","null","","","","feedback trial","",""
"html-button-response-esp","67","569664","0.0-11.0-0.28","7773","János imád gatágozni, ezért sokat gatáglik. Mi ritkán...","0","gatágozunk","[""gatágozunk"",""gatáglunk""]","gatágozunk","esp trial","11","true"
"html-button-response","68","573179","0.0-11.0-1.28","null","<p>A másik játékos ezt választotta: <b>gatágozunk</b>.</p><p>&#x2705;</p><p>A te válaszod és a másik játékos válasza <b>megegyeznek</b>.</p>","null","","","","feedback trial","",""
"html-button-response-esp","69","582784","0.0-11.0-0.29","9104","János imád sponyozni, ezért sokat sponylik. Ők ritkán...","1","sponyoznak","[""sponylanak"",""sponyoznak""]","sponylanak","esp trial","11","false"
"html-button-response","70","586297","0.0-11.0-1.29","null","<p>A másik játékos ezt választotta: <b>sponylanak</b>.</p><p>&#10060;</p><p>A válaszaitok <b>nem</b> egyeznek meg.</p>","null","","","","feedback trial","",""
"html-button-response-esp","71","594424","0.0-11.0-0.30","7626","János imád pekedni, ezért sokat pekszik. Mi ritkán...","0","pekszünk","[""pekszünk"",""pekedünk""]","pekszünk","esp trial","11","true"
"html-button-response","72","597938","0.0-11.0-1.30","null","<p>A másik játékos ezt választotta: <b>pekszünk</b>.</p><p>&#x2705;</p><p>A te válaszod és a másik játékos válasza <b>megegyeznek</b>.</p>","null","","","","feedback trial","",""
"html-button-response-esp","73","608256","0.0-11.0-0.31","9802","János imád nágapodni, ezért sokat nágapszik. Ők ritkán...","0","nágapszanak","[""nágapszanak"",""nágapodnak""]","nágapodnak","esp trial","11","false"
"html-button-response","74","611765","0.0-11.0-1.31","null","<p>A másik játékos ezt választotta: <b>nágapodnak</b>.</p><p>&#10060;</p><p>A válaszaitok <b>nem</b> egyeznek meg.</p>","null","","","","feedback trial","",""
"html-button-response-esp","75","621487","0.0-11.0-0.32","9221","János imád flubokozni, ezért sokat fluboklik. Ti ritkán...","0","flubokoztok","[""flubokoztok"",""fluboklotok""]","flubokoztok","esp trial","11","true"
"html-button-response","76","624996","0.0-11.0-1.32","null","<p>A másik játékos ezt választotta: <b>flubokoztok</b>.</p><p>&#x2705;</p><p>A te válaszod és a másik játékos válasza <b>megegyeznek</b>.</p>","null","","","","feedback trial","",""
"html-button-response-esp","77","631463","0.0-11.0-0.33","5965","János imád spibamozni, ezért sokat spibamlik. Ők ritkán...","1","spibamoznak","[""spibamlanak"",""spibamoznak""]","spibamlanak","esp trial","11","false"
"html-button-response","78","634966","0.0-11.0-1.33","null","<p>A másik játékos ezt választotta: <b>spibamlanak</b>.</p><p>&#10060;</p><p>A válaszaitok <b>nem</b> egyeznek meg.</p>","null","","","","feedback trial","",""
"html-button-response-esp","79","641191","0.0-11.0-0.34","5725","János imád spöközni, ezért sokat spöklik. Mi ritkán...","0","spöklünk","[""spöklünk"",""spöközünk""]","spöklünk","esp trial","11","true"
"html-button-response","80","644699","0.0-11.0-1.34","null","<p>A másik játékos ezt választotta: <b>spöklünk</b>.</p><p>&#x2705;</p><p>A te válaszod és a másik játékos válasza <b>megegyeznek</b>.</p>","null","","","","feedback trial","",""
"html-button-response-esp","81","650407","0.0-11.0-0.35","5206","János imád tribejezni, ezért sokat tribejlik. Ti ritkán...","0","tribejeztek","[""tribejeztek"",""tribejletek""]","tribejeztek","esp trial","11","true"
"html-button-response","82","653910","0.0-11.0-1.35","null","<p>A másik játékos ezt választotta: <b>tribejeztek</b>.</p><p>&#x2705;</p><p>A te válaszod és a másik játékos válasza <b>megegyeznek</b>.</p>","null","","","","feedback trial","",""
"html-button-response-esp","83","660967","0.0-11.0-0.36","6556","János imád tágarozni, ezért sokat tágarzik. Mi ritkán...","1","tágarzunk","[""tágarozunk"",""tágarzunk""]","tágarozunk","esp trial","11","false"
"html-button-response","84","664473","0.0-11.0-1.36","null","<p>A másik játékos ezt választotta: <b>tágarozunk</b>.</p><p>&#10060;</p><p>A válaszaitok <b>nem</b> egyeznek meg.</p>","null","","","","feedback trial","",""
"html-button-response-esp","85","670430","0.0-11.0-0.37","5456","János imád frésezni, ezért sokat fréslik. Mi ritkán...","1","fréslünk","[""frésezünk"",""fréslünk""]","fréslünk","esp trial","11","true"
"html-button-response","86","673932","0.0-11.0-1.37","null","<p>A másik játékos ezt választotta: <b>fréslünk</b>.</p><p>&#x2705;</p><p>A te válaszod és a másik játékos válasza <b>megegyeznek</b>.</p>","null","","","","feedback trial","",""
"html-button-response-esp","87","681815","0.0-11.0-0.38","7381","János imád brivepedni, ezért sokat brivepszik. Mi ritkán...","0","brivepedünk","[""brivepedünk"",""brivepszünk""]","brivepszünk","esp trial","11","false"
"html-button-response","88","685328","0.0-11.0-1.38","null","<p>A másik játékos ezt választotta: <b>brivepszünk</b>.</p><p>&#10060;</p><p>A válaszaitok <b>nem</b> egyeznek meg.</p>","null","","","","feedback trial","",""
"html-button-response-esp","89","691438","0.0-11.0-0.39","5603","János imád lírozni, ezért sokat lírlik. Ők ritkán...","1","líroznak","[""lírlanak"",""líroznak""]","líroznak","esp trial","11","true"
"html-button-response","90","694952","0.0-11.0-1.39","null","<p>A másik játékos ezt választotta: <b>líroznak</b>.</p><p>&#x2705;</p><p>A te válaszod és a másik játékos válasza <b>megegyeznek</b>.</p>","null","","","","feedback trial","",""
"html-button-response-esp","91","702062","0.0-11.0-0.40","6608","János imád livényezni, ezért sokat livénylik. Mi ritkán...","0","livénylünk","[""livénylünk"",""livényezünk""]","livénylünk","esp trial","11","true"
"html-button-response","92","705576","0.0-11.0-1.40","null","<p>A másik játékos ezt választotta: <b>livénylünk</b>.</p><p>&#x2705;</p><p>A te válaszod és a másik játékos válasza <b>megegyeznek</b>.</p>","null","","","","feedback trial","",""
"html-button-response-esp","93","711543","0.0-11.0-0.41","5464","János imád pehégedni, ezért sokat pehégszik. Ti ritkán...","0","pehégszetek","[""pehégszetek"",""pehégedtek""]","pehégszetek","esp trial","11","true"
"html-button-response","94","715058","0.0-11.0-1.41","null","<p>A másik játékos ezt választotta: <b>pehégszetek</b>.</p><p>&#x2705;</p><p>A te válaszod és a másik játékos válasza <b>megegyeznek</b>.</p>","null","","","","feedback trial","",""
"html-button-response-esp","95","724942","0.0-11.0-0.42","9382","János imád hákodni, ezért sokat hákszik. Ők ritkán...","1","hákodnak","[""hákszanak"",""hákodnak""]","hákodnak","esp trial","11","true"
"html-button-response","96","728455","0.0-11.0-1.42","null","<p>A másik játékos ezt választotta: <b>hákodnak</b>.</p><p>&#x2705;</p><p>A te válaszod és a másik játékos válasza <b>megegyeznek</b>.</p>","null","","","","feedback trial","",""
"html-button-response-esp","97","734205","0.0-11.0-0.43","5250","János imád míjozni, ezért sokat míjzik. Mi ritkán...","0","míjzunk","[""míjzunk"",""míjozunk""]","míjozunk","esp trial","11","false"
"html-button-response","98","737708","0.0-11.0-1.43","null","<p>A másik játékos ezt választotta: <b>míjozunk</b>.</p><p>&#10060;</p><p>A válaszaitok <b>nem</b> egyeznek meg.</p>","null","","","","feedback trial","",""
"html-button-response-esp","99","744917","0.0-11.0-0.44","6708","János imád trűnyözni, ezért sokat trűnylik. Ők ritkán...","1","trűnyöznek","[""trűnylenek"",""trűnyöznek""]","trűnyöznek","esp trial","11","true"
"html-button-response","100","748438","0.0-11.0-1.44","null","<p>A másik játékos ezt választotta: <b>trűnyöznek</b>.</p><p>&#x2705;</p><p>A te válaszod és a másik játékos válasza <b>megegyeznek</b>.</p>","null","","","","feedback trial","",""
"html-button-response-esp","101","754358","0.0-11.0-0.45","5417","János imád brilegezni, ezért sokat brilegzik. Mi ritkán...","0","brilegzünk","[""brilegzünk"",""brilegezünk""]","brilegezünk","esp trial","11","false"
"html-button-response","102","757872","0.0-11.0-1.45","null","<p>A másik játékos ezt választotta: <b>brilegezünk</b>.</p><p>&#10060;</p><p>A válaszaitok <b>nem</b> egyeznek meg.</p>","null","","","","feedback trial","",""
"html-button-response-esp","103","763813","0.0-11.0-0.46","5439","János imád spalározni, ezért sokat spalárzik. Ők ritkán...","1","spalároznak","[""spalárzanak"",""spalároznak""]","spalároznak","esp trial","11","true"
"html-button-response","104","767329","0.0-11.0-1.46","null","<p>A másik játékos ezt választotta: <b>spalároznak</b>.</p><p>&#x2705;</p><p>A te válaszod és a másik játékos válasza <b>megegyeznek</b>.</p>","null","","","","feedback trial","",""
"html-button-response-esp","105","774845","0.0-11.0-0.47","7014","János imád brüszözni, ezért sokat brüszlik. Ti ritkán...","0","brüszöztök","[""brüszöztök"",""brüszlötök""]","brüszöztök","esp trial","11","true"
"html-button-response","106","778346","0.0-11.0-1.47","null","<p>A másik játékos ezt választotta: <b>brüszöztök</b>.</p><p>&#x2705;</p><p>A te válaszod és a másik játékos válasza <b>megegyeznek</b>.</p>","null","","","","feedback trial","",""
"html-button-response-esp","107","786302","0.0-11.0-0.48","7452","János imád drivegezni, ezért sokat drivegzik. Ti ritkán...","0","drivegeztek","[""drivegeztek"",""drivegzetek""]","drivegeztek","esp trial","11","true"
"html-button-response","108","789814","0.0-11.0-1.48","null","<p>A másik játékos ezt választotta: <b>drivegeztek</b>.</p><p>&#x2705;</p><p>A te válaszod és a másik játékos válasza <b>megegyeznek</b>.</p>","null","","","","feedback trial","",""
"html-button-response-esp","109","799005","0.0-11.0-0.49","8689","János imád sprigozni, ezért sokat sprigzik. Ti ritkán...","1","sprigoztok","[""sprigzotok"",""sprigoztok""]","sprigoztok","esp trial","11","true"
"html-button-response","110","802506","0.0-11.0-1.49","null","<p>A másik játékos ezt választotta: <b>sprigoztok</b>.</p><p>&#x2705;</p><p>A te válaszod és a másik játékos válasza <b>megegyeznek</b>.</p>","null","","","","feedback trial","",""
"html-button-response-esp","111","808781","0.0-11.0-0.50","5773","János imád galározni, ezért sokat galárzik. Ők ritkán...","0","galároznak","[""galároznak"",""galárzanak""]","galároznak","esp trial","11","true"
"html-button-response","112","812284","0.0-11.0-1.50","null","<p>A másik játékos ezt választotta: <b>galároznak</b>.</p><p>&#x2705;</p><p>A te válaszod és a másik játékos válasza <b>megegyeznek</b>.</p>","null","","","","feedback trial","",""
"html-button-response-esp","113","822478","0.0-11.0-0.51","9692","János imád gibemezni, ezért sokat gibemlik. Mi ritkán...","0","gibemezünk","[""gibemezünk"",""gibemlünk""]","gibemlünk","esp trial","11","false"
"html-button-response","114","825985","0.0-11.0-1.51","null","<p>A másik játékos ezt választotta: <b>gibemlünk</b>.</p><p>&#10060;</p><p>A válaszaitok <b>nem</b> egyeznek meg.</p>","null","","","","feedback trial","",""
"html-button-response-esp","115","832341","0.0-11.0-0.52","5854","János imád drojozni, ezért sokat drojzik. Mi ritkán...","0","drojozunk","[""drojozunk"",""drojzunk""]","drojozunk","esp trial","11","true"
"html-button-response","116","835856","0.0-11.0-1.52","null","<p>A másik játékos ezt választotta: <b>drojozunk</b>.</p><p>&#x2705;</p><p>A te válaszod és a másik játékos válasza <b>megegyeznek</b>.</p>","null","","","","feedback trial","",""
"html-button-response-esp","117","843285","0.0-11.0-0.53","6927","János imád gyivepedni, ezért sokat gyivepszik. Ők ritkán...","1","gyivepednek","[""gyivepszenek"",""gyivepednek""]","gyivepednek","esp trial","11","true"
"html-button-response","118","846787","0.0-11.0-1.53","null","<p>A másik játékos ezt választotta: <b>gyivepednek</b>.</p><p>&#x2705;</p><p>A te válaszod és a másik játékos válasza <b>megegyeznek</b>.</p>","null","","","","feedback trial","",""
"html-button-response","119","859668","0.0-12.0","12379","<p>A közös játék most véget ért.</p><p>Mielőtt eláruljuk a végső pontszámodat, arra kérlek, játszd a szóválasztós játékot néhány percig egyedül is.</p><p>A feladatod ugyanaz lesz, választani két lehetőség közül.</p><p>Most viszont egyedül kell döntened, hogy te melyiket választanád.</p>","0","","","","","",""
"html-button-response-clever","120","869109","0.0-13.0-0.0","8939","János imád flerékedni, ezért sokat flerékszik. Mi ritkán...","0","flerékszünk","[""flerékszünk"",""flerékedünk""]","","posttest trial","1",""
"html-button-response-clever","121","877884","0.0-13.0-0.1","8266","János imád plibozni, ezért sokat plibzik. Ti ritkán...","0","pliboztok","[""pliboztok"",""plibzotok""]","","posttest trial","1",""
"html-button-response-clever","122","895588","0.0-13.0-0.2","17201","János imád géregezni, ezért sokat géreglik. Ti ritkán...","1","géregletek","[""géregeztek"",""géregletek""]","","posttest trial","1",""
"html-button-response-clever","123","907589","0.0-13.0-0.3","11493","János imád sűjözni, ezért sokat sűjlik. Mi ritkán...","0","sűjlünk","[""sűjlünk"",""sűjözünk""]","","posttest trial","1",""
"html-button-response-clever","124","914988","0.0-13.0-0.4","6899","János imád vehékedni, ezért sokat vehékszik. Mi ritkán...","0","vehékedünk","[""vehékedünk"",""vehékszünk""]","","posttest trial","1",""
"html-button-response-clever","125","923315","0.0-13.0-0.5","7811","János imád trálakozni, ezért sokat trálaklik. Ők ritkán...","0","trálaklanak","[""trálaklanak"",""trálakoznak""]","","posttest trial","1",""
"html-button-response-clever","126","930083","0.0-13.0-0.6","6267","János imád bötőrözni, ezért sokat bötőrzik. Mi ritkán...","1","bötőrzünk","[""bötőrözünk"",""bötőrzünk""]","","posttest trial","1",""
"html-button-response-clever","127","935908","0.0-13.0-0.7","5323","János imád vihapodni, ezért sokat vihapszik. Mi ritkán...","0","vihapszunk","[""vihapszunk"",""vihapodunk""]","","posttest trial","1",""
"html-button-response-clever","128","941643","0.0-13.0-0.8","5231","János imád flodozni, ezért sokat flodlik. Ti ritkán...","0","flodoztok","[""flodoztok"",""flodlotok""]","","posttest trial","1",""
"html-button-response-clever","129","952171","0.0-13.0-0.9","10013","János imád brűközni, ezért sokat brűklik. Ti ritkán...","0","brűköztök","[""brűköztök"",""brűklötök""]","","posttest trial","1",""
"html-button-response-clever","130","962460","0.0-13.0-0.10","9786","János imád trálodni, ezért sokat trálszik. Mi ritkán...","1","trálodunk","[""trálszunk"",""trálodunk""]","","posttest trial","1",""
"html-button-response-clever","131","971323","0.0-13.0-0.11","8361","János imád nyülöközni, ezért sokat nyülöklik. Ők ritkán...","1","nyülöklenek","[""nyülököznek"",""nyülöklenek""]","","posttest trial","1",""
"html-button-response-clever","132","979308","0.0-13.0-0.12","7482","János imád klihasozni, ezért sokat klihaslik. Ti ritkán...","0","klihaslotok","[""klihaslotok"",""klihasoztok""]","","posttest trial","1",""
"html-button-response-clever","133","989242","0.0-13.0-0.13","9432","János imád döjözni, ezért sokat döjlik. Ők ritkán...","1","döjöznek","[""döjlenek"",""döjöznek""]","","posttest trial","1",""
"html-button-response-clever","134","993955","0.0-13.0-0.14","4211","János imád bügözni, ezért sokat bügzik. Ők ritkán...","1","bügöznek","[""bügzenek"",""bügöznek""]","","posttest trial","1",""
"html-button-response-clever","135","1000531","0.0-13.0-0.15","6075","János imád ribegedni, ezért sokat ribegszik. Ti ritkán...","0","ribegszetek","[""ribegszetek"",""ribegedtek""]","","posttest trial","1",""
"html-button-response-clever","136","1006212","0.0-13.0-0.16","5178","János imád bejezni, ezért sokat bejzik. Mi ritkán...","0","bejezünk","[""bejezünk"",""bejzünk""]","","posttest trial","1",""
"html-button-response-clever","137","1013715","0.0-13.0-0.17","6989","János imád sprebezni, ezért sokat sprebzik. Ők ritkán...","1","sprebeznek","[""sprebzenek"",""sprebeznek""]","","posttest trial","1",""
"html-button-response-clever","138","1021674","0.0-13.0-0.18","7454","János imád spuborozni, ezért sokat spuborzik. Ők ritkán...","1","spuboroznak","[""spuborzanak"",""spuboroznak""]","","posttest trial","1",""
"html-button-response-clever","139","1029283","0.0-13.0-0.19","7105","János imád klűmözni, ezért sokat klűmlik. Ti ritkán...","0","klűmöztök","[""klűmöztök"",""klűmlötök""]","","posttest trial","1",""
"html-button-response-clever","140","1045003","0.0-13.0-0.20","15219","János imád jurozni, ezért sokat jurlik. Mi ritkán...","0","jurlunk","[""jurlunk"",""jurozunk""]","","posttest trial","1",""
"html-button-response-clever","141","1057282","0.0-13.0-0.21","11778","János imád bresezni, ezért sokat breslik. Ők ritkán...","0","breseznek","[""breseznek"",""breslenek""]","","posttest trial","1",""
"html-button-response-clever","142","1064010","0.0-13.0-0.22","6227","János imád dibágozni, ezért sokat dibáglik. Ti ritkán...","0","dibágoztok","[""dibágoztok"",""dibáglotok""]","","posttest trial","1",""
"html-button-response-clever","143","1069786","0.0-13.0-0.23","5275","János imád nyizozni, ezért sokat nyizlik. Mi ritkán...","0","nyizozunk","[""nyizozunk"",""nyizlunk""]","","posttest trial","1",""
"html-button-response-clever","144","1073986","0.0-13.0-0.24","3699","János imád tögözni, ezért sokat töglik. Ők ritkán...","1","tögöznek","[""töglenek"",""tögöznek""]","","posttest trial","1",""
"html-button-response-clever","145","1083930","0.0-13.0-0.25","9443","János imád metégedni, ezért sokat metégszik. Ők ritkán...","1","metégednek","[""metégszenek"",""metégednek""]","","posttest trial","1",""
"html-button-response-clever","146","1089330","0.0-13.0-0.26","4899","János imád hubonyozni, ezért sokat hubonylik. Ti ritkán...","1","hubonyoztok","[""hubonylotok"",""hubonyoztok""]","","posttest trial","1",""
"html-button-response-clever","147","1096450","0.0-13.0-0.27","6603","János imád kláragodni, ezért sokat kláragszik. Ti ritkán...","0","kláragodtok","[""kláragodtok"",""kláragszotok""]","","posttest trial","1",""
"html-button-response-clever","148","1104010","0.0-13.0-0.28","7048","János imád hiragozni, ezért sokat hiragzik. Ők ritkán...","0","hiragzanak","[""hiragzanak"",""hiragoznak""]","","posttest trial","1",""
"html-button-response-clever","149","1109481","0.0-13.0-0.29","4955","János imád nivározni, ezért sokat nivárzik. Ti ritkán...","0","nivároztok","[""nivároztok"",""nivárzotok""]","","posttest trial","1",""
"html-button-response-clever","150","1116065","0.0-13.0-0.30","6080","János imád dralágozni, ezért sokat dralágzik. Mi ritkán...","0","dralágzunk","[""dralágzunk"",""dralágozunk""]","","posttest trial","1",""
"html-button-response-clever","151","1121065","0.0-13.0-0.31","4499","János imád vilesezni, ezért sokat vileslik. Mi ritkán...","1","vilesezünk","[""vileslünk"",""vilesezünk""]","","posttest trial","1",""
"html-button-response-clever","152","1129097","0.0-13.0-0.32","7529","János imád klégezni, ezért sokat kléglik. Mi ritkán...","1","kléglünk","[""klégezünk"",""kléglünk""]","","posttest trial","1",""
"html-button-response-clever","153","1135257","0.0-13.0-0.33","5659","János imád frorozni, ezért sokat frorlik. Ők ritkán...","0","froroznak","[""froroznak"",""frorlanak""]","","posttest trial","1",""
"html-button-response-clever","154","1141505","0.0-13.0-0.34","5744","János imád frélegezni, ezért sokat frélegzik. Mi ritkán...","1","frélegzünk","[""frélegezünk"",""frélegzünk""]","","posttest trial","1",""
"html-button-response-clever","155","1149697","0.0-13.0-0.35","7690","János imád nurokozni, ezért sokat nuroklik. Mi ritkán...","0","nuroklunk","[""nuroklunk"",""nurokozunk""]","","posttest trial","1",""
"html-button-response-clever","156","1156617","0.0-13.0-0.36","6418","János imád sztredezni, ezért sokat sztredlik. Ti ritkán...","1","sztredeztek","[""sztredletek"",""sztredeztek""]","","posttest trial","1",""
"html-button-response-clever","157","1165025","0.0-13.0-0.37","7907","János imád bribékedni, ezért sokat bribékszik. Ti ritkán...","1","bribékedtek","[""bribékszetek"",""bribékedtek""]","","posttest trial","1",""
"html-button-response-clever","158","1170816","0.0-13.0-0.38","5291","János imád frinyozni, ezért sokat frinylik. Mi ritkán...","0","frinylunk","[""frinylunk"",""frinyozunk""]","","posttest trial","1",""
"html-button-response-clever","159","1178808","0.0-13.0-0.39","7490","János imád spivejezni, ezért sokat spivejlik. Ők ritkán...","1","spivejeznek","[""spivejlenek"",""spivejeznek""]","","posttest trial","1",""
"html-button-response-clever","160","1185160","0.0-13.0-0.40","5836","János imád prihegedni, ezért sokat prihegszik. Ők ritkán...","1","prihegednek","[""prihegszenek"",""prihegednek""]","","posttest trial","1",""
"html-button-response-clever","161","1190800","0.0-13.0-0.41","5137","János imád trukodni, ezért sokat trukszik. Ti ritkán...","0","trukodtok","[""trukodtok"",""trukszotok""]","","posttest trial","1",""
"html-button-response-clever","162","1199009","0.0-13.0-0.42","7707","János imád prugorozni, ezért sokat prugorzik. Ti ritkán...","1","prugoroztok","[""prugorzotok"",""prugoroztok""]","","posttest trial","1",""
"html-button-response-clever","163","1204688","0.0-13.0-0.43","5178","János imád gihamozni, ezért sokat gihamlik. Ők ritkán...","0","gihamoznak","[""gihamoznak"",""gihamlanak""]","","posttest trial","1",""
"html-button-response-clever","164","1210224","0.0-13.0-0.44","5034","János imád nyádozni, ezért sokat nyádlik. Ők ritkán...","1","nyádlanak","[""nyádoznak"",""nyádlanak""]","","posttest trial","1",""
"html-button-response-clever","165","1217056","0.0-13.0-0.45","6329","János imád frirozni, ezért sokat frirzik. Mi ritkán...","1","frirzunk","[""frirozunk"",""frirzunk""]","","posttest trial","1",""
"html-button-response-clever","166","1225047","0.0-13.0-0.46","7491","János imád flátozni, ezért sokat flátlik. Ti ritkán...","0","flátoztok","[""flátoztok"",""flátlotok""]","","posttest trial","1",""
"html-button-response-clever","167","1234623","0.0-13.0-0.47","9074","János imád flugonyozni, ezért sokat flugonylik. Ők ritkán...","0","flugonyoznak","[""flugonyoznak"",""flugonylanak""]","","posttest trial","1",""
"html-button-response-clever","168","1240903","0.0-13.0-0.48","5778","János imád játozni, ezért sokat játlik. Mi ritkán...","0","játlunk","[""játlunk"",""játozunk""]","","posttest trial","1",""
"html-button-response-clever","169","1247127","0.0-13.0-0.49","5709","János imád brürözni, ezért sokat brürzik. Ők ritkán...","1","brüröznek","[""brürzenek"",""brüröznek""]","","posttest trial","1",""
"html-button-response-clever","170","1255039","0.0-13.0-0.50","7403","János imád trilekedni, ezért sokat trilekszik. Ti ritkán...","1","trilekedtek","[""trilekszetek"",""trilekedtek""]","","posttest trial","1",""
"html-button-response-clever","171","1260088","0.0-13.0-0.51","4546","János imád nyöbözni, ezért sokat nyöbzik. Ők ritkán...","1","nyöböznek","[""nyöbzenek"",""nyöböznek""]","","posttest trial","1",""
"html-button-response-clever","172","1267479","0.0-13.0-0.52","6891","János imád pibegezni, ezért sokat pibegzik. Ők ritkán...","0","pibegeznek","[""pibegeznek"",""pibegzenek""]","","posttest trial","1",""
"html-button-response-clever","173","1273679","0.0-13.0-0.53","5697","János imád bribasozni, ezért sokat bribaslik. Ők ritkán...","1","bribasoznak","[""bribaslanak"",""bribasoznak""]","","posttest trial","1",""
"html-button-response","174","1285583","0.0-14.0","11402","<p> Vége a játéknak. A teljes pontszámod 39/54.</p><p> Szép munka! &#128526;&#128526;&#128526;</p><p>A Befejezés gomb megnyomása után bezárhatod a böngészőablakot.</p>","0","","","","","",""
"html-keyboard-response","175","1291090","0.0-15.0","null","<div class=""message"">
         <p>Egy kis türelmet kérünk, amíg elmentjük az adatokat...</p>
         </div>","null","","","","","",""
