"trial_type","trial_index","time_elapsed","internal_node_id","rt","stimulus","response","response_string","choices","esp_response","trial_kind","list_number","esp_match"
"pavlovia","0","728","0.0-0.0","","","","","","","","",""
"html-button-response","1","30505","0.0-1.0","28343","<p>Kedves Résztvevő! A Budapesti Műszaki és Gazdaságtudományi Egyetem Kognitív Tudományi Tanszékének kutatásában való részvételed kérjük. A kutatásban azt vizsgáljuk, hogy a magyar anyanyelvűek hogyan használnak bizonyos szóalakokat, és hogy milyen képük van arról, hogy mások hogyan használják, hogyan képzik a szavakat. Ez hozzásegít bennünket ahhoz, hogy jobban megértsük, hogyan dolgozza fel és tárolja a nyelvet az emberi agy, és hogyan működnek, hogyan változnak egy adott közösség nyelvi konvenciói.</p><p>A vizsgálat egy rövid számítógépes feladatból fog állni. A kutatásban való részvétel önkéntes, a részvételi szándék bármikor visszavonható. A résztvevők eredményeit név nélkül kezeljük, így nem beazonosíthatók az adatok feldolgozása során. Minden személyes adatot az EU általános adatvédelmi rendeletének (GDPR) megfelelően kezelünk és legfeljebb öt éven belül megsemmisítünk. A vizsgálat jellemzően húsz percet vesz igénybe.</p><p>Kutatásvezető:</p><p>Dr. Rácz Péter, tudományos munkatárs, BME KTT</p><p>e-mail: racz.peter.marton@ttk.bme.hu</p>","0","","","","","",""
"html-button-response","2","64855","0.0-2.0","33840","<p>A kísérletben szavakat fogsz látni. Ezek között lesznek olyanok, amelyeket ismersz, de előfordulhatnak olyanok is, amelyeket nem ismersz, sőt, vannak köztük kitalált szavak is. Minden szónál látni fogsz toldalékolt alakokat. A te feladatod az lesz, hogy minden szóhoz kiválaszd azt a toldalékolt alakot, amely a te számodra ismerősebben, természetesebben hangzik. Rossz válaszok nincsenek, mert van olyan, hogy különböző embereknek más és más szó tűnik jobb választásnak. A választ úgy tudod majd kiválasztani, ha rákattintasz.</p><p>Ebben a szóválasztós játékban egy másik játékossal együtt veszel majd részt. A másik játékos is minden esetben azok közül a lehetőségek közül válogathat, mint te. Kettőtök feladata az, hogy ugyanazt a lehetőséget válasszátok minden esetben. Ahhoz, hogy ez sikerüljön, neked figyelned kell arra, hogy a másik játékos milyen válaszokat ad, és ennek alapján meg kell tippelned, hogyan választ legközelebb. Ha eltalálod, akkor pontot kapsz.</p>","0","","","","","",""
"html-button-response","3","99474","0.0-3.0","34117","<p>Kérjük, olvasd el az alábbi nyilatkozatot, és amennyiben egyetértesz vele, nyomj a Beleegyezés gombra!</p><p>Kijelentem, hogy magyar anyanyelvű személyként önként veszek részt a BME KTT kísérletében. A kutatás céljával és folyamatával kapcsolatban elegendő tájékoztatást kaptam, lehetőségem volt kérdések feltételére, és esetleges kérdéseimre megfelelő válaszokat kaptam. A tájékoztatás alapján elegendő mennyiségű információ áll a rendelkezésemre, hogy eldönthessem, részt kívánok-e venni a kutatásban.</p><p>Tisztában vagyok vele, hogy részvételi szándékomat és adataimat bármikor, indoklás nélkül visszavonhatom.</p><p>Értem és tudomásul veszem, hogy a kutatás tudományos célokat szolgál, és az általam szolgáltatott adatokat a BME kizárólag kutatási célból használja fel. Tudomásul veszem, hogy eredményeimet a többi résztvevő eredményeivel együtt kezelik, így egyéni teljesítményemről visszajelzést, szakvéleményt nem kapok.</p><p>Megértettem, hogy adataim kezelését illetően a BME az EU általános adatvédelmi rendelete (GDPR), a hatályos adatvédelmi törvény és a nemzetközi kutatás-etikai alapelvek szerint jár el. Eredményeim anonim módon kerülnek feldolgozásra, és a kutatás résztvevői az azonosításomra alkalmas adataimat harmadik félnek nem szolgáltatják ki. Engedélyezem a BME számára a jelen kutatásban felvett adataim feldolgozását és tárolását, beleértve azok későbbi kutatásokhoz való felhasználását is. Személyes adataim kezelésével kapcsolatban tájékoztatást kérhetek a kutatás résztvevőitől, az adatkezelés ellen tiltakozhatok, kérhetem személyes adataim helyesbítését, törlését vagy zárolását, valamint jogorvoslatért a Nemzeti Adatvédelmi és Információszabadság Hatósághoz fordulhatok.</p><p>Kijelentem, hogy a kutatásban való részvételem körülményeiről részletes tájékoztatást kaptam, és a feltételeket elfogadom.</p>","0","","","","","",""
"survey-text","4","112253","0.0-4.0","12276","","{""Q0"":""FWFZTF"",""Q1"":""férfi"",""Q2"":""2003"",""Q3"":""12""}","","","","","",""
"html-button-response","5","131723","0.0-5.0","18966","<p>Ebben a játékban szavakat kell toldalékolni.</p> <p>Minden körben mutatunk majd egy példamondatot, amiben lesz egy szó.</p> <p>Alatta jön egy második mondat, ezt a mondatot neked kell majd befejezni, ugyanezzel a szóval.</p> <p>Nem biztos, hogy a szó eleve ismerős lesz számodra!</p> <p>Minden mondathoz adunk két lehetőséget, ezeket balra és jobbra látod majd.</p> <p>A játék kb. negyedóráig-húsz percig tart.</p>","0","","","","","",""
"html-button-response","6","142917","0.0-6.0","10690","<p>Nézzünk egy példát!</p> <p>A példamondat: ""Ez itt egy blumbnyeg.""</p><p>Neked ezt a mondatot kell befejezned: ""Ott vagyunk a...""</p><p>A lehetőségek pedig ezek:</p>","0","","","","","",""
"html-button-response","7","149299","0.0-7.0","5871","<p>Nagyon jó.</p><p>Ezt a játékot nem egyedül fogod játszani, hanem egy másik játékossal.</p><p>Mielőtt továbblépünk, összekapcsolunk titeket egymással.</p><p>Ez igénybe vehet néhány másodpercet, amihez szíves türelmed kérjük.</p>","0","","","","","",""
"html-button-response","8","155027","0.0-8.0","null","<p>Csatlakozás a másik játékoshoz...</p>","null","","","","","",""
"html-button-response","9","157545","0.0-9.0","null","<p> Sikeres kapcsolódás!</p>","null","","","","","",""
"html-button-response","10","168065","0.0-10.0","null","<p>A következőkben ketten játsszátok a szóválasztós játékot.</p><p>A feladatotok az lesz, hogy minden körben <b>ugyanazt</b> a szót válasszátok.</p><p>Minden ilyen egyező válaszért pontot kaptok.</p><p>Próbáld meg kitalálni, mit választ a másik játékos!</p><p>Bármikor választhatsz, a körnek akkor van vége, ha mindketten döntöttetek.</p><p>Sok sikert!</p>","null","","","","","",""
"html-button-response-esp","11","174930","0.0-11.0-0.0","5921","Ez itt egy jorzég. Elneveztem a kutyámat...","0","jorzégnak","[""jorzégnak"",""jorzégnek""]","jorzégnek","esp trial","11","false"
"html-button-response","12","178457","0.0-11.0-1.0","null","<p>A másik játékos ezt választotta: <b>jorzégnek</b>.</p><p>&#10060;</p><p>A válaszaitok <b>nem</b> egyeznek meg.</p>","null","","","","feedback trial","",""
"html-button-response-esp","13","185320","0.0-11.0-0.1","4711","Ez itt egy vublet. Nincs is jobb egy jó...","1","vubletnél","[""vubletnál"",""vubletnél""]","vubletnél","esp trial","11","true"
"html-button-response","14","188835","0.0-11.0-1.1","null","<p>A másik játékos ezt választotta: <b>vubletnél</b>.</p><p>&#x2705;</p><p>A te válaszod és a másik játékos válasza <b>megegyeznek</b>.</p>","null","","","","feedback trial","",""
"html-button-response-esp","15","196866","0.0-11.0-0.2","7520","Ez itt egy gótem. Elneveztem a kutyámat...","1","gótemnek","[""gótemnak"",""gótemnek""]","gótemnek","esp trial","11","true"
"html-button-response","16","200383","0.0-11.0-1.2","null","<p>A másik játékos ezt választotta: <b>gótemnek</b>.</p><p>&#x2705;</p><p>A te válaszod és a másik játékos válasza <b>megegyeznek</b>.</p>","null","","","","feedback trial","",""
"html-button-response-esp","17","207244","0.0-11.0-0.3","5204","Ez itt egy trigenc. Elneveztem a kutyámat...","0","trigencnek","[""trigencnek"",""trigencnak""]","trigencnek","esp trial","11","true"
"html-button-response","18","210763","0.0-11.0-1.3","null","<p>A másik játékos ezt választotta: <b>trigencnek</b>.</p><p>&#x2705;</p><p>A te válaszod és a másik játékos válasza <b>megegyeznek</b>.</p>","null","","","","feedback trial","",""
"html-button-response-esp","19","223142","0.0-11.0-0.4","11865","Ez itt egy kábesz. Nincs is jobb egy jó...","0","kábesznél","[""kábesznél"",""kábesznál""]","kábesznél","esp trial","11","true"
"html-button-response","20","226656","0.0-11.0-1.4","null","<p>A másik játékos ezt választotta: <b>kábesznél</b>.</p><p>&#x2705;</p><p>A te válaszod és a másik játékos válasza <b>megegyeznek</b>.</p>","null","","","","feedback trial","",""
"html-button-response-esp","21","236033","0.0-11.0-0.5","8865","Ez itt egy sporzem. Elneveztem a kutyámat...","1","sporzemnek","[""sporzemnak"",""sporzemnek""]","sporzemnek","esp trial","11","true"
"html-button-response","22","239553","0.0-11.0-1.5","null","<p>A másik játékos ezt választotta: <b>sporzemnek</b>.</p><p>&#x2705;</p><p>A te válaszod és a másik játékos válasza <b>megegyeznek</b>.</p>","null","","","","feedback trial","",""
"html-button-response-esp","23","246415","0.0-11.0-0.6","5210","Ez itt egy dingec. Elneveztem a kutyámat...","1","dingecnek","[""dingecnak"",""dingecnek""]","dingecnek","esp trial","11","true"
"html-button-response","24","249937","0.0-11.0-1.6","null","<p>A másik játékos ezt választotta: <b>dingecnek</b>.</p><p>&#x2705;</p><p>A te válaszod és a másik játékos válasza <b>megegyeznek</b>.</p>","null","","","","feedback trial","",""
"html-button-response-esp","25","256799","0.0-11.0-0.7","2880","Ez itt egy sartely. Ott vagyunk a...","0","sartelyban","[""sartelyban"",""sartelyben""]","sartelyben","esp trial","11","false"
"html-button-response","26","260320","0.0-11.0-1.7","null","<p>A másik játékos ezt választotta: <b>sartelyben</b>.</p><p>&#10060;</p><p>A válaszaitok <b>nem</b> egyeznek meg.</p>","null","","","","feedback trial","",""
"html-button-response-esp","27","267193","0.0-11.0-0.8","4919","Ez itt egy navec. Ott vagyunk a...","1","navecban","[""navecben"",""navecban""]","navecben","esp trial","11","false"
"html-button-response","28","270714","0.0-11.0-1.8","null","<p>A másik játékos ezt választotta: <b>navecben</b>.</p><p>&#10060;</p><p>A válaszaitok <b>nem</b> egyeznek meg.</p>","null","","","","feedback trial","",""
"html-button-response-esp","29","277576","0.0-11.0-0.9","2699","Ez itt egy fádens. Elneveztem a kutyámat...","0","fádensnek","[""fádensnek"",""fádensnak""]","fádensnek","esp trial","11","true"
"html-button-response","30","281093","0.0-11.0-1.9","null","<p>A másik játékos ezt választotta: <b>fádensnek</b>.</p><p>&#x2705;</p><p>A te válaszod és a másik játékos válasza <b>megegyeznek</b>.</p>","null","","","","feedback trial","",""
"html-button-response-esp","31","287953","0.0-11.0-0.10","3153","Ez itt egy nyarcéj. Elneveztem a kutyámat...","1","nyarcéjnek","[""nyarcéjnak"",""nyarcéjnek""]","nyarcéjnak","esp trial","11","false"
"html-button-response","32","291469","0.0-11.0-1.10","null","<p>A másik játékos ezt választotta: <b>nyarcéjnak</b>.</p><p>&#10060;</p><p>A válaszaitok <b>nem</b> egyeznek meg.</p>","null","","","","feedback trial","",""
"html-button-response-esp","33","301575","0.0-11.0-0.11","9598","Ez itt egy buhény. Ott vagyunk a...","1","buhényben","[""buhényban"",""buhényben""]","buhényban","esp trial","11","false"
"html-button-response","34","305093","0.0-11.0-1.11","null","<p>A másik játékos ezt választotta: <b>buhényban</b>.</p><p>&#10060;</p><p>A válaszaitok <b>nem</b> egyeznek meg.</p>","null","","","","feedback trial","",""
"html-button-response-esp","35","317243","0.0-11.0-0.12","11641","Ez itt egy zsopéd. Ott vagyunk a...","1","zsopédben","[""zsopédban"",""zsopédben""]","zsopédban","esp trial","11","false"
"html-button-response","36","320745","0.0-11.0-1.12","null","<p>A másik játékos ezt választotta: <b>zsopédban</b>.</p><p>&#10060;</p><p>A válaszaitok <b>nem</b> egyeznek meg.</p>","null","","","","feedback trial","",""
"html-button-response-esp","37","327617","0.0-11.0-0.13","3222","Ez itt egy ronvet. Elneveztem a kutyámat...","1","ronvetnek","[""ronvetnak"",""ronvetnek""]","ronvetnek","esp trial","11","true"
"html-button-response","38","331140","0.0-11.0-1.13","null","<p>A másik játékos ezt választotta: <b>ronvetnek</b>.</p><p>&#x2705;</p><p>A te válaszod és a másik játékos válasza <b>megegyeznek</b>.</p>","null","","","","feedback trial","",""
"html-button-response-esp","39","338010","0.0-11.0-0.14","3993","Ez itt egy trapszegy. Nincs is jobb egy jó...","0","trapszegynél","[""trapszegynél"",""trapszegynál""]","trapszegynél","esp trial","11","true"
"html-button-response","40","341532","0.0-11.0-1.14","null","<p>A másik játékos ezt választotta: <b>trapszegynél</b>.</p><p>&#x2705;</p><p>A te válaszod és a másik játékos válasza <b>megegyeznek</b>.</p>","null","","","","feedback trial","",""
"html-button-response-esp","41","350605","0.0-11.0-0.15","8563","Ez itt egy ikszert. Ott vagyunk a...","0","ikszertben","[""ikszertben"",""ikszertban""]","ikszertben","esp trial","11","true"
"html-button-response","42","354111","0.0-11.0-1.15","null","<p>A másik játékos ezt választotta: <b>ikszertben</b>.</p><p>&#x2705;</p><p>A te válaszod és a másik játékos válasza <b>megegyeznek</b>.</p>","null","","","","feedback trial","",""
"html-button-response-esp","43","362887","0.0-11.0-0.16","8267","Ez itt egy tranék. Ott vagyunk a...","1","tranékban","[""tranékben"",""tranékban""]","tranékban","esp trial","11","true"
"html-button-response","44","366403","0.0-11.0-1.16","null","<p>A másik játékos ezt választotta: <b>tranékban</b>.</p><p>&#x2705;</p><p>A te válaszod és a másik játékos válasza <b>megegyeznek</b>.</p>","null","","","","feedback trial","",""
"html-button-response-esp","45","376605","0.0-11.0-0.17","9691","Ez itt egy júder. Elneveztem a kutyámat...","0","júdernek","[""júdernek"",""júdernak""]","júdernek","esp trial","11","true"
"html-button-response","46","380119","0.0-11.0-1.17","null","<p>A másik játékos ezt választotta: <b>júdernek</b>.</p><p>&#x2705;</p><p>A te válaszod és a másik játékos válasza <b>megegyeznek</b>.</p>","null","","","","feedback trial","",""
"html-button-response-esp","47","386989","0.0-11.0-0.18","4008","Ez itt egy szihét. Elneveztem a kutyámat...","0","szihétnek","[""szihétnek"",""szihétnak""]","szihétnek","esp trial","11","true"
"html-button-response","48","390509","0.0-11.0-1.18","null","<p>A másik játékos ezt választotta: <b>szihétnek</b>.</p><p>&#x2705;</p><p>A te válaszod és a másik játékos válasza <b>megegyeznek</b>.</p>","null","","","","feedback trial","",""
"html-button-response-esp","49","397985","0.0-11.0-0.19","6967","Ez itt egy vodép. Elneveztem a kutyámat...","0","vodépnek","[""vodépnek"",""vodépnak""]","vodépnek","esp trial","11","true"
"html-button-response","50","401507","0.0-11.0-1.19","null","<p>A másik játékos ezt választotta: <b>vodépnek</b>.</p><p>&#x2705;</p><p>A te válaszod és a másik játékos válasza <b>megegyeznek</b>.</p>","null","","","","feedback trial","",""
"html-button-response-esp","51","409533","0.0-11.0-0.20","7515","Ez itt egy jábéz. Ott vagyunk a...","1","jábézban","[""jábézben"",""jábézban""]","jábézban","esp trial","11","true"
"html-button-response","52","413055","0.0-11.0-1.20","null","<p>A másik játékos ezt választotta: <b>jábézban</b>.</p><p>&#x2705;</p><p>A te válaszod és a másik játékos válasza <b>megegyeznek</b>.</p>","null","","","","feedback trial","",""
"html-button-response-esp","53","419923","0.0-11.0-0.21","3785","Ez itt egy fincek. Nincs is jobb egy jó...","1","finceknél","[""finceknál"",""finceknél""]","finceknél","esp trial","11","true"
"html-button-response","54","423449","0.0-11.0-1.21","null","<p>A másik játékos ezt választotta: <b>finceknél</b>.</p><p>&#x2705;</p><p>A te válaszod és a másik játékos válasza <b>megegyeznek</b>.</p>","null","","","","feedback trial","",""
"html-button-response-esp","55","430321","0.0-11.0-0.22","4582","Ez itt egy hivép. Ott vagyunk a...","0","hivépben","[""hivépben"",""hivépban""]","hivépben","esp trial","11","true"
"html-button-response","56","433843","0.0-11.0-1.22","null","<p>A másik játékos ezt választotta: <b>hivépben</b>.</p><p>&#x2705;</p><p>A te válaszod és a másik játékos válasza <b>megegyeznek</b>.</p>","null","","","","feedback trial","",""
"html-button-response-esp","57","441851","0.0-11.0-0.23","7498","Ez itt egy sprízem. Nincs is jobb egy jó...","1","sprízemnél","[""sprízemnál"",""sprízemnél""]","sprízemnél","esp trial","11","true"
"html-button-response","58","445375","0.0-11.0-1.23","null","<p>A másik játékos ezt választotta: <b>sprízemnél</b>.</p><p>&#x2705;</p><p>A te válaszod és a másik játékos válasza <b>megegyeznek</b>.</p>","null","","","","feedback trial","",""
"html-button-response-esp","59","452235","0.0-11.0-0.24","3501","Ez itt egy giheszt. Elneveztem a kutyámat...","0","gihesztnek","[""gihesztnek"",""gihesztnak""]","gihesztnek","esp trial","11","true"
"html-button-response","60","455748","0.0-11.0-1.24","null","<p>A másik játékos ezt választotta: <b>gihesztnek</b>.</p><p>&#x2705;</p><p>A te válaszod és a másik játékos válasza <b>megegyeznek</b>.</p>","null","","","","feedback trial","",""
"html-button-response-esp","61","465741","0.0-11.0-0.25","9485","Ez itt egy tránély. Elneveztem a kutyámat...","0","tránélynek","[""tránélynek"",""tránélynak""]","tránélynak","esp trial","11","false"
"html-button-response","62","469263","0.0-11.0-1.25","null","<p>A másik játékos ezt választotta: <b>tránélynak</b>.</p><p>&#10060;</p><p>A válaszaitok <b>nem</b> egyeznek meg.</p>","null","","","","feedback trial","",""
"html-button-response-esp","63","476791","0.0-11.0-0.26","7017","Ez itt egy brotes. Ott vagyunk a...","1","brotesben","[""brotesban"",""brotesben""]","brotesban","esp trial","11","false"
"html-button-response","64","480312","0.0-11.0-1.26","null","<p>A másik játékos ezt választotta: <b>brotesban</b>.</p><p>&#10060;</p><p>A válaszaitok <b>nem</b> egyeznek meg.</p>","null","","","","feedback trial","",""
"html-button-response-esp","65","489285","0.0-11.0-0.27","8465","Ez itt egy prately. Elneveztem a kutyámat...","0","pratelynek","[""pratelynek"",""pratelynak""]","pratelynek","esp trial","11","true"
"html-button-response","66","492806","0.0-11.0-1.27","null","<p>A másik játékos ezt választotta: <b>pratelynek</b>.</p><p>&#x2705;</p><p>A te válaszod és a másik játékos válasza <b>megegyeznek</b>.</p>","null","","","","feedback trial","",""
"html-button-response-esp","67","499667","0.0-11.0-0.28","4094","Ez itt egy matéz. Ott vagyunk a...","1","matézban","[""matézben"",""matézban""]","matézban","esp trial","11","true"
"html-button-response","68","503178","0.0-11.0-1.28","null","<p>A másik játékos ezt választotta: <b>matézban</b>.</p><p>&#x2705;</p><p>A te válaszod és a másik játékos válasza <b>megegyeznek</b>.</p>","null","","","","feedback trial","",""
"html-button-response-esp","69","513153","0.0-11.0-0.29","9465","Ez itt egy csinték. Ott vagyunk a...","1","csintékban","[""csintékben"",""csintékban""]","csintékben","esp trial","11","false"
"html-button-response","70","516672","0.0-11.0-1.29","null","<p>A másik játékos ezt választotta: <b>csintékben</b>.</p><p>&#10060;</p><p>A válaszaitok <b>nem</b> egyeznek meg.</p>","null","","","","feedback trial","",""
"html-button-response-esp","71","524181","0.0-11.0-0.30","7001","Ez itt egy bidem. Ott vagyunk a...","0","bidemban","[""bidemban"",""bidemben""]","bidemben","esp trial","11","false"
"html-button-response","72","527709","0.0-11.0-1.30","null","<p>A másik játékos ezt választotta: <b>bidemben</b>.</p><p>&#10060;</p><p>A válaszaitok <b>nem</b> egyeznek meg.</p>","null","","","","feedback trial","",""
"html-button-response-esp","73","534577","0.0-11.0-0.31","4519","Ez itt egy klordény. Elneveztem a kutyámat...","0","klordénynek","[""klordénynek"",""klordénynak""]","klordénynak","esp trial","11","false"
"html-button-response","74","538098","0.0-11.0-1.31","null","<p>A másik játékos ezt választotta: <b>klordénynak</b>.</p><p>&#10060;</p><p>A válaszaitok <b>nem</b> egyeznek meg.</p>","null","","","","feedback trial","",""
"html-button-response-esp","75","544972","0.0-11.0-0.32","5999","Ez itt egy nidét. Ott vagyunk a...","1","nidétben","[""nidétban"",""nidétben""]","nidétben","esp trial","11","true"
"html-button-response","76","548485","0.0-11.0-1.32","null","<p>A másik játékos ezt választotta: <b>nidétben</b>.</p><p>&#x2705;</p><p>A te válaszod és a másik játékos válasza <b>megegyeznek</b>.</p>","null","","","","feedback trial","",""
"html-button-response-esp","77","555357","0.0-11.0-0.33","5931","Ez itt egy hóbens. Ott vagyunk a...","1","hóbensben","[""hóbensban"",""hóbensben""]","hóbensben","esp trial","11","true"
"html-button-response","78","558877","0.0-11.0-1.33","null","<p>A másik játékos ezt választotta: <b>hóbensben</b>.</p><p>&#x2705;</p><p>A te válaszod és a másik játékos válasza <b>megegyeznek</b>.</p>","null","","","","feedback trial","",""
"html-button-response-esp","79","571781","0.0-11.0-0.34","12393","Ez itt egy priszkenc. Elneveztem a kutyámat...","1","priszkencnek","[""priszkencnak"",""priszkencnek""]","priszkencnek","esp trial","11","true"
"html-button-response","80","575297","0.0-11.0-1.34","null","<p>A másik játékos ezt választotta: <b>priszkencnek</b>.</p><p>&#x2705;</p><p>A te válaszod és a másik játékos válasza <b>megegyeznek</b>.</p>","null","","","","feedback trial","",""
"html-button-response-esp","81","582159","0.0-11.0-0.35","4444","Ez itt egy kliszer. Nincs is jobb egy jó...","1","kliszernél","[""kliszernál"",""kliszernél""]","kliszernél","esp trial","11","true"
"html-button-response","82","585679","0.0-11.0-1.35","null","<p>A másik játékos ezt választotta: <b>kliszernél</b>.</p><p>&#x2705;</p><p>A te válaszod és a másik játékos válasza <b>megegyeznek</b>.</p>","null","","","","feedback trial","",""
"html-button-response-esp","83","592551","0.0-11.0-0.36","2812","Ez itt egy brukész. Nincs is jobb egy jó...","0","brukésznél","[""brukésznél"",""brukésznál""]","brukésznél","esp trial","11","true"
"html-button-response","84","596066","0.0-11.0-1.36","null","<p>A másik játékos ezt választotta: <b>brukésznél</b>.</p><p>&#x2705;</p><p>A te válaszod és a másik játékos válasza <b>megegyeznek</b>.</p>","null","","","","feedback trial","",""
"html-button-response-esp","85","602928","0.0-11.0-0.37","4251","Ez itt egy gicéj. Nincs is jobb egy jó...","1","gicéjnél","[""gicéjnál"",""gicéjnél""]","gicéjnél","esp trial","11","true"
"html-button-response","86","606448","0.0-11.0-1.37","null","<p>A másik játékos ezt választotta: <b>gicéjnél</b>.</p><p>&#x2705;</p><p>A te válaszod és a másik játékos válasza <b>megegyeznek</b>.</p>","null","","","","feedback trial","",""
"html-button-response-esp","87","613317","0.0-11.0-0.38","3402","Ez itt egy kluhéj. Nincs is jobb egy jó...","0","kluhéjnél","[""kluhéjnél"",""kluhéjnál""]","kluhéjnál","esp trial","11","false"
"html-button-response","88","616837","0.0-11.0-1.38","null","<p>A másik játékos ezt választotta: <b>kluhéjnál</b>.</p><p>&#10060;</p><p>A válaszaitok <b>nem</b> egyeznek meg.</p>","null","","","","feedback trial","",""
"html-button-response-esp","89","629291","0.0-11.0-0.39","11945","Ez itt egy forzéd. Elneveztem a kutyámat...","0","forzédnak","[""forzédnak"",""forzédnek""]","forzédnek","esp trial","11","false"
"html-button-response","90","632805","0.0-11.0-1.39","null","<p>A másik játékos ezt választotta: <b>forzédnek</b>.</p><p>&#10060;</p><p>A válaszaitok <b>nem</b> egyeznek meg.</p>","null","","","","feedback trial","",""
"html-button-response-esp","91","639674","0.0-11.0-0.40","3585","Ez itt egy trincseg. Ott vagyunk a...","1","trincsegben","[""trincsegban"",""trincsegben""]","trincsegben","esp trial","11","true"
"html-button-response","92","643195","0.0-11.0-1.40","null","<p>A másik játékos ezt választotta: <b>trincsegben</b>.</p><p>&#x2705;</p><p>A te válaszod és a másik játékos válasza <b>megegyeznek</b>.</p>","null","","","","feedback trial","",""
"html-button-response-esp","93","653077","0.0-11.0-0.41","9372","Ez itt egy bródesz. Elneveztem a kutyámat...","1","bródesznek","[""bródesznak"",""bródesznek""]","bródesznek","esp trial","11","true"
"html-button-response","94","656588","0.0-11.0-1.41","null","<p>A másik játékos ezt választotta: <b>bródesznek</b>.</p><p>&#x2705;</p><p>A te válaszod és a másik játékos válasza <b>megegyeznek</b>.</p>","null","","","","feedback trial","",""
"html-button-response-esp","95","663457","0.0-11.0-0.42","5038","Ez itt egy jalrény. Nincs is jobb egy jó...","0","jalrénynál","[""jalrénynál"",""jalrénynél""]","jalrénynál","esp trial","11","true"
"html-button-response","96","666978","0.0-11.0-1.42","null","<p>A másik játékos ezt választotta: <b>jalrénynál</b>.</p><p>&#x2705;</p><p>A te válaszod és a másik játékos válasza <b>megegyeznek</b>.</p>","null","","","","feedback trial","",""
"html-button-response-esp","97","677251","0.0-11.0-0.43","9765","Ez itt egy kadér. Nincs is jobb egy jó...","0","kadérnál","[""kadérnál"",""kadérnél""]","kadérnál","esp trial","11","true"
"html-button-response","98","680766","0.0-11.0-1.43","null","<p>A másik játékos ezt választotta: <b>kadérnál</b>.</p><p>&#x2705;</p><p>A te válaszod és a másik játékos válasza <b>megegyeznek</b>.</p>","null","","","","feedback trial","",""
"html-button-response-esp","99","694959","0.0-11.0-0.44","13680","Ez itt egy csartény. Elneveztem a kutyámat...","0","csarténynak","[""csarténynak"",""csarténynek""]","csarténynak","esp trial","11","true"
"html-button-response","100","698477","0.0-11.0-1.44","null","<p>A másik játékos ezt választotta: <b>csarténynak</b>.</p><p>&#x2705;</p><p>A te válaszod és a másik játékos válasza <b>megegyeznek</b>.</p>","null","","","","feedback trial","",""
"html-button-response-esp","101","705345","0.0-11.0-0.45","5681","Ez itt egy szutend. Ott vagyunk a...","1","szutendben","[""szutendban"",""szutendben""]","szutendben","esp trial","11","true"
"html-button-response","102","708859","0.0-11.0-1.45","null","<p>A másik játékos ezt választotta: <b>szutendben</b>.</p><p>&#x2705;</p><p>A te válaszod és a másik játékos válasza <b>megegyeznek</b>.</p>","null","","","","feedback trial","",""
"html-button-response-esp","103","723801","0.0-11.0-0.46","14431","Ez itt egy licegy. Ott vagyunk a...","0","licegyben","[""licegyben"",""licegyban""]","licegyben","esp trial","11","true"
"html-button-response","104","727325","0.0-11.0-1.46","null","<p>A másik játékos ezt választotta: <b>licegyben</b>.</p><p>&#x2705;</p><p>A te válaszod és a másik játékos válasza <b>megegyeznek</b>.</p>","null","","","","feedback trial","",""
"html-button-response-esp","105","743555","0.0-11.0-0.47","15719","Ez itt egy csimen. Nincs is jobb egy jó...","1","csimennél","[""csimennál"",""csimennél""]","csimennél","esp trial","11","true"
"html-button-response","106","747075","0.0-11.0-1.47","null","<p>A másik játékos ezt választotta: <b>csimennél</b>.</p><p>&#x2705;</p><p>A te válaszod és a másik játékos válasza <b>megegyeznek</b>.</p>","null","","","","feedback trial","",""
"html-button-response-esp","107","755849","0.0-11.0-0.48","8263","Ez itt egy nyábét. Ott vagyunk a...","0","nyábétben","[""nyábétben"",""nyábétban""]","nyábétban","esp trial","11","false"
"html-button-response","108","759362","0.0-11.0-1.48","null","<p>A másik játékos ezt választotta: <b>nyábétban</b>.</p><p>&#10060;</p><p>A válaszaitok <b>nem</b> egyeznek meg.</p>","null","","","","feedback trial","",""
"html-button-response-esp","109","770223","0.0-11.0-0.49","10348","Ez itt egy brigeszt. Elneveztem a kutyámat...","0","brigesztnak","[""brigesztnak"",""brigesztnek""]","brigesztnek","esp trial","11","false"
"html-button-response","110","773747","0.0-11.0-1.49","null","<p>A másik játékos ezt választotta: <b>brigesztnek</b>.</p><p>&#10060;</p><p>A válaszaitok <b>nem</b> egyeznek meg.</p>","null","","","","feedback trial","",""
"html-button-response-esp","111","780971","0.0-11.0-0.50","6711","Ez itt egy brágéd. Elneveztem a kutyámat...","0","brágédnek","[""brágédnek"",""brágédnak""]","brágédnak","esp trial","11","false"
"html-button-response","112","784496","0.0-11.0-1.50","null","<p>A másik játékos ezt választotta: <b>brágédnak</b>.</p><p>&#10060;</p><p>A válaszaitok <b>nem</b> egyeznek meg.</p>","null","","","","feedback trial","",""
"html-button-response-esp","113","791361","0.0-11.0-0.51","4000","Ez itt egy gonszék. Nincs is jobb egy jó...","0","gonszéknél","[""gonszéknél"",""gonszéknál""]","gonszéknél","esp trial","11","true"
"html-button-response","114","794883","0.0-11.0-1.51","null","<p>A másik játékos ezt választotta: <b>gonszéknél</b>.</p><p>&#x2705;</p><p>A te válaszod és a másik játékos válasza <b>megegyeznek</b>.</p>","null","","","","feedback trial","",""
"html-button-response-esp","115","801751","0.0-11.0-0.52","3519","Ez itt egy spáten. Elneveztem a kutyámat...","0","spátennek","[""spátennek"",""spátennak""]","spátennek","esp trial","11","true"
"html-button-response","116","805273","0.0-11.0-1.52","null","<p>A másik játékos ezt választotta: <b>spátennek</b>.</p><p>&#x2705;</p><p>A te válaszod és a másik játékos válasza <b>megegyeznek</b>.</p>","null","","","","feedback trial","",""
"html-button-response-esp","117","812142","0.0-11.0-0.53","5631","Ez itt egy lismév. Ott vagyunk a...","0","lismévben","[""lismévben"",""lismévban""]","lismévben","esp trial","11","true"
"html-button-response","118","815649","0.0-11.0-1.53","null","<p>A másik játékos ezt választotta: <b>lismévben</b>.</p><p>&#x2705;</p><p>A te válaszod és a másik játékos válasza <b>megegyeznek</b>.</p>","null","","","","feedback trial","",""
"html-button-response","119","827866","0.0-12.0","11705","<p>A közös játék most véget ért.</p><p>Mielőtt eláruljuk a végső pontszámodat, arra kérlek, játszd a szóválasztós játékot néhány percig egyedül is.</p><p>A feladatod ugyanaz lesz, választani két lehetőség közül.</p><p>Most viszont egyedül kell döntened, hogy te melyiket választanád.</p>","0","","","","","",""
"html-button-response-clever","120","830963","0.0-13.0-0.0","2586","Ez itt egy kátel. Elneveztem a kutyámat...","0","kátelnek","[""kátelnek"",""kátelnak""]","","posttest trial","1",""
"html-button-response-clever","121","837822","0.0-13.0-0.1","6357","Ez itt egy klingesz. Ott vagyunk a...","1","klingeszben","[""klingeszban"",""klingeszben""]","","posttest trial","1",""
"html-button-response-clever","122","842291","0.0-13.0-0.2","3963","Ez itt egy dalenc. Nincs is jobb egy jó...","0","dalencnál","[""dalencnál"",""dalencnél""]","","posttest trial","1",""
"html-button-response-clever","123","853409","0.0-13.0-0.3","10612","Ez itt egy kalréz. Ott vagyunk a...","0","kalrézben","[""kalrézben"",""kalrézban""]","","posttest trial","1",""
"html-button-response-clever","124","861290","0.0-13.0-0.4","7378","Ez itt egy garcép. Nincs is jobb egy jó...","0","garcépnál","[""garcépnál"",""garcépnél""]","","posttest trial","1",""
"html-button-response-clever","125","865381","0.0-13.0-0.5","3587","Ez itt egy nyítem. Ott vagyunk a...","1","nyítemben","[""nyítemban"",""nyítemben""]","","posttest trial","1",""
"html-button-response-clever","126","871817","0.0-13.0-0.6","5928","Ez itt egy kaszép. Elneveztem a kutyámat...","1","kaszépnek","[""kaszépnak"",""kaszépnek""]","","posttest trial","1",""
"html-button-response-clever","127","878153","0.0-13.0-0.7","5825","Ez itt egy tosély. Ott vagyunk a...","1","tosélyban","[""tosélyben"",""tosélyban""]","","posttest trial","1",""
"html-button-response-clever","128","887751","0.0-13.0-0.8","9090","Ez itt egy darhén. Ott vagyunk a...","1","darhénben","[""darhénban"",""darhénben""]","","posttest trial","1",""
"html-button-response-clever","129","894762","0.0-13.0-0.9","6506","Ez itt egy hágyét. Elneveztem a kutyámat...","0","hágyétnak","[""hágyétnak"",""hágyétnek""]","","posttest trial","1",""
"html-button-response-clever","130","903344","0.0-13.0-0.10","8069","Ez itt egy rapszek. Nincs is jobb egy jó...","0","rapszeknél","[""rapszeknél"",""rapszeknál""]","","posttest trial","1",""
"html-button-response-clever","131","906873","0.0-13.0-0.11","3019","Ez itt egy bralkép. Ott vagyunk a...","1","bralképben","[""bralképban"",""bralképben""]","","posttest trial","1",""
"html-button-response-clever","132","911830","0.0-13.0-0.12","4449","Ez itt egy fájéz. Ott vagyunk a...","1","fájézban","[""fájézben"",""fájézban""]","","posttest trial","1",""
"html-button-response-clever","133","921953","0.0-13.0-0.13","9617","Ez itt egy nyupér. Nincs is jobb egy jó...","0","nyupérnél","[""nyupérnél"",""nyupérnál""]","","posttest trial","1",""
"html-button-response-clever","134","926258","0.0-13.0-0.14","3798","Ez itt egy brindez. Elneveztem a kutyámat...","0","brindeznek","[""brindeznek"",""brindeznak""]","","posttest trial","1",""
"html-button-response-clever","135","932662","0.0-13.0-0.15","5896","Ez itt egy spanél. Nincs is jobb egy jó...","1","spanélnél","[""spanélnál"",""spanélnél""]","","posttest trial","1",""
"html-button-response-clever","136","940737","0.0-13.0-0.16","7572","Ez itt egy lorzens. Nincs is jobb egy jó...","0","lorzensnél","[""lorzensnél"",""lorzensnál""]","","posttest trial","1",""
"html-button-response-clever","137","943810","0.0-13.0-0.17","2567","Ez itt egy sortem. Nincs is jobb egy jó...","0","sortemnél","[""sortemnél"",""sortemnál""]","","posttest trial","1",""
"html-button-response-clever","138","963954","0.0-13.0-0.18","19638","Ez itt egy zopély. Nincs is jobb egy jó...","1","zopélynél","[""zopélynál"",""zopélynél""]","","posttest trial","1",""
"html-button-response-clever","139","966978","0.0-13.0-0.19","2517","Ez itt egy zsáder. Ott vagyunk a...","0","zsáderban","[""zsáderban"",""zsáderben""]","","posttest trial","1",""
"html-button-response-clever","140","970790","0.0-13.0-0.20","3300","Ez itt egy dihely. Elneveztem a kutyámat...","0","dihelynek","[""dihelynek"",""dihelynak""]","","posttest trial","1",""
"html-button-response-clever","141","976806","0.0-13.0-0.21","5510","Ez itt egy trismél. Elneveztem a kutyámat...","1","trismélnek","[""trismélnak"",""trismélnek""]","","posttest trial","1",""
"html-button-response-clever","142","982353","0.0-13.0-0.22","5034","Ez itt egy priszec. Ott vagyunk a...","1","priszecben","[""priszecban"",""priszecben""]","","posttest trial","1",""
"html-button-response-clever","143","991167","0.0-13.0-0.23","8299","Ez itt egy ítens. Ott vagyunk a...","0","ítensben","[""ítensben"",""ítensban""]","","posttest trial","1",""
"html-button-response-clever","144","999971","0.0-13.0-0.24","8299","Ez itt egy zsigén. Nincs is jobb egy jó...","1","zsigénnél","[""zsigénnál"",""zsigénnél""]","","posttest trial","1",""
"html-button-response-clever","145","1009033","0.0-13.0-0.25","8559","Ez itt egy spábét. Ott vagyunk a...","0","spábétban","[""spábétban"",""spábétben""]","","posttest trial","1",""
"html-button-response-clever","146","1015863","0.0-13.0-0.26","6329","Ez itt egy dábegy. Ott vagyunk a...","1","dábegyben","[""dábegyban"",""dábegyben""]","","posttest trial","1",""
"html-button-response-clever","147","1032576","0.0-13.0-0.27","16203","Ez itt egy zsádév. Elneveztem a kutyámat...","0","zsádévnek","[""zsádévnek"",""zsádévnak""]","","posttest trial","1",""
"html-button-response-clever","148","1040139","0.0-13.0-0.28","7055","Ez itt egy jóbec. Elneveztem a kutyámat...","1","jóbecnek","[""jóbecnak"",""jóbecnek""]","","posttest trial","1",""
"html-button-response-clever","149","1046996","0.0-13.0-0.29","6352","Ez itt egy bupéz. Ott vagyunk a...","0","bupézben","[""bupézben"",""bupézban""]","","posttest trial","1",""
"html-button-response-clever","150","1050571","0.0-13.0-0.30","3061","Ez itt egy narem. Ott vagyunk a...","0","naremben","[""naremben"",""naremban""]","","posttest trial","1",""
"html-button-response-clever","151","1055226","0.0-13.0-0.31","4153","Ez itt egy pisély. Ott vagyunk a...","0","pisélyben","[""pisélyben"",""pisélyban""]","","posttest trial","1",""
"html-button-response-clever","152","1059191","0.0-13.0-0.32","3452","Ez itt egy jukél. Nincs is jobb egy jó...","0","jukélnál","[""jukélnál"",""jukélnél""]","","posttest trial","1",""
"html-button-response-clever","153","1062923","0.0-13.0-0.33","3229","Ez itt egy dorzéj. Elneveztem a kutyámat...","0","dorzéjnek","[""dorzéjnek"",""dorzéjnak""]","","posttest trial","1",""
"html-button-response-clever","154","1066640","0.0-13.0-0.34","3212","Ez itt egy klosét. Elneveztem a kutyámat...","0","klosétnek","[""klosétnek"",""klosétnak""]","","posttest trial","1",""
"html-button-response-clever","155","1075064","0.0-13.0-0.35","7910","Ez itt egy gúden. Ott vagyunk a...","0","gúdenben","[""gúdenben"",""gúdenban""]","","posttest trial","1",""
"html-button-response-clever","156","1079005","0.0-13.0-0.36","3432","Ez itt egy monveg. Nincs is jobb egy jó...","0","monvegnél","[""monvegnél"",""monvegnál""]","","posttest trial","1",""
"html-button-response-clever","157","1086001","0.0-13.0-0.37","6493","Ez itt egy pivéd. Ott vagyunk a...","0","pivédben","[""pivédben"",""pivédban""]","","posttest trial","1",""
"html-button-response-clever","158","1090686","0.0-13.0-0.38","4175","Ez itt egy spumény. Elneveztem a kutyámat...","0","spuménynak","[""spuménynak"",""spuménynek""]","","posttest trial","1",""
"html-button-response-clever","159","1095002","0.0-13.0-0.39","3808","Ez itt egy zihenc. Elneveztem a kutyámat...","0","zihencnek","[""zihencnek"",""zihencnak""]","","posttest trial","1",""
"html-button-response-clever","160","1108106","0.0-13.0-0.40","12596","Ez itt egy danét. Nincs is jobb egy jó...","0","danétnál","[""danétnál"",""danétnél""]","","posttest trial","1",""
"html-button-response-clever","161","1112360","0.0-13.0-0.41","3751","Ez itt egy luméz. Ott vagyunk a...","0","lumézban","[""lumézban"",""lumézben""]","","posttest trial","1",""
"html-button-response-clever","162","1116140","0.0-13.0-0.42","3270","Ez itt egy vorszen. Nincs is jobb egy jó...","1","vorszennél","[""vorszennál"",""vorszennél""]","","posttest trial","1",""
"html-button-response-clever","163","1131688","0.0-13.0-0.43","15047","Ez itt egy zsúdel. Elneveztem a kutyámat...","1","zsúdelnek","[""zsúdelnak"",""zsúdelnek""]","","posttest trial","1",""
"html-button-response-clever","164","1138494","0.0-13.0-0.44","6294","Ez itt egy incéj. Elneveztem a kutyámat...","1","incéjnek","[""incéjnak"",""incéjnek""]","","posttest trial","1",""
"html-button-response-clever","165","1144148","0.0-13.0-0.45","5145","Ez itt egy nyamet. Ott vagyunk a...","0","nyametben","[""nyametben"",""nyametban""]","","posttest trial","1",""
"html-button-response-clever","166","1154599","0.0-13.0-0.46","9943","Ez itt egy pijél. Nincs is jobb egy jó...","0","pijélnél","[""pijélnél"",""pijélnál""]","","posttest trial","1",""
"html-button-response-clever","167","1157862","0.0-13.0-0.47","2760","Ez itt egy spicet. Elneveztem a kutyámat...","0","spicetnek","[""spicetnek"",""spicetnak""]","","posttest trial","1",""
"html-button-response-clever","168","1163786","0.0-13.0-0.48","5414","Ez itt egy trájeg. Ott vagyunk a...","1","trájegban","[""trájegben"",""trájegban""]","","posttest trial","1",""
"html-button-response-clever","169","1166836","0.0-13.0-0.49","2536","Ez itt egy pítend. Ott vagyunk a...","0","pítendben","[""pítendben"",""pítendban""]","","posttest trial","1",""
"html-button-response-clever","170","1169780","0.0-13.0-0.50","2432","Ez itt egy sprivenc. Nincs is jobb egy jó...","1","sprivencnél","[""sprivencnál"",""sprivencnél""]","","posttest trial","1",""
"html-button-response-clever","171","1177992","0.0-13.0-0.51","7706","Ez itt egy kalhész. Elneveztem a kutyámat...","0","kalhésznak","[""kalhésznak"",""kalhésznek""]","","posttest trial","1",""
"html-button-response-clever","172","1183420","0.0-13.0-0.52","4915","Ez itt egy braszenc. Nincs is jobb egy jó...","0","braszencnél","[""braszencnél"",""braszencnál""]","","posttest trial","1",""
"html-button-response-clever","173","1190811","0.0-13.0-0.53","6885","Ez itt egy ronszek. Ott vagyunk a...","1","ronszekben","[""ronszekban"",""ronszekben""]","","posttest trial","1",""
"html-button-response","174","1196056","0.0-14.0","4743","<p> Vége a játéknak. A teljes pontszámod 38/54.</p><p> Szép munka! &#128526;&#128526;&#128526;</p><p>A Befejezés gomb megnyomása után bezárhatod a böngészőablakot.</p>","0","","","","","",""
"html-keyboard-response","175","1201573","0.0-15.0","null","<div class=""message"">
         <p>Egy kis türelmet kérünk, amíg elmentjük az adatokat...</p>
         </div>","null","","","","","",""
