"trial_type","trial_index","time_elapsed","internal_node_id","rt","stimulus","response","response_string","choices","esp_response","trial_kind","list_number","esp_match"
"pavlovia","0","1100","0.0-0.0","","","","","","","","",""
"html-button-response","1","30176","0.0-1.0","28563","<p>Kedves Résztvevő! A Budapesti Műszaki és Gazdaságtudományi Egyetem Kognitív Tudományi Tanszékének kutatásában való részvételed kérjük. A kutatásban azt vizsgáljuk, hogy a magyar anyanyelvűek hogyan használnak bizonyos szóalakokat, és hogy milyen képük van arról, hogy mások hogyan használják, hogyan képzik a szavakat. Ez hozzásegít bennünket ahhoz, hogy jobban megértsük, hogyan dolgozza fel és tárolja a nyelvet az emberi agy, és hogyan működnek, hogyan változnak egy adott közösség nyelvi konvenciói.</p><p>A vizsgálat egy rövid számítógépes feladatból fog állni. A kutatásban való részvétel önkéntes, a részvételi szándék bármikor visszavonható. A résztvevők eredményeit név nélkül kezeljük, így nem beazonosíthatók az adatok feldolgozása során. Minden személyes adatot az EU általános adatvédelmi rendeletének (GDPR) megfelelően kezelünk és legfeljebb öt éven belül megsemmisítünk. A vizsgálat jellemzően húsz percet vesz igénybe.</p><p>Kutatásvezető:</p><p>Dr. Rácz Péter, tudományos munkatárs, BME KTT</p><p>e-mail: racz.peter.marton@ttk.bme.hu</p>","0","","","","","",""
"html-button-response","2","63988","0.0-2.0","33304","<p>A kísérletben szavakat fogsz látni. Ezek között lesznek olyanok, amelyeket ismersz, de előfordulhatnak olyanok is, amelyeket nem ismersz, sőt, vannak köztük kitalált szavak is. Minden szónál látni fogsz toldalékolt alakokat. A te feladatod az lesz, hogy minden szóhoz kiválaszd azt a toldalékolt alakot, amely a te számodra ismerősebben, természetesebben hangzik. Rossz válaszok nincsenek, mert van olyan, hogy különböző embereknek más és más szó tűnik jobb választásnak. A választ úgy tudod majd kiválasztani, ha rákattintasz.</p><p>Ebben a szóválasztós játékban egy másik játékossal együtt veszel majd részt. A másik játékos is minden esetben azok közül a lehetőségek közül válogathat, mint te. Kettőtök feladata az, hogy ugyanazt a lehetőséget válasszátok minden esetben. Ahhoz, hogy ez sikerüljön, neked figyelned kell arra, hogy a másik játékos milyen válaszokat ad, és ennek alapján meg kell tippelned, hogyan választ legközelebb. Ha eltalálod, akkor pontot kapsz.</p>","0","","","","","",""
"html-button-response","3","68623","0.0-3.0","4131","<p>Kérjük, olvasd el az alábbi nyilatkozatot, és amennyiben egyetértesz vele, nyomj a Beleegyezés gombra!</p><p>Kijelentem, hogy magyar anyanyelvű személyként önként veszek részt a BME KTT kísérletében. A kutatás céljával és folyamatával kapcsolatban elegendő tájékoztatást kaptam, lehetőségem volt kérdések feltételére, és esetleges kérdéseimre megfelelő válaszokat kaptam. A tájékoztatás alapján elegendő mennyiségű információ áll a rendelkezésemre, hogy eldönthessem, részt kívánok-e venni a kutatásban.</p><p>Tisztában vagyok vele, hogy részvételi szándékomat és adataimat bármikor, indoklás nélkül visszavonhatom.</p><p>Értem és tudomásul veszem, hogy a kutatás tudományos célokat szolgál, és az általam szolgáltatott adatokat a BME kizárólag kutatási célból használja fel. Tudomásul veszem, hogy eredményeimet a többi résztvevő eredményeivel együtt kezelik, így egyéni teljesítményemről visszajelzést, szakvéleményt nem kapok.</p><p>Megértettem, hogy adataim kezelését illetően a BME az EU általános adatvédelmi rendelete (GDPR), a hatályos adatvédelmi törvény és a nemzetközi kutatás-etikai alapelvek szerint jár el. Eredményeim anonim módon kerülnek feldolgozásra, és a kutatás résztvevői az azonosításomra alkalmas adataimat harmadik félnek nem szolgáltatják ki. Engedélyezem a BME számára a jelen kutatásban felvett adataim feldolgozását és tárolását, beleértve azok későbbi kutatásokhoz való felhasználását is. Személyes adataim kezelésével kapcsolatban tájékoztatást kérhetek a kutatás résztvevőitől, az adatkezelés ellen tiltakozhatok, kérhetem személyes adataim helyesbítését, törlését vagy zárolását, valamint jogorvoslatért a Nemzeti Adatvédelmi és Információszabadság Hatósághoz fordulhatok.</p><p>Kijelentem, hogy a kutatásban való részvételem körülményeiről részletes tájékoztatást kaptam, és a feltételeket elfogadom.</p>","0","","","","","",""
"survey-text","4","106806","0.0-4.0","37664","","{""Q0"":""XNXKLX"",""Q1"":"""",""Q2"":""1984"",""Q3"":""19,5""}","","","","","",""
"html-button-response","5","118668","0.0-5.0","11351","<p>Ebben a játékban szavakat kell toldalékolni.</p> <p>Minden körben mutatunk majd egy példamondatot, amiben lesz egy szó.</p> <p>Alatta jön egy második mondat, ezt a mondatot neked kell majd befejezni, ugyanezzel a szóval.</p> <p>Nem biztos, hogy a szó eleve ismerős lesz számodra!</p> <p>Minden mondathoz adunk két lehetőséget, ezeket balra és jobbra látod majd.</p> <p>A játék kb. negyedóráig-húsz percig tart.</p>","0","","","","","",""
"html-button-response","6","126986","0.0-6.0","7811","<p>Nézzünk egy példát!</p> <p>A példamondat: ""Ez itt egy blumbnyeg.""</p><p>Neked ezt a mondatot kell befejezned: ""Ott vagyunk a...""</p><p>A lehetőségek pedig ezek:</p>","0","","","","","",""
"html-button-response","7","133538","0.0-7.0","6046","<p>Nagyon jó.</p><p>Ezt a játékot nem egyedül fogod játszani, hanem egy másik játékossal.</p><p>Mielőtt továbblépünk, összekapcsolunk titeket egymással.</p><p>Ez igénybe vehet néhány másodpercet, amihez szíves türelmed kérjük.</p>","0","","","","","",""
"html-button-response","8","139276","0.0-8.0","null","<p>Csatlakozás a másik játékoshoz...</p>","null","","","","","",""
"html-button-response","9","141793","0.0-9.0","null","<p> Sikeres kapcsolódás!</p>","null","","","","","",""
"html-button-response","10","152307","0.0-10.0","null","<p>A következőkben ketten játsszátok a szóválasztós játékot.</p><p>A feladatotok az lesz, hogy minden körben <b>ugyanazt</b> a szót válasszátok.</p><p>Minden ilyen egyező válaszért pontot kaptok.</p><p>Próbáld meg kitalálni, mit választ a másik játékos!</p><p>Bármikor választhatsz, a körnek akkor van vége, ha mindketten döntöttetek.</p><p>Sok sikert!</p>","null","","","","","",""
"html-button-response-esp","11","158849","0.0-11.0-0.0","6030","Ez itt egy jábéz. Ott vagyunk a...","1","jábézban","[""jábézben"",""jábézban""]","jábézban","esp trial","9","true"
"html-button-response","12","162362","0.0-11.0-1.0","null","<p>A másik játékos ezt választotta: <b>jábézban</b>.</p><p>&#x2705;</p><p>A te válaszod és a másik játékos válasza <b>megegyeznek</b>.</p>","null","","","","feedback trial","",""
"html-button-response-esp","13","167938","0.0-11.0-0.1","5068","Ez itt egy júder. Elneveztem a kutyámat...","0","júdernak","[""júdernak"",""júdernek""]","júdernak","esp trial","9","true"
"html-button-response","14","171450","0.0-11.0-1.1","null","<p>A másik játékos ezt választotta: <b>júdernak</b>.</p><p>&#x2705;</p><p>A te válaszod és a másik játékos válasza <b>megegyeznek</b>.</p>","null","","","","feedback trial","",""
"html-button-response-esp","15","176970","0.0-11.0-0.2","5009","Ez itt egy fincek. Nincs is jobb egy jó...","1","finceknél","[""finceknál"",""finceknél""]","finceknál","esp trial","9","false"
"html-button-response","16","180490","0.0-11.0-1.2","null","<p>A másik játékos ezt választotta: <b>finceknál</b>.</p><p>&#10060;</p><p>A válaszaitok <b>nem</b> egyeznek meg.</p>","null","","","","feedback trial","",""
"html-button-response-esp","17","185284","0.0-11.0-0.3","4288","Ez itt egy licegy. Ott vagyunk a...","1","licegyben","[""licegyban"",""licegyben""]","licegyben","esp trial","9","true"
"html-button-response","18","188804","0.0-11.0-1.3","null","<p>A másik játékos ezt választotta: <b>licegyben</b>.</p><p>&#x2705;</p><p>A te válaszod és a másik játékos válasza <b>megegyeznek</b>.</p>","null","","","","feedback trial","",""
"html-button-response-esp","19","194044","0.0-11.0-0.4","4733","Ez itt egy prately. Elneveztem a kutyámat...","1","pratelynak","[""pratelynek"",""pratelynak""]","pratelynak","esp trial","9","true"
"html-button-response","20","197565","0.0-11.0-1.4","null","<p>A másik játékos ezt választotta: <b>pratelynak</b>.</p><p>&#x2705;</p><p>A te válaszod és a másik játékos válasza <b>megegyeznek</b>.</p>","null","","","","feedback trial","",""
"html-button-response-esp","21","202188","0.0-11.0-0.5","3752","Ez itt egy hóbens. Ott vagyunk a...","0","hóbensban","[""hóbensban"",""hóbensben""]","hóbensban","esp trial","9","true"
"html-button-response","22","205700","0.0-11.0-1.5","null","<p>A másik játékos ezt választotta: <b>hóbensban</b>.</p><p>&#x2705;</p><p>A te válaszod és a másik játékos válasza <b>megegyeznek</b>.</p>","null","","","","feedback trial","",""
"html-button-response-esp","23","210316","0.0-11.0-0.6","4047","Ez itt egy bidem. Ott vagyunk a...","1","bidemben","[""bidemban"",""bidemben""]","bidemben","esp trial","9","true"
"html-button-response","24","213827","0.0-11.0-1.6","null","<p>A másik játékos ezt választotta: <b>bidemben</b>.</p><p>&#x2705;</p><p>A te válaszod és a másik játékos válasza <b>megegyeznek</b>.</p>","null","","","","feedback trial","",""
"html-button-response-esp","25","218452","0.0-11.0-0.7","3176","Ez itt egy giheszt. Elneveztem a kutyámat...","1","gihesztnek","[""gihesztnak"",""gihesztnek""]","gihesztnek","esp trial","9","true"
"html-button-response","26","221966","0.0-11.0-1.7","null","<p>A másik játékos ezt választotta: <b>gihesztnek</b>.</p><p>&#x2705;</p><p>A te válaszod és a másik játékos válasza <b>megegyeznek</b>.</p>","null","","","","feedback trial","",""
"html-button-response-esp","27","226588","0.0-11.0-0.8","3339","Ez itt egy kliszer. Nincs is jobb egy jó...","0","kliszernél","[""kliszernél"",""kliszernál""]","kliszernél","esp trial","9","true"
"html-button-response","28","230104","0.0-11.0-1.8","null","<p>A másik játékos ezt választotta: <b>kliszernél</b>.</p><p>&#x2705;</p><p>A te válaszod és a másik játékos válasza <b>megegyeznek</b>.</p>","null","","","","feedback trial","",""
"html-button-response-esp","29","234734","0.0-11.0-0.9","3059","Ez itt egy zsopéd. Ott vagyunk a...","0","zsopédban","[""zsopédban"",""zsopédben""]","zsopédban","esp trial","9","true"
"html-button-response","30","238252","0.0-11.0-1.9","null","<p>A másik játékos ezt választotta: <b>zsopédban</b>.</p><p>&#x2705;</p><p>A te válaszod és a másik játékos válasza <b>megegyeznek</b>.</p>","null","","","","feedback trial","",""
"html-button-response-esp","31","242869","0.0-11.0-0.10","3206","Ez itt egy fádens. Elneveztem a kutyámat...","0","fádensnak","[""fádensnak"",""fádensnek""]","fádensnak","esp trial","9","true"
"html-button-response","32","246393","0.0-11.0-1.10","null","<p>A másik játékos ezt választotta: <b>fádensnak</b>.</p><p>&#x2705;</p><p>A te válaszod és a másik játékos válasza <b>megegyeznek</b>.</p>","null","","","","feedback trial","",""
"html-button-response-esp","33","251016","0.0-11.0-0.11","2550","Ez itt egy navec. Ott vagyunk a...","0","navecban","[""navecban"",""navecben""]","navecban","esp trial","9","true"
"html-button-response","34","254540","0.0-11.0-1.11","null","<p>A másik játékos ezt választotta: <b>navecban</b>.</p><p>&#x2705;</p><p>A te válaszod és a másik játékos válasza <b>megegyeznek</b>.</p>","null","","","","feedback trial","",""
"html-button-response-esp","35","259437","0.0-11.0-0.12","4383","Ez itt egy csinték. Ott vagyunk a...","0","csintékban","[""csintékban"",""csintékben""]","csintékban","esp trial","9","true"
"html-button-response","36","262953","0.0-11.0-1.12","null","<p>A másik játékos ezt választotta: <b>csintékban</b>.</p><p>&#x2705;</p><p>A te válaszod és a másik játékos válasza <b>megegyeznek</b>.</p>","null","","","","feedback trial","",""
"html-button-response-esp","37","267583","0.0-11.0-0.13","3468","Ez itt egy forzéd. Elneveztem a kutyámat...","1","forzédnak","[""forzédnek"",""forzédnak""]","forzédnak","esp trial","9","true"
"html-button-response","38","271110","0.0-11.0-1.13","null","<p>A másik játékos ezt választotta: <b>forzédnak</b>.</p><p>&#x2705;</p><p>A te válaszod és a másik játékos válasza <b>megegyeznek</b>.</p>","null","","","","feedback trial","",""
"html-button-response-esp","39","275736","0.0-11.0-0.14","3387","Ez itt egy brukész. Nincs is jobb egy jó...","0","brukésznál","[""brukésznál"",""brukésznél""]","brukésznál","esp trial","9","true"
"html-button-response","40","279258","0.0-11.0-1.14","null","<p>A másik játékos ezt választotta: <b>brukésznál</b>.</p><p>&#x2705;</p><p>A te válaszod és a másik játékos válasza <b>megegyeznek</b>.</p>","null","","","","feedback trial","",""
"html-button-response-esp","41","284179","0.0-11.0-0.15","4414","Ez itt egy sprízem. Nincs is jobb egy jó...","1","sprízemnál","[""sprízemnél"",""sprízemnál""]","sprízemnél","esp trial","9","false"
"html-button-response","42","287694","0.0-11.0-1.15","null","<p>A másik játékos ezt választotta: <b>sprízemnél</b>.</p><p>&#10060;</p><p>A válaszaitok <b>nem</b> egyeznek meg.</p>","null","","","","feedback trial","",""
"html-button-response-esp","43","292309","0.0-11.0-0.16","3430","Ez itt egy dingec. Elneveztem a kutyámat...","1","dingecnek","[""dingecnak"",""dingecnek""]","dingecnek","esp trial","9","true"
"html-button-response","44","295822","0.0-11.0-1.16","null","<p>A másik játékos ezt választotta: <b>dingecnek</b>.</p><p>&#x2705;</p><p>A te válaszod és a másik játékos válasza <b>megegyeznek</b>.</p>","null","","","","feedback trial","",""
"html-button-response-esp","45","300439","0.0-11.0-0.17","4108","Ez itt egy gótem. Elneveztem a kutyámat...","0","gótemnak","[""gótemnak"",""gótemnek""]","gótemnak","esp trial","9","true"
"html-button-response","46","303951","0.0-11.0-1.17","null","<p>A másik játékos ezt választotta: <b>gótemnak</b>.</p><p>&#x2705;</p><p>A te válaszod és a másik játékos válasza <b>megegyeznek</b>.</p>","null","","","","feedback trial","",""
"html-button-response-esp","47","309764","0.0-11.0-0.18","5309","Ez itt egy brigeszt. Elneveztem a kutyámat...","0","brigesztnek","[""brigesztnek"",""brigesztnak""]","brigesztnek","esp trial","9","true"
"html-button-response","48","313276","0.0-11.0-1.18","null","<p>A másik játékos ezt választotta: <b>brigesztnek</b>.</p><p>&#x2705;</p><p>A te válaszod és a másik játékos válasza <b>megegyeznek</b>.</p>","null","","","","feedback trial","",""
"html-button-response-esp","49","320533","0.0-11.0-0.19","6741","Ez itt egy gicéj. Nincs is jobb egy jó...","0","gicéjnál","[""gicéjnál"",""gicéjnél""]","gicéjnél","esp trial","9","false"
"html-button-response","50","324063","0.0-11.0-1.19","null","<p>A másik játékos ezt választotta: <b>gicéjnél</b>.</p><p>&#10060;</p><p>A válaszaitok <b>nem</b> egyeznek meg.</p>","null","","","","feedback trial","",""
"html-button-response-esp","51","328695","0.0-11.0-0.20","3274","Ez itt egy vodép. Elneveztem a kutyámat...","0","vodépnak","[""vodépnak"",""vodépnek""]","vodépnak","esp trial","9","true"
"html-button-response","52","332214","0.0-11.0-1.20","null","<p>A másik játékos ezt választotta: <b>vodépnak</b>.</p><p>&#x2705;</p><p>A te válaszod és a másik játékos válasza <b>megegyeznek</b>.</p>","null","","","","feedback trial","",""
"html-button-response-esp","53","337765","0.0-11.0-0.21","5043","Ez itt egy brágéd. Elneveztem a kutyámat...","0","brágédnak","[""brágédnak"",""brágédnek""]","brágédnak","esp trial","9","true"
"html-button-response","54","341280","0.0-11.0-1.21","null","<p>A másik játékos ezt választotta: <b>brágédnak</b>.</p><p>&#x2705;</p><p>A te válaszod és a másik játékos válasza <b>megegyeznek</b>.</p>","null","","","","feedback trial","",""
"html-button-response-esp","55","345902","0.0-11.0-0.22","4117","Ez itt egy brotes. Ott vagyunk a...","0","brotesban","[""brotesban"",""brotesben""]","brotesban","esp trial","9","true"
"html-button-response","56","349430","0.0-11.0-1.22","null","<p>A másik játékos ezt választotta: <b>brotesban</b>.</p><p>&#x2705;</p><p>A te válaszod és a másik játékos válasza <b>megegyeznek</b>.</p>","null","","","","feedback trial","",""
"html-button-response-esp","57","357197","0.0-11.0-0.23","7256","Ez itt egy szutend. Ott vagyunk a...","0","szutendban","[""szutendban"",""szutendben""]","szutendban","esp trial","9","true"
"html-button-response","58","360707","0.0-11.0-1.23","null","<p>A másik játékos ezt választotta: <b>szutendban</b>.</p><p>&#x2705;</p><p>A te válaszod és a másik játékos válasza <b>megegyeznek</b>.</p>","null","","","","feedback trial","",""
"html-button-response-esp","59","365330","0.0-11.0-0.24","4052","Ez itt egy csartény. Elneveztem a kutyámat...","1","csarténynak","[""csarténynek"",""csarténynak""]","csarténynak","esp trial","9","true"
"html-button-response","60","368863","0.0-11.0-1.24","null","<p>A másik játékos ezt választotta: <b>csarténynak</b>.</p><p>&#x2705;</p><p>A te válaszod és a másik játékos válasza <b>megegyeznek</b>.</p>","null","","","","feedback trial","",""
"html-button-response-esp","61","373488","0.0-11.0-0.25","3256","Ez itt egy buhény. Ott vagyunk a...","1","buhényban","[""buhényben"",""buhényban""]","buhényban","esp trial","9","true"
"html-button-response","62","377003","0.0-11.0-1.25","null","<p>A másik játékos ezt választotta: <b>buhényban</b>.</p><p>&#x2705;</p><p>A te válaszod és a másik játékos válasza <b>megegyeznek</b>.</p>","null","","","","feedback trial","",""
"html-button-response-esp","63","382605","0.0-11.0-0.26","5090","Ez itt egy lismév. Ott vagyunk a...","1","lismévben","[""lismévban"",""lismévben""]","lismévban","esp trial","9","false"
"html-button-response","64","386119","0.0-11.0-1.26","null","<p>A másik játékos ezt választotta: <b>lismévban</b>.</p><p>&#10060;</p><p>A válaszaitok <b>nem</b> egyeznek meg.</p>","null","","","","feedback trial","",""
"html-button-response-esp","65","390745","0.0-11.0-0.27","2767","Ez itt egy nyábét. Ott vagyunk a...","1","nyábétban","[""nyábétben"",""nyábétban""]","nyábétban","esp trial","9","true"
"html-button-response","66","394259","0.0-11.0-1.27","null","<p>A másik játékos ezt választotta: <b>nyábétban</b>.</p><p>&#x2705;</p><p>A te válaszod és a másik játékos válasza <b>megegyeznek</b>.</p>","null","","","","feedback trial","",""
"html-button-response-esp","67","398887","0.0-11.0-0.28","3275","Ez itt egy tranék. Ott vagyunk a...","0","tranékban","[""tranékban"",""tranékben""]","tranékban","esp trial","9","true"
"html-button-response","68","402402","0.0-11.0-1.28","null","<p>A másik játékos ezt választotta: <b>tranékban</b>.</p><p>&#x2705;</p><p>A te válaszod és a másik játékos válasza <b>megegyeznek</b>.</p>","null","","","","feedback trial","",""
"html-button-response-esp","69","407021","0.0-11.0-0.29","3919","Ez itt egy klordény. Elneveztem a kutyámat...","0","klordénynak","[""klordénynak"",""klordénynek""]","klordénynak","esp trial","9","true"
"html-button-response","70","410542","0.0-11.0-1.29","null","<p>A másik játékos ezt választotta: <b>klordénynak</b>.</p><p>&#x2705;</p><p>A te válaszod és a másik játékos válasza <b>megegyeznek</b>.</p>","null","","","","feedback trial","",""
"html-button-response-esp","71","415171","0.0-11.0-0.30","3128","Ez itt egy bródesz. Elneveztem a kutyámat...","0","bródesznak","[""bródesznak"",""bródesznek""]","bródesznak","esp trial","9","true"
"html-button-response","72","418695","0.0-11.0-1.30","null","<p>A másik játékos ezt választotta: <b>bródesznak</b>.</p><p>&#x2705;</p><p>A te válaszod és a másik játékos válasza <b>megegyeznek</b>.</p>","null","","","","feedback trial","",""
"html-button-response-esp","73","423326","0.0-11.0-0.31","3292","Ez itt egy kábesz. Nincs is jobb egy jó...","0","kábesznál","[""kábesznál"",""kábesznél""]","kábesznál","esp trial","9","true"
"html-button-response","74","426848","0.0-11.0-1.31","null","<p>A másik játékos ezt választotta: <b>kábesznál</b>.</p><p>&#x2705;</p><p>A te válaszod és a másik játékos válasza <b>megegyeznek</b>.</p>","null","","","","feedback trial","",""
"html-button-response-esp","75","431462","0.0-11.0-0.32","3974","Ez itt egy vublet. Nincs is jobb egy jó...","1","vubletnál","[""vubletnél"",""vubletnál""]","vubletnál","esp trial","9","true"
"html-button-response","76","434985","0.0-11.0-1.32","null","<p>A másik játékos ezt választotta: <b>vubletnál</b>.</p><p>&#x2705;</p><p>A te válaszod és a másik játékos válasza <b>megegyeznek</b>.</p>","null","","","","feedback trial","",""
"html-button-response-esp","77","439601","0.0-11.0-0.33","4020","Ez itt egy kadér. Nincs is jobb egy jó...","0","kadérnál","[""kadérnál"",""kadérnél""]","kadérnál","esp trial","9","true"
"html-button-response","78","443115","0.0-11.0-1.33","null","<p>A másik játékos ezt választotta: <b>kadérnál</b>.</p><p>&#x2705;</p><p>A te válaszod és a másik játékos válasza <b>megegyeznek</b>.</p>","null","","","","feedback trial","",""
"html-button-response-esp","79","449805","0.0-11.0-0.34","6182","Ez itt egy szihét. Elneveztem a kutyámat...","0","szihétnek","[""szihétnek"",""szihétnak""]","szihétnek","esp trial","9","true"
"html-button-response","80","453321","0.0-11.0-1.34","null","<p>A másik játékos ezt választotta: <b>szihétnek</b>.</p><p>&#x2705;</p><p>A te válaszod és a másik játékos válasza <b>megegyeznek</b>.</p>","null","","","","feedback trial","",""
"html-button-response-esp","81","457942","0.0-11.0-0.35","3626","Ez itt egy nyarcéj. Elneveztem a kutyámat...","1","nyarcéjnak","[""nyarcéjnek"",""nyarcéjnak""]","nyarcéjnak","esp trial","9","true"
"html-button-response","82","461459","0.0-11.0-1.35","null","<p>A másik játékos ezt választotta: <b>nyarcéjnak</b>.</p><p>&#x2705;</p><p>A te válaszod és a másik játékos válasza <b>megegyeznek</b>.</p>","null","","","","feedback trial","",""
"html-button-response-esp","83","466081","0.0-11.0-0.36","4035","Ez itt egy spáten. Elneveztem a kutyámat...","1","spátennak","[""spátennek"",""spátennak""]","spátennak","esp trial","9","true"
"html-button-response","84","469610","0.0-11.0-1.36","null","<p>A másik játékos ezt választotta: <b>spátennak</b>.</p><p>&#x2705;</p><p>A te válaszod és a másik játékos válasza <b>megegyeznek</b>.</p>","null","","","","feedback trial","",""
"html-button-response-esp","85","475357","0.0-11.0-0.37","5239","Ez itt egy gonszék. Nincs is jobb egy jó...","1","gonszéknál","[""gonszéknél"",""gonszéknál""]","gonszéknál","esp trial","9","true"
"html-button-response","86","478873","0.0-11.0-1.37","null","<p>A másik játékos ezt választotta: <b>gonszéknál</b>.</p><p>&#x2705;</p><p>A te válaszod és a másik játékos válasza <b>megegyeznek</b>.</p>","null","","","","feedback trial","",""
"html-button-response-esp","87","485213","0.0-11.0-0.38","5829","Ez itt egy hivép. Ott vagyunk a...","0","hivépben","[""hivépben"",""hivépban""]","hivépban","esp trial","9","false"
"html-button-response","88","488734","0.0-11.0-1.38","null","<p>A másik játékos ezt választotta: <b>hivépban</b>.</p><p>&#10060;</p><p>A válaszaitok <b>nem</b> egyeznek meg.</p>","null","","","","feedback trial","",""
"html-button-response-esp","89","495274","0.0-11.0-0.39","6022","Ez itt egy sporzem. Elneveztem a kutyámat...","1","sporzemnek","[""sporzemnak"",""sporzemnek""]","sporzemnak","esp trial","9","false"
"html-button-response","90","498795","0.0-11.0-1.39","null","<p>A másik játékos ezt választotta: <b>sporzemnak</b>.</p><p>&#10060;</p><p>A válaszaitok <b>nem</b> egyeznek meg.</p>","null","","","","feedback trial","",""
"html-button-response-esp","91","503426","0.0-11.0-0.40","2345","Ez itt egy ronvet. Elneveztem a kutyámat...","1","ronvetnak","[""ronvetnek"",""ronvetnak""]","ronvetnak","esp trial","9","true"
"html-button-response","92","506940","0.0-11.0-1.40","null","<p>A másik játékos ezt választotta: <b>ronvetnak</b>.</p><p>&#x2705;</p><p>A te válaszod és a másik játékos válasza <b>megegyeznek</b>.</p>","null","","","","feedback trial","",""
"html-button-response-esp","93","511587","0.0-11.0-0.41","4132","Ez itt egy priszkenc. Elneveztem a kutyámat...","1","priszkencnek","[""priszkencnak"",""priszkencnek""]","priszkencnek","esp trial","9","true"
"html-button-response","94","515109","0.0-11.0-1.41","null","<p>A másik játékos ezt választotta: <b>priszkencnek</b>.</p><p>&#x2705;</p><p>A te válaszod és a másik játékos válasza <b>megegyeznek</b>.</p>","null","","","","feedback trial","",""
"html-button-response-esp","95","519739","0.0-11.0-0.42","4017","Ez itt egy jorzég. Elneveztem a kutyámat...","0","jorzégnak","[""jorzégnak"",""jorzégnek""]","jorzégnak","esp trial","9","true"
"html-button-response","96","523270","0.0-11.0-1.42","null","<p>A másik játékos ezt választotta: <b>jorzégnak</b>.</p><p>&#x2705;</p><p>A te válaszod és a másik játékos válasza <b>megegyeznek</b>.</p>","null","","","","feedback trial","",""
"html-button-response-esp","97","531298","0.0-11.0-0.43","7521","Ez itt egy jalrény. Nincs is jobb egy jó...","1","jalrénynál","[""jalrénynél"",""jalrénynál""]","jalrénynál","esp trial","9","true"
"html-button-response","98","534811","0.0-11.0-1.43","null","<p>A másik játékos ezt választotta: <b>jalrénynál</b>.</p><p>&#x2705;</p><p>A te válaszod és a másik játékos válasza <b>megegyeznek</b>.</p>","null","","","","feedback trial","",""
"html-button-response-esp","99","539625","0.0-11.0-0.44","4299","Ez itt egy kluhéj. Nincs is jobb egy jó...","0","kluhéjnál","[""kluhéjnál"",""kluhéjnél""]","kluhéjnál","esp trial","9","true"
"html-button-response","100","543142","0.0-11.0-1.44","null","<p>A másik játékos ezt választotta: <b>kluhéjnál</b>.</p><p>&#x2705;</p><p>A te válaszod és a másik játékos válasza <b>megegyeznek</b>.</p>","null","","","","feedback trial","",""
"html-button-response-esp","101","547768","0.0-11.0-0.45","3049","Ez itt egy sartely. Ott vagyunk a...","0","sartelyban","[""sartelyban"",""sartelyben""]","sartelyban","esp trial","9","true"
"html-button-response","102","551295","0.0-11.0-1.45","null","<p>A másik játékos ezt választotta: <b>sartelyban</b>.</p><p>&#x2705;</p><p>A te válaszod és a másik játékos válasza <b>megegyeznek</b>.</p>","null","","","","feedback trial","",""
"html-button-response-esp","103","557365","0.0-11.0-0.46","5555","Ez itt egy ikszert. Ott vagyunk a...","1","ikszertben","[""ikszertban"",""ikszertben""]","ikszertben","esp trial","9","true"
"html-button-response","104","560886","0.0-11.0-1.46","null","<p>A másik játékos ezt választotta: <b>ikszertben</b>.</p><p>&#x2705;</p><p>A te válaszod és a másik játékos válasza <b>megegyeznek</b>.</p>","null","","","","feedback trial","",""
"html-button-response-esp","105","565517","0.0-11.0-0.47","3011","Ez itt egy matéz. Ott vagyunk a...","0","matézban","[""matézban"",""matézben""]","matézban","esp trial","9","true"
"html-button-response","106","569026","0.0-11.0-1.47","null","<p>A másik játékos ezt választotta: <b>matézban</b>.</p><p>&#x2705;</p><p>A te válaszod és a másik játékos válasza <b>megegyeznek</b>.</p>","null","","","","feedback trial","",""
"html-button-response-esp","107","576685","0.0-11.0-0.48","7154","Ez itt egy trigenc. Elneveztem a kutyámat...","0","trigencnek","[""trigencnek"",""trigencnak""]","trigencnek","esp trial","9","true"
"html-button-response","108","580201","0.0-11.0-1.48","null","<p>A másik játékos ezt választotta: <b>trigencnek</b>.</p><p>&#x2705;</p><p>A te válaszod és a másik játékos válasza <b>megegyeznek</b>.</p>","null","","","","feedback trial","",""
"html-button-response-esp","109","587596","0.0-11.0-0.49","6884","Ez itt egy trincseg. Ott vagyunk a...","0","trincsegban","[""trincsegban"",""trincsegben""]","trincsegben","esp trial","9","false"
"html-button-response","110","591113","0.0-11.0-1.49","null","<p>A másik játékos ezt választotta: <b>trincsegben</b>.</p><p>&#10060;</p><p>A válaszaitok <b>nem</b> egyeznek meg.</p>","null","","","","feedback trial","",""
"html-button-response-esp","111","600124","0.0-11.0-0.50","8506","Ez itt egy nidét. Ott vagyunk a...","0","nidétben","[""nidétben"",""nidétban""]","nidétben","esp trial","9","true"
"html-button-response","112","603635","0.0-11.0-1.50","null","<p>A másik játékos ezt választotta: <b>nidétben</b>.</p><p>&#x2705;</p><p>A te válaszod és a másik játékos válasza <b>megegyeznek</b>.</p>","null","","","","feedback trial","",""
"html-button-response-esp","113","608628","0.0-11.0-0.51","4485","Ez itt egy trapszegy. Nincs is jobb egy jó...","0","trapszegynál","[""trapszegynál"",""trapszegynél""]","trapszegynál","esp trial","9","true"
"html-button-response","114","612142","0.0-11.0-1.51","null","<p>A másik játékos ezt választotta: <b>trapszegynál</b>.</p><p>&#x2705;</p><p>A te válaszod és a másik játékos válasza <b>megegyeznek</b>.</p>","null","","","","feedback trial","",""
"html-button-response-esp","115","617301","0.0-11.0-0.52","4647","Ez itt egy csimen. Nincs is jobb egy jó...","0","csimennél","[""csimennél"",""csimennál""]","csimennél","esp trial","9","true"
"html-button-response","116","620818","0.0-11.0-1.52","null","<p>A másik játékos ezt választotta: <b>csimennél</b>.</p><p>&#x2705;</p><p>A te válaszod és a másik játékos válasza <b>megegyeznek</b>.</p>","null","","","","feedback trial","",""
"html-button-response-esp","117","625443","0.0-11.0-0.53","3758","Ez itt egy tránély. Elneveztem a kutyámat...","0","tránélynak","[""tránélynak"",""tránélynek""]","tránélynak","esp trial","9","true"
"html-button-response","118","628957","0.0-11.0-1.53","null","<p>A másik játékos ezt választotta: <b>tránélynak</b>.</p><p>&#x2705;</p><p>A te válaszod és a másik játékos válasza <b>megegyeznek</b>.</p>","null","","","","feedback trial","",""
"html-button-response","119","636276","0.0-12.0","6811","<p>A közös játék most véget ért.</p><p>Mielőtt eláruljuk a végső pontszámodat, arra kérlek, játszd a szóválasztós játékot néhány percig egyedül is.</p><p>A feladatod ugyanaz lesz, választani két lehetőség közül.</p><p>Most viszont egyedül kell döntened, hogy te melyiket választanád.</p>","0","","","","","",""
"html-button-response-clever","120","644413","0.0-13.0-0.0","7632","Ez itt egy monveg. Nincs is jobb egy jó...","1","monvegnál","[""monvegnél"",""monvegnál""]","","posttest trial","1",""
"html-button-response-clever","121","650852","0.0-13.0-0.1","5926","Ez itt egy incéj. Elneveztem a kutyámat...","1","incéjnek","[""incéjnak"",""incéjnek""]","","posttest trial","1",""
"html-button-response-clever","122","661988","0.0-13.0-0.2","10630","Ez itt egy zihenc. Elneveztem a kutyámat...","0","zihencnek","[""zihencnek"",""zihencnak""]","","posttest trial","1",""
"html-button-response-clever","123","667060","0.0-13.0-0.3","4563","Ez itt egy spumény. Elneveztem a kutyámat...","1","spuménynak","[""spuménynek"",""spuménynak""]","","posttest trial","1",""
"html-button-response-clever","124","670452","0.0-13.0-0.4","2888","Ez itt egy dorzéj. Elneveztem a kutyámat...","1","dorzéjnak","[""dorzéjnek"",""dorzéjnak""]","","posttest trial","1",""
"html-button-response-clever","125","674887","0.0-13.0-0.5","3930","Ez itt egy lorzens. Nincs is jobb egy jó...","1","lorzensnél","[""lorzensnál"",""lorzensnél""]","","posttest trial","1",""
"html-button-response-clever","126","679487","0.0-13.0-0.6","4094","Ez itt egy dábegy. Ott vagyunk a...","0","dábegyban","[""dábegyban"",""dábegyben""]","","posttest trial","1",""
"html-button-response-clever","127","683647","0.0-13.0-0.7","3651","Ez itt egy tosély. Ott vagyunk a...","1","tosélyban","[""tosélyben"",""tosélyban""]","","posttest trial","1",""
"html-button-response-clever","128","687687","0.0-13.0-0.8","3528","Ez itt egy darhén. Ott vagyunk a...","1","darhénban","[""darhénben"",""darhénban""]","","posttest trial","1",""
"html-button-response-clever","129","692342","0.0-13.0-0.9","4151","Ez itt egy danét. Nincs is jobb egy jó...","0","danétnál","[""danétnál"",""danétnél""]","","posttest trial","1",""
"html-button-response-clever","130","696463","0.0-13.0-0.10","3612","Ez itt egy kaszép. Elneveztem a kutyámat...","1","kaszépnak","[""kaszépnek"",""kaszépnak""]","","posttest trial","1",""
"html-button-response-clever","131","704622","0.0-13.0-0.11","7652","Ez itt egy zsigén. Nincs is jobb egy jó...","1","zsigénnél","[""zsigénnál"",""zsigénnél""]","","posttest trial","1",""
"html-button-response-clever","132","708430","0.0-13.0-0.12","3294","Ez itt egy brindez. Elneveztem a kutyámat...","0","brindeznek","[""brindeznek"",""brindeznak""]","","posttest trial","1",""
"html-button-response-clever","133","714262","0.0-13.0-0.13","5325","Ez itt egy trismél. Elneveztem a kutyámat...","1","trismélnek","[""trismélnak"",""trismélnek""]","","posttest trial","1",""
"html-button-response-clever","134","719742","0.0-13.0-0.14","4970","Ez itt egy trájeg. Ott vagyunk a...","0","trájegban","[""trájegban"",""trájegben""]","","posttest trial","1",""
"html-button-response-clever","135","724709","0.0-13.0-0.15","4457","Ez itt egy kátel. Elneveztem a kutyámat...","0","kátelnak","[""kátelnak"",""kátelnek""]","","posttest trial","1",""
"html-button-response-clever","136","729006","0.0-13.0-0.16","3791","Ez itt egy dihely. Elneveztem a kutyámat...","0","dihelynek","[""dihelynek"",""dihelynak""]","","posttest trial","1",""
"html-button-response-clever","137","732244","0.0-13.0-0.17","2719","Ez itt egy jóbec. Elneveztem a kutyámat...","1","jóbecnak","[""jóbecnek"",""jóbecnak""]","","posttest trial","1",""
"html-button-response-clever","138","737451","0.0-13.0-0.18","4701","Ez itt egy spábét. Ott vagyunk a...","0","spábétban","[""spábétban"",""spábétben""]","","posttest trial","1",""
"html-button-response-clever","139","740787","0.0-13.0-0.19","2827","Ez itt egy kalhész. Elneveztem a kutyámat...","1","kalhésznak","[""kalhésznek"",""kalhésznak""]","","posttest trial","1",""
"html-button-response-clever","140","743810","0.0-13.0-0.20","2518","Ez itt egy nyamet. Ott vagyunk a...","1","nyametban","[""nyametben"",""nyametban""]","","posttest trial","1",""
"html-button-response-clever","141","750507","0.0-13.0-0.21","6184","Ez itt egy pisély. Ott vagyunk a...","1","pisélyban","[""pisélyben"",""pisélyban""]","","posttest trial","1",""
"html-button-response-clever","142","754539","0.0-13.0-0.22","3521","Ez itt egy nyupér. Nincs is jobb egy jó...","0","nyupérnál","[""nyupérnál"",""nyupérnél""]","","posttest trial","1",""
"html-button-response-clever","143","759795","0.0-13.0-0.23","4745","Ez itt egy priszec. Ott vagyunk a...","0","priszecben","[""priszecben"",""priszecban""]","","posttest trial","1",""
"html-button-response-clever","144","762498","0.0-13.0-0.24","2198","Ez itt egy gúden. Ott vagyunk a...","0","gúdenban","[""gúdenban"",""gúdenben""]","","posttest trial","1",""
"html-button-response-clever","145","767019","0.0-13.0-0.25","4013","Ez itt egy zsádév. Elneveztem a kutyámat...","1","zsádévnak","[""zsádévnek"",""zsádévnak""]","","posttest trial","1",""
"html-button-response-clever","146","771106","0.0-13.0-0.26","3574","Ez itt egy klosét. Elneveztem a kutyámat...","0","klosétnak","[""klosétnak"",""klosétnek""]","","posttest trial","1",""
"html-button-response-clever","147","775331","0.0-13.0-0.27","3709","Ez itt egy klingesz. Ott vagyunk a...","0","klingeszben","[""klingeszben"",""klingeszban""]","","posttest trial","1",""
"html-button-response-clever","148","783858","0.0-13.0-0.28","8022","Ez itt egy fájéz. Ott vagyunk a...","0","fájézban","[""fájézban"",""fájézben""]","","posttest trial","1",""
"html-button-response-clever","149","786946","0.0-13.0-0.29","2573","Ez itt egy nyítem. Ott vagyunk a...","1","nyítemben","[""nyítemban"",""nyítemben""]","","posttest trial","1",""
"html-button-response-clever","150","791395","0.0-13.0-0.30","3939","Ez itt egy garcép. Nincs is jobb egy jó...","0","garcépnál","[""garcépnál"",""garcépnél""]","","posttest trial","1",""
"html-button-response-clever","151","796103","0.0-13.0-0.31","4200","Ez itt egy sprivenc. Nincs is jobb egy jó...","0","sprivencnél","[""sprivencnél"",""sprivencnál""]","","posttest trial","1",""
"html-button-response-clever","152","799759","0.0-13.0-0.32","3146","Ez itt egy bupéz. Ott vagyunk a...","1","bupézban","[""bupézben"",""bupézban""]","","posttest trial","1",""
"html-button-response-clever","153","803782","0.0-13.0-0.33","3511","Ez itt egy jukél. Nincs is jobb egy jó...","1","jukélnál","[""jukélnél"",""jukélnál""]","","posttest trial","1",""
"html-button-response-clever","154","808119","0.0-13.0-0.34","3824","Ez itt egy bralkép. Ott vagyunk a...","1","bralképben","[""bralképban"",""bralképben""]","","posttest trial","1",""
"html-button-response-clever","155","811975","0.0-13.0-0.35","3341","Ez itt egy rapszek. Nincs is jobb egy jó...","1","rapszeknál","[""rapszeknél"",""rapszeknál""]","","posttest trial","1",""
"html-button-response-clever","156","818447","0.0-13.0-0.36","5961","Ez itt egy vorszen. Nincs is jobb egy jó...","1","vorszennál","[""vorszennél"",""vorszennál""]","","posttest trial","1",""
"html-button-response-clever","157","826238","0.0-13.0-0.37","7276","Ez itt egy zsáder. Ott vagyunk a...","0","zsáderban","[""zsáderban"",""zsáderben""]","","posttest trial","1",""
"html-button-response-clever","158","829014","0.0-13.0-0.38","2260","Ez itt egy ítens. Ott vagyunk a...","1","ítensben","[""ítensban"",""ítensben""]","","posttest trial","1",""
"html-button-response-clever","159","833407","0.0-13.0-0.39","3884","Ez itt egy spanél. Nincs is jobb egy jó...","1","spanélnél","[""spanélnál"",""spanélnél""]","","posttest trial","1",""
"html-button-response-clever","160","837670","0.0-13.0-0.40","3750","Ez itt egy kalréz. Ott vagyunk a...","1","kalrézban","[""kalrézben"",""kalrézban""]","","posttest trial","1",""
"html-button-response-clever","161","840255","0.0-13.0-0.41","2075","Ez itt egy ronszek. Ott vagyunk a...","1","ronszekban","[""ronszekben"",""ronszekban""]","","posttest trial","1",""
"html-button-response-clever","162","847062","0.0-13.0-0.42","6296","Ez itt egy dalenc. Nincs is jobb egy jó...","1","dalencnál","[""dalencnél"",""dalencnál""]","","posttest trial","1",""
"html-button-response-clever","163","851646","0.0-13.0-0.43","4075","Ez itt egy narem. Ott vagyunk a...","0","naremben","[""naremben"",""naremban""]","","posttest trial","1",""
"html-button-response-clever","164","855550","0.0-13.0-0.44","3395","Ez itt egy pivéd. Ott vagyunk a...","0","pivédben","[""pivédben"",""pivédban""]","","posttest trial","1",""
"html-button-response-clever","165","860045","0.0-13.0-0.45","3981","Ez itt egy hágyét. Elneveztem a kutyámat...","1","hágyétnak","[""hágyétnek"",""hágyétnak""]","","posttest trial","1",""
"html-button-response-clever","166","867211","0.0-13.0-0.46","6659","Ez itt egy braszenc. Nincs is jobb egy jó...","0","braszencnál","[""braszencnál"",""braszencnél""]","","posttest trial","1",""
"html-button-response-clever","167","873421","0.0-13.0-0.47","5692","Ez itt egy sortem. Nincs is jobb egy jó...","0","sortemnál","[""sortemnál"",""sortemnél""]","","posttest trial","1",""
"html-button-response-clever","168","877701","0.0-13.0-0.48","3775","Ez itt egy pítend. Ott vagyunk a...","1","pítendben","[""pítendban"",""pítendben""]","","posttest trial","1",""
"html-button-response-clever","169","883884","0.0-13.0-0.49","5670","Ez itt egy zopély. Nincs is jobb egy jó...","0","zopélynál","[""zopélynál"",""zopélynél""]","","posttest trial","1",""
"html-button-response-clever","170","890691","0.0-13.0-0.50","6298","Ez itt egy luméz. Ott vagyunk a...","0","lumézban","[""lumézban"",""lumézben""]","","posttest trial","1",""
"html-button-response-clever","171","894668","0.0-13.0-0.51","3467","Ez itt egy spicet. Elneveztem a kutyámat...","1","spicetnek","[""spicetnak"",""spicetnek""]","","posttest trial","1",""
"html-button-response-clever","172","900428","0.0-13.0-0.52","5250","Ez itt egy zsúdel. Elneveztem a kutyámat...","0","zsúdelnak","[""zsúdelnak"",""zsúdelnek""]","","posttest trial","1",""
"html-button-response-clever","173","905828","0.0-13.0-0.53","4892","Ez itt egy pijél. Nincs is jobb egy jó...","1","pijélnál","[""pijélnél"",""pijélnál""]","","posttest trial","1",""
"html-button-response","174","913508","0.0-14.0","7171","<p> Vége a játéknak. A teljes pontszámod 47/54.</p><p> Szép munka! &#128526;&#128526;&#128526;</p><p>A Befejezés gomb megnyomása után bezárhatod a böngészőablakot.</p>","0","","","","","",""
"html-keyboard-response","175","919025","0.0-15.0","null","<div class=""message"">
         <p>Egy kis türelmet kérünk, amíg elmentjük az adatokat...</p>
         </div>","null","","","","","",""
