"trial_type","trial_index","time_elapsed","internal_node_id","rt","stimulus","response","response_string","choices","esp_response","trial_kind","list_number","esp_match"
"pavlovia","0","749","0.0-0.0","","","","","","","","",""
"html-button-response","1","16989","0.0-1.0","15712","<p>Kedves Résztvevő! A Budapesti Műszaki és Gazdaságtudományi Egyetem Kognitív Tudományi Tanszékének kutatásában való részvételed kérjük. A kutatásban azt vizsgáljuk, hogy a magyar anyanyelvűek hogyan használnak bizonyos szóalakokat, és hogy milyen képük van arról, hogy mások hogyan használják, hogyan képzik a szavakat. Ez hozzásegít bennünket ahhoz, hogy jobban megértsük, hogyan dolgozza fel és tárolja a nyelvet az emberi agy, és hogyan működnek, hogyan változnak egy adott közösség nyelvi konvenciói.</p><p>A vizsgálat egy rövid számítógépes feladatból fog állni. A kutatásban való részvétel önkéntes, a részvételi szándék bármikor visszavonható. A résztvevők eredményeit név nélkül kezeljük, így nem beazonosíthatók az adatok feldolgozása során. Minden személyes adatot az EU általános adatvédelmi rendeletének (GDPR) megfelelően kezelünk és legfeljebb öt éven belül megsemmisítünk. A vizsgálat jellemzően húsz percet vesz igénybe.</p><p>Kutatásvezető:</p><p>Dr. Rácz Péter, tudományos munkatárs, BME KTT</p><p>e-mail: racz.peter.marton@ttk.bme.hu</p>","0","","","","","",""
"html-button-response","2","31271","0.0-2.0","13760","<p>A kísérletben szavakat fogsz látni. Ezek között lesznek olyanok, amelyeket ismersz, de előfordulhatnak olyanok is, amelyeket nem ismersz, sőt, vannak köztük kitalált szavak is. Minden szónál látni fogsz toldalékolt alakokat. A te feladatod az lesz, hogy minden szóhoz kiválaszd azt a toldalékolt alakot, amely a te számodra ismerősebben, természetesebben hangzik. Rossz válaszok nincsenek, mert van olyan, hogy különböző embereknek más és más szó tűnik jobb választásnak. A választ úgy tudod majd kiválasztani, ha rákattintasz.</p><p>Ebben a szóválasztós játékban egy másik játékossal együtt veszel majd részt. A másik játékos is minden esetben azok közül a lehetőségek közül válogathat, mint te. Kettőtök feladata az, hogy ugyanazt a lehetőséget válasszátok minden esetben. Ahhoz, hogy ez sikerüljön, neked figyelned kell arra, hogy a másik játékos milyen válaszokat ad, és ennek alapján meg kell tippelned, hogyan választ legközelebb. Ha eltalálod, akkor pontot kapsz.</p>","0","","","","","",""
"html-button-response","3","36189","0.0-3.0","4402","<p>Kérjük, olvasd el az alábbi nyilatkozatot, és amennyiben egyetértesz vele, nyomj a Beleegyezés gombra!</p><p>Kijelentem, hogy magyar anyanyelvű személyként önként veszek részt a BME KTT kísérletében. A kutatás céljával és folyamatával kapcsolatban elegendő tájékoztatást kaptam, lehetőségem volt kérdések feltételére, és esetleges kérdéseimre megfelelő válaszokat kaptam. A tájékoztatás alapján elegendő mennyiségű információ áll a rendelkezésemre, hogy eldönthessem, részt kívánok-e venni a kutatásban.</p><p>Tisztában vagyok vele, hogy részvételi szándékomat és adataimat bármikor, indoklás nélkül visszavonhatom.</p><p>Értem és tudomásul veszem, hogy a kutatás tudományos célokat szolgál, és az általam szolgáltatott adatokat a BME kizárólag kutatási célból használja fel. Tudomásul veszem, hogy eredményeimet a többi résztvevő eredményeivel együtt kezelik, így egyéni teljesítményemről visszajelzést, szakvéleményt nem kapok.</p><p>Megértettem, hogy adataim kezelését illetően a BME az EU általános adatvédelmi rendelete (GDPR), a hatályos adatvédelmi törvény és a nemzetközi kutatás-etikai alapelvek szerint jár el. Eredményeim anonim módon kerülnek feldolgozásra, és a kutatás résztvevői az azonosításomra alkalmas adataimat harmadik félnek nem szolgáltatják ki. Engedélyezem a BME számára a jelen kutatásban felvett adataim feldolgozását és tárolását, beleértve azok későbbi kutatásokhoz való felhasználását is. Személyes adataim kezelésével kapcsolatban tájékoztatást kérhetek a kutatás résztvevőitől, az adatkezelés ellen tiltakozhatok, kérhetem személyes adataim helyesbítését, törlését vagy zárolását, valamint jogorvoslatért a Nemzeti Adatvédelmi és Információszabadság Hatósághoz fordulhatok.</p><p>Kijelentem, hogy a kutatásban való részvételem körülményeiről részletes tájékoztatást kaptam, és a feltételeket elfogadom.</p>","0","","","","","",""
"survey-text","4","150095","0.0-4.0","113364","","{""Q0"":""T0N5V4"",""Q1"":"""",""Q2"":""1995"",""Q3"":""16""}","","","","","",""
"html-button-response","5","228370","0.0-5.0","77755","<p>Ebben a játékban szavakat kell toldalékolni.</p> <p>Minden körben mutatunk majd egy példamondatot, amiben lesz egy szó.</p> <p>Alatta jön egy második mondat, ezt a mondatot neked kell majd befejezni, ugyanezzel a szóval.</p> <p>Nem biztos, hogy a szó eleve ismerős lesz számodra!</p> <p>Minden mondathoz adunk két lehetőséget, ezeket balra és jobbra látod majd.</p> <p>A játék kb. negyedóráig-húsz percig tart.</p>","0","","","","","",""
"html-button-response","6","374195","0.0-6.0","145307","<p>Nézzünk egy példát!</p> <p>A példamondat: ""János imád fláramolni, ezért sokat fláramlik. Mi ritkán...""</p><p>Neked ezt a mondatot kell befejezned: ""Ti ritkán...""</p><p>A lehetőségek pedig ezek:</p>","0","","","","","",""
"html-button-response","7","379604","0.0-7.0","4889","<p>Nagyon jó.</p><p>Ezt a játékot nem egyedül fogod játszani, hanem egy másik játékossal.</p><p>Mielőtt továbblépünk, összekapcsolunk titeket egymással.</p><p>Ez igénybe vehet néhány másodpercet, amihez szíves türelmed kérjük.</p>","0","","","","","",""
"html-button-response","8","385352","0.0-8.0","null","<p>Csatlakozás a másik játékoshoz...</p>","null","","","","","",""
"html-button-response","9","387867","0.0-9.0","null","<p> Sikeres kapcsolódás!</p>","null","","","","","",""
"html-button-response","10","394979","0.0-10.0","6602","<p>A következőkben ketten játsszátok a szóválasztós játékot.</p><p>A feladatotok az lesz, hogy minden körben <b>ugyanazt</b> a szót válasszátok.</p><p>Minden ilyen egyező válaszért pontot kaptok.</p><p>Próbáld meg kitalálni, mit választ a másik játékos!</p><p>Bármikor választhatsz, a körnek akkor van vége, ha mindketten döntöttetek.</p><p>Sok sikert!</p>","0","","","","","",""
"html-button-response-esp","11","405260","0.0-11.0-0.0","9740","János imád drilarozni, ezért sokat drilarzik. Mi ritkán...","0","drilarozunk","[""drilarozunk"",""drilarzunk""]","drilarzunk","esp trial","4","false"
"html-button-response","12","408795","0.0-11.0-1.0","null","<p>A másik játékos ezt választotta: <b>drilarzunk</b>.</p><p>&#10060;</p><p>A válaszaitok <b>nem</b> egyeznek meg.</p>","null","","","","feedback trial","",""
"html-button-response-esp","13","420213","0.0-11.0-0.1","10902","János imád dujozni, ezért sokat dujzik. Ők ritkán...","0","dujoznak","[""dujoznak"",""dujzanak""]","dujzanak","esp trial","4","false"
"html-button-response","14","423742","0.0-11.0-1.1","null","<p>A másik játékos ezt választotta: <b>dujzanak</b>.</p><p>&#10060;</p><p>A válaszaitok <b>nem</b> egyeznek meg.</p>","null","","","","feedback trial","",""
"html-button-response-esp","15","440692","0.0-11.0-0.2","16437","János imád spiharozni, ezért sokat spiharzik. Ti ritkán...","0","spiharzotok","[""spiharzotok"",""spiharoztok""]","spiharzotok","esp trial","4","true"
"html-button-response","16","444212","0.0-11.0-1.2","null","<p>A másik játékos ezt választotta: <b>spiharzotok</b>.</p><p>&#x2705;</p><p>A te válaszod és a másik játékos válasza <b>megegyeznek</b>.</p>","null","","","","feedback trial","",""
"html-button-response-esp","17","452617","0.0-11.0-0.3","6464","János imád mágamozni, ezért sokat mágamlik. Mi ritkán...","0","mágamlunk","[""mágamlunk"",""mágamozunk""]","mágamozunk","esp trial","4","false"
"html-button-response","18","456137","0.0-11.0-1.3","null","<p>A másik játékos ezt választotta: <b>mágamozunk</b>.</p><p>&#10060;</p><p>A válaszaitok <b>nem</b> egyeznek meg.</p>","null","","","","feedback trial","",""
"html-button-response-esp","19","464547","0.0-11.0-0.4","5006","János imád dirozni, ezért sokat dirlik. Ti ritkán...","0","dirlotok","[""dirlotok"",""diroztok""]","dirlotok","esp trial","4","true"
"html-button-response","20","468069","0.0-11.0-1.4","null","<p>A másik játékos ezt választotta: <b>dirlotok</b>.</p><p>&#x2705;</p><p>A te válaszod és a másik játékos válasza <b>megegyeznek</b>.</p>","null","","","","feedback trial","",""
"html-button-response-esp","21","476480","0.0-11.0-0.5","5925","János imád frálapodni, ezért sokat frálapszik. Ti ritkán...","1","frálapszotok","[""frálapodtok"",""frálapszotok""]","frálapodtok","esp trial","4","false"
"html-button-response","22","479997","0.0-11.0-1.5","null","<p>A másik játékos ezt választotta: <b>frálapodtok</b>.</p><p>&#10060;</p><p>A válaszaitok <b>nem</b> egyeznek meg.</p>","null","","","","feedback trial","",""
"html-button-response-esp","23","488400","0.0-11.0-0.6","6211","János imád brözözni, ezért sokat brözlik. Ti ritkán...","1","brözöztök","[""brözlötök"",""brözöztök""]","brözlötök","esp trial","4","false"
"html-button-response","24","491924","0.0-11.0-1.6","null","<p>A másik játékos ezt választotta: <b>brözlötök</b>.</p><p>&#10060;</p><p>A válaszaitok <b>nem</b> egyeznek meg.</p>","null","","","","feedback trial","",""
"html-button-response-esp","25","500330","0.0-11.0-0.7","3338","János imád flemezni, ezért sokat flemlik. Mi ritkán...","0","flemlünk","[""flemlünk"",""flemezünk""]","flemlünk","esp trial","4","true"
"html-button-response","26","503851","0.0-11.0-1.7","null","<p>A másik játékos ezt választotta: <b>flemlünk</b>.</p><p>&#x2705;</p><p>A te válaszod és a másik játékos válasza <b>megegyeznek</b>.</p>","null","","","","feedback trial","",""
"html-button-response-esp","27","512251","0.0-11.0-0.8","7693","János imád flöközni, ezért sokat flöklik. Ti ritkán...","1","flököztök","[""flöklötök"",""flököztök""]","flöklötök","esp trial","4","false"
"html-button-response","28","515773","0.0-11.0-1.8","null","<p>A másik játékos ezt választotta: <b>flöklötök</b>.</p><p>&#10060;</p><p>A válaszaitok <b>nem</b> egyeznek meg.</p>","null","","","","feedback trial","",""
"html-button-response-esp","29","524188","0.0-11.0-0.9","4234","János imád drűrözni, ezért sokat drűrzik. Ők ritkán...","1","drűrzenek","[""drűröznek"",""drűrzenek""]","drűrzenek","esp trial","4","true"
"html-button-response","30","527712","0.0-11.0-1.9","null","<p>A másik játékos ezt választotta: <b>drűrzenek</b>.</p><p>&#x2705;</p><p>A te válaszod és a másik játékos válasza <b>megegyeznek</b>.</p>","null","","","","feedback trial","",""
"html-button-response-esp","31","536127","0.0-11.0-0.10","4527","János imád püzözni, ezért sokat püzlik. Ti ritkán...","0","püzlötök","[""püzlötök"",""püzöztök""]","püzlötök","esp trial","4","true"
"html-button-response","32","539647","0.0-11.0-1.10","null","<p>A másik játékos ezt választotta: <b>püzlötök</b>.</p><p>&#x2705;</p><p>A te válaszod és a másik játékos válasza <b>megegyeznek</b>.</p>","null","","","","feedback trial","",""
"html-button-response-esp","33","548050","0.0-11.0-0.11","3807","János imád prögözni, ezért sokat prögzik. Ti ritkán...","0","prögzötök","[""prögzötök"",""prögöztök""]","prögzötök","esp trial","4","true"
"html-button-response","34","551583","0.0-11.0-1.11","null","<p>A másik játékos ezt választotta: <b>prögzötök</b>.</p><p>&#x2705;</p><p>A te válaszod és a másik játékos válasza <b>megegyeznek</b>.</p>","null","","","","feedback trial","",""
"html-button-response-esp","35","559992","0.0-11.0-0.12","4322","János imád sprozozni, ezért sokat sprozlik. Ők ritkán...","1","sprozlanak","[""sprozoznak"",""sprozlanak""]","sprozlanak","esp trial","4","true"
"html-button-response","36","563511","0.0-11.0-1.12","null","<p>A másik játékos ezt választotta: <b>sprozlanak</b>.</p><p>&#x2705;</p><p>A te válaszod és a másik játékos válasza <b>megegyeznek</b>.</p>","null","","","","feedback trial","",""
"html-button-response-esp","37","571916","0.0-11.0-0.13","5520","János imád brivakozni, ezért sokat brivaklik. Ti ritkán...","1","brivaklotok","[""brivakoztok"",""brivaklotok""]","brivaklotok","esp trial","4","true"
"html-button-response","38","575436","0.0-11.0-1.13","null","<p>A másik játékos ezt választotta: <b>brivaklotok</b>.</p><p>&#x2705;</p><p>A te válaszod és a másik játékos válasza <b>megegyeznek</b>.</p>","null","","","","feedback trial","",""
"html-button-response-esp","39","583845","0.0-11.0-0.14","3495","János imád lűközni, ezért sokat lűklik. Ők ritkán...","1","lűklenek","[""lűköznek"",""lűklenek""]","lűklenek","esp trial","4","true"
"html-button-response","40","587376","0.0-11.0-1.14","null","<p>A másik játékos ezt választotta: <b>lűklenek</b>.</p><p>&#x2705;</p><p>A te válaszod és a másik játékos válasza <b>megegyeznek</b>.</p>","null","","","","feedback trial","",""
"html-button-response-esp","41","595810","0.0-11.0-0.15","5447","János imád nyivágozni, ezért sokat nyivágzik. Mi ritkán...","1","nyivágzunk","[""nyivágozunk"",""nyivágzunk""]","nyivágozunk","esp trial","4","false"
"html-button-response","42","599332","0.0-11.0-1.15","null","<p>A másik játékos ezt választotta: <b>nyivágozunk</b>.</p><p>&#10060;</p><p>A válaszaitok <b>nem</b> egyeznek meg.</p>","null","","","","feedback trial","",""
"html-button-response-esp","43","607741","0.0-11.0-0.16","5587","János imád pilégedni, ezért sokat pilégszik. Ők ritkán...","1","pilégszenek","[""pilégednek"",""pilégszenek""]","pilégednek","esp trial","4","false"
"html-button-response","44","611273","0.0-11.0-1.16","null","<p>A másik játékos ezt választotta: <b>pilégednek</b>.</p><p>&#10060;</p><p>A válaszaitok <b>nem</b> egyeznek meg.</p>","null","","","","feedback trial","",""
"html-button-response-esp","45","619679","0.0-11.0-0.17","5612","János imád sprűrözni, ezért sokat sprűrlik. Ők ritkán...","0","sprűröznek","[""sprűröznek"",""sprűrlenek""]","sprűrlenek","esp trial","4","false"
"html-button-response","46","623198","0.0-11.0-1.17","null","<p>A másik játékos ezt választotta: <b>sprűrlenek</b>.</p><p>&#10060;</p><p>A válaszaitok <b>nem</b> egyeznek meg.</p>","null","","","","feedback trial","",""
"html-button-response-esp","47","638487","0.0-11.0-0.18","14779","János imád spirágozni, ezért sokat spiráglik. Ti ritkán...","1","spirágoztok","[""spiráglotok"",""spirágoztok""]","spiráglotok","esp trial","4","false"
"html-button-response","48","642002","0.0-11.0-1.18","null","<p>A másik játékos ezt választotta: <b>spiráglotok</b>.</p><p>&#10060;</p><p>A válaszaitok <b>nem</b> egyeznek meg.</p>","null","","","","feedback trial","",""
"html-button-response-esp","49","650403","0.0-11.0-0.19","3930","János imád lájozni, ezért sokat lájzik. Ti ritkán...","1","lájzotok","[""lájoztok"",""lájzotok""]","lájoztok","esp trial","4","false"
"html-button-response","50","653916","0.0-11.0-1.19","null","<p>A másik játékos ezt választotta: <b>lájoztok</b>.</p><p>&#10060;</p><p>A válaszaitok <b>nem</b> egyeznek meg.</p>","null","","","","feedback trial","",""
"html-button-response-esp","51","662316","0.0-11.0-0.20","5812","János imád virozni, ezért sokat virzik. Ők ritkán...","0","virzanak","[""virzanak"",""viroznak""]","virzanak","esp trial","4","true"
"html-button-response","52","665841","0.0-11.0-1.20","null","<p>A másik játékos ezt választotta: <b>virzanak</b>.</p><p>&#x2705;</p><p>A te válaszod és a másik játékos válasza <b>megegyeznek</b>.</p>","null","","","","feedback trial","",""
"html-button-response-esp","53","674244","0.0-11.0-0.21","4921","János imád spibegezni, ezért sokat spibeglik. Mi ritkán...","1","spibeglünk","[""spibegezünk"",""spibeglünk""]","spibegezünk","esp trial","4","false"
"html-button-response","54","677760","0.0-11.0-1.21","null","<p>A másik játékos ezt választotta: <b>spibegezünk</b>.</p><p>&#10060;</p><p>A válaszaitok <b>nem</b> egyeznek meg.</p>","null","","","","feedback trial","",""
"html-button-response-esp","55","686164","0.0-11.0-0.22","1277","János imád nyürözni, ezért sokat nyürzik. Ők ritkán...","1","nyürzenek","[""nyüröznek"",""nyürzenek""]","nyürzenek","esp trial","4","true"
"html-button-response","56","689681","0.0-11.0-1.22","null","<p>A másik játékos ezt választotta: <b>nyürzenek</b>.</p><p>&#x2705;</p><p>A te válaszod és a másik játékos válasza <b>megegyeznek</b>.</p>","null","","","","feedback trial","",""
"html-button-response-esp","57","698087","0.0-11.0-0.23","1028","János imád fröjözni, ezért sokat fröjzik. Ti ritkán...","0","fröjzötök","[""fröjzötök"",""fröjöztök""]","fröjzötök","esp trial","4","true"
"html-button-response","58","701604","0.0-11.0-1.23","null","<p>A másik játékos ezt választotta: <b>fröjzötök</b>.</p><p>&#x2705;</p><p>A te válaszod és a másik játékos válasza <b>megegyeznek</b>.</p>","null","","","","feedback trial","",""
"html-button-response-esp","59","710013","0.0-11.0-0.24","747","János imád trikozni, ezért sokat triklik. Ti ritkán...","1","triklotok","[""trikoztok"",""triklotok""]","trikoztok","esp trial","4","false"
"html-button-response","60","713530","0.0-11.0-1.24","null","<p>A másik játékos ezt választotta: <b>trikoztok</b>.</p><p>&#10060;</p><p>A válaszaitok <b>nem</b> egyeznek meg.</p>","null","","","","feedback trial","",""
"html-button-response-esp","61","721938","0.0-11.0-0.25","922","János imád frakozni, ezért sokat fraklik. Mi ritkán...","1","frakozunk","[""fraklunk"",""frakozunk""]","fraklunk","esp trial","4","false"
"html-button-response","62","725453","0.0-11.0-1.25","null","<p>A másik játékos ezt választotta: <b>fraklunk</b>.</p><p>&#10060;</p><p>A válaszaitok <b>nem</b> egyeznek meg.</p>","null","","","","feedback trial","",""
"html-button-response-esp","63","733858","0.0-11.0-0.26","3719","János imád dilakozni, ezért sokat dilaklik. Ti ritkán...","0","dilaklotok","[""dilaklotok"",""dilakoztok""]","dilaklotok","esp trial","4","true"
"html-button-response","64","737381","0.0-11.0-1.26","null","<p>A másik játékos ezt választotta: <b>dilaklotok</b>.</p><p>&#x2705;</p><p>A te válaszod és a másik játékos válasza <b>megegyeznek</b>.</p>","null","","","","feedback trial","",""
"html-button-response-esp","65","745784","0.0-11.0-0.27","2928","János imád kűdözni, ezért sokat kűdlik. Ők ritkán...","0","kűdlenek","[""kűdlenek"",""kűdöznek""]","kűdöznek","esp trial","4","false"
"html-button-response","66","749305","0.0-11.0-1.27","null","<p>A másik játékos ezt választotta: <b>kűdöznek</b>.</p><p>&#10060;</p><p>A válaszaitok <b>nem</b> egyeznek meg.</p>","null","","","","feedback trial","",""
"html-button-response-esp","67","757709","0.0-11.0-0.28","5255","János imád trugozni, ezért sokat trugzik. Ők ritkán...","1","trugzanak","[""trugoznak"",""trugzanak""]","trugzanak","esp trial","4","true"
"html-button-response","68","761237","0.0-11.0-1.28","null","<p>A másik játékos ezt választotta: <b>trugzanak</b>.</p><p>&#x2705;</p><p>A te válaszod és a másik játékos válasza <b>megegyeznek</b>.</p>","null","","","","feedback trial","",""
"html-button-response-esp","69","769644","0.0-11.0-0.29","5019","János imád molodni, ezért sokat molszik. Ti ritkán...","0","molodtok","[""molodtok"",""molszotok""]","molodtok","esp trial","4","true"
"html-button-response","70","773165","0.0-11.0-1.29","null","<p>A másik játékos ezt választotta: <b>molodtok</b>.</p><p>&#x2705;</p><p>A te válaszod és a másik játékos válasza <b>megegyeznek</b>.</p>","null","","","","feedback trial","",""
"html-button-response-esp","71","781574","0.0-11.0-0.30","6247","János imád gyihegezni, ezért sokat gyihegzik. Ti ritkán...","0","gyihegzetek","[""gyihegzetek"",""gyihegeztek""]","gyihegzetek","esp trial","4","true"
"html-button-response","72","785096","0.0-11.0-1.30","null","<p>A másik játékos ezt választotta: <b>gyihegzetek</b>.</p><p>&#x2705;</p><p>A te válaszod és a másik játékos válasza <b>megegyeznek</b>.</p>","null","","","","feedback trial","",""
"html-button-response-esp","73","793500","0.0-11.0-0.31","2892","János imád csubozni, ezért sokat csubzik. Mi ritkán...","0","csubozunk","[""csubozunk"",""csubzunk""]","csubozunk","esp trial","4","true"
"html-button-response","74","797019","0.0-11.0-1.31","null","<p>A másik játékos ezt választotta: <b>csubozunk</b>.</p><p>&#x2705;</p><p>A te válaszod és a másik játékos válasza <b>megegyeznek</b>.</p>","null","","","","feedback trial","",""
"html-button-response-esp","75","805422","0.0-11.0-0.32","4227","János imád klehényezni, ezért sokat klehénylik. Ti ritkán...","1","klehényletek","[""klehényeztek"",""klehényletek""]","klehényletek","esp trial","4","true"
"html-button-response","76","808942","0.0-11.0-1.32","null","<p>A másik játékos ezt választotta: <b>klehényletek</b>.</p><p>&#x2705;</p><p>A te válaszod és a másik játékos válasza <b>megegyeznek</b>.</p>","null","","","","feedback trial","",""
"html-button-response-esp","77","817346","0.0-11.0-0.33","5445","János imád trivakodni, ezért sokat trivakszik. Mi ritkán...","1","trivakodunk","[""trivakszunk"",""trivakodunk""]","trivakszunk","esp trial","4","false"
"html-button-response","78","820865","0.0-11.0-1.33","null","<p>A másik játékos ezt választotta: <b>trivakszunk</b>.</p><p>&#10060;</p><p>A válaszaitok <b>nem</b> egyeznek meg.</p>","null","","","","feedback trial","",""
"html-button-response-esp","79","829270","0.0-11.0-0.34","7878","János imád bratározni, ezért sokat bratárzik. Ők ritkán...","1","bratároznak","[""bratárzanak"",""bratároznak""]","bratárzanak","esp trial","4","false"
"html-button-response","80","832794","0.0-11.0-1.34","null","<p>A másik játékos ezt választotta: <b>bratárzanak</b>.</p><p>&#10060;</p><p>A válaszaitok <b>nem</b> egyeznek meg.</p>","null","","","","feedback trial","",""
"html-button-response-esp","81","841210","0.0-11.0-0.35","3549","János imád prélemezni, ezért sokat prélemlik. Ők ritkán...","1","prélemlenek","[""prélemeznek"",""prélemlenek""]","prélemlenek","esp trial","4","true"
"html-button-response","82","844742","0.0-11.0-1.35","null","<p>A másik játékos ezt választotta: <b>prélemlenek</b>.</p><p>&#x2705;</p><p>A te válaszod és a másik játékos válasza <b>megegyeznek</b>.</p>","null","","","","feedback trial","",""
"html-button-response-esp","83","853152","0.0-11.0-0.36","2330","János imád köszözni, ezért sokat köszlik. Ti ritkán...","1","köszlötök","[""köszöztök"",""köszlötök""]","köszlötök","esp trial","4","true"
"html-button-response","84","856677","0.0-11.0-1.36","null","<p>A másik játékos ezt választotta: <b>köszlötök</b>.</p><p>&#x2705;</p><p>A te válaszod és a másik játékos válasza <b>megegyeznek</b>.</p>","null","","","","feedback trial","",""
"html-button-response-esp","85","865084","0.0-11.0-0.37","5694","János imád frálasozni, ezért sokat frálaslik. Ők ritkán...","0","frálaslanak","[""frálaslanak"",""frálasoznak""]","frálasoznak","esp trial","4","false"
"html-button-response","86","868610","0.0-11.0-1.37","null","<p>A másik játékos ezt választotta: <b>frálasoznak</b>.</p><p>&#10060;</p><p>A válaszaitok <b>nem</b> egyeznek meg.</p>","null","","","","feedback trial","",""
"html-button-response-esp","87","877014","0.0-11.0-0.38","4577","János imád mülőrözni, ezért sokat mülőrzik. Mi ritkán...","0","mülőrözünk","[""mülőrözünk"",""mülőrzünk""]","mülőrzünk","esp trial","4","false"
"html-button-response","88","880533","0.0-11.0-1.38","null","<p>A másik játékos ezt választotta: <b>mülőrzünk</b>.</p><p>&#10060;</p><p>A válaszaitok <b>nem</b> egyeznek meg.</p>","null","","","","feedback trial","",""
"html-button-response-esp","89","888940","0.0-11.0-0.39","2532","János imád flűgözni, ezért sokat flűgzik. Mi ritkán...","0","flűgözünk","[""flűgözünk"",""flűgzünk""]","flűgzünk","esp trial","4","false"
"html-button-response","90","892461","0.0-11.0-1.39","null","<p>A másik játékos ezt választotta: <b>flűgzünk</b>.</p><p>&#10060;</p><p>A válaszaitok <b>nem</b> egyeznek meg.</p>","null","","","","feedback trial","",""
"html-button-response-esp","91","900862","0.0-11.0-0.40","2126","János imád posozni, ezért sokat poslik. Ti ritkán...","0","poslotok","[""poslotok"",""posoztok""]","posoztok","esp trial","4","false"
"html-button-response","92","904385","0.0-11.0-1.40","null","<p>A másik játékos ezt választotta: <b>posoztok</b>.</p><p>&#10060;</p><p>A válaszaitok <b>nem</b> egyeznek meg.</p>","null","","","","feedback trial","",""
"html-button-response-esp","93","912792","0.0-11.0-0.41","6541","János imád privékedni, ezért sokat privékszik. Ők ritkán...","1","privékednek","[""privékszenek"",""privékednek""]","privékszenek","esp trial","4","false"
"html-button-response","94","916330","0.0-11.0-1.41","null","<p>A másik játékos ezt választotta: <b>privékszenek</b>.</p><p>&#10060;</p><p>A válaszaitok <b>nem</b> egyeznek meg.</p>","null","","","","feedback trial","",""
"html-button-response-esp","95","925169","0.0-11.0-0.42","8327","János imád brülösözni, ezért sokat brülöslik. Mi ritkán...","1","brülöslünk","[""brülösözünk"",""brülöslünk""]","brülöslünk","esp trial","4","true"
"html-button-response","96","928687","0.0-11.0-1.42","null","<p>A másik játékos ezt választotta: <b>brülöslünk</b>.</p><p>&#x2705;</p><p>A te válaszod és a másik játékos válasza <b>megegyeznek</b>.</p>","null","","","","feedback trial","",""
"html-button-response-esp","97","939025","0.0-11.0-0.43","9827","János imád pragányozni, ezért sokat pragánylik. Ti ritkán...","1","pragányoztok","[""pragánylotok"",""pragányoztok""]","pragánylotok","esp trial","4","false"
"html-button-response","98","942540","0.0-11.0-1.43","null","<p>A másik játékos ezt választotta: <b>pragánylotok</b>.</p><p>&#10060;</p><p>A válaszaitok <b>nem</b> egyeznek meg.</p>","null","","","","feedback trial","",""
"html-button-response-esp","99","950950","0.0-11.0-0.44","3982","János imád dárakodni, ezért sokat dárakszik. Mi ritkán...","0","dárakszunk","[""dárakszunk"",""dárakodunk""]","dárakszunk","esp trial","4","true"
"html-button-response","100","954483","0.0-11.0-1.44","null","<p>A másik játékos ezt választotta: <b>dárakszunk</b>.</p><p>&#x2705;</p><p>A te válaszod és a másik játékos válasza <b>megegyeznek</b>.</p>","null","","","","feedback trial","",""
"html-button-response-esp","101","962885","0.0-11.0-0.45","2851","János imád branyozni, ezért sokat branylik. Ők ritkán...","0","branylanak","[""branylanak"",""branyoznak""]","branylanak","esp trial","4","true"
"html-button-response","102","966410","0.0-11.0-1.45","null","<p>A másik játékos ezt választotta: <b>branylanak</b>.</p><p>&#x2705;</p><p>A te válaszod és a másik játékos válasza <b>megegyeznek</b>.</p>","null","","","","feedback trial","",""
"html-button-response-esp","103","974813","0.0-11.0-0.46","5630","János imád gihejezni, ezért sokat gihejlik. Mi ritkán...","1","gihejlünk","[""gihejezünk"",""gihejlünk""]","gihejezünk","esp trial","4","false"
"html-button-response","104","978344","0.0-11.0-1.46","null","<p>A másik játékos ezt választotta: <b>gihejezünk</b>.</p><p>&#10060;</p><p>A válaszaitok <b>nem</b> egyeznek meg.</p>","null","","","","feedback trial","",""
"html-button-response-esp","105","986754","0.0-11.0-0.47","5788","János imád trugokozni, ezért sokat trugoklik. Ők ritkán...","1","trugokoznak","[""trugoklanak"",""trugokoznak""]","trugoklanak","esp trial","4","false"
"html-button-response","106","990280","0.0-11.0-1.47","null","<p>A másik játékos ezt választotta: <b>trugoklanak</b>.</p><p>&#10060;</p><p>A válaszaitok <b>nem</b> egyeznek meg.</p>","null","","","","feedback trial","",""
"html-button-response-esp","107","998690","0.0-11.0-0.48","6282","János imád dabozni, ezért sokat dabzik. Ti ritkán...","1","daboztok","[""dabzotok"",""daboztok""]","dabzotok","esp trial","4","false"
"html-button-response","108","1002219","0.0-11.0-1.48","null","<p>A másik játékos ezt választotta: <b>dabzotok</b>.</p><p>&#10060;</p><p>A válaszaitok <b>nem</b> egyeznek meg.</p>","null","","","","feedback trial","",""
"html-button-response-esp","109","1010626","0.0-11.0-0.49","4611","János imád sprudozni, ezért sokat sprudlik. Mi ritkán...","0","sprudlunk","[""sprudlunk"",""sprudozunk""]","sprudlunk","esp trial","4","true"
"html-button-response","110","1014150","0.0-11.0-1.49","null","<p>A másik játékos ezt választotta: <b>sprudlunk</b>.</p><p>&#x2705;</p><p>A te válaszod és a másik játékos válasza <b>megegyeznek</b>.</p>","null","","","","feedback trial","",""
"html-button-response-esp","111","1022555","0.0-11.0-0.50","2992","János imád csibagozni, ezért sokat csibagzik. Ti ritkán...","0","csibagzotok","[""csibagzotok"",""csibagoztok""]","csibagzotok","esp trial","4","true"
"html-button-response","112","1026076","0.0-11.0-1.50","null","<p>A másik játékos ezt választotta: <b>csibagzotok</b>.</p><p>&#x2705;</p><p>A te válaszod és a másik játékos válasza <b>megegyeznek</b>.</p>","null","","","","feedback trial","",""
"html-button-response-esp","113","1034482","0.0-11.0-0.51","6852","János imád flüröközni, ezért sokat flüröklik. Ti ritkán...","1","flüröklötök","[""flürököztök"",""flüröklötök""]","flüröklötök","esp trial","4","true"
"html-button-response","114","1038003","0.0-11.0-1.51","null","<p>A másik játékos ezt választotta: <b>flüröklötök</b>.</p><p>&#x2705;</p><p>A te válaszod és a másik játékos válasza <b>megegyeznek</b>.</p>","null","","","","feedback trial","",""
"html-button-response-esp","115","1046406","0.0-11.0-0.52","2546","János imád föködni, ezért sokat fökszik. Ők ritkán...","0","fökszenek","[""fökszenek"",""föködnek""]","föködnek","esp trial","4","false"
"html-button-response","116","1049929","0.0-11.0-1.52","null","<p>A másik játékos ezt választotta: <b>föködnek</b>.</p><p>&#10060;</p><p>A válaszaitok <b>nem</b> egyeznek meg.</p>","null","","","","feedback trial","",""
"html-button-response-esp","117","1058334","0.0-11.0-0.53","4080","János imád spügözni, ezért sokat spügzik. Mi ritkán...","1","spügzünk","[""spügözünk"",""spügzünk""]","spügözünk","esp trial","4","false"
"html-button-response","118","1061860","0.0-11.0-1.53","null","<p>A másik játékos ezt választotta: <b>spügözünk</b>.</p><p>&#10060;</p><p>A válaszaitok <b>nem</b> egyeznek meg.</p>","null","","","","feedback trial","",""
"html-button-response","119","1087548","0.0-12.0","25171","<p>A közös játék most véget ért.</p><p>Mielőtt eláruljuk a végső pontszámodat, arra kérlek, játszd a szóválasztós játékot néhány percig egyedül is.</p><p>A feladatod ugyanaz lesz, választani két lehetőség közül.</p><p>Most viszont egyedül kell döntened, hogy te melyiket választanád.</p>","0","","","","","",""
"html-button-response-clever","120","1100493","0.0-13.0-0.0","12419","János imád pekedni, ezért sokat pekszik. Mi ritkán...","0","pekszünk","[""pekszünk"",""pekedünk""]","","posttest trial","8",""
"html-button-response-clever","121","1112448","0.0-13.0-0.1","11437","János imád livényezni, ezért sokat livénylik. Mi ritkán...","0","livénylünk","[""livénylünk"",""livényezünk""]","","posttest trial","8",""
"html-button-response-clever","122","1122032","0.0-13.0-0.2","9069","János imád brivepedni, ezért sokat brivepszik. Mi ritkán...","1","brivepszünk","[""brivepedünk"",""brivepszünk""]","","posttest trial","8",""
"html-button-response-clever","123","1128840","0.0-13.0-0.3","6290","János imád brálamozni, ezért sokat brálamlik. Ők ritkán...","0","brálamlanak","[""brálamlanak"",""brálamoznak""]","","posttest trial","8",""
"html-button-response-clever","124","1134705","0.0-13.0-0.4","5352","János imád brilegezni, ezért sokat brilegzik. Mi ritkán...","1","brilegzünk","[""brilegezünk"",""brilegzünk""]","","posttest trial","8",""
"html-button-response-clever","125","1140982","0.0-13.0-0.5","5760","János imád brározni, ezért sokat brárlik. Ők ritkán...","0","brárlanak","[""brárlanak"",""brároznak""]","","posttest trial","8",""
"html-button-response-clever","126","1145727","0.0-13.0-0.6","4226","János imád spibamozni, ezért sokat spibamlik. Ők ritkán...","1","spibamlanak","[""spibamoznak"",""spibamlanak""]","","posttest trial","8",""
"html-button-response-clever","127","1150767","0.0-13.0-0.7","4511","János imád flubokozni, ezért sokat fluboklik. Ti ritkán...","0","fluboklotok","[""fluboklotok"",""flubokoztok""]","","posttest trial","8",""
"html-button-response-clever","128","1155145","0.0-13.0-0.8","3857","János imád sponyozni, ezért sokat sponylik. Ők ritkán...","1","sponylanak","[""sponyoznak"",""sponylanak""]","","posttest trial","8",""
"html-button-response-clever","129","1161753","0.0-13.0-0.9","6084","János imád tűgözni, ezért sokat tűgzik. Ti ritkán...","1","tűgzötök","[""tűgöztök"",""tűgzötök""]","","posttest trial","8",""
"html-button-response-clever","130","1166455","0.0-13.0-0.10","4177","János imád míjozni, ezért sokat míjzik. Mi ritkán...","1","míjzunk","[""míjozunk"",""míjzunk""]","","posttest trial","8",""
"html-button-response-clever","131","1170738","0.0-13.0-0.11","3758","János imád gibemezni, ezért sokat gibemlik. Mi ritkán...","1","gibemlünk","[""gibemezünk"",""gibemlünk""]","","posttest trial","8",""
"html-button-response-clever","132","1175500","0.0-13.0-0.12","4245","János imád prazozni, ezért sokat prazlik. Mi ritkán...","1","prazlunk","[""prazozunk"",""prazlunk""]","","posttest trial","8",""
"html-button-response-clever","133","1181267","0.0-13.0-0.13","5248","János imád riványozni, ezért sokat riványlik. Ti ritkán...","1","riványlotok","[""riványoztok"",""riványlotok""]","","posttest trial","8",""
"html-button-response-clever","134","1187826","0.0-13.0-0.14","6040","János imád frivamozni, ezért sokat frivamlik. Mi ritkán...","0","frivamlunk","[""frivamlunk"",""frivamozunk""]","","posttest trial","8",""
"html-button-response-clever","135","1198206","0.0-13.0-0.15","9864","János imád klarágozni, ezért sokat klarágzik. Ti ritkán...","0","klarágzotok","[""klarágzotok"",""klarágoztok""]","","posttest trial","8",""
"html-button-response-clever","136","1202356","0.0-13.0-0.16","3638","János imád trűnyözni, ezért sokat trűnylik. Ők ritkán...","0","trűnylenek","[""trűnylenek"",""trűnyöznek""]","","posttest trial","8",""
"html-button-response-clever","137","1208667","0.0-13.0-0.17","5797","János imád sprimozni, ezért sokat sprimlik. Mi ritkán...","0","sprimlunk","[""sprimlunk"",""sprimozunk""]","","posttest trial","8",""
"html-button-response-clever","138","1212848","0.0-13.0-0.18","3657","János imád bregezni, ezért sokat bregzik. Mi ritkán...","0","bregzünk","[""bregzünk"",""bregezünk""]","","posttest trial","8",""
"html-button-response-clever","139","1219413","0.0-13.0-0.19","6044","János imád vobozni, ezért sokat vobzik. Ti ritkán...","0","vobzotok","[""vobzotok"",""voboztok""]","","posttest trial","8",""
"html-button-response-clever","140","1231077","0.0-13.0-0.20","11147","János imád sztrajozni, ezért sokat sztrajlik. Ők ritkán...","1","sztrajlanak","[""sztrajoznak"",""sztrajlanak""]","","posttest trial","8",""
"html-button-response-clever","141","1236711","0.0-13.0-0.21","5121","János imád gatágozni, ezért sokat gatáglik. Mi ritkán...","1","gatáglunk","[""gatágozunk"",""gatáglunk""]","","posttest trial","8",""
"html-button-response-clever","142","1241965","0.0-13.0-0.22","4738","János imád brivágozni, ezért sokat briváglik. Ők ritkán...","0","briváglanak","[""briváglanak"",""brivágoznak""]","","posttest trial","8",""
"html-button-response-clever","143","1249871","0.0-13.0-0.23","7380","János imád küsözni, ezért sokat küslik. Mi ritkán...","0","küslünk","[""küslünk"",""küsözünk""]","","posttest trial","8",""
"html-button-response-clever","144","1260697","0.0-13.0-0.24","10306","János imád filányozni, ezért sokat filánylik. Mi ritkán...","0","filánylunk","[""filánylunk"",""filányozunk""]","","posttest trial","8",""
"html-button-response-clever","145","1265487","0.0-13.0-0.25","4277","János imád frihegezni, ezért sokat friheglik. Mi ritkán...","0","friheglünk","[""friheglünk"",""frihegezünk""]","","posttest trial","8",""
"html-button-response-clever","146","1271064","0.0-13.0-0.26","5054","János imád flézezni, ezért sokat flézlik. Ti ritkán...","0","flézletek","[""flézletek"",""flézeztek""]","","posttest trial","8",""
"html-button-response-clever","147","1276406","0.0-13.0-0.27","4820","János imád spöközni, ezért sokat spöklik. Mi ritkán...","0","spöklünk","[""spöklünk"",""spöközünk""]","","posttest trial","8",""
"html-button-response-clever","148","1286816","0.0-13.0-0.28","9887","János imád lírozni, ezért sokat lírlik. Ők ritkán...","0","lírlanak","[""lírlanak"",""líroznak""]","","posttest trial","8",""
"html-button-response-clever","149","1291635","0.0-13.0-0.29","4307","János imád drojozni, ezért sokat drojzik. Mi ritkán...","1","drojzunk","[""drojozunk"",""drojzunk""]","","posttest trial","8",""
"html-button-response-clever","150","1298520","0.0-13.0-0.30","6366","János imád pörözni, ezért sokat pörzik. Ti ritkán...","1","pörzötök","[""pöröztök"",""pörzötök""]","","posttest trial","8",""
"html-button-response-clever","151","1302787","0.0-13.0-0.31","3747","János imád fröjözni, ezért sokat fröjlik. Mi ritkán...","1","fröjlünk","[""fröjözünk"",""fröjlünk""]","","posttest trial","8",""
"html-button-response-clever","152","1308186","0.0-13.0-0.32","4880","János imád hákodni, ezért sokat hákszik. Ők ritkán...","1","hákszanak","[""hákodnak"",""hákszanak""]","","posttest trial","8",""
"html-button-response-clever","153","1319262","0.0-13.0-0.33","10551","János imád galározni, ezért sokat galárzik. Ők ritkán...","1","galároznak","[""galárzanak"",""galároznak""]","","posttest trial","8",""
"html-button-response-clever","154","1332588","0.0-13.0-0.34","12812","János imád gyivepedni, ezért sokat gyivepszik. Ők ritkán...","1","gyivepednek","[""gyivepszenek"",""gyivepednek""]","","posttest trial","8",""
"html-button-response-clever","155","1339740","0.0-13.0-0.35","6645","János imád dirányozni, ezért sokat diránylik. Ők ritkán...","0","diránylanak","[""diránylanak"",""dirányoznak""]","","posttest trial","8",""
"html-button-response-clever","156","1346488","0.0-13.0-0.36","6237","János imád trírozni, ezért sokat trírzik. Mi ritkán...","1","trírzunk","[""trírozunk"",""trírzunk""]","","posttest trial","8",""
"html-button-response-clever","157","1353149","0.0-13.0-0.37","6143","János imád brüszözni, ezért sokat brüszlik. Ti ritkán...","1","brüszlötök","[""brüszöztök"",""brüszlötök""]","","posttest trial","8",""
"html-button-response-clever","158","1371054","0.0-13.0-0.38","17384","János imád spalározni, ezért sokat spalárzik. Ők ritkán...","0","spalároznak","[""spalároznak"",""spalárzanak""]","","posttest trial","8",""
"html-button-response-clever","159","1383831","0.0-13.0-0.39","12254","János imád sprigozni, ezért sokat sprigzik. Ti ritkán...","0","sprigoztok","[""sprigoztok"",""sprigzotok""]","","posttest trial","8",""
"html-button-response-clever","160","1406388","0.0-13.0-0.40","22040","János imád flivegezni, ezért sokat flivegzik. Ők ritkán...","0","flivegeznek","[""flivegeznek"",""flivegzenek""]","","posttest trial","8",""
"html-button-response-clever","161","1416208","0.0-13.0-0.41","9304","János imád tribejezni, ezért sokat tribejlik. Ti ritkán...","1","tribejletek","[""tribejeztek"",""tribejletek""]","","posttest trial","8",""
"html-button-response-clever","162","1427608","0.0-13.0-0.42","10880","János imád nágapodni, ezért sokat nágapszik. Ők ritkán...","0","nágapodnak","[""nágapodnak"",""nágapszanak""]","","posttest trial","8",""
"html-button-response-clever","163","1434670","0.0-13.0-0.43","6546","János imád mihágozni, ezért sokat mihágzik. Ti ritkán...","0","mihágoztok","[""mihágoztok"",""mihágzotok""]","","posttest trial","8",""
"html-button-response-clever","164","1438298","0.0-13.0-0.44","3103","János imád lumozni, ezért sokat lumlik. Ti ritkán...","0","lumlotok","[""lumlotok"",""lumoztok""]","","posttest trial","8",""
"html-button-response-clever","165","1449780","0.0-13.0-0.45","10967","János imád kluzozni, ezért sokat kluzlik. Ti ritkán...","1","kluzoztok","[""kluzlotok"",""kluzoztok""]","","posttest trial","8",""
"html-button-response-clever","166","1455248","0.0-13.0-0.46","4951","János imád sztritozni, ezért sokat sztritlik. Ők ritkán...","1","sztritoznak","[""sztritlanak"",""sztritoznak""]","","posttest trial","8",""
"html-button-response-clever","167","1459190","0.0-13.0-0.47","3425","János imád frésezni, ezért sokat fréslik. Mi ritkán...","1","fréslünk","[""frésezünk"",""fréslünk""]","","posttest trial","8",""
"html-button-response-clever","168","1470679","0.0-13.0-0.48","10974","János imád mísozni, ezért sokat míslik. Mi ritkán...","0","míslunk","[""míslunk"",""mísozunk""]","","posttest trial","8",""
"html-button-response-clever","169","1475537","0.0-13.0-0.49","4341","János imád tibarozni, ezért sokat tibarzik. Ők ritkán...","0","tibaroznak","[""tibaroznak"",""tibarzanak""]","","posttest trial","8",""
"html-button-response-clever","170","1480412","0.0-13.0-0.50","4354","János imád tágarozni, ezért sokat tágarzik. Mi ritkán...","1","tágarzunk","[""tágarozunk"",""tágarzunk""]","","posttest trial","8",""
"html-button-response-clever","171","1484647","0.0-13.0-0.51","3718","János imád prilepedni, ezért sokat prilepszik. Mi ritkán...","1","prilepszünk","[""prilepedünk"",""prilepszünk""]","","posttest trial","8",""
"html-button-response-clever","172","1490406","0.0-13.0-0.52","5246","János imád drivegezni, ezért sokat drivegzik. Ti ritkán...","0","drivegeztek","[""drivegeztek"",""drivegzetek""]","","posttest trial","8",""
"html-button-response-clever","173","1495708","0.0-13.0-0.53","4784","János imád pehégedni, ezért sokat pehégszik. Ti ritkán...","1","pehégszetek","[""pehégedtek"",""pehégszetek""]","","posttest trial","8",""
"html-button-response","174","1512233","0.0-14.0","16003","<p> Vége a játéknak. A teljes pontszámod 26/54.</p><p> Szép munka! &#128526;&#128526;&#128526;</p><p>A Befejezés gomb megnyomása után bezárhatod a böngészőablakot.</p>","0","","","","","",""
"html-keyboard-response","175","1517760","0.0-15.0","null","<div class=""message"">
         <p>Egy kis türelmet kérünk, amíg elmentjük az adatokat...</p>
         </div>","null","","","","","",""
