"trial_type","trial_index","time_elapsed","internal_node_id","rt","stimulus","response","response_string","choices","esp_response","trial_kind","list_number","esp_match"
"pavlovia","0","865","0.0-0.0","","","","","","","","",""
"html-button-response","1","25366","0.0-1.0","23985","<p>Kedves Résztvevő! A Budapesti Műszaki és Gazdaságtudományi Egyetem Kognitív Tudományi Tanszékének kutatásában való részvételed kérjük. A kutatásban azt vizsgáljuk, hogy a magyar anyanyelvűek hogyan használnak bizonyos szóalakokat, és hogy milyen képük van arról, hogy mások hogyan használják, hogyan képzik a szavakat. Ez hozzásegít bennünket ahhoz, hogy jobban megértsük, hogyan dolgozza fel és tárolja a nyelvet az emberi agy, és hogyan működnek, hogyan változnak egy adott közösség nyelvi konvenciói.</p><p>A vizsgálat egy rövid számítógépes feladatból fog állni. A kutatásban való részvétel önkéntes, a részvételi szándék bármikor visszavonható. A résztvevők eredményeit név nélkül kezeljük, így nem beazonosíthatók az adatok feldolgozása során. Minden személyes adatot az EU általános adatvédelmi rendeletének (GDPR) megfelelően kezelünk és legfeljebb öt éven belül megsemmisítünk. A vizsgálat jellemzően húsz percet vesz igénybe.</p><p>Kutatásvezető:</p><p>Dr. Rácz Péter, tudományos munkatárs, BME KTT</p><p>e-mail: racz.peter.marton@ttk.bme.hu</p>","0","","","","","",""
"html-button-response","2","56688","0.0-2.0","30815","<p>A kísérletben szavakat fogsz látni. Ezek között lesznek olyanok, amelyeket ismersz, de előfordulhatnak olyanok is, amelyeket nem ismersz, sőt, vannak köztük kitalált szavak is. Minden szónál látni fogsz toldalékolt alakokat. A te feladatod az lesz, hogy minden szóhoz kiválaszd azt a toldalékolt alakot, amely a te számodra ismerősebben, természetesebben hangzik. Rossz válaszok nincsenek, mert van olyan, hogy különböző embereknek más és más szó tűnik jobb választásnak. A választ úgy tudod majd kiválasztani, ha rákattintasz.</p><p>Ebben a szóválasztós játékban egy másik játékossal együtt veszel majd részt. A másik játékos is minden esetben azok közül a lehetőségek közül válogathat, mint te. Kettőtök feladata az, hogy ugyanazt a lehetőséget válasszátok minden esetben. Ahhoz, hogy ez sikerüljön, neked figyelned kell arra, hogy a másik játékos milyen válaszokat ad, és ennek alapján meg kell tippelned, hogyan választ legközelebb. Ha eltalálod, akkor pontot kapsz.</p>","0","","","","","",""
"html-button-response","3","128603","0.0-3.0","71412","<p>Kérjük, olvasd el az alábbi nyilatkozatot, és amennyiben egyetértesz vele, nyomj a Beleegyezés gombra!</p><p>Kijelentem, hogy magyar anyanyelvű személyként önként veszek részt a BME KTT kísérletében. A kutatás céljával és folyamatával kapcsolatban elegendő tájékoztatást kaptam, lehetőségem volt kérdések feltételére, és esetleges kérdéseimre megfelelő válaszokat kaptam. A tájékoztatás alapján elegendő mennyiségű információ áll a rendelkezésemre, hogy eldönthessem, részt kívánok-e venni a kutatásban.</p><p>Tisztában vagyok vele, hogy részvételi szándékomat és adataimat bármikor, indoklás nélkül visszavonhatom.</p><p>Értem és tudomásul veszem, hogy a kutatás tudományos célokat szolgál, és az általam szolgáltatott adatokat a BME kizárólag kutatási célból használja fel. Tudomásul veszem, hogy eredményeimet a többi résztvevő eredményeivel együtt kezelik, így egyéni teljesítményemről visszajelzést, szakvéleményt nem kapok.</p><p>Megértettem, hogy adataim kezelését illetően a BME az EU általános adatvédelmi rendelete (GDPR), a hatályos adatvédelmi törvény és a nemzetközi kutatás-etikai alapelvek szerint jár el. Eredményeim anonim módon kerülnek feldolgozásra, és a kutatás résztvevői az azonosításomra alkalmas adataimat harmadik félnek nem szolgáltatják ki. Engedélyezem a BME számára a jelen kutatásban felvett adataim feldolgozását és tárolását, beleértve azok későbbi kutatásokhoz való felhasználását is. Személyes adataim kezelésével kapcsolatban tájékoztatást kérhetek a kutatás résztvevőitől, az adatkezelés ellen tiltakozhatok, kérhetem személyes adataim helyesbítését, törlését vagy zárolását, valamint jogorvoslatért a Nemzeti Adatvédelmi és Információszabadság Hatósághoz fordulhatok.</p><p>Kijelentem, hogy a kutatásban való részvételem körülményeiről részletes tájékoztatást kaptam, és a feltételeket elfogadom.</p>","0","","","","","",""
"survey-text","4","163181","0.0-4.0","34046","","{""Q0"":""R4ICHN"",""Q1"":""férfi"",""Q2"":""2002"",""Q3"":""14""}","","","","","",""
"html-button-response","5","177536","0.0-5.0","13846","<p>Ebben a játékban szavakat kell toldalékolni.</p> <p>Minden körben mutatunk majd egy példamondatot, amiben lesz egy szó.</p> <p>Alatta jön egy második mondat, ezt a mondatot neked kell majd befejezni, ugyanezzel a szóval.</p> <p>Nem biztos, hogy a szó eleve ismerős lesz számodra!</p> <p>Minden mondathoz adunk két lehetőséget, ezeket balra és jobbra látod majd.</p> <p>A játék kb. negyedóráig-húsz percig tart.</p>","0","","","","","",""
"html-button-response","6","188314","0.0-6.0","10276","<p>Nézzünk egy példát!</p> <p>A példamondat: ""János nagyon szeret rancsúrozni.""</p><p>Neked ezt a mondatot kell befejezned: ""Én is szívesen...""</p><p>A lehetőségek pedig ezek:</p>","0","","","","","",""
"html-button-response","7","196129","0.0-7.0","7309","<p>Nagyon jó.</p><p>Ezt a játékot nem egyedül fogod játszani, hanem egy másik játékossal.</p><p>Mielőtt továbblépünk, összekapcsolunk titeket egymással.</p><p>Ez igénybe vehet néhány másodpercet, amihez szíves türelmed kérjük.</p>","0","","","","","",""
"html-button-response","8","201869","0.0-8.0","null","<p>Csatlakozás a másik játékoshoz...</p>","null","","","","","",""
"html-button-response","9","204384","0.0-9.0","null","<p> Sikeres kapcsolódás!</p>","null","","","","","",""
"html-button-response","10","212653","0.0-10.0","7756","<p>A következőkben ketten játsszátok a szóválasztós játékot.</p><p>A feladatotok az lesz, hogy minden körben <b>ugyanazt</b> a szót válasszátok.</p><p>Minden ilyen egyező válaszért pontot kaptok.</p><p>Próbáld meg kitalálni, mit választ a másik játékos!</p><p>Bármikor választhatsz, a körnek akkor van vége, ha mindketten döntöttetek.</p><p>Sok sikert!</p>","0","","","","","",""
"html-button-response-esp","11","221051","0.0-11.0-0.0","5442","Te bizony sokat táklasz. Én is sokat...","0","táklom","[""táklom"",""táklok""]","táklok","esp trial","8","false"
"html-button-response","12","224574","0.0-11.0-1.0","null","<p>A másik játékos ezt választotta: <b>táklok</b>.</p><p>&#10060;</p><p>A válaszaitok <b>nem</b> egyeznek meg.</p>","null","","","","feedback trial","",""
"html-button-response-esp","13","232994","0.0-11.0-0.1","2288","Te bizony sokat pugoslasz. Én is sokat...","0","pugoslom","[""pugoslom"",""pugoslok""]","pugoslom","esp trial","8","true"
"html-button-response","14","236497","0.0-11.0-1.1","null","<p>A másik játékos ezt választotta: <b>pugoslom</b>.</p><p>&#x2705;</p><p>A te válaszod és a másik játékos válasza <b>megegyeznek</b>.</p>","null","","","","feedback trial","",""
"html-button-response-esp","15","244896","0.0-11.0-0.2","6745","Te bizony sokat flérlesz. Én is sokat...","0","flérlek","[""flérlek"",""flérlem""]","flérlem","esp trial","8","false"
"html-button-response","16","248404","0.0-11.0-1.2","null","<p>A másik játékos ezt választotta: <b>flérlem</b>.</p><p>&#10060;</p><p>A válaszaitok <b>nem</b> egyeznek meg.</p>","null","","","","feedback trial","",""
"html-button-response-esp","17","256802","0.0-11.0-0.3","5548","Te bizony sokat vűjlesz. Én is sokat...","0","vűjlöm","[""vűjlöm"",""vűjlök""]","vűjlöm","esp trial","8","true"
"html-button-response","18","260319","0.0-11.0-1.3","null","<p>A másik játékos ezt választotta: <b>vűjlöm</b>.</p><p>&#x2705;</p><p>A te válaszod és a másik játékos válasza <b>megegyeznek</b>.</p>","null","","","","feedback trial","",""
"html-button-response-esp","19","268725","0.0-11.0-0.4","6726","Te bizony sokat bivejlesz. Én is sokat...","1","bivejlem","[""bivejlek"",""bivejlem""]","bivejlem","esp trial","8","true"
"html-button-response","20","272232","0.0-11.0-1.4","null","<p>A másik játékos ezt választotta: <b>bivejlem</b>.</p><p>&#x2705;</p><p>A te válaszod és a másik játékos válasza <b>megegyeznek</b>.</p>","null","","","","feedback trial","",""
"html-button-response-esp","21","280641","0.0-11.0-0.5","3884","Te bizony sokat friszlasz. Én is sokat...","1","friszlom","[""friszlok"",""friszlom""]","friszlok","esp trial","8","false"
"html-button-response","22","284152","0.0-11.0-1.5","null","<p>A másik játékos ezt választotta: <b>friszlok</b>.</p><p>&#10060;</p><p>A válaszaitok <b>nem</b> egyeznek meg.</p>","null","","","","feedback trial","",""
"html-button-response-esp","23","292555","0.0-11.0-0.6","4074","Te bizony sokat trihagzol. Én is sokat...","0","trihagzom","[""trihagzom"",""trihagzok""]","trihagzok","esp trial","8","false"
"html-button-response","24","296058","0.0-11.0-1.6","null","<p>A másik játékos ezt választotta: <b>trihagzok</b>.</p><p>&#10060;</p><p>A válaszaitok <b>nem</b> egyeznek meg.</p>","null","","","","feedback trial","",""
"html-button-response-esp","25","304455","0.0-11.0-0.7","3263","Te bizony sokat péleslesz. Én is sokat...","1","péleslek","[""péleslem"",""péleslek""]","péleslek","esp trial","8","true"
"html-button-response","26","307967","0.0-11.0-1.7","null","<p>A másik játékos ezt választotta: <b>péleslek</b>.</p><p>&#x2705;</p><p>A te válaszod és a másik játékos válasza <b>megegyeznek</b>.</p>","null","","","","feedback trial","",""
"html-button-response-esp","27","316359","0.0-11.0-0.8","3964","Te bizony sokat spélszel. Én is sokat...","0","spélszek","[""spélszek"",""spélszem""]","spélszek","esp trial","8","true"
"html-button-response","28","319866","0.0-11.0-1.8","null","<p>A másik játékos ezt választotta: <b>spélszek</b>.</p><p>&#x2705;</p><p>A te válaszod és a másik játékos válasza <b>megegyeznek</b>.</p>","null","","","","feedback trial","",""
"html-button-response-esp","29","329294","0.0-11.0-0.9","8919","Te bizony sokat huklasz. Én is sokat...","0","huklom","[""huklom"",""huklok""]","huklok","esp trial","8","false"
"html-button-response","30","332812","0.0-11.0-1.9","null","<p>A másik játékos ezt választotta: <b>huklok</b>.</p><p>&#10060;</p><p>A válaszaitok <b>nem</b> egyeznek meg.</p>","null","","","","feedback trial","",""
"html-button-response-esp","31","341216","0.0-11.0-0.10","6442","Te bizony sokat spüszlesz. Én is sokat...","1","spüszlök","[""spüszlöm"",""spüszlök""]","spüszlök","esp trial","8","true"
"html-button-response","32","344722","0.0-11.0-1.10","null","<p>A másik játékos ezt választotta: <b>spüszlök</b>.</p><p>&#x2705;</p><p>A te válaszod és a másik játékos válasza <b>megegyeznek</b>.</p>","null","","","","feedback trial","",""
"html-button-response-esp","33","353127","0.0-11.0-0.11","2853","Te bizony sokat fliraklasz. Én is sokat...","0","fliraklok","[""fliraklok"",""fliraklom""]","fliraklok","esp trial","8","true"
"html-button-response","34","356642","0.0-11.0-1.11","null","<p>A másik játékos ezt választotta: <b>fliraklok</b>.</p><p>&#x2705;</p><p>A te válaszod és a másik játékos válasza <b>megegyeznek</b>.</p>","null","","","","feedback trial","",""
"html-button-response-esp","35","365056","0.0-11.0-0.12","1554","Te bizony sokat gerénylesz. Én is sokat...","1","gerénylek","[""gerénylem"",""gerénylek""]","gerénylem","esp trial","8","false"
"html-button-response","36","368572","0.0-11.0-1.12","null","<p>A másik játékos ezt választotta: <b>gerénylem</b>.</p><p>&#10060;</p><p>A válaszaitok <b>nem</b> egyeznek meg.</p>","null","","","","feedback trial","",""
"html-button-response-esp","37","376984","0.0-11.0-0.13","5462","Te bizony sokat spülőrzöl. Én is sokat...","1","spülőrzök","[""spülőrzöm"",""spülőrzök""]","spülőrzök","esp trial","8","true"
"html-button-response","38","380494","0.0-11.0-1.13","null","<p>A másik játékos ezt választotta: <b>spülőrzök</b>.</p><p>&#x2705;</p><p>A te válaszod és a másik játékos válasza <b>megegyeznek</b>.</p>","null","","","","feedback trial","",""
"html-button-response-esp","39","388908","0.0-11.0-0.14","3748","Te bizony sokat féjzel. Én is sokat...","0","féjzem","[""féjzem"",""féjzek""]","féjzek","esp trial","8","false"
"html-button-response","40","392425","0.0-11.0-1.14","null","<p>A másik játékos ezt választotta: <b>féjzek</b>.</p><p>&#10060;</p><p>A válaszaitok <b>nem</b> egyeznek meg.</p>","null","","","","feedback trial","",""
"html-button-response-esp","41","400825","0.0-11.0-0.15","2334","Te bizony sokat livaklasz. Én is sokat...","0","livaklom","[""livaklom"",""livaklok""]","livaklok","esp trial","8","false"
"html-button-response","42","404350","0.0-11.0-1.15","null","<p>A másik játékos ezt választotta: <b>livaklok</b>.</p><p>&#10060;</p><p>A válaszaitok <b>nem</b> egyeznek meg.</p>","null","","","","feedback trial","",""
"html-button-response-esp","43","412743","0.0-11.0-0.16","1846","Te bizony sokat gilárzol. Én is sokat...","0","gilárzok","[""gilárzok"",""gilárzom""]","gilárzok","esp trial","8","true"
"html-button-response","44","416254","0.0-11.0-1.16","null","<p>A másik játékos ezt választotta: <b>gilárzok</b>.</p><p>&#x2705;</p><p>A te válaszod és a másik játékos válasza <b>megegyeznek</b>.</p>","null","","","","feedback trial","",""
"html-button-response-esp","45","424675","0.0-11.0-0.17","4158","Te bizony sokat spülöklesz. Én is sokat...","1","spülöklök","[""spülöklöm"",""spülöklök""]","spülöklök","esp trial","8","true"
"html-button-response","46","428199","0.0-11.0-1.17","null","<p>A másik játékos ezt választotta: <b>spülöklök</b>.</p><p>&#x2705;</p><p>A te válaszod és a másik játékos válasza <b>megegyeznek</b>.</p>","null","","","","feedback trial","",""
"html-button-response-esp","47","436618","0.0-11.0-0.18","3530","Te bizony sokat szűslesz. Én is sokat...","1","szűslök","[""szűslöm"",""szűslök""]","szűslöm","esp trial","8","false"
"html-button-response","48","440120","0.0-11.0-1.18","null","<p>A másik játékos ezt választotta: <b>szűslöm</b>.</p><p>&#10060;</p><p>A válaszaitok <b>nem</b> egyeznek meg.</p>","null","","","","feedback trial","",""
"html-button-response-esp","49","448529","0.0-11.0-0.19","5037","Te bizony sokat klidlasz. Én is sokat...","0","klidlok","[""klidlok"",""klidlom""]","klidlom","esp trial","8","false"
"html-button-response","50","452050","0.0-11.0-1.19","null","<p>A másik játékos ezt választotta: <b>klidlom</b>.</p><p>&#10060;</p><p>A válaszaitok <b>nem</b> egyeznek meg.</p>","null","","","","feedback trial","",""
"html-button-response-esp","51","460452","0.0-11.0-0.20","4228","Te bizony sokat plágadzol. Én is sokat...","1","plágadzom","[""plágadzok"",""plágadzom""]","plágadzok","esp trial","8","false"
"html-button-response","52","463967","0.0-11.0-1.20","null","<p>A másik játékos ezt választotta: <b>plágadzok</b>.</p><p>&#10060;</p><p>A válaszaitok <b>nem</b> egyeznek meg.</p>","null","","","","feedback trial","",""
"html-button-response-esp","53","472359","0.0-11.0-0.21","5647","Te bizony sokat ibáglasz. Én is sokat...","0","ibáglok","[""ibáglok"",""ibáglom""]","ibáglok","esp trial","8","true"
"html-button-response","54","475875","0.0-11.0-1.21","null","<p>A másik játékos ezt választotta: <b>ibáglok</b>.</p><p>&#x2705;</p><p>A te válaszod és a másik játékos válasza <b>megegyeznek</b>.</p>","null","","","","feedback trial","",""
"html-button-response-esp","55","484268","0.0-11.0-0.22","4735","Te bizony sokat gyibakszol. Én is sokat...","0","gyibakszok","[""gyibakszok"",""gyibakszom""]","gyibakszok","esp trial","8","true"
"html-button-response","56","487771","0.0-11.0-1.22","null","<p>A másik játékos ezt választotta: <b>gyibakszok</b>.</p><p>&#x2705;</p><p>A te válaszod és a másik játékos válasza <b>megegyeznek</b>.</p>","null","","","","feedback trial","",""
"html-button-response-esp","57","496182","0.0-11.0-0.23","6608","Te bizony sokat brarlasz. Én is sokat...","0","brarlom","[""brarlom"",""brarlok""]","brarlom","esp trial","8","true"
"html-button-response","58","499685","0.0-11.0-1.23","null","<p>A másik játékos ezt választotta: <b>brarlom</b>.</p><p>&#x2705;</p><p>A te válaszod és a másik játékos válasza <b>megegyeznek</b>.</p>","null","","","","feedback trial","",""
"html-button-response-esp","59","508088","0.0-11.0-0.24","5426","Te bizony sokat drügzöl. Én is sokat...","0","drügzök","[""drügzök"",""drügzöm""]","drügzök","esp trial","8","true"
"html-button-response","60","511589","0.0-11.0-1.24","null","<p>A másik játékos ezt választotta: <b>drügzök</b>.</p><p>&#x2705;</p><p>A te válaszod és a másik játékos válasza <b>megegyeznek</b>.</p>","null","","","","feedback trial","",""
"html-button-response-esp","61","519989","0.0-11.0-0.25","3507","Te bizony sokat gyivádzol. Én is sokat...","0","gyivádzom","[""gyivádzom"",""gyivádzok""]","gyivádzok","esp trial","8","false"
"html-button-response","62","523491","0.0-11.0-1.25","null","<p>A másik játékos ezt választotta: <b>gyivádzok</b>.</p><p>&#10060;</p><p>A válaszaitok <b>nem</b> egyeznek meg.</p>","null","","","","feedback trial","",""
"html-button-response-esp","63","531890","0.0-11.0-0.26","2017","Te bizony sokat klárzol. Én is sokat...","1","klárzok","[""klárzom"",""klárzok""]","klárzok","esp trial","8","true"
"html-button-response","64","535407","0.0-11.0-1.26","null","<p>A másik játékos ezt választotta: <b>klárzok</b>.</p><p>&#x2705;</p><p>A te válaszod és a másik játékos válasza <b>megegyeznek</b>.</p>","null","","","","feedback trial","",""
"html-button-response-esp","65","543817","0.0-11.0-0.27","5519","Te bizony sokat aglasz. Én is sokat...","1","aglok","[""aglom"",""aglok""]","aglok","esp trial","8","true"
"html-button-response","66","547332","0.0-11.0-1.27","null","<p>A másik játékos ezt választotta: <b>aglok</b>.</p><p>&#x2705;</p><p>A te válaszod és a másik játékos válasza <b>megegyeznek</b>.</p>","null","","","","feedback trial","",""
"html-button-response-esp","67","555733","0.0-11.0-0.28","4197","Te bizony sokat sprálszol. Én is sokat...","1","sprálszom","[""sprálszok"",""sprálszom""]","sprálszok","esp trial","8","false"
"html-button-response","68","559244","0.0-11.0-1.28","null","<p>A másik játékos ezt választotta: <b>sprálszok</b>.</p><p>&#10060;</p><p>A válaszaitok <b>nem</b> egyeznek meg.</p>","null","","","","feedback trial","",""
"html-button-response-esp","69","567636","0.0-11.0-0.29","826","Te bizony sokat tuboklasz. Én is sokat...","0","tuboklom","[""tuboklom"",""tuboklok""]","tuboklok","esp trial","8","false"
"html-button-response","70","571140","0.0-11.0-1.29","null","<p>A másik játékos ezt választotta: <b>tuboklok</b>.</p><p>&#10060;</p><p>A válaszaitok <b>nem</b> egyeznek meg.</p>","null","","","","feedback trial","",""
"html-button-response-esp","71","579548","0.0-11.0-0.30","1672","Te bizony sokat kumlasz. Én is sokat...","0","kumlok","[""kumlok"",""kumlom""]","kumlom","esp trial","8","false"
"html-button-response","72","583052","0.0-11.0-1.30","null","<p>A másik játékos ezt választotta: <b>kumlom</b>.</p><p>&#10060;</p><p>A válaszaitok <b>nem</b> egyeznek meg.</p>","null","","","","feedback trial","",""
"html-button-response-esp","73","591458","0.0-11.0-0.31","3054","Te bizony sokat sprédlesz. Én is sokat...","0","sprédlek","[""sprédlek"",""sprédlem""]","sprédlem","esp trial","8","false"
"html-button-response","74","594979","0.0-11.0-1.31","null","<p>A másik játékos ezt választotta: <b>sprédlem</b>.</p><p>&#10060;</p><p>A válaszaitok <b>nem</b> egyeznek meg.</p>","null","","","","feedback trial","",""
"html-button-response-esp","75","603383","0.0-11.0-0.32","2057","Te bizony sokat fligzol. Én is sokat...","0","fligzom","[""fligzom"",""fligzok""]","fligzok","esp trial","8","false"
"html-button-response","76","606888","0.0-11.0-1.32","null","<p>A másik játékos ezt választotta: <b>fligzok</b>.</p><p>&#10060;</p><p>A válaszaitok <b>nem</b> egyeznek meg.</p>","null","","","","feedback trial","",""
"html-button-response-esp","77","615287","0.0-11.0-0.33","1814","Te bizony sokat fivénylesz. Én is sokat...","1","fivénylek","[""fivénylem"",""fivénylek""]","fivénylek","esp trial","8","true"
"html-button-response","78","618816","0.0-11.0-1.33","null","<p>A másik játékos ezt választotta: <b>fivénylek</b>.</p><p>&#x2705;</p><p>A te válaszod és a másik játékos válasza <b>megegyeznek</b>.</p>","null","","","","feedback trial","",""
"html-button-response-esp","79","627208","0.0-11.0-0.34","2436","Te bizony sokat flibekszel. Én is sokat...","1","flibekszek","[""flibekszem"",""flibekszek""]","flibekszek","esp trial","8","true"
"html-button-response","80","630719","0.0-11.0-1.34","null","<p>A másik játékos ezt választotta: <b>flibekszek</b>.</p><p>&#x2705;</p><p>A te válaszod és a másik játékos válasza <b>megegyeznek</b>.</p>","null","","","","feedback trial","",""
"html-button-response-esp","81","639125","0.0-11.0-0.35","5566","Te bizony sokat flözlesz. Én is sokat...","0","flözlök","[""flözlök"",""flözlöm""]","flözlöm","esp trial","8","false"
"html-button-response","82","642627","0.0-11.0-1.35","null","<p>A másik játékos ezt választotta: <b>flözlöm</b>.</p><p>&#10060;</p><p>A válaszaitok <b>nem</b> egyeznek meg.</p>","null","","","","feedback trial","",""
"html-button-response-esp","83","651027","0.0-11.0-0.36","1830","Te bizony sokat sztruglasz. Én is sokat...","0","sztruglok","[""sztruglok"",""sztruglom""]","sztruglok","esp trial","8","true"
"html-button-response","84","654532","0.0-11.0-1.36","null","<p>A másik játékos ezt választotta: <b>sztruglok</b>.</p><p>&#x2705;</p><p>A te válaszod és a másik játékos válasza <b>megegyeznek</b>.</p>","null","","","","feedback trial","",""
"html-button-response-esp","85","662932","0.0-11.0-0.37","922","Te bizony sokat praslasz. Én is sokat...","0","praslom","[""praslom"",""praslok""]","praslom","esp trial","8","true"
"html-button-response","86","666458","0.0-11.0-1.37","null","<p>A másik játékos ezt választotta: <b>praslom</b>.</p><p>&#x2705;</p><p>A te válaszod és a másik játékos válasza <b>megegyeznek</b>.</p>","null","","","","feedback trial","",""
"html-button-response-esp","87","674859","0.0-11.0-0.38","821","Te bizony sokat spibádzol. Én is sokat...","0","spibádzom","[""spibádzom"",""spibádzok""]","spibádzok","esp trial","8","false"
"html-button-response","88","678379","0.0-11.0-1.38","null","<p>A másik játékos ezt választotta: <b>spibádzok</b>.</p><p>&#10060;</p><p>A válaszaitok <b>nem</b> egyeznek meg.</p>","null","","","","feedback trial","",""
"html-button-response-esp","89","686781","0.0-11.0-0.39","4212","Te bizony sokat csólorzol. Én is sokat...","1","csólorzok","[""csólorzom"",""csólorzok""]","csólorzok","esp trial","8","true"
"html-button-response","90","690285","0.0-11.0-1.39","null","<p>A másik játékos ezt választotta: <b>csólorzok</b>.</p><p>&#x2705;</p><p>A te válaszod és a másik játékos válasza <b>megegyeznek</b>.</p>","null","","","","feedback trial","",""
"html-button-response-esp","91","698699","0.0-11.0-0.40","4991","Te bizony sokat préleglesz. Én is sokat...","1","préleglem","[""préleglek"",""préleglem""]","préleglek","esp trial","8","false"
"html-button-response","92","702204","0.0-11.0-1.40","null","<p>A másik játékos ezt választotta: <b>préleglek</b>.</p><p>&#10060;</p><p>A válaszaitok <b>nem</b> egyeznek meg.</p>","null","","","","feedback trial","",""
"html-button-response-esp","93","710605","0.0-11.0-0.41","4425","Te bizony sokat prohódzol. Én is sokat...","0","prohódzok","[""prohódzok"",""prohódzom""]","prohódzok","esp trial","8","true"
"html-button-response","94","714114","0.0-11.0-1.41","null","<p>A másik játékos ezt választotta: <b>prohódzok</b>.</p><p>&#x2705;</p><p>A te válaszod és a másik játékos válasza <b>megegyeznek</b>.</p>","null","","","","feedback trial","",""
"html-button-response-esp","95","722516","0.0-11.0-0.42","5080","Te bizony sokat frivajlasz. Én is sokat...","1","frivajlok","[""frivajlom"",""frivajlok""]","frivajlom","esp trial","8","false"
"html-button-response","96","726029","0.0-11.0-1.42","null","<p>A másik játékos ezt választotta: <b>frivajlom</b>.</p><p>&#10060;</p><p>A válaszaitok <b>nem</b> egyeznek meg.</p>","null","","","","feedback trial","",""
"html-button-response-esp","97","734424","0.0-11.0-0.43","4196","Te bizony sokat prihekszel. Én is sokat...","0","prihekszem","[""prihekszem"",""prihekszek""]","prihekszek","esp trial","8","false"
"html-button-response","98","737935","0.0-11.0-1.43","null","<p>A másik játékos ezt választotta: <b>prihekszek</b>.</p><p>&#10060;</p><p>A válaszaitok <b>nem</b> egyeznek meg.</p>","null","","","","feedback trial","",""
"html-button-response-esp","99","746328","0.0-11.0-0.44","3220","Te bizony sokat lihadzol. Én is sokat...","0","lihadzom","[""lihadzom"",""lihadzok""]","lihadzok","esp trial","8","false"
"html-button-response","100","749854","0.0-11.0-1.44","null","<p>A másik játékos ezt választotta: <b>lihadzok</b>.</p><p>&#10060;</p><p>A válaszaitok <b>nem</b> egyeznek meg.</p>","null","","","","feedback trial","",""
"html-button-response-esp","101","758262","0.0-11.0-0.45","782","Te bizony sokat mékszel. Én is sokat...","1","mékszek","[""mékszem"",""mékszek""]","mékszek","esp trial","8","true"
"html-button-response","102","761775","0.0-11.0-1.45","null","<p>A másik játékos ezt választotta: <b>mékszek</b>.</p><p>&#x2705;</p><p>A te válaszod és a másik játékos válasza <b>megegyeznek</b>.</p>","null","","","","feedback trial","",""
"html-button-response-esp","103","770175","0.0-11.0-0.46","5687","Te bizony sokat spatszol. Én is sokat...","0","spatszom","[""spatszom"",""spatszok""]","spatszok","esp trial","8","false"
"html-button-response","104","773679","0.0-11.0-1.46","null","<p>A másik játékos ezt választotta: <b>spatszok</b>.</p><p>&#10060;</p><p>A válaszaitok <b>nem</b> egyeznek meg.</p>","null","","","","feedback trial","",""
"html-button-response-esp","105","782086","0.0-11.0-0.47","773","Te bizony sokat vihepszel. Én is sokat...","0","vihepszem","[""vihepszem"",""vihepszek""]","vihepszek","esp trial","8","false"
"html-button-response","106","785589","0.0-11.0-1.47","null","<p>A másik játékos ezt választotta: <b>vihepszek</b>.</p><p>&#10060;</p><p>A válaszaitok <b>nem</b> egyeznek meg.</p>","null","","","","feedback trial","",""
"html-button-response-esp","107","793994","0.0-11.0-0.48","3313","Te bizony sokat spírzol. Én is sokat...","1","spírzok","[""spírzom"",""spírzok""]","spírzok","esp trial","8","true"
"html-button-response","108","797501","0.0-11.0-1.48","null","<p>A másik játékos ezt választotta: <b>spírzok</b>.</p><p>&#x2705;</p><p>A te válaszod és a másik játékos válasza <b>megegyeznek</b>.</p>","null","","","","feedback trial","",""
"html-button-response-esp","109","805912","0.0-11.0-0.49","1709","Te bizony sokat zödlesz. Én is sokat...","0","zödlök","[""zödlök"",""zödlöm""]","zödlöm","esp trial","8","false"
"html-button-response","110","809432","0.0-11.0-1.49","null","<p>A másik játékos ezt választotta: <b>zödlöm</b>.</p><p>&#10060;</p><p>A válaszaitok <b>nem</b> egyeznek meg.</p>","null","","","","feedback trial","",""
"html-button-response-esp","111","817824","0.0-11.0-0.50","1621","Te bizony sokat floglasz. Én is sokat...","1","floglok","[""floglom"",""floglok""]","floglok","esp trial","8","true"
"html-button-response","112","821336","0.0-11.0-1.50","null","<p>A másik játékos ezt választotta: <b>floglok</b>.</p><p>&#x2705;</p><p>A te válaszod és a másik játékos válasza <b>megegyeznek</b>.</p>","null","","","","feedback trial","",""
"html-button-response-esp","113","829753","0.0-11.0-0.51","2093","Te bizony sokat prezlesz. Én is sokat...","0","prezlem","[""prezlem"",""prezlek""]","prezlem","esp trial","8","true"
"html-button-response","114","833261","0.0-11.0-1.51","null","<p>A másik játékos ezt választotta: <b>prezlem</b>.</p><p>&#x2705;</p><p>A te válaszod és a másik játékos válasza <b>megegyeznek</b>.</p>","null","","","","feedback trial","",""
"html-button-response-esp","115","841668","0.0-11.0-0.52","428","Te bizony sokat plövőrzöl. Én is sokat...","1","plövőrzöm","[""plövőrzök"",""plövőrzöm""]","plövőrzök","esp trial","8","false"
"html-button-response","116","845187","0.0-11.0-1.52","null","<p>A másik játékos ezt választotta: <b>plövőrzök</b>.</p><p>&#10060;</p><p>A válaszaitok <b>nem</b> egyeznek meg.</p>","null","","","","feedback trial","",""
"html-button-response-esp","117","853586","0.0-11.0-0.53","2535","Te bizony sokat frágapszol. Én is sokat...","0","frágapszom","[""frágapszom"",""frágapszok""]","frágapszok","esp trial","8","false"
"html-button-response","118","857103","0.0-11.0-1.53","null","<p>A másik játékos ezt választotta: <b>frágapszok</b>.</p><p>&#10060;</p><p>A válaszaitok <b>nem</b> egyeznek meg.</p>","null","","","","feedback trial","",""
"html-button-response","119","865596","0.0-12.0","7980","<p>A közös játék most véget ért.</p><p>Mielőtt eláruljuk a végső pontszámodat, arra kérlek, játszd a szóválasztós játékot néhány percig egyedül is.</p><p>A feladatod ugyanaz lesz, választani két lehetőség közül.</p><p>Most viszont egyedül kell döntened, hogy te melyiket választanád.</p>","0","","","","","",""
"html-button-response-clever","120","874994","0.0-13.0-0.0","8880","Te bizony sokat spatárzol. Én is sokat...","1","spatárzom","[""spatárzok"",""spatárzom""]","","posttest trial","1",""
"html-button-response-clever","121","879472","0.0-13.0-0.1","3961","Te bizony sokat csíszlasz. Én is sokat...","0","csíszlok","[""csíszlok"",""csíszlom""]","","posttest trial","1",""
"html-button-response-clever","122","887018","0.0-13.0-0.2","7029","Te bizony sokat sprogzol. Én is sokat...","1","sprogzom","[""sprogzok"",""sprogzom""]","","posttest trial","1",""
"html-button-response-clever","123","889313","0.0-13.0-0.3","1792","Te bizony sokat brüjlesz. Én is sokat...","0","brüjlök","[""brüjlök"",""brüjlöm""]","","posttest trial","1",""
"html-button-response-clever","124","891705","0.0-13.0-0.4","1889","Te bizony sokat pebzel. Én is sokat...","1","pebzem","[""pebzek"",""pebzem""]","","posttest trial","1",""
"html-button-response-clever","125","894998","0.0-13.0-0.5","2791","Te bizony sokat jüslesz. Én is sokat...","0","jüslöm","[""jüslöm"",""jüslök""]","","posttest trial","1",""
"html-button-response-clever","126","896506","0.0-13.0-0.6","995","Te bizony sokat fretszel. Én is sokat...","0","fretszek","[""fretszek"",""fretszem""]","","posttest trial","1",""
"html-button-response-clever","127","900879","0.0-13.0-0.7","3869","Te bizony sokat nyáslasz. Én is sokat...","1","nyáslok","[""nyáslom"",""nyáslok""]","","posttest trial","1",""
"html-button-response-clever","128","903548","0.0-13.0-0.8","2153","Te bizony sokat femlesz. Én is sokat...","0","femlek","[""femlek"",""femlem""]","","posttest trial","1",""
"html-button-response-clever","129","907073","0.0-13.0-0.9","3021","Te bizony sokat tínylasz. Én is sokat...","1","tínylok","[""tínylom"",""tínylok""]","","posttest trial","1",""
"html-button-response-clever","130","912976","0.0-13.0-0.10","5399","Te bizony sokat flüröslesz. Én is sokat...","0","flüröslök","[""flüröslök"",""flüröslöm""]","","posttest trial","1",""
"html-button-response-clever","131","915917","0.0-13.0-0.11","2438","Te bizony sokat siladzol. Én is sokat...","0","siladzok","[""siladzok"",""siladzom""]","","posttest trial","1",""
"html-button-response-clever","132","917619","0.0-13.0-0.12","1191","Te bizony sokat tomlasz. Én is sokat...","0","tomlok","[""tomlok"",""tomlom""]","","posttest trial","1",""
"html-button-response-clever","133","918669","0.0-13.0-0.13","546","Te bizony sokat flagárzol. Én is sokat...","1","flagárzok","[""flagárzom"",""flagárzok""]","","posttest trial","1",""
"html-button-response-clever","134","919532","0.0-13.0-0.14","361","Te bizony sokat fibamlasz. Én is sokat...","0","fibamlok","[""fibamlok"",""fibamlom""]","","posttest trial","1",""
"html-button-response-clever","135","920432","0.0-13.0-0.15","398","Te bizony sokat hilarzol. Én is sokat...","1","hilarzom","[""hilarzok"",""hilarzom""]","","posttest trial","1",""
"html-button-response-clever","136","921264","0.0-13.0-0.16","320","Te bizony sokat flagánylasz. Én is sokat...","0","flagánylok","[""flagánylok"",""flagánylom""]","","posttest trial","1",""
"html-button-response-clever","137","922104","0.0-13.0-0.17","325","Te bizony sokat trilszol. Én is sokat...","1","trilszom","[""trilszok"",""trilszom""]","","posttest trial","1",""
"html-button-response-clever","138","923117","0.0-13.0-0.18","511","Te bizony sokat böjzöl. Én is sokat...","0","böjzöm","[""böjzöm"",""böjzök""]","","posttest trial","1",""
"html-button-response-clever","139","923912","0.0-13.0-0.19","285","Te bizony sokat narjárzol. Én is sokat...","0","narjárzom","[""narjárzom"",""narjárzok""]","","posttest trial","1",""
"html-button-response-clever","140","924835","0.0-13.0-0.20","412","Te bizony sokat driládzol. Én is sokat...","0","driládzom","[""driládzom"",""driládzok""]","","posttest trial","1",""
"html-button-response-clever","141","925735","0.0-13.0-0.21","397","Te bizony sokat tiregzel. Én is sokat...","1","tiregzek","[""tiregzem"",""tiregzek""]","","posttest trial","1",""
"html-button-response-clever","142","927280","0.0-13.0-0.22","1043","Te bizony sokat frilegszel. Én is sokat...","0","frilegszek","[""frilegszek"",""frilegszem""]","","posttest trial","1",""
"html-button-response-clever","143","928450","0.0-13.0-0.23","655","Te bizony sokat sojzol. Én is sokat...","1","sojzok","[""sojzom"",""sojzok""]","","posttest trial","1",""
"html-button-response-clever","144","929305","0.0-13.0-0.24","353","Te bizony sokat piragszol. Én is sokat...","0","piragszok","[""piragszok"",""piragszom""]","","posttest trial","1",""
"html-button-response-clever","145","930070","0.0-13.0-0.25","261","Te bizony sokat büglesz. Én is sokat...","1","büglöm","[""büglök"",""büglöm""]","","posttest trial","1",""
"html-button-response-clever","146","930812","0.0-13.0-0.26","240","Te bizony sokat vilakszol. Én is sokat...","0","vilakszok","[""vilakszok"",""vilakszom""]","","posttest trial","1",""
"html-button-response-clever","147","931660","0.0-13.0-0.27","340","Te bizony sokat prilegzel. Én is sokat...","1","prilegzek","[""prilegzem"",""prilegzek""]","","posttest trial","1",""
"html-button-response-clever","148","932515","0.0-13.0-0.28","353","Te bizony sokat szirlasz. Én is sokat...","1","szirlok","[""szirlom"",""szirlok""]","","posttest trial","1",""
"html-button-response-clever","149","933400","0.0-13.0-0.29","374","Te bizony sokat ribegzel. Én is sokat...","0","ribegzek","[""ribegzek"",""ribegzem""]","","posttest trial","1",""
"html-button-response-clever","150","934277","0.0-13.0-0.30","375","Te bizony sokat pivegszel. Én is sokat...","0","pivegszem","[""pivegszem"",""pivegszek""]","","posttest trial","1",""
"html-button-response-clever","151","935095","0.0-13.0-0.31","316","Te bizony sokat spűmlesz. Én is sokat...","1","spűmlök","[""spűmlöm"",""spűmlök""]","","posttest trial","1",""
"html-button-response-clever","152","936640","0.0-13.0-0.32","1037","Te bizony sokat juszlasz. Én is sokat...","0","juszlom","[""juszlom"",""juszlok""]","","posttest trial","1",""
"html-button-response-clever","153","939010","0.0-13.0-0.33","1868","Te bizony sokat klörlesz. Én is sokat...","1","klörlök","[""klörlöm"",""klörlök""]","","posttest trial","1",""
"html-button-response-clever","154","940473","0.0-13.0-0.34","960","Te bizony sokat marzol. Én is sokat...","0","marzom","[""marzom"",""marzok""]","","posttest trial","1",""
"html-button-response-clever","155","942318","0.0-13.0-0.35","1332","Te bizony sokat sűzlesz. Én is sokat...","1","sűzlöm","[""sűzlök"",""sűzlöm""]","","posttest trial","1",""
"html-button-response-clever","156","944456","0.0-13.0-0.36","1636","Te bizony sokat flűröklesz. Én is sokat...","0","flűröklök","[""flűröklök"",""flűröklöm""]","","posttest trial","1",""
"html-button-response-clever","157","946368","0.0-13.0-0.37","1406","Te bizony sokat sztremlesz. Én is sokat...","0","sztremlem","[""sztremlem"",""sztremlek""]","","posttest trial","1",""
"html-button-response-clever","158","947733","0.0-13.0-0.38","864","Te bizony sokat klibamlasz. Én is sokat...","0","klibamlom","[""klibamlom"",""klibamlok""]","","posttest trial","1",""
"html-button-response-clever","159","950021","0.0-13.0-0.39","1770","Te bizony sokat bölszöl. Én is sokat...","1","bölszöm","[""bölszök"",""bölszöm""]","","posttest trial","1",""
"html-button-response-clever","160","953111","0.0-13.0-0.40","2586","Te bizony sokat spibaklasz. Én is sokat...","0","spibaklok","[""spibaklok"",""spibaklom""]","","posttest trial","1",""
"html-button-response-clever","161","955661","0.0-13.0-0.41","2033","Te bizony sokat spilágzol. Én is sokat...","1","spilágzok","[""spilágzom"",""spilágzok""]","","posttest trial","1",""
"html-button-response-clever","162","957649","0.0-13.0-0.42","1473","Te bizony sokat ruslasz. Én is sokat...","0","ruslom","[""ruslom"",""ruslok""]","","posttest trial","1",""
"html-button-response-clever","163","960514","0.0-13.0-0.43","2363","Te bizony sokat drubódzol. Én is sokat...","1","drubódzok","[""drubódzom"",""drubódzok""]","","posttest trial","1",""
"html-button-response-clever","164","962720","0.0-13.0-0.44","1704","Te bizony sokat pratánylasz. Én is sokat...","0","pratánylom","[""pratánylom"",""pratánylok""]","","posttest trial","1",""
"html-button-response-clever","165","964497","0.0-13.0-0.45","1262","Te bizony sokat spéslesz. Én is sokat...","1","spéslek","[""spéslem"",""spéslek""]","","posttest trial","1",""
"html-button-response-clever","166","966425","0.0-13.0-0.46","1426","Te bizony sokat málapszol. Én is sokat...","0","málapszok","[""málapszok"",""málapszom""]","","posttest trial","1",""
"html-button-response-clever","167","970167","0.0-13.0-0.47","3241","Te bizony sokat feténylesz. Én is sokat...","0","feténylem","[""feténylem"",""feténylek""]","","posttest trial","1",""
"html-button-response-clever","168","971675","0.0-13.0-0.48","1005","Te bizony sokat ribzol. Én is sokat...","1","ribzom","[""ribzok"",""ribzom""]","","posttest trial","1",""
"html-button-response-clever","169","974203","0.0-13.0-0.49","2026","Te bizony sokat prűrlesz. Én is sokat...","0","prűrlöm","[""prűrlöm"",""prűrlök""]","","posttest trial","1",""
"html-button-response-clever","170","976610","0.0-13.0-0.50","1897","Te bizony sokat herégszel. Én is sokat...","1","herégszem","[""herégszek"",""herégszem""]","","posttest trial","1",""
"html-button-response-clever","171","978748","0.0-13.0-0.51","1634","Te bizony sokat sprökszöl. Én is sokat...","0","sprökszöm","[""sprökszöm"",""sprökszök""]","","posttest trial","1",""
"html-button-response-clever","172","980556","0.0-13.0-0.52","1301","Te bizony sokat brágaklasz. Én is sokat...","0","brágaklok","[""brágaklok"",""brágaklom""]","","posttest trial","1",""
"html-button-response-clever","173","982393","0.0-13.0-0.53","1329","Te bizony sokat lorjódzol. Én is sokat...","1","lorjódzok","[""lorjódzom"",""lorjódzok""]","","posttest trial","1",""
"html-button-response","174","991296","0.0-14.0","8399","<p> Vége a játéknak. A teljes pontszámod 26/54.</p><p> Szép munka! &#128526;&#128526;&#128526;</p><p>A Befejezés gomb megnyomása után bezárhatod a böngészőablakot.</p>","0","","","","","",""
"html-keyboard-response","175","996799","0.0-15.0","null","<div class=""message"">
         <p>Egy kis türelmet kérünk, amíg elmentjük az adatokat...</p>
         </div>","null","","","","","",""
