"trial_type","trial_index","time_elapsed","internal_node_id","rt","stimulus","response","response_string","choices","esp_response","trial_kind","list_number","esp_match"
"pavlovia","0","1002","0.0-0.0","","","","","","","","",""
"html-button-response","1","52619","0.0-1.0","51105","<p>Kedves Résztvevő! A Budapesti Műszaki és Gazdaságtudományi Egyetem Kognitív Tudományi Tanszékének kutatásában való részvételed kérjük. A kutatásban azt vizsgáljuk, hogy a magyar anyanyelvűek hogyan használnak bizonyos szóalakokat, és hogy milyen képük van arról, hogy mások hogyan használják, hogyan képzik a szavakat. Ez hozzásegít bennünket ahhoz, hogy jobban megértsük, hogyan dolgozza fel és tárolja a nyelvet az emberi agy, és hogyan működnek, hogyan változnak egy adott közösség nyelvi konvenciói.</p><p>A vizsgálat egy rövid számítógépes feladatból fog állni. A kutatásban való részvétel önkéntes, a részvételi szándék bármikor visszavonható. A résztvevők eredményeit név nélkül kezeljük, így nem beazonosíthatók az adatok feldolgozása során. Minden személyes adatot az EU általános adatvédelmi rendeletének (GDPR) megfelelően kezelünk és legfeljebb öt éven belül megsemmisítünk. A vizsgálat jellemzően húsz percet vesz igénybe.</p><p>Kutatásvezető:</p><p>Dr. Rácz Péter, tudományos munkatárs, BME KTT</p><p>e-mail: racz.peter.marton@ttk.bme.hu</p>","0","","","","","",""
"html-button-response","2","100747","0.0-2.0","47608","<p>A kísérletben szavakat fogsz látni. Ezek között lesznek olyanok, amelyeket ismersz, de előfordulhatnak olyanok is, amelyeket nem ismersz, sőt, vannak köztük kitalált szavak is. Minden szónál látni fogsz toldalékolt alakokat. A te feladatod az lesz, hogy minden szóhoz kiválaszd azt a toldalékolt alakot, amely a te számodra ismerősebben, természetesebben hangzik. Rossz válaszok nincsenek, mert van olyan, hogy különböző embereknek más és más szó tűnik jobb választásnak. A választ úgy tudod majd kiválasztani, ha rákattintasz.</p><p>Ebben a szóválasztós játékban egy másik játékossal együtt veszel majd részt. A másik játékos is minden esetben azok közül a lehetőségek közül válogathat, mint te. Kettőtök feladata az, hogy ugyanazt a lehetőséget válasszátok minden esetben. Ahhoz, hogy ez sikerüljön, neked figyelned kell arra, hogy a másik játékos milyen válaszokat ad, és ennek alapján meg kell tippelned, hogyan választ legközelebb. Ha eltalálod, akkor pontot kapsz.</p>","0","","","","","",""
"html-button-response","3","131027","0.0-3.0","29760","<p>Kérjük, olvasd el az alábbi nyilatkozatot, és amennyiben egyetértesz vele, nyomj a Beleegyezés gombra!</p><p>Kijelentem, hogy magyar anyanyelvű személyként önként veszek részt a BME KTT kísérletében. A kutatás céljával és folyamatával kapcsolatban elegendő tájékoztatást kaptam, lehetőségem volt kérdések feltételére, és esetleges kérdéseimre megfelelő válaszokat kaptam. A tájékoztatás alapján elegendő mennyiségű információ áll a rendelkezésemre, hogy eldönthessem, részt kívánok-e venni a kutatásban.</p><p>Tisztában vagyok vele, hogy részvételi szándékomat és adataimat bármikor, indoklás nélkül visszavonhatom.</p><p>Értem és tudomásul veszem, hogy a kutatás tudományos célokat szolgál, és az általam szolgáltatott adatokat a BME kizárólag kutatási célból használja fel. Tudomásul veszem, hogy eredményeimet a többi résztvevő eredményeivel együtt kezelik, így egyéni teljesítményemről visszajelzést, szakvéleményt nem kapok.</p><p>Megértettem, hogy adataim kezelését illetően a BME az EU általános adatvédelmi rendelete (GDPR), a hatályos adatvédelmi törvény és a nemzetközi kutatás-etikai alapelvek szerint jár el. Eredményeim anonim módon kerülnek feldolgozásra, és a kutatás résztvevői az azonosításomra alkalmas adataimat harmadik félnek nem szolgáltatják ki. Engedélyezem a BME számára a jelen kutatásban felvett adataim feldolgozását és tárolását, beleértve azok későbbi kutatásokhoz való felhasználását is. Személyes adataim kezelésével kapcsolatban tájékoztatást kérhetek a kutatás résztvevőitől, az adatkezelés ellen tiltakozhatok, kérhetem személyes adataim helyesbítését, törlését vagy zárolását, valamint jogorvoslatért a Nemzeti Adatvédelmi és Információszabadság Hatósághoz fordulhatok.</p><p>Kijelentem, hogy a kutatásban való részvételem körülményeiről részletes tájékoztatást kaptam, és a feltételeket elfogadom.</p>","0","","","","","",""
"survey-text","4","175518","0.0-4.0","43968","","{""Q0"":""bnzowg"",""Q1"":"""",""Q2"":""1983"",""Q3"":""17""}","","","","","",""
"html-button-response","5","192059","0.0-5.0","16037","<p>Ebben a játékban szavakat kell toldalékolni.</p> <p>Minden körben mutatunk majd egy példamondatot, amiben lesz egy szó.</p> <p>Alatta jön egy második mondat, ezt a mondatot neked kell majd befejezni, ugyanezzel a szóval.</p> <p>Nem biztos, hogy a szó eleve ismerős lesz számodra!</p> <p>Minden mondathoz adunk két lehetőséget, ezeket balra és jobbra látod majd.</p> <p>A játék kb. negyedóráig-húsz percig tart.</p>","0","","","","","",""
"html-button-response","6","213611","0.0-6.0","21032","<p>Nézzünk egy példát!</p> <p>A példamondat: ""János imád fláramolni, ezért sokat fláramlik.""</p><p>Neked ezt a mondatot kell befejezned: ""Ti ritkán...""</p><p>A lehetőségek pedig ezek:</p>","0","","","","","",""
"html-button-response","7","237571","0.0-7.0","23446","<p>Nagyon jó.</p><p>Ezt a játékot nem egyedül fogod játszani, hanem egy másik játékossal.</p><p>Mielőtt továbblépünk, összekapcsolunk titeket egymással.</p><p>Ez igénybe vehet néhány másodpercet, amihez szíves türelmed kérjük.</p>","0","","","","","",""
"html-button-response","8","243305","0.0-8.0","null","<p>Csatlakozás a másik játékoshoz...</p>","null","","","","","",""
"html-button-response","9","245814","0.0-9.0","null","<p> Sikeres kapcsolódás!</p>","null","","","","","",""
"html-button-response","10","256321","0.0-10.0","null","<p>A következőkben ketten játsszátok a szóválasztós játékot.</p><p>A feladatotok az lesz, hogy minden körben <b>ugyanazt</b> a szót válasszátok.</p><p>Minden ilyen egyező válaszért pontot kaptok.</p><p>Próbáld meg kitalálni, mit választ a másik játékos!</p><p>Bármikor választhatsz, a körnek akkor van vége, ha mindketten döntöttetek.</p><p>Sok sikert!</p>","null","","","","","",""
"html-button-response-esp","11","323803","0.0-11.0-0.0","66971","János imád tögözni, ezért sokat töglik. Ők ritkán...","1","töglenek","[""tögöznek"",""töglenek""]","töglenek","esp trial","3","true"
"html-button-response","12","327321","0.0-11.0-1.0","null","<p>A másik játékos ezt választotta: <b>töglenek</b>.</p><p>&#x2705;</p><p>A te válaszod és a másik játékos válasza <b>megegyeznek</b>.</p>","null","","","","feedback trial","",""
"html-button-response-esp","13","338883","0.0-11.0-0.1","11057","János imád flugonyozni, ezért sokat flugonylik. Ők ritkán...","0","flugonylanak","[""flugonylanak"",""flugonyoznak""]","flugonyoznak","esp trial","3","false"
"html-button-response","14","342398","0.0-11.0-1.1","null","<p>A másik játékos ezt választotta: <b>flugonyoznak</b>.</p><p>&#10060;</p><p>A válaszaitok <b>nem</b> egyeznek meg.</p>","null","","","","feedback trial","",""
"html-button-response-esp","15","352315","0.0-11.0-0.2","9414","János imád hubonyozni, ezért sokat hubonylik. Ti ritkán...","1","hubonylotok","[""hubonyoztok"",""hubonylotok""]","hubonyoztok","esp trial","3","false"
"html-button-response","16","355837","0.0-11.0-1.2","null","<p>A másik játékos ezt választotta: <b>hubonyoztok</b>.</p><p>&#10060;</p><p>A válaszaitok <b>nem</b> egyeznek meg.</p>","null","","","","feedback trial","",""
"html-button-response-esp","17","363570","0.0-11.0-0.3","7222","János imád flodozni, ezért sokat flodlik. Ti ritkán...","1","flodlotok","[""flodoztok"",""flodlotok""]","flodoztok","esp trial","3","false"
"html-button-response","18","367098","0.0-11.0-1.3","null","<p>A másik játékos ezt választotta: <b>flodoztok</b>.</p><p>&#10060;</p><p>A válaszaitok <b>nem</b> egyeznek meg.</p>","null","","","","feedback trial","",""
"html-button-response-esp","19","376178","0.0-11.0-0.4","8574","János imád ribegedni, ezért sokat ribegszik. Ti ritkán...","1","ribegszetek","[""ribegedtek"",""ribegszetek""]","ribegedtek","esp trial","3","false"
"html-button-response","20","379696","0.0-11.0-1.4","null","<p>A másik játékos ezt választotta: <b>ribegedtek</b>.</p><p>&#10060;</p><p>A válaszaitok <b>nem</b> egyeznek meg.</p>","null","","","","feedback trial","",""
"html-button-response-esp","21","388570","0.0-11.0-0.5","8371","János imád trukodni, ezért sokat trukszik. Ti ritkán...","1","trukszotok","[""trukodtok"",""trukszotok""]","trukodtok","esp trial","3","false"
"html-button-response","22","392087","0.0-11.0-1.5","null","<p>A másik játékos ezt választotta: <b>trukodtok</b>.</p><p>&#10060;</p><p>A válaszaitok <b>nem</b> egyeznek meg.</p>","null","","","","feedback trial","",""
"html-button-response-esp","23","409643","0.0-11.0-0.6","17053","János imád plibozni, ezért sokat plibzik. Ti ritkán...","0","pliboztok","[""pliboztok"",""plibzotok""]","pliboztok","esp trial","3","true"
"html-button-response","24","413166","0.0-11.0-1.6","null","<p>A másik játékos ezt választotta: <b>pliboztok</b>.</p><p>&#x2705;</p><p>A te válaszod és a másik játékos válasza <b>megegyeznek</b>.</p>","null","","","","feedback trial","",""
"html-button-response-esp","25","457570","0.0-11.0-0.7","43904","János imád bügözni, ezért sokat bügzik. Ők ritkán...","1","bügzenek","[""bügöznek"",""bügzenek""]","bügzenek","esp trial","3","true"
"html-button-response","26","461094","0.0-11.0-1.7","null","<p>A másik játékos ezt választotta: <b>bügzenek</b>.</p><p>&#x2705;</p><p>A te válaszod és a másik játékos válasza <b>megegyeznek</b>.</p>","null","","","","feedback trial","",""
"html-button-response-esp","27","467171","0.0-11.0-0.8","5573","János imád flátozni, ezért sokat flátlik. Ti ritkán...","0","flátlotok","[""flátlotok"",""flátoztok""]","flátoztok","esp trial","3","false"
"html-button-response","28","470695","0.0-11.0-1.8","null","<p>A másik játékos ezt választotta: <b>flátoztok</b>.</p><p>&#10060;</p><p>A válaszaitok <b>nem</b> egyeznek meg.</p>","null","","","","feedback trial","",""
"html-button-response-esp","29","476890","0.0-11.0-0.9","5682","János imád brűközni, ezért sokat brűklik. Ti ritkán...","1","brűköztök","[""brűklötök"",""brűköztök""]","brűköztök","esp trial","3","true"
"html-button-response","30","480404","0.0-11.0-1.9","null","<p>A másik játékos ezt választotta: <b>brűköztök</b>.</p><p>&#x2705;</p><p>A te válaszod és a másik játékos válasza <b>megegyeznek</b>.</p>","null","","","","feedback trial","",""
"html-button-response-esp","31","487026","0.0-11.0-0.10","6120","János imád gihamozni, ezért sokat gihamlik. Ők ritkán...","1","gihamoznak","[""gihamlanak"",""gihamoznak""]","gihamoznak","esp trial","3","true"
"html-button-response","32","490544","0.0-11.0-1.10","null","<p>A másik játékos ezt választotta: <b>gihamoznak</b>.</p><p>&#x2705;</p><p>A te válaszod és a másik játékos válasza <b>megegyeznek</b>.</p>","null","","","","feedback trial","",""
"html-button-response-esp","33","500555","0.0-11.0-0.11","9507","János imád nurokozni, ezért sokat nuroklik. Mi ritkán...","0","nurokozunk","[""nurokozunk"",""nuroklunk""]","nuroklunk","esp trial","3","false"
"html-button-response","34","504064","0.0-11.0-1.11","null","<p>A másik játékos ezt választotta: <b>nuroklunk</b>.</p><p>&#10060;</p><p>A válaszaitok <b>nem</b> egyeznek meg.</p>","null","","","","feedback trial","",""
"html-button-response-esp","35","519642","0.0-11.0-0.12","15075","János imád spuborozni, ezért sokat spuborzik. Ők ritkán...","0","spuboroznak","[""spuboroznak"",""spuborzanak""]","spuboroznak","esp trial","3","true"
"html-button-response","36","523163","0.0-11.0-1.12","null","<p>A másik játékos ezt választotta: <b>spuboroznak</b>.</p><p>&#x2705;</p><p>A te válaszod és a másik játékos válasza <b>megegyeznek</b>.</p>","null","","","","feedback trial","",""
"html-button-response-esp","37","530274","0.0-11.0-0.13","6608","János imád vehékedni, ezért sokat vehékszik. Mi ritkán...","0","vehékszünk","[""vehékszünk"",""vehékedünk""]","vehékszünk","esp trial","3","true"
"html-button-response","38","533792","0.0-11.0-1.13","null","<p>A másik játékos ezt választotta: <b>vehékszünk</b>.</p><p>&#x2705;</p><p>A te válaszod és a másik játékos válasza <b>megegyeznek</b>.</p>","null","","","","feedback trial","",""
"html-button-response-esp","39","539906","0.0-11.0-0.14","5608","János imád nyöbözni, ezért sokat nyöbzik. Ők ritkán...","0","nyöböznek","[""nyöböznek"",""nyöbzenek""]","nyöböznek","esp trial","3","true"
"html-button-response","40","543426","0.0-11.0-1.14","null","<p>A másik játékos ezt választotta: <b>nyöböznek</b>.</p><p>&#x2705;</p><p>A te válaszod és a másik játékos válasza <b>megegyeznek</b>.</p>","null","","","","feedback trial","",""
"html-button-response-esp","41","551627","0.0-11.0-0.15","7694","János imád trálakozni, ezért sokat trálaklik. Ők ritkán...","0","trálakoznak","[""trálakoznak"",""trálaklanak""]","trálakoznak","esp trial","3","true"
"html-button-response","42","555161","0.0-11.0-1.15","null","<p>A másik játékos ezt választotta: <b>trálakoznak</b>.</p><p>&#x2705;</p><p>A te válaszod és a másik játékos válasza <b>megegyeznek</b>.</p>","null","","","","feedback trial","",""
"html-button-response-esp","43","560570","0.0-11.0-0.16","4904","János imád sűjözni, ezért sokat sűjlik. Mi ritkán...","0","sűjözünk","[""sűjözünk"",""sűjlünk""]","sűjlünk","esp trial","3","false"
"html-button-response","44","564099","0.0-11.0-1.16","null","<p>A másik játékos ezt választotta: <b>sűjlünk</b>.</p><p>&#10060;</p><p>A válaszaitok <b>nem</b> egyeznek meg.</p>","null","","","","feedback trial","",""
"html-button-response-esp","45","617715","0.0-11.0-0.17","53110","János imád trálodni, ezért sokat trálszik. Mi ritkán...","0","trálszunk","[""trálszunk"",""trálodunk""]","trálszunk","esp trial","3","true"
"html-button-response","46","621236","0.0-11.0-1.17","null","<p>A másik játékos ezt választotta: <b>trálszunk</b>.</p><p>&#x2705;</p><p>A te válaszod és a másik játékos válasza <b>megegyeznek</b>.</p>","null","","","","feedback trial","",""
"html-button-response-esp","47","641386","0.0-11.0-0.18","19647","János imád bresezni, ezért sokat breslik. Ők ritkán...","1","breseznek","[""breslenek"",""breseznek""]","breseznek","esp trial","3","true"
"html-button-response","48","644907","0.0-11.0-1.18","null","<p>A másik játékos ezt választotta: <b>breseznek</b>.</p><p>&#x2705;</p><p>A te válaszod és a másik játékos válasza <b>megegyeznek</b>.</p>","null","","","","feedback trial","",""
"html-button-response-esp","49","654762","0.0-11.0-0.19","9353","János imád frirozni, ezért sokat frirzik. Mi ritkán...","1","frirozunk","[""frirzunk"",""frirozunk""]","frirozunk","esp trial","3","true"
"html-button-response","50","658290","0.0-11.0-1.19","null","<p>A másik játékos ezt választotta: <b>frirozunk</b>.</p><p>&#x2705;</p><p>A te válaszod és a másik játékos válasza <b>megegyeznek</b>.</p>","null","","","","feedback trial","",""
"html-button-response-esp","51","669107","0.0-11.0-0.20","10309","János imád bribékedni, ezért sokat bribékszik. Ti ritkán...","0","bribékszetek","[""bribékszetek"",""bribékedtek""]","bribékedtek","esp trial","3","false"
"html-button-response","52","672630","0.0-11.0-1.20","null","<p>A másik játékos ezt választotta: <b>bribékedtek</b>.</p><p>&#10060;</p><p>A válaszaitok <b>nem</b> egyeznek meg.</p>","null","","","","feedback trial","",""
"html-button-response-esp","53","684794","0.0-11.0-0.21","11661","János imád döjözni, ezért sokat döjlik. Ők ritkán...","0","döjlenek","[""döjlenek"",""döjöznek""]","döjlenek","esp trial","3","true"
"html-button-response","54","688313","0.0-11.0-1.21","null","<p>A másik játékos ezt választotta: <b>döjlenek</b>.</p><p>&#x2705;</p><p>A te válaszod és a másik játékos válasza <b>megegyeznek</b>.</p>","null","","","","feedback trial","",""
"html-button-response-esp","55","696634","0.0-11.0-0.22","7816","János imád hiragozni, ezért sokat hiragzik. Ők ritkán...","0","hiragoznak","[""hiragoznak"",""hiragzanak""]","hiragoznak","esp trial","3","true"
"html-button-response","56","700160","0.0-11.0-1.22","null","<p>A másik játékos ezt választotta: <b>hiragoznak</b>.</p><p>&#x2705;</p><p>A te válaszod és a másik játékos válasza <b>megegyeznek</b>.</p>","null","","","","feedback trial","",""
"html-button-response-esp","57","707226","0.0-11.0-0.23","6563","János imád nyizozni, ezért sokat nyizlik. Mi ritkán...","1","nyizlunk","[""nyizozunk"",""nyizlunk""]","nyizlunk","esp trial","3","true"
"html-button-response","58","710745","0.0-11.0-1.23","null","<p>A másik játékos ezt választotta: <b>nyizlunk</b>.</p><p>&#x2705;</p><p>A te válaszod és a másik játékos válasza <b>megegyeznek</b>.</p>","null","","","","feedback trial","",""
"html-button-response-esp","59","724690","0.0-11.0-0.24","13443","János imád frorozni, ezért sokat frorlik. Ők ritkán...","1","froroznak","[""frorlanak"",""froroznak""]","frorlanak","esp trial","3","false"
"html-button-response","60","728206","0.0-11.0-1.24","null","<p>A másik játékos ezt választotta: <b>frorlanak</b>.</p><p>&#10060;</p><p>A válaszaitok <b>nem</b> egyeznek meg.</p>","null","","","","feedback trial","",""
"html-button-response-esp","61","756954","0.0-11.0-0.25","28241","János imád jurozni, ezért sokat jurlik. Mi ritkán...","0","jurozunk","[""jurozunk"",""jurlunk""]","jurozunk","esp trial","3","true"
"html-button-response","62","760479","0.0-11.0-1.25","null","<p>A másik játékos ezt választotta: <b>jurozunk</b>.</p><p>&#x2705;</p><p>A te válaszod és a másik játékos válasza <b>megegyeznek</b>.</p>","null","","","","feedback trial","",""
"html-button-response-esp","63","767466","0.0-11.0-0.26","6484","János imád bribasozni, ezért sokat bribaslik. Ők ritkán...","1","bribasoznak","[""bribaslanak"",""bribasoznak""]","bribasoznak","esp trial","3","true"
"html-button-response","64","770986","0.0-11.0-1.26","null","<p>A másik játékos ezt választotta: <b>bribasoznak</b>.</p><p>&#x2705;</p><p>A te válaszod és a másik játékos válasza <b>megegyeznek</b>.</p>","null","","","","feedback trial","",""
"html-button-response-esp","65","778178","0.0-11.0-0.27","6690","János imád klűmözni, ezért sokat klűmlik. Ti ritkán...","1","klűmöztök","[""klűmlötök"",""klűmöztök""]","klűmöztök","esp trial","3","true"
"html-button-response","66","781683","0.0-11.0-1.27","null","<p>A másik játékos ezt választotta: <b>klűmöztök</b>.</p><p>&#x2705;</p><p>A te válaszod és a másik játékos válasza <b>megegyeznek</b>.</p>","null","","","","feedback trial","",""
"html-button-response-esp","67","788482","0.0-11.0-0.28","6296","János imád brürözni, ezért sokat brürzik. Ők ritkán...","1","brüröznek","[""brürzenek"",""brüröznek""]","brüröznek","esp trial","3","true"
"html-button-response","68","792008","0.0-11.0-1.28","null","<p>A másik játékos ezt választotta: <b>brüröznek</b>.</p><p>&#x2705;</p><p>A te válaszod és a másik játékos válasza <b>megegyeznek</b>.</p>","null","","","","feedback trial","",""
"html-button-response-esp","69","819538","0.0-11.0-0.29","27023","János imád sztredezni, ezért sokat sztredlik. Ti ritkán...","0","sztredeztek","[""sztredeztek"",""sztredletek""]","sztredeztek","esp trial","3","true"
"html-button-response","70","823062","0.0-11.0-1.29","null","<p>A másik játékos ezt választotta: <b>sztredeztek</b>.</p><p>&#x2705;</p><p>A te válaszod és a másik játékos válasza <b>megegyeznek</b>.</p>","null","","","","feedback trial","",""
"html-button-response-esp","71","826807","0.0-11.0-0.30","1862","János imád sprebezni, ezért sokat sprebzik. Ők ritkán...","0","sprebeznek","[""sprebeznek"",""sprebzenek""]","sprebeznek","esp trial","3","true"
"html-button-response","72","830320","0.0-11.0-1.30","null","<p>A másik játékos ezt választotta: <b>sprebeznek</b>.</p><p>&#x2705;</p><p>A te válaszod és a másik játékos válasza <b>megegyeznek</b>.</p>","null","","","","feedback trial","",""
"html-button-response-esp","73","834065","0.0-11.0-0.31","701","János imád metégedni, ezért sokat metégszik. Ők ritkán...","0","metégszenek","[""metégszenek"",""metégednek""]","metégednek","esp trial","3","false"
"html-button-response","74","837575","0.0-11.0-1.31","null","<p>A másik játékos ezt választotta: <b>metégednek</b>.</p><p>&#10060;</p><p>A válaszaitok <b>nem</b> egyeznek meg.</p>","null","","","","feedback trial","",""
"html-button-response-esp","75","841320","0.0-11.0-0.32","734","János imád spivejezni, ezért sokat spivejlik. Ők ritkán...","0","spivejlenek","[""spivejlenek"",""spivejeznek""]","spivejeznek","esp trial","3","false"
"html-button-response","76","844833","0.0-11.0-1.32","null","<p>A másik játékos ezt választotta: <b>spivejeznek</b>.</p><p>&#10060;</p><p>A válaszaitok <b>nem</b> egyeznek meg.</p>","null","","","","feedback trial","",""
"html-button-response-esp","77","850890","0.0-11.0-0.33","5555","János imád nivározni, ezért sokat nivárzik. Ti ritkán...","1","nivároztok","[""nivárzotok"",""nivároztok""]","nivároztok","esp trial","3","true"
"html-button-response","78","854405","0.0-11.0-1.33","null","<p>A másik játékos ezt választotta: <b>nivároztok</b>.</p><p>&#x2705;</p><p>A te válaszod és a másik játékos válasza <b>megegyeznek</b>.</p>","null","","","","feedback trial","",""
"html-button-response-esp","79","859826","0.0-11.0-0.34","4919","János imád nyülöközni, ezért sokat nyülöklik. Ők ritkán...","1","nyülöklenek","[""nyülököznek"",""nyülöklenek""]","nyülököznek","esp trial","3","false"
"html-button-response","80","863352","0.0-11.0-1.34","null","<p>A másik játékos ezt választotta: <b>nyülököznek</b>.</p><p>&#10060;</p><p>A válaszaitok <b>nem</b> egyeznek meg.</p>","null","","","","feedback trial","",""
"html-button-response-esp","81","868954","0.0-11.0-0.35","5100","János imád vilesezni, ezért sokat vileslik. Mi ritkán...","0","vilesezünk","[""vilesezünk"",""vileslünk""]","vilesezünk","esp trial","3","true"
"html-button-response","82","872471","0.0-11.0-1.35","null","<p>A másik játékos ezt választotta: <b>vilesezünk</b>.</p><p>&#x2705;</p><p>A te válaszod és a másik játékos válasza <b>megegyeznek</b>.</p>","null","","","","feedback trial","",""
"html-button-response-esp","83","877266","0.0-11.0-0.36","4294","János imád trilekedni, ezért sokat trilekszik. Ti ritkán...","1","trilekszetek","[""trilekedtek"",""trilekszetek""]","trilekedtek","esp trial","3","false"
"html-button-response","84","880785","0.0-11.0-1.36","null","<p>A másik játékos ezt választotta: <b>trilekedtek</b>.</p><p>&#10060;</p><p>A válaszaitok <b>nem</b> egyeznek meg.</p>","null","","","","feedback trial","",""
"html-button-response-esp","85","887802","0.0-11.0-0.37","6514","János imád frélegezni, ezért sokat frélegzik. Mi ritkán...","0","frélegzünk","[""frélegzünk"",""frélegezünk""]","frélegzünk","esp trial","3","true"
"html-button-response","86","891317","0.0-11.0-1.37","null","<p>A másik játékos ezt választotta: <b>frélegzünk</b>.</p><p>&#x2705;</p><p>A te válaszod és a másik játékos válasza <b>megegyeznek</b>.</p>","null","","","","feedback trial","",""
"html-button-response-esp","87","905922","0.0-11.0-0.38","14103","János imád dibágozni, ezért sokat dibáglik. Ti ritkán...","1","dibágoztok","[""dibáglotok"",""dibágoztok""]","dibágoztok","esp trial","3","true"
"html-button-response","88","909447","0.0-11.0-1.38","null","<p>A másik játékos ezt választotta: <b>dibágoztok</b>.</p><p>&#x2705;</p><p>A te válaszod és a másik játékos válasza <b>megegyeznek</b>.</p>","null","","","","feedback trial","",""
"html-button-response-esp","89","918578","0.0-11.0-0.39","8627","János imád dralágozni, ezért sokat dralágzik. Mi ritkán...","1","dralágzunk","[""dralágozunk"",""dralágzunk""]","dralágzunk","esp trial","3","true"
"html-button-response","90","922095","0.0-11.0-1.39","null","<p>A másik játékos ezt választotta: <b>dralágzunk</b>.</p><p>&#x2705;</p><p>A te válaszod és a másik játékos válasza <b>megegyeznek</b>.</p>","null","","","","feedback trial","",""
"html-button-response-esp","91","926506","0.0-11.0-0.40","3904","János imád flerékedni, ezért sokat flerékszik. Mi ritkán...","0","flerékszünk","[""flerékszünk"",""flerékedünk""]","flerékedünk","esp trial","3","false"
"html-button-response","92","930013","0.0-11.0-1.40","null","<p>A másik játékos ezt választotta: <b>flerékedünk</b>.</p><p>&#10060;</p><p>A válaszaitok <b>nem</b> egyeznek meg.</p>","null","","","","feedback trial","",""
"html-button-response-esp","93","934778","0.0-11.0-0.41","4261","János imád vihapodni, ezért sokat vihapszik. Mi ritkán...","1","vihapszunk","[""vihapodunk"",""vihapszunk""]","vihapszunk","esp trial","3","true"
"html-button-response","94","938297","0.0-11.0-1.41","null","<p>A másik játékos ezt választotta: <b>vihapszunk</b>.</p><p>&#x2705;</p><p>A te válaszod és a másik játékos válasza <b>megegyeznek</b>.</p>","null","","","","feedback trial","",""
"html-button-response-esp","95","942506","0.0-11.0-0.42","3707","János imád klihasozni, ezért sokat klihaslik. Ti ritkán...","0","klihasoztok","[""klihasoztok"",""klihaslotok""]","klihasoztok","esp trial","3","true"
"html-button-response","96","946026","0.0-11.0-1.42","null","<p>A másik játékos ezt választotta: <b>klihasoztok</b>.</p><p>&#x2705;</p><p>A te válaszod és a másik játékos válasza <b>megegyeznek</b>.</p>","null","","","","feedback trial","",""
"html-button-response-esp","97","954842","0.0-11.0-0.43","8314","János imád klégezni, ezért sokat kléglik. Mi ritkán...","0","klégezünk","[""klégezünk"",""kléglünk""]","kléglünk","esp trial","3","false"
"html-button-response","98","958368","0.0-11.0-1.43","null","<p>A másik játékos ezt választotta: <b>kléglünk</b>.</p><p>&#10060;</p><p>A válaszaitok <b>nem</b> egyeznek meg.</p>","null","","","","feedback trial","",""
"html-button-response-esp","99","966826","0.0-11.0-0.44","7956","János imád kláragodni, ezért sokat kláragszik. Ti ritkán...","1","kláragszotok","[""kláragodtok"",""kláragszotok""]","kláragodtok","esp trial","3","false"
"html-button-response","100","970343","0.0-11.0-1.44","null","<p>A másik játékos ezt választotta: <b>kláragodtok</b>.</p><p>&#10060;</p><p>A válaszaitok <b>nem</b> egyeznek meg.</p>","null","","","","feedback trial","",""
"html-button-response-esp","101","978946","0.0-11.0-0.45","8101","János imád frinyozni, ezért sokat frinylik. Mi ritkán...","1","frinyozunk","[""frinylunk"",""frinyozunk""]","frinyozunk","esp trial","3","true"
"html-button-response","102","982470","0.0-11.0-1.45","null","<p>A másik játékos ezt választotta: <b>frinyozunk</b>.</p><p>&#x2705;</p><p>A te válaszod és a másik játékos válasza <b>megegyeznek</b>.</p>","null","","","","feedback trial","",""
"html-button-response-esp","103","992834","0.0-11.0-0.46","9860","János imád bejezni, ezért sokat bejzik. Mi ritkán...","0","bejzünk","[""bejzünk"",""bejezünk""]","bejezünk","esp trial","3","false"
"html-button-response","104","996358","0.0-11.0-1.46","null","<p>A másik játékos ezt választotta: <b>bejezünk</b>.</p><p>&#10060;</p><p>A válaszaitok <b>nem</b> egyeznek meg.</p>","null","","","","feedback trial","",""
"html-button-response-esp","105","1002218","0.0-11.0-0.47","5357","János imád bötőrözni, ezért sokat bötőrzik. Mi ritkán...","0","bötőrzünk","[""bötőrzünk"",""bötőrözünk""]","bötőrözünk","esp trial","3","false"
"html-button-response","106","1005738","0.0-11.0-1.47","null","<p>A másik játékos ezt választotta: <b>bötőrözünk</b>.</p><p>&#10060;</p><p>A válaszaitok <b>nem</b> egyeznek meg.</p>","null","","","","feedback trial","",""
"html-button-response-esp","107","1022938","0.0-11.0-0.48","16699","János imád prugorozni, ezért sokat prugorzik. Ti ritkán...","1","prugoroztok","[""prugorzotok"",""prugoroztok""]","prugoroztok","esp trial","3","true"
"html-button-response","108","1026477","0.0-11.0-1.48","null","<p>A másik játékos ezt választotta: <b>prugoroztok</b>.</p><p>&#x2705;</p><p>A te válaszod és a másik játékos válasza <b>megegyeznek</b>.</p>","null","","","","feedback trial","",""
"html-button-response-esp","109","1030746","0.0-11.0-0.49","3764","János imád pibegezni, ezért sokat pibegzik. Ők ritkán...","1","pibegeznek","[""pibegzenek"",""pibegeznek""]","pibegeznek","esp trial","3","true"
"html-button-response","110","1034271","0.0-11.0-1.49","null","<p>A másik játékos ezt választotta: <b>pibegeznek</b>.</p><p>&#x2705;</p><p>A te válaszod és a másik játékos válasza <b>megegyeznek</b>.</p>","null","","","","feedback trial","",""
"html-button-response-esp","111","1040026","0.0-11.0-0.50","5248","János imád prihegedni, ezért sokat prihegszik. Ők ritkán...","0","prihegszenek","[""prihegszenek"",""prihegednek""]","prihegednek","esp trial","3","false"
"html-button-response","112","1043537","0.0-11.0-1.50","null","<p>A másik játékos ezt választotta: <b>prihegednek</b>.</p><p>&#10060;</p><p>A válaszaitok <b>nem</b> egyeznek meg.</p>","null","","","","feedback trial","",""
"html-button-response-esp","113","1054266","0.0-11.0-0.51","10226","János imád nyádozni, ezért sokat nyádlik. Ők ritkán...","0","nyádoznak","[""nyádoznak"",""nyádlanak""]","nyádlanak","esp trial","3","false"
"html-button-response","114","1057784","0.0-11.0-1.51","null","<p>A másik játékos ezt választotta: <b>nyádlanak</b>.</p><p>&#10060;</p><p>A válaszaitok <b>nem</b> egyeznek meg.</p>","null","","","","feedback trial","",""
"html-button-response-esp","115","1063690","0.0-11.0-0.52","5403","János imád géregezni, ezért sokat géreglik. Ti ritkán...","0","géregeztek","[""géregeztek"",""géregletek""]","géregeztek","esp trial","3","true"
"html-button-response","116","1067203","0.0-11.0-1.52","null","<p>A másik játékos ezt választotta: <b>géregeztek</b>.</p><p>&#x2705;</p><p>A te válaszod és a másik játékos válasza <b>megegyeznek</b>.</p>","null","","","","feedback trial","",""
"html-button-response-esp","117","1071594","0.0-11.0-0.53","3889","János imád játozni, ezért sokat játlik. Mi ritkán...","1","játozunk","[""játlunk"",""játozunk""]","játlunk","esp trial","3","false"
"html-button-response","118","1075121","0.0-11.0-1.53","null","<p>A másik játékos ezt választotta: <b>játlunk</b>.</p><p>&#10060;</p><p>A válaszaitok <b>nem</b> egyeznek meg.</p>","null","","","","feedback trial","",""
"html-button-response","119","1175786","0.0-12.0","100152","<p>A közös játék most véget ért.</p><p>Mielőtt eláruljuk a végső pontszámodat, arra kérlek, játszd a szóválasztós játékot néhány percig egyedül is.</p><p>A feladatod ugyanaz lesz, választani két lehetőség közül.</p><p>Most viszont egyedül kell döntened, hogy te melyiket választanád.</p>","0","","","","","",""
"html-button-response-clever","120","1185922","0.0-13.0-0.0","9625","János imád brivakozni, ezért sokat brivaklik. Ti ritkán...","1","brivaklotok","[""brivakoztok"",""brivaklotok""]","","posttest trial","4",""
"html-button-response-clever","121","1196386","0.0-13.0-0.1","9958","János imád nyürözni, ezért sokat nyürzik. Ők ritkán...","0","nyürzenek","[""nyürzenek"",""nyüröznek""]","","posttest trial","4",""
"html-button-response-clever","122","1202218","0.0-13.0-0.2","5319","János imád kűdözni, ezért sokat kűdlik. Ők ritkán...","1","kűdlenek","[""kűdöznek"",""kűdlenek""]","","posttest trial","4",""
"html-button-response-clever","123","1212721","0.0-13.0-0.3","9987","János imád virozni, ezért sokat virzik. Ők ritkán...","1","virzanak","[""viroznak"",""virzanak""]","","posttest trial","4",""
"html-button-response-clever","124","1219226","0.0-13.0-0.4","5992","János imád flöközni, ezért sokat flöklik. Ti ritkán...","0","flöklötök","[""flöklötök"",""flököztök""]","","posttest trial","4",""
"html-button-response-clever","125","1234385","0.0-13.0-0.5","14644","János imád molodni, ezért sokat molszik. Ti ritkán...","1","molodtok","[""molszotok"",""molodtok""]","","posttest trial","4",""
"html-button-response-clever","126","1238530","0.0-13.0-0.6","3631","János imád trugozni, ezért sokat trugzik. Ők ritkán...","1","trugzanak","[""trugoznak"",""trugzanak""]","","posttest trial","4",""
"html-button-response-clever","127","1244610","0.0-13.0-0.7","5566","János imád branyozni, ezért sokat branylik. Ők ritkán...","0","branylanak","[""branylanak"",""branyoznak""]","","posttest trial","4",""
"html-button-response-clever","128","1255330","0.0-13.0-0.8","10210","János imád nyivágozni, ezért sokat nyivágzik. Mi ritkán...","0","nyivágozunk","[""nyivágozunk"",""nyivágzunk""]","","posttest trial","4",""
"html-button-response-clever","129","1261154","0.0-13.0-0.9","5308","János imád dujozni, ezért sokat dujzik. Ők ritkán...","0","dujzanak","[""dujzanak"",""dujoznak""]","","posttest trial","4",""
"html-button-response-clever","130","1265914","0.0-13.0-0.10","4248","János imád flűgözni, ezért sokat flűgzik. Mi ritkán...","1","flűgzünk","[""flűgözünk"",""flűgzünk""]","","posttest trial","4",""
"html-button-response-clever","131","1271330","0.0-13.0-0.11","4896","János imád frakozni, ezért sokat fraklik. Mi ritkán...","1","fraklunk","[""frakozunk"",""fraklunk""]","","posttest trial","4",""
"html-button-response-clever","132","1276953","0.0-13.0-0.12","5111","János imád trugokozni, ezért sokat trugoklik. Ők ritkán...","1","trugoklanak","[""trugokoznak"",""trugoklanak""]","","posttest trial","4",""
"html-button-response-clever","133","1283522","0.0-13.0-0.13","6057","János imád trikozni, ezért sokat triklik. Ti ritkán...","0","triklotok","[""triklotok"",""trikoztok""]","","posttest trial","4",""
"html-button-response-clever","134","1289226","0.0-13.0-0.14","5195","János imád sprudozni, ezért sokat sprudlik. Mi ritkán...","0","sprudlunk","[""sprudlunk"",""sprudozunk""]","","posttest trial","4",""
"html-button-response-clever","135","1295178","0.0-13.0-0.15","5443","János imád privékedni, ezért sokat privékszik. Ők ritkán...","0","privékednek","[""privékednek"",""privékszenek""]","","posttest trial","4",""
"html-button-response-clever","136","1300897","0.0-13.0-0.16","5210","János imád prélemezni, ezért sokat prélemlik. Ők ritkán...","1","prélemlenek","[""prélemeznek"",""prélemlenek""]","","posttest trial","4",""
"html-button-response-clever","137","1305130","0.0-13.0-0.17","3721","János imád lűközni, ezért sokat lűklik. Ők ritkán...","1","lűklenek","[""lűköznek"",""lűklenek""]","","posttest trial","4",""
"html-button-response-clever","138","1310305","0.0-13.0-0.18","4666","János imád klehényezni, ezért sokat klehénylik. Ti ritkán...","0","klehényletek","[""klehényletek"",""klehényeztek""]","","posttest trial","4",""
"html-button-response-clever","139","1316618","0.0-13.0-0.19","5802","János imád spügözni, ezért sokat spügzik. Mi ritkán...","1","spügzünk","[""spügözünk"",""spügzünk""]","","posttest trial","4",""
"html-button-response-clever","140","1322073","0.0-13.0-0.20","4940","János imád frálasozni, ezért sokat frálaslik. Ők ritkán...","0","frálaslanak","[""frálaslanak"",""frálasoznak""]","","posttest trial","4",""
"html-button-response-clever","141","1327690","0.0-13.0-0.21","5099","János imád brülösözni, ezért sokat brülöslik. Mi ritkán...","1","brülöslünk","[""brülösözünk"",""brülöslünk""]","","posttest trial","4",""
"html-button-response-clever","142","1334009","0.0-13.0-0.22","5814","János imád pragányozni, ezért sokat pragánylik. Ti ritkán...","1","pragánylotok","[""pragányoztok"",""pragánylotok""]","","posttest trial","4",""
"html-button-response-clever","143","1341234","0.0-13.0-0.23","6712","János imád flüröközni, ezért sokat flüröklik. Ti ritkán...","0","flüröklötök","[""flüröklötök"",""flürököztök""]","","posttest trial","4",""
"html-button-response-clever","144","1347505","0.0-13.0-0.24","5759","János imád sprűrözni, ezért sokat sprűrlik. Ők ritkán...","1","sprűrlenek","[""sprűröznek"",""sprűrlenek""]","","posttest trial","4",""
"html-button-response-clever","145","1367274","0.0-13.0-0.25","19257","János imád sprozozni, ezért sokat sprozlik. Ők ritkán...","0","sprozlanak","[""sprozlanak"",""sprozoznak""]","","posttest trial","4",""
"html-button-response-clever","146","1372369","0.0-13.0-0.26","4580","János imád dilakozni, ezért sokat dilaklik. Ti ritkán...","0","dilaklotok","[""dilaklotok"",""dilakoztok""]","","posttest trial","4",""
"html-button-response-clever","147","1376673","0.0-13.0-0.27","3797","János imád lájozni, ezért sokat lájzik. Ti ritkán...","1","lájzotok","[""lájoztok"",""lájzotok""]","","posttest trial","4",""
"html-button-response-clever","148","1382234","0.0-13.0-0.28","5050","János imád flemezni, ezért sokat flemlik. Mi ritkán...","0","flemlünk","[""flemlünk"",""flemezünk""]","","posttest trial","4",""
"html-button-response-clever","149","1402474","0.0-13.0-0.29","19723","János imád pilégedni, ezért sokat pilégszik. Ők ritkán...","1","pilégszenek","[""pilégednek"",""pilégszenek""]","","posttest trial","4",""
"html-button-response-clever","150","1408946","0.0-13.0-0.30","5954","János imád drűrözni, ezért sokat drűrzik. Ők ritkán...","0","drűrzenek","[""drűrzenek"",""drűröznek""]","","posttest trial","4",""
"html-button-response-clever","151","1415617","0.0-13.0-0.31","6160","János imád posozni, ezért sokat poslik. Ti ritkán...","1","poslotok","[""posoztok"",""poslotok""]","","posttest trial","4",""
"html-button-response-clever","152","1465554","0.0-13.0-0.32","49423","János imád föködni, ezért sokat fökszik. Ők ritkán...","0","föködnek","[""föködnek"",""fökszenek""]","","posttest trial","4",""
"html-button-response-clever","153","1480841","0.0-13.0-0.33","14782","János imád mágamozni, ezért sokat mágamlik. Mi ritkán...","1","mágamozunk","[""mágamlunk"",""mágamozunk""]","","posttest trial","4",""
"html-button-response-clever","154","1494273","0.0-13.0-0.34","12928","János imád spibegezni, ezért sokat spibeglik. Mi ritkán...","0","spibegezünk","[""spibegezünk"",""spibeglünk""]","","posttest trial","4",""
"html-button-response-clever","155","1501137","0.0-13.0-0.35","6349","János imád trivakodni, ezért sokat trivakszik. Mi ritkán...","1","trivakodunk","[""trivakszunk"",""trivakodunk""]","","posttest trial","4",""
"html-button-response-clever","156","1508249","0.0-13.0-0.36","6603","János imád spiharozni, ezért sokat spiharzik. Ti ritkán...","0","spiharoztok","[""spiharoztok"",""spiharzotok""]","","posttest trial","4",""
"html-button-response-clever","157","1519609","0.0-13.0-0.37","10855","János imád csibagozni, ezért sokat csibagzik. Ti ritkán...","0","csibagoztok","[""csibagoztok"",""csibagzotok""]","","posttest trial","4",""
"html-button-response-clever","158","1531785","0.0-13.0-0.38","11668","János imád dabozni, ezért sokat dabzik. Ti ritkán...","1","daboztok","[""dabzotok"",""daboztok""]","","posttest trial","4",""
"html-button-response-clever","159","1540353","0.0-13.0-0.39","8051","János imád brözözni, ezért sokat brözlik. Ti ritkán...","0","brözöztök","[""brözöztök"",""brözlötök""]","","posttest trial","4",""
"html-button-response-clever","160","1547786","0.0-13.0-0.40","6916","János imád spirágozni, ezért sokat spiráglik. Ti ritkán...","0","spirágoztok","[""spirágoztok"",""spiráglotok""]","","posttest trial","4",""
"html-button-response-clever","161","1558969","0.0-13.0-0.41","10671","János imád dirozni, ezért sokat dirlik. Ti ritkán...","1","diroztok","[""dirlotok"",""diroztok""]","","posttest trial","4",""
"html-button-response-clever","162","1570930","0.0-13.0-0.42","11438","János imád köszözni, ezért sokat köszlik. Ti ritkán...","0","köszöztök","[""köszöztök"",""köszlötök""]","","posttest trial","4",""
"html-button-response-clever","163","1585130","0.0-13.0-0.43","13695","János imád mülőrözni, ezért sokat mülőrzik. Mi ritkán...","1","mülőrözünk","[""mülőrzünk"",""mülőrözünk""]","","posttest trial","4",""
"html-button-response-clever","164","1590810","0.0-13.0-0.44","5177","János imád gihejezni, ezért sokat gihejlik. Mi ritkán...","1","gihejezünk","[""gihejlünk"",""gihejezünk""]","","posttest trial","4",""
"html-button-response-clever","165","1605225","0.0-13.0-0.45","13905","János imád prögözni, ezért sokat prögzik. Ti ritkán...","1","prögzötök","[""prögöztök"",""prögzötök""]","","posttest trial","4",""
"html-button-response-clever","166","1616417","0.0-13.0-0.46","10683","János imád bratározni, ezért sokat bratárzik. Ők ritkán...","1","bratároznak","[""bratárzanak"",""bratároznak""]","","posttest trial","4",""
"html-button-response-clever","167","1627193","0.0-13.0-0.47","10264","János imád frálapodni, ezért sokat frálapszik. Ti ritkán...","0","frálapodtok","[""frálapodtok"",""frálapszotok""]","","posttest trial","4",""
"html-button-response-clever","168","1633298","0.0-13.0-0.48","5599","János imád dárakodni, ezért sokat dárakszik. Mi ritkán...","0","dárakodunk","[""dárakodunk"",""dárakszunk""]","","posttest trial","4",""
"html-button-response-clever","169","1648561","0.0-13.0-0.49","14760","János imád fröjözni, ezért sokat fröjzik. Ti ritkán...","0","fröjöztök","[""fröjöztök"",""fröjzötök""]","","posttest trial","4",""
"html-button-response-clever","170","1669953","0.0-13.0-0.50","20872","János imád csubozni, ezért sokat csubzik. Mi ritkán...","1","csubozunk","[""csubzunk"",""csubozunk""]","","posttest trial","4",""
"html-button-response-clever","171","1717017","0.0-13.0-0.51","46542","János imád püzözni, ezért sokat püzlik. Ti ritkán...","0","püzlötök","[""püzlötök"",""püzöztök""]","","posttest trial","4",""
"html-button-response-clever","172","1801657","0.0-13.0-0.52","84131","János imád gyihegezni, ezért sokat gyihegzik. Ti ritkán...","1","gyihegeztek","[""gyihegzetek"",""gyihegeztek""]","","posttest trial","4",""
"html-button-response-clever","173","1824305","0.0-13.0-0.53","22132","János imád drilarozni, ezért sokat drilarzik. Mi ritkán...","1","drilarzunk","[""drilarozunk"",""drilarzunk""]","","posttest trial","4",""
"html-button-response","174","1840385","0.0-14.0","15564","<p> Vége a játéknak. A teljes pontszámod 32/54.</p><p> Szép munka! &#128526;&#128526;&#128526;</p><p>A Befejezés gomb megnyomása után bezárhatod a böngészőablakot.</p>","0","","","","","",""
"html-keyboard-response","175","1845895","0.0-15.0","null","<div class=""message"">
         <p>Egy kis türelmet kérünk, amíg elmentjük az adatokat...</p>
         </div>","null","","","","","",""
