"trial_type","trial_index","time_elapsed","internal_node_id","rt","stimulus","response","response_string","choices","esp_response","trial_kind","list_number","esp_match"
"pavlovia","0","724","0.0-0.0","","","","","","","","",""
"html-button-response","1","48100","0.0-1.0","46866","<p>Kedves Résztvevő! A Budapesti Műszaki és Gazdaságtudományi Egyetem Kognitív Tudományi Tanszékének kutatásában való részvételed kérjük. A kutatásban azt vizsgáljuk, hogy a magyar anyanyelvűek hogyan használnak bizonyos szóalakokat, és hogy milyen képük van arról, hogy mások hogyan használják, hogyan képzik a szavakat. Ez hozzásegít bennünket ahhoz, hogy jobban megértsük, hogyan dolgozza fel és tárolja a nyelvet az emberi agy, és hogyan működnek, hogyan változnak egy adott közösség nyelvi konvenciói.</p><p>A vizsgálat egy rövid számítógépes feladatból fog állni. A kutatásban való részvétel önkéntes, a részvételi szándék bármikor visszavonható. A résztvevők eredményeit név nélkül kezeljük, így nem beazonosíthatók az adatok feldolgozása során. Minden személyes adatot az EU általános adatvédelmi rendeletének (GDPR) megfelelően kezelünk és legfeljebb öt éven belül megsemmisítünk. A vizsgálat jellemzően húsz percet vesz igénybe.</p><p>Kutatásvezető:</p><p>Dr. Rácz Péter, tudományos munkatárs, BME KTT</p><p>e-mail: racz.peter.marton@ttk.bme.hu</p>","0","","","","","",""
"html-button-response","2","247254","0.0-2.0","198682","<p>A kísérletben szavakat fogsz látni. Ezek között lesznek olyanok, amelyeket ismersz, de előfordulhatnak olyanok is, amelyeket nem ismersz, sőt, vannak köztük kitalált szavak is. Minden szónál látni fogsz toldalékolt alakokat. A te feladatod az lesz, hogy minden szóhoz kiválaszd azt a toldalékolt alakot, amely a te számodra ismerősebben, természetesebben hangzik. Rossz válaszok nincsenek, mert van olyan, hogy különböző embereknek más és más szó tűnik jobb választásnak. A választ úgy tudod majd kiválasztani, ha rákattintasz.</p><p>Ebben a szóválasztós játékban egy másik játékossal együtt veszel majd részt. A másik játékos is minden esetben azok közül a lehetőségek közül válogathat, mint te. Kettőtök feladata az, hogy ugyanazt a lehetőséget válasszátok minden esetben. Ahhoz, hogy ez sikerüljön, neked figyelned kell arra, hogy a másik játékos milyen válaszokat ad, és ennek alapján meg kell tippelned, hogyan választ legközelebb. Ha eltalálod, akkor pontot kapsz.</p>","0","","","","","",""
"html-button-response","3","269005","0.0-3.0","21243","<p>Kérjük, olvasd el az alábbi nyilatkozatot, és amennyiben egyetértesz vele, nyomj a Beleegyezés gombra!</p><p>Kijelentem, hogy magyar anyanyelvű személyként önként veszek részt a BME KTT kísérletében. A kutatás céljával és folyamatával kapcsolatban elegendő tájékoztatást kaptam, lehetőségem volt kérdések feltételére, és esetleges kérdéseimre megfelelő válaszokat kaptam. A tájékoztatás alapján elegendő mennyiségű információ áll a rendelkezésemre, hogy eldönthessem, részt kívánok-e venni a kutatásban.</p><p>Tisztában vagyok vele, hogy részvételi szándékomat és adataimat bármikor, indoklás nélkül visszavonhatom.</p><p>Értem és tudomásul veszem, hogy a kutatás tudományos célokat szolgál, és az általam szolgáltatott adatokat a BME kizárólag kutatási célból használja fel. Tudomásul veszem, hogy eredményeimet a többi résztvevő eredményeivel együtt kezelik, így egyéni teljesítményemről visszajelzést, szakvéleményt nem kapok.</p><p>Megértettem, hogy adataim kezelését illetően a BME az EU általános adatvédelmi rendelete (GDPR), a hatályos adatvédelmi törvény és a nemzetközi kutatás-etikai alapelvek szerint jár el. Eredményeim anonim módon kerülnek feldolgozásra, és a kutatás résztvevői az azonosításomra alkalmas adataimat harmadik félnek nem szolgáltatják ki. Engedélyezem a BME számára a jelen kutatásban felvett adataim feldolgozását és tárolását, beleértve azok későbbi kutatásokhoz való felhasználását is. Személyes adataim kezelésével kapcsolatban tájékoztatást kérhetek a kutatás résztvevőitől, az adatkezelés ellen tiltakozhatok, kérhetem személyes adataim helyesbítését, törlését vagy zárolását, valamint jogorvoslatért a Nemzeti Adatvédelmi és Információszabadság Hatósághoz fordulhatok.</p><p>Kijelentem, hogy a kutatásban való részvételem körülményeiről részletes tájékoztatást kaptam, és a feltételeket elfogadom.</p>","0","","","","","",""
"survey-text","4","311723","0.0-4.0","42188","","{""Q0"":""I21P6B"",""Q1"":""nő"",""Q2"":""2000"",""Q3"":""16""}","","","","","",""
"html-button-response","5","348891","0.0-5.0","36678","<p>Ebben a játékban szavakat kell toldalékolni.</p> <p>Minden körben mutatunk majd egy példamondatot, amiben lesz egy szó.</p> <p>Alatta jön egy második mondat, ezt a mondatot neked kell majd befejezni, ugyanezzel a szóval.</p> <p>Nem biztos, hogy a szó eleve ismerős lesz számodra!</p> <p>Minden mondathoz adunk két lehetőséget, ezeket balra és jobbra látod majd.</p> <p>A játék kb. negyedóráig-húsz percig tart.</p>","0","","","","","",""
"html-button-response","6","357417","0.0-6.0","8010","<p>Nézzünk egy példát!</p> <p>A példamondat: ""János nagyon szeret rancsúrozni.""</p><p>Neked ezt a mondatot kell befejezned: ""Én is szívesen...""</p><p>A lehetőségek pedig ezek:</p>","0","","","","","",""
"html-button-response","7","366015","0.0-7.0","8088","<p>Nagyon jó.</p><p>Ezt a játékot nem egyedül fogod játszani, hanem egy másik játékossal.</p><p>Mielőtt továbblépünk, összekapcsolunk titeket egymással.</p><p>Ez igénybe vehet néhány másodpercet, amihez szíves türelmed kérjük.</p>","0","","","","","",""
"html-button-response","8","371770","0.0-8.0","null","<p>Csatlakozás a másik játékoshoz...</p>","null","","","","","",""
"html-button-response","9","374295","0.0-9.0","null","<p> Sikeres kapcsolódás!</p>","null","","","","","",""
"html-button-response","10","384818","0.0-10.0","null","<p>A következőkben ketten játsszátok a szóválasztós játékot.</p><p>A feladatotok az lesz, hogy minden körben <b>ugyanazt</b> a szót válasszátok.</p><p>Minden ilyen egyező válaszért pontot kaptok.</p><p>Próbáld meg kitalálni, mit választ a másik játékos!</p><p>Bármikor választhatsz, a körnek akkor van vége, ha mindketten döntöttetek.</p><p>Sok sikert!</p>","null","","","","","",""
"html-button-response-esp","11","391343","0.0-11.0-0.0","6027","Te bizony sokat fivénylesz. Én is sokat...","1","fivénylek","[""fivénylem"",""fivénylek""]","fivénylek","esp trial","8","true"
"html-button-response","12","394856","0.0-11.0-1.0","null","<p>A másik játékos ezt választotta: <b>fivénylek</b>.</p><p>&#x2705;</p><p>A te válaszod és a másik játékos válasza <b>megegyeznek</b>.</p>","null","","","","feedback trial","",""
"html-button-response-esp","13","400882","0.0-11.0-0.1","2891","Te bizony sokat gyivádzol. Én is sokat...","1","gyivádzom","[""gyivádzok"",""gyivádzom""]","gyivádzok","esp trial","8","false"
"html-button-response","14","404391","0.0-11.0-1.1","null","<p>A másik játékos ezt választotta: <b>gyivádzok</b>.</p><p>&#10060;</p><p>A válaszaitok <b>nem</b> egyeznek meg.</p>","null","","","","feedback trial","",""
"html-button-response-esp","15","410419","0.0-11.0-0.2","3036","Te bizony sokat huklasz. Én is sokat...","1","huklok","[""huklom"",""huklok""]","huklok","esp trial","8","true"
"html-button-response","16","413941","0.0-11.0-1.2","null","<p>A másik játékos ezt választotta: <b>huklok</b>.</p><p>&#x2705;</p><p>A te válaszod és a másik játékos válasza <b>megegyeznek</b>.</p>","null","","","","feedback trial","",""
"html-button-response-esp","17","419972","0.0-11.0-0.3","4229","Te bizony sokat szűslesz. Én is sokat...","1","szűslök","[""szűslöm"",""szűslök""]","szűslöm","esp trial","8","false"
"html-button-response","18","423507","0.0-11.0-1.3","null","<p>A másik játékos ezt választotta: <b>szűslöm</b>.</p><p>&#10060;</p><p>A válaszaitok <b>nem</b> egyeznek meg.</p>","null","","","","feedback trial","",""
"html-button-response-esp","19","429543","0.0-11.0-0.4","5255","Te bizony sokat spüszlesz. Én is sokat...","1","spüszlöm","[""spüszlök"",""spüszlöm""]","spüszlök","esp trial","8","false"
"html-button-response","20","433066","0.0-11.0-1.4","null","<p>A másik játékos ezt választotta: <b>spüszlök</b>.</p><p>&#10060;</p><p>A válaszaitok <b>nem</b> egyeznek meg.</p>","null","","","","feedback trial","",""
"html-button-response-esp","21","439094","0.0-11.0-0.5","3918","Te bizony sokat klárzol. Én is sokat...","0","klárzok","[""klárzok"",""klárzom""]","klárzok","esp trial","8","true"
"html-button-response","22","442619","0.0-11.0-1.5","null","<p>A másik játékos ezt választotta: <b>klárzok</b>.</p><p>&#x2705;</p><p>A te válaszod és a másik játékos válasza <b>megegyeznek</b>.</p>","null","","","","feedback trial","",""
"html-button-response-esp","23","448635","0.0-11.0-0.6","3714","Te bizony sokat spibádzol. Én is sokat...","1","spibádzok","[""spibádzom"",""spibádzok""]","spibádzok","esp trial","8","true"
"html-button-response","24","452161","0.0-11.0-1.6","null","<p>A másik játékos ezt választotta: <b>spibádzok</b>.</p><p>&#x2705;</p><p>A te válaszod és a másik játékos válasza <b>megegyeznek</b>.</p>","null","","","","feedback trial","",""
"html-button-response-esp","25","458195","0.0-11.0-0.7","3579","Te bizony sokat spatszol. Én is sokat...","1","spatszom","[""spatszok"",""spatszom""]","spatszok","esp trial","8","false"
"html-button-response","26","461729","0.0-11.0-1.7","null","<p>A másik játékos ezt választotta: <b>spatszok</b>.</p><p>&#10060;</p><p>A válaszaitok <b>nem</b> egyeznek meg.</p>","null","","","","feedback trial","",""
"html-button-response-esp","27","467757","0.0-11.0-0.8","3701","Te bizony sokat praslasz. Én is sokat...","0","praslok","[""praslok"",""praslom""]","praslom","esp trial","8","false"
"html-button-response","28","471294","0.0-11.0-1.8","null","<p>A másik játékos ezt választotta: <b>praslom</b>.</p><p>&#10060;</p><p>A válaszaitok <b>nem</b> egyeznek meg.</p>","null","","","","feedback trial","",""
"html-button-response-esp","29","477333","0.0-11.0-0.9","3954","Te bizony sokat féjzel. Én is sokat...","1","féjzek","[""féjzem"",""féjzek""]","féjzek","esp trial","8","true"
"html-button-response","30","480853","0.0-11.0-1.9","null","<p>A másik játékos ezt választotta: <b>féjzek</b>.</p><p>&#x2705;</p><p>A te válaszod és a másik játékos válasza <b>megegyeznek</b>.</p>","null","","","","feedback trial","",""
"html-button-response-esp","31","486867","0.0-11.0-0.10","4768","Te bizony sokat sprédlesz. Én is sokat...","1","sprédlek","[""sprédlem"",""sprédlek""]","sprédlem","esp trial","8","false"
"html-button-response","32","490392","0.0-11.0-1.10","null","<p>A másik játékos ezt választotta: <b>sprédlem</b>.</p><p>&#10060;</p><p>A válaszaitok <b>nem</b> egyeznek meg.</p>","null","","","","feedback trial","",""
"html-button-response-esp","33","496407","0.0-11.0-0.11","4116","Te bizony sokat floglasz. Én is sokat...","1","floglok","[""floglom"",""floglok""]","floglok","esp trial","8","true"
"html-button-response","34","499939","0.0-11.0-1.11","null","<p>A másik játékos ezt választotta: <b>floglok</b>.</p><p>&#x2705;</p><p>A te válaszod és a másik játékos válasza <b>megegyeznek</b>.</p>","null","","","","feedback trial","",""
"html-button-response-esp","35","505971","0.0-11.0-0.12","4314","Te bizony sokat frágapszol. Én is sokat...","1","frágapszok","[""frágapszom"",""frágapszok""]","frágapszok","esp trial","8","true"
"html-button-response","36","509491","0.0-11.0-1.12","null","<p>A másik játékos ezt választotta: <b>frágapszok</b>.</p><p>&#x2705;</p><p>A te válaszod és a másik játékos válasza <b>megegyeznek</b>.</p>","null","","","","feedback trial","",""
"html-button-response-esp","37","515525","0.0-11.0-0.13","3168","Te bizony sokat flibekszel. Én is sokat...","1","flibekszem","[""flibekszek"",""flibekszem""]","flibekszek","esp trial","8","false"
"html-button-response","38","519059","0.0-11.0-1.13","null","<p>A másik játékos ezt választotta: <b>flibekszek</b>.</p><p>&#10060;</p><p>A válaszaitok <b>nem</b> egyeznek meg.</p>","null","","","","feedback trial","",""
"html-button-response-esp","39","525088","0.0-11.0-0.14","3997","Te bizony sokat bivejlesz. Én is sokat...","0","bivejlek","[""bivejlek"",""bivejlem""]","bivejlem","esp trial","8","false"
"html-button-response","40","528630","0.0-11.0-1.14","null","<p>A másik játékos ezt választotta: <b>bivejlem</b>.</p><p>&#10060;</p><p>A válaszaitok <b>nem</b> egyeznek meg.</p>","null","","","","feedback trial","",""
"html-button-response-esp","41","534662","0.0-11.0-0.15","3850","Te bizony sokat kumlasz. Én is sokat...","0","kumlok","[""kumlok"",""kumlom""]","kumlom","esp trial","8","false"
"html-button-response","42","538188","0.0-11.0-1.15","null","<p>A másik játékos ezt választotta: <b>kumlom</b>.</p><p>&#10060;</p><p>A válaszaitok <b>nem</b> egyeznek meg.</p>","null","","","","feedback trial","",""
"html-button-response-esp","43","544222","0.0-11.0-0.16","2404","Te bizony sokat aglasz. Én is sokat...","1","aglok","[""aglom"",""aglok""]","aglok","esp trial","8","true"
"html-button-response","44","547746","0.0-11.0-1.16","null","<p>A másik játékos ezt választotta: <b>aglok</b>.</p><p>&#x2705;</p><p>A te válaszod és a másik játékos válasza <b>megegyeznek</b>.</p>","null","","","","feedback trial","",""
"html-button-response-esp","45","553771","0.0-11.0-0.17","3404","Te bizony sokat préleglesz. Én is sokat...","0","préleglem","[""préleglem"",""préleglek""]","préleglek","esp trial","8","false"
"html-button-response","46","557300","0.0-11.0-1.17","null","<p>A másik játékos ezt választotta: <b>préleglek</b>.</p><p>&#10060;</p><p>A válaszaitok <b>nem</b> egyeznek meg.</p>","null","","","","feedback trial","",""
"html-button-response-esp","47","563320","0.0-11.0-0.18","3874","Te bizony sokat gerénylesz. Én is sokat...","1","gerénylek","[""gerénylem"",""gerénylek""]","gerénylem","esp trial","8","false"
"html-button-response","48","566834","0.0-11.0-1.18","null","<p>A másik játékos ezt választotta: <b>gerénylem</b>.</p><p>&#10060;</p><p>A válaszaitok <b>nem</b> egyeznek meg.</p>","null","","","","feedback trial","",""
"html-button-response-esp","49","572842","0.0-11.0-0.19","3714","Te bizony sokat fligzol. Én is sokat...","1","fligzom","[""fligzok"",""fligzom""]","fligzok","esp trial","8","false"
"html-button-response","50","576370","0.0-11.0-1.19","null","<p>A másik játékos ezt választotta: <b>fligzok</b>.</p><p>&#10060;</p><p>A válaszaitok <b>nem</b> egyeznek meg.</p>","null","","","","feedback trial","",""
"html-button-response-esp","51","582384","0.0-11.0-0.20","3213","Te bizony sokat gilárzol. Én is sokat...","1","gilárzok","[""gilárzom"",""gilárzok""]","gilárzok","esp trial","8","true"
"html-button-response","52","585925","0.0-11.0-1.20","null","<p>A másik játékos ezt választotta: <b>gilárzok</b>.</p><p>&#x2705;</p><p>A te válaszod és a másik játékos válasza <b>megegyeznek</b>.</p>","null","","","","feedback trial","",""
"html-button-response-esp","53","591956","0.0-11.0-0.21","2810","Te bizony sokat prezlesz. Én is sokat...","1","prezlek","[""prezlem"",""prezlek""]","prezlem","esp trial","8","false"
"html-button-response","54","595490","0.0-11.0-1.21","null","<p>A másik játékos ezt választotta: <b>prezlem</b>.</p><p>&#10060;</p><p>A válaszaitok <b>nem</b> egyeznek meg.</p>","null","","","","feedback trial","",""
"html-button-response-esp","55","601516","0.0-11.0-0.22","3700","Te bizony sokat prihekszel. Én is sokat...","0","prihekszek","[""prihekszek"",""prihekszem""]","prihekszek","esp trial","8","true"
"html-button-response","56","605041","0.0-11.0-1.22","null","<p>A másik játékos ezt választotta: <b>prihekszek</b>.</p><p>&#x2705;</p><p>A te válaszod és a másik játékos válasza <b>megegyeznek</b>.</p>","null","","","","feedback trial","",""
"html-button-response-esp","57","611058","0.0-11.0-0.23","3438","Te bizony sokat gyibakszol. Én is sokat...","1","gyibakszom","[""gyibakszok"",""gyibakszom""]","gyibakszok","esp trial","8","false"
"html-button-response","58","614593","0.0-11.0-1.23","null","<p>A másik játékos ezt választotta: <b>gyibakszok</b>.</p><p>&#10060;</p><p>A válaszaitok <b>nem</b> egyeznek meg.</p>","null","","","","feedback trial","",""
"html-button-response-esp","59","620623","0.0-11.0-0.24","2725","Te bizony sokat prohódzol. Én is sokat...","1","prohódzok","[""prohódzom"",""prohódzok""]","prohódzok","esp trial","8","true"
"html-button-response","60","624150","0.0-11.0-1.24","null","<p>A másik játékos ezt választotta: <b>prohódzok</b>.</p><p>&#x2705;</p><p>A te válaszod és a másik játékos válasza <b>megegyeznek</b>.</p>","null","","","","feedback trial","",""
"html-button-response-esp","61","630158","0.0-11.0-0.25","2866","Te bizony sokat livaklasz. Én is sokat...","1","livaklok","[""livaklom"",""livaklok""]","livaklok","esp trial","8","true"
"html-button-response","62","633681","0.0-11.0-1.25","null","<p>A másik játékos ezt választotta: <b>livaklok</b>.</p><p>&#x2705;</p><p>A te válaszod és a másik játékos válasza <b>megegyeznek</b>.</p>","null","","","","feedback trial","",""
"html-button-response-esp","63","639711","0.0-11.0-0.26","2626","Te bizony sokat zödlesz. Én is sokat...","1","zödlök","[""zödlöm"",""zödlök""]","zödlöm","esp trial","8","false"
"html-button-response","64","643230","0.0-11.0-1.26","null","<p>A másik játékos ezt választotta: <b>zödlöm</b>.</p><p>&#10060;</p><p>A válaszaitok <b>nem</b> egyeznek meg.</p>","null","","","","feedback trial","",""
"html-button-response-esp","65","649260","0.0-11.0-0.27","2124","Te bizony sokat sztruglasz. Én is sokat...","1","sztruglom","[""sztruglok"",""sztruglom""]","sztruglok","esp trial","8","false"
"html-button-response","66","652800","0.0-11.0-1.27","null","<p>A másik játékos ezt választotta: <b>sztruglok</b>.</p><p>&#10060;</p><p>A válaszaitok <b>nem</b> egyeznek meg.</p>","null","","","","feedback trial","",""
"html-button-response-esp","67","658829","0.0-11.0-0.28","3946","Te bizony sokat spülőrzöl. Én is sokat...","0","spülőrzöm","[""spülőrzöm"",""spülőrzök""]","spülőrzök","esp trial","8","false"
"html-button-response","68","662368","0.0-11.0-1.28","null","<p>A másik játékos ezt választotta: <b>spülőrzök</b>.</p><p>&#10060;</p><p>A válaszaitok <b>nem</b> egyeznek meg.</p>","null","","","","feedback trial","",""
"html-button-response-esp","69","668398","0.0-11.0-0.29","3854","Te bizony sokat vűjlesz. Én is sokat...","1","vűjlök","[""vűjlöm"",""vűjlök""]","vűjlöm","esp trial","8","false"
"html-button-response","70","671922","0.0-11.0-1.29","null","<p>A másik játékos ezt választotta: <b>vűjlöm</b>.</p><p>&#10060;</p><p>A válaszaitok <b>nem</b> egyeznek meg.</p>","null","","","","feedback trial","",""
"html-button-response-esp","71","677960","0.0-11.0-0.30","4602","Te bizony sokat sprálszol. Én is sokat...","0","sprálszom","[""sprálszom"",""sprálszok""]","sprálszok","esp trial","8","false"
"html-button-response","72","681495","0.0-11.0-1.30","null","<p>A másik játékos ezt választotta: <b>sprálszok</b>.</p><p>&#10060;</p><p>A válaszaitok <b>nem</b> egyeznek meg.</p>","null","","","","feedback trial","",""
"html-button-response-esp","73","687523","0.0-11.0-0.31","3028","Te bizony sokat flérlesz. Én is sokat...","0","flérlek","[""flérlek"",""flérlem""]","flérlem","esp trial","8","false"
"html-button-response","74","691051","0.0-11.0-1.31","null","<p>A másik játékos ezt választotta: <b>flérlem</b>.</p><p>&#10060;</p><p>A válaszaitok <b>nem</b> egyeznek meg.</p>","null","","","","feedback trial","",""
"html-button-response-esp","75","697083","0.0-11.0-0.32","2483","Te bizony sokat tuboklasz. Én is sokat...","1","tuboklok","[""tuboklom"",""tuboklok""]","tuboklok","esp trial","8","true"
"html-button-response","76","700607","0.0-11.0-1.32","null","<p>A másik játékos ezt választotta: <b>tuboklok</b>.</p><p>&#x2705;</p><p>A te válaszod és a másik játékos válasza <b>megegyeznek</b>.</p>","null","","","","feedback trial","",""
"html-button-response-esp","77","706636","0.0-11.0-0.33","3298","Te bizony sokat ibáglasz. Én is sokat...","1","ibáglok","[""ibáglom"",""ibáglok""]","ibáglok","esp trial","8","true"
"html-button-response","78","710165","0.0-11.0-1.33","null","<p>A másik játékos ezt választotta: <b>ibáglok</b>.</p><p>&#x2705;</p><p>A te válaszod és a másik játékos válasza <b>megegyeznek</b>.</p>","null","","","","feedback trial","",""
"html-button-response-esp","79","716180","0.0-11.0-0.34","3244","Te bizony sokat pugoslasz. Én is sokat...","1","pugoslok","[""pugoslom"",""pugoslok""]","pugoslom","esp trial","8","false"
"html-button-response","80","719702","0.0-11.0-1.34","null","<p>A másik játékos ezt választotta: <b>pugoslom</b>.</p><p>&#10060;</p><p>A válaszaitok <b>nem</b> egyeznek meg.</p>","null","","","","feedback trial","",""
"html-button-response-esp","81","725727","0.0-11.0-0.35","4505","Te bizony sokat friszlasz. Én is sokat...","1","friszlom","[""friszlok"",""friszlom""]","friszlok","esp trial","8","false"
"html-button-response","82","729258","0.0-11.0-1.35","null","<p>A másik játékos ezt választotta: <b>friszlok</b>.</p><p>&#10060;</p><p>A válaszaitok <b>nem</b> egyeznek meg.</p>","null","","","","feedback trial","",""
"html-button-response-esp","83","735287","0.0-11.0-0.36","2290","Te bizony sokat fliraklasz. Én is sokat...","1","fliraklom","[""fliraklok"",""fliraklom""]","fliraklok","esp trial","8","false"
"html-button-response","84","738827","0.0-11.0-1.36","null","<p>A másik játékos ezt választotta: <b>fliraklok</b>.</p><p>&#10060;</p><p>A válaszaitok <b>nem</b> egyeznek meg.</p>","null","","","","feedback trial","",""
"html-button-response-esp","85","744854","0.0-11.0-0.37","1986","Te bizony sokat plágadzol. Én is sokat...","1","plágadzok","[""plágadzom"",""plágadzok""]","plágadzok","esp trial","8","true"
"html-button-response","86","748382","0.0-11.0-1.37","null","<p>A másik játékos ezt választotta: <b>plágadzok</b>.</p><p>&#x2705;</p><p>A te válaszod és a másik játékos válasza <b>megegyeznek</b>.</p>","null","","","","feedback trial","",""
"html-button-response-esp","87","754407","0.0-11.0-0.38","2875","Te bizony sokat csólorzol. Én is sokat...","0","csólorzom","[""csólorzom"",""csólorzok""]","csólorzok","esp trial","8","false"
"html-button-response","88","757933","0.0-11.0-1.38","null","<p>A másik játékos ezt választotta: <b>csólorzok</b>.</p><p>&#10060;</p><p>A válaszaitok <b>nem</b> egyeznek meg.</p>","null","","","","feedback trial","",""
"html-button-response-esp","89","763962","0.0-11.0-0.39","2048","Te bizony sokat vihepszel. Én is sokat...","0","vihepszek","[""vihepszek"",""vihepszem""]","vihepszek","esp trial","8","true"
"html-button-response","90","767482","0.0-11.0-1.39","null","<p>A másik játékos ezt választotta: <b>vihepszek</b>.</p><p>&#x2705;</p><p>A te válaszod és a másik játékos válasza <b>megegyeznek</b>.</p>","null","","","","feedback trial","",""
"html-button-response-esp","91","773499","0.0-11.0-0.40","4503","Te bizony sokat plövőrzöl. Én is sokat...","1","plövőrzöm","[""plövőrzök"",""plövőrzöm""]","plövőrzök","esp trial","8","false"
"html-button-response","92","777026","0.0-11.0-1.40","null","<p>A másik játékos ezt választotta: <b>plövőrzök</b>.</p><p>&#10060;</p><p>A válaszaitok <b>nem</b> egyeznek meg.</p>","null","","","","feedback trial","",""
"html-button-response-esp","93","783032","0.0-11.0-0.41","883","Te bizony sokat flözlesz. Én is sokat...","1","flözlöm","[""flözlök"",""flözlöm""]","flözlöm","esp trial","8","true"
"html-button-response","94","786546","0.0-11.0-1.41","null","<p>A másik játékos ezt választotta: <b>flözlöm</b>.</p><p>&#x2705;</p><p>A te válaszod és a másik játékos válasza <b>megegyeznek</b>.</p>","null","","","","feedback trial","",""
"html-button-response-esp","95","792576","0.0-11.0-0.42","2154","Te bizony sokat spírzol. Én is sokat...","1","spírzok","[""spírzom"",""spírzok""]","spírzok","esp trial","8","true"
"html-button-response","96","796116","0.0-11.0-1.42","null","<p>A másik játékos ezt választotta: <b>spírzok</b>.</p><p>&#x2705;</p><p>A te válaszod és a másik játékos válasza <b>megegyeznek</b>.</p>","null","","","","feedback trial","",""
"html-button-response-esp","97","802144","0.0-11.0-0.43","2630","Te bizony sokat brarlasz. Én is sokat...","1","brarlok","[""brarlom"",""brarlok""]","brarlom","esp trial","8","false"
"html-button-response","98","805665","0.0-11.0-1.43","null","<p>A másik játékos ezt választotta: <b>brarlom</b>.</p><p>&#10060;</p><p>A válaszaitok <b>nem</b> egyeznek meg.</p>","null","","","","feedback trial","",""
"html-button-response-esp","99","811666","0.0-11.0-0.44","2535","Te bizony sokat spélszel. Én is sokat...","0","spélszek","[""spélszek"",""spélszem""]","spélszek","esp trial","8","true"
"html-button-response","100","815191","0.0-11.0-1.44","null","<p>A másik játékos ezt választotta: <b>spélszek</b>.</p><p>&#x2705;</p><p>A te válaszod és a másik játékos válasza <b>megegyeznek</b>.</p>","null","","","","feedback trial","",""
"html-button-response-esp","101","821224","0.0-11.0-0.45","2778","Te bizony sokat mékszel. Én is sokat...","0","mékszek","[""mékszek"",""mékszem""]","mékszek","esp trial","8","true"
"html-button-response","102","824755","0.0-11.0-1.45","null","<p>A másik játékos ezt választotta: <b>mékszek</b>.</p><p>&#x2705;</p><p>A te válaszod és a másik játékos válasza <b>megegyeznek</b>.</p>","null","","","","feedback trial","",""
"html-button-response-esp","103","830771","0.0-11.0-0.46","3693","Te bizony sokat trihagzol. Én is sokat...","1","trihagzom","[""trihagzok"",""trihagzom""]","trihagzok","esp trial","8","false"
"html-button-response","104","834295","0.0-11.0-1.46","null","<p>A másik játékos ezt választotta: <b>trihagzok</b>.</p><p>&#10060;</p><p>A válaszaitok <b>nem</b> egyeznek meg.</p>","null","","","","feedback trial","",""
"html-button-response-esp","105","840328","0.0-11.0-0.47","3241","Te bizony sokat péleslesz. Én is sokat...","1","péleslek","[""péleslem"",""péleslek""]","péleslek","esp trial","8","true"
"html-button-response","106","843849","0.0-11.0-1.47","null","<p>A másik játékos ezt választotta: <b>péleslek</b>.</p><p>&#x2705;</p><p>A te válaszod és a másik játékos válasza <b>megegyeznek</b>.</p>","null","","","","feedback trial","",""
"html-button-response-esp","107","849880","0.0-11.0-0.48","2075","Te bizony sokat táklasz. Én is sokat...","1","táklok","[""táklom"",""táklok""]","táklok","esp trial","8","true"
"html-button-response","108","853403","0.0-11.0-1.48","null","<p>A másik játékos ezt választotta: <b>táklok</b>.</p><p>&#x2705;</p><p>A te válaszod és a másik játékos válasza <b>megegyeznek</b>.</p>","null","","","","feedback trial","",""
"html-button-response-esp","109","859442","0.0-11.0-0.49","1756","Te bizony sokat drügzöl. Én is sokat...","1","drügzök","[""drügzöm"",""drügzök""]","drügzök","esp trial","8","true"
"html-button-response","110","862965","0.0-11.0-1.49","null","<p>A másik játékos ezt választotta: <b>drügzök</b>.</p><p>&#x2705;</p><p>A te válaszod és a másik játékos válasza <b>megegyeznek</b>.</p>","null","","","","feedback trial","",""
"html-button-response-esp","111","869001","0.0-11.0-0.50","3109","Te bizony sokat klidlasz. Én is sokat...","0","klidlok","[""klidlok"",""klidlom""]","klidlom","esp trial","8","false"
"html-button-response","112","872517","0.0-11.0-1.50","null","<p>A másik játékos ezt választotta: <b>klidlom</b>.</p><p>&#10060;</p><p>A válaszaitok <b>nem</b> egyeznek meg.</p>","null","","","","feedback trial","",""
"html-button-response-esp","113","878548","0.0-11.0-0.51","3017","Te bizony sokat spülöklesz. Én is sokat...","1","spülöklöm","[""spülöklök"",""spülöklöm""]","spülöklök","esp trial","8","false"
"html-button-response","114","882089","0.0-11.0-1.51","null","<p>A másik játékos ezt választotta: <b>spülöklök</b>.</p><p>&#10060;</p><p>A válaszaitok <b>nem</b> egyeznek meg.</p>","null","","","","feedback trial","",""
"html-button-response-esp","115","888107","0.0-11.0-0.52","2008","Te bizony sokat lihadzol. Én is sokat...","1","lihadzok","[""lihadzom"",""lihadzok""]","lihadzok","esp trial","8","true"
"html-button-response","116","891632","0.0-11.0-1.52","null","<p>A másik játékos ezt választotta: <b>lihadzok</b>.</p><p>&#x2705;</p><p>A te válaszod és a másik játékos válasza <b>megegyeznek</b>.</p>","null","","","","feedback trial","",""
"html-button-response-esp","117","897662","0.0-11.0-0.53","2640","Te bizony sokat frivajlasz. Én is sokat...","1","frivajlok","[""frivajlom"",""frivajlok""]","frivajlom","esp trial","8","false"
"html-button-response","118","901185","0.0-11.0-1.53","null","<p>A másik játékos ezt választotta: <b>frivajlom</b>.</p><p>&#10060;</p><p>A válaszaitok <b>nem</b> egyeznek meg.</p>","null","","","","feedback trial","",""
"html-button-response","119","916540","0.0-12.0","14837","<p>A közös játék most véget ért.</p><p>Mielőtt eláruljuk a végső pontszámodat, arra kérlek, játszd a szóválasztós játékot néhány percig egyedül is.</p><p>A feladatod ugyanaz lesz, választani két lehetőség közül.</p><p>Most viszont egyedül kell döntened, hogy te melyiket választanád.</p>","0","","","","","",""
"html-button-response-clever","120","920211","0.0-13.0-0.0","3155","Te bizony sokat femlesz. Én is sokat...","1","femlek","[""femlem"",""femlek""]","","posttest trial","1",""
"html-button-response-clever","121","923142","0.0-13.0-0.1","2421","Te bizony sokat málapszol. Én is sokat...","1","málapszok","[""málapszom"",""málapszok""]","","posttest trial","1",""
"html-button-response-clever","122","926676","0.0-13.0-0.2","3008","Te bizony sokat drubódzol. Én is sokat...","1","drubódzok","[""drubódzom"",""drubódzok""]","","posttest trial","1",""
"html-button-response-clever","123","929137","0.0-13.0-0.3","1947","Te bizony sokat tínylasz. Én is sokat...","0","tínylok","[""tínylok"",""tínylom""]","","posttest trial","1",""
"html-button-response-clever","124","932362","0.0-13.0-0.4","2720","Te bizony sokat bölszöl. Én is sokat...","0","bölszök","[""bölszök"",""bölszöm""]","","posttest trial","1",""
"html-button-response-clever","125","936113","0.0-13.0-0.5","3248","Te bizony sokat marzol. Én is sokat...","1","marzom","[""marzok"",""marzom""]","","posttest trial","1",""
"html-button-response-clever","126","939549","0.0-13.0-0.6","2922","Te bizony sokat spűmlesz. Én is sokat...","0","spűmlök","[""spűmlök"",""spűmlöm""]","","posttest trial","1",""
"html-button-response-clever","127","944099","0.0-13.0-0.7","4039","Te bizony sokat ribegzel. Én is sokat...","1","ribegzem","[""ribegzek"",""ribegzem""]","","posttest trial","1",""
"html-button-response-clever","128","948114","0.0-13.0-0.8","3505","Te bizony sokat flüröslesz. Én is sokat...","1","flüröslök","[""flüröslöm"",""flüröslök""]","","posttest trial","1",""
"html-button-response-clever","129","950888","0.0-13.0-0.9","2264","Te bizony sokat sprogzol. Én is sokat...","1","sprogzok","[""sprogzom"",""sprogzok""]","","posttest trial","1",""
"html-button-response-clever","130","954236","0.0-13.0-0.10","2829","Te bizony sokat sprökszöl. Én is sokat...","1","sprökszök","[""sprökszöm"",""sprökszök""]","","posttest trial","1",""
"html-button-response-clever","131","957592","0.0-13.0-0.11","2845","Te bizony sokat prűrlesz. Én is sokat...","1","prűrlöm","[""prűrlök"",""prűrlöm""]","","posttest trial","1",""
"html-button-response-clever","132","960589","0.0-13.0-0.12","2488","Te bizony sokat flagárzol. Én is sokat...","1","flagárzok","[""flagárzom"",""flagárzok""]","","posttest trial","1",""
"html-button-response-clever","133","963160","0.0-13.0-0.13","2058","Te bizony sokat ruslasz. Én is sokat...","0","ruslok","[""ruslok"",""ruslom""]","","posttest trial","1",""
"html-button-response-clever","134","965634","0.0-13.0-0.14","1961","Te bizony sokat piragszol. Én is sokat...","0","piragszom","[""piragszom"",""piragszok""]","","posttest trial","1",""
"html-button-response-clever","135","968343","0.0-13.0-0.15","2187","Te bizony sokat sűzlesz. Én is sokat...","1","sűzlök","[""sűzlöm"",""sűzlök""]","","posttest trial","1",""
"html-button-response-clever","136","970834","0.0-13.0-0.16","1987","Te bizony sokat feténylesz. Én is sokat...","1","feténylek","[""feténylem"",""feténylek""]","","posttest trial","1",""
"html-button-response-clever","137","973766","0.0-13.0-0.17","2411","Te bizony sokat sojzol. Én is sokat...","1","sojzom","[""sojzok"",""sojzom""]","","posttest trial","1",""
"html-button-response-clever","138","976066","0.0-13.0-0.18","1787","Te bizony sokat csíszlasz. Én is sokat...","1","csíszlok","[""csíszlom"",""csíszlok""]","","posttest trial","1",""
"html-button-response-clever","139","979350","0.0-13.0-0.19","2769","Te bizony sokat flűröklesz. Én is sokat...","0","flűröklök","[""flűröklök"",""flűröklöm""]","","posttest trial","1",""
"html-button-response-clever","140","981490","0.0-13.0-0.20","1636","Te bizony sokat nyáslasz. Én is sokat...","0","nyáslok","[""nyáslok"",""nyáslom""]","","posttest trial","1",""
"html-button-response-clever","141","984086","0.0-13.0-0.21","2073","Te bizony sokat tiregzel. Én is sokat...","0","tiregzem","[""tiregzem"",""tiregzek""]","","posttest trial","1",""
"html-button-response-clever","142","986593","0.0-13.0-0.22","2003","Te bizony sokat spéslesz. Én is sokat...","1","spéslem","[""spéslek"",""spéslem""]","","posttest trial","1",""
"html-button-response-clever","143","989556","0.0-13.0-0.23","2446","Te bizony sokat pratánylasz. Én is sokat...","0","pratánylok","[""pratánylok"",""pratánylom""]","","posttest trial","1",""
"html-button-response-clever","144","992842","0.0-13.0-0.24","2788","Te bizony sokat spibaklasz. Én is sokat...","1","spibaklok","[""spibaklom"",""spibaklok""]","","posttest trial","1",""
"html-button-response-clever","145","995551","0.0-13.0-0.25","2192","Te bizony sokat fretszel. Én is sokat...","1","fretszem","[""fretszek"",""fretszem""]","","posttest trial","1",""
"html-button-response-clever","146","999343","0.0-13.0-0.26","3282","Te bizony sokat spatárzol. Én is sokat...","1","spatárzom","[""spatárzok"",""spatárzom""]","","posttest trial","1",""
"html-button-response-clever","147","1001862","0.0-13.0-0.27","2007","Te bizony sokat herégszel. Én is sokat...","0","herégszek","[""herégszek"",""herégszem""]","","posttest trial","1",""
"html-button-response-clever","148","1004224","0.0-13.0-0.28","1842","Te bizony sokat szirlasz. Én is sokat...","0","szirlok","[""szirlok"",""szirlom""]","","posttest trial","1",""
"html-button-response-clever","149","1007725","0.0-13.0-0.29","2993","Te bizony sokat driládzol. Én is sokat...","1","driládzok","[""driládzom"",""driládzok""]","","posttest trial","1",""
"html-button-response-clever","150","1009913","0.0-13.0-0.30","1680","Te bizony sokat frilegszel. Én is sokat...","0","frilegszem","[""frilegszem"",""frilegszek""]","","posttest trial","1",""
"html-button-response-clever","151","1013470","0.0-13.0-0.31","3048","Te bizony sokat brágaklasz. Én is sokat...","1","brágaklom","[""brágaklok"",""brágaklom""]","","posttest trial","1",""
"html-button-response-clever","152","1015754","0.0-13.0-0.32","1774","Te bizony sokat trilszol. Én is sokat...","0","trilszok","[""trilszok"",""trilszom""]","","posttest trial","1",""
"html-button-response-clever","153","1018342","0.0-13.0-0.33","2073","Te bizony sokat klibamlasz. Én is sokat...","0","klibamlok","[""klibamlok"",""klibamlom""]","","posttest trial","1",""
"html-button-response-clever","154","1020818","0.0-13.0-0.34","1959","Te bizony sokat fibamlasz. Én is sokat...","0","fibamlok","[""fibamlok"",""fibamlom""]","","posttest trial","1",""
"html-button-response-clever","155","1023470","0.0-13.0-0.35","2143","Te bizony sokat flagánylasz. Én is sokat...","0","flagánylok","[""flagánylok"",""flagánylom""]","","posttest trial","1",""
"html-button-response-clever","156","1027260","0.0-13.0-0.36","3275","Te bizony sokat brüjlesz. Én is sokat...","0","brüjlök","[""brüjlök"",""brüjlöm""]","","posttest trial","1",""
"html-button-response-clever","157","1035855","0.0-13.0-0.37","8075","Te bizony sokat jüslesz. Én is sokat...","0","jüslök","[""jüslök"",""jüslöm""]","","posttest trial","1",""
"html-button-response-clever","158","1039187","0.0-13.0-0.38","2812","Te bizony sokat hilarzol. Én is sokat...","1","hilarzok","[""hilarzom"",""hilarzok""]","","posttest trial","1",""
"html-button-response-clever","159","1042266","0.0-13.0-0.39","2560","Te bizony sokat lorjódzol. Én is sokat...","0","lorjódzok","[""lorjódzok"",""lorjódzom""]","","posttest trial","1",""
"html-button-response-clever","160","1045094","0.0-13.0-0.40","2316","Te bizony sokat narjárzol. Én is sokat...","1","narjárzom","[""narjárzok"",""narjárzom""]","","posttest trial","1",""
"html-button-response-clever","161","1047104","0.0-13.0-0.41","1503","Te bizony sokat juszlasz. Én is sokat...","1","juszlok","[""juszlom"",""juszlok""]","","posttest trial","1",""
"html-button-response-clever","162","1049974","0.0-13.0-0.42","2337","Te bizony sokat siladzol. Én is sokat...","1","siladzom","[""siladzok"",""siladzom""]","","posttest trial","1",""
"html-button-response-clever","163","1053177","0.0-13.0-0.43","2707","Te bizony sokat klörlesz. Én is sokat...","1","klörlök","[""klörlöm"",""klörlök""]","","posttest trial","1",""
"html-button-response-clever","164","1055490","0.0-13.0-0.44","1797","Te bizony sokat sztremlesz. Én is sokat...","0","sztremlek","[""sztremlek"",""sztremlem""]","","posttest trial","1",""
"html-button-response-clever","165","1058249","0.0-13.0-0.45","2250","Te bizony sokat pebzel. Én is sokat...","1","pebzek","[""pebzem"",""pebzek""]","","posttest trial","1",""
"html-button-response-clever","166","1060653","0.0-13.0-0.46","1891","Te bizony sokat böjzöl. Én is sokat...","0","böjzöm","[""böjzöm"",""böjzök""]","","posttest trial","1",""
"html-button-response-clever","167","1063073","0.0-13.0-0.47","1906","Te bizony sokat vilakszol. Én is sokat...","0","vilakszom","[""vilakszom"",""vilakszok""]","","posttest trial","1",""
"html-button-response-clever","168","1065781","0.0-13.0-0.48","2194","Te bizony sokat ribzol. Én is sokat...","0","ribzom","[""ribzom"",""ribzok""]","","posttest trial","1",""
"html-button-response-clever","169","1068097","0.0-13.0-0.49","1801","Te bizony sokat büglesz. Én is sokat...","0","büglök","[""büglök"",""büglöm""]","","posttest trial","1",""
"html-button-response-clever","170","1070453","0.0-13.0-0.50","1849","Te bizony sokat tomlasz. Én is sokat...","0","tomlok","[""tomlok"",""tomlom""]","","posttest trial","1",""
"html-button-response-clever","171","1073313","0.0-13.0-0.51","2358","Te bizony sokat prilegzel. Én is sokat...","1","prilegzek","[""prilegzem"",""prilegzek""]","","posttest trial","1",""
"html-button-response-clever","172","1075650","0.0-13.0-0.52","1817","Te bizony sokat pivegszel. Én is sokat...","1","pivegszek","[""pivegszem"",""pivegszek""]","","posttest trial","1",""
"html-button-response-clever","173","1078223","0.0-13.0-0.53","2054","Te bizony sokat spilágzol. Én is sokat...","0","spilágzok","[""spilágzok"",""spilágzom""]","","posttest trial","1",""
"html-button-response","174","1082591","0.0-14.0","3856","<p> Vége a játéknak. A teljes pontszámod 24/54.</p><p> Szép munka! &#128526;&#128526;&#128526;</p><p>A Befejezés gomb megnyomása után bezárhatod a böngészőablakot.</p>","0","","","","","",""
"html-keyboard-response","175","1088134","0.0-15.0","null","<div class=""message"">
         <p>Egy kis türelmet kérünk, amíg elmentjük az adatokat...</p>
         </div>","null","","","","","",""
