"trial_type","trial_index","time_elapsed","internal_node_id","rt","stimulus","response","response_string","choices","esp_response","trial_kind","list_number","esp_match"
"pavlovia","0","1272","0.0-0.0","","","","","","","","",""
"html-button-response","1","4682","0.0-1.0","2906","<p>Kedves Résztvevő! A Budapesti Műszaki és Gazdaságtudományi Egyetem Kognitív Tudományi Tanszékének kutatásában való részvételed kérjük. A kutatásban azt vizsgáljuk, hogy a magyar anyanyelvűek hogyan használnak bizonyos szóalakokat, és hogy milyen képük van arról, hogy mások hogyan használják, hogyan képzik a szavakat. Ez hozzásegít bennünket ahhoz, hogy jobban megértsük, hogyan dolgozza fel és tárolja a nyelvet az emberi agy, és hogyan működnek, hogyan változnak egy adott közösség nyelvi konvenciói.</p><p>A vizsgálat egy rövid számítógépes feladatból fog állni. A kutatásban való részvétel önkéntes, a részvételi szándék bármikor visszavonható. A résztvevők eredményeit név nélkül kezeljük, így nem beazonosíthatók az adatok feldolgozása során. Minden személyes adatot az EU általános adatvédelmi rendeletének (GDPR) megfelelően kezelünk és legfeljebb öt éven belül megsemmisítünk. A vizsgálat jellemzően húsz percet vesz igénybe.</p><p>Kutatásvezető:</p><p>Dr. Rácz Péter, tudományos munkatárs, BME KTT</p><p>e-mail: racz.peter.marton@ttk.bme.hu</p>","0","","","","","",""
"html-button-response","2","8685","0.0-2.0","3499","<p>A kísérletben szavakat fogsz látni. Ezek között lesznek olyanok, amelyeket ismersz, de előfordulhatnak olyanok is, amelyeket nem ismersz, sőt, vannak köztük kitalált szavak is. Minden szónál látni fogsz toldalékolt alakokat. A te feladatod az lesz, hogy minden szóhoz kiválaszd azt a toldalékolt alakot, amely a te számodra ismerősebben, természetesebben hangzik. Rossz válaszok nincsenek, mert van olyan, hogy különböző embereknek más és más szó tűnik jobb választásnak. A választ úgy tudod majd kiválasztani, ha rákattintasz.</p><p>Ebben a szóválasztós játékban egy másik játékossal együtt veszel majd részt. A másik játékos is minden esetben azok közül a lehetőségek közül válogathat, mint te. Kettőtök feladata az, hogy ugyanazt a lehetőséget válasszátok minden esetben. Ahhoz, hogy ez sikerüljön, neked figyelned kell arra, hogy a másik játékos milyen válaszokat ad, és ennek alapján meg kell tippelned, hogyan választ legközelebb. Ha eltalálod, akkor pontot kapsz.</p>","0","","","","","",""
"html-button-response","3","11797","0.0-3.0","2604","<p>Kérjük, olvasd el az alábbi nyilatkozatot, és amennyiben egyetértesz vele, nyomj a Beleegyezés gombra!</p><p>Kijelentem, hogy magyar anyanyelvű személyként önként veszek részt a BME KTT kísérletében. A kutatás céljával és folyamatával kapcsolatban elegendő tájékoztatást kaptam, lehetőségem volt kérdések feltételére, és esetleges kérdéseimre megfelelő válaszokat kaptam. A tájékoztatás alapján elegendő mennyiségű információ áll a rendelkezésemre, hogy eldönthessem, részt kívánok-e venni a kutatásban.</p><p>Tisztában vagyok vele, hogy részvételi szándékomat és adataimat bármikor, indoklás nélkül visszavonhatom.</p><p>Értem és tudomásul veszem, hogy a kutatás tudományos célokat szolgál, és az általam szolgáltatott adatokat a BME kizárólag kutatási célból használja fel. Tudomásul veszem, hogy eredményeimet a többi résztvevő eredményeivel együtt kezelik, így egyéni teljesítményemről visszajelzést, szakvéleményt nem kapok.</p><p>Megértettem, hogy adataim kezelését illetően a BME az EU általános adatvédelmi rendelete (GDPR), a hatályos adatvédelmi törvény és a nemzetközi kutatás-etikai alapelvek szerint jár el. Eredményeim anonim módon kerülnek feldolgozásra, és a kutatás résztvevői az azonosításomra alkalmas adataimat harmadik félnek nem szolgáltatják ki. Engedélyezem a BME számára a jelen kutatásban felvett adataim feldolgozását és tárolását, beleértve azok későbbi kutatásokhoz való felhasználását is. Személyes adataim kezelésével kapcsolatban tájékoztatást kérhetek a kutatás résztvevőitől, az adatkezelés ellen tiltakozhatok, kérhetem személyes adataim helyesbítését, törlését vagy zárolását, valamint jogorvoslatért a Nemzeti Adatvédelmi és Információszabadság Hatósághoz fordulhatok.</p><p>Kijelentem, hogy a kutatásban való részvételem körülményeiről részletes tájékoztatást kaptam, és a feltételeket elfogadom.</p>","0","","","","","",""
"survey-text","4","43700","0.0-4.0","31381","","{""Q0"":""K6FZCI"",""Q1"":"""",""Q2"":""1981"",""Q3"":""17""}","","","","","",""
"html-button-response","5","46041","0.0-5.0","1824","<p>Ebben a játékban szavakat kell toldalékolni.</p> <p>Minden körben mutatunk majd egy példamondatot, amiben lesz egy szó.</p> <p>Alatta jön egy második mondat, ezt a mondatot neked kell majd befejezni, ugyanezzel a szóval.</p> <p>Nem biztos, hogy a szó eleve ismerős lesz számodra!</p> <p>Minden mondathoz adunk két lehetőséget, ezeket balra és jobbra látod majd.</p> <p>A játék kb. negyedóráig-húsz percig tart.</p>","0","","","","","",""
"html-button-response","6","58082","0.0-6.0","11528","<p>Nézzünk egy példát!</p> <p>A példamondat: ""Ez itt egy blumbnyeg.""</p><p>Neked ezt a mondatot kell befejezned: ""Ott vagyunk a...""</p><p>A lehetőségek pedig ezek:</p>","0","","","","","",""
"html-button-response","7","62017","0.0-7.0","3433","<p>Nagyon jó.</p><p>Ezt a játékot nem egyedül fogod játszani, hanem egy másik játékossal.</p><p>Mielőtt továbblépünk, összekapcsolunk titeket egymással.</p><p>Ez igénybe vehet néhány másodpercet, amihez szíves türelmed kérjük.</p>","0","","","","","",""
"html-button-response","8","67744","0.0-8.0","null","<p>Csatlakozás a másik játékoshoz...</p>","null","","","","","",""
"html-button-response","9","70264","0.0-9.0","null","<p> Sikeres kapcsolódás!</p>","null","","","","","",""
"html-button-response","10","80776","0.0-10.0","null","<p>A következőkben ketten játsszátok a szóválasztós játékot.</p><p>A feladatotok az lesz, hogy minden körben <b>ugyanazt</b> a szót válasszátok.</p><p>Minden ilyen egyező válaszért pontot kaptok.</p><p>Próbáld meg kitalálni, mit választ a másik játékos!</p><p>Bármikor választhatsz, a körnek akkor van vége, ha mindketten döntöttetek.</p><p>Sok sikert!</p>","null","","","","","",""
"html-button-response-esp","11","89181","0.0-11.0-0.0","4073","Ez itt egy ronszek. Ott vagyunk a...","0","ronszekben","[""ronszekben"",""ronszekban""]","ronszekben","esp trial","2","true"
"html-button-response","12","92706","0.0-11.0-1.0","null","<p>A másik játékos ezt választotta: <b>ronszekben</b>.</p><p>&#x2705;</p><p>A te válaszod és a másik játékos válasza <b>megegyeznek</b>.</p>","null","","","","feedback trial","",""
"html-button-response-esp","13","101104","0.0-11.0-0.1","7347","Ez itt egy darhén. Ott vagyunk a...","1","darhénben","[""darhénban"",""darhénben""]","darhénben","esp trial","2","true"
"html-button-response","14","104624","0.0-11.0-1.1","null","<p>A másik játékos ezt választotta: <b>darhénben</b>.</p><p>&#x2705;</p><p>A te válaszod és a másik játékos válasza <b>megegyeznek</b>.</p>","null","","","","feedback trial","",""
"html-button-response-esp","15","113026","0.0-11.0-0.2","4997","Ez itt egy nyupér. Nincs is jobb egy jó...","1","nyupérnél","[""nyupérnál"",""nyupérnél""]","nyupérnél","esp trial","2","true"
"html-button-response","16","116535","0.0-11.0-1.2","null","<p>A másik játékos ezt választotta: <b>nyupérnél</b>.</p><p>&#x2705;</p><p>A te válaszod és a másik játékos válasza <b>megegyeznek</b>.</p>","null","","","","feedback trial","",""
"html-button-response-esp","17","124930","0.0-11.0-0.3","4703","Ez itt egy kaszép. Elneveztem a kutyámat...","1","kaszépnek","[""kaszépnak"",""kaszépnek""]","kaszépnek","esp trial","2","true"
"html-button-response","18","128454","0.0-11.0-1.3","null","<p>A másik játékos ezt választotta: <b>kaszépnek</b>.</p><p>&#x2705;</p><p>A te válaszod és a másik játékos válasza <b>megegyeznek</b>.</p>","null","","","","feedback trial","",""
"html-button-response-esp","19","136859","0.0-11.0-0.4","4295","Ez itt egy bralkép. Ott vagyunk a...","0","bralképben","[""bralképben"",""bralképban""]","bralképben","esp trial","2","true"
"html-button-response","20","140379","0.0-11.0-1.4","null","<p>A másik játékos ezt választotta: <b>bralképben</b>.</p><p>&#x2705;</p><p>A te válaszod és a másik játékos válasza <b>megegyeznek</b>.</p>","null","","","","feedback trial","",""
"html-button-response-esp","21","148789","0.0-11.0-0.5","4476","Ez itt egy zsáder. Ott vagyunk a...","0","zsáderben","[""zsáderben"",""zsáderban""]","zsáderben","esp trial","2","true"
"html-button-response","22","152317","0.0-11.0-1.5","null","<p>A másik játékos ezt választotta: <b>zsáderben</b>.</p><p>&#x2705;</p><p>A te válaszod és a másik játékos válasza <b>megegyeznek</b>.</p>","null","","","","feedback trial","",""
"html-button-response-esp","23","160720","0.0-11.0-0.6","4368","Ez itt egy sprivenc. Nincs is jobb egy jó...","1","sprivencnél","[""sprivencnál"",""sprivencnél""]","sprivencnál","esp trial","2","false"
"html-button-response","24","164250","0.0-11.0-1.6","null","<p>A másik játékos ezt választotta: <b>sprivencnál</b>.</p><p>&#10060;</p><p>A válaszaitok <b>nem</b> egyeznek meg.</p>","null","","","","feedback trial","",""
"html-button-response-esp","25","172648","0.0-11.0-0.7","5728","Ez itt egy kalréz. Ott vagyunk a...","1","kalrézben","[""kalrézban"",""kalrézben""]","kalrézben","esp trial","2","true"
"html-button-response","26","176154","0.0-11.0-1.7","null","<p>A másik játékos ezt választotta: <b>kalrézben</b>.</p><p>&#x2705;</p><p>A te válaszod és a másik játékos válasza <b>megegyeznek</b>.</p>","null","","","","feedback trial","",""
"html-button-response-esp","27","184551","0.0-11.0-0.8","4378","Ez itt egy rapszek. Nincs is jobb egy jó...","1","rapszeknél","[""rapszeknál"",""rapszeknél""]","rapszeknél","esp trial","2","true"
"html-button-response","28","188068","0.0-11.0-1.8","null","<p>A másik játékos ezt választotta: <b>rapszeknél</b>.</p><p>&#x2705;</p><p>A te válaszod és a másik játékos válasza <b>megegyeznek</b>.</p>","null","","","","feedback trial","",""
"html-button-response-esp","29","198890","0.0-11.0-0.9","10308","Ez itt egy luméz. Ott vagyunk a...","0","lumézben","[""lumézben"",""lumézban""]","lumézben","esp trial","2","true"
"html-button-response","30","202396","0.0-11.0-1.9","null","<p>A másik játékos ezt választotta: <b>lumézben</b>.</p><p>&#x2705;</p><p>A te válaszod és a másik játékos válasza <b>megegyeznek</b>.</p>","null","","","","feedback trial","",""
"html-button-response-esp","31","210813","0.0-11.0-0.10","3480","Ez itt egy pivéd. Ott vagyunk a...","1","pivédben","[""pivédban"",""pivédben""]","pivédben","esp trial","2","true"
"html-button-response","32","214341","0.0-11.0-1.10","null","<p>A másik játékos ezt választotta: <b>pivédben</b>.</p><p>&#x2705;</p><p>A te válaszod és a másik játékos válasza <b>megegyeznek</b>.</p>","null","","","","feedback trial","",""
"html-button-response-esp","33","222736","0.0-11.0-0.11","6862","Ez itt egy narem. Ott vagyunk a...","1","naremben","[""naremban"",""naremben""]","naremben","esp trial","2","true"
"html-button-response","34","226254","0.0-11.0-1.11","null","<p>A másik játékos ezt választotta: <b>naremben</b>.</p><p>&#x2705;</p><p>A te válaszod és a másik játékos válasza <b>megegyeznek</b>.</p>","null","","","","feedback trial","",""
"html-button-response-esp","35","234665","0.0-11.0-0.12","3332","Ez itt egy zsigén. Nincs is jobb egy jó...","1","zsigénnél","[""zsigénnál"",""zsigénnél""]","zsigénnál","esp trial","2","false"
"html-button-response","36","238180","0.0-11.0-1.12","null","<p>A másik játékos ezt választotta: <b>zsigénnál</b>.</p><p>&#10060;</p><p>A válaszaitok <b>nem</b> egyeznek meg.</p>","null","","","","feedback trial","",""
"html-button-response-esp","37","246578","0.0-11.0-0.13","3298","Ez itt egy ítens. Ott vagyunk a...","1","ítensben","[""ítensban"",""ítensben""]","ítensben","esp trial","2","true"
"html-button-response","38","250103","0.0-11.0-1.13","null","<p>A másik játékos ezt választotta: <b>ítensben</b>.</p><p>&#x2705;</p><p>A te válaszod és a másik játékos válasza <b>megegyeznek</b>.</p>","null","","","","feedback trial","",""
"html-button-response-esp","39","258502","0.0-11.0-0.14","6640","Ez itt egy danét. Nincs is jobb egy jó...","1","danétnál","[""danétnél"",""danétnál""]","danétnél","esp trial","2","false"
"html-button-response","40","262011","0.0-11.0-1.14","null","<p>A másik játékos ezt választotta: <b>danétnél</b>.</p><p>&#10060;</p><p>A válaszaitok <b>nem</b> egyeznek meg.</p>","null","","","","feedback trial","",""
"html-button-response-esp","41","270415","0.0-11.0-0.15","4127","Ez itt egy dalenc. Nincs is jobb egy jó...","1","dalencnál","[""dalencnél"",""dalencnál""]","dalencnél","esp trial","2","false"
"html-button-response","42","273934","0.0-11.0-1.15","null","<p>A másik játékos ezt választotta: <b>dalencnél</b>.</p><p>&#10060;</p><p>A válaszaitok <b>nem</b> egyeznek meg.</p>","null","","","","feedback trial","",""
"html-button-response-esp","43","282353","0.0-11.0-0.16","4106","Ez itt egy kalhész. Elneveztem a kutyámat...","0","kalhésznek","[""kalhésznek"",""kalhésznak""]","kalhésznek","esp trial","2","true"
"html-button-response","44","285881","0.0-11.0-1.16","null","<p>A másik játékos ezt választotta: <b>kalhésznek</b>.</p><p>&#x2705;</p><p>A te válaszod és a másik játékos válasza <b>megegyeznek</b>.</p>","null","","","","feedback trial","",""
"html-button-response-esp","45","294281","0.0-11.0-0.17","2966","Ez itt egy zihenc. Elneveztem a kutyámat...","1","zihencnek","[""zihencnak"",""zihencnek""]","zihencnak","esp trial","2","false"
"html-button-response","46","297804","0.0-11.0-1.17","null","<p>A másik játékos ezt választotta: <b>zihencnak</b>.</p><p>&#10060;</p><p>A válaszaitok <b>nem</b> egyeznek meg.</p>","null","","","","feedback trial","",""
"html-button-response-esp","47","306220","0.0-11.0-0.18","4214","Ez itt egy hágyét. Elneveztem a kutyámat...","1","hágyétnek","[""hágyétnak"",""hágyétnek""]","hágyétnek","esp trial","2","true"
"html-button-response","48","309746","0.0-11.0-1.18","null","<p>A másik játékos ezt választotta: <b>hágyétnek</b>.</p><p>&#x2705;</p><p>A te válaszod és a másik játékos válasza <b>megegyeznek</b>.</p>","null","","","","feedback trial","",""
"html-button-response-esp","49","318154","0.0-11.0-0.19","7796","Ez itt egy jukél. Nincs is jobb egy jó...","1","jukélnál","[""jukélnél"",""jukélnál""]","jukélnél","esp trial","2","false"
"html-button-response","50","321676","0.0-11.0-1.19","null","<p>A másik játékos ezt választotta: <b>jukélnél</b>.</p><p>&#10060;</p><p>A válaszaitok <b>nem</b> egyeznek meg.</p>","null","","","","feedback trial","",""
"html-button-response-esp","51","330072","0.0-11.0-0.20","2911","Ez itt egy braszenc. Nincs is jobb egy jó...","0","braszencnál","[""braszencnál"",""braszencnél""]","braszencnél","esp trial","2","false"
"html-button-response","52","333590","0.0-11.0-1.20","null","<p>A másik játékos ezt választotta: <b>braszencnél</b>.</p><p>&#10060;</p><p>A válaszaitok <b>nem</b> egyeznek meg.</p>","null","","","","feedback trial","",""
"html-button-response-esp","53","341987","0.0-11.0-0.21","3893","Ez itt egy pisély. Ott vagyunk a...","1","pisélyben","[""pisélyban"",""pisélyben""]","pisélyban","esp trial","2","false"
"html-button-response","54","345505","0.0-11.0-1.21","null","<p>A másik játékos ezt választotta: <b>pisélyban</b>.</p><p>&#10060;</p><p>A válaszaitok <b>nem</b> egyeznek meg.</p>","null","","","","feedback trial","",""
"html-button-response-esp","55","353916","0.0-11.0-0.22","4177","Ez itt egy sortem. Nincs is jobb egy jó...","0","sortemnél","[""sortemnél"",""sortemnál""]","sortemnél","esp trial","2","true"
"html-button-response","56","357426","0.0-11.0-1.22","null","<p>A másik játékos ezt választotta: <b>sortemnél</b>.</p><p>&#x2705;</p><p>A te válaszod és a másik játékos válasza <b>megegyeznek</b>.</p>","null","","","","feedback trial","",""
"html-button-response-esp","57","365823","0.0-11.0-0.23","3873","Ez itt egy incéj. Elneveztem a kutyámat...","0","incéjnek","[""incéjnek"",""incéjnak""]","incéjnak","esp trial","2","false"
"html-button-response","58","369329","0.0-11.0-1.23","null","<p>A másik játékos ezt választotta: <b>incéjnak</b>.</p><p>&#10060;</p><p>A válaszaitok <b>nem</b> egyeznek meg.</p>","null","","","","feedback trial","",""
"html-button-response-esp","59","377738","0.0-11.0-0.24","2931","Ez itt egy pítend. Ott vagyunk a...","0","pítendben","[""pítendben"",""pítendban""]","pítendban","esp trial","2","false"
"html-button-response","60","381267","0.0-11.0-1.24","null","<p>A másik játékos ezt választotta: <b>pítendban</b>.</p><p>&#10060;</p><p>A válaszaitok <b>nem</b> egyeznek meg.</p>","null","","","","feedback trial","",""
"html-button-response-esp","61","389685","0.0-11.0-0.25","2590","Ez itt egy bupéz. Ott vagyunk a...","0","bupézban","[""bupézban"",""bupézben""]","bupézben","esp trial","2","false"
"html-button-response","62","393200","0.0-11.0-1.25","null","<p>A másik játékos ezt választotta: <b>bupézben</b>.</p><p>&#10060;</p><p>A válaszaitok <b>nem</b> egyeznek meg.</p>","null","","","","feedback trial","",""
"html-button-response-esp","63","401609","0.0-11.0-0.26","3403","Ez itt egy klingesz. Ott vagyunk a...","1","klingeszben","[""klingeszban"",""klingeszben""]","klingeszban","esp trial","2","false"
"html-button-response","64","405124","0.0-11.0-1.26","null","<p>A másik játékos ezt választotta: <b>klingeszban</b>.</p><p>&#10060;</p><p>A válaszaitok <b>nem</b> egyeznek meg.</p>","null","","","","feedback trial","",""
"html-button-response-esp","65","413532","0.0-11.0-0.27","4815","Ez itt egy zopély. Nincs is jobb egy jó...","1","zopélynál","[""zopélynél"",""zopélynál""]","zopélynél","esp trial","2","false"
"html-button-response","66","417055","0.0-11.0-1.27","null","<p>A másik játékos ezt választotta: <b>zopélynél</b>.</p><p>&#10060;</p><p>A válaszaitok <b>nem</b> egyeznek meg.</p>","null","","","","feedback trial","",""
"html-button-response-esp","67","425457","0.0-11.0-0.28","3518","Ez itt egy zsádév. Elneveztem a kutyámat...","0","zsádévnak","[""zsádévnak"",""zsádévnek""]","zsádévnek","esp trial","2","false"
"html-button-response","68","428990","0.0-11.0-1.28","null","<p>A másik játékos ezt választotta: <b>zsádévnek</b>.</p><p>&#10060;</p><p>A válaszaitok <b>nem</b> egyeznek meg.</p>","null","","","","feedback trial","",""
"html-button-response-esp","69","437399","0.0-11.0-0.29","3761","Ez itt egy nyamet. Ott vagyunk a...","1","nyametben","[""nyametban"",""nyametben""]","nyametben","esp trial","2","true"
"html-button-response","70","440924","0.0-11.0-1.29","null","<p>A másik játékos ezt választotta: <b>nyametben</b>.</p><p>&#x2705;</p><p>A te válaszod és a másik játékos válasza <b>megegyeznek</b>.</p>","null","","","","feedback trial","",""
"html-button-response-esp","71","455961","0.0-11.0-0.30","14536","Ez itt egy spumény. Elneveztem a kutyámat...","1","spuménynak","[""spuménynek"",""spuménynak""]","spuménynek","esp trial","2","false"
"html-button-response","72","459488","0.0-11.0-1.30","null","<p>A másik játékos ezt választotta: <b>spuménynek</b>.</p><p>&#10060;</p><p>A válaszaitok <b>nem</b> egyeznek meg.</p>","null","","","","feedback trial","",""
"html-button-response-esp","73","467905","0.0-11.0-0.31","2746","Ez itt egy fájéz. Ott vagyunk a...","1","fájézban","[""fájézben"",""fájézban""]","fájézben","esp trial","2","false"
"html-button-response","74","471431","0.0-11.0-1.31","null","<p>A másik játékos ezt választotta: <b>fájézben</b>.</p><p>&#10060;</p><p>A válaszaitok <b>nem</b> egyeznek meg.</p>","null","","","","feedback trial","",""
"html-button-response-esp","75","479835","0.0-11.0-0.32","3293","Ez itt egy dorzéj. Elneveztem a kutyámat...","1","dorzéjnek","[""dorzéjnak"",""dorzéjnek""]","dorzéjnek","esp trial","2","true"
"html-button-response","76","483341","0.0-11.0-1.32","null","<p>A másik játékos ezt választotta: <b>dorzéjnek</b>.</p><p>&#x2705;</p><p>A te válaszod és a másik játékos válasza <b>megegyeznek</b>.</p>","null","","","","feedback trial","",""
"html-button-response-esp","77","491756","0.0-11.0-0.33","4109","Ez itt egy gúden. Ott vagyunk a...","1","gúdenben","[""gúdenban"",""gúdenben""]","gúdenban","esp trial","2","false"
"html-button-response","78","495281","0.0-11.0-1.33","null","<p>A másik játékos ezt választotta: <b>gúdenban</b>.</p><p>&#10060;</p><p>A válaszaitok <b>nem</b> egyeznek meg.</p>","null","","","","feedback trial","",""
"html-button-response-esp","79","503674","0.0-11.0-0.34","3565","Ez itt egy zsúdel. Elneveztem a kutyámat...","1","zsúdelnek","[""zsúdelnak"",""zsúdelnek""]","zsúdelnek","esp trial","2","true"
"html-button-response","80","507189","0.0-11.0-1.34","null","<p>A másik játékos ezt választotta: <b>zsúdelnek</b>.</p><p>&#x2705;</p><p>A te válaszod és a másik játékos válasza <b>megegyeznek</b>.</p>","null","","","","feedback trial","",""
"html-button-response-esp","81","516301","0.0-11.0-0.35","8604","Ez itt egy klosét. Elneveztem a kutyámat...","0","klosétnek","[""klosétnek"",""klosétnak""]","klosétnek","esp trial","2","true"
"html-button-response","82","519828","0.0-11.0-1.35","null","<p>A másik játékos ezt választotta: <b>klosétnek</b>.</p><p>&#x2705;</p><p>A te válaszod és a másik játékos válasza <b>megegyeznek</b>.</p>","null","","","","feedback trial","",""
"html-button-response-esp","83","528224","0.0-11.0-0.36","6067","Ez itt egy trismél. Elneveztem a kutyámat...","1","trismélnek","[""trismélnak"",""trismélnek""]","trismélnak","esp trial","2","false"
"html-button-response","84","531737","0.0-11.0-1.36","null","<p>A másik játékos ezt választotta: <b>trismélnak</b>.</p><p>&#10060;</p><p>A válaszaitok <b>nem</b> egyeznek meg.</p>","null","","","","feedback trial","",""
"html-button-response-esp","85","540144","0.0-11.0-0.37","4707","Ez itt egy trájeg. Ott vagyunk a...","0","trájegben","[""trájegben"",""trájegban""]","trájegben","esp trial","2","true"
"html-button-response","86","543673","0.0-11.0-1.37","null","<p>A másik játékos ezt választotta: <b>trájegben</b>.</p><p>&#x2705;</p><p>A te válaszod és a másik játékos válasza <b>megegyeznek</b>.</p>","null","","","","feedback trial","",""
"html-button-response-esp","87","552070","0.0-11.0-0.38","3164","Ez itt egy dábegy. Ott vagyunk a...","0","dábegyben","[""dábegyben"",""dábegyban""]","dábegyben","esp trial","2","true"
"html-button-response","88","555589","0.0-11.0-1.38","null","<p>A másik játékos ezt választotta: <b>dábegyben</b>.</p><p>&#x2705;</p><p>A te válaszod és a másik játékos válasza <b>megegyeznek</b>.</p>","null","","","","feedback trial","",""
"html-button-response-esp","89","563992","0.0-11.0-0.39","5537","Ez itt egy garcép. Nincs is jobb egy jó...","0","garcépnál","[""garcépnál"",""garcépnél""]","garcépnél","esp trial","2","false"
"html-button-response","90","567508","0.0-11.0-1.39","null","<p>A másik játékos ezt választotta: <b>garcépnél</b>.</p><p>&#10060;</p><p>A válaszaitok <b>nem</b> egyeznek meg.</p>","null","","","","feedback trial","",""
"html-button-response-esp","91","575911","0.0-11.0-0.40","2865","Ez itt egy nyítem. Ott vagyunk a...","0","nyítemben","[""nyítemben"",""nyítemban""]","nyítemban","esp trial","2","false"
"html-button-response","92","579424","0.0-11.0-1.40","null","<p>A másik játékos ezt választotta: <b>nyítemban</b>.</p><p>&#10060;</p><p>A válaszaitok <b>nem</b> egyeznek meg.</p>","null","","","","feedback trial","",""
"html-button-response-esp","93","587834","0.0-11.0-0.41","3570","Ez itt egy tosély. Ott vagyunk a...","1","tosélyben","[""tosélyban"",""tosélyben""]","tosélyben","esp trial","2","true"
"html-button-response","94","591345","0.0-11.0-1.41","null","<p>A másik játékos ezt választotta: <b>tosélyben</b>.</p><p>&#x2705;</p><p>A te válaszod és a másik játékos válasza <b>megegyeznek</b>.</p>","null","","","","feedback trial","",""
"html-button-response-esp","95","599751","0.0-11.0-0.42","5838","Ez itt egy pijél. Nincs is jobb egy jó...","1","pijélnél","[""pijélnál"",""pijélnél""]","pijélnál","esp trial","2","false"
"html-button-response","96","603270","0.0-11.0-1.42","null","<p>A másik játékos ezt választotta: <b>pijélnál</b>.</p><p>&#10060;</p><p>A válaszaitok <b>nem</b> egyeznek meg.</p>","null","","","","feedback trial","",""
"html-button-response-esp","97","611672","0.0-11.0-0.43","3220","Ez itt egy priszec. Ott vagyunk a...","0","priszecben","[""priszecben"",""priszecban""]","priszecban","esp trial","2","false"
"html-button-response","98","615179","0.0-11.0-1.43","null","<p>A másik játékos ezt választotta: <b>priszecban</b>.</p><p>&#10060;</p><p>A válaszaitok <b>nem</b> egyeznek meg.</p>","null","","","","feedback trial","",""
"html-button-response-esp","99","623582","0.0-11.0-0.44","4152","Ez itt egy spanél. Nincs is jobb egy jó...","0","spanélnál","[""spanélnál"",""spanélnél""]","spanélnél","esp trial","2","false"
"html-button-response","100","627111","0.0-11.0-1.44","null","<p>A másik játékos ezt választotta: <b>spanélnél</b>.</p><p>&#10060;</p><p>A válaszaitok <b>nem</b> egyeznek meg.</p>","null","","","","feedback trial","",""
"html-button-response-esp","101","635507","0.0-11.0-0.45","4075","Ez itt egy kátel. Elneveztem a kutyámat...","0","kátelnek","[""kátelnek"",""kátelnak""]","kátelnek","esp trial","2","true"
"html-button-response","102","639025","0.0-11.0-1.45","null","<p>A másik játékos ezt választotta: <b>kátelnek</b>.</p><p>&#x2705;</p><p>A te válaszod és a másik játékos válasza <b>megegyeznek</b>.</p>","null","","","","feedback trial","",""
"html-button-response-esp","103","647420","0.0-11.0-0.46","3113","Ez itt egy jóbec. Elneveztem a kutyámat...","1","jóbecnek","[""jóbecnak"",""jóbecnek""]","jóbecnek","esp trial","2","true"
"html-button-response","104","650947","0.0-11.0-1.46","null","<p>A másik játékos ezt választotta: <b>jóbecnek</b>.</p><p>&#x2705;</p><p>A te válaszod és a másik játékos válasza <b>megegyeznek</b>.</p>","null","","","","feedback trial","",""
"html-button-response-esp","105","659347","0.0-11.0-0.47","4183","Ez itt egy monveg. Nincs is jobb egy jó...","0","monvegnél","[""monvegnél"",""monvegnál""]","monvegnél","esp trial","2","true"
"html-button-response","106","662861","0.0-11.0-1.47","null","<p>A másik játékos ezt választotta: <b>monvegnél</b>.</p><p>&#x2705;</p><p>A te válaszod és a másik játékos válasza <b>megegyeznek</b>.</p>","null","","","","feedback trial","",""
"html-button-response-esp","107","671268","0.0-11.0-0.48","2882","Ez itt egy brindez. Elneveztem a kutyámat...","0","brindeznek","[""brindeznek"",""brindeznak""]","brindeznak","esp trial","2","false"
"html-button-response","108","674777","0.0-11.0-1.48","null","<p>A másik játékos ezt választotta: <b>brindeznak</b>.</p><p>&#10060;</p><p>A válaszaitok <b>nem</b> egyeznek meg.</p>","null","","","","feedback trial","",""
"html-button-response-esp","109","683179","0.0-11.0-0.49","2941","Ez itt egy spicet. Elneveztem a kutyámat...","1","spicetnek","[""spicetnak"",""spicetnek""]","spicetnak","esp trial","2","false"
"html-button-response","110","686688","0.0-11.0-1.49","null","<p>A másik játékos ezt választotta: <b>spicetnak</b>.</p><p>&#10060;</p><p>A válaszaitok <b>nem</b> egyeznek meg.</p>","null","","","","feedback trial","",""
"html-button-response-esp","111","695100","0.0-11.0-0.50","2595","Ez itt egy dihely. Elneveztem a kutyámat...","1","dihelynek","[""dihelynak"",""dihelynek""]","dihelynak","esp trial","2","false"
"html-button-response","112","698614","0.0-11.0-1.50","null","<p>A másik játékos ezt választotta: <b>dihelynak</b>.</p><p>&#10060;</p><p>A válaszaitok <b>nem</b> egyeznek meg.</p>","null","","","","feedback trial","",""
"html-button-response-esp","113","707019","0.0-11.0-0.51","5135","Ez itt egy vorszen. Nincs is jobb egy jó...","1","vorszennél","[""vorszennál"",""vorszennél""]","vorszennél","esp trial","2","true"
"html-button-response","114","710535","0.0-11.0-1.51","null","<p>A másik játékos ezt választotta: <b>vorszennél</b>.</p><p>&#x2705;</p><p>A te válaszod és a másik játékos válasza <b>megegyeznek</b>.</p>","null","","","","feedback trial","",""
"html-button-response-esp","115","718946","0.0-11.0-0.52","3008","Ez itt egy spábét. Ott vagyunk a...","1","spábétban","[""spábétben"",""spábétban""]","spábétben","esp trial","2","false"
"html-button-response","116","722466","0.0-11.0-1.52","null","<p>A másik játékos ezt választotta: <b>spábétben</b>.</p><p>&#10060;</p><p>A válaszaitok <b>nem</b> egyeznek meg.</p>","null","","","","feedback trial","",""
"html-button-response-esp","117","731897","0.0-11.0-0.53","8917","Ez itt egy lorzens. Nincs is jobb egy jó...","1","lorzensnél","[""lorzensnál"",""lorzensnél""]","lorzensnél","esp trial","2","true"
"html-button-response","118","735426","0.0-11.0-1.53","null","<p>A másik játékos ezt választotta: <b>lorzensnél</b>.</p><p>&#x2705;</p><p>A te válaszod és a másik játékos válasza <b>megegyeznek</b>.</p>","null","","","","feedback trial","",""
"html-button-response","119","738537","0.0-12.0","2608","<p>A közös játék most véget ért.</p><p>Mielőtt eláruljuk a végső pontszámodat, arra kérlek, játszd a szóválasztós játékot néhány percig egyedül is.</p><p>A feladatod ugyanaz lesz, választani két lehetőség közül.</p><p>Most viszont egyedül kell döntened, hogy te melyiket választanád.</p>","0","","","","","",""
"html-button-response-clever","120","743609","0.0-13.0-0.0","4564","Ez itt egy klítegy. Nincs is jobb egy jó...","0","klítegynél","[""klítegynél"",""klítegynál""]","","posttest trial","4",""
"html-button-response-clever","121","746753","0.0-13.0-0.1","2634","Ez itt egy trikép. Ott vagyunk a...","0","triképben","[""triképben"",""triképban""]","","posttest trial","4",""
"html-button-response-clever","122","750033","0.0-13.0-0.2","2766","Ez itt egy spatel. Elneveztem a kutyámat...","0","spatelnek","[""spatelnek"",""spatelnak""]","","posttest trial","4",""
"html-button-response-clever","123","754465","0.0-13.0-0.3","3918","Ez itt egy kátéd. Nincs is jobb egy jó...","1","kátédnál","[""kátédnél"",""kátédnál""]","","posttest trial","4",""
"html-button-response-clever","124","757818","0.0-13.0-0.4","2849","Ez itt egy nuhét. Nincs is jobb egy jó...","0","nuhétnál","[""nuhétnál"",""nuhétnél""]","","posttest trial","4",""
"html-button-response-clever","125","762585","0.0-13.0-0.5","4249","Ez itt egy dóbem. Elneveztem a kutyámat...","1","dóbemnek","[""dóbemnak"",""dóbemnek""]","","posttest trial","4",""
"html-button-response-clever","126","766809","0.0-13.0-0.6","3721","Ez itt egy fizend. Ott vagyunk a...","1","fizendben","[""fizendban"",""fizendben""]","","posttest trial","4",""
"html-button-response-clever","127","770433","0.0-13.0-0.7","3115","Ez itt egy fágyép. Nincs is jobb egy jó...","1","fágyépnál","[""fágyépnél"",""fágyépnál""]","","posttest trial","4",""
"html-button-response-clever","128","775873","0.0-13.0-0.8","4937","Ez itt egy surnegy. Nincs is jobb egy jó...","0","surnegynél","[""surnegynél"",""surnegynál""]","","posttest trial","4",""
"html-button-response-clever","129","778809","0.0-13.0-0.9","2424","Ez itt egy sihen. Nincs is jobb egy jó...","0","sihennél","[""sihennél"",""sihennál""]","","posttest trial","4",""
"html-button-response-clever","130","783045","0.0-13.0-0.10","3730","Ez itt egy pazév. Nincs is jobb egy jó...","0","pazévnél","[""pazévnél"",""pazévnál""]","","posttest trial","4",""
"html-button-response-clever","131","787305","0.0-13.0-0.11","3758","Ez itt egy csublény. Ott vagyunk a...","0","csublényben","[""csublényben"",""csublényban""]","","posttest trial","4",""
"html-button-response-clever","132","792313","0.0-13.0-0.12","4505","Ez itt egy vodec. Nincs is jobb egy jó...","1","vodecnél","[""vodecnál"",""vodecnél""]","","posttest trial","4",""
"html-button-response-clever","133","796001","0.0-13.0-0.13","3184","Ez itt egy vurnel. Elneveztem a kutyámat...","0","vurnelnek","[""vurnelnek"",""vurnelnak""]","","posttest trial","4",""
"html-button-response-clever","134","799957","0.0-13.0-0.14","3440","Ez itt egy zarcég. Nincs is jobb egy jó...","0","zarcégnál","[""zarcégnál"",""zarcégnél""]","","posttest trial","4",""
"html-button-response-clever","135","803445","0.0-13.0-0.15","2985","Ez itt egy mádép. Nincs is jobb egy jó...","1","mádépnál","[""mádépnél"",""mádépnál""]","","posttest trial","4",""
"html-button-response-clever","136","807069","0.0-13.0-0.16","3120","Ez itt egy lijez. Elneveztem a kutyámat...","0","lijeznek","[""lijeznek"",""lijeznak""]","","posttest trial","4",""
"html-button-response-clever","137","810982","0.0-13.0-0.17","3401","Ez itt egy pristél. Ott vagyunk a...","1","pristélben","[""pristélban"",""pristélben""]","","posttest trial","4",""
"html-button-response-clever","138","821557","0.0-13.0-0.18","10070","Ez itt egy zsalrén. Elneveztem a kutyámat...","0","zsalrénnak","[""zsalrénnak"",""zsalrénnek""]","","posttest trial","4",""
"html-button-response-clever","139","825678","0.0-13.0-0.19","3604","Ez itt egy klazér. Ott vagyunk a...","0","klazérben","[""klazérben"",""klazérban""]","","posttest trial","4",""
"html-button-response-clever","140","830205","0.0-13.0-0.20","4023","Ez itt egy szanéj. Elneveztem a kutyámat...","0","szanéjnek","[""szanéjnek"",""szanéjnak""]","","posttest trial","4",""
"html-button-response-clever","141","833589","0.0-13.0-0.21","2878","Ez itt egy zined. Elneveztem a kutyámat...","0","zinednek","[""zinednek"",""zinednak""]","","posttest trial","4",""
"html-button-response-clever","142","838301","0.0-13.0-0.22","4209","Ez itt egy humék. Elneveztem a kutyámat...","1","huméknak","[""huméknek"",""huméknak""]","","posttest trial","4",""
"html-button-response-clever","143","842981","0.0-13.0-0.23","4178","Ez itt egy tumély. Nincs is jobb egy jó...","1","tumélynél","[""tumélynál"",""tumélynél""]","","posttest trial","4",""
"html-button-response-clever","144","846461","0.0-13.0-0.24","2977","Ez itt egy fupét. Nincs is jobb egy jó...","0","fupétnál","[""fupétnál"",""fupétnél""]","","posttest trial","4",""
"html-button-response-clever","145","849318","0.0-13.0-0.25","2354","Ez itt egy zuten. Nincs is jobb egy jó...","0","zutennél","[""zutennél"",""zutennál""]","","posttest trial","4",""
"html-button-response-clever","146","852414","0.0-13.0-0.26","2594","Ez itt egy dibez. Ott vagyunk a...","1","dibezben","[""dibezban"",""dibezben""]","","posttest trial","4",""
"html-button-response-clever","147","855382","0.0-13.0-0.27","2465","Ez itt egy briskéd. Nincs is jobb egy jó...","1","briskédnél","[""briskédnál"",""briskédnél""]","","posttest trial","4",""
"html-button-response-clever","148","858566","0.0-13.0-0.28","2675","Ez itt egy cságyelt. Ott vagyunk a...","1","cságyeltben","[""cságyeltban"",""cságyeltben""]","","posttest trial","4",""
"html-button-response-clever","149","861453","0.0-13.0-0.29","2381","Ez itt egy zatéj. Nincs is jobb egy jó...","1","zatéjnél","[""zatéjnál"",""zatéjnél""]","","posttest trial","4",""
"html-button-response-clever","150","864213","0.0-13.0-0.30","2257","Ez itt egy tarhéz. Ott vagyunk a...","1","tarhézben","[""tarhézban"",""tarhézben""]","","posttest trial","4",""
"html-button-response-clever","151","867425","0.0-13.0-0.31","2709","Ez itt egy lihény. Elneveztem a kutyámat...","0","lihénynek","[""lihénynek"",""lihénynak""]","","posttest trial","4",""
"html-button-response-clever","152","870170","0.0-13.0-0.32","2241","Ez itt egy trodély. Ott vagyunk a...","0","trodélyban","[""trodélyban"",""trodélyben""]","","posttest trial","4",""
"html-button-response-clever","153","873454","0.0-13.0-0.33","2781","Ez itt egy hosét. Elneveztem a kutyámat...","1","hosétnak","[""hosétnek"",""hosétnak""]","","posttest trial","4",""
"html-button-response-clever","154","876005","0.0-13.0-0.34","2037","Ez itt egy dunkész. Ott vagyunk a...","1","dunkészben","[""dunkészban"",""dunkészben""]","","posttest trial","4",""
"html-button-response-clever","155","879233","0.0-13.0-0.35","2725","Ez itt egy zábény. Elneveztem a kutyámat...","0","zábénynek","[""zábénynek"",""zábénynak""]","","posttest trial","4",""
"html-button-response-clever","156","882394","0.0-13.0-0.36","2657","Ez itt egy fojlegy. Elneveztem a kutyámat...","1","fojlegynek","[""fojlegynak"",""fojlegynek""]","","posttest trial","4",""
"html-button-response-clever","157","885806","0.0-13.0-0.37","2903","Ez itt egy tivenc. Ott vagyunk a...","0","tivencben","[""tivencben"",""tivencban""]","","posttest trial","4",""
"html-button-response-clever","158","888114","0.0-13.0-0.38","1806","Ez itt egy dinelt. Ott vagyunk a...","0","dineltben","[""dineltben"",""dineltban""]","","posttest trial","4",""
"html-button-response-clever","159","890873","0.0-13.0-0.39","2255","Ez itt egy jurdent. Nincs is jobb egy jó...","1","jurdentnél","[""jurdentnál"",""jurdentnél""]","","posttest trial","4",""
"html-button-response-clever","160","893657","0.0-13.0-0.40","2282","Ez itt egy jutély. Nincs is jobb egy jó...","0","jutélynél","[""jutélynél"",""jutélynál""]","","posttest trial","4",""
"html-button-response-clever","161","897514","0.0-13.0-0.41","3349","Ez itt egy klajrén. Elneveztem a kutyámat...","0","klajrénnek","[""klajrénnek"",""klajrénnak""]","","posttest trial","4",""
"html-button-response-clever","162","900722","0.0-13.0-0.42","2700","Ez itt egy hijegy. Nincs is jobb egy jó...","1","hijegynél","[""hijegynál"",""hijegynél""]","","posttest trial","4",""
"html-button-response-clever","163","903409","0.0-13.0-0.43","2183","Ez itt egy lingék. Nincs is jobb egy jó...","0","lingéknél","[""lingéknél"",""lingéknál""]","","posttest trial","4",""
"html-button-response-clever","164","905634","0.0-13.0-0.44","1713","Ez itt egy gábéd. Nincs is jobb egy jó...","1","gábédnál","[""gábédnél"",""gábédnál""]","","posttest trial","4",""
"html-button-response-clever","165","908529","0.0-13.0-0.45","2380","Ez itt egy murdes. Nincs is jobb egy jó...","1","murdesnél","[""murdesnál"",""murdesnél""]","","posttest trial","4",""
"html-button-response-clever","166","911746","0.0-13.0-0.46","2713","Ez itt egy dajrens. Nincs is jobb egy jó...","0","dajrensnél","[""dajrensnél"",""dajrensnál""]","","posttest trial","4",""
"html-button-response-clever","167","914905","0.0-13.0-0.47","2644","Ez itt egy dutec. Nincs is jobb egy jó...","0","dutecnél","[""dutecnél"",""dutecnál""]","","posttest trial","4",""
"html-button-response-clever","168","919881","0.0-13.0-0.48","4467","Ez itt egy szibed. Ott vagyunk a...","0","szibedben","[""szibedben"",""szibedban""]","","posttest trial","4",""
"html-button-response-clever","169","922794","0.0-13.0-0.49","2409","Ez itt egy bingéj. Elneveztem a kutyámat...","1","bingéjnek","[""bingéjnak"",""bingéjnek""]","","posttest trial","4",""
"html-button-response-clever","170","925905","0.0-13.0-0.50","2608","Ez itt egy spivél. Elneveztem a kutyámat...","0","spivélnek","[""spivélnek"",""spivélnak""]","","posttest trial","4",""
"html-button-response-clever","171","928633","0.0-13.0-0.51","2221","Ez itt egy csodeg. Nincs is jobb egy jó...","0","csodegnál","[""csodegnál"",""csodegnél""]","","posttest trial","4",""
"html-button-response-clever","172","931048","0.0-13.0-0.52","1906","Ez itt egy vismer. Nincs is jobb egy jó...","0","vismernél","[""vismernél"",""vismernál""]","","posttest trial","4",""
"html-button-response-clever","173","934045","0.0-13.0-0.53","2484","Ez itt egy spizec. Elneveztem a kutyámat...","1","spizecnek","[""spizecnak"",""spizecnek""]","","posttest trial","4",""
"html-button-response","174","936605","0.0-14.0","2045","<p> Vége a játéknak. A teljes pontszámod 27/54.</p><p> Szép munka! &#128526;&#128526;&#128526;</p><p>A Befejezés gomb megnyomása után bezárhatod a böngészőablakot.</p>","0","","","","","",""
"html-keyboard-response","175","942128","0.0-15.0","null","<div class=""message"">
         <p>Egy kis türelmet kérünk, amíg elmentjük az adatokat...</p>
         </div>","null","","","","","",""
