"trial_type","trial_index","time_elapsed","internal_node_id","rt","stimulus","response","response_string","choices","esp_response","trial_kind","list_number","esp_match"
"pavlovia","0","966","0.0-0.0","","","","","","","","",""
"html-button-response","1","46747","0.0-1.0","45271","<p>Kedves Résztvevő! A Budapesti Műszaki és Gazdaságtudományi Egyetem Kognitív Tudományi Tanszékének kutatásában való részvételed kérjük. A kutatásban azt vizsgáljuk, hogy a magyar anyanyelvűek hogyan használnak bizonyos szóalakokat, és hogy milyen képük van arról, hogy mások hogyan használják, hogyan képzik a szavakat. Ez hozzásegít bennünket ahhoz, hogy jobban megértsük, hogyan dolgozza fel és tárolja a nyelvet az emberi agy, és hogyan működnek, hogyan változnak egy adott közösség nyelvi konvenciói.</p><p>A vizsgálat egy rövid számítógépes feladatból fog állni. A kutatásban való részvétel önkéntes, a részvételi szándék bármikor visszavonható. A résztvevők eredményeit név nélkül kezeljük, így nem beazonosíthatók az adatok feldolgozása során. Minden személyes adatot az EU általános adatvédelmi rendeletének (GDPR) megfelelően kezelünk és legfeljebb öt éven belül megsemmisítünk. A vizsgálat jellemzően húsz percet vesz igénybe.</p><p>Kutatásvezető:</p><p>Dr. Rácz Péter, tudományos munkatárs, BME KTT</p><p>e-mail: racz.peter.marton@ttk.bme.hu</p>","0","","","","","",""
"html-button-response","2","124387","0.0-2.0","77126","<p>A kísérletben szavakat fogsz látni. Ezek között lesznek olyanok, amelyeket ismersz, de előfordulhatnak olyanok is, amelyeket nem ismersz, sőt, vannak köztük kitalált szavak is. Minden szónál látni fogsz toldalékolt alakokat. A te feladatod az lesz, hogy minden szóhoz kiválaszd azt a toldalékolt alakot, amely a te számodra ismerősebben, természetesebben hangzik. Rossz válaszok nincsenek, mert van olyan, hogy különböző embereknek más és más szó tűnik jobb választásnak. A választ úgy tudod majd kiválasztani, ha rákattintasz.</p><p>Ebben a szóválasztós játékban egy másik játékossal együtt veszel majd részt. A másik játékos is minden esetben azok közül a lehetőségek közül válogathat, mint te. Kettőtök feladata az, hogy ugyanazt a lehetőséget válasszátok minden esetben. Ahhoz, hogy ez sikerüljön, neked figyelned kell arra, hogy a másik játékos milyen válaszokat ad, és ennek alapján meg kell tippelned, hogyan választ legközelebb. Ha eltalálod, akkor pontot kapsz.</p>","0","","","","","",""
"html-button-response","3","168568","0.0-3.0","43665","<p>Kérjük, olvasd el az alábbi nyilatkozatot, és amennyiben egyetértesz vele, nyomj a Beleegyezés gombra!</p><p>Kijelentem, hogy magyar anyanyelvű személyként önként veszek részt a BME KTT kísérletében. A kutatás céljával és folyamatával kapcsolatban elegendő tájékoztatást kaptam, lehetőségem volt kérdések feltételére, és esetleges kérdéseimre megfelelő válaszokat kaptam. A tájékoztatás alapján elegendő mennyiségű információ áll a rendelkezésemre, hogy eldönthessem, részt kívánok-e venni a kutatásban.</p><p>Tisztában vagyok vele, hogy részvételi szándékomat és adataimat bármikor, indoklás nélkül visszavonhatom.</p><p>Értem és tudomásul veszem, hogy a kutatás tudományos célokat szolgál, és az általam szolgáltatott adatokat a BME kizárólag kutatási célból használja fel. Tudomásul veszem, hogy eredményeimet a többi résztvevő eredményeivel együtt kezelik, így egyéni teljesítményemről visszajelzést, szakvéleményt nem kapok.</p><p>Megértettem, hogy adataim kezelését illetően a BME az EU általános adatvédelmi rendelete (GDPR), a hatályos adatvédelmi törvény és a nemzetközi kutatás-etikai alapelvek szerint jár el. Eredményeim anonim módon kerülnek feldolgozásra, és a kutatás résztvevői az azonosításomra alkalmas adataimat harmadik félnek nem szolgáltatják ki. Engedélyezem a BME számára a jelen kutatásban felvett adataim feldolgozását és tárolását, beleértve azok későbbi kutatásokhoz való felhasználását is. Személyes adataim kezelésével kapcsolatban tájékoztatást kérhetek a kutatás résztvevőitől, az adatkezelés ellen tiltakozhatok, kérhetem személyes adataim helyesbítését, törlését vagy zárolását, valamint jogorvoslatért a Nemzeti Adatvédelmi és Információszabadság Hatósághoz fordulhatok.</p><p>Kijelentem, hogy a kutatásban való részvételem körülményeiről részletes tájékoztatást kaptam, és a feltételeket elfogadom.</p>","0","","","","","",""
"survey-text","4","229587","0.0-4.0","60500","","{""Q0"":""V7WHGC"",""Q1"":""nő"",""Q2"":""1976"",""Q3"":""19""}","","","","","",""
"html-button-response","5","260778","0.0-5.0","30679","<p>Ebben a játékban szavakat kell toldalékolni.</p> <p>Minden körben mutatunk majd egy példamondatot, amiben lesz egy szó.</p> <p>Alatta jön egy második mondat, ezt a mondatot neked kell majd befejezni, ugyanezzel a szóval.</p> <p>Nem biztos, hogy a szó eleve ismerős lesz számodra!</p> <p>Minden mondathoz adunk két lehetőséget, ezeket balra és jobbra látod majd.</p> <p>A játék kb. negyedóráig-húsz percig tart.</p>","0","","","","","",""
"html-button-response","6","282322","0.0-6.0","21039","<p>Nézzünk egy példát!</p> <p>A példamondat: ""Ez itt egy blumbnyeg.""</p><p>Neked ezt a mondatot kell befejezned: ""Ott vagyunk a...""</p><p>A lehetőségek pedig ezek:</p>","0","","","","","",""
"html-button-response","7","296403","0.0-7.0","13566","<p>Nagyon jó.</p><p>Ezt a játékot nem egyedül fogod játszani, hanem egy másik játékossal.</p><p>Mielőtt továbblépünk, összekapcsolunk titeket egymással.</p><p>Ez igénybe vehet néhány másodpercet, amihez szíves türelmed kérjük.</p>","0","","","","","",""
"html-button-response","8","302136","0.0-8.0","null","<p>Csatlakozás a másik játékoshoz...</p>","null","","","","","",""
"html-button-response","9","304652","0.0-9.0","null","<p> Sikeres kapcsolódás!</p>","null","","","","","",""
"html-button-response","10","315157","0.0-10.0","null","<p>A következőkben ketten játsszátok a szóválasztós játékot.</p><p>A feladatotok az lesz, hogy minden körben <b>ugyanazt</b> a szót válasszátok.</p><p>Minden ilyen egyező válaszért pontot kaptok.</p><p>Próbáld meg kitalálni, mit választ a másik játékos!</p><p>Bármikor választhatsz, a körnek akkor van vége, ha mindketten döntöttetek.</p><p>Sok sikert!</p>","null","","","","","",""
"html-button-response-esp","11","322042","0.0-11.0-0.0","6383","Ez itt egy jukél. Nincs is jobb egy jó...","0","jukélnál","[""jukélnál"",""jukélnél""]","jukélnál","esp trial","0","true"
"html-button-response","12","325559","0.0-11.0-1.0","null","<p>A másik játékos ezt választotta: <b>jukélnál</b>.</p><p>&#x2705;</p><p>A te válaszod és a másik játékos válasza <b>megegyeznek</b>.</p>","null","","","","feedback trial","",""
"html-button-response-esp","13","330488","0.0-11.0-0.1","4427","Ez itt egy brindez. Elneveztem a kutyámat...","0","brindeznek","[""brindeznek"",""brindeznak""]","brindeznak","esp trial","0","false"
"html-button-response","14","334003","0.0-11.0-1.1","null","<p>A másik játékos ezt választotta: <b>brindeznak</b>.</p><p>&#10060;</p><p>A válaszaitok <b>nem</b> egyeznek meg.</p>","null","","","","feedback trial","",""
"html-button-response-esp","15","339214","0.0-11.0-0.2","4709","Ez itt egy kalréz. Ott vagyunk a...","0","kalrézban","[""kalrézban"",""kalrézben""]","kalrézben","esp trial","0","false"
"html-button-response","16","342734","0.0-11.0-1.2","null","<p>A másik játékos ezt választotta: <b>kalrézben</b>.</p><p>&#10060;</p><p>A válaszaitok <b>nem</b> egyeznek meg.</p>","null","","","","feedback trial","",""
"html-button-response-esp","17","349142","0.0-11.0-0.3","5905","Ez itt egy spanél. Nincs is jobb egy jó...","1","spanélnél","[""spanélnál"",""spanélnél""]","spanélnél","esp trial","0","true"
"html-button-response","18","352661","0.0-11.0-1.3","null","<p>A másik játékos ezt választotta: <b>spanélnél</b>.</p><p>&#x2705;</p><p>A te válaszod és a másik játékos válasza <b>megegyeznek</b>.</p>","null","","","","feedback trial","",""
"html-button-response-esp","19","357323","0.0-11.0-0.4","4147","Ez itt egy gúden. Ott vagyunk a...","1","gúdenban","[""gúdenben"",""gúdenban""]","gúdenban","esp trial","0","true"
"html-button-response","20","360840","0.0-11.0-1.4","null","<p>A másik játékos ezt választotta: <b>gúdenban</b>.</p><p>&#x2705;</p><p>A te válaszod és a másik játékos válasza <b>megegyeznek</b>.</p>","null","","","","feedback trial","",""
"html-button-response-esp","21","365726","0.0-11.0-0.5","4385","Ez itt egy zsúdel. Elneveztem a kutyámat...","1","zsúdelnek","[""zsúdelnak"",""zsúdelnek""]","zsúdelnak","esp trial","0","false"
"html-button-response","22","369256","0.0-11.0-1.5","null","<p>A másik játékos ezt választotta: <b>zsúdelnak</b>.</p><p>&#10060;</p><p>A válaszaitok <b>nem</b> egyeznek meg.</p>","null","","","","feedback trial","",""
"html-button-response-esp","23","374781","0.0-11.0-0.6","5024","Ez itt egy nyupér. Nincs is jobb egy jó...","1","nyupérnál","[""nyupérnél"",""nyupérnál""]","nyupérnél","esp trial","0","false"
"html-button-response","24","378303","0.0-11.0-1.6","null","<p>A másik játékos ezt választotta: <b>nyupérnél</b>.</p><p>&#10060;</p><p>A válaszaitok <b>nem</b> egyeznek meg.</p>","null","","","","feedback trial","",""
"html-button-response-esp","25","383410","0.0-11.0-0.7","4605","Ez itt egy spumény. Elneveztem a kutyámat...","1","spuménynak","[""spuménynek"",""spuménynak""]","spuménynak","esp trial","0","true"
"html-button-response","26","386928","0.0-11.0-1.7","null","<p>A másik játékos ezt választotta: <b>spuménynak</b>.</p><p>&#x2705;</p><p>A te válaszod és a másik játékos válasza <b>megegyeznek</b>.</p>","null","","","","feedback trial","",""
"html-button-response-esp","27","391383","0.0-11.0-0.8","3938","Ez itt egy zihenc. Elneveztem a kutyámat...","0","zihencnek","[""zihencnek"",""zihencnak""]","zihencnak","esp trial","0","false"
"html-button-response","28","394907","0.0-11.0-1.8","null","<p>A másik játékos ezt választotta: <b>zihencnak</b>.</p><p>&#10060;</p><p>A válaszaitok <b>nem</b> egyeznek meg.</p>","null","","","","feedback trial","",""
"html-button-response-esp","29","401805","0.0-11.0-0.9","6396","Ez itt egy zsigén. Nincs is jobb egy jó...","1","zsigénnél","[""zsigénnál"",""zsigénnél""]","zsigénnál","esp trial","0","false"
"html-button-response","30","405329","0.0-11.0-1.9","null","<p>A másik játékos ezt választotta: <b>zsigénnál</b>.</p><p>&#10060;</p><p>A válaszaitok <b>nem</b> egyeznek meg.</p>","null","","","","feedback trial","",""
"html-button-response-esp","31","410303","0.0-11.0-0.10","4469","Ez itt egy ronszek. Ott vagyunk a...","0","ronszekban","[""ronszekban"",""ronszekben""]","ronszekban","esp trial","0","true"
"html-button-response","32","413824","0.0-11.0-1.10","null","<p>A másik játékos ezt választotta: <b>ronszekban</b>.</p><p>&#x2705;</p><p>A te válaszod és a másik játékos válasza <b>megegyeznek</b>.</p>","null","","","","feedback trial","",""
"html-button-response-esp","33","419174","0.0-11.0-0.11","4847","Ez itt egy zsáder. Ott vagyunk a...","1","zsáderben","[""zsáderban"",""zsáderben""]","zsáderban","esp trial","0","false"
"html-button-response","34","422697","0.0-11.0-1.11","null","<p>A másik játékos ezt választotta: <b>zsáderban</b>.</p><p>&#10060;</p><p>A válaszaitok <b>nem</b> egyeznek meg.</p>","null","","","","feedback trial","",""
"html-button-response-esp","35","428585","0.0-11.0-0.12","5386","Ez itt egy bralkép. Ott vagyunk a...","0","bralképben","[""bralképben"",""bralképban""]","bralképban","esp trial","0","false"
"html-button-response","36","432101","0.0-11.0-1.12","null","<p>A másik játékos ezt választotta: <b>bralképban</b>.</p><p>&#10060;</p><p>A válaszaitok <b>nem</b> egyeznek meg.</p>","null","","","","feedback trial","",""
"html-button-response-esp","37","437646","0.0-11.0-0.13","5044","Ez itt egy danét. Nincs is jobb egy jó...","1","danétnál","[""danétnél"",""danétnál""]","danétnél","esp trial","0","false"
"html-button-response","38","441172","0.0-11.0-1.13","null","<p>A másik játékos ezt választotta: <b>danétnél</b>.</p><p>&#10060;</p><p>A válaszaitok <b>nem</b> egyeznek meg.</p>","null","","","","feedback trial","",""
"html-button-response-esp","39","447108","0.0-11.0-0.14","5434","Ez itt egy ítens. Ott vagyunk a...","1","ítensben","[""ítensban"",""ítensben""]","ítensban","esp trial","0","false"
"html-button-response","40","450637","0.0-11.0-1.14","null","<p>A másik játékos ezt választotta: <b>ítensban</b>.</p><p>&#10060;</p><p>A válaszaitok <b>nem</b> egyeznek meg.</p>","null","","","","feedback trial","",""
"html-button-response-esp","41","455396","0.0-11.0-0.15","4257","Ez itt egy zopély. Nincs is jobb egy jó...","0","zopélynál","[""zopélynál"",""zopélynél""]","zopélynél","esp trial","0","false"
"html-button-response","42","458902","0.0-11.0-1.15","null","<p>A másik játékos ezt választotta: <b>zopélynél</b>.</p><p>&#10060;</p><p>A válaszaitok <b>nem</b> egyeznek meg.</p>","null","","","","feedback trial","",""
"html-button-response-esp","43","465246","0.0-11.0-0.16","5843","Ez itt egy sortem. Nincs is jobb egy jó...","1","sortemnél","[""sortemnál"",""sortemnél""]","sortemnál","esp trial","0","false"
"html-button-response","44","468757","0.0-11.0-1.16","null","<p>A másik játékos ezt választotta: <b>sortemnál</b>.</p><p>&#10060;</p><p>A válaszaitok <b>nem</b> egyeznek meg.</p>","null","","","","feedback trial","",""
"html-button-response-esp","45","473958","0.0-11.0-0.17","4699","Ez itt egy zsádév. Elneveztem a kutyámat...","1","zsádévnak","[""zsádévnek"",""zsádévnak""]","zsádévnek","esp trial","0","false"
"html-button-response","46","477473","0.0-11.0-1.17","null","<p>A másik játékos ezt választotta: <b>zsádévnek</b>.</p><p>&#10060;</p><p>A válaszaitok <b>nem</b> egyeznek meg.</p>","null","","","","feedback trial","",""
"html-button-response-esp","47","482061","0.0-11.0-0.18","4087","Ez itt egy luméz. Ott vagyunk a...","1","lumézban","[""lumézben"",""lumézban""]","lumézben","esp trial","0","false"
"html-button-response","48","485584","0.0-11.0-1.18","null","<p>A másik játékos ezt választotta: <b>lumézben</b>.</p><p>&#10060;</p><p>A válaszaitok <b>nem</b> egyeznek meg.</p>","null","","","","feedback trial","",""
"html-button-response-esp","49","490982","0.0-11.0-0.19","4896","Ez itt egy spicet. Elneveztem a kutyámat...","1","spicetnek","[""spicetnak"",""spicetnek""]","spicetnak","esp trial","0","false"
"html-button-response","50","494495","0.0-11.0-1.19","null","<p>A másik játékos ezt választotta: <b>spicetnak</b>.</p><p>&#10060;</p><p>A válaszaitok <b>nem</b> egyeznek meg.</p>","null","","","","feedback trial","",""
"html-button-response-esp","51","499597","0.0-11.0-0.20","4599","Ez itt egy dalenc. Nincs is jobb egy jó...","1","dalencnél","[""dalencnál"",""dalencnél""]","dalencnál","esp trial","0","false"
"html-button-response","52","503104","0.0-11.0-1.20","null","<p>A másik játékos ezt választotta: <b>dalencnál</b>.</p><p>&#10060;</p><p>A válaszaitok <b>nem</b> egyeznek meg.</p>","null","","","","feedback trial","",""
"html-button-response-esp","53","507304","0.0-11.0-0.21","3699","Ez itt egy dábegy. Ott vagyunk a...","1","dábegyben","[""dábegyban"",""dábegyben""]","dábegyban","esp trial","0","false"
"html-button-response","54","510820","0.0-11.0-1.21","null","<p>A másik játékos ezt választotta: <b>dábegyban</b>.</p><p>&#10060;</p><p>A válaszaitok <b>nem</b> egyeznek meg.</p>","null","","","","feedback trial","",""
"html-button-response-esp","55","516014","0.0-11.0-0.22","4693","Ez itt egy dihely. Elneveztem a kutyámat...","1","dihelynek","[""dihelynak"",""dihelynek""]","dihelynak","esp trial","0","false"
"html-button-response","56","519542","0.0-11.0-1.22","null","<p>A másik játékos ezt választotta: <b>dihelynak</b>.</p><p>&#10060;</p><p>A válaszaitok <b>nem</b> egyeznek meg.</p>","null","","","","feedback trial","",""
"html-button-response-esp","57","528181","0.0-11.0-0.23","8137","Ez itt egy tosély. Ott vagyunk a...","0","tosélyben","[""tosélyben"",""tosélyban""]","tosélyben","esp trial","0","true"
"html-button-response","58","531708","0.0-11.0-1.23","null","<p>A másik játékos ezt választotta: <b>tosélyben</b>.</p><p>&#x2705;</p><p>A te válaszod és a másik játékos válasza <b>megegyeznek</b>.</p>","null","","","","feedback trial","",""
"html-button-response-esp","59","537627","0.0-11.0-0.24","5406","Ez itt egy fájéz. Ott vagyunk a...","0","fájézben","[""fájézben"",""fájézban""]","fájézben","esp trial","0","true"
"html-button-response","60","541144","0.0-11.0-1.24","null","<p>A másik játékos ezt választotta: <b>fájézben</b>.</p><p>&#x2705;</p><p>A te válaszod és a másik játékos válasza <b>megegyeznek</b>.</p>","null","","","","feedback trial","",""
"html-button-response-esp","61","547618","0.0-11.0-0.25","5972","Ez itt egy lorzens. Nincs is jobb egy jó...","1","lorzensnél","[""lorzensnál"",""lorzensnél""]","lorzensnál","esp trial","0","false"
"html-button-response","62","551137","0.0-11.0-1.25","null","<p>A másik játékos ezt választotta: <b>lorzensnál</b>.</p><p>&#10060;</p><p>A válaszaitok <b>nem</b> egyeznek meg.</p>","null","","","","feedback trial","",""
"html-button-response-esp","63","555323","0.0-11.0-0.26","3684","Ez itt egy klingesz. Ott vagyunk a...","1","klingeszben","[""klingeszban"",""klingeszben""]","klingeszban","esp trial","0","false"
"html-button-response","64","558842","0.0-11.0-1.26","null","<p>A másik játékos ezt választotta: <b>klingeszban</b>.</p><p>&#10060;</p><p>A válaszaitok <b>nem</b> egyeznek meg.</p>","null","","","","feedback trial","",""
"html-button-response-esp","65","563794","0.0-11.0-0.27","4450","Ez itt egy trismél. Elneveztem a kutyámat...","0","trismélnek","[""trismélnek"",""trismélnak""]","trismélnak","esp trial","0","false"
"html-button-response","66","567314","0.0-11.0-1.27","null","<p>A másik játékos ezt választotta: <b>trismélnak</b>.</p><p>&#10060;</p><p>A válaszaitok <b>nem</b> egyeznek meg.</p>","null","","","","feedback trial","",""
"html-button-response-esp","67","571711","0.0-11.0-0.28","3881","Ez itt egy pítend. Ott vagyunk a...","0","pítendben","[""pítendben"",""pítendban""]","pítendban","esp trial","0","false"
"html-button-response","68","575226","0.0-11.0-1.28","null","<p>A másik játékos ezt választotta: <b>pítendban</b>.</p><p>&#10060;</p><p>A válaszaitok <b>nem</b> egyeznek meg.</p>","null","","","","feedback trial","",""
"html-button-response-esp","69","581339","0.0-11.0-0.29","5612","Ez itt egy trájeg. Ott vagyunk a...","0","trájegben","[""trájegben"",""trájegban""]","trájegban","esp trial","0","false"
"html-button-response","70","584860","0.0-11.0-1.29","null","<p>A másik játékos ezt választotta: <b>trájegban</b>.</p><p>&#10060;</p><p>A válaszaitok <b>nem</b> egyeznek meg.</p>","null","","","","feedback trial","",""
"html-button-response-esp","71","594127","0.0-11.0-0.30","8751","Ez itt egy monveg. Nincs is jobb egy jó...","1","monvegnál","[""monvegnél"",""monvegnál""]","monvegnál","esp trial","0","true"
"html-button-response","72","597643","0.0-11.0-1.30","null","<p>A másik játékos ezt választotta: <b>monvegnál</b>.</p><p>&#x2705;</p><p>A te válaszod és a másik játékos válasza <b>megegyeznek</b>.</p>","null","","","","feedback trial","",""
"html-button-response-esp","73","603317","0.0-11.0-0.31","5173","Ez itt egy priszec. Ott vagyunk a...","1","priszecben","[""priszecban"",""priszecben""]","priszecban","esp trial","0","false"
"html-button-response","74","606835","0.0-11.0-1.31","null","<p>A másik játékos ezt választotta: <b>priszecban</b>.</p><p>&#10060;</p><p>A válaszaitok <b>nem</b> egyeznek meg.</p>","null","","","","feedback trial","",""
"html-button-response-esp","75","612850","0.0-11.0-0.32","5513","Ez itt egy hágyét. Elneveztem a kutyámat...","0","hágyétnak","[""hágyétnak"",""hágyétnek""]","hágyétnek","esp trial","0","false"
"html-button-response","76","616376","0.0-11.0-1.32","null","<p>A másik játékos ezt választotta: <b>hágyétnek</b>.</p><p>&#10060;</p><p>A válaszaitok <b>nem</b> egyeznek meg.</p>","null","","","","feedback trial","",""
"html-button-response-esp","77","620860","0.0-11.0-0.33","3983","Ez itt egy nyamet. Ott vagyunk a...","1","nyametben","[""nyametban"",""nyametben""]","nyametban","esp trial","0","false"
"html-button-response","78","624386","0.0-11.0-1.33","null","<p>A másik játékos ezt választotta: <b>nyametban</b>.</p><p>&#10060;</p><p>A válaszaitok <b>nem</b> egyeznek meg.</p>","null","","","","feedback trial","",""
"html-button-response-esp","79","630778","0.0-11.0-0.34","5891","Ez itt egy pijél. Nincs is jobb egy jó...","0","pijélnél","[""pijélnél"",""pijélnál""]","pijélnál","esp trial","0","false"
"html-button-response","80","634299","0.0-11.0-1.34","null","<p>A másik játékos ezt választotta: <b>pijélnál</b>.</p><p>&#10060;</p><p>A válaszaitok <b>nem</b> egyeznek meg.</p>","null","","","","feedback trial","",""
"html-button-response-esp","81","638618","0.0-11.0-0.35","3817","Ez itt egy rapszek. Nincs is jobb egy jó...","0","rapszeknél","[""rapszeknél"",""rapszeknál""]","rapszeknál","esp trial","0","false"
"html-button-response","82","642134","0.0-11.0-1.35","null","<p>A másik játékos ezt választotta: <b>rapszeknál</b>.</p><p>&#10060;</p><p>A válaszaitok <b>nem</b> egyeznek meg.</p>","null","","","","feedback trial","",""
"html-button-response-esp","83","649822","0.0-11.0-0.36","7187","Ez itt egy bupéz. Ott vagyunk a...","0","bupézben","[""bupézben"",""bupézban""]","bupézben","esp trial","0","true"
"html-button-response","84","653347","0.0-11.0-1.36","null","<p>A másik játékos ezt választotta: <b>bupézben</b>.</p><p>&#x2705;</p><p>A te válaszod és a másik játékos válasza <b>megegyeznek</b>.</p>","null","","","","feedback trial","",""
"html-button-response-esp","85","658192","0.0-11.0-0.37","4333","Ez itt egy narem. Ott vagyunk a...","0","naremben","[""naremben"",""naremban""]","naremban","esp trial","0","false"
"html-button-response","86","661712","0.0-11.0-1.37","null","<p>A másik játékos ezt választotta: <b>naremban</b>.</p><p>&#10060;</p><p>A válaszaitok <b>nem</b> egyeznek meg.</p>","null","","","","feedback trial","",""
"html-button-response-esp","87","666463","0.0-11.0-0.38","4249","Ez itt egy kaszép. Elneveztem a kutyámat...","1","kaszépnek","[""kaszépnak"",""kaszépnek""]","kaszépnak","esp trial","0","false"
"html-button-response","88","669977","0.0-11.0-1.38","null","<p>A másik játékos ezt választotta: <b>kaszépnak</b>.</p><p>&#10060;</p><p>A válaszaitok <b>nem</b> egyeznek meg.</p>","null","","","","feedback trial","",""
"html-button-response-esp","89","674587","0.0-11.0-0.39","4108","Ez itt egy vorszen. Nincs is jobb egy jó...","1","vorszennál","[""vorszennél"",""vorszennál""]","vorszennál","esp trial","0","true"
"html-button-response","90","678104","0.0-11.0-1.39","null","<p>A másik játékos ezt választotta: <b>vorszennál</b>.</p><p>&#x2705;</p><p>A te válaszod és a másik játékos válasza <b>megegyeznek</b>.</p>","null","","","","feedback trial","",""
"html-button-response-esp","91","682675","0.0-11.0-0.40","4055","Ez itt egy spábét. Ott vagyunk a...","1","spábétben","[""spábétban"",""spábétben""]","spábétben","esp trial","0","true"
"html-button-response","92","686206","0.0-11.0-1.40","null","<p>A másik játékos ezt választotta: <b>spábétben</b>.</p><p>&#x2705;</p><p>A te válaszod és a másik játékos válasza <b>megegyeznek</b>.</p>","null","","","","feedback trial","",""
"html-button-response-esp","93","689951","0.0-11.0-0.41","3168","Ez itt egy darhén. Ott vagyunk a...","1","darhénben","[""darhénban"",""darhénben""]","darhénben","esp trial","0","true"
"html-button-response","94","693468","0.0-11.0-1.41","null","<p>A másik játékos ezt választotta: <b>darhénben</b>.</p><p>&#x2705;</p><p>A te válaszod és a másik játékos válasza <b>megegyeznek</b>.</p>","null","","","","feedback trial","",""
"html-button-response-esp","95","698833","0.0-11.0-0.42","4864","Ez itt egy pivéd. Ott vagyunk a...","1","pivédben","[""pivédban"",""pivédben""]","pivédban","esp trial","0","false"
"html-button-response","96","702354","0.0-11.0-1.42","null","<p>A másik játékos ezt választotta: <b>pivédban</b>.</p><p>&#10060;</p><p>A válaszaitok <b>nem</b> egyeznek meg.</p>","null","","","","feedback trial","",""
"html-button-response-esp","97","707039","0.0-11.0-0.43","4182","Ez itt egy jóbec. Elneveztem a kutyámat...","1","jóbecnek","[""jóbecnak"",""jóbecnek""]","jóbecnak","esp trial","0","false"
"html-button-response","98","710563","0.0-11.0-1.43","null","<p>A másik játékos ezt választotta: <b>jóbecnak</b>.</p><p>&#10060;</p><p>A válaszaitok <b>nem</b> egyeznek meg.</p>","null","","","","feedback trial","",""
"html-button-response-esp","99","715895","0.0-11.0-0.44","4831","Ez itt egy klosét. Elneveztem a kutyámat...","1","klosétnak","[""klosétnek"",""klosétnak""]","klosétnek","esp trial","0","false"
"html-button-response","100","719412","0.0-11.0-1.44","null","<p>A másik játékos ezt választotta: <b>klosétnek</b>.</p><p>&#10060;</p><p>A válaszaitok <b>nem</b> egyeznek meg.</p>","null","","","","feedback trial","",""
"html-button-response-esp","101","724362","0.0-11.0-0.45","4448","Ez itt egy dorzéj. Elneveztem a kutyámat...","1","dorzéjnek","[""dorzéjnak"",""dorzéjnek""]","dorzéjnak","esp trial","0","false"
"html-button-response","102","727877","0.0-11.0-1.45","null","<p>A másik játékos ezt választotta: <b>dorzéjnak</b>.</p><p>&#10060;</p><p>A válaszaitok <b>nem</b> egyeznek meg.</p>","null","","","","feedback trial","",""
"html-button-response-esp","103","732111","0.0-11.0-0.46","3732","Ez itt egy kalhész. Elneveztem a kutyámat...","1","kalhésznak","[""kalhésznek"",""kalhésznak""]","kalhésznak","esp trial","0","true"
"html-button-response","104","735635","0.0-11.0-1.46","null","<p>A másik játékos ezt választotta: <b>kalhésznak</b>.</p><p>&#x2705;</p><p>A te válaszod és a másik játékos válasza <b>megegyeznek</b>.</p>","null","","","","feedback trial","",""
"html-button-response-esp","105","739709","0.0-11.0-0.47","3573","Ez itt egy pisély. Ott vagyunk a...","1","pisélyban","[""pisélyben"",""pisélyban""]","pisélyban","esp trial","0","true"
"html-button-response","106","743215","0.0-11.0-1.47","null","<p>A másik játékos ezt választotta: <b>pisélyban</b>.</p><p>&#x2705;</p><p>A te válaszod és a másik játékos válasza <b>megegyeznek</b>.</p>","null","","","","feedback trial","",""
"html-button-response-esp","107","747682","0.0-11.0-0.48","3965","Ez itt egy kátel. Elneveztem a kutyámat...","1","kátelnak","[""kátelnek"",""kátelnak""]","kátelnak","esp trial","0","true"
"html-button-response","108","751198","0.0-11.0-1.48","null","<p>A másik játékos ezt választotta: <b>kátelnak</b>.</p><p>&#x2705;</p><p>A te válaszod és a másik játékos válasza <b>megegyeznek</b>.</p>","null","","","","feedback trial","",""
"html-button-response-esp","109","755776","0.0-11.0-0.49","4076","Ez itt egy garcép. Nincs is jobb egy jó...","0","garcépnál","[""garcépnál"",""garcépnél""]","garcépnél","esp trial","0","false"
"html-button-response","110","759293","0.0-11.0-1.49","null","<p>A másik játékos ezt választotta: <b>garcépnél</b>.</p><p>&#10060;</p><p>A válaszaitok <b>nem</b> egyeznek meg.</p>","null","","","","feedback trial","",""
"html-button-response-esp","111","763270","0.0-11.0-0.50","3462","Ez itt egy incéj. Elneveztem a kutyámat...","1","incéjnak","[""incéjnek"",""incéjnak""]","incéjnak","esp trial","0","true"
"html-button-response","112","766801","0.0-11.0-1.50","null","<p>A másik játékos ezt választotta: <b>incéjnak</b>.</p><p>&#x2705;</p><p>A te válaszod és a másik játékos válasza <b>megegyeznek</b>.</p>","null","","","","feedback trial","",""
"html-button-response-esp","113","771177","0.0-11.0-0.51","3875","Ez itt egy braszenc. Nincs is jobb egy jó...","1","braszencnál","[""braszencnél"",""braszencnál""]","braszencnál","esp trial","0","true"
"html-button-response","114","774699","0.0-11.0-1.51","null","<p>A másik játékos ezt választotta: <b>braszencnál</b>.</p><p>&#x2705;</p><p>A te válaszod és a másik játékos válasza <b>megegyeznek</b>.</p>","null","","","","feedback trial","",""
"html-button-response-esp","115","788103","0.0-11.0-0.52","12902","Ez itt egy nyítem. Ott vagyunk a...","0","nyítemban","[""nyítemban"",""nyítemben""]","nyítemban","esp trial","0","true"
"html-button-response","116","791606","0.0-11.0-1.52","null","<p>A másik játékos ezt választotta: <b>nyítemban</b>.</p><p>&#x2705;</p><p>A te válaszod és a másik játékos válasza <b>megegyeznek</b>.</p>","null","","","","feedback trial","",""
"html-button-response-esp","117","797169","0.0-11.0-0.53","5061","Ez itt egy sprivenc. Nincs is jobb egy jó...","1","sprivencnál","[""sprivencnél"",""sprivencnál""]","sprivencnál","esp trial","0","true"
"html-button-response","118","800688","0.0-11.0-1.53","null","<p>A másik játékos ezt választotta: <b>sprivencnál</b>.</p><p>&#x2705;</p><p>A te válaszod és a másik játékos válasza <b>megegyeznek</b>.</p>","null","","","","feedback trial","",""
"html-button-response","119","813047","0.0-12.0","11858","<p>A közös játék most véget ért.</p><p>Mielőtt eláruljuk a végső pontszámodat, arra kérlek, játszd a szóválasztós játékot néhány percig egyedül is.</p><p>A feladatod ugyanaz lesz, választani két lehetőség közül.</p><p>Most viszont egyedül kell döntened, hogy te melyiket választanád.</p>","0","","","","","",""
"html-button-response-clever","120","825817","0.0-13.0-0.0","12265","Ez itt egy klazér. Ott vagyunk a...","0","klazérben","[""klazérben"",""klazérban""]","","posttest trial","4",""
"html-button-response-clever","121","831598","0.0-13.0-0.1","5265","Ez itt egy jurdent. Nincs is jobb egy jó...","1","jurdentnél","[""jurdentnál"",""jurdentnél""]","","posttest trial","4",""
"html-button-response-clever","122","836578","0.0-13.0-0.2","4466","Ez itt egy hijegy. Nincs is jobb egy jó...","0","hijegynél","[""hijegynél"",""hijegynál""]","","posttest trial","4",""
"html-button-response-clever","123","841690","0.0-13.0-0.3","4596","Ez itt egy lijez. Elneveztem a kutyámat...","1","lijeznek","[""lijeznak"",""lijeznek""]","","posttest trial","4",""
"html-button-response-clever","124","846781","0.0-13.0-0.4","4576","Ez itt egy murdes. Nincs is jobb egy jó...","1","murdesnél","[""murdesnál"",""murdesnél""]","","posttest trial","4",""
"html-button-response-clever","125","851436","0.0-13.0-0.5","4151","Ez itt egy dunkész. Ott vagyunk a...","0","dunkészben","[""dunkészben"",""dunkészban""]","","posttest trial","4",""
"html-button-response-clever","126","856460","0.0-13.0-0.6","4521","Ez itt egy fupét. Nincs is jobb egy jó...","0","fupétnél","[""fupétnél"",""fupétnál""]","","posttest trial","4",""
"html-button-response-clever","127","863773","0.0-13.0-0.7","6800","Ez itt egy gábéd. Nincs is jobb egy jó...","1","gábédnél","[""gábédnál"",""gábédnél""]","","posttest trial","4",""
"html-button-response-clever","128","868532","0.0-13.0-0.8","4243","Ez itt egy dutec. Nincs is jobb egy jó...","0","dutecnél","[""dutecnél"",""dutecnál""]","","posttest trial","4",""
"html-button-response-clever","129","874530","0.0-13.0-0.9","5486","Ez itt egy trodély. Ott vagyunk a...","1","trodélyben","[""trodélyban"",""trodélyben""]","","posttest trial","4",""
"html-button-response-clever","130","879895","0.0-13.0-0.10","4851","Ez itt egy tivenc. Ott vagyunk a...","1","tivencben","[""tivencban"",""tivencben""]","","posttest trial","4",""
"html-button-response-clever","131","883981","0.0-13.0-0.11","3572","Ez itt egy dibez. Ott vagyunk a...","1","dibezben","[""dibezban"",""dibezben""]","","posttest trial","4",""
"html-button-response-clever","132","888776","0.0-13.0-0.12","4282","Ez itt egy dinelt. Ott vagyunk a...","0","dineltben","[""dineltben"",""dineltban""]","","posttest trial","4",""
"html-button-response-clever","133","892231","0.0-13.0-0.13","2939","Ez itt egy tumély. Nincs is jobb egy jó...","1","tumélynél","[""tumélynál"",""tumélynél""]","","posttest trial","4",""
"html-button-response-clever","134","894875","0.0-13.0-0.14","2141","Ez itt egy vodec. Nincs is jobb egy jó...","1","vodecnél","[""vodecnál"",""vodecnél""]","","posttest trial","4",""
"html-button-response-clever","135","898903","0.0-13.0-0.15","3526","Ez itt egy fojlegy. Elneveztem a kutyámat...","0","fojlegynek","[""fojlegynek"",""fojlegynak""]","","posttest trial","4",""
"html-button-response-clever","136","906740","0.0-13.0-0.16","7322","Ez itt egy pazév. Nincs is jobb egy jó...","1","pazévnél","[""pazévnál"",""pazévnél""]","","posttest trial","4",""
"html-button-response-clever","137","910331","0.0-13.0-0.17","3085","Ez itt egy spivél. Elneveztem a kutyámat...","1","spivélnek","[""spivélnak"",""spivélnek""]","","posttest trial","4",""
"html-button-response-clever","138","917135","0.0-13.0-0.18","6288","Ez itt egy cságyelt. Ott vagyunk a...","0","cságyeltben","[""cságyeltben"",""cságyeltban""]","","posttest trial","4",""
"html-button-response-clever","139","921965","0.0-13.0-0.19","4328","Ez itt egy tarhéz. Ott vagyunk a...","1","tarhézben","[""tarhézban"",""tarhézben""]","","posttest trial","4",""
"html-button-response-clever","140","928021","0.0-13.0-0.20","5541","Ez itt egy zined. Elneveztem a kutyámat...","1","zinednek","[""zinednak"",""zinednek""]","","posttest trial","4",""
"html-button-response-clever","141","933023","0.0-13.0-0.21","4489","Ez itt egy vurnel. Elneveztem a kutyámat...","1","vurnelnek","[""vurnelnak"",""vurnelnek""]","","posttest trial","4",""
"html-button-response-clever","142","939245","0.0-13.0-0.22","5706","Ez itt egy spizec. Elneveztem a kutyámat...","0","spizecnek","[""spizecnek"",""spizecnak""]","","posttest trial","4",""
"html-button-response-clever","143","944105","0.0-13.0-0.23","4344","Ez itt egy surnegy. Nincs is jobb egy jó...","1","surnegynél","[""surnegynál"",""surnegynél""]","","posttest trial","4",""
"html-button-response-clever","144","948434","0.0-13.0-0.24","3814","Ez itt egy fizend. Ott vagyunk a...","0","fizendben","[""fizendben"",""fizendban""]","","posttest trial","4",""
"html-button-response-clever","145","952578","0.0-13.0-0.25","3629","Ez itt egy dajrens. Nincs is jobb egy jó...","1","dajrensnél","[""dajrensnál"",""dajrensnél""]","","posttest trial","4",""
"html-button-response-clever","146","955735","0.0-13.0-0.26","2642","Ez itt egy zuten. Nincs is jobb egy jó...","0","zutennél","[""zutennél"",""zutennál""]","","posttest trial","4",""
"html-button-response-clever","147","959826","0.0-13.0-0.27","3589","Ez itt egy fágyép. Nincs is jobb egy jó...","1","fágyépnél","[""fágyépnál"",""fágyépnél""]","","posttest trial","4",""
"html-button-response-clever","148","963585","0.0-13.0-0.28","3246","Ez itt egy csublény. Ott vagyunk a...","0","csublényben","[""csublényben"",""csublényban""]","","posttest trial","4",""
"html-button-response-clever","149","969230","0.0-13.0-0.29","5130","Ez itt egy lingék. Nincs is jobb egy jó...","0","lingéknél","[""lingéknél"",""lingéknál""]","","posttest trial","4",""
"html-button-response-clever","150","974300","0.0-13.0-0.30","4558","Ez itt egy bingéj. Elneveztem a kutyámat...","1","bingéjnek","[""bingéjnak"",""bingéjnek""]","","posttest trial","4",""
"html-button-response-clever","151","980431","0.0-13.0-0.31","5629","Ez itt egy dóbem. Elneveztem a kutyámat...","0","dóbemnek","[""dóbemnek"",""dóbemnak""]","","posttest trial","4",""
"html-button-response-clever","152","983541","0.0-13.0-0.32","2595","Ez itt egy nuhét. Nincs is jobb egy jó...","1","nuhétnél","[""nuhétnál"",""nuhétnél""]","","posttest trial","4",""
"html-button-response-clever","153","989460","0.0-13.0-0.33","5417","Ez itt egy mádép. Nincs is jobb egy jó...","1","mádépnél","[""mádépnál"",""mádépnél""]","","posttest trial","4",""
"html-button-response-clever","154","993316","0.0-13.0-0.34","3341","Ez itt egy hosét. Elneveztem a kutyámat...","0","hosétnek","[""hosétnek"",""hosétnak""]","","posttest trial","4",""
"html-button-response-clever","155","996356","0.0-13.0-0.35","2526","Ez itt egy csodeg. Nincs is jobb egy jó...","1","csodegnél","[""csodegnál"",""csodegnél""]","","posttest trial","4",""
"html-button-response-clever","156","1001722","0.0-13.0-0.36","4853","Ez itt egy trikép. Ott vagyunk a...","1","triképben","[""triképban"",""triképben""]","","posttest trial","4",""
"html-button-response-clever","157","1006394","0.0-13.0-0.37","4158","Ez itt egy klajrén. Elneveztem a kutyámat...","1","klajrénnek","[""klajrénnak"",""klajrénnek""]","","posttest trial","4",""
"html-button-response-clever","158","1011186","0.0-13.0-0.38","4276","Ez itt egy humék. Elneveztem a kutyámat...","0","huméknek","[""huméknek"",""huméknak""]","","posttest trial","4",""
"html-button-response-clever","159","1015460","0.0-13.0-0.39","3760","Ez itt egy briskéd. Nincs is jobb egy jó...","0","briskédnél","[""briskédnél"",""briskédnál""]","","posttest trial","4",""
"html-button-response-clever","160","1019281","0.0-13.0-0.40","3306","Ez itt egy klítegy. Nincs is jobb egy jó...","0","klítegynél","[""klítegynél"",""klítegynál""]","","posttest trial","4",""
"html-button-response-clever","161","1023507","0.0-13.0-0.41","3724","Ez itt egy szanéj. Elneveztem a kutyámat...","1","szanéjnek","[""szanéjnak"",""szanéjnek""]","","posttest trial","4",""
"html-button-response-clever","162","1026657","0.0-13.0-0.42","2648","Ez itt egy sihen. Nincs is jobb egy jó...","1","sihennél","[""sihennál"",""sihennél""]","","posttest trial","4",""
"html-button-response-clever","163","1031257","0.0-13.0-0.43","4086","Ez itt egy zsalrén. Elneveztem a kutyámat...","1","zsalrénnek","[""zsalrénnak"",""zsalrénnek""]","","posttest trial","4",""
"html-button-response-clever","164","1034346","0.0-13.0-0.44","2575","Ez itt egy spatel. Elneveztem a kutyámat...","0","spatelnek","[""spatelnek"",""spatelnak""]","","posttest trial","4",""
"html-button-response-clever","165","1039112","0.0-13.0-0.45","4253","Ez itt egy zatéj. Nincs is jobb egy jó...","0","zatéjnél","[""zatéjnél"",""zatéjnál""]","","posttest trial","4",""
"html-button-response-clever","166","1042101","0.0-13.0-0.46","2477","Ez itt egy lihény. Elneveztem a kutyámat...","0","lihénynek","[""lihénynek"",""lihénynak""]","","posttest trial","4",""
"html-button-response-clever","167","1046342","0.0-13.0-0.47","3726","Ez itt egy pristél. Ott vagyunk a...","1","pristélben","[""pristélban"",""pristélben""]","","posttest trial","4",""
"html-button-response-clever","168","1050180","0.0-13.0-0.48","3327","Ez itt egy jutély. Nincs is jobb egy jó...","1","jutélynél","[""jutélynál"",""jutélynél""]","","posttest trial","4",""
"html-button-response-clever","169","1058655","0.0-13.0-0.49","7961","Ez itt egy kátéd. Nincs is jobb egy jó...","0","kátédnél","[""kátédnél"",""kátédnál""]","","posttest trial","4",""
"html-button-response-clever","170","1065160","0.0-13.0-0.50","5989","Ez itt egy zábény. Elneveztem a kutyámat...","1","zábénynek","[""zábénynak"",""zábénynek""]","","posttest trial","4",""
"html-button-response-clever","171","1069811","0.0-13.0-0.51","4134","Ez itt egy vismer. Nincs is jobb egy jó...","0","vismernél","[""vismernél"",""vismernál""]","","posttest trial","4",""
"html-button-response-clever","172","1074112","0.0-13.0-0.52","3788","Ez itt egy zarcég. Nincs is jobb egy jó...","1","zarcégnél","[""zarcégnál"",""zarcégnél""]","","posttest trial","4",""
"html-button-response-clever","173","1078404","0.0-13.0-0.53","3776","Ez itt egy szibed. Ott vagyunk a...","0","szibedben","[""szibedben"",""szibedban""]","","posttest trial","4",""
"html-button-response","174","1085510","0.0-14.0","6602","<p> Vége a játéknak. A teljes pontszámod 19/54.</p><p> Szép munka! &#128526;&#128526;&#128526;</p><p>A Befejezés gomb megnyomása után bezárhatod a böngészőablakot.</p>","0","","","","","",""
"html-keyboard-response","175","1091039","0.0-15.0","null","<div class=""message"">
         <p>Egy kis türelmet kérünk, amíg elmentjük az adatokat...</p>
         </div>","null","","","","","",""
