"trial_type","trial_index","time_elapsed","internal_node_id","rt","stimulus","response","response_string","choices","esp_response","trial_kind","list_number","esp_match"
"pavlovia","0","560","0.0-0.0","","","","","","","","",""
"html-button-response","1","3255","0.0-1.0","2179","<p>Kedves Résztvevő! A Budapesti Műszaki és Gazdaságtudományi Egyetem Kognitív Tudományi Tanszékének kutatásában való részvételed kérjük. A kutatásban azt vizsgáljuk, hogy a magyar anyanyelvűek hogyan használnak bizonyos szóalakokat, és hogy milyen képük van arról, hogy mások hogyan használják, hogyan képzik a szavakat. Ez hozzásegít bennünket ahhoz, hogy jobban megértsük, hogyan dolgozza fel és tárolja a nyelvet az emberi agy, és hogyan működnek, hogyan változnak egy adott közösség nyelvi konvenciói.</p><p>A vizsgálat egy rövid számítógépes feladatból fog állni. A kutatásban való részvétel önkéntes, a részvételi szándék bármikor visszavonható. A résztvevők eredményeit név nélkül kezeljük, így nem beazonosíthatók az adatok feldolgozása során. Minden személyes adatot az EU általános adatvédelmi rendeletének (GDPR) megfelelően kezelünk és legfeljebb öt éven belül megsemmisítünk. A vizsgálat jellemzően húsz percet vesz igénybe.</p><p>Kutatásvezető:</p><p>Dr. Rácz Péter, tudományos munkatárs, BME KTT</p><p>e-mail: racz.peter.marton@ttk.bme.hu</p>","0","","","","","",""
"html-button-response","2","5334","0.0-2.0","1566","<p>A kísérletben szavakat fogsz látni. Ezek között lesznek olyanok, amelyeket ismersz, de előfordulhatnak olyanok is, amelyeket nem ismersz, sőt, vannak köztük kitalált szavak is. Minden szónál látni fogsz toldalékolt alakokat. A te feladatod az lesz, hogy minden szóhoz kiválaszd azt a toldalékolt alakot, amely a te számodra ismerősebben, természetesebben hangzik. Rossz válaszok nincsenek, mert van olyan, hogy különböző embereknek más és más szó tűnik jobb választásnak. A választ úgy tudod majd kiválasztani, ha rákattintasz.</p><p>Ebben a szóválasztós játékban egy másik játékossal együtt veszel majd részt. A másik játékos is minden esetben azok közül a lehetőségek közül válogathat, mint te. Kettőtök feladata az, hogy ugyanazt a lehetőséget válasszátok minden esetben. Ahhoz, hogy ez sikerüljön, neked figyelned kell arra, hogy a másik játékos milyen válaszokat ad, és ennek alapján meg kell tippelned, hogyan választ legközelebb. Ha eltalálod, akkor pontot kapsz.</p>","0","","","","","",""
"html-button-response","3","7455","0.0-3.0","1617","<p>Kérjük, olvasd el az alábbi nyilatkozatot, és amennyiben egyetértesz vele, nyomj a Beleegyezés gombra!</p><p>Kijelentem, hogy magyar anyanyelvű személyként önként veszek részt a BME KTT kísérletében. A kutatás céljával és folyamatával kapcsolatban elegendő tájékoztatást kaptam, lehetőségem volt kérdések feltételére, és esetleges kérdéseimre megfelelő válaszokat kaptam. A tájékoztatás alapján elegendő mennyiségű információ áll a rendelkezésemre, hogy eldönthessem, részt kívánok-e venni a kutatásban.</p><p>Tisztában vagyok vele, hogy részvételi szándékomat és adataimat bármikor, indoklás nélkül visszavonhatom.</p><p>Értem és tudomásul veszem, hogy a kutatás tudományos célokat szolgál, és az általam szolgáltatott adatokat a BME kizárólag kutatási célból használja fel. Tudomásul veszem, hogy eredményeimet a többi résztvevő eredményeivel együtt kezelik, így egyéni teljesítményemről visszajelzést, szakvéleményt nem kapok.</p><p>Megértettem, hogy adataim kezelését illetően a BME az EU általános adatvédelmi rendelete (GDPR), a hatályos adatvédelmi törvény és a nemzetközi kutatás-etikai alapelvek szerint jár el. Eredményeim anonim módon kerülnek feldolgozásra, és a kutatás résztvevői az azonosításomra alkalmas adataimat harmadik félnek nem szolgáltatják ki. Engedélyezem a BME számára a jelen kutatásban felvett adataim feldolgozását és tárolását, beleértve azok későbbi kutatásokhoz való felhasználását is. Személyes adataim kezelésével kapcsolatban tájékoztatást kérhetek a kutatás résztvevőitől, az adatkezelés ellen tiltakozhatok, kérhetem személyes adataim helyesbítését, törlését vagy zárolását, valamint jogorvoslatért a Nemzeti Adatvédelmi és Információszabadság Hatósághoz fordulhatok.</p><p>Kijelentem, hogy a kutatásban való részvételem körülményeiről részletes tájékoztatást kaptam, és a feltételeket elfogadom.</p>","0","","","","","",""
"survey-text","4","30734","0.0-4.0","22766","","{""Q0"":""YBWXA6"",""Q1"":""nő"",""Q2"":""1984"",""Q3"":""17""}","","","","","",""
"html-button-response","5","44972","0.0-5.0","13733","<p>Ebben a játékban szavakat kell toldalékolni.</p> <p>Minden körben mutatunk majd egy példamondatot, amiben lesz egy szó.</p> <p>Alatta jön egy második mondat, ezt a mondatot neked kell majd befejezni, ugyanezzel a szóval.</p> <p>Nem biztos, hogy a szó eleve ismerős lesz számodra!</p> <p>Minden mondathoz adunk két lehetőséget, ezeket balra és jobbra látod majd.</p> <p>A játék kb. negyedóráig-húsz percig tart.</p>","0","","","","","",""
"html-button-response","6","55786","0.0-6.0","10310","<p>Nézzünk egy példát!</p> <p>A példamondat: ""Ez itt egy blumbnyeg.""</p><p>Neked ezt a mondatot kell befejezned: ""Ott vagyunk a...""</p><p>A lehetőségek pedig ezek:</p>","0","","","","","",""
"html-button-response","7","62523","0.0-7.0","6224","<p>Nagyon jó.</p><p>Ezt a játékot nem egyedül fogod játszani, hanem egy másik játékossal.</p><p>Mielőtt továbblépünk, összekapcsolunk titeket egymással.</p><p>Ez igénybe vehet néhány másodpercet, amihez szíves türelmed kérjük.</p>","0","","","","","",""
"html-button-response","8","68260","0.0-8.0","null","<p>Csatlakozás a másik játékoshoz...</p>","null","","","","","",""
"html-button-response","9","70774","0.0-9.0","null","<p> Sikeres kapcsolódás!</p>","null","","","","","",""
"html-button-response","10","81289","0.0-10.0","null","<p>A következőkben ketten játsszátok a szóválasztós játékot.</p><p>A feladatotok az lesz, hogy minden körben <b>ugyanazt</b> a szót válasszátok.</p><p>Minden ilyen egyező válaszért pontot kaptok.</p><p>Próbáld meg kitalálni, mit választ a másik játékos!</p><p>Bármikor választhatsz, a körnek akkor van vége, ha mindketten döntöttetek.</p><p>Sok sikert!</p>","null","","","","","",""
"html-button-response-esp","11","88193","0.0-11.0-0.0","6398","Ez itt egy spábét. Ott vagyunk a...","0","spábétban","[""spábétban"",""spábétben""]","spábétben","esp trial","2","false"
"html-button-response","12","91701","0.0-11.0-1.0","null","<p>A másik játékos ezt választotta: <b>spábétben</b>.</p><p>&#10060;</p><p>A válaszaitok <b>nem</b> egyeznek meg.</p>","null","","","","feedback trial","",""
"html-button-response-esp","13","97731","0.0-11.0-0.1","4582","Ez itt egy zihenc. Elneveztem a kutyámat...","1","zihencnek","[""zihencnak"",""zihencnek""]","zihencnak","esp trial","2","false"
"html-button-response","14","101241","0.0-11.0-1.1","null","<p>A másik játékos ezt választotta: <b>zihencnak</b>.</p><p>&#10060;</p><p>A válaszaitok <b>nem</b> egyeznek meg.</p>","null","","","","feedback trial","",""
"html-button-response-esp","15","107259","0.0-11.0-0.2","4369","Ez itt egy klingesz. Ott vagyunk a...","0","klingeszben","[""klingeszben"",""klingeszban""]","klingeszban","esp trial","2","false"
"html-button-response","16","110775","0.0-11.0-1.2","null","<p>A másik játékos ezt választotta: <b>klingeszban</b>.</p><p>&#10060;</p><p>A válaszaitok <b>nem</b> egyeznek meg.</p>","null","","","","feedback trial","",""
"html-button-response-esp","17","119475","0.0-11.0-0.3","8185","Ez itt egy sprivenc. Nincs is jobb egy jó...","0","sprivencnél","[""sprivencnél"",""sprivencnál""]","sprivencnál","esp trial","2","false"
"html-button-response","18","122990","0.0-11.0-1.3","null","<p>A másik játékos ezt választotta: <b>sprivencnál</b>.</p><p>&#10060;</p><p>A válaszaitok <b>nem</b> egyeznek meg.</p>","null","","","","feedback trial","",""
"html-button-response-esp","19","130462","0.0-11.0-0.4","6958","Ez itt egy narem. Ott vagyunk a...","1","naremban","[""naremben"",""naremban""]","naremben","esp trial","2","false"
"html-button-response","20","133981","0.0-11.0-1.4","null","<p>A másik játékos ezt választotta: <b>naremben</b>.</p><p>&#10060;</p><p>A válaszaitok <b>nem</b> egyeznek meg.</p>","null","","","","feedback trial","",""
"html-button-response-esp","21","141467","0.0-11.0-0.5","6986","Ez itt egy rapszek. Nincs is jobb egy jó...","0","rapszeknél","[""rapszeknél"",""rapszeknál""]","rapszeknél","esp trial","2","true"
"html-button-response","22","144977","0.0-11.0-1.5","null","<p>A másik játékos ezt választotta: <b>rapszeknél</b>.</p><p>&#x2705;</p><p>A te válaszod és a másik játékos válasza <b>megegyeznek</b>.</p>","null","","","","feedback trial","",""
"html-button-response-esp","23","151982","0.0-11.0-0.6","6492","Ez itt egy incéj. Elneveztem a kutyámat...","0","incéjnek","[""incéjnek"",""incéjnak""]","incéjnak","esp trial","2","false"
"html-button-response","24","155497","0.0-11.0-1.6","null","<p>A másik játékos ezt választotta: <b>incéjnak</b>.</p><p>&#10060;</p><p>A válaszaitok <b>nem</b> egyeznek meg.</p>","null","","","","feedback trial","",""
"html-button-response-esp","25","162144","0.0-11.0-0.7","6135","Ez itt egy kalhész. Elneveztem a kutyámat...","0","kalhésznak","[""kalhésznak"",""kalhésznek""]","kalhésznek","esp trial","2","false"
"html-button-response","26","165658","0.0-11.0-1.7","null","<p>A másik játékos ezt választotta: <b>kalhésznek</b>.</p><p>&#10060;</p><p>A válaszaitok <b>nem</b> egyeznek meg.</p>","null","","","","feedback trial","",""
"html-button-response-esp","27","171848","0.0-11.0-0.8","5679","Ez itt egy lorzens. Nincs is jobb egy jó...","0","lorzensnál","[""lorzensnál"",""lorzensnél""]","lorzensnél","esp trial","2","false"
"html-button-response","28","175376","0.0-11.0-1.8","null","<p>A másik játékos ezt választotta: <b>lorzensnél</b>.</p><p>&#10060;</p><p>A válaszaitok <b>nem</b> egyeznek meg.</p>","null","","","","feedback trial","",""
"html-button-response-esp","29","181387","0.0-11.0-0.9","4959","Ez itt egy pijél. Nincs is jobb egy jó...","1","pijélnél","[""pijélnál"",""pijélnél""]","pijélnál","esp trial","2","false"
"html-button-response","30","184916","0.0-11.0-1.9","null","<p>A másik játékos ezt választotta: <b>pijélnál</b>.</p><p>&#10060;</p><p>A válaszaitok <b>nem</b> egyeznek meg.</p>","null","","","","feedback trial","",""
"html-button-response-esp","31","191258","0.0-11.0-0.10","5830","Ez itt egy ítens. Ott vagyunk a...","0","ítensban","[""ítensban"",""ítensben""]","ítensben","esp trial","2","false"
"html-button-response","32","194766","0.0-11.0-1.10","null","<p>A másik játékos ezt választotta: <b>ítensben</b>.</p><p>&#10060;</p><p>A válaszaitok <b>nem</b> egyeznek meg.</p>","null","","","","feedback trial","",""
"html-button-response-esp","33","200790","0.0-11.0-0.11","5171","Ez itt egy monveg. Nincs is jobb egy jó...","0","monvegnál","[""monvegnál"",""monvegnél""]","monvegnél","esp trial","2","false"
"html-button-response","34","204316","0.0-11.0-1.11","null","<p>A másik játékos ezt választotta: <b>monvegnél</b>.</p><p>&#10060;</p><p>A válaszaitok <b>nem</b> egyeznek meg.</p>","null","","","","feedback trial","",""
"html-button-response-esp","35","211558","0.0-11.0-0.12","6728","Ez itt egy brindez. Elneveztem a kutyámat...","1","brindeznek","[""brindeznak"",""brindeznek""]","brindeznak","esp trial","2","false"
"html-button-response","36","215080","0.0-11.0-1.12","null","<p>A másik játékos ezt választotta: <b>brindeznak</b>.</p><p>&#10060;</p><p>A válaszaitok <b>nem</b> egyeznek meg.</p>","null","","","","feedback trial","",""
"html-button-response-esp","37","221096","0.0-11.0-0.13","4361","Ez itt egy zsádév. Elneveztem a kutyámat...","0","zsádévnak","[""zsádévnak"",""zsádévnek""]","zsádévnek","esp trial","2","false"
"html-button-response","38","224622","0.0-11.0-1.13","null","<p>A másik játékos ezt választotta: <b>zsádévnek</b>.</p><p>&#10060;</p><p>A válaszaitok <b>nem</b> egyeznek meg.</p>","null","","","","feedback trial","",""
"html-button-response-esp","39","231158","0.0-11.0-0.14","6025","Ez itt egy pítend. Ott vagyunk a...","0","pítendban","[""pítendban"",""pítendben""]","pítendban","esp trial","2","true"
"html-button-response","40","234666","0.0-11.0-1.14","null","<p>A másik játékos ezt választotta: <b>pítendban</b>.</p><p>&#x2705;</p><p>A te válaszod és a másik játékos válasza <b>megegyeznek</b>.</p>","null","","","","feedback trial","",""
"html-button-response-esp","41","240673","0.0-11.0-0.15","4566","Ez itt egy klosét. Elneveztem a kutyámat...","1","klosétnek","[""klosétnak"",""klosétnek""]","klosétnek","esp trial","2","true"
"html-button-response","42","244196","0.0-11.0-1.15","null","<p>A másik játékos ezt választotta: <b>klosétnek</b>.</p><p>&#x2705;</p><p>A te válaszod és a másik játékos válasza <b>megegyeznek</b>.</p>","null","","","","feedback trial","",""
"html-button-response-esp","43","251250","0.0-11.0-0.16","6552","Ez itt egy luméz. Ott vagyunk a...","0","lumézban","[""lumézban"",""lumézben""]","lumézben","esp trial","2","false"
"html-button-response","44","254763","0.0-11.0-1.16","null","<p>A másik játékos ezt választotta: <b>lumézben</b>.</p><p>&#10060;</p><p>A válaszaitok <b>nem</b> egyeznek meg.</p>","null","","","","feedback trial","",""
"html-button-response-esp","45","261943","0.0-11.0-0.17","6678","Ez itt egy dorzéj. Elneveztem a kutyámat...","1","dorzéjnak","[""dorzéjnek"",""dorzéjnak""]","dorzéjnek","esp trial","2","false"
"html-button-response","46","265455","0.0-11.0-1.17","null","<p>A másik játékos ezt választotta: <b>dorzéjnek</b>.</p><p>&#10060;</p><p>A válaszaitok <b>nem</b> egyeznek meg.</p>","null","","","","feedback trial","",""
"html-button-response-esp","47","271484","0.0-11.0-0.18","5129","Ez itt egy fájéz. Ott vagyunk a...","1","fájézben","[""fájézban"",""fájézben""]","fájézben","esp trial","2","true"
"html-button-response","48","274999","0.0-11.0-1.18","null","<p>A másik játékos ezt választotta: <b>fájézben</b>.</p><p>&#x2705;</p><p>A te válaszod és a másik játékos válasza <b>megegyeznek</b>.</p>","null","","","","feedback trial","",""
"html-button-response-esp","49","281021","0.0-11.0-0.19","5301","Ez itt egy nyamet. Ott vagyunk a...","1","nyametban","[""nyametben"",""nyametban""]","nyametben","esp trial","2","false"
"html-button-response","50","284547","0.0-11.0-1.19","null","<p>A másik játékos ezt választotta: <b>nyametben</b>.</p><p>&#10060;</p><p>A válaszaitok <b>nem</b> egyeznek meg.</p>","null","","","","feedback trial","",""
"html-button-response-esp","51","292333","0.0-11.0-0.20","7272","Ez itt egy zsáder. Ott vagyunk a...","1","zsáderban","[""zsáderben"",""zsáderban""]","zsáderben","esp trial","2","false"
"html-button-response","52","295844","0.0-11.0-1.20","null","<p>A másik játékos ezt választotta: <b>zsáderben</b>.</p><p>&#10060;</p><p>A válaszaitok <b>nem</b> egyeznek meg.</p>","null","","","","feedback trial","",""
"html-button-response-esp","53","302918","0.0-11.0-0.21","6572","Ez itt egy dalenc. Nincs is jobb egy jó...","1","dalencnál","[""dalencnél"",""dalencnál""]","dalencnél","esp trial","2","false"
"html-button-response","54","306429","0.0-11.0-1.21","null","<p>A másik játékos ezt választotta: <b>dalencnél</b>.</p><p>&#10060;</p><p>A válaszaitok <b>nem</b> egyeznek meg.</p>","null","","","","feedback trial","",""
"html-button-response-esp","55","314052","0.0-11.0-0.22","7122","Ez itt egy pisély. Ott vagyunk a...","1","pisélyban","[""pisélyben"",""pisélyban""]","pisélyban","esp trial","2","true"
"html-button-response","56","317576","0.0-11.0-1.22","null","<p>A másik játékos ezt választotta: <b>pisélyban</b>.</p><p>&#x2705;</p><p>A te válaszod és a másik játékos válasza <b>megegyeznek</b>.</p>","null","","","","feedback trial","",""
"html-button-response-esp","57","324740","0.0-11.0-0.23","6662","Ez itt egy ronszek. Ott vagyunk a...","1","ronszekban","[""ronszekben"",""ronszekban""]","ronszekben","esp trial","2","false"
"html-button-response","58","328264","0.0-11.0-1.23","null","<p>A másik játékos ezt választotta: <b>ronszekben</b>.</p><p>&#10060;</p><p>A válaszaitok <b>nem</b> egyeznek meg.</p>","null","","","","feedback trial","",""
"html-button-response-esp","59","337535","0.0-11.0-0.24","8757","Ez itt egy zsigén. Nincs is jobb egy jó...","0","zsigénnél","[""zsigénnél"",""zsigénnál""]","zsigénnál","esp trial","2","false"
"html-button-response","60","341053","0.0-11.0-1.24","null","<p>A másik játékos ezt választotta: <b>zsigénnál</b>.</p><p>&#10060;</p><p>A válaszaitok <b>nem</b> egyeznek meg.</p>","null","","","","feedback trial","",""
"html-button-response-esp","61","348044","0.0-11.0-0.25","6476","Ez itt egy danét. Nincs is jobb egy jó...","1","danétnél","[""danétnál"",""danétnél""]","danétnél","esp trial","2","true"
"html-button-response","62","351551","0.0-11.0-1.25","null","<p>A másik játékos ezt választotta: <b>danétnél</b>.</p><p>&#x2705;</p><p>A te válaszod és a másik játékos válasza <b>megegyeznek</b>.</p>","null","","","","feedback trial","",""
"html-button-response-esp","63","358838","0.0-11.0-0.26","6773","Ez itt egy tosély. Ott vagyunk a...","0","tosélyben","[""tosélyben"",""tosélyban""]","tosélyben","esp trial","2","true"
"html-button-response","64","362350","0.0-11.0-1.26","null","<p>A másik játékos ezt választotta: <b>tosélyben</b>.</p><p>&#x2705;</p><p>A te válaszod és a másik játékos válasza <b>megegyeznek</b>.</p>","null","","","","feedback trial","",""
"html-button-response-esp","65","370573","0.0-11.0-0.27","7722","Ez itt egy darhén. Ott vagyunk a...","1","darhénben","[""darhénban"",""darhénben""]","darhénben","esp trial","2","true"
"html-button-response","66","374095","0.0-11.0-1.27","null","<p>A másik játékos ezt választotta: <b>darhénben</b>.</p><p>&#x2705;</p><p>A te válaszod és a másik játékos válasza <b>megegyeznek</b>.</p>","null","","","","feedback trial","",""
"html-button-response-esp","67","381615","0.0-11.0-0.28","7006","Ez itt egy bralkép. Ott vagyunk a...","0","bralképben","[""bralképben"",""bralképban""]","bralképben","esp trial","2","true"
"html-button-response","68","385146","0.0-11.0-1.28","null","<p>A másik játékos ezt választotta: <b>bralképben</b>.</p><p>&#x2705;</p><p>A te válaszod és a másik játékos válasza <b>megegyeznek</b>.</p>","null","","","","feedback trial","",""
"html-button-response-esp","69","392482","0.0-11.0-0.29","6826","Ez itt egy dábegy. Ott vagyunk a...","0","dábegyben","[""dábegyben"",""dábegyban""]","dábegyben","esp trial","2","true"
"html-button-response","70","395991","0.0-11.0-1.29","null","<p>A másik játékos ezt választotta: <b>dábegyben</b>.</p><p>&#x2705;</p><p>A te válaszod és a másik játékos válasza <b>megegyeznek</b>.</p>","null","","","","feedback trial","",""
"html-button-response-esp","71","403419","0.0-11.0-0.30","6924","Ez itt egy nyupér. Nincs is jobb egy jó...","1","nyupérnél","[""nyupérnál"",""nyupérnél""]","nyupérnél","esp trial","2","true"
"html-button-response","72","406932","0.0-11.0-1.30","null","<p>A másik játékos ezt választotta: <b>nyupérnél</b>.</p><p>&#x2705;</p><p>A te válaszod és a másik játékos válasza <b>megegyeznek</b>.</p>","null","","","","feedback trial","",""
"html-button-response-esp","73","414016","0.0-11.0-0.31","6580","Ez itt egy zopély. Nincs is jobb egy jó...","1","zopélynél","[""zopélynál"",""zopélynél""]","zopélynél","esp trial","2","true"
"html-button-response","74","417527","0.0-11.0-1.31","null","<p>A másik játékos ezt választotta: <b>zopélynél</b>.</p><p>&#x2705;</p><p>A te válaszod és a másik játékos válasza <b>megegyeznek</b>.</p>","null","","","","feedback trial","",""
"html-button-response-esp","75","425595","0.0-11.0-0.32","7553","Ez itt egy gúden. Ott vagyunk a...","0","gúdenben","[""gúdenben"",""gúdenban""]","gúdenban","esp trial","2","false"
"html-button-response","76","429118","0.0-11.0-1.32","null","<p>A másik játékos ezt választotta: <b>gúdenban</b>.</p><p>&#10060;</p><p>A válaszaitok <b>nem</b> egyeznek meg.</p>","null","","","","feedback trial","",""
"html-button-response-esp","77","436353","0.0-11.0-0.33","6720","Ez itt egy jukél. Nincs is jobb egy jó...","1","jukélnél","[""jukélnál"",""jukélnél""]","jukélnél","esp trial","2","true"
"html-button-response","78","439863","0.0-11.0-1.33","null","<p>A másik játékos ezt választotta: <b>jukélnél</b>.</p><p>&#x2705;</p><p>A te válaszod és a másik játékos válasza <b>megegyeznek</b>.</p>","null","","","","feedback trial","",""
"html-button-response-esp","79","446808","0.0-11.0-0.34","6430","Ez itt egy bupéz. Ott vagyunk a...","0","bupézben","[""bupézben"",""bupézban""]","bupézben","esp trial","2","true"
"html-button-response","80","450322","0.0-11.0-1.34","null","<p>A másik játékos ezt választotta: <b>bupézben</b>.</p><p>&#x2705;</p><p>A te válaszod és a másik játékos válasza <b>megegyeznek</b>.</p>","null","","","","feedback trial","",""
"html-button-response-esp","81","459439","0.0-11.0-0.35","8616","Ez itt egy nyítem. Ott vagyunk a...","1","nyítemben","[""nyítemban"",""nyítemben""]","nyítemban","esp trial","2","false"
"html-button-response","82","462967","0.0-11.0-1.35","null","<p>A másik játékos ezt választotta: <b>nyítemban</b>.</p><p>&#10060;</p><p>A válaszaitok <b>nem</b> egyeznek meg.</p>","null","","","","feedback trial","",""
"html-button-response-esp","83","470180","0.0-11.0-0.36","6700","Ez itt egy zsúdel. Elneveztem a kutyámat...","1","zsúdelnek","[""zsúdelnak"",""zsúdelnek""]","zsúdelnek","esp trial","2","true"
"html-button-response","84","473701","0.0-11.0-1.36","null","<p>A másik játékos ezt választotta: <b>zsúdelnek</b>.</p><p>&#x2705;</p><p>A te válaszod és a másik játékos válasza <b>megegyeznek</b>.</p>","null","","","","feedback trial","",""
"html-button-response-esp","85","480670","0.0-11.0-0.37","6467","Ez itt egy spumény. Elneveztem a kutyámat...","1","spuménynek","[""spuménynak"",""spuménynek""]","spuménynek","esp trial","2","true"
"html-button-response","86","484186","0.0-11.0-1.37","null","<p>A másik játékos ezt választotta: <b>spuménynek</b>.</p><p>&#x2705;</p><p>A te válaszod és a másik játékos válasza <b>megegyeznek</b>.</p>","null","","","","feedback trial","",""
"html-button-response-esp","87","491338","0.0-11.0-0.38","6637","Ez itt egy vorszen. Nincs is jobb egy jó...","1","vorszennél","[""vorszennál"",""vorszennél""]","vorszennél","esp trial","2","true"
"html-button-response","88","494847","0.0-11.0-1.38","null","<p>A másik játékos ezt választotta: <b>vorszennél</b>.</p><p>&#x2705;</p><p>A te válaszod és a másik játékos válasza <b>megegyeznek</b>.</p>","null","","","","feedback trial","",""
"html-button-response-esp","89","502175","0.0-11.0-0.39","6814","Ez itt egy garcép. Nincs is jobb egy jó...","0","garcépnél","[""garcépnél"",""garcépnál""]","garcépnél","esp trial","2","true"
"html-button-response","90","505689","0.0-11.0-1.39","null","<p>A másik játékos ezt választotta: <b>garcépnél</b>.</p><p>&#x2705;</p><p>A te válaszod és a másik játékos válasza <b>megegyeznek</b>.</p>","null","","","","feedback trial","",""
"html-button-response-esp","91","512839","0.0-11.0-0.40","6638","Ez itt egy braszenc. Nincs is jobb egy jó...","0","braszencnél","[""braszencnél"",""braszencnál""]","braszencnél","esp trial","2","true"
"html-button-response","92","516356","0.0-11.0-1.40","null","<p>A másik játékos ezt választotta: <b>braszencnél</b>.</p><p>&#x2705;</p><p>A te válaszod és a másik játékos válasza <b>megegyeznek</b>.</p>","null","","","","feedback trial","",""
"html-button-response-esp","93","523435","0.0-11.0-0.41","6573","Ez itt egy trismél. Elneveztem a kutyámat...","0","trismélnek","[""trismélnek"",""trismélnak""]","trismélnak","esp trial","2","false"
"html-button-response","94","526958","0.0-11.0-1.41","null","<p>A másik játékos ezt választotta: <b>trismélnak</b>.</p><p>&#10060;</p><p>A válaszaitok <b>nem</b> egyeznek meg.</p>","null","","","","feedback trial","",""
"html-button-response-esp","95","533956","0.0-11.0-0.42","6482","Ez itt egy jóbec. Elneveztem a kutyámat...","1","jóbecnek","[""jóbecnak"",""jóbecnek""]","jóbecnek","esp trial","2","true"
"html-button-response","96","537467","0.0-11.0-1.42","null","<p>A másik játékos ezt választotta: <b>jóbecnek</b>.</p><p>&#x2705;</p><p>A te válaszod és a másik játékos válasza <b>megegyeznek</b>.</p>","null","","","","feedback trial","",""
"html-button-response-esp","97","544363","0.0-11.0-0.43","6384","Ez itt egy kátel. Elneveztem a kutyámat...","1","kátelnek","[""kátelnak"",""kátelnek""]","kátelnek","esp trial","2","true"
"html-button-response","98","547880","0.0-11.0-1.43","null","<p>A másik játékos ezt választotta: <b>kátelnek</b>.</p><p>&#x2705;</p><p>A te válaszod és a másik játékos válasza <b>megegyeznek</b>.</p>","null","","","","feedback trial","",""
"html-button-response-esp","99","555802","0.0-11.0-0.44","7406","Ez itt egy hágyét. Elneveztem a kutyámat...","1","hágyétnek","[""hágyétnak"",""hágyétnek""]","hágyétnek","esp trial","2","true"
"html-button-response","100","559330","0.0-11.0-1.44","null","<p>A másik játékos ezt választotta: <b>hágyétnek</b>.</p><p>&#x2705;</p><p>A te válaszod és a másik játékos válasza <b>megegyeznek</b>.</p>","null","","","","feedback trial","",""
"html-button-response-esp","101","566522","0.0-11.0-0.45","6678","Ez itt egy dihely. Elneveztem a kutyámat...","0","dihelynek","[""dihelynek"",""dihelynak""]","dihelynak","esp trial","2","false"
"html-button-response","102","570031","0.0-11.0-1.45","null","<p>A másik játékos ezt választotta: <b>dihelynak</b>.</p><p>&#10060;</p><p>A válaszaitok <b>nem</b> egyeznek meg.</p>","null","","","","feedback trial","",""
"html-button-response-esp","103","577414","0.0-11.0-0.46","6881","Ez itt egy pivéd. Ott vagyunk a...","0","pivédben","[""pivédben"",""pivédban""]","pivédben","esp trial","2","true"
"html-button-response","104","580934","0.0-11.0-1.46","null","<p>A másik játékos ezt választotta: <b>pivédben</b>.</p><p>&#x2705;</p><p>A te válaszod és a másik játékos válasza <b>megegyeznek</b>.</p>","null","","","","feedback trial","",""
"html-button-response-esp","105","587071","0.0-11.0-0.47","5636","Ez itt egy spicet. Elneveztem a kutyámat...","0","spicetnek","[""spicetnek"",""spicetnak""]","spicetnak","esp trial","2","false"
"html-button-response","106","590592","0.0-11.0-1.47","null","<p>A másik játékos ezt választotta: <b>spicetnak</b>.</p><p>&#10060;</p><p>A válaszaitok <b>nem</b> egyeznek meg.</p>","null","","","","feedback trial","",""
"html-button-response-esp","107","597495","0.0-11.0-0.48","6401","Ez itt egy kaszép. Elneveztem a kutyámat...","0","kaszépnek","[""kaszépnek"",""kaszépnak""]","kaszépnek","esp trial","2","true"
"html-button-response","108","601022","0.0-11.0-1.48","null","<p>A másik játékos ezt választotta: <b>kaszépnek</b>.</p><p>&#x2705;</p><p>A te válaszod és a másik játékos válasza <b>megegyeznek</b>.</p>","null","","","","feedback trial","",""
"html-button-response-esp","109","608032","0.0-11.0-0.49","6509","Ez itt egy priszec. Ott vagyunk a...","0","priszecben","[""priszecben"",""priszecban""]","priszecban","esp trial","2","false"
"html-button-response","110","611555","0.0-11.0-1.49","null","<p>A másik játékos ezt választotta: <b>priszecban</b>.</p><p>&#10060;</p><p>A válaszaitok <b>nem</b> egyeznek meg.</p>","null","","","","feedback trial","",""
"html-button-response-esp","111","619089","0.0-11.0-0.50","7022","Ez itt egy trájeg. Ott vagyunk a...","1","trájegben","[""trájegban"",""trájegben""]","trájegben","esp trial","2","true"
"html-button-response","112","622618","0.0-11.0-1.50","null","<p>A másik játékos ezt választotta: <b>trájegben</b>.</p><p>&#x2705;</p><p>A te válaszod és a másik játékos válasza <b>megegyeznek</b>.</p>","null","","","","feedback trial","",""
"html-button-response-esp","113","628819","0.0-11.0-0.51","5689","Ez itt egy spanél. Nincs is jobb egy jó...","0","spanélnál","[""spanélnál"",""spanélnél""]","spanélnél","esp trial","2","false"
"html-button-response","114","632331","0.0-11.0-1.51","null","<p>A másik játékos ezt választotta: <b>spanélnél</b>.</p><p>&#10060;</p><p>A válaszaitok <b>nem</b> egyeznek meg.</p>","null","","","","feedback trial","",""
"html-button-response-esp","115","639189","0.0-11.0-0.52","6356","Ez itt egy sortem. Nincs is jobb egy jó...","1","sortemnél","[""sortemnál"",""sortemnél""]","sortemnél","esp trial","2","true"
"html-button-response","116","642716","0.0-11.0-1.52","null","<p>A másik játékos ezt választotta: <b>sortemnél</b>.</p><p>&#x2705;</p><p>A te válaszod és a másik játékos válasza <b>megegyeznek</b>.</p>","null","","","","feedback trial","",""
"html-button-response-esp","117","651042","0.0-11.0-0.53","7813","Ez itt egy kalréz. Ott vagyunk a...","1","kalrézben","[""kalrézban"",""kalrézben""]","kalrézben","esp trial","2","true"
"html-button-response","118","654562","0.0-11.0-1.53","null","<p>A másik játékos ezt választotta: <b>kalrézben</b>.</p><p>&#x2705;</p><p>A te válaszod és a másik játékos válasza <b>megegyeznek</b>.</p>","null","","","","feedback trial","",""
"html-button-response","119","666765","0.0-12.0","11691","<p>A közös játék most véget ért.</p><p>Mielőtt eláruljuk a végső pontszámodat, arra kérlek, játszd a szóválasztós játékot néhány percig egyedül is.</p><p>A feladatod ugyanaz lesz, választani két lehetőség közül.</p><p>Most viszont egyedül kell döntened, hogy te melyiket választanád.</p>","0","","","","","",""
"html-button-response-clever","120","671979","0.0-13.0-0.0","4696","Ez itt egy zarcég. Nincs is jobb egy jó...","0","zarcégnél","[""zarcégnél"",""zarcégnál""]","","posttest trial","4",""
"html-button-response-clever","121","677885","0.0-13.0-0.1","5398","Ez itt egy lingék. Nincs is jobb egy jó...","1","lingéknél","[""lingéknál"",""lingéknél""]","","posttest trial","4",""
"html-button-response-clever","122","682737","0.0-13.0-0.2","4346","Ez itt egy hijegy. Nincs is jobb egy jó...","1","hijegynél","[""hijegynál"",""hijegynél""]","","posttest trial","4",""
"html-button-response-clever","123","686769","0.0-13.0-0.3","3517","Ez itt egy lihény. Elneveztem a kutyámat...","0","lihénynek","[""lihénynek"",""lihénynak""]","","posttest trial","4",""
"html-button-response-clever","124","691211","0.0-13.0-0.4","3926","Ez itt egy vismer. Nincs is jobb egy jó...","0","vismernél","[""vismernél"",""vismernál""]","","posttest trial","4",""
"html-button-response-clever","125","695814","0.0-13.0-0.5","4090","Ez itt egy bingéj. Elneveztem a kutyámat...","0","bingéjnek","[""bingéjnek"",""bingéjnak""]","","posttest trial","4",""
"html-button-response-clever","126","705483","0.0-13.0-0.6","9160","Ez itt egy csublény. Ott vagyunk a...","0","csublényben","[""csublényben"",""csublényban""]","","posttest trial","4",""
"html-button-response-clever","127","709662","0.0-13.0-0.7","3675","Ez itt egy nuhét. Nincs is jobb egy jó...","0","nuhétnél","[""nuhétnél"",""nuhétnál""]","","posttest trial","4",""
"html-button-response-clever","128","715644","0.0-13.0-0.8","5471","Ez itt egy jurdent. Nincs is jobb egy jó...","0","jurdentnál","[""jurdentnál"",""jurdentnél""]","","posttest trial","4",""
"html-button-response-clever","129","720892","0.0-13.0-0.9","4745","Ez itt egy dinelt. Ott vagyunk a...","0","dineltben","[""dineltben"",""dineltban""]","","posttest trial","4",""
"html-button-response-clever","130","725081","0.0-13.0-0.10","3683","Ez itt egy vodec. Nincs is jobb egy jó...","0","vodecnél","[""vodecnél"",""vodecnál""]","","posttest trial","4",""
"html-button-response-clever","131","731115","0.0-13.0-0.11","5523","Ez itt egy surnegy. Nincs is jobb egy jó...","1","surnegynél","[""surnegynál"",""surnegynél""]","","posttest trial","4",""
"html-button-response-clever","132","737288","0.0-13.0-0.12","5658","Ez itt egy zatéj. Nincs is jobb egy jó...","0","zatéjnál","[""zatéjnál"",""zatéjnél""]","","posttest trial","4",""
"html-button-response-clever","133","741789","0.0-13.0-0.13","3991","Ez itt egy humék. Elneveztem a kutyámat...","0","huméknek","[""huméknek"",""huméknak""]","","posttest trial","4",""
"html-button-response-clever","134","747016","0.0-13.0-0.14","4719","Ez itt egy fágyép. Nincs is jobb egy jó...","0","fágyépnél","[""fágyépnél"",""fágyépnál""]","","posttest trial","4",""
"html-button-response-clever","135","755521","0.0-13.0-0.15","7988","Ez itt egy zined. Elneveztem a kutyámat...","1","zinednek","[""zinednak"",""zinednek""]","","posttest trial","4",""
"html-button-response-clever","136","759657","0.0-13.0-0.16","3634","Ez itt egy csodeg. Nincs is jobb egy jó...","0","csodegnél","[""csodegnél"",""csodegnál""]","","posttest trial","4",""
"html-button-response-clever","137","764587","0.0-13.0-0.17","4418","Ez itt egy lijez. Elneveztem a kutyámat...","0","lijeznek","[""lijeznek"",""lijeznak""]","","posttest trial","4",""
"html-button-response-clever","138","769855","0.0-13.0-0.18","4760","Ez itt egy cságyelt. Ott vagyunk a...","0","cságyeltben","[""cságyeltben"",""cságyeltban""]","","posttest trial","4",""
"html-button-response-clever","139","777911","0.0-13.0-0.19","7552","Ez itt egy trodély. Ott vagyunk a...","0","trodélyban","[""trodélyban"",""trodélyben""]","","posttest trial","4",""
"html-button-response-clever","140","782392","0.0-13.0-0.20","3979","Ez itt egy pazév. Nincs is jobb egy jó...","0","pazévnél","[""pazévnél"",""pazévnál""]","","posttest trial","4",""
"html-button-response-clever","141","786616","0.0-13.0-0.21","3708","Ez itt egy klazér. Ott vagyunk a...","0","klazérben","[""klazérben"",""klazérban""]","","posttest trial","4",""
"html-button-response-clever","142","790954","0.0-13.0-0.22","3831","Ez itt egy hosét. Elneveztem a kutyámat...","0","hosétnak","[""hosétnak"",""hosétnek""]","","posttest trial","4",""
"html-button-response-clever","143","797996","0.0-13.0-0.23","6540","Ez itt egy dibez. Ott vagyunk a...","1","dibezben","[""dibezban"",""dibezben""]","","posttest trial","4",""
"html-button-response-clever","144","802663","0.0-13.0-0.24","4150","Ez itt egy tivenc. Ott vagyunk a...","0","tivencben","[""tivencben"",""tivencban""]","","posttest trial","4",""
"html-button-response-clever","145","806758","0.0-13.0-0.25","3588","Ez itt egy tumély. Nincs is jobb egy jó...","1","tumélynél","[""tumélynál"",""tumélynél""]","","posttest trial","4",""
"html-button-response-clever","146","811365","0.0-13.0-0.26","4099","Ez itt egy jutély. Nincs is jobb egy jó...","1","jutélynél","[""jutélynál"",""jutélynél""]","","posttest trial","4",""
"html-button-response-clever","147","817834","0.0-13.0-0.27","5964","Ez itt egy spatel. Elneveztem a kutyámat...","1","spatelnek","[""spatelnak"",""spatelnek""]","","posttest trial","4",""
"html-button-response-clever","148","822378","0.0-13.0-0.28","4042","Ez itt egy klajrén. Elneveztem a kutyámat...","1","klajrénnak","[""klajrénnek"",""klajrénnak""]","","posttest trial","4",""
"html-button-response-clever","149","827367","0.0-13.0-0.29","4483","Ez itt egy dajrens. Nincs is jobb egy jó...","0","dajrensnél","[""dajrensnél"",""dajrensnál""]","","posttest trial","4",""
"html-button-response-clever","150","833718","0.0-13.0-0.30","5839","Ez itt egy mádép. Nincs is jobb egy jó...","0","mádépnál","[""mádépnál"",""mádépnél""]","","posttest trial","4",""
"html-button-response-clever","151","838893","0.0-13.0-0.31","4673","Ez itt egy kátéd. Nincs is jobb egy jó...","1","kátédnál","[""kátédnél"",""kátédnál""]","","posttest trial","4",""
"html-button-response-clever","152","843386","0.0-13.0-0.32","3986","Ez itt egy zuten. Nincs is jobb egy jó...","1","zutennél","[""zutennál"",""zutennél""]","","posttest trial","4",""
"html-button-response-clever","153","848499","0.0-13.0-0.33","4607","Ez itt egy fizend. Ott vagyunk a...","0","fizendben","[""fizendben"",""fizendban""]","","posttest trial","4",""
"html-button-response-clever","154","853559","0.0-13.0-0.34","4555","Ez itt egy murdes. Nincs is jobb egy jó...","0","murdesnél","[""murdesnél"",""murdesnál""]","","posttest trial","4",""
"html-button-response-clever","155","860069","0.0-13.0-0.35","6004","Ez itt egy klítegy. Nincs is jobb egy jó...","1","klítegynél","[""klítegynál"",""klítegynél""]","","posttest trial","4",""
"html-button-response-clever","156","864519","0.0-13.0-0.36","3947","Ez itt egy vurnel. Elneveztem a kutyámat...","0","vurnelnek","[""vurnelnek"",""vurnelnak""]","","posttest trial","4",""
"html-button-response-clever","157","869989","0.0-13.0-0.37","4966","Ez itt egy zsalrén. Elneveztem a kutyámat...","0","zsalrénnak","[""zsalrénnak"",""zsalrénnek""]","","posttest trial","4",""
"html-button-response-clever","158","875876","0.0-13.0-0.38","5385","Ez itt egy trikép. Ott vagyunk a...","0","triképben","[""triképben"",""triképban""]","","posttest trial","4",""
"html-button-response-clever","159","880988","0.0-13.0-0.39","4597","Ez itt egy fojlegy. Elneveztem a kutyámat...","0","fojlegynak","[""fojlegynak"",""fojlegynek""]","","posttest trial","4",""
"html-button-response-clever","160","885420","0.0-13.0-0.40","3926","Ez itt egy fupét. Nincs is jobb egy jó...","0","fupétnél","[""fupétnél"",""fupétnál""]","","posttest trial","4",""
"html-button-response-clever","161","890054","0.0-13.0-0.41","4120","Ez itt egy szanéj. Elneveztem a kutyámat...","0","szanéjnak","[""szanéjnak"",""szanéjnek""]","","posttest trial","4",""
"html-button-response-clever","162","901670","0.0-13.0-0.42","11113","Ez itt egy pristél. Ott vagyunk a...","1","pristélben","[""pristélban"",""pristélben""]","","posttest trial","4",""
"html-button-response-clever","163","905742","0.0-13.0-0.43","3568","Ez itt egy zábény. Elneveztem a kutyámat...","0","zábénynek","[""zábénynek"",""zábénynak""]","","posttest trial","4",""
"html-button-response-clever","164","909265","0.0-13.0-0.44","3019","Ez itt egy spizec. Elneveztem a kutyámat...","0","spizecnek","[""spizecnek"",""spizecnak""]","","posttest trial","4",""
"html-button-response-clever","165","913084","0.0-13.0-0.45","3309","Ez itt egy briskéd. Nincs is jobb egy jó...","1","briskédnél","[""briskédnál"",""briskédnél""]","","posttest trial","4",""
"html-button-response-clever","166","919983","0.0-13.0-0.46","6395","Ez itt egy tarhéz. Ott vagyunk a...","1","tarhézban","[""tarhézben"",""tarhézban""]","","posttest trial","4",""
"html-button-response-clever","167","924485","0.0-13.0-0.47","3989","Ez itt egy dunkész. Ott vagyunk a...","0","dunkészban","[""dunkészban"",""dunkészben""]","","posttest trial","4",""
"html-button-response-clever","168","928877","0.0-13.0-0.48","3880","Ez itt egy spivél. Elneveztem a kutyámat...","1","spivélnek","[""spivélnak"",""spivélnek""]","","posttest trial","4",""
"html-button-response-clever","169","933871","0.0-13.0-0.49","4482","Ez itt egy dóbem. Elneveztem a kutyámat...","0","dóbemnek","[""dóbemnek"",""dóbemnak""]","","posttest trial","4",""
"html-button-response-clever","170","937651","0.0-13.0-0.50","3271","Ez itt egy szibed. Ott vagyunk a...","0","szibedben","[""szibedben"",""szibedban""]","","posttest trial","4",""
"html-button-response-clever","171","944519","0.0-13.0-0.51","6365","Ez itt egy gábéd. Nincs is jobb egy jó...","0","gábédnél","[""gábédnél"",""gábédnál""]","","posttest trial","4",""
"html-button-response-clever","172","948850","0.0-13.0-0.52","3828","Ez itt egy sihen. Nincs is jobb egy jó...","1","sihennél","[""sihennál"",""sihennél""]","","posttest trial","4",""
"html-button-response-clever","173","952353","0.0-13.0-0.53","2994","Ez itt egy dutec. Nincs is jobb egy jó...","1","dutecnél","[""dutecnál"",""dutecnél""]","","posttest trial","4",""
"html-button-response","174","964066","0.0-14.0","11201","<p> Vége a játéknak. A teljes pontszámod 27/54.</p><p> Szép munka! &#128526;&#128526;&#128526;</p><p>A Befejezés gomb megnyomása után bezárhatod a böngészőablakot.</p>","0","","","","","",""
"html-keyboard-response","175","969581","0.0-15.0","null","<div class=""message"">
         <p>Egy kis türelmet kérünk, amíg elmentjük az adatokat...</p>
         </div>","null","","","","","",""
