"trial_type","trial_index","time_elapsed","internal_node_id","rt","stimulus","response","response_string","choices","esp_response","trial_kind","list_number","esp_match"
"pavlovia","0","701","0.0-0.0","","","","","","","","",""
"html-button-response","1","30678","0.0-1.0","29063","<p>Kedves Résztvevő! A Budapesti Műszaki és Gazdaságtudományi Egyetem Kognitív Tudományi Tanszékének kutatásában való részvételed kérjük. A kutatásban azt vizsgáljuk, hogy a magyar anyanyelvűek hogyan használnak bizonyos szóalakokat, és hogy milyen képük van arról, hogy mások hogyan használják, hogyan képzik a szavakat. Ez hozzásegít bennünket ahhoz, hogy jobban megértsük, hogyan dolgozza fel és tárolja a nyelvet az emberi agy, és hogyan működnek, hogyan változnak egy adott közösség nyelvi konvenciói.</p><p>A vizsgálat egy rövid számítógépes feladatból fog állni. A kutatásban való részvétel önkéntes, a részvételi szándék bármikor visszavonható. A résztvevők eredményeit név nélkül kezeljük, így nem beazonosíthatók az adatok feldolgozása során. Minden személyes adatot az EU általános adatvédelmi rendeletének (GDPR) megfelelően kezelünk és legfeljebb öt éven belül megsemmisítünk. A vizsgálat jellemzően húsz percet vesz igénybe.</p><p>Kutatásvezető:</p><p>Dr. Rácz Péter, tudományos munkatárs, BME KTT</p><p>e-mail: racz.peter.marton@ttk.bme.hu</p>","0","","","","","",""
"html-button-response","2","72396","0.0-2.0","41205","<p>A kísérletben szavakat fogsz látni. Ezek között lesznek olyanok, amelyeket ismersz, de előfordulhatnak olyanok is, amelyeket nem ismersz, sőt, vannak köztük kitalált szavak is. Minden szónál látni fogsz toldalékolt alakokat. A te feladatod az lesz, hogy minden szóhoz kiválaszd azt a toldalékolt alakot, amely a te számodra ismerősebben, természetesebben hangzik. Rossz válaszok nincsenek, mert van olyan, hogy különböző embereknek más és más szó tűnik jobb választásnak. A választ úgy tudod majd kiválasztani, ha rákattintasz.</p><p>Ebben a szóválasztós játékban egy másik játékossal együtt veszel majd részt. A másik játékos is minden esetben azok közül a lehetőségek közül válogathat, mint te. Kettőtök feladata az, hogy ugyanazt a lehetőséget válasszátok minden esetben. Ahhoz, hogy ez sikerüljön, neked figyelned kell arra, hogy a másik játékos milyen válaszokat ad, és ennek alapján meg kell tippelned, hogyan választ legközelebb. Ha eltalálod, akkor pontot kapsz.</p>","0","","","","","",""
"html-button-response","3","102191","0.0-3.0","29292","<p>Kérjük, olvasd el az alábbi nyilatkozatot, és amennyiben egyetértesz vele, nyomj a Beleegyezés gombra!</p><p>Kijelentem, hogy magyar anyanyelvű személyként önként veszek részt a BME KTT kísérletében. A kutatás céljával és folyamatával kapcsolatban elegendő tájékoztatást kaptam, lehetőségem volt kérdések feltételére, és esetleges kérdéseimre megfelelő válaszokat kaptam. A tájékoztatás alapján elegendő mennyiségű információ áll a rendelkezésemre, hogy eldönthessem, részt kívánok-e venni a kutatásban.</p><p>Tisztában vagyok vele, hogy részvételi szándékomat és adataimat bármikor, indoklás nélkül visszavonhatom.</p><p>Értem és tudomásul veszem, hogy a kutatás tudományos célokat szolgál, és az általam szolgáltatott adatokat a BME kizárólag kutatási célból használja fel. Tudomásul veszem, hogy eredményeimet a többi résztvevő eredményeivel együtt kezelik, így egyéni teljesítményemről visszajelzést, szakvéleményt nem kapok.</p><p>Megértettem, hogy adataim kezelését illetően a BME az EU általános adatvédelmi rendelete (GDPR), a hatályos adatvédelmi törvény és a nemzetközi kutatás-etikai alapelvek szerint jár el. Eredményeim anonim módon kerülnek feldolgozásra, és a kutatás résztvevői az azonosításomra alkalmas adataimat harmadik félnek nem szolgáltatják ki. Engedélyezem a BME számára a jelen kutatásban felvett adataim feldolgozását és tárolását, beleértve azok későbbi kutatásokhoz való felhasználását is. Személyes adataim kezelésével kapcsolatban tájékoztatást kérhetek a kutatás résztvevőitől, az adatkezelés ellen tiltakozhatok, kérhetem személyes adataim helyesbítését, törlését vagy zárolását, valamint jogorvoslatért a Nemzeti Adatvédelmi és Információszabadság Hatósághoz fordulhatok.</p><p>Kijelentem, hogy a kutatásban való részvételem körülményeiről részletes tájékoztatást kaptam, és a feltételeket elfogadom.</p>","0","","","","","",""
"survey-text","4","158218","0.0-4.0","55501","","{""Q0"":""BRQ3X1"",""Q1"":""férfi"",""Q2"":""2000"",""Q3"":""15""}","","","","","",""
"html-button-response","5","171633","0.0-5.0","12895","<p>Ebben a játékban szavakat kell toldalékolni.</p> <p>Minden körben mutatunk majd egy példamondatot, amiben lesz egy szó.</p> <p>Alatta jön egy második mondat, ezt a mondatot neked kell majd befejezni, ugyanezzel a szóval.</p> <p>Nem biztos, hogy a szó eleve ismerős lesz számodra!</p> <p>Minden mondathoz adunk két lehetőséget, ezeket balra és jobbra látod majd.</p> <p>A játék kb. negyedóráig-húsz percig tart.</p>","0","","","","","",""
"html-button-response","6","234120","0.0-6.0","61979","<p>Nézzünk egy példát!</p> <p>A példamondat: ""János nagyon szeret rancsúrozni.""</p><p>Neked ezt a mondatot kell befejezned: ""Én is szívesen...""</p><p>A lehetőségek pedig ezek:</p>","1","","","","","",""
"html-button-response","7","239806","0.0-7.0","5179","<p>Nagyon jó.</p><p>Ezt a játékot nem egyedül fogod játszani, hanem egy másik játékossal.</p><p>Mielőtt továbblépünk, összekapcsolunk titeket egymással.</p><p>Ez igénybe vehet néhány másodpercet, amihez szíves türelmed kérjük.</p>","0","","","","","",""
"html-button-response","8","245546","0.0-8.0","null","<p>Csatlakozás a másik játékoshoz...</p>","null","","","","","",""
"html-button-response","9","248078","0.0-9.0","null","<p> Sikeres kapcsolódás!</p>","null","","","","","",""
"html-button-response","10","258607","0.0-10.0","null","<p>A következőkben ketten játsszátok a szóválasztós játékot.</p><p>A feladatotok az lesz, hogy minden körben <b>ugyanazt</b> a szót válasszátok.</p><p>Minden ilyen egyező válaszért pontot kaptok.</p><p>Próbáld meg kitalálni, mit választ a másik játékos!</p><p>Bármikor választhatsz, a körnek akkor van vége, ha mindketten döntöttetek.</p><p>Sok sikert!</p>","null","","","","","",""
"html-button-response-esp","11","262739","0.0-11.0-0.0","3622","Te bizony sokat huroslasz. Én is sokat...","0","huroslok","[""huroslok"",""huroslom""]","huroslom","esp trial","4","false"
"html-button-response","12","266248","0.0-11.0-1.0","null","<p>A másik játékos ezt választotta: <b>huroslom</b>.</p><p>&#10060;</p><p>A válaszaitok <b>nem</b> egyeznek meg.</p>","null","","","","feedback trial","",""
"html-button-response-esp","13","270010","0.0-11.0-0.1","2642","Te bizony sokat lörűdzöl. Én is sokat...","1","lörűdzöm","[""lörűdzök"",""lörűdzöm""]","lörűdzök","esp trial","4","false"
"html-button-response","14","273544","0.0-11.0-1.1","null","<p>A másik játékos ezt választotta: <b>lörűdzök</b>.</p><p>&#10060;</p><p>A válaszaitok <b>nem</b> egyeznek meg.</p>","null","","","","feedback trial","",""
"html-button-response-esp","15","277516","0.0-11.0-0.2","3454","Te bizony sokat spröbzöl. Én is sokat...","1","spröbzök","[""spröbzöm"",""spröbzök""]","spröbzök","esp trial","4","true"
"html-button-response","16","281037","0.0-11.0-1.2","null","<p>A másik játékos ezt választotta: <b>spröbzök</b>.</p><p>&#x2705;</p><p>A te válaszod és a másik játékos válasza <b>megegyeznek</b>.</p>","null","","","","feedback trial","",""
"html-button-response-esp","17","285044","0.0-11.0-0.3","3505","Te bizony sokat sztrűkszöl. Én is sokat...","0","sztrűkszök","[""sztrűkszök"",""sztrűkszöm""]","sztrűkszök","esp trial","4","true"
"html-button-response","18","288574","0.0-11.0-1.3","null","<p>A másik játékos ezt választotta: <b>sztrűkszök</b>.</p><p>&#x2705;</p><p>A te válaszod és a másik játékos válasza <b>megegyeznek</b>.</p>","null","","","","feedback trial","",""
"html-button-response-esp","19","292340","0.0-11.0-0.4","2964","Te bizony sokat brubzol. Én is sokat...","1","brubzok","[""brubzom"",""brubzok""]","brubzok","esp trial","4","true"
"html-button-response","20","295864","0.0-11.0-1.4","null","<p>A másik játékos ezt választotta: <b>brubzok</b>.</p><p>&#x2705;</p><p>A te válaszod és a másik játékos válasza <b>megegyeznek</b>.</p>","null","","","","feedback trial","",""
"html-button-response-esp","21","299918","0.0-11.0-0.5","3543","Te bizony sokat plűbzöl. Én is sokat...","0","plűbzök","[""plűbzök"",""plűbzöm""]","plűbzök","esp trial","4","true"
"html-button-response","22","303454","0.0-11.0-1.5","null","<p>A másik játékos ezt választotta: <b>plűbzök</b>.</p><p>&#x2705;</p><p>A te válaszod és a másik játékos válasza <b>megegyeznek</b>.</p>","null","","","","feedback trial","",""
"html-button-response-esp","23","308636","0.0-11.0-0.6","4672","Te bizony sokat spüjzöl. Én is sokat...","1","spüjzöm","[""spüjzök"",""spüjzöm""]","spüjzöm","esp trial","4","true"
"html-button-response","24","312146","0.0-11.0-1.6","null","<p>A másik játékos ezt választotta: <b>spüjzöm</b>.</p><p>&#x2705;</p><p>A te válaszod és a másik játékos válasza <b>megegyeznek</b>.</p>","null","","","","feedback trial","",""
"html-button-response-esp","25","316054","0.0-11.0-0.7","3402","Te bizony sokat hurjorzol. Én is sokat...","1","hurjorzom","[""hurjorzok"",""hurjorzom""]","hurjorzok","esp trial","4","false"
"html-button-response","26","319577","0.0-11.0-1.7","null","<p>A másik játékos ezt választotta: <b>hurjorzok</b>.</p><p>&#10060;</p><p>A válaszaitok <b>nem</b> egyeznek meg.</p>","null","","","","feedback trial","",""
"html-button-response-esp","27","323340","0.0-11.0-0.8","2243","Te bizony sokat brivegzel. Én is sokat...","0","brivegzem","[""brivegzem"",""brivegzek""]","brivegzek","esp trial","4","false"
"html-button-response","28","326850","0.0-11.0-1.8","null","<p>A másik játékos ezt választotta: <b>brivegzek</b>.</p><p>&#10060;</p><p>A válaszaitok <b>nem</b> egyeznek meg.</p>","null","","","","feedback trial","",""
"html-button-response-esp","29","330618","0.0-11.0-0.9","3096","Te bizony sokat sztrijzol. Én is sokat...","1","sztrijzok","[""sztrijzom"",""sztrijzok""]","sztrijzok","esp trial","4","true"
"html-button-response","30","334145","0.0-11.0-1.9","null","<p>A másik játékos ezt választotta: <b>sztrijzok</b>.</p><p>&#x2705;</p><p>A te válaszod és a másik játékos válasza <b>megegyeznek</b>.</p>","null","","","","feedback trial","",""
"html-button-response-esp","31","337908","0.0-11.0-0.10","2423","Te bizony sokat prínylasz. Én is sokat...","0","prínylok","[""prínylok"",""prínylom""]","prínylok","esp trial","4","true"
"html-button-response","32","341418","0.0-11.0-1.10","null","<p>A másik játékos ezt választotta: <b>prínylok</b>.</p><p>&#x2705;</p><p>A te válaszod és a másik játékos válasza <b>megegyeznek</b>.</p>","null","","","","feedback trial","",""
"html-button-response-esp","33","345180","0.0-11.0-0.11","2309","Te bizony sokat flűmlesz. Én is sokat...","0","flűmlök","[""flűmlök"",""flűmlöm""]","flűmlöm","esp trial","4","false"
"html-button-response","34","348705","0.0-11.0-1.11","null","<p>A másik játékos ezt választotta: <b>flűmlöm</b>.</p><p>&#10060;</p><p>A válaszaitok <b>nem</b> egyeznek meg.</p>","null","","","","feedback trial","",""
"html-button-response-esp","35","352857","0.0-11.0-0.12","3631","Te bizony sokat düjzöl. Én is sokat...","0","düjzök","[""düjzök"",""düjzöm""]","düjzök","esp trial","4","true"
"html-button-response","36","356384","0.0-11.0-1.12","null","<p>A másik játékos ezt választotta: <b>düjzök</b>.</p><p>&#x2705;</p><p>A te válaszod és a másik játékos válasza <b>megegyeznek</b>.</p>","null","","","","feedback trial","",""
"html-button-response-esp","37","360150","0.0-11.0-0.13","2269","Te bizony sokat salárzol. Én is sokat...","1","salárzom","[""salárzok"",""salárzom""]","salárzok","esp trial","4","false"
"html-button-response","38","363676","0.0-11.0-1.13","null","<p>A másik játékos ezt választotta: <b>salárzok</b>.</p><p>&#10060;</p><p>A válaszaitok <b>nem</b> egyeznek meg.</p>","null","","","","feedback trial","",""
"html-button-response-esp","39","367448","0.0-11.0-0.14","1603","Te bizony sokat spülűdzöl. Én is sokat...","0","spülűdzök","[""spülűdzök"",""spülűdzöm""]","spülűdzök","esp trial","4","true"
"html-button-response","40","370965","0.0-11.0-1.14","null","<p>A másik játékos ezt választotta: <b>spülűdzök</b>.</p><p>&#x2705;</p><p>A te válaszod és a másik játékos válasza <b>megegyeznek</b>.</p>","null","","","","feedback trial","",""
"html-button-response-esp","41","374722","0.0-11.0-0.15","2543","Te bizony sokat vanylasz. Én is sokat...","1","vanylom","[""vanylok"",""vanylom""]","vanylom","esp trial","4","true"
"html-button-response","42","378244","0.0-11.0-1.15","null","<p>A másik játékos ezt választotta: <b>vanylom</b>.</p><p>&#x2705;</p><p>A te válaszod és a másik játékos válasza <b>megegyeznek</b>.</p>","null","","","","feedback trial","",""
"html-button-response-esp","43","382013","0.0-11.0-0.16","3141","Te bizony sokat bivégszel. Én is sokat...","1","bivégszem","[""bivégszek"",""bivégszem""]","bivégszek","esp trial","4","false"
"html-button-response","44","385526","0.0-11.0-1.16","null","<p>A másik játékos ezt választotta: <b>bivégszek</b>.</p><p>&#10060;</p><p>A válaszaitok <b>nem</b> egyeznek meg.</p>","null","","","","feedback trial","",""
"html-button-response-esp","45","389298","0.0-11.0-0.17","2327","Te bizony sokat frodlasz. Én is sokat...","0","frodlom","[""frodlom"",""frodlok""]","frodlok","esp trial","4","false"
"html-button-response","46","392815","0.0-11.0-1.17","null","<p>A másik játékos ezt választotta: <b>frodlok</b>.</p><p>&#10060;</p><p>A válaszaitok <b>nem</b> egyeznek meg.</p>","null","","","","feedback trial","",""
"html-button-response-esp","47","396575","0.0-11.0-0.18","2701","Te bizony sokat pribagszol. Én is sokat...","0","pribagszom","[""pribagszom"",""pribagszok""]","pribagszok","esp trial","4","false"
"html-button-response","48","400095","0.0-11.0-1.18","null","<p>A másik játékos ezt választotta: <b>pribagszok</b>.</p><p>&#10060;</p><p>A válaszaitok <b>nem</b> egyeznek meg.</p>","null","","","","feedback trial","",""
"html-button-response-esp","49","405729","0.0-11.0-0.19","5118","Te bizony sokat klétszel. Én is sokat...","1","klétszek","[""klétszem"",""klétszek""]","klétszek","esp trial","4","true"
"html-button-response","50","409255","0.0-11.0-1.19","null","<p>A másik játékos ezt választotta: <b>klétszek</b>.</p><p>&#x2705;</p><p>A te válaszod és a másik játékos válasza <b>megegyeznek</b>.</p>","null","","","","feedback trial","",""
"html-button-response-esp","51","413002","0.0-11.0-0.20","3239","Te bizony sokat spihegzel. Én is sokat...","0","spihegzem","[""spihegzem"",""spihegzek""]","spihegzek","esp trial","4","false"
"html-button-response","52","416536","0.0-11.0-1.20","null","<p>A másik játékos ezt választotta: <b>spihegzek</b>.</p><p>&#10060;</p><p>A válaszaitok <b>nem</b> egyeznek meg.</p>","null","","","","feedback trial","",""
"html-button-response-esp","53","420297","0.0-11.0-0.21","2702","Te bizony sokat rájzol. Én is sokat...","1","rájzok","[""rájzom"",""rájzok""]","rájzok","esp trial","4","true"
"html-button-response","54","423822","0.0-11.0-1.21","null","<p>A másik játékos ezt választotta: <b>rájzok</b>.</p><p>&#x2705;</p><p>A te válaszod és a másik játékos válasza <b>megegyeznek</b>.</p>","null","","","","feedback trial","",""
"html-button-response-esp","55","427584","0.0-11.0-0.22","1310","Te bizony sokat hűgzöl. Én is sokat...","0","hűgzök","[""hűgzök"",""hűgzöm""]","hűgzök","esp trial","4","true"
"html-button-response","56","431110","0.0-11.0-1.22","null","<p>A másik játékos ezt választotta: <b>hűgzök</b>.</p><p>&#x2705;</p><p>A te válaszod és a másik játékos válasza <b>megegyeznek</b>.</p>","null","","","","feedback trial","",""
"html-button-response-esp","57","434861","0.0-11.0-0.23","1071","Te bizony sokat trehégszel. Én is sokat...","1","trehégszek","[""trehégszem"",""trehégszek""]","trehégszek","esp trial","4","true"
"html-button-response","58","438387","0.0-11.0-1.23","null","<p>A másik játékos ezt választotta: <b>trehégszek</b>.</p><p>&#x2705;</p><p>A te válaszod és a másik játékos válasza <b>megegyeznek</b>.</p>","null","","","","feedback trial","",""
"html-button-response-esp","59","442143","0.0-11.0-0.24","960","Te bizony sokat rokszol. Én is sokat...","1","rokszok","[""rokszom"",""rokszok""]","rokszok","esp trial","4","true"
"html-button-response","60","445668","0.0-11.0-1.24","null","<p>A másik játékos ezt választotta: <b>rokszok</b>.</p><p>&#x2705;</p><p>A te válaszod és a másik játékos válasza <b>megegyeznek</b>.</p>","null","","","","feedback trial","",""
"html-button-response-esp","61","449426","0.0-11.0-0.25","3078","Te bizony sokat spubonylasz. Én is sokat...","0","spubonylok","[""spubonylok"",""spubonylom""]","spubonylom","esp trial","4","false"
"html-button-response","62","452943","0.0-11.0-1.25","null","<p>A másik játékos ezt választotta: <b>spubonylom</b>.</p><p>&#10060;</p><p>A válaszaitok <b>nem</b> egyeznek meg.</p>","null","","","","feedback trial","",""
"html-button-response-esp","63","456709","0.0-11.0-0.26","2694","Te bizony sokat bihánylasz. Én is sokat...","1","bihánylok","[""bihánylom"",""bihánylok""]","bihánylom","esp trial","4","false"
"html-button-response","64","460232","0.0-11.0-1.26","null","<p>A másik játékos ezt választotta: <b>bihánylom</b>.</p><p>&#10060;</p><p>A válaszaitok <b>nem</b> egyeznek meg.</p>","null","","","","feedback trial","",""
"html-button-response-esp","65","463989","0.0-11.0-0.27","2221","Te bizony sokat trádlasz. Én is sokat...","0","trádlom","[""trádlom"",""trádlok""]","trádlok","esp trial","4","false"
"html-button-response","66","467506","0.0-11.0-1.27","null","<p>A másik játékos ezt választotta: <b>trádlok</b>.</p><p>&#10060;</p><p>A válaszaitok <b>nem</b> egyeznek meg.</p>","null","","","","feedback trial","",""
"html-button-response-esp","67","471270","0.0-11.0-0.28","2936","Te bizony sokat píjlasz. Én is sokat...","1","píjlok","[""píjlom"",""píjlok""]","píjlok","esp trial","4","true"
"html-button-response","68","474795","0.0-11.0-1.28","null","<p>A másik játékos ezt választotta: <b>píjlok</b>.</p><p>&#x2705;</p><p>A te válaszod és a másik játékos válasza <b>megegyeznek</b>.</p>","null","","","","feedback trial","",""
"html-button-response-esp","69","479491","0.0-11.0-0.29","4180","Te bizony sokat narádzol. Én is sokat...","1","narádzom","[""narádzok"",""narádzom""]","narádzok","esp trial","4","false"
"html-button-response","70","483017","0.0-11.0-1.29","null","<p>A másik játékos ezt választotta: <b>narádzok</b>.</p><p>&#10060;</p><p>A válaszaitok <b>nem</b> egyeznek meg.</p>","null","","","","feedback trial","",""
"html-button-response-esp","71","486774","0.0-11.0-0.30","1962","Te bizony sokat pribemlesz. Én is sokat...","0","pribemlem","[""pribemlem"",""pribemlek""]","pribemlem","esp trial","4","true"
"html-button-response","72","490318","0.0-11.0-1.30","null","<p>A másik játékos ezt választotta: <b>pribemlem</b>.</p><p>&#x2705;</p><p>A te válaszod és a másik játékos válasza <b>megegyeznek</b>.</p>","null","","","","feedback trial","",""
"html-button-response-esp","73","494080","0.0-11.0-0.31","2225","Te bizony sokat szibánylasz. Én is sokat...","1","szibánylom","[""szibánylok"",""szibánylom""]","szibánylom","esp trial","4","true"
"html-button-response","74","497586","0.0-11.0-1.31","null","<p>A másik játékos ezt választotta: <b>szibánylom</b>.</p><p>&#x2705;</p><p>A te válaszod és a másik játékos válasza <b>megegyeznek</b>.</p>","null","","","","feedback trial","",""
"html-button-response-esp","75","501344","0.0-11.0-0.32","3116","Te bizony sokat treglesz. Én is sokat...","1","treglek","[""treglem"",""treglek""]","treglem","esp trial","4","false"
"html-button-response","76","504858","0.0-11.0-1.32","null","<p>A másik játékos ezt választotta: <b>treglem</b>.</p><p>&#10060;</p><p>A válaszaitok <b>nem</b> egyeznek meg.</p>","null","","","","feedback trial","",""
"html-button-response-esp","77","511016","0.0-11.0-0.33","5643","Te bizony sokat flehénylesz. Én is sokat...","0","flehénylek","[""flehénylek"",""flehénylem""]","flehénylem","esp trial","4","false"
"html-button-response","78","514529","0.0-11.0-1.33","null","<p>A másik játékos ezt választotta: <b>flehénylem</b>.</p><p>&#10060;</p><p>A válaszaitok <b>nem</b> egyeznek meg.</p>","null","","","","feedback trial","",""
"html-button-response-esp","79","519899","0.0-11.0-0.34","4857","Te bizony sokat klivaslasz. Én is sokat...","0","klivaslok","[""klivaslok"",""klivaslom""]","klivaslom","esp trial","4","false"
"html-button-response","80","523416","0.0-11.0-1.34","null","<p>A másik játékos ezt választotta: <b>klivaslom</b>.</p><p>&#10060;</p><p>A válaszaitok <b>nem</b> egyeznek meg.</p>","null","","","","feedback trial","",""
"html-button-response-esp","81","527166","0.0-11.0-0.35","2645","Te bizony sokat pítszol. Én is sokat...","0","pítszom","[""pítszom"",""pítszok""]","pítszok","esp trial","4","false"
"html-button-response","82","530691","0.0-11.0-1.35","null","<p>A másik játékos ezt választotta: <b>pítszok</b>.</p><p>&#10060;</p><p>A válaszaitok <b>nem</b> egyeznek meg.</p>","null","","","","feedback trial","",""
"html-button-response-esp","83","534450","0.0-11.0-0.36","2677","Te bizony sokat bűtszöl. Én is sokat...","1","bűtszöm","[""bűtszök"",""bűtszöm""]","bűtszök","esp trial","4","false"
"html-button-response","84","537962","0.0-11.0-1.36","null","<p>A másik játékos ezt választotta: <b>bűtszök</b>.</p><p>&#10060;</p><p>A válaszaitok <b>nem</b> egyeznek meg.</p>","null","","","","feedback trial","",""
"html-button-response-esp","85","541724","0.0-11.0-0.37","2864","Te bizony sokat plugzol. Én is sokat...","1","plugzom","[""plugzok"",""plugzom""]","plugzok","esp trial","4","false"
"html-button-response","86","545262","0.0-11.0-1.37","null","<p>A másik játékos ezt választotta: <b>plugzok</b>.</p><p>&#10060;</p><p>A válaszaitok <b>nem</b> egyeznek meg.</p>","null","","","","feedback trial","",""
"html-button-response-esp","87","549033","0.0-11.0-0.38","2622","Te bizony sokat spihemlesz. Én is sokat...","1","spihemlek","[""spihemlem"",""spihemlek""]","spihemlem","esp trial","4","false"
"html-button-response","88","552559","0.0-11.0-1.38","null","<p>A másik játékos ezt választotta: <b>spihemlem</b>.</p><p>&#10060;</p><p>A válaszaitok <b>nem</b> egyeznek meg.</p>","null","","","","feedback trial","",""
"html-button-response-esp","89","557490","0.0-11.0-0.39","4415","Te bizony sokat klaráglasz. Én is sokat...","0","klaráglok","[""klaráglok"",""klaráglom""]","klaráglom","esp trial","4","false"
"html-button-response","90","561014","0.0-11.0-1.39","null","<p>A másik játékos ezt választotta: <b>klaráglom</b>.</p><p>&#10060;</p><p>A válaszaitok <b>nem</b> egyeznek meg.</p>","null","","","","feedback trial","",""
"html-button-response-esp","91","564787","0.0-11.0-0.40","2571","Te bizony sokat figlasz. Én is sokat...","0","figlom","[""figlom"",""figlok""]","figlok","esp trial","4","false"
"html-button-response","92","568313","0.0-11.0-1.40","null","<p>A másik játékos ezt választotta: <b>figlok</b>.</p><p>&#10060;</p><p>A válaszaitok <b>nem</b> egyeznek meg.</p>","null","","","","feedback trial","",""
"html-button-response-esp","93","572076","0.0-11.0-0.41","1857","Te bizony sokat brobódzol. Én is sokat...","0","brobódzom","[""brobódzom"",""brobódzok""]","brobódzok","esp trial","4","false"
"html-button-response","94","575601","0.0-11.0-1.41","null","<p>A másik játékos ezt választotta: <b>brobódzok</b>.</p><p>&#10060;</p><p>A válaszaitok <b>nem</b> egyeznek meg.</p>","null","","","","feedback trial","",""
"html-button-response-esp","95","579361","0.0-11.0-0.42","2066","Te bizony sokat flehékszel. Én is sokat...","1","flehékszem","[""flehékszek"",""flehékszem""]","flehékszek","esp trial","4","false"
"html-button-response","96","582882","0.0-11.0-1.42","null","<p>A másik játékos ezt választotta: <b>flehékszek</b>.</p><p>&#10060;</p><p>A válaszaitok <b>nem</b> egyeznek meg.</p>","null","","","","feedback trial","",""
"html-button-response-esp","97","590070","0.0-11.0-0.43","6677","Te bizony sokat flátszol. Én is sokat...","0","flátszom","[""flátszom"",""flátszok""]","flátszok","esp trial","4","false"
"html-button-response","98","593586","0.0-11.0-1.43","null","<p>A másik játékos ezt választotta: <b>flátszok</b>.</p><p>&#10060;</p><p>A válaszaitok <b>nem</b> egyeznek meg.</p>","null","","","","feedback trial","",""
"html-button-response-esp","99","597370","0.0-11.0-0.44","2924","Te bizony sokat jonylasz. Én is sokat...","0","jonylom","[""jonylom"",""jonylok""]","jonylom","esp trial","4","true"
"html-button-response","100","600882","0.0-11.0-1.44","null","<p>A másik játékos ezt választotta: <b>jonylom</b>.</p><p>&#x2705;</p><p>A te válaszod és a másik játékos válasza <b>megegyeznek</b>.</p>","null","","","","feedback trial","",""
"html-button-response-esp","101","604660","0.0-11.0-0.45","3274","Te bizony sokat nűröklesz. Én is sokat...","0","nűröklök","[""nűröklök"",""nűröklöm""]","nűröklök","esp trial","4","true"
"html-button-response","102","608175","0.0-11.0-1.45","null","<p>A másik játékos ezt választotta: <b>nűröklök</b>.</p><p>&#x2705;</p><p>A te válaszod és a másik játékos válasza <b>megegyeznek</b>.</p>","null","","","","feedback trial","",""
"html-button-response-esp","103","611938","0.0-11.0-0.46","1154","Te bizony sokat tragzol. Én is sokat...","1","tragzom","[""tragzok"",""tragzom""]","tragzok","esp trial","4","false"
"html-button-response","104","615464","0.0-11.0-1.46","null","<p>A másik játékos ezt választotta: <b>tragzok</b>.</p><p>&#10060;</p><p>A válaszaitok <b>nem</b> egyeznek meg.</p>","null","","","","feedback trial","",""
"html-button-response-esp","105","619237","0.0-11.0-0.47","789","Te bizony sokat spáraklasz. Én is sokat...","1","spáraklom","[""spáraklok"",""spáraklom""]","spáraklok","esp trial","4","false"
"html-button-response","106","622766","0.0-11.0-1.47","null","<p>A másik játékos ezt választotta: <b>spáraklok</b>.</p><p>&#10060;</p><p>A válaszaitok <b>nem</b> egyeznek meg.</p>","null","","","","feedback trial","",""
"html-button-response-esp","107","626527","0.0-11.0-0.48","2259","Te bizony sokat sztrozlasz. Én is sokat...","0","sztrozlok","[""sztrozlok"",""sztrozlom""]","sztrozlok","esp trial","4","true"
"html-button-response","108","630044","0.0-11.0-1.48","null","<p>A másik játékos ezt választotta: <b>sztrozlok</b>.</p><p>&#x2705;</p><p>A te válaszod és a másik játékos válasza <b>megegyeznek</b>.</p>","null","","","","feedback trial","",""
"html-button-response-esp","109","633802","0.0-11.0-0.49","2262","Te bizony sokat filágzol. Én is sokat...","1","filágzom","[""filágzok"",""filágzom""]","filágzok","esp trial","4","false"
"html-button-response","110","637316","0.0-11.0-1.49","null","<p>A másik játékos ezt választotta: <b>filágzok</b>.</p><p>&#10060;</p><p>A válaszaitok <b>nem</b> egyeznek meg.</p>","null","","","","feedback trial","",""
"html-button-response-esp","111","641076","0.0-11.0-0.50","1245","Te bizony sokat ibékszel. Én is sokat...","0","ibékszem","[""ibékszem"",""ibékszek""]","ibékszek","esp trial","4","false"
"html-button-response","112","644587","0.0-11.0-1.50","null","<p>A másik játékos ezt választotta: <b>ibékszek</b>.</p><p>&#10060;</p><p>A válaszaitok <b>nem</b> egyeznek meg.</p>","null","","","","feedback trial","",""
"html-button-response-esp","113","648338","0.0-11.0-0.51","685","Te bizony sokat flitlasz. Én is sokat...","0","flitlom","[""flitlom"",""flitlok""]","flitlom","esp trial","4","true"
"html-button-response","114","651841","0.0-11.0-1.51","null","<p>A másik játékos ezt választotta: <b>flitlom</b>.</p><p>&#x2705;</p><p>A te válaszod és a másik játékos válasza <b>megegyeznek</b>.</p>","null","","","","feedback trial","",""
"html-button-response-esp","115","670876","0.0-11.0-0.52","18526","Te bizony sokat vülődzöl. Én is sokat...","1","vülődzöm","[""vülődzök"",""vülődzöm""]","vülődzök","esp trial","4","false"
"html-button-response","116","674379","0.0-11.0-1.52","null","<p>A másik játékos ezt választotta: <b>vülődzök</b>.</p><p>&#10060;</p><p>A válaszaitok <b>nem</b> egyeznek meg.</p>","null","","","","feedback trial","",""
"html-button-response-esp","117","680895","0.0-11.0-0.53","6002","Te bizony sokat gyibeslesz. Én is sokat...","1","gyibeslem","[""gyibeslek"",""gyibeslem""]","gyibeslek","esp trial","4","false"
"html-button-response","118","684418","0.0-11.0-1.53","null","<p>A másik játékos ezt választotta: <b>gyibeslek</b>.</p><p>&#10060;</p><p>A válaszaitok <b>nem</b> egyeznek meg.</p>","null","","","","feedback trial","",""
"html-button-response","119","702393","0.0-12.0","17474","<p>A közös játék most véget ért.</p><p>Mielőtt eláruljuk a végső pontszámodat, arra kérlek, játszd a szóválasztós játékot néhány percig egyedül is.</p><p>A feladatod ugyanaz lesz, választani két lehetőség közül.</p><p>Most viszont egyedül kell döntened, hogy te melyiket választanád.</p>","0","","","","","",""
"html-button-response-clever","120","712039","0.0-13.0-0.0","9141","Te bizony sokat ibáglasz. Én is sokat...","0","ibáglok","[""ibáglok"",""ibáglom""]","","posttest trial","8",""
"html-button-response-clever","121","719867","0.0-13.0-0.1","7314","Te bizony sokat tuboklasz. Én is sokat...","0","tuboklom","[""tuboklom"",""tuboklok""]","","posttest trial","8",""
"html-button-response-clever","122","727871","0.0-13.0-0.2","7503","Te bizony sokat táklasz. Én is sokat...","1","táklok","[""táklom"",""táklok""]","","posttest trial","8",""
"html-button-response-clever","123","735074","0.0-13.0-0.3","6697","Te bizony sokat huklasz. Én is sokat...","0","huklok","[""huklok"",""huklom""]","","posttest trial","8",""
"html-button-response-clever","124","740762","0.0-13.0-0.4","5183","Te bizony sokat csólorzol. Én is sokat...","1","csólorzok","[""csólorzom"",""csólorzok""]","","posttest trial","8",""
"html-button-response-clever","125","747188","0.0-13.0-0.5","5913","Te bizony sokat frágapszol. Én is sokat...","0","frágapszok","[""frágapszok"",""frágapszom""]","","posttest trial","8",""
"html-button-response-clever","126","751369","0.0-13.0-0.6","3668","Te bizony sokat féjzel. Én is sokat...","1","féjzek","[""féjzem"",""féjzek""]","","posttest trial","8",""
"html-button-response-clever","127","762612","0.0-13.0-0.7","10741","Te bizony sokat gyibakszol. Én is sokat...","1","gyibakszok","[""gyibakszom"",""gyibakszok""]","","posttest trial","8",""
"html-button-response-clever","128","778652","0.0-13.0-0.8","15537","Te bizony sokat kumlasz. Én is sokat...","1","kumlok","[""kumlom"",""kumlok""]","","posttest trial","8",""
"html-button-response-clever","129","789631","0.0-13.0-0.9","10471","Te bizony sokat szűslesz. Én is sokat...","1","szűslöm","[""szűslök"",""szűslöm""]","","posttest trial","8",""
"html-button-response-clever","130","793572","0.0-13.0-0.10","3431","Te bizony sokat plövőrzöl. Én is sokat...","0","plövőrzöm","[""plövőrzöm"",""plövőrzök""]","","posttest trial","8",""
"html-button-response-clever","131","796309","0.0-13.0-0.11","2232","Te bizony sokat prohódzol. Én is sokat...","1","prohódzom","[""prohódzok"",""prohódzom""]","","posttest trial","8",""
"html-button-response-clever","132","798605","0.0-13.0-0.12","1795","Te bizony sokat sprálszol. Én is sokat...","1","sprálszok","[""sprálszom"",""sprálszok""]","","posttest trial","8",""
"html-button-response-clever","133","804220","0.0-13.0-0.13","5100","Te bizony sokat prihekszel. Én is sokat...","0","prihekszek","[""prihekszek"",""prihekszem""]","","posttest trial","8",""
"html-button-response-clever","134","843359","0.0-13.0-0.14","38631","Te bizony sokat fivénylesz. Én is sokat...","0","fivénylek","[""fivénylek"",""fivénylem""]","","posttest trial","8",""
"html-button-response-clever","135","845406","0.0-13.0-0.15","1533","Te bizony sokat floglasz. Én is sokat...","1","floglom","[""floglok"",""floglom""]","","posttest trial","8",""
"html-button-response-clever","136","849803","0.0-13.0-0.16","3893","Te bizony sokat spatszol. Én is sokat...","1","spatszok","[""spatszom"",""spatszok""]","","posttest trial","8",""
"html-button-response-clever","137","851944","0.0-13.0-0.17","1637","Te bizony sokat spülöklesz. Én is sokat...","1","spülöklöm","[""spülöklök"",""spülöklöm""]","","posttest trial","8",""
"html-button-response-clever","138","855518","0.0-13.0-0.18","3067","Te bizony sokat pugoslasz. Én is sokat...","1","pugoslok","[""pugoslom"",""pugoslok""]","","posttest trial","8",""
"html-button-response-clever","139","857987","0.0-13.0-0.19","1952","Te bizony sokat fligzol. Én is sokat...","1","fligzom","[""fligzok"",""fligzom""]","","posttest trial","8",""
"html-button-response-clever","140","860781","0.0-13.0-0.20","2288","Te bizony sokat spélszel. Én is sokat...","1","spélszem","[""spélszek"",""spélszem""]","","posttest trial","8",""
"html-button-response-clever","141","863082","0.0-13.0-0.21","1791","Te bizony sokat gerénylesz. Én is sokat...","0","gerénylek","[""gerénylek"",""gerénylem""]","","posttest trial","8",""
"html-button-response-clever","142","867324","0.0-13.0-0.22","3732","Te bizony sokat péleslesz. Én is sokat...","0","péleslek","[""péleslek"",""péleslem""]","","posttest trial","8",""
"html-button-response-clever","143","871741","0.0-13.0-0.23","3912","Te bizony sokat spülőrzöl. Én is sokat...","0","spülőrzök","[""spülőrzök"",""spülőrzöm""]","","posttest trial","8",""
"html-button-response-clever","144","877773","0.0-13.0-0.24","5530","Te bizony sokat flibekszel. Én is sokat...","1","flibekszek","[""flibekszem"",""flibekszek""]","","posttest trial","8",""
"html-button-response-clever","145","880026","0.0-13.0-0.25","1737","Te bizony sokat aglasz. Én is sokat...","1","aglok","[""aglom"",""aglok""]","","posttest trial","8",""
"html-button-response-clever","146","882328","0.0-13.0-0.26","1800","Te bizony sokat brarlasz. Én is sokat...","1","brarlok","[""brarlom"",""brarlok""]","","posttest trial","8",""
"html-button-response-clever","147","886579","0.0-13.0-0.27","3730","Te bizony sokat friszlasz. Én is sokat...","1","friszlok","[""friszlom"",""friszlok""]","","posttest trial","8",""
"html-button-response-clever","148","891910","0.0-13.0-0.28","4817","Te bizony sokat spüszlesz. Én is sokat...","0","spüszlök","[""spüszlök"",""spüszlöm""]","","posttest trial","8",""
"html-button-response-clever","149","894068","0.0-13.0-0.29","1646","Te bizony sokat fliraklasz. Én is sokat...","0","fliraklom","[""fliraklom"",""fliraklok""]","","posttest trial","8",""
"html-button-response-clever","150","896648","0.0-13.0-0.30","2064","Te bizony sokat drügzöl. Én is sokat...","0","drügzöm","[""drügzöm"",""drügzök""]","","posttest trial","8",""
"html-button-response-clever","151","899675","0.0-13.0-0.31","2522","Te bizony sokat trihagzol. Én is sokat...","0","trihagzok","[""trihagzok"",""trihagzom""]","","posttest trial","8",""
"html-button-response-clever","152","902201","0.0-13.0-0.32","2020","Te bizony sokat praslasz. Én is sokat...","0","praslom","[""praslom"",""praslok""]","","posttest trial","8",""
"html-button-response-clever","153","905285","0.0-13.0-0.33","2569","Te bizony sokat spibádzol. Én is sokat...","0","spibádzok","[""spibádzok"",""spibádzom""]","","posttest trial","8",""
"html-button-response-clever","154","908913","0.0-13.0-0.34","3113","Te bizony sokat bivejlesz. Én is sokat...","0","bivejlek","[""bivejlek"",""bivejlem""]","","posttest trial","8",""
"html-button-response-clever","155","912360","0.0-13.0-0.35","2940","Te bizony sokat vűjlesz. Én is sokat...","0","vűjlök","[""vűjlök"",""vűjlöm""]","","posttest trial","8",""
"html-button-response-clever","156","917098","0.0-13.0-0.36","4221","Te bizony sokat prezlesz. Én is sokat...","0","prezlek","[""prezlek"",""prezlem""]","","posttest trial","8",""
"html-button-response-clever","157","919617","0.0-13.0-0.37","2003","Te bizony sokat zödlesz. Én is sokat...","0","zödlöm","[""zödlöm"",""zödlök""]","","posttest trial","8",""
"html-button-response-clever","158","922279","0.0-13.0-0.38","2158","Te bizony sokat gyivádzol. Én is sokat...","0","gyivádzok","[""gyivádzok"",""gyivádzom""]","","posttest trial","8",""
"html-button-response-clever","159","924663","0.0-13.0-0.39","1873","Te bizony sokat vihepszel. Én is sokat...","1","vihepszem","[""vihepszek"",""vihepszem""]","","posttest trial","8",""
"html-button-response-clever","160","926776","0.0-13.0-0.40","1594","Te bizony sokat livaklasz. Én is sokat...","0","livaklom","[""livaklom"",""livaklok""]","","posttest trial","8",""
"html-button-response-clever","161","929456","0.0-13.0-0.41","2158","Te bizony sokat flérlesz. Én is sokat...","1","flérlek","[""flérlem"",""flérlek""]","","posttest trial","8",""
"html-button-response-clever","162","933005","0.0-13.0-0.42","3041","Te bizony sokat spírzol. Én is sokat...","0","spírzok","[""spírzok"",""spírzom""]","","posttest trial","8",""
"html-button-response-clever","163","935115","0.0-13.0-0.43","1603","Te bizony sokat flözlesz. Én is sokat...","0","flözlök","[""flözlök"",""flözlöm""]","","posttest trial","8",""
"html-button-response-clever","164","938432","0.0-13.0-0.44","2813","Te bizony sokat klárzol. Én is sokat...","0","klárzok","[""klárzok"",""klárzom""]","","posttest trial","8",""
"html-button-response-clever","165","943009","0.0-13.0-0.45","4057","Te bizony sokat sprédlesz. Én is sokat...","0","sprédlek","[""sprédlek"",""sprédlem""]","","posttest trial","8",""
"html-button-response-clever","166","950503","0.0-13.0-0.46","6987","Te bizony sokat préleglesz. Én is sokat...","0","préleglem","[""préleglem"",""préleglek""]","","posttest trial","8",""
"html-button-response-clever","167","952485","0.0-13.0-0.47","1474","Te bizony sokat lihadzol. Én is sokat...","1","lihadzok","[""lihadzom"",""lihadzok""]","","posttest trial","8",""
"html-button-response-clever","168","955691","0.0-13.0-0.48","2695","Te bizony sokat gilárzol. Én is sokat...","1","gilárzom","[""gilárzok"",""gilárzom""]","","posttest trial","8",""
"html-button-response-clever","169","959433","0.0-13.0-0.49","3231","Te bizony sokat frivajlasz. Én is sokat...","1","frivajlom","[""frivajlok"",""frivajlom""]","","posttest trial","8",""
"html-button-response-clever","170","964128","0.0-13.0-0.50","4180","Te bizony sokat plágadzol. Én is sokat...","0","plágadzok","[""plágadzok"",""plágadzom""]","","posttest trial","8",""
"html-button-response-clever","171","966530","0.0-13.0-0.51","1888","Te bizony sokat sztruglasz. Én is sokat...","0","sztruglom","[""sztruglom"",""sztruglok""]","","posttest trial","8",""
"html-button-response-clever","172","969095","0.0-13.0-0.52","2063","Te bizony sokat mékszel. Én is sokat...","1","mékszem","[""mékszek"",""mékszem""]","","posttest trial","8",""
"html-button-response-clever","173","971604","0.0-13.0-0.53","2001","Te bizony sokat klidlasz. Én is sokat...","1","klidlom","[""klidlok"",""klidlom""]","","posttest trial","8",""
"html-button-response","174","982711","0.0-14.0","10605","<p> Vége a játéknak. A teljes pontszámod 22/54.</p><p> Szép munka! &#128526;&#128526;&#128526;</p><p>A Befejezés gomb megnyomása után bezárhatod a böngészőablakot.</p>","0","","","","","",""
"html-keyboard-response","175","988250","0.0-15.0","null","<div class=""message"">
         <p>Egy kis türelmet kérünk, amíg elmentjük az adatokat...</p>
         </div>","null","","","","","",""
