"trial_type","trial_index","time_elapsed","internal_node_id","rt","stimulus","response","response_string","choices","esp_response","trial_kind","list_number","esp_match"
"pavlovia","0","674","0.0-0.0","","","","","","","","",""
"html-button-response","1","3088","0.0-1.0","1906","<p>Kedves Résztvevő! A Budapesti Műszaki és Gazdaságtudományi Egyetem Kognitív Tudományi Tanszékének kutatásában való részvételed kérjük. A kutatásban azt vizsgáljuk, hogy a magyar anyanyelvűek hogyan használnak bizonyos szóalakokat, és hogy milyen képük van arról, hogy mások hogyan használják, hogyan képzik a szavakat. Ez hozzásegít bennünket ahhoz, hogy jobban megértsük, hogyan dolgozza fel és tárolja a nyelvet az emberi agy, és hogyan működnek, hogyan változnak egy adott közösség nyelvi konvenciói.</p><p>A vizsgálat egy rövid számítógépes feladatból fog állni. A kutatásban való részvétel önkéntes, a részvételi szándék bármikor visszavonható. A résztvevők eredményeit név nélkül kezeljük, így nem beazonosíthatók az adatok feldolgozása során. Minden személyes adatot az EU általános adatvédelmi rendeletének (GDPR) megfelelően kezelünk és legfeljebb öt éven belül megsemmisítünk. A vizsgálat jellemzően húsz percet vesz igénybe.</p><p>Kutatásvezető:</p><p>Dr. Rácz Péter, tudományos munkatárs, BME KTT</p><p>e-mail: racz.peter.marton@ttk.bme.hu</p>","0","","","","","",""
"html-button-response","2","41888","0.0-2.0","38296","<p>A kísérletben szavakat fogsz látni. Ezek között lesznek olyanok, amelyeket ismersz, de előfordulhatnak olyanok is, amelyeket nem ismersz, sőt, vannak köztük kitalált szavak is. Minden szónál látni fogsz toldalékolt alakokat. A te feladatod az lesz, hogy minden szóhoz kiválaszd azt a toldalékolt alakot, amely a te számodra ismerősebben, természetesebben hangzik. Rossz válaszok nincsenek, mert van olyan, hogy különböző embereknek más és más szó tűnik jobb választásnak. A választ úgy tudod majd kiválasztani, ha rákattintasz.</p><p>Ebben a szóválasztós játékban egy másik játékossal együtt veszel majd részt. A másik játékos is minden esetben azok közül a lehetőségek közül válogathat, mint te. Kettőtök feladata az, hogy ugyanazt a lehetőséget válasszátok minden esetben. Ahhoz, hogy ez sikerüljön, neked figyelned kell arra, hogy a másik játékos milyen válaszokat ad, és ennek alapján meg kell tippelned, hogyan választ legközelebb. Ha eltalálod, akkor pontot kapsz.</p>","0","","","","","",""
"html-button-response","3","74872","0.0-3.0","32475","<p>Kérjük, olvasd el az alábbi nyilatkozatot, és amennyiben egyetértesz vele, nyomj a Beleegyezés gombra!</p><p>Kijelentem, hogy magyar anyanyelvű személyként önként veszek részt a BME KTT kísérletében. A kutatás céljával és folyamatával kapcsolatban elegendő tájékoztatást kaptam, lehetőségem volt kérdések feltételére, és esetleges kérdéseimre megfelelő válaszokat kaptam. A tájékoztatás alapján elegendő mennyiségű információ áll a rendelkezésemre, hogy eldönthessem, részt kívánok-e venni a kutatásban.</p><p>Tisztában vagyok vele, hogy részvételi szándékomat és adataimat bármikor, indoklás nélkül visszavonhatom.</p><p>Értem és tudomásul veszem, hogy a kutatás tudományos célokat szolgál, és az általam szolgáltatott adatokat a BME kizárólag kutatási célból használja fel. Tudomásul veszem, hogy eredményeimet a többi résztvevő eredményeivel együtt kezelik, így egyéni teljesítményemről visszajelzést, szakvéleményt nem kapok.</p><p>Megértettem, hogy adataim kezelését illetően a BME az EU általános adatvédelmi rendelete (GDPR), a hatályos adatvédelmi törvény és a nemzetközi kutatás-etikai alapelvek szerint jár el. Eredményeim anonim módon kerülnek feldolgozásra, és a kutatás résztvevői az azonosításomra alkalmas adataimat harmadik félnek nem szolgáltatják ki. Engedélyezem a BME számára a jelen kutatásban felvett adataim feldolgozását és tárolását, beleértve azok későbbi kutatásokhoz való felhasználását is. Személyes adataim kezelésével kapcsolatban tájékoztatást kérhetek a kutatás résztvevőitől, az adatkezelés ellen tiltakozhatok, kérhetem személyes adataim helyesbítését, törlését vagy zárolását, valamint jogorvoslatért a Nemzeti Adatvédelmi és Információszabadság Hatósághoz fordulhatok.</p><p>Kijelentem, hogy a kutatásban való részvételem körülményeiről részletes tájékoztatást kaptam, és a feltételeket elfogadom.</p>","0","","","","","",""
"survey-text","4","105322","0.0-4.0","29945","","{""Q0"":""JFI8HN"",""Q1"":""férfi"",""Q2"":""1999"",""Q3"":""16""}","","","","","",""
"html-button-response","5","107689","0.0-5.0","1853","<p>Ebben a játékban szavakat kell toldalékolni.</p> <p>Minden körben mutatunk majd egy példamondatot, amiben lesz egy szó.</p> <p>Alatta jön egy második mondat, ezt a mondatot neked kell majd befejezni, ugyanezzel a szóval.</p> <p>Nem biztos, hogy a szó eleve ismerős lesz számodra!</p> <p>Minden mondathoz adunk két lehetőséget, ezeket balra és jobbra látod majd.</p> <p>A játék kb. negyedóráig-húsz percig tart.</p>","0","","","","","",""
"html-button-response","6","116752","0.0-6.0","8562","<p>Nézzünk egy példát!</p> <p>A példamondat: ""János nagyon szeret rancsúrozni.""</p><p>Neked ezt a mondatot kell befejezned: ""Én is szívesen...""</p><p>A lehetőségek pedig ezek:</p>","0","","","","","",""
"html-button-response","7","121553","0.0-7.0","4288","<p>Nagyon jó.</p><p>Ezt a játékot nem egyedül fogod játszani, hanem egy másik játékossal.</p><p>Mielőtt továbblépünk, összekapcsolunk titeket egymással.</p><p>Ez igénybe vehet néhány másodpercet, amihez szíves türelmed kérjük.</p>","0","","","","","",""
"html-button-response","8","127294","0.0-8.0","null","<p>Csatlakozás a másik játékoshoz...</p>","null","","","","","",""
"html-button-response","9","129810","0.0-9.0","null","<p> Sikeres kapcsolódás!</p>","null","","","","","",""
"html-button-response","10","137065","0.0-10.0","6754","<p>A következőkben ketten játsszátok a szóválasztós játékot.</p><p>A feladatotok az lesz, hogy minden körben <b>ugyanazt</b> a szót válasszátok.</p><p>Minden ilyen egyező válaszért pontot kaptok.</p><p>Próbáld meg kitalálni, mit választ a másik játékos!</p><p>Bármikor választhatsz, a körnek akkor van vége, ha mindketten döntöttetek.</p><p>Sok sikert!</p>","0","","","","","",""
"html-button-response-esp","11","143713","0.0-11.0-0.0","6132","Te bizony sokat prohódzol. Én is sokat...","1","prohódzom","[""prohódzok"",""prohódzom""]","prohódzom","esp trial","11","true"
"html-button-response","12","147228","0.0-11.0-1.0","null","<p>A másik játékos ezt választotta: <b>prohódzom</b>.</p><p>&#x2705;</p><p>A te válaszod és a másik játékos válasza <b>megegyeznek</b>.</p>","null","","","","feedback trial","",""
"html-button-response-esp","13","153768","0.0-11.0-0.1","6038","Te bizony sokat flérlesz. Én is sokat...","0","flérlem","[""flérlem"",""flérlek""]","flérlek","esp trial","11","false"
"html-button-response","14","157297","0.0-11.0-1.1","null","<p>A másik játékos ezt választotta: <b>flérlek</b>.</p><p>&#10060;</p><p>A válaszaitok <b>nem</b> egyeznek meg.</p>","null","","","","feedback trial","",""
"html-button-response-esp","15","161053","0.0-11.0-0.2","3023","Te bizony sokat huklasz. Én is sokat...","1","huklom","[""huklok"",""huklom""]","huklom","esp trial","11","true"
"html-button-response","16","164578","0.0-11.0-1.2","null","<p>A másik játékos ezt választotta: <b>huklom</b>.</p><p>&#x2705;</p><p>A te válaszod és a másik játékos válasza <b>megegyeznek</b>.</p>","null","","","","feedback trial","",""
"html-button-response-esp","17","168335","0.0-11.0-0.3","1166","Te bizony sokat fivénylesz. Én is sokat...","0","fivénylem","[""fivénylem"",""fivénylek""]","fivénylem","esp trial","11","true"
"html-button-response","18","171853","0.0-11.0-1.3","null","<p>A másik játékos ezt választotta: <b>fivénylem</b>.</p><p>&#x2705;</p><p>A te válaszod és a másik játékos válasza <b>megegyeznek</b>.</p>","null","","","","feedback trial","",""
"html-button-response-esp","19","175600","0.0-11.0-0.4","1097","Te bizony sokat spélszel. Én is sokat...","1","spélszem","[""spélszek"",""spélszem""]","spélszem","esp trial","11","true"
"html-button-response","20","179116","0.0-11.0-1.4","null","<p>A másik játékos ezt választotta: <b>spélszem</b>.</p><p>&#x2705;</p><p>A te válaszod és a másik játékos válasza <b>megegyeznek</b>.</p>","null","","","","feedback trial","",""
"html-button-response-esp","21","182865","0.0-11.0-0.5","1003","Te bizony sokat sprédlesz. Én is sokat...","0","sprédlem","[""sprédlem"",""sprédlek""]","sprédlek","esp trial","11","false"
"html-button-response","22","186386","0.0-11.0-1.5","null","<p>A másik játékos ezt választotta: <b>sprédlek</b>.</p><p>&#10060;</p><p>A válaszaitok <b>nem</b> egyeznek meg.</p>","null","","","","feedback trial","",""
"html-button-response-esp","23","190138","0.0-11.0-0.6","890","Te bizony sokat prihekszel. Én is sokat...","0","prihekszem","[""prihekszem"",""prihekszek""]","prihekszem","esp trial","11","true"
"html-button-response","24","193663","0.0-11.0-1.6","null","<p>A másik játékos ezt választotta: <b>prihekszem</b>.</p><p>&#x2705;</p><p>A te válaszod és a másik játékos válasza <b>megegyeznek</b>.</p>","null","","","","feedback trial","",""
"html-button-response-esp","25","197432","0.0-11.0-0.7","942","Te bizony sokat plövőrzöl. Én is sokat...","1","plövőrzöm","[""plövőrzök"",""plövőrzöm""]","plövőrzöm","esp trial","11","true"
"html-button-response","26","200948","0.0-11.0-1.7","null","<p>A másik játékos ezt választotta: <b>plövőrzöm</b>.</p><p>&#x2705;</p><p>A te válaszod és a másik játékos válasza <b>megegyeznek</b>.</p>","null","","","","feedback trial","",""
"html-button-response-esp","27","204704","0.0-11.0-0.8","926","Te bizony sokat aglasz. Én is sokat...","1","aglom","[""aglok"",""aglom""]","aglom","esp trial","11","true"
"html-button-response","28","208227","0.0-11.0-1.8","null","<p>A másik játékos ezt választotta: <b>aglom</b>.</p><p>&#x2705;</p><p>A te válaszod és a másik játékos válasza <b>megegyeznek</b>.</p>","null","","","","feedback trial","",""
"html-button-response-esp","29","211994","0.0-11.0-0.9","815","Te bizony sokat fligzol. Én is sokat...","1","fligzom","[""fligzok"",""fligzom""]","fligzom","esp trial","11","true"
"html-button-response","30","215511","0.0-11.0-1.9","null","<p>A másik játékos ezt választotta: <b>fligzom</b>.</p><p>&#x2705;</p><p>A te válaszod és a másik játékos válasza <b>megegyeznek</b>.</p>","null","","","","feedback trial","",""
"html-button-response-esp","31","219270","0.0-11.0-0.10","919","Te bizony sokat gyivádzol. Én is sokat...","0","gyivádzom","[""gyivádzom"",""gyivádzok""]","gyivádzom","esp trial","11","true"
"html-button-response","32","222775","0.0-11.0-1.10","null","<p>A másik játékos ezt választotta: <b>gyivádzom</b>.</p><p>&#x2705;</p><p>A te válaszod és a másik játékos válasza <b>megegyeznek</b>.</p>","null","","","","feedback trial","",""
"html-button-response-esp","33","226528","0.0-11.0-0.11","1018","Te bizony sokat brarlasz. Én is sokat...","0","brarlom","[""brarlom"",""brarlok""]","brarlok","esp trial","11","false"
"html-button-response","34","230033","0.0-11.0-1.11","null","<p>A másik játékos ezt választotta: <b>brarlok</b>.</p><p>&#10060;</p><p>A válaszaitok <b>nem</b> egyeznek meg.</p>","null","","","","feedback trial","",""
"html-button-response-esp","35","233789","0.0-11.0-0.12","837","Te bizony sokat gilárzol. Én is sokat...","0","gilárzom","[""gilárzom"",""gilárzok""]","gilárzom","esp trial","11","true"
"html-button-response","36","237307","0.0-11.0-1.12","null","<p>A másik játékos ezt választotta: <b>gilárzom</b>.</p><p>&#x2705;</p><p>A te válaszod és a másik játékos válasza <b>megegyeznek</b>.</p>","null","","","","feedback trial","",""
"html-button-response-esp","37","241059","0.0-11.0-0.13","1090","Te bizony sokat spülöklesz. Én is sokat...","1","spülöklöm","[""spülöklök"",""spülöklöm""]","spülöklöm","esp trial","11","true"
"html-button-response","38","244578","0.0-11.0-1.13","null","<p>A másik játékos ezt választotta: <b>spülöklöm</b>.</p><p>&#x2705;</p><p>A te válaszod és a másik játékos válasza <b>megegyeznek</b>.</p>","null","","","","feedback trial","",""
"html-button-response-esp","39","248341","0.0-11.0-0.14","850","Te bizony sokat gyibakszol. Én is sokat...","0","gyibakszom","[""gyibakszom"",""gyibakszok""]","gyibakszom","esp trial","11","true"
"html-button-response","40","251850","0.0-11.0-1.14","null","<p>A másik játékos ezt választotta: <b>gyibakszom</b>.</p><p>&#x2705;</p><p>A te válaszod és a másik játékos válasza <b>megegyeznek</b>.</p>","null","","","","feedback trial","",""
"html-button-response-esp","41","255610","0.0-11.0-0.15","837","Te bizony sokat praslasz. Én is sokat...","1","praslom","[""praslok"",""praslom""]","praslok","esp trial","11","false"
"html-button-response","42","259119","0.0-11.0-1.15","null","<p>A másik játékos ezt választotta: <b>praslok</b>.</p><p>&#10060;</p><p>A válaszaitok <b>nem</b> egyeznek meg.</p>","null","","","","feedback trial","",""
"html-button-response-esp","43","262876","0.0-11.0-0.16","790","Te bizony sokat szűslesz. Én is sokat...","1","szűslöm","[""szűslök"",""szűslöm""]","szűslök","esp trial","11","false"
"html-button-response","44","266389","0.0-11.0-1.16","null","<p>A másik játékos ezt választotta: <b>szűslök</b>.</p><p>&#10060;</p><p>A válaszaitok <b>nem</b> egyeznek meg.</p>","null","","","","feedback trial","",""
"html-button-response-esp","45","270138","0.0-11.0-0.17","925","Te bizony sokat bivejlesz. Én is sokat...","0","bivejlem","[""bivejlem"",""bivejlek""]","bivejlek","esp trial","11","false"
"html-button-response","46","273660","0.0-11.0-1.17","null","<p>A másik játékos ezt választotta: <b>bivejlek</b>.</p><p>&#10060;</p><p>A válaszaitok <b>nem</b> egyeznek meg.</p>","null","","","","feedback trial","",""
"html-button-response-esp","47","277423","0.0-11.0-0.18","855","Te bizony sokat spibádzol. Én is sokat...","1","spibádzom","[""spibádzok"",""spibádzom""]","spibádzom","esp trial","11","true"
"html-button-response","48","280938","0.0-11.0-1.18","null","<p>A másik játékos ezt választotta: <b>spibádzom</b>.</p><p>&#x2705;</p><p>A te válaszod és a másik játékos válasza <b>megegyeznek</b>.</p>","null","","","","feedback trial","",""
"html-button-response-esp","49","284684","0.0-11.0-0.19","913","Te bizony sokat préleglesz. Én is sokat...","1","préleglem","[""préleglek"",""préleglem""]","préleglem","esp trial","11","true"
"html-button-response","50","288200","0.0-11.0-1.19","null","<p>A másik játékos ezt választotta: <b>préleglem</b>.</p><p>&#x2705;</p><p>A te válaszod és a másik játékos válasza <b>megegyeznek</b>.</p>","null","","","","feedback trial","",""
"html-button-response-esp","51","291949","0.0-11.0-0.20","998","Te bizony sokat frágapszol. Én is sokat...","1","frágapszom","[""frágapszok"",""frágapszom""]","frágapszom","esp trial","11","true"
"html-button-response","52","295467","0.0-11.0-1.20","null","<p>A másik játékos ezt választotta: <b>frágapszom</b>.</p><p>&#x2705;</p><p>A te válaszod és a másik játékos válasza <b>megegyeznek</b>.</p>","null","","","","feedback trial","",""
"html-button-response-esp","53","299220","0.0-11.0-0.21","701","Te bizony sokat táklasz. Én is sokat...","1","táklom","[""táklok"",""táklom""]","táklom","esp trial","11","true"
"html-button-response","54","302730","0.0-11.0-1.21","null","<p>A másik játékos ezt választotta: <b>táklom</b>.</p><p>&#x2705;</p><p>A te válaszod és a másik játékos válasza <b>megegyeznek</b>.</p>","null","","","","feedback trial","",""
"html-button-response-esp","55","306492","0.0-11.0-0.22","772","Te bizony sokat spírzol. Én is sokat...","0","spírzom","[""spírzom"",""spírzok""]","spírzom","esp trial","11","true"
"html-button-response","56","310014","0.0-11.0-1.22","null","<p>A másik játékos ezt választotta: <b>spírzom</b>.</p><p>&#x2705;</p><p>A te válaszod és a másik játékos válasza <b>megegyeznek</b>.</p>","null","","","","feedback trial","",""
"html-button-response-esp","57","313763","0.0-11.0-0.23","1068","Te bizony sokat spülőrzöl. Én is sokat...","1","spülőrzöm","[""spülőrzök"",""spülőrzöm""]","spülőrzöm","esp trial","11","true"
"html-button-response","58","317280","0.0-11.0-1.23","null","<p>A másik játékos ezt választotta: <b>spülőrzöm</b>.</p><p>&#x2705;</p><p>A te válaszod és a másik játékos válasza <b>megegyeznek</b>.</p>","null","","","","feedback trial","",""
"html-button-response-esp","59","321027","0.0-11.0-0.24","867","Te bizony sokat gerénylesz. Én is sokat...","1","gerénylem","[""gerénylek"",""gerénylem""]","gerénylek","esp trial","11","false"
"html-button-response","60","324540","0.0-11.0-1.24","null","<p>A másik játékos ezt választotta: <b>gerénylek</b>.</p><p>&#10060;</p><p>A válaszaitok <b>nem</b> egyeznek meg.</p>","null","","","","feedback trial","",""
"html-button-response-esp","61","328295","0.0-11.0-0.25","836","Te bizony sokat tuboklasz. Én is sokat...","0","tuboklom","[""tuboklom"",""tuboklok""]","tuboklom","esp trial","11","true"
"html-button-response","62","331822","0.0-11.0-1.25","null","<p>A másik játékos ezt választotta: <b>tuboklom</b>.</p><p>&#x2705;</p><p>A te válaszod és a másik játékos válasza <b>megegyeznek</b>.</p>","null","","","","feedback trial","",""
"html-button-response-esp","63","335584","0.0-11.0-0.26","708","Te bizony sokat pugoslasz. Én is sokat...","0","pugoslom","[""pugoslom"",""pugoslok""]","pugoslok","esp trial","11","false"
"html-button-response","64","339091","0.0-11.0-1.26","null","<p>A másik játékos ezt választotta: <b>pugoslok</b>.</p><p>&#10060;</p><p>A válaszaitok <b>nem</b> egyeznek meg.</p>","null","","","","feedback trial","",""
"html-button-response-esp","65","342845","0.0-11.0-0.27","1384","Te bizony sokat mékszel. Én is sokat...","0","mékszem","[""mékszem"",""mékszek""]","mékszem","esp trial","11","true"
"html-button-response","66","346358","0.0-11.0-1.27","null","<p>A másik játékos ezt választotta: <b>mékszem</b>.</p><p>&#x2705;</p><p>A te válaszod és a másik játékos válasza <b>megegyeznek</b>.</p>","null","","","","feedback trial","",""
"html-button-response-esp","67","350103","0.0-11.0-0.28","1658","Te bizony sokat spüszlesz. Én is sokat...","1","spüszlöm","[""spüszlök"",""spüszlöm""]","spüszlöm","esp trial","11","true"
"html-button-response","68","353624","0.0-11.0-1.28","null","<p>A másik játékos ezt választotta: <b>spüszlöm</b>.</p><p>&#x2705;</p><p>A te válaszod és a másik játékos válasza <b>megegyeznek</b>.</p>","null","","","","feedback trial","",""
"html-button-response-esp","69","357387","0.0-11.0-0.29","1445","Te bizony sokat fliraklasz. Én is sokat...","1","fliraklom","[""fliraklok"",""fliraklom""]","fliraklom","esp trial","11","true"
"html-button-response","70","360905","0.0-11.0-1.29","null","<p>A másik játékos ezt választotta: <b>fliraklom</b>.</p><p>&#x2705;</p><p>A te válaszod és a másik játékos válasza <b>megegyeznek</b>.</p>","null","","","","feedback trial","",""
"html-button-response-esp","71","364657","0.0-11.0-0.30","1669","Te bizony sokat vűjlesz. Én is sokat...","1","vűjlöm","[""vűjlök"",""vűjlöm""]","vűjlök","esp trial","11","false"
"html-button-response","72","368163","0.0-11.0-1.30","null","<p>A másik játékos ezt választotta: <b>vűjlök</b>.</p><p>&#10060;</p><p>A válaszaitok <b>nem</b> egyeznek meg.</p>","null","","","","feedback trial","",""
"html-button-response-esp","73","371921","0.0-11.0-0.31","1394","Te bizony sokat csólorzol. Én is sokat...","0","csólorzom","[""csólorzom"",""csólorzok""]","csólorzom","esp trial","11","true"
"html-button-response","74","375424","0.0-11.0-1.31","null","<p>A másik játékos ezt választotta: <b>csólorzom</b>.</p><p>&#x2705;</p><p>A te válaszod és a másik játékos válasza <b>megegyeznek</b>.</p>","null","","","","feedback trial","",""
"html-button-response-esp","75","379172","0.0-11.0-0.32","1365","Te bizony sokat plágadzol. Én is sokat...","1","plágadzom","[""plágadzok"",""plágadzom""]","plágadzom","esp trial","11","true"
"html-button-response","76","382686","0.0-11.0-1.32","null","<p>A másik játékos ezt választotta: <b>plágadzom</b>.</p><p>&#x2705;</p><p>A te válaszod és a másik játékos válasza <b>megegyeznek</b>.</p>","null","","","","feedback trial","",""
"html-button-response-esp","77","386439","0.0-11.0-0.33","1748","Te bizony sokat kumlasz. Én is sokat...","0","kumlom","[""kumlom"",""kumlok""]","kumlok","esp trial","11","false"
"html-button-response","78","389959","0.0-11.0-1.33","null","<p>A másik játékos ezt választotta: <b>kumlok</b>.</p><p>&#10060;</p><p>A válaszaitok <b>nem</b> egyeznek meg.</p>","null","","","","feedback trial","",""
"html-button-response-esp","79","393716","0.0-11.0-0.34","1338","Te bizony sokat lihadzol. Én is sokat...","1","lihadzom","[""lihadzok"",""lihadzom""]","lihadzom","esp trial","11","true"
"html-button-response","80","397234","0.0-11.0-1.34","null","<p>A másik játékos ezt választotta: <b>lihadzom</b>.</p><p>&#x2705;</p><p>A te válaszod és a másik játékos válasza <b>megegyeznek</b>.</p>","null","","","","feedback trial","",""
"html-button-response-esp","81","400981","0.0-11.0-0.35","924","Te bizony sokat spatszol. Én is sokat...","1","spatszom","[""spatszok"",""spatszom""]","spatszom","esp trial","11","true"
"html-button-response","82","404501","0.0-11.0-1.35","null","<p>A másik játékos ezt választotta: <b>spatszom</b>.</p><p>&#x2705;</p><p>A te válaszod és a másik játékos válasza <b>megegyeznek</b>.</p>","null","","","","feedback trial","",""
"html-button-response-esp","83","408246","0.0-11.0-0.36","1380","Te bizony sokat floglasz. Én is sokat...","0","floglom","[""floglom"",""floglok""]","floglom","esp trial","11","true"
"html-button-response","84","411764","0.0-11.0-1.36","null","<p>A másik játékos ezt választotta: <b>floglom</b>.</p><p>&#x2705;</p><p>A te válaszod és a másik játékos válasza <b>megegyeznek</b>.</p>","null","","","","feedback trial","",""
"html-button-response-esp","85","415528","0.0-11.0-0.37","1226","Te bizony sokat livaklasz. Én is sokat...","0","livaklom","[""livaklom"",""livaklok""]","livaklom","esp trial","11","true"
"html-button-response","86","419048","0.0-11.0-1.37","null","<p>A másik játékos ezt választotta: <b>livaklom</b>.</p><p>&#x2705;</p><p>A te válaszod és a másik játékos válasza <b>megegyeznek</b>.</p>","null","","","","feedback trial","",""
"html-button-response-esp","87","422813","0.0-11.0-0.38","1165","Te bizony sokat sprálszol. Én is sokat...","1","sprálszom","[""sprálszok"",""sprálszom""]","sprálszom","esp trial","11","true"
"html-button-response","88","426327","0.0-11.0-1.38","null","<p>A másik játékos ezt választotta: <b>sprálszom</b>.</p><p>&#x2705;</p><p>A te válaszod és a másik játékos válasza <b>megegyeznek</b>.</p>","null","","","","feedback trial","",""
"html-button-response-esp","89","430092","0.0-11.0-0.39","1243","Te bizony sokat drügzöl. Én is sokat...","1","drügzöm","[""drügzök"",""drügzöm""]","drügzöm","esp trial","11","true"
"html-button-response","90","433599","0.0-11.0-1.39","null","<p>A másik játékos ezt választotta: <b>drügzöm</b>.</p><p>&#x2705;</p><p>A te válaszod és a másik játékos válasza <b>megegyeznek</b>.</p>","null","","","","feedback trial","",""
"html-button-response-esp","91","437356","0.0-11.0-0.40","882","Te bizony sokat prezlesz. Én is sokat...","0","prezlem","[""prezlem"",""prezlek""]","prezlek","esp trial","11","false"
"html-button-response","92","440866","0.0-11.0-1.40","null","<p>A másik játékos ezt választotta: <b>prezlek</b>.</p><p>&#10060;</p><p>A válaszaitok <b>nem</b> egyeznek meg.</p>","null","","","","feedback trial","",""
"html-button-response-esp","93","444613","0.0-11.0-0.41","1595","Te bizony sokat trihagzol. Én is sokat...","0","trihagzom","[""trihagzom"",""trihagzok""]","trihagzom","esp trial","11","true"
"html-button-response","94","448136","0.0-11.0-1.41","null","<p>A másik játékos ezt választotta: <b>trihagzom</b>.</p><p>&#x2705;</p><p>A te válaszod és a másik játékos válasza <b>megegyeznek</b>.</p>","null","","","","feedback trial","",""
"html-button-response-esp","95","451889","0.0-11.0-0.42","1290","Te bizony sokat flözlesz. Én is sokat...","0","flözlöm","[""flözlöm"",""flözlök""]","flözlök","esp trial","11","false"
"html-button-response","96","455405","0.0-11.0-1.42","null","<p>A másik játékos ezt választotta: <b>flözlök</b>.</p><p>&#10060;</p><p>A válaszaitok <b>nem</b> egyeznek meg.</p>","null","","","","feedback trial","",""
"html-button-response-esp","97","459155","0.0-11.0-0.43","1649","Te bizony sokat klidlasz. Én is sokat...","1","klidlom","[""klidlok"",""klidlom""]","klidlok","esp trial","11","false"
"html-button-response","98","462686","0.0-11.0-1.43","null","<p>A másik játékos ezt választotta: <b>klidlok</b>.</p><p>&#10060;</p><p>A válaszaitok <b>nem</b> egyeznek meg.</p>","null","","","","feedback trial","",""
"html-button-response-esp","99","466454","0.0-11.0-0.44","1193","Te bizony sokat ibáglasz. Én is sokat...","0","ibáglom","[""ibáglom"",""ibáglok""]","ibáglom","esp trial","11","true"
"html-button-response","100","469971","0.0-11.0-1.44","null","<p>A másik játékos ezt választotta: <b>ibáglom</b>.</p><p>&#x2705;</p><p>A te válaszod és a másik játékos válasza <b>megegyeznek</b>.</p>","null","","","","feedback trial","",""
"html-button-response-esp","101","473719","0.0-11.0-0.45","914","Te bizony sokat vihepszel. Én is sokat...","0","vihepszem","[""vihepszem"",""vihepszek""]","vihepszem","esp trial","11","true"
"html-button-response","102","477243","0.0-11.0-1.45","null","<p>A másik játékos ezt választotta: <b>vihepszem</b>.</p><p>&#x2705;</p><p>A te válaszod és a másik játékos válasza <b>megegyeznek</b>.</p>","null","","","","feedback trial","",""
"html-button-response-esp","103","481000","0.0-11.0-0.46","1260","Te bizony sokat péleslesz. Én is sokat...","1","péleslem","[""péleslek"",""péleslem""]","péleslem","esp trial","11","true"
"html-button-response","104","484514","0.0-11.0-1.46","null","<p>A másik játékos ezt választotta: <b>péleslem</b>.</p><p>&#x2705;</p><p>A te válaszod és a másik játékos válasza <b>megegyeznek</b>.</p>","null","","","","feedback trial","",""
"html-button-response-esp","105","488275","0.0-11.0-0.47","1238","Te bizony sokat flibekszel. Én is sokat...","0","flibekszem","[""flibekszem"",""flibekszek""]","flibekszem","esp trial","11","true"
"html-button-response","106","491798","0.0-11.0-1.47","null","<p>A másik játékos ezt választotta: <b>flibekszem</b>.</p><p>&#x2705;</p><p>A te válaszod és a másik játékos válasza <b>megegyeznek</b>.</p>","null","","","","feedback trial","",""
"html-button-response-esp","107","495552","0.0-11.0-0.48","2305","Te bizony sokat frivajlasz. Én is sokat...","0","frivajlom","[""frivajlom"",""frivajlok""]","frivajlok","esp trial","11","false"
"html-button-response","108","499061","0.0-11.0-1.48","null","<p>A másik játékos ezt választotta: <b>frivajlok</b>.</p><p>&#10060;</p><p>A válaszaitok <b>nem</b> egyeznek meg.</p>","null","","","","feedback trial","",""
"html-button-response-esp","109","502825","0.0-11.0-0.49","1530","Te bizony sokat féjzel. Én is sokat...","1","féjzem","[""féjzek"",""féjzem""]","féjzem","esp trial","11","true"
"html-button-response","110","506339","0.0-11.0-1.49","null","<p>A másik játékos ezt választotta: <b>féjzem</b>.</p><p>&#x2705;</p><p>A te válaszod és a másik játékos válasza <b>megegyeznek</b>.</p>","null","","","","feedback trial","",""
"html-button-response-esp","111","510095","0.0-11.0-0.50","1206","Te bizony sokat friszlasz. Én is sokat...","1","friszlom","[""friszlok"",""friszlom""]","friszlom","esp trial","11","true"
"html-button-response","112","513611","0.0-11.0-1.50","null","<p>A másik játékos ezt választotta: <b>friszlom</b>.</p><p>&#x2705;</p><p>A te válaszod és a másik játékos válasza <b>megegyeznek</b>.</p>","null","","","","feedback trial","",""
"html-button-response-esp","113","517371","0.0-11.0-0.51","1428","Te bizony sokat klárzol. Én is sokat...","0","klárzom","[""klárzom"",""klárzok""]","klárzom","esp trial","11","true"
"html-button-response","114","520876","0.0-11.0-1.51","null","<p>A másik játékos ezt választotta: <b>klárzom</b>.</p><p>&#x2705;</p><p>A te válaszod és a másik játékos válasza <b>megegyeznek</b>.</p>","null","","","","feedback trial","",""
"html-button-response-esp","115","524641","0.0-11.0-0.52","1097","Te bizony sokat sztruglasz. Én is sokat...","0","sztruglom","[""sztruglom"",""sztruglok""]","sztruglom","esp trial","11","true"
"html-button-response","116","528158","0.0-11.0-1.52","null","<p>A másik játékos ezt választotta: <b>sztruglom</b>.</p><p>&#x2705;</p><p>A te válaszod és a másik játékos válasza <b>megegyeznek</b>.</p>","null","","","","feedback trial","",""
"html-button-response-esp","117","531920","0.0-11.0-0.53","965","Te bizony sokat zödlesz. Én is sokat...","0","zödlöm","[""zödlöm"",""zödlök""]","zödlök","esp trial","11","false"
"html-button-response","118","535450","0.0-11.0-1.53","null","<p>A másik játékos ezt választotta: <b>zödlök</b>.</p><p>&#10060;</p><p>A válaszaitok <b>nem</b> egyeznek meg.</p>","null","","","","feedback trial","",""
"html-button-response","119","542144","0.0-12.0","6191","<p>A közös játék most véget ért.</p><p>Mielőtt eláruljuk a végső pontszámodat, arra kérlek, játszd a szóválasztós játékot néhány percig egyedül is.</p><p>A feladatod ugyanaz lesz, választani két lehetőség közül.</p><p>Most viszont egyedül kell döntened, hogy te melyiket választanád.</p>","0","","","","","",""
"html-button-response-clever","120","545017","0.0-13.0-0.0","2368","Te bizony sokat narjárzol. Én is sokat...","0","narjárzok","[""narjárzok"",""narjárzom""]","","posttest trial","1",""
"html-button-response-clever","121","546817","0.0-13.0-0.1","1299","Te bizony sokat böjzöl. Én is sokat...","0","böjzök","[""böjzök"",""böjzöm""]","","posttest trial","1",""
"html-button-response-clever","122","548400","0.0-13.0-0.2","1081","Te bizony sokat fibamlasz. Én is sokat...","0","fibamlok","[""fibamlok"",""fibamlom""]","","posttest trial","1",""
"html-button-response-clever","123","549792","0.0-13.0-0.3","880","Te bizony sokat prűrlesz. Én is sokat...","1","prűrlök","[""prűrlöm"",""prűrlök""]","","posttest trial","1",""
"html-button-response-clever","124","551369","0.0-13.0-0.4","1061","Te bizony sokat tiregzel. Én is sokat...","1","tiregzek","[""tiregzem"",""tiregzek""]","","posttest trial","1",""
"html-button-response-clever","125","553057","0.0-13.0-0.5","1188","Te bizony sokat drubódzol. Én is sokat...","0","drubódzok","[""drubódzok"",""drubódzom""]","","posttest trial","1",""
"html-button-response-clever","126","554337","0.0-13.0-0.6","762","Te bizony sokat flagánylasz. Én is sokat...","1","flagánylok","[""flagánylom"",""flagánylok""]","","posttest trial","1",""
"html-button-response-clever","127","555760","0.0-13.0-0.7","909","Te bizony sokat csíszlasz. Én is sokat...","1","csíszlok","[""csíszlom"",""csíszlok""]","","posttest trial","1",""
"html-button-response-clever","128","557024","0.0-13.0-0.8","761","Te bizony sokat flűröklesz. Én is sokat...","0","flűröklök","[""flűröklök"",""flűröklöm""]","","posttest trial","1",""
"html-button-response-clever","129","558488","0.0-13.0-0.9","955","Te bizony sokat sűzlesz. Én is sokat...","0","sűzlök","[""sűzlök"",""sűzlöm""]","","posttest trial","1",""
"html-button-response-clever","130","559704","0.0-13.0-0.10","712","Te bizony sokat driládzol. Én is sokat...","0","driládzok","[""driládzok"",""driládzom""]","","posttest trial","1",""
"html-button-response-clever","131","561080","0.0-13.0-0.11","875","Te bizony sokat ribzol. Én is sokat...","0","ribzok","[""ribzok"",""ribzom""]","","posttest trial","1",""
"html-button-response-clever","132","562361","0.0-13.0-0.12","766","Te bizony sokat flüröslesz. Én is sokat...","0","flüröslök","[""flüröslök"",""flüröslöm""]","","posttest trial","1",""
"html-button-response-clever","133","563704","0.0-13.0-0.13","830","Te bizony sokat nyáslasz. Én is sokat...","1","nyáslok","[""nyáslom"",""nyáslok""]","","posttest trial","1",""
"html-button-response-clever","134","565448","0.0-13.0-0.14","1238","Te bizony sokat feténylesz. Én is sokat...","1","feténylek","[""feténylem"",""feténylek""]","","posttest trial","1",""
"html-button-response-clever","135","566657","0.0-13.0-0.15","701","Te bizony sokat hilarzol. Én is sokat...","0","hilarzok","[""hilarzok"",""hilarzom""]","","posttest trial","1",""
"html-button-response-clever","136","567904","0.0-13.0-0.16","737","Te bizony sokat ruslasz. Én is sokat...","0","ruslok","[""ruslok"",""ruslom""]","","posttest trial","1",""
"html-button-response-clever","137","569243","0.0-13.0-0.17","835","Te bizony sokat spéslesz. Én is sokat...","0","spéslek","[""spéslek"",""spéslem""]","","posttest trial","1",""
"html-button-response-clever","138","570497","0.0-13.0-0.18","750","Te bizony sokat málapszol. Én is sokat...","0","málapszok","[""málapszok"",""málapszom""]","","posttest trial","1",""
"html-button-response-clever","139","571736","0.0-13.0-0.19","737","Te bizony sokat flagárzol. Én is sokat...","0","flagárzok","[""flagárzok"",""flagárzom""]","","posttest trial","1",""
"html-button-response-clever","140","573058","0.0-13.0-0.20","815","Te bizony sokat sprogzol. Én is sokat...","1","sprogzok","[""sprogzom"",""sprogzok""]","","posttest trial","1",""
"html-button-response-clever","141","574312","0.0-13.0-0.21","744","Te bizony sokat spűmlesz. Én is sokat...","0","spűmlök","[""spűmlök"",""spűmlöm""]","","posttest trial","1",""
"html-button-response-clever","142","575552","0.0-13.0-0.22","723","Te bizony sokat marzol. Én is sokat...","1","marzok","[""marzom"",""marzok""]","","posttest trial","1",""
"html-button-response-clever","143","576776","0.0-13.0-0.23","713","Te bizony sokat frilegszel. Én is sokat...","0","frilegszek","[""frilegszek"",""frilegszem""]","","posttest trial","1",""
"html-button-response-clever","144","578120","0.0-13.0-0.24","828","Te bizony sokat vilakszol. Én is sokat...","0","vilakszok","[""vilakszok"",""vilakszom""]","","posttest trial","1",""
"html-button-response-clever","145","579400","0.0-13.0-0.25","771","Te bizony sokat prilegzel. Én is sokat...","0","prilegzek","[""prilegzek"",""prilegzem""]","","posttest trial","1",""
"html-button-response-clever","146","580648","0.0-13.0-0.26","735","Te bizony sokat pratánylasz. Én is sokat...","1","pratánylok","[""pratánylom"",""pratánylok""]","","posttest trial","1",""
"html-button-response-clever","147","582008","0.0-13.0-0.27","846","Te bizony sokat femlesz. Én is sokat...","1","femlek","[""femlem"",""femlek""]","","posttest trial","1",""
"html-button-response-clever","148","583336","0.0-13.0-0.28","821","Te bizony sokat trilszol. Én is sokat...","1","trilszok","[""trilszom"",""trilszok""]","","posttest trial","1",""
"html-button-response-clever","149","584520","0.0-13.0-0.29","678","Te bizony sokat lorjódzol. Én is sokat...","1","lorjódzok","[""lorjódzom"",""lorjódzok""]","","posttest trial","1",""
"html-button-response-clever","150","585744","0.0-13.0-0.30","709","Te bizony sokat piragszol. Én is sokat...","0","piragszok","[""piragszok"",""piragszom""]","","posttest trial","1",""
"html-button-response-clever","151","586952","0.0-13.0-0.31","704","Te bizony sokat spibaklasz. Én is sokat...","0","spibaklok","[""spibaklok"",""spibaklom""]","","posttest trial","1",""
"html-button-response-clever","152","588169","0.0-13.0-0.32","705","Te bizony sokat pebzel. Én is sokat...","1","pebzek","[""pebzem"",""pebzek""]","","posttest trial","1",""
"html-button-response-clever","153","589344","0.0-13.0-0.33","664","Te bizony sokat siladzol. Én is sokat...","0","siladzok","[""siladzok"",""siladzom""]","","posttest trial","1",""
"html-button-response-clever","154","590705","0.0-13.0-0.34","847","Te bizony sokat tomlasz. Én is sokat...","0","tomlok","[""tomlok"",""tomlom""]","","posttest trial","1",""
"html-button-response-clever","155","591944","0.0-13.0-0.35","730","Te bizony sokat klibamlasz. Én is sokat...","0","klibamlok","[""klibamlok"",""klibamlom""]","","posttest trial","1",""
"html-button-response-clever","156","593600","0.0-13.0-0.36","1141","Te bizony sokat sztremlesz. Én is sokat...","1","sztremlek","[""sztremlem"",""sztremlek""]","","posttest trial","1",""
"html-button-response-clever","157","595089","0.0-13.0-0.37","985","Te bizony sokat sojzol. Én is sokat...","1","sojzok","[""sojzom"",""sojzok""]","","posttest trial","1",""
"html-button-response-clever","158","596369","0.0-13.0-0.38","776","Te bizony sokat pivegszel. Én is sokat...","0","pivegszek","[""pivegszek"",""pivegszem""]","","posttest trial","1",""
"html-button-response-clever","159","597681","0.0-13.0-0.39","805","Te bizony sokat büglesz. Én is sokat...","0","büglök","[""büglök"",""büglöm""]","","posttest trial","1",""
"html-button-response-clever","160","598984","0.0-13.0-0.40","797","Te bizony sokat bölszöl. Én is sokat...","1","bölszök","[""bölszöm"",""bölszök""]","","posttest trial","1",""
"html-button-response-clever","161","600272","0.0-13.0-0.41","785","Te bizony sokat spilágzol. Én is sokat...","1","spilágzok","[""spilágzom"",""spilágzok""]","","posttest trial","1",""
"html-button-response-clever","162","601650","0.0-13.0-0.42","866","Te bizony sokat szirlasz. Én is sokat...","1","szirlok","[""szirlom"",""szirlok""]","","posttest trial","1",""
"html-button-response-clever","163","602872","0.0-13.0-0.43","717","Te bizony sokat tínylasz. Én is sokat...","1","tínylok","[""tínylom"",""tínylok""]","","posttest trial","1",""
"html-button-response-clever","164","604321","0.0-13.0-0.44","940","Te bizony sokat sprökszöl. Én is sokat...","0","sprökszök","[""sprökszök"",""sprökszöm""]","","posttest trial","1",""
"html-button-response-clever","165","605688","0.0-13.0-0.45","852","Te bizony sokat herégszel. Én is sokat...","1","herégszek","[""herégszem"",""herégszek""]","","posttest trial","1",""
"html-button-response-clever","166","607448","0.0-13.0-0.46","1247","Te bizony sokat juszlasz. Én is sokat...","0","juszlok","[""juszlok"",""juszlom""]","","posttest trial","1",""
"html-button-response-clever","167","608696","0.0-13.0-0.47","747","Te bizony sokat brágaklasz. Én is sokat...","0","brágaklok","[""brágaklok"",""brágaklom""]","","posttest trial","1",""
"html-button-response-clever","168","609936","0.0-13.0-0.48","733","Te bizony sokat klörlesz. Én is sokat...","1","klörlök","[""klörlöm"",""klörlök""]","","posttest trial","1",""
"html-button-response-clever","169","611319","0.0-13.0-0.49","877","Te bizony sokat ribegzel. Én is sokat...","0","ribegzek","[""ribegzek"",""ribegzem""]","","posttest trial","1",""
"html-button-response-clever","170","612512","0.0-13.0-0.50","683","Te bizony sokat spatárzol. Én is sokat...","0","spatárzok","[""spatárzok"",""spatárzom""]","","posttest trial","1",""
"html-button-response-clever","171","613712","0.0-13.0-0.51","687","Te bizony sokat fretszel. Én is sokat...","0","fretszek","[""fretszek"",""fretszem""]","","posttest trial","1",""
"html-button-response-clever","172","614985","0.0-13.0-0.52","768","Te bizony sokat brüjlesz. Én is sokat...","1","brüjlök","[""brüjlöm"",""brüjlök""]","","posttest trial","1",""
"html-button-response-clever","173","616224","0.0-13.0-0.53","735","Te bizony sokat jüslesz. Én is sokat...","1","jüslök","[""jüslöm"",""jüslök""]","","posttest trial","1",""
"html-button-response","174","619833","0.0-14.0","3098","<p> Vége a játéknak. A teljes pontszámod 39/54.</p><p> Szép munka! &#128526;&#128526;&#128526;</p><p>A Befejezés gomb megnyomása után bezárhatod a böngészőablakot.</p>","0","","","","","",""
"html-keyboard-response","175","625359","0.0-15.0","null","<div class=""message"">
         <p>Egy kis türelmet kérünk, amíg elmentjük az adatokat...</p>
         </div>","null","","","","","",""
