"trial_type","trial_index","time_elapsed","internal_node_id","rt","stimulus","response","response_string","choices","esp_response","trial_kind","list_number","esp_match"
"pavlovia","0","949","0.0-0.0","","","","","","","","",""
"html-button-response","1","187820","0.0-1.0","185533","<p>Kedves Résztvevő! A Budapesti Műszaki és Gazdaságtudományi Egyetem Kognitív Tudományi Tanszékének kutatásában való részvételed kérjük. A kutatásban azt vizsgáljuk, hogy a magyar anyanyelvűek hogyan használnak bizonyos szóalakokat, és hogy milyen képük van arról, hogy mások hogyan használják, hogyan képzik a szavakat. Ez hozzásegít bennünket ahhoz, hogy jobban megértsük, hogyan dolgozza fel és tárolja a nyelvet az emberi agy, és hogyan működnek, hogyan változnak egy adott közösség nyelvi konvenciói.</p><p>A vizsgálat egy rövid számítógépes feladatból fog állni. A kutatásban való részvétel önkéntes, a részvételi szándék bármikor visszavonható. A résztvevők eredményeit név nélkül kezeljük, így nem beazonosíthatók az adatok feldolgozása során. Minden személyes adatot az EU általános adatvédelmi rendeletének (GDPR) megfelelően kezelünk és legfeljebb öt éven belül megsemmisítünk. A vizsgálat jellemzően húsz percet vesz igénybe.</p><p>Kutatásvezető:</p><p>Dr. Rácz Péter, tudományos munkatárs, BME KTT</p><p>e-mail: racz.peter.marton@ttk.bme.hu</p>","0","","","","","",""
"html-button-response","2","456215","0.0-2.0","267888","<p>A kísérletben szavakat fogsz látni. Ezek között lesznek olyanok, amelyeket ismersz, de előfordulhatnak olyanok is, amelyeket nem ismersz, sőt, vannak köztük kitalált szavak is. Minden szónál látni fogsz toldalékolt alakokat. A te feladatod az lesz, hogy minden szóhoz kiválaszd azt a toldalékolt alakot, amely a te számodra ismerősebben, természetesebben hangzik. Rossz válaszok nincsenek, mert van olyan, hogy különböző embereknek más és más szó tűnik jobb választásnak. A választ úgy tudod majd kiválasztani, ha rákattintasz.</p><p>Ebben a szóválasztós játékban egy másik játékossal együtt veszel majd részt. A másik játékos is minden esetben azok közül a lehetőségek közül válogathat, mint te. Kettőtök feladata az, hogy ugyanazt a lehetőséget válasszátok minden esetben. Ahhoz, hogy ez sikerüljön, neked figyelned kell arra, hogy a másik játékos milyen válaszokat ad, és ennek alapján meg kell tippelned, hogyan választ legközelebb. Ha eltalálod, akkor pontot kapsz.</p>","0","","","","","",""
"html-button-response","3","542203","0.0-3.0","85482","<p>Kérjük, olvasd el az alábbi nyilatkozatot, és amennyiben egyetértesz vele, nyomj a Beleegyezés gombra!</p><p>Kijelentem, hogy magyar anyanyelvű személyként önként veszek részt a BME KTT kísérletében. A kutatás céljával és folyamatával kapcsolatban elegendő tájékoztatást kaptam, lehetőségem volt kérdések feltételére, és esetleges kérdéseimre megfelelő válaszokat kaptam. A tájékoztatás alapján elegendő mennyiségű információ áll a rendelkezésemre, hogy eldönthessem, részt kívánok-e venni a kutatásban.</p><p>Tisztában vagyok vele, hogy részvételi szándékomat és adataimat bármikor, indoklás nélkül visszavonhatom.</p><p>Értem és tudomásul veszem, hogy a kutatás tudományos célokat szolgál, és az általam szolgáltatott adatokat a BME kizárólag kutatási célból használja fel. Tudomásul veszem, hogy eredményeimet a többi résztvevő eredményeivel együtt kezelik, így egyéni teljesítményemről visszajelzést, szakvéleményt nem kapok.</p><p>Megértettem, hogy adataim kezelését illetően a BME az EU általános adatvédelmi rendelete (GDPR), a hatályos adatvédelmi törvény és a nemzetközi kutatás-etikai alapelvek szerint jár el. Eredményeim anonim módon kerülnek feldolgozásra, és a kutatás résztvevői az azonosításomra alkalmas adataimat harmadik félnek nem szolgáltatják ki. Engedélyezem a BME számára a jelen kutatásban felvett adataim feldolgozását és tárolását, beleértve azok későbbi kutatásokhoz való felhasználását is. Személyes adataim kezelésével kapcsolatban tájékoztatást kérhetek a kutatás résztvevőitől, az adatkezelés ellen tiltakozhatok, kérhetem személyes adataim helyesbítését, törlését vagy zárolását, valamint jogorvoslatért a Nemzeti Adatvédelmi és Információszabadság Hatósághoz fordulhatok.</p><p>Kijelentem, hogy a kutatásban való részvételem körülményeiről részletes tájékoztatást kaptam, és a feltételeket elfogadom.</p>","0","","","","","",""
"survey-text","4","576783","0.0-4.0","34072","","{""Q0"":""DP7TJL"",""Q1"":"""",""Q2"":""1996"",""Q3"":""20""}","","","","","",""
"html-button-response","5","596211","0.0-5.0","18921","<p>Ebben a játékban szavakat kell toldalékolni.</p> <p>Minden körben mutatunk majd egy példamondatot, amiben lesz egy szó.</p> <p>Alatta jön egy második mondat, ezt a mondatot neked kell majd befejezni, ugyanezzel a szóval.</p> <p>Nem biztos, hogy a szó eleve ismerős lesz számodra!</p> <p>Minden mondathoz adunk két lehetőséget, ezeket balra és jobbra látod majd.</p> <p>A játék kb. negyedóráig-húsz percig tart.</p>","0","","","","","",""
"html-button-response","6","621115","0.0-6.0","24398","<p>Nézzünk egy példát!</p> <p>A példamondat: ""Ez itt egy blumbnyeg.""</p><p>Neked ezt a mondatot kell befejezned: ""Ott vagyunk a...""</p><p>A lehetőségek pedig ezek:</p>","0","","","","","",""
"html-button-response","7","629866","0.0-7.0","8237","<p>Nagyon jó.</p><p>Ezt a játékot nem egyedül fogod játszani, hanem egy másik játékossal.</p><p>Mielőtt továbblépünk, összekapcsolunk titeket egymással.</p><p>Ez igénybe vehet néhány másodpercet, amihez szíves türelmed kérjük.</p>","0","","","","","",""
"html-button-response","8","635603","0.0-8.0","null","<p>Csatlakozás a másik játékoshoz...</p>","null","","","","","",""
"html-button-response","9","638114","0.0-9.0","null","<p> Sikeres kapcsolódás!</p>","null","","","","","",""
"html-button-response","10","648631","0.0-10.0","null","<p>A következőkben ketten játsszátok a szóválasztós játékot.</p><p>A feladatotok az lesz, hogy minden körben <b>ugyanazt</b> a szót válasszátok.</p><p>Minden ilyen egyező válaszért pontot kaptok.</p><p>Próbáld meg kitalálni, mit választ a másik játékos!</p><p>Bármikor választhatsz, a körnek akkor van vége, ha mindketten döntöttetek.</p><p>Sok sikert!</p>","null","","","","","",""
"html-button-response-esp","11","656810","0.0-11.0-0.0","7663","Ez itt egy lijez. Elneveztem a kutyámat...","1","lijeznek","[""lijeznak"",""lijeznek""]","lijeznek","esp trial","7","true"
"html-button-response","12","660324","0.0-11.0-1.0","null","<p>A másik játékos ezt választotta: <b>lijeznek</b>.</p><p>&#x2705;</p><p>A te válaszod és a másik játékos válasza <b>megegyeznek</b>.</p>","null","","","","feedback trial","",""
"html-button-response-esp","13","667189","0.0-11.0-0.1","4672","Ez itt egy dibez. Ott vagyunk a...","1","dibezben","[""dibezban"",""dibezben""]","dibezben","esp trial","7","true"
"html-button-response","14","670702","0.0-11.0-1.1","null","<p>A másik játékos ezt választotta: <b>dibezben</b>.</p><p>&#x2705;</p><p>A te válaszod és a másik játékos válasza <b>megegyeznek</b>.</p>","null","","","","feedback trial","",""
"html-button-response-esp","15","678506","0.0-11.0-0.2","7302","Ez itt egy vodec. Nincs is jobb egy jó...","0","vodecnél","[""vodecnél"",""vodecnál""]","vodecnél","esp trial","7","true"
"html-button-response","16","682023","0.0-11.0-1.2","null","<p>A másik játékos ezt választotta: <b>vodecnél</b>.</p><p>&#x2705;</p><p>A te válaszod és a másik játékos válasza <b>megegyeznek</b>.</p>","null","","","","feedback trial","",""
"html-button-response-esp","17","688894","0.0-11.0-0.3","5009","Ez itt egy csodeg. Nincs is jobb egy jó...","0","csodegnél","[""csodegnél"",""csodegnál""]","csodegnél","esp trial","7","true"
"html-button-response","18","692397","0.0-11.0-1.3","null","<p>A másik játékos ezt választotta: <b>csodegnél</b>.</p><p>&#x2705;</p><p>A te válaszod és a másik játékos válasza <b>megegyeznek</b>.</p>","null","","","","feedback trial","",""
"html-button-response-esp","19","699255","0.0-11.0-0.4","4361","Ez itt egy hijegy. Nincs is jobb egy jó...","0","hijegynél","[""hijegynél"",""hijegynál""]","hijegynél","esp trial","7","true"
"html-button-response","20","702762","0.0-11.0-1.4","null","<p>A másik játékos ezt választotta: <b>hijegynél</b>.</p><p>&#x2705;</p><p>A te válaszod és a másik játékos válasza <b>megegyeznek</b>.</p>","null","","","","feedback trial","",""
"html-button-response-esp","21","709630","0.0-11.0-0.5","5176","Ez itt egy surnegy. Nincs is jobb egy jó...","1","surnegynél","[""surnegynál"",""surnegynél""]","surnegynél","esp trial","7","true"
"html-button-response","22","713145","0.0-11.0-1.5","null","<p>A másik játékos ezt választotta: <b>surnegynél</b>.</p><p>&#x2705;</p><p>A te válaszod és a másik játékos válasza <b>megegyeznek</b>.</p>","null","","","","feedback trial","",""
"html-button-response-esp","23","719998","0.0-11.0-0.6","4015","Ez itt egy fojlegy. Elneveztem a kutyámat...","1","fojlegynek","[""fojlegynak"",""fojlegynek""]","fojlegynek","esp trial","7","true"
"html-button-response","24","723514","0.0-11.0-1.6","null","<p>A másik játékos ezt választotta: <b>fojlegynek</b>.</p><p>&#x2705;</p><p>A te válaszod és a másik játékos válasza <b>megegyeznek</b>.</p>","null","","","","feedback trial","",""
"html-button-response-esp","25","730478","0.0-11.0-0.7","6463","Ez itt egy zsalrén. Elneveztem a kutyámat...","0","zsalrénnek","[""zsalrénnek"",""zsalrénnak""]","zsalrénnek","esp trial","7","true"
"html-button-response","26","733979","0.0-11.0-1.7","null","<p>A másik játékos ezt választotta: <b>zsalrénnek</b>.</p><p>&#x2705;</p><p>A te válaszod és a másik játékos válasza <b>megegyeznek</b>.</p>","null","","","","feedback trial","",""
"html-button-response-esp","27","740840","0.0-11.0-0.8","4101","Ez itt egy lihény. Elneveztem a kutyámat...","1","lihénynek","[""lihénynak"",""lihénynek""]","lihénynek","esp trial","7","true"
"html-button-response","28","744342","0.0-11.0-1.8","null","<p>A másik játékos ezt választotta: <b>lihénynek</b>.</p><p>&#x2705;</p><p>A te válaszod és a másik játékos válasza <b>megegyeznek</b>.</p>","null","","","","feedback trial","",""
"html-button-response-esp","29","751193","0.0-11.0-0.9","3623","Ez itt egy pristél. Ott vagyunk a...","1","pristélben","[""pristélban"",""pristélben""]","pristélben","esp trial","7","true"
"html-button-response","30","754700","0.0-11.0-1.9","null","<p>A másik játékos ezt választotta: <b>pristélben</b>.</p><p>&#x2705;</p><p>A te válaszod és a másik játékos válasza <b>megegyeznek</b>.</p>","null","","","","feedback trial","",""
"html-button-response-esp","31","761572","0.0-11.0-0.10","3970","Ez itt egy zuten. Nincs is jobb egy jó...","1","zutennél","[""zutennál"",""zutennél""]","zutennél","esp trial","7","true"
"html-button-response","32","765081","0.0-11.0-1.10","null","<p>A másik játékos ezt választotta: <b>zutennél</b>.</p><p>&#x2705;</p><p>A te válaszod és a másik játékos válasza <b>megegyeznek</b>.</p>","null","","","","feedback trial","",""
"html-button-response-esp","33","771942","0.0-11.0-0.11","3856","Ez itt egy murdes. Nincs is jobb egy jó...","0","murdesnél","[""murdesnél"",""murdesnál""]","murdesnél","esp trial","7","true"
"html-button-response","34","775463","0.0-11.0-1.11","null","<p>A másik játékos ezt választotta: <b>murdesnél</b>.</p><p>&#x2705;</p><p>A te válaszod és a másik játékos válasza <b>megegyeznek</b>.</p>","null","","","","feedback trial","",""
"html-button-response-esp","35","782322","0.0-11.0-0.12","4659","Ez itt egy briskéd. Nincs is jobb egy jó...","0","briskédnél","[""briskédnél"",""briskédnál""]","briskédnél","esp trial","7","true"
"html-button-response","36","785832","0.0-11.0-1.12","null","<p>A másik játékos ezt választotta: <b>briskédnél</b>.</p><p>&#x2705;</p><p>A te válaszod és a másik játékos válasza <b>megegyeznek</b>.</p>","null","","","","feedback trial","",""
"html-button-response-esp","37","793955","0.0-11.0-0.13","7621","Ez itt egy jutély. Nincs is jobb egy jó...","1","jutélynél","[""jutélynál"",""jutélynél""]","jutélynál","esp trial","7","false"
"html-button-response","38","797468","0.0-11.0-1.13","null","<p>A másik játékos ezt választotta: <b>jutélynál</b>.</p><p>&#10060;</p><p>A válaszaitok <b>nem</b> egyeznek meg.</p>","null","","","","feedback trial","",""
"html-button-response-esp","39","804333","0.0-11.0-0.14","5108","Ez itt egy hosét. Elneveztem a kutyámat...","1","hosétnek","[""hosétnak"",""hosétnek""]","hosétnak","esp trial","7","false"
"html-button-response","40","807847","0.0-11.0-1.14","null","<p>A másik játékos ezt választotta: <b>hosétnak</b>.</p><p>&#10060;</p><p>A válaszaitok <b>nem</b> egyeznek meg.</p>","null","","","","feedback trial","",""
"html-button-response-esp","41","814709","0.0-11.0-0.15","5133","Ez itt egy dóbem. Elneveztem a kutyámat...","0","dóbemnek","[""dóbemnek"",""dóbemnak""]","dóbemnek","esp trial","7","true"
"html-button-response","42","818224","0.0-11.0-1.15","null","<p>A másik játékos ezt választotta: <b>dóbemnek</b>.</p><p>&#x2705;</p><p>A te válaszod és a másik játékos válasza <b>megegyeznek</b>.</p>","null","","","","feedback trial","",""
"html-button-response-esp","43","825083","0.0-11.0-0.16","6167","Ez itt egy dutec. Nincs is jobb egy jó...","1","dutecnál","[""dutecnél"",""dutecnál""]","dutecnél","esp trial","7","false"
"html-button-response","44","828586","0.0-11.0-1.16","null","<p>A másik játékos ezt választotta: <b>dutecnél</b>.</p><p>&#10060;</p><p>A válaszaitok <b>nem</b> egyeznek meg.</p>","null","","","","feedback trial","",""
"html-button-response-esp","45","835445","0.0-11.0-0.17","4643","Ez itt egy cságyelt. Ott vagyunk a...","0","cságyeltben","[""cságyeltben"",""cságyeltban""]","cságyeltben","esp trial","7","true"
"html-button-response","46","838949","0.0-11.0-1.17","null","<p>A másik játékos ezt választotta: <b>cságyeltben</b>.</p><p>&#x2705;</p><p>A te válaszod és a másik játékos válasza <b>megegyeznek</b>.</p>","null","","","","feedback trial","",""
"html-button-response-esp","47","845808","0.0-11.0-0.18","3484","Ez itt egy lingék. Nincs is jobb egy jó...","1","lingéknél","[""lingéknál"",""lingéknél""]","lingéknél","esp trial","7","true"
"html-button-response","48","849320","0.0-11.0-1.18","null","<p>A másik játékos ezt választotta: <b>lingéknél</b>.</p><p>&#x2705;</p><p>A te válaszod és a másik játékos válasza <b>megegyeznek</b>.</p>","null","","","","feedback trial","",""
"html-button-response-esp","49","856175","0.0-11.0-0.19","4273","Ez itt egy dinelt. Ott vagyunk a...","1","dineltben","[""dineltban"",""dineltben""]","dineltben","esp trial","7","true"
"html-button-response","50","859690","0.0-11.0-1.19","null","<p>A másik játékos ezt választotta: <b>dineltben</b>.</p><p>&#x2705;</p><p>A te válaszod és a másik játékos válasza <b>megegyeznek</b>.</p>","null","","","","feedback trial","",""
"html-button-response-esp","51","866556","0.0-11.0-0.20","5055","Ez itt egy fupét. Nincs is jobb egy jó...","1","fupétnél","[""fupétnál"",""fupétnél""]","fupétnél","esp trial","7","true"
"html-button-response","52","870063","0.0-11.0-1.20","null","<p>A másik játékos ezt választotta: <b>fupétnél</b>.</p><p>&#x2705;</p><p>A te válaszod és a másik játékos válasza <b>megegyeznek</b>.</p>","null","","","","feedback trial","",""
"html-button-response-esp","53","876934","0.0-11.0-0.21","3114","Ez itt egy sihen. Nincs is jobb egy jó...","0","sihennél","[""sihennél"",""sihennál""]","sihennél","esp trial","7","true"
"html-button-response","54","880438","0.0-11.0-1.21","null","<p>A másik játékos ezt választotta: <b>sihennél</b>.</p><p>&#x2705;</p><p>A te válaszod és a másik játékos válasza <b>megegyeznek</b>.</p>","null","","","","feedback trial","",""
"html-button-response-esp","55","891178","0.0-11.0-0.22","10232","Ez itt egy dunkész. Ott vagyunk a...","1","dunkészben","[""dunkészban"",""dunkészben""]","dunkészban","esp trial","7","false"
"html-button-response","56","894697","0.0-11.0-1.22","null","<p>A másik játékos ezt választotta: <b>dunkészban</b>.</p><p>&#10060;</p><p>A válaszaitok <b>nem</b> egyeznek meg.</p>","null","","","","feedback trial","",""
"html-button-response-esp","57","901574","0.0-11.0-0.23","4686","Ez itt egy szibed. Ott vagyunk a...","0","szibedben","[""szibedben"",""szibedban""]","szibedben","esp trial","7","true"
"html-button-response","58","905084","0.0-11.0-1.23","null","<p>A másik játékos ezt választotta: <b>szibedben</b>.</p><p>&#x2705;</p><p>A te válaszod és a másik játékos válasza <b>megegyeznek</b>.</p>","null","","","","feedback trial","",""
"html-button-response-esp","59","913407","0.0-11.0-0.24","7821","Ez itt egy mádép. Nincs is jobb egy jó...","0","mádépnél","[""mádépnél"",""mádépnál""]","mádépnál","esp trial","7","false"
"html-button-response","60","916923","0.0-11.0-1.24","null","<p>A másik játékos ezt választotta: <b>mádépnál</b>.</p><p>&#10060;</p><p>A válaszaitok <b>nem</b> egyeznek meg.</p>","null","","","","feedback trial","",""
"html-button-response-esp","61","923790","0.0-11.0-0.25","3528","Ez itt egy klazér. Ott vagyunk a...","1","klazérban","[""klazérben"",""klazérban""]","klazérban","esp trial","7","true"
"html-button-response","62","927315","0.0-11.0-1.25","null","<p>A másik játékos ezt választotta: <b>klazérban</b>.</p><p>&#x2705;</p><p>A te válaszod és a másik játékos válasza <b>megegyeznek</b>.</p>","null","","","","feedback trial","",""
"html-button-response-esp","63","940086","0.0-11.0-0.26","12263","Ez itt egy zatéj. Nincs is jobb egy jó...","1","zatéjnál","[""zatéjnél"",""zatéjnál""]","zatéjnél","esp trial","7","false"
"html-button-response","64","943603","0.0-11.0-1.26","null","<p>A másik játékos ezt választotta: <b>zatéjnél</b>.</p><p>&#10060;</p><p>A válaszaitok <b>nem</b> egyeznek meg.</p>","null","","","","feedback trial","",""
"html-button-response-esp","65","950464","0.0-11.0-0.27","3246","Ez itt egy trikép. Ott vagyunk a...","1","triképben","[""triképban"",""triképben""]","triképben","esp trial","7","true"
"html-button-response","66","953985","0.0-11.0-1.27","null","<p>A másik játékos ezt választotta: <b>triképben</b>.</p><p>&#x2705;</p><p>A te válaszod és a másik játékos válasza <b>megegyeznek</b>.</p>","null","","","","feedback trial","",""
"html-button-response-esp","67","960860","0.0-11.0-0.28","5475","Ez itt egy spizec. Elneveztem a kutyámat...","0","spizecnek","[""spizecnek"",""spizecnak""]","spizecnek","esp trial","7","true"
"html-button-response","68","964362","0.0-11.0-1.28","null","<p>A másik játékos ezt választotta: <b>spizecnek</b>.</p><p>&#x2705;</p><p>A te válaszod és a másik játékos válasza <b>megegyeznek</b>.</p>","null","","","","feedback trial","",""
"html-button-response-esp","69","971228","0.0-11.0-0.29","4824","Ez itt egy humék. Elneveztem a kutyámat...","1","huméknak","[""huméknek"",""huméknak""]","huméknak","esp trial","7","true"
"html-button-response","70","974745","0.0-11.0-1.29","null","<p>A másik játékos ezt választotta: <b>huméknak</b>.</p><p>&#x2705;</p><p>A te válaszod és a másik játékos válasza <b>megegyeznek</b>.</p>","null","","","","feedback trial","",""
"html-button-response-esp","71","981612","0.0-11.0-0.30","6143","Ez itt egy zábény. Elneveztem a kutyámat...","1","zábénynak","[""zábénynek"",""zábénynak""]","zábénynek","esp trial","7","false"
"html-button-response","72","985120","0.0-11.0-1.30","null","<p>A másik játékos ezt választotta: <b>zábénynek</b>.</p><p>&#10060;</p><p>A válaszaitok <b>nem</b> egyeznek meg.</p>","null","","","","feedback trial","",""
"html-button-response-esp","73","991974","0.0-11.0-0.31","6188","Ez itt egy gábéd. Nincs is jobb egy jó...","0","gábédnél","[""gábédnél"",""gábédnál""]","gábédnál","esp trial","7","false"
"html-button-response","74","995486","0.0-11.0-1.31","null","<p>A másik játékos ezt választotta: <b>gábédnál</b>.</p><p>&#10060;</p><p>A válaszaitok <b>nem</b> egyeznek meg.</p>","null","","","","feedback trial","",""
"html-button-response-esp","75","1004998","0.0-11.0-0.32","9003","Ez itt egy jurdent. Nincs is jobb egy jó...","1","jurdentnél","[""jurdentnál"",""jurdentnél""]","jurdentnél","esp trial","7","true"
"html-button-response","76","1008501","0.0-11.0-1.32","null","<p>A másik játékos ezt választotta: <b>jurdentnél</b>.</p><p>&#x2705;</p><p>A te válaszod és a másik játékos válasza <b>megegyeznek</b>.</p>","null","","","","feedback trial","",""
"html-button-response-esp","77","1015514","0.0-11.0-0.33","6512","Ez itt egy tarhéz. Ott vagyunk a...","0","tarhézben","[""tarhézben"",""tarhézban""]","tarhézban","esp trial","7","false"
"html-button-response","78","1019035","0.0-11.0-1.33","null","<p>A másik játékos ezt választotta: <b>tarhézban</b>.</p><p>&#10060;</p><p>A válaszaitok <b>nem</b> egyeznek meg.</p>","null","","","","feedback trial","",""
"html-button-response-esp","79","1027830","0.0-11.0-0.34","8283","Ez itt egy szanéj. Elneveztem a kutyámat...","0","szanéjnak","[""szanéjnak"",""szanéjnek""]","szanéjnak","esp trial","7","true"
"html-button-response","80","1031349","0.0-11.0-1.34","null","<p>A másik játékos ezt választotta: <b>szanéjnak</b>.</p><p>&#x2705;</p><p>A te válaszod és a másik játékos válasza <b>megegyeznek</b>.</p>","null","","","","feedback trial","",""
"html-button-response-esp","81","1038327","0.0-11.0-0.35","6477","Ez itt egy fágyép. Nincs is jobb egy jó...","1","fágyépnál","[""fágyépnél"",""fágyépnál""]","fágyépnál","esp trial","7","true"
"html-button-response","82","1041829","0.0-11.0-1.35","null","<p>A másik játékos ezt választotta: <b>fágyépnál</b>.</p><p>&#x2705;</p><p>A te válaszod és a másik játékos válasza <b>megegyeznek</b>.</p>","null","","","","feedback trial","",""
"html-button-response-esp","83","1048694","0.0-11.0-0.36","4967","Ez itt egy trodély. Ott vagyunk a...","0","trodélyban","[""trodélyban"",""trodélyben""]","trodélyban","esp trial","7","true"
"html-button-response","84","1052210","0.0-11.0-1.36","null","<p>A másik játékos ezt választotta: <b>trodélyban</b>.</p><p>&#x2705;</p><p>A te válaszod és a másik játékos válasza <b>megegyeznek</b>.</p>","null","","","","feedback trial","",""
"html-button-response-esp","85","1059082","0.0-11.0-0.37","5023","Ez itt egy klítegy. Nincs is jobb egy jó...","1","klítegynél","[""klítegynál"",""klítegynél""]","klítegynél","esp trial","7","true"
"html-button-response","86","1062604","0.0-11.0-1.37","null","<p>A másik játékos ezt választotta: <b>klítegynél</b>.</p><p>&#x2705;</p><p>A te válaszod és a másik játékos válasza <b>megegyeznek</b>.</p>","null","","","","feedback trial","",""
"html-button-response-esp","87","1069476","0.0-11.0-0.38","4171","Ez itt egy spivél. Elneveztem a kutyámat...","1","spivélnek","[""spivélnak"",""spivélnek""]","spivélnek","esp trial","7","true"
"html-button-response","88","1072996","0.0-11.0-1.38","null","<p>A másik játékos ezt választotta: <b>spivélnek</b>.</p><p>&#x2705;</p><p>A te válaszod és a másik játékos válasza <b>megegyeznek</b>.</p>","null","","","","feedback trial","",""
"html-button-response-esp","89","1079853","0.0-11.0-0.39","5381","Ez itt egy vismer. Nincs is jobb egy jó...","1","vismernél","[""vismernál"",""vismernél""]","vismernél","esp trial","7","true"
"html-button-response","90","1083361","0.0-11.0-1.39","null","<p>A másik játékos ezt választotta: <b>vismernél</b>.</p><p>&#x2705;</p><p>A te válaszod és a másik játékos válasza <b>megegyeznek</b>.</p>","null","","","","feedback trial","",""
"html-button-response-esp","91","1091842","0.0-11.0-0.40","7979","Ez itt egy vurnel. Elneveztem a kutyámat...","1","vurnelnek","[""vurnelnak"",""vurnelnek""]","vurnelnek","esp trial","7","true"
"html-button-response","92","1095360","0.0-11.0-1.40","null","<p>A másik játékos ezt választotta: <b>vurnelnek</b>.</p><p>&#x2705;</p><p>A te válaszod és a másik játékos válasza <b>megegyeznek</b>.</p>","null","","","","feedback trial","",""
"html-button-response-esp","93","1102229","0.0-11.0-0.41","4096","Ez itt egy zarcég. Nincs is jobb egy jó...","0","zarcégnél","[""zarcégnél"",""zarcégnál""]","zarcégnél","esp trial","7","true"
"html-button-response","94","1105749","0.0-11.0-1.41","null","<p>A másik játékos ezt választotta: <b>zarcégnél</b>.</p><p>&#x2705;</p><p>A te válaszod és a másik játékos válasza <b>megegyeznek</b>.</p>","null","","","","feedback trial","",""
"html-button-response-esp","95","1112606","0.0-11.0-0.42","3392","Ez itt egy bingéj. Elneveztem a kutyámat...","0","bingéjnek","[""bingéjnek"",""bingéjnak""]","bingéjnek","esp trial","7","true"
"html-button-response","96","1116132","0.0-11.0-1.42","null","<p>A másik játékos ezt választotta: <b>bingéjnek</b>.</p><p>&#x2705;</p><p>A te válaszod és a másik játékos válasza <b>megegyeznek</b>.</p>","null","","","","feedback trial","",""
"html-button-response-esp","97","1123003","0.0-11.0-0.43","5169","Ez itt egy pazév. Nincs is jobb egy jó...","0","pazévnél","[""pazévnél"",""pazévnál""]","pazévnál","esp trial","7","false"
"html-button-response","98","1126513","0.0-11.0-1.43","null","<p>A másik játékos ezt választotta: <b>pazévnál</b>.</p><p>&#10060;</p><p>A válaszaitok <b>nem</b> egyeznek meg.</p>","null","","","","feedback trial","",""
"html-button-response-esp","99","1133378","0.0-11.0-0.44","5516","Ez itt egy spatel. Elneveztem a kutyámat...","0","spatelnek","[""spatelnek"",""spatelnak""]","spatelnek","esp trial","7","true"
"html-button-response","100","1136893","0.0-11.0-1.44","null","<p>A másik játékos ezt választotta: <b>spatelnek</b>.</p><p>&#x2705;</p><p>A te válaszod és a másik játékos válasza <b>megegyeznek</b>.</p>","null","","","","feedback trial","",""
"html-button-response-esp","101","1147822","0.0-11.0-0.45","10420","Ez itt egy klajrén. Elneveztem a kutyámat...","1","klajrénnek","[""klajrénnak"",""klajrénnek""]","klajrénnak","esp trial","7","false"
"html-button-response","102","1151339","0.0-11.0-1.45","null","<p>A másik játékos ezt választotta: <b>klajrénnak</b>.</p><p>&#10060;</p><p>A válaszaitok <b>nem</b> egyeznek meg.</p>","null","","","","feedback trial","",""
"html-button-response-esp","103","1158210","0.0-11.0-0.46","3928","Ez itt egy zined. Elneveztem a kutyámat...","1","zinednek","[""zinednak"",""zinednek""]","zinednek","esp trial","7","true"
"html-button-response","104","1161711","0.0-11.0-1.46","null","<p>A másik játékos ezt választotta: <b>zinednek</b>.</p><p>&#x2705;</p><p>A te válaszod és a másik játékos válasza <b>megegyeznek</b>.</p>","null","","","","feedback trial","",""
"html-button-response-esp","105","1168571","0.0-11.0-0.47","3830","Ez itt egy tivenc. Ott vagyunk a...","1","tivencben","[""tivencban"",""tivencben""]","tivencben","esp trial","7","true"
"html-button-response","106","1172084","0.0-11.0-1.47","null","<p>A másik játékos ezt választotta: <b>tivencben</b>.</p><p>&#x2705;</p><p>A te válaszod és a másik játékos válasza <b>megegyeznek</b>.</p>","null","","","","feedback trial","",""
"html-button-response-esp","107","1178943","0.0-11.0-0.48","4544","Ez itt egy csublény. Ott vagyunk a...","0","csublényban","[""csublényban"",""csublényben""]","csublényban","esp trial","7","true"
"html-button-response","108","1182467","0.0-11.0-1.48","null","<p>A másik játékos ezt választotta: <b>csublényban</b>.</p><p>&#x2705;</p><p>A te válaszod és a másik játékos válasza <b>megegyeznek</b>.</p>","null","","","","feedback trial","",""
"html-button-response-esp","109","1189321","0.0-11.0-0.49","4426","Ez itt egy kátéd. Nincs is jobb egy jó...","1","kátédnál","[""kátédnél"",""kátédnál""]","kátédnál","esp trial","7","true"
"html-button-response","110","1192846","0.0-11.0-1.49","null","<p>A másik játékos ezt választotta: <b>kátédnál</b>.</p><p>&#x2705;</p><p>A te válaszod és a másik játékos válasza <b>megegyeznek</b>.</p>","null","","","","feedback trial","",""
"html-button-response-esp","111","1199723","0.0-11.0-0.50","2892","Ez itt egy fizend. Ott vagyunk a...","1","fizendben","[""fizendban"",""fizendben""]","fizendben","esp trial","7","true"
"html-button-response","112","1203238","0.0-11.0-1.50","null","<p>A másik játékos ezt választotta: <b>fizendben</b>.</p><p>&#x2705;</p><p>A te válaszod és a másik játékos válasza <b>megegyeznek</b>.</p>","null","","","","feedback trial","",""
"html-button-response-esp","113","1210090","0.0-11.0-0.51","5910","Ez itt egy tumély. Nincs is jobb egy jó...","0","tumélynál","[""tumélynál"",""tumélynél""]","tumélynél","esp trial","7","false"
"html-button-response","114","1213602","0.0-11.0-1.51","null","<p>A másik játékos ezt választotta: <b>tumélynél</b>.</p><p>&#10060;</p><p>A válaszaitok <b>nem</b> egyeznek meg.</p>","null","","","","feedback trial","",""
"html-button-response-esp","115","1220457","0.0-11.0-0.52","4983","Ez itt egy nuhét. Nincs is jobb egy jó...","1","nuhétnél","[""nuhétnál"",""nuhétnél""]","nuhétnél","esp trial","7","true"
"html-button-response","116","1223971","0.0-11.0-1.52","null","<p>A másik játékos ezt választotta: <b>nuhétnél</b>.</p><p>&#x2705;</p><p>A te válaszod és a másik játékos válasza <b>megegyeznek</b>.</p>","null","","","","feedback trial","",""
"html-button-response-esp","117","1230823","0.0-11.0-0.53","5589","Ez itt egy dajrens. Nincs is jobb egy jó...","1","dajrensnél","[""dajrensnál"",""dajrensnél""]","dajrensnél","esp trial","7","true"
"html-button-response","118","1234324","0.0-11.0-1.53","null","<p>A másik játékos ezt választotta: <b>dajrensnél</b>.</p><p>&#x2705;</p><p>A te válaszod és a másik játékos válasza <b>megegyeznek</b>.</p>","null","","","","feedback trial","",""
"html-button-response","119","1250410","0.0-12.0","15584","<p>A közös játék most véget ért.</p><p>Mielőtt eláruljuk a végső pontszámodat, arra kérlek, játszd a szóválasztós játékot néhány percig egyedül is.</p><p>A feladatod ugyanaz lesz, választani két lehetőség közül.</p><p>Most viszont egyedül kell döntened, hogy te melyiket választanád.</p>","0","","","","","",""
"html-button-response-clever","120","1255394","0.0-13.0-0.0","4473","Ez itt egy jábéz. Ott vagyunk a...","0","jábézban","[""jábézban"",""jábézben""]","","posttest trial","8",""
"html-button-response-clever","121","1259298","0.0-13.0-0.1","3398","Ez itt egy vodép. Elneveztem a kutyámat...","1","vodépnek","[""vodépnak"",""vodépnek""]","","posttest trial","8",""
"html-button-response-clever","122","1264646","0.0-13.0-0.2","4846","Ez itt egy zsopéd. Ott vagyunk a...","0","zsopédban","[""zsopédban"",""zsopédben""]","","posttest trial","8",""
"html-button-response-clever","123","1267922","0.0-13.0-0.3","2774","Ez itt egy júder. Elneveztem a kutyámat...","0","júdernek","[""júdernek"",""júdernak""]","","posttest trial","8",""
"html-button-response-clever","124","1271353","0.0-13.0-0.4","2923","Ez itt egy forzéd. Elneveztem a kutyámat...","1","forzédnek","[""forzédnak"",""forzédnek""]","","posttest trial","8",""
"html-button-response-clever","125","1277038","0.0-13.0-0.5","5176","Ez itt egy klordény. Elneveztem a kutyámat...","0","klordénynek","[""klordénynek"",""klordénynak""]","","posttest trial","8",""
"html-button-response-clever","126","1280466","0.0-13.0-0.6","2924","Ez itt egy fincek. Nincs is jobb egy jó...","1","finceknél","[""finceknál"",""finceknél""]","","posttest trial","8",""
"html-button-response-clever","127","1284586","0.0-13.0-0.7","3609","Ez itt egy szihét. Elneveztem a kutyámat...","0","szihétnek","[""szihétnek"",""szihétnak""]","","posttest trial","8",""
"html-button-response-clever","128","1292673","0.0-13.0-0.8","7571","Ez itt egy sartely. Ott vagyunk a...","0","sartelyben","[""sartelyben"",""sartelyban""]","","posttest trial","8",""
"html-button-response-clever","129","1297858","0.0-13.0-0.9","4683","Ez itt egy csartény. Elneveztem a kutyámat...","1","csarténynak","[""csarténynek"",""csarténynak""]","","posttest trial","8",""
"html-button-response-clever","130","1301682","0.0-13.0-0.10","3312","Ez itt egy priszkenc. Elneveztem a kutyámat...","0","priszkencnek","[""priszkencnek"",""priszkencnak""]","","posttest trial","8",""
"html-button-response-clever","131","1307066","0.0-13.0-0.11","4881","Ez itt egy spáten. Elneveztem a kutyámat...","1","spátennek","[""spátennak"",""spátennek""]","","posttest trial","8",""
"html-button-response-clever","132","1310666","0.0-13.0-0.12","3085","Ez itt egy ronvet. Elneveztem a kutyámat...","0","ronvetnek","[""ronvetnek"",""ronvetnak""]","","posttest trial","8",""
"html-button-response-clever","133","1316602","0.0-13.0-0.13","5434","Ez itt egy hóbens. Ott vagyunk a...","0","hóbensben","[""hóbensben"",""hóbensban""]","","posttest trial","8",""
"html-button-response-clever","134","1324242","0.0-13.0-0.14","7125","Ez itt egy prately. Elneveztem a kutyámat...","1","pratelynek","[""pratelynak"",""pratelynek""]","","posttest trial","8",""
"html-button-response-clever","135","1328819","0.0-13.0-0.15","4063","Ez itt egy buhény. Ott vagyunk a...","0","buhényban","[""buhényban"",""buhényben""]","","posttest trial","8",""
"html-button-response-clever","136","1333026","0.0-13.0-0.16","3691","Ez itt egy szutend. Ott vagyunk a...","0","szutendben","[""szutendben"",""szutendban""]","","posttest trial","8",""
"html-button-response-clever","137","1339875","0.0-13.0-0.17","6346","Ez itt egy hivép. Ott vagyunk a...","0","hivépben","[""hivépben"",""hivépban""]","","posttest trial","8",""
"html-button-response-clever","138","1345390","0.0-13.0-0.18","5007","Ez itt egy gonszék. Nincs is jobb egy jó...","1","gonszéknél","[""gonszéknál"",""gonszéknél""]","","posttest trial","8",""
"html-button-response-clever","139","1350010","0.0-13.0-0.19","4113","Ez itt egy gicéj. Nincs is jobb egy jó...","0","gicéjnél","[""gicéjnél"",""gicéjnál""]","","posttest trial","8",""
"html-button-response-clever","140","1353682","0.0-13.0-0.20","3170","Ez itt egy trapszegy. Nincs is jobb egy jó...","0","trapszegynél","[""trapszegynél"",""trapszegynál""]","","posttest trial","8",""
"html-button-response-clever","141","1359390","0.0-13.0-0.21","5198","Ez itt egy brágéd. Elneveztem a kutyámat...","0","brágédnak","[""brágédnak"",""brágédnek""]","","posttest trial","8",""
"html-button-response-clever","142","1363434","0.0-13.0-0.22","3531","Ez itt egy sporzem. Elneveztem a kutyámat...","1","sporzemnek","[""sporzemnak"",""sporzemnek""]","","posttest trial","8",""
"html-button-response-clever","143","1370022","0.0-13.0-0.23","6081","Ez itt egy trigenc. Elneveztem a kutyámat...","1","trigencnek","[""trigencnak"",""trigencnek""]","","posttest trial","8",""
"html-button-response-clever","144","1376078","0.0-13.0-0.24","5555","Ez itt egy kluhéj. Nincs is jobb egy jó...","0","kluhéjnél","[""kluhéjnél"",""kluhéjnál""]","","posttest trial","8",""
"html-button-response-clever","145","1385186","0.0-13.0-0.25","8606","Ez itt egy jorzég. Elneveztem a kutyámat...","1","jorzégnak","[""jorzégnek"",""jorzégnak""]","","posttest trial","8",""
"html-button-response-clever","146","1396390","0.0-13.0-0.26","10692","Ez itt egy jalrény. Nincs is jobb egy jó...","1","jalrénynál","[""jalrénynél"",""jalrénynál""]","","posttest trial","8",""
"html-button-response-clever","147","1400030","0.0-13.0-0.27","3130","Ez itt egy licegy. Ott vagyunk a...","1","licegyben","[""licegyban"",""licegyben""]","","posttest trial","8",""
"html-button-response-clever","148","1407310","0.0-13.0-0.28","6766","Ez itt egy tranék. Ott vagyunk a...","1","tranékban","[""tranékben"",""tranékban""]","","posttest trial","8",""
"html-button-response-clever","149","1412438","0.0-13.0-0.29","4616","Ez itt egy giheszt. Elneveztem a kutyámat...","1","gihesztnek","[""gihesztnak"",""gihesztnek""]","","posttest trial","8",""
"html-button-response-clever","150","1418638","0.0-13.0-0.30","5691","Ez itt egy bidem. Ott vagyunk a...","1","bidemben","[""bidemban"",""bidemben""]","","posttest trial","8",""
"html-button-response-clever","151","1423122","0.0-13.0-0.31","3980","Ez itt egy brukész. Nincs is jobb egy jó...","1","brukésznél","[""brukésznál"",""brukésznél""]","","posttest trial","8",""
"html-button-response-clever","152","1429042","0.0-13.0-0.32","5411","Ez itt egy gótem. Elneveztem a kutyámat...","1","gótemnek","[""gótemnak"",""gótemnek""]","","posttest trial","8",""
"html-button-response-clever","153","1440670","0.0-13.0-0.33","11119","Ez itt egy matéz. Ott vagyunk a...","1","matézban","[""matézben"",""matézban""]","","posttest trial","8",""
"html-button-response-clever","154","1444470","0.0-13.0-0.34","3291","Ez itt egy csimen. Nincs is jobb egy jó...","0","csimennél","[""csimennél"",""csimennál""]","","posttest trial","8",""
"html-button-response-clever","155","1447910","0.0-13.0-0.35","2935","Ez itt egy brotes. Ott vagyunk a...","1","brotesben","[""brotesban"",""brotesben""]","","posttest trial","8",""
"html-button-response-clever","156","1452110","0.0-13.0-0.36","3689","Ez itt egy kadér. Nincs is jobb egy jó...","1","kadérnál","[""kadérnél"",""kadérnál""]","","posttest trial","8",""
"html-button-response-clever","157","1456998","0.0-13.0-0.37","4381","Ez itt egy sprízem. Nincs is jobb egy jó...","0","sprízemnél","[""sprízemnél"",""sprízemnál""]","","posttest trial","8",""
"html-button-response-clever","158","1461174","0.0-13.0-0.38","3667","Ez itt egy bródesz. Elneveztem a kutyámat...","0","bródesznek","[""bródesznek"",""bródesznak""]","","posttest trial","8",""
"html-button-response-clever","159","1465803","0.0-13.0-0.39","4123","Ez itt egy csinték. Ott vagyunk a...","0","csintékben","[""csintékben"",""csintékban""]","","posttest trial","8",""
"html-button-response-clever","160","1470254","0.0-13.0-0.40","3943","Ez itt egy vublet. Nincs is jobb egy jó...","0","vubletnél","[""vubletnél"",""vubletnál""]","","posttest trial","8",""
"html-button-response-clever","161","1474222","0.0-13.0-0.41","3467","Ez itt egy nidét. Ott vagyunk a...","1","nidétben","[""nidétban"",""nidétben""]","","posttest trial","8",""
"html-button-response-clever","162","1478627","0.0-13.0-0.42","3892","Ez itt egy dingec. Elneveztem a kutyámat...","1","dingecnek","[""dingecnak"",""dingecnek""]","","posttest trial","8",""
"html-button-response-clever","163","1483966","0.0-13.0-0.43","4838","Ez itt egy tránély. Elneveztem a kutyámat...","1","tránélynek","[""tránélynak"",""tránélynek""]","","posttest trial","8",""
"html-button-response-clever","164","1505190","0.0-13.0-0.44","20711","Ez itt egy ikszert. Ott vagyunk a...","1","ikszertben","[""ikszertban"",""ikszertben""]","","posttest trial","8",""
"html-button-response-clever","165","1507703","0.0-13.0-0.45","2006","Ez itt egy navec. Ott vagyunk a...","1","navecben","[""navecban"",""navecben""]","","posttest trial","8",""
"html-button-response-clever","166","1511758","0.0-13.0-0.46","3553","Ez itt egy brigeszt. Elneveztem a kutyámat...","0","brigesztnek","[""brigesztnek"",""brigesztnak""]","","posttest trial","8",""
"html-button-response-clever","167","1514726","0.0-13.0-0.47","2462","Ez itt egy nyábét. Ott vagyunk a...","0","nyábétban","[""nyábétban"",""nyábétben""]","","posttest trial","8",""
"html-button-response-clever","168","1517046","0.0-13.0-0.48","1807","Ez itt egy trincseg. Ott vagyunk a...","0","trincsegben","[""trincsegben"",""trincsegban""]","","posttest trial","8",""
"html-button-response-clever","169","1520478","0.0-13.0-0.49","2920","Ez itt egy lismév. Ott vagyunk a...","1","lismévben","[""lismévban"",""lismévben""]","","posttest trial","8",""
"html-button-response-clever","170","1524258","0.0-13.0-0.50","3267","Ez itt egy kábesz. Nincs is jobb egy jó...","1","kábesznél","[""kábesznál"",""kábesznél""]","","posttest trial","8",""
"html-button-response-clever","171","1528703","0.0-13.0-0.51","3941","Ez itt egy nyarcéj. Elneveztem a kutyámat...","1","nyarcéjnak","[""nyarcéjnek"",""nyarcéjnak""]","","posttest trial","8",""
"html-button-response-clever","172","1532342","0.0-13.0-0.52","3125","Ez itt egy fádens. Elneveztem a kutyámat...","1","fádensnek","[""fádensnak"",""fádensnek""]","","posttest trial","8",""
"html-button-response-clever","173","1551926","0.0-13.0-0.53","19073","Ez itt egy kliszer. Nincs is jobb egy jó...","1","kliszernél","[""kliszernál"",""kliszernél""]","","posttest trial","8",""
"html-button-response","174","1562526","0.0-14.0","10094","<p> Vége a játéknak. A teljes pontszámod 42/54.</p><p> Szép munka! &#128526;&#128526;&#128526;</p><p>A Befejezés gomb megnyomása után bezárhatod a böngészőablakot.</p>","0","","","","","",""
"html-keyboard-response","175","1568029","0.0-15.0","null","<div class=""message"">
         <p>Egy kis türelmet kérünk, amíg elmentjük az adatokat...</p>
         </div>","null","","","","","",""
