"trial_type","trial_index","time_elapsed","internal_node_id","rt","stimulus","response","response_string","choices","esp_response","trial_kind","list_number","esp_match"
"pavlovia","0","793","0.0-0.0","","","","","","","","",""
"html-button-response","1","26009","0.0-1.0","24704","<p>Kedves Résztvevő! A Budapesti Műszaki és Gazdaságtudományi Egyetem Kognitív Tudományi Tanszékének kutatásában való részvételed kérjük. A kutatásban azt vizsgáljuk, hogy a magyar anyanyelvűek hogyan használnak bizonyos szóalakokat, és hogy milyen képük van arról, hogy mások hogyan használják, hogyan képzik a szavakat. Ez hozzásegít bennünket ahhoz, hogy jobban megértsük, hogyan dolgozza fel és tárolja a nyelvet az emberi agy, és hogyan működnek, hogyan változnak egy adott közösség nyelvi konvenciói.</p><p>A vizsgálat egy rövid számítógépes feladatból fog állni. A kutatásban való részvétel önkéntes, a részvételi szándék bármikor visszavonható. A résztvevők eredményeit név nélkül kezeljük, így nem beazonosíthatók az adatok feldolgozása során. Minden személyes adatot az EU általános adatvédelmi rendeletének (GDPR) megfelelően kezelünk és legfeljebb öt éven belül megsemmisítünk. A vizsgálat jellemzően húsz percet vesz igénybe.</p><p>Kutatásvezető:</p><p>Dr. Rácz Péter, tudományos munkatárs, BME KTT</p><p>e-mail: racz.peter.marton@ttk.bme.hu</p>","0","","","","","",""
"html-button-response","2","55765","0.0-2.0","29242","<p>A kísérletben szavakat fogsz látni. Ezek között lesznek olyanok, amelyeket ismersz, de előfordulhatnak olyanok is, amelyeket nem ismersz, sőt, vannak köztük kitalált szavak is. Minden szónál látni fogsz toldalékolt alakokat. A te feladatod az lesz, hogy minden szóhoz kiválaszd azt a toldalékolt alakot, amely a te számodra ismerősebben, természetesebben hangzik. Rossz válaszok nincsenek, mert van olyan, hogy különböző embereknek más és más szó tűnik jobb választásnak. A választ úgy tudod majd kiválasztani, ha rákattintasz.</p><p>Ebben a szóválasztós játékban egy másik játékossal együtt veszel majd részt. A másik játékos is minden esetben azok közül a lehetőségek közül válogathat, mint te. Kettőtök feladata az, hogy ugyanazt a lehetőséget válasszátok minden esetben. Ahhoz, hogy ez sikerüljön, neked figyelned kell arra, hogy a másik játékos milyen válaszokat ad, és ennek alapján meg kell tippelned, hogyan választ legközelebb. Ha eltalálod, akkor pontot kapsz.</p>","0","","","","","",""
"html-button-response","3","74198","0.0-3.0","17931","<p>Kérjük, olvasd el az alábbi nyilatkozatot, és amennyiben egyetértesz vele, nyomj a Beleegyezés gombra!</p><p>Kijelentem, hogy magyar anyanyelvű személyként önként veszek részt a BME KTT kísérletében. A kutatás céljával és folyamatával kapcsolatban elegendő tájékoztatást kaptam, lehetőségem volt kérdések feltételére, és esetleges kérdéseimre megfelelő válaszokat kaptam. A tájékoztatás alapján elegendő mennyiségű információ áll a rendelkezésemre, hogy eldönthessem, részt kívánok-e venni a kutatásban.</p><p>Tisztában vagyok vele, hogy részvételi szándékomat és adataimat bármikor, indoklás nélkül visszavonhatom.</p><p>Értem és tudomásul veszem, hogy a kutatás tudományos célokat szolgál, és az általam szolgáltatott adatokat a BME kizárólag kutatási célból használja fel. Tudomásul veszem, hogy eredményeimet a többi résztvevő eredményeivel együtt kezelik, így egyéni teljesítményemről visszajelzést, szakvéleményt nem kapok.</p><p>Megértettem, hogy adataim kezelését illetően a BME az EU általános adatvédelmi rendelete (GDPR), a hatályos adatvédelmi törvény és a nemzetközi kutatás-etikai alapelvek szerint jár el. Eredményeim anonim módon kerülnek feldolgozásra, és a kutatás résztvevői az azonosításomra alkalmas adataimat harmadik félnek nem szolgáltatják ki. Engedélyezem a BME számára a jelen kutatásban felvett adataim feldolgozását és tárolását, beleértve azok későbbi kutatásokhoz való felhasználását is. Személyes adataim kezelésével kapcsolatban tájékoztatást kérhetek a kutatás résztvevőitől, az adatkezelés ellen tiltakozhatok, kérhetem személyes adataim helyesbítését, törlését vagy zárolását, valamint jogorvoslatért a Nemzeti Adatvédelmi és Információszabadság Hatósághoz fordulhatok.</p><p>Kijelentem, hogy a kutatásban való részvételem körülményeiről részletes tájékoztatást kaptam, és a feltételeket elfogadom.</p>","0","","","","","",""
"survey-text","4","101814","0.0-4.0","27094","","{""Q0"":""YU8B34"",""Q1"":""nő"",""Q2"":""1996"",""Q3"":""15""}","","","","","",""
"html-button-response","5","114157","0.0-5.0","11840","<p>Ebben a játékban szavakat kell toldalékolni.</p> <p>Minden körben mutatunk majd egy példamondatot, amiben lesz egy szó.</p> <p>Alatta jön egy második mondat, ezt a mondatot neked kell majd befejezni, ugyanezzel a szóval.</p> <p>Nem biztos, hogy a szó eleve ismerős lesz számodra!</p> <p>Minden mondathoz adunk két lehetőséget, ezeket balra és jobbra látod majd.</p> <p>A játék kb. negyedóráig-húsz percig tart.</p>","0","","","","","",""
"html-button-response","6","135187","0.0-6.0","20521","<p>Nézzünk egy példát!</p> <p>A példamondat: ""Ez itt egy blumbnyeg.""</p><p>Neked ezt a mondatot kell befejezned: ""Ott vagyunk a...""</p><p>A lehetőségek pedig ezek:</p>","0","","","","","",""
"html-button-response","7","141708","0.0-7.0","6016","<p>Nagyon jó.</p><p>Ezt a játékot nem egyedül fogod játszani, hanem egy másik játékossal.</p><p>Mielőtt továbblépünk, összekapcsolunk titeket egymással.</p><p>Ez igénybe vehet néhány másodpercet, amihez szíves türelmed kérjük.</p>","0","","","","","",""
"html-button-response","8","147442","0.0-8.0","null","<p>Csatlakozás a másik játékoshoz...</p>","null","","","","","",""
"html-button-response","9","149960","0.0-9.0","null","<p> Sikeres kapcsolódás!</p>","null","","","","","",""
"html-button-response","10","160474","0.0-10.0","null","<p>A következőkben ketten játsszátok a szóválasztós játékot.</p><p>A feladatotok az lesz, hogy minden körben <b>ugyanazt</b> a szót válasszátok.</p><p>Minden ilyen egyező válaszért pontot kaptok.</p><p>Próbáld meg kitalálni, mit választ a másik játékos!</p><p>Bármikor választhatsz, a körnek akkor van vége, ha mindketten döntöttetek.</p><p>Sok sikert!</p>","null","","","","","",""
"html-button-response-esp","11","166505","0.0-11.0-0.0","5523","Ez itt egy kluhéj. Nincs is jobb egy jó...","1","kluhéjnál","[""kluhéjnél"",""kluhéjnál""]","kluhéjnél","esp trial","10","false"
"html-button-response","12","170036","0.0-11.0-1.0","null","<p>A másik játékos ezt választotta: <b>kluhéjnél</b>.</p><p>&#10060;</p><p>A válaszaitok <b>nem</b> egyeznek meg.</p>","null","","","","feedback trial","",""
"html-button-response-esp","13","176053","0.0-11.0-0.1","4220","Ez itt egy nyábét. Ott vagyunk a...","1","nyábétben","[""nyábétban"",""nyábétben""]","nyábétben","esp trial","10","true"
"html-button-response","14","179568","0.0-11.0-1.1","null","<p>A másik játékos ezt választotta: <b>nyábétben</b>.</p><p>&#x2705;</p><p>A te válaszod és a másik játékos válasza <b>megegyeznek</b>.</p>","null","","","","feedback trial","",""
"html-button-response-esp","15","185580","0.0-11.0-0.2","2679","Ez itt egy vublet. Nincs is jobb egy jó...","1","vubletnél","[""vubletnál"",""vubletnél""]","vubletnél","esp trial","10","true"
"html-button-response","16","189087","0.0-11.0-1.2","null","<p>A másik játékos ezt választotta: <b>vubletnél</b>.</p><p>&#x2705;</p><p>A te válaszod és a másik játékos válasza <b>megegyeznek</b>.</p>","null","","","","feedback trial","",""
"html-button-response-esp","17","195101","0.0-11.0-0.3","3395","Ez itt egy sartely. Ott vagyunk a...","1","sartelyban","[""sartelyben"",""sartelyban""]","sartelyben","esp trial","10","false"
"html-button-response","18","198606","0.0-11.0-1.3","null","<p>A másik játékos ezt választotta: <b>sartelyben</b>.</p><p>&#10060;</p><p>A válaszaitok <b>nem</b> egyeznek meg.</p>","null","","","","feedback trial","",""
"html-button-response-esp","19","204613","0.0-11.0-0.4","2574","Ez itt egy gonszék. Nincs is jobb egy jó...","1","gonszéknél","[""gonszéknál"",""gonszéknél""]","gonszéknél","esp trial","10","true"
"html-button-response","20","208136","0.0-11.0-1.4","null","<p>A másik játékos ezt választotta: <b>gonszéknél</b>.</p><p>&#x2705;</p><p>A te válaszod és a másik játékos válasza <b>megegyeznek</b>.</p>","null","","","","feedback trial","",""
"html-button-response-esp","21","214167","0.0-11.0-0.5","3122","Ez itt egy júder. Elneveztem a kutyámat...","0","júdernek","[""júdernek"",""júdernak""]","júdernek","esp trial","10","true"
"html-button-response","22","217681","0.0-11.0-1.5","null","<p>A másik játékos ezt választotta: <b>júdernek</b>.</p><p>&#x2705;</p><p>A te válaszod és a másik játékos válasza <b>megegyeznek</b>.</p>","null","","","","feedback trial","",""
"html-button-response-esp","23","223696","0.0-11.0-0.6","3345","Ez itt egy spáten. Elneveztem a kutyámat...","0","spátennek","[""spátennek"",""spátennak""]","spátennek","esp trial","10","true"
"html-button-response","24","227209","0.0-11.0-1.6","null","<p>A másik játékos ezt választotta: <b>spátennek</b>.</p><p>&#x2705;</p><p>A te válaszod és a másik játékos válasza <b>megegyeznek</b>.</p>","null","","","","feedback trial","",""
"html-button-response-esp","25","233212","0.0-11.0-0.7","3148","Ez itt egy priszkenc. Elneveztem a kutyámat...","0","priszkencnek","[""priszkencnek"",""priszkencnak""]","priszkencnak","esp trial","10","false"
"html-button-response","26","236723","0.0-11.0-1.7","null","<p>A másik játékos ezt választotta: <b>priszkencnak</b>.</p><p>&#10060;</p><p>A válaszaitok <b>nem</b> egyeznek meg.</p>","null","","","","feedback trial","",""
"html-button-response-esp","27","242742","0.0-11.0-0.8","3627","Ez itt egy nidét. Ott vagyunk a...","0","nidétben","[""nidétben"",""nidétban""]","nidétban","esp trial","10","false"
"html-button-response","28","246261","0.0-11.0-1.8","null","<p>A másik játékos ezt választotta: <b>nidétban</b>.</p><p>&#10060;</p><p>A válaszaitok <b>nem</b> egyeznek meg.</p>","null","","","","feedback trial","",""
"html-button-response-esp","29","252288","0.0-11.0-0.9","3263","Ez itt egy kadér. Nincs is jobb egy jó...","1","kadérnál","[""kadérnél"",""kadérnál""]","kadérnél","esp trial","10","false"
"html-button-response","30","255801","0.0-11.0-1.9","null","<p>A másik játékos ezt választotta: <b>kadérnél</b>.</p><p>&#10060;</p><p>A válaszaitok <b>nem</b> egyeznek meg.</p>","null","","","","feedback trial","",""
"html-button-response-esp","31","261811","0.0-11.0-0.10","3191","Ez itt egy ronvet. Elneveztem a kutyámat...","1","ronvetnak","[""ronvetnek"",""ronvetnak""]","ronvetnek","esp trial","10","false"
"html-button-response","32","265322","0.0-11.0-1.10","null","<p>A másik játékos ezt választotta: <b>ronvetnek</b>.</p><p>&#10060;</p><p>A válaszaitok <b>nem</b> egyeznek meg.</p>","null","","","","feedback trial","",""
"html-button-response-esp","33","271330","0.0-11.0-0.11","2884","Ez itt egy matéz. Ott vagyunk a...","1","matézban","[""matézben"",""matézban""]","matézben","esp trial","10","false"
"html-button-response","34","274859","0.0-11.0-1.11","null","<p>A másik játékos ezt választotta: <b>matézben</b>.</p><p>&#10060;</p><p>A válaszaitok <b>nem</b> egyeznek meg.</p>","null","","","","feedback trial","",""
"html-button-response-esp","35","280884","0.0-11.0-0.12","2401","Ez itt egy giheszt. Elneveztem a kutyámat...","1","gihesztnek","[""gihesztnak"",""gihesztnek""]","gihesztnak","esp trial","10","false"
"html-button-response","36","284394","0.0-11.0-1.12","null","<p>A másik játékos ezt választotta: <b>gihesztnak</b>.</p><p>&#10060;</p><p>A válaszaitok <b>nem</b> egyeznek meg.</p>","null","","","","feedback trial","",""
"html-button-response-esp","37","290404","0.0-11.0-0.13","3609","Ez itt egy prately. Elneveztem a kutyámat...","1","pratelynek","[""pratelynak"",""pratelynek""]","pratelynek","esp trial","10","true"
"html-button-response","38","293936","0.0-11.0-1.13","null","<p>A másik játékos ezt választotta: <b>pratelynek</b>.</p><p>&#x2705;</p><p>A te válaszod és a másik játékos válasza <b>megegyeznek</b>.</p>","null","","","","feedback trial","",""
"html-button-response-esp","39","299958","0.0-11.0-0.14","3666","Ez itt egy gicéj. Nincs is jobb egy jó...","1","gicéjnál","[""gicéjnél"",""gicéjnál""]","gicéjnál","esp trial","10","true"
"html-button-response","40","303478","0.0-11.0-1.14","null","<p>A másik játékos ezt választotta: <b>gicéjnál</b>.</p><p>&#x2705;</p><p>A te válaszod és a másik játékos válasza <b>megegyeznek</b>.</p>","null","","","","feedback trial","",""
"html-button-response-esp","41","309495","0.0-11.0-0.15","3207","Ez itt egy licegy. Ott vagyunk a...","1","licegyben","[""licegyban"",""licegyben""]","licegyban","esp trial","10","false"
"html-button-response","42","313028","0.0-11.0-1.15","null","<p>A másik játékos ezt választotta: <b>licegyban</b>.</p><p>&#10060;</p><p>A válaszaitok <b>nem</b> egyeznek meg.</p>","null","","","","feedback trial","",""
"html-button-response-esp","43","319055","0.0-11.0-0.16","3920","Ez itt egy hivép. Ott vagyunk a...","1","hivépben","[""hivépban"",""hivépben""]","hivépben","esp trial","10","true"
"html-button-response","44","322572","0.0-11.0-1.16","null","<p>A másik játékos ezt választotta: <b>hivépben</b>.</p><p>&#x2705;</p><p>A te válaszod és a másik játékos válasza <b>megegyeznek</b>.</p>","null","","","","feedback trial","",""
"html-button-response-esp","45","328582","0.0-11.0-0.17","3700","Ez itt egy sprízem. Nincs is jobb egy jó...","0","sprízemnél","[""sprízemnél"",""sprízemnál""]","sprízemnál","esp trial","10","false"
"html-button-response","46","332096","0.0-11.0-1.17","null","<p>A másik játékos ezt választotta: <b>sprízemnál</b>.</p><p>&#10060;</p><p>A válaszaitok <b>nem</b> egyeznek meg.</p>","null","","","","feedback trial","",""
"html-button-response-esp","47","338101","0.0-11.0-0.18","5064","Ez itt egy brágéd. Elneveztem a kutyámat...","1","brágédnak","[""brágédnek"",""brágédnak""]","brágédnek","esp trial","10","false"
"html-button-response","48","341628","0.0-11.0-1.18","null","<p>A másik játékos ezt választotta: <b>brágédnek</b>.</p><p>&#10060;</p><p>A válaszaitok <b>nem</b> egyeznek meg.</p>","null","","","","feedback trial","",""
"html-button-response-esp","49","347651","0.0-11.0-0.19","4351","Ez itt egy vodép. Elneveztem a kutyámat...","0","vodépnek","[""vodépnek"",""vodépnak""]","vodépnek","esp trial","10","true"
"html-button-response","50","351175","0.0-11.0-1.19","null","<p>A másik játékos ezt választotta: <b>vodépnek</b>.</p><p>&#x2705;</p><p>A te válaszod és a másik játékos válasza <b>megegyeznek</b>.</p>","null","","","","feedback trial","",""
"html-button-response-esp","51","357205","0.0-11.0-0.20","2532","Ez itt egy csinték. Ott vagyunk a...","0","csintékben","[""csintékben"",""csintékban""]","csintékben","esp trial","10","true"
"html-button-response","52","360721","0.0-11.0-1.20","null","<p>A másik játékos ezt választotta: <b>csintékben</b>.</p><p>&#x2705;</p><p>A te válaszod és a másik játékos válasza <b>megegyeznek</b>.</p>","null","","","","feedback trial","",""
"html-button-response-esp","53","366739","0.0-11.0-0.21","2785","Ez itt egy buhény. Ott vagyunk a...","0","buhényban","[""buhényban"",""buhényben""]","buhényben","esp trial","10","false"
"html-button-response","54","370247","0.0-11.0-1.21","null","<p>A másik játékos ezt választotta: <b>buhényben</b>.</p><p>&#10060;</p><p>A válaszaitok <b>nem</b> egyeznek meg.</p>","null","","","","feedback trial","",""
"html-button-response-esp","55","376265","0.0-11.0-0.22","3273","Ez itt egy gótem. Elneveztem a kutyámat...","1","gótemnak","[""gótemnek"",""gótemnak""]","gótemnek","esp trial","10","false"
"html-button-response","56","379786","0.0-11.0-1.22","null","<p>A másik játékos ezt választotta: <b>gótemnek</b>.</p><p>&#10060;</p><p>A válaszaitok <b>nem</b> egyeznek meg.</p>","null","","","","feedback trial","",""
"html-button-response-esp","57","385810","0.0-11.0-0.23","2733","Ez itt egy trincseg. Ott vagyunk a...","0","trincsegben","[""trincsegben"",""trincsegban""]","trincsegban","esp trial","10","false"
"html-button-response","58","389333","0.0-11.0-1.23","null","<p>A másik játékos ezt választotta: <b>trincsegban</b>.</p><p>&#10060;</p><p>A válaszaitok <b>nem</b> egyeznek meg.</p>","null","","","","feedback trial","",""
"html-button-response-esp","59","395343","0.0-11.0-0.24","4356","Ez itt egy trapszegy. Nincs is jobb egy jó...","0","trapszegynál","[""trapszegynál"",""trapszegynél""]","trapszegynél","esp trial","10","false"
"html-button-response","60","398862","0.0-11.0-1.24","null","<p>A másik játékos ezt választotta: <b>trapszegynél</b>.</p><p>&#10060;</p><p>A válaszaitok <b>nem</b> egyeznek meg.</p>","null","","","","feedback trial","",""
"html-button-response-esp","61","404881","0.0-11.0-0.25","4246","Ez itt egy jorzég. Elneveztem a kutyámat...","1","jorzégnek","[""jorzégnak"",""jorzégnek""]","jorzégnek","esp trial","10","true"
"html-button-response","62","408415","0.0-11.0-1.25","null","<p>A másik játékos ezt választotta: <b>jorzégnek</b>.</p><p>&#x2705;</p><p>A te válaszod és a másik játékos válasza <b>megegyeznek</b>.</p>","null","","","","feedback trial","",""
"html-button-response-esp","63","414437","0.0-11.0-0.26","2335","Ez itt egy bidem. Ott vagyunk a...","1","bidemben","[""bidemban"",""bidemben""]","bidemban","esp trial","10","false"
"html-button-response","64","417954","0.0-11.0-1.26","null","<p>A másik játékos ezt választotta: <b>bidemban</b>.</p><p>&#10060;</p><p>A válaszaitok <b>nem</b> egyeznek meg.</p>","null","","","","feedback trial","",""
"html-button-response-esp","65","423985","0.0-11.0-0.27","4638","Ez itt egy nyarcéj. Elneveztem a kutyámat...","1","nyarcéjnak","[""nyarcéjnek"",""nyarcéjnak""]","nyarcéjnek","esp trial","10","false"
"html-button-response","66","427495","0.0-11.0-1.27","null","<p>A másik játékos ezt választotta: <b>nyarcéjnek</b>.</p><p>&#10060;</p><p>A válaszaitok <b>nem</b> egyeznek meg.</p>","null","","","","feedback trial","",""
"html-button-response-esp","67","433519","0.0-11.0-0.28","2340","Ez itt egy zsopéd. Ott vagyunk a...","0","zsopédban","[""zsopédban"",""zsopédben""]","zsopédben","esp trial","10","false"
"html-button-response","68","437034","0.0-11.0-1.28","null","<p>A másik játékos ezt választotta: <b>zsopédben</b>.</p><p>&#10060;</p><p>A válaszaitok <b>nem</b> egyeznek meg.</p>","null","","","","feedback trial","",""
"html-button-response-esp","69","443465","0.0-11.0-0.29","5930","Ez itt egy klordény. Elneveztem a kutyámat...","0","klordénynek","[""klordénynek"",""klordénynak""]","klordénynek","esp trial","10","true"
"html-button-response","70","446995","0.0-11.0-1.29","null","<p>A másik játékos ezt választotta: <b>klordénynek</b>.</p><p>&#x2705;</p><p>A te válaszod és a másik játékos válasza <b>megegyeznek</b>.</p>","null","","","","feedback trial","",""
"html-button-response-esp","71","453021","0.0-11.0-0.30","3146","Ez itt egy bródesz. Elneveztem a kutyámat...","1","bródesznak","[""bródesznek"",""bródesznak""]","bródesznek","esp trial","10","false"
"html-button-response","72","456551","0.0-11.0-1.30","null","<p>A másik játékos ezt választotta: <b>bródesznek</b>.</p><p>&#10060;</p><p>A válaszaitok <b>nem</b> egyeznek meg.</p>","null","","","","feedback trial","",""
"html-button-response-esp","73","462553","0.0-11.0-0.31","2793","Ez itt egy hóbens. Ott vagyunk a...","0","hóbensben","[""hóbensben"",""hóbensban""]","hóbensben","esp trial","10","true"
"html-button-response","74","466076","0.0-11.0-1.31","null","<p>A másik játékos ezt választotta: <b>hóbensben</b>.</p><p>&#x2705;</p><p>A te válaszod és a másik játékos válasza <b>megegyeznek</b>.</p>","null","","","","feedback trial","",""
"html-button-response-esp","75","472100","0.0-11.0-0.32","3281","Ez itt egy navec. Ott vagyunk a...","1","navecban","[""navecben"",""navecban""]","navecben","esp trial","10","false"
"html-button-response","76","475617","0.0-11.0-1.32","null","<p>A másik játékos ezt választotta: <b>navecben</b>.</p><p>&#10060;</p><p>A válaszaitok <b>nem</b> egyeznek meg.</p>","null","","","","feedback trial","",""
"html-button-response-esp","77","481634","0.0-11.0-0.33","3171","Ez itt egy jábéz. Ott vagyunk a...","1","jábézban","[""jábézben"",""jábézban""]","jábézben","esp trial","10","false"
"html-button-response","78","485157","0.0-11.0-1.33","null","<p>A másik játékos ezt választotta: <b>jábézben</b>.</p><p>&#10060;</p><p>A válaszaitok <b>nem</b> egyeznek meg.</p>","null","","","","feedback trial","",""
"html-button-response-esp","79","491184","0.0-11.0-0.34","2275","Ez itt egy brotes. Ott vagyunk a...","1","brotesben","[""brotesban"",""brotesben""]","brotesben","esp trial","10","true"
"html-button-response","80","494695","0.0-11.0-1.34","null","<p>A másik játékos ezt választotta: <b>brotesben</b>.</p><p>&#x2705;</p><p>A te válaszod és a másik játékos válasza <b>megegyeznek</b>.</p>","null","","","","feedback trial","",""
"html-button-response-esp","81","500710","0.0-11.0-0.35","2241","Ez itt egy lismév. Ott vagyunk a...","0","lismévben","[""lismévben"",""lismévban""]","lismévben","esp trial","10","true"
"html-button-response","82","504234","0.0-11.0-1.35","null","<p>A másik játékos ezt választotta: <b>lismévben</b>.</p><p>&#x2705;</p><p>A te válaszod és a másik játékos válasza <b>megegyeznek</b>.</p>","null","","","","feedback trial","",""
"html-button-response-esp","83","510252","0.0-11.0-0.36","2874","Ez itt egy csartény. Elneveztem a kutyámat...","0","csarténynek","[""csarténynek"",""csarténynak""]","csarténynek","esp trial","10","true"
"html-button-response","84","513766","0.0-11.0-1.36","null","<p>A másik játékos ezt választotta: <b>csarténynek</b>.</p><p>&#x2705;</p><p>A te válaszod és a másik játékos válasza <b>megegyeznek</b>.</p>","null","","","","feedback trial","",""
"html-button-response-esp","85","519790","0.0-11.0-0.37","2512","Ez itt egy szihét. Elneveztem a kutyámat...","0","szihétnek","[""szihétnek"",""szihétnak""]","szihétnak","esp trial","10","false"
"html-button-response","86","523298","0.0-11.0-1.37","null","<p>A másik játékos ezt választotta: <b>szihétnak</b>.</p><p>&#10060;</p><p>A válaszaitok <b>nem</b> egyeznek meg.</p>","null","","","","feedback trial","",""
"html-button-response-esp","87","529313","0.0-11.0-0.38","3530","Ez itt egy tranék. Ott vagyunk a...","0","tranékben","[""tranékben"",""tranékban""]","tranékben","esp trial","10","true"
"html-button-response","88","532826","0.0-11.0-1.38","null","<p>A másik játékos ezt választotta: <b>tranékben</b>.</p><p>&#x2705;</p><p>A te válaszod és a másik játékos válasza <b>megegyeznek</b>.</p>","null","","","","feedback trial","",""
"html-button-response-esp","89","538853","0.0-11.0-0.39","3587","Ez itt egy csimen. Nincs is jobb egy jó...","0","csimennél","[""csimennél"",""csimennál""]","csimennál","esp trial","10","false"
"html-button-response","90","542376","0.0-11.0-1.39","null","<p>A másik játékos ezt választotta: <b>csimennál</b>.</p><p>&#10060;</p><p>A válaszaitok <b>nem</b> egyeznek meg.</p>","null","","","","feedback trial","",""
"html-button-response-esp","91","548385","0.0-11.0-0.40","2725","Ez itt egy fádens. Elneveztem a kutyámat...","0","fádensnek","[""fádensnek"",""fádensnak""]","fádensnek","esp trial","10","true"
"html-button-response","92","551903","0.0-11.0-1.40","null","<p>A másik játékos ezt választotta: <b>fádensnek</b>.</p><p>&#x2705;</p><p>A te válaszod és a másik játékos válasza <b>megegyeznek</b>.</p>","null","","","","feedback trial","",""
"html-button-response-esp","93","558192","0.0-11.0-0.41","5776","Ez itt egy jalrény. Nincs is jobb egy jó...","0","jalrénynál","[""jalrénynál"",""jalrénynél""]","jalrénynél","esp trial","10","false"
"html-button-response","94","561716","0.0-11.0-1.41","null","<p>A másik játékos ezt választotta: <b>jalrénynél</b>.</p><p>&#10060;</p><p>A válaszaitok <b>nem</b> egyeznek meg.</p>","null","","","","feedback trial","",""
"html-button-response-esp","95","567742","0.0-11.0-0.42","2719","Ez itt egy tránély. Elneveztem a kutyámat...","1","tránélynek","[""tránélynak"",""tránélynek""]","tránélynek","esp trial","10","true"
"html-button-response","96","571269","0.0-11.0-1.42","null","<p>A másik játékos ezt választotta: <b>tránélynek</b>.</p><p>&#x2705;</p><p>A te válaszod és a másik játékos válasza <b>megegyeznek</b>.</p>","null","","","","feedback trial","",""
"html-button-response-esp","97","577287","0.0-11.0-0.43","2093","Ez itt egy kábesz. Nincs is jobb egy jó...","0","kábesznél","[""kábesznél"",""kábesznál""]","kábesznél","esp trial","10","true"
"html-button-response","98","580799","0.0-11.0-1.43","null","<p>A másik játékos ezt választotta: <b>kábesznél</b>.</p><p>&#x2705;</p><p>A te válaszod és a másik játékos válasza <b>megegyeznek</b>.</p>","null","","","","feedback trial","",""
"html-button-response-esp","99","586818","0.0-11.0-0.44","2371","Ez itt egy szutend. Ott vagyunk a...","0","szutendben","[""szutendben"",""szutendban""]","szutendben","esp trial","10","true"
"html-button-response","100","590337","0.0-11.0-1.44","null","<p>A másik játékos ezt választotta: <b>szutendben</b>.</p><p>&#x2705;</p><p>A te válaszod és a másik játékos válasza <b>megegyeznek</b>.</p>","null","","","","feedback trial","",""
"html-button-response-esp","101","596353","0.0-11.0-0.45","2194","Ez itt egy kliszer. Nincs is jobb egy jó...","1","kliszernél","[""kliszernál"",""kliszernél""]","kliszernál","esp trial","10","false"
"html-button-response","102","599871","0.0-11.0-1.45","null","<p>A másik játékos ezt választotta: <b>kliszernál</b>.</p><p>&#10060;</p><p>A válaszaitok <b>nem</b> egyeznek meg.</p>","null","","","","feedback trial","",""
"html-button-response-esp","103","605889","0.0-11.0-0.46","2354","Ez itt egy brigeszt. Elneveztem a kutyámat...","1","brigesztnek","[""brigesztnak"",""brigesztnek""]","brigesztnak","esp trial","10","false"
"html-button-response","104","609415","0.0-11.0-1.46","null","<p>A másik játékos ezt választotta: <b>brigesztnak</b>.</p><p>&#10060;</p><p>A válaszaitok <b>nem</b> egyeznek meg.</p>","null","","","","feedback trial","",""
"html-button-response-esp","105","615429","0.0-11.0-0.47","4173","Ez itt egy ikszert. Ott vagyunk a...","0","ikszertben","[""ikszertben"",""ikszertban""]","ikszertban","esp trial","10","false"
"html-button-response","106","618939","0.0-11.0-1.47","null","<p>A másik játékos ezt választotta: <b>ikszertban</b>.</p><p>&#10060;</p><p>A válaszaitok <b>nem</b> egyeznek meg.</p>","null","","","","feedback trial","",""
"html-button-response-esp","107","624947","0.0-11.0-0.48","4377","Ez itt egy forzéd. Elneveztem a kutyámat...","1","forzédnek","[""forzédnak"",""forzédnek""]","forzédnek","esp trial","10","true"
"html-button-response","108","628465","0.0-11.0-1.48","null","<p>A másik játékos ezt választotta: <b>forzédnek</b>.</p><p>&#x2705;</p><p>A te válaszod és a másik játékos válasza <b>megegyeznek</b>.</p>","null","","","","feedback trial","",""
"html-button-response-esp","109","634477","0.0-11.0-0.49","2903","Ez itt egy dingec. Elneveztem a kutyámat...","0","dingecnek","[""dingecnek"",""dingecnak""]","dingecnak","esp trial","10","false"
"html-button-response","110","637987","0.0-11.0-1.49","null","<p>A másik játékos ezt választotta: <b>dingecnak</b>.</p><p>&#10060;</p><p>A válaszaitok <b>nem</b> egyeznek meg.</p>","null","","","","feedback trial","",""
"html-button-response-esp","111","643996","0.0-11.0-0.50","4970","Ez itt egy fincek. Nincs is jobb egy jó...","0","finceknél","[""finceknél"",""finceknál""]","finceknél","esp trial","10","true"
"html-button-response","112","647513","0.0-11.0-1.50","null","<p>A másik játékos ezt választotta: <b>finceknél</b>.</p><p>&#x2705;</p><p>A te válaszod és a másik játékos válasza <b>megegyeznek</b>.</p>","null","","","","feedback trial","",""
"html-button-response-esp","113","653518","0.0-11.0-0.51","3830","Ez itt egy brukész. Nincs is jobb egy jó...","1","brukésznál","[""brukésznél"",""brukésznál""]","brukésznél","esp trial","10","false"
"html-button-response","114","657041","0.0-11.0-1.51","null","<p>A másik játékos ezt választotta: <b>brukésznél</b>.</p><p>&#10060;</p><p>A válaszaitok <b>nem</b> egyeznek meg.</p>","null","","","","feedback trial","",""
"html-button-response-esp","115","663044","0.0-11.0-0.52","2476","Ez itt egy trigenc. Elneveztem a kutyámat...","1","trigencnek","[""trigencnak"",""trigencnek""]","trigencnak","esp trial","10","false"
"html-button-response","116","666568","0.0-11.0-1.52","null","<p>A másik játékos ezt választotta: <b>trigencnak</b>.</p><p>&#10060;</p><p>A válaszaitok <b>nem</b> egyeznek meg.</p>","null","","","","feedback trial","",""
"html-button-response-esp","117","672581","0.0-11.0-0.53","3116","Ez itt egy sporzem. Elneveztem a kutyámat...","1","sporzemnek","[""sporzemnak"",""sporzemnek""]","sporzemnek","esp trial","10","true"
"html-button-response","118","676101","0.0-11.0-1.53","null","<p>A másik játékos ezt választotta: <b>sporzemnek</b>.</p><p>&#x2705;</p><p>A te válaszod és a másik játékos válasza <b>megegyeznek</b>.</p>","null","","","","feedback trial","",""
"html-button-response","119","685641","0.0-12.0","9029","<p>A közös játék most véget ért.</p><p>Mielőtt eláruljuk a végső pontszámodat, arra kérlek, játszd a szóválasztós játékot néhány percig egyedül is.</p><p>A feladatod ugyanaz lesz, választani két lehetőség közül.</p><p>Most viszont egyedül kell döntened, hogy te melyiket választanád.</p>","0","","","","","",""
"html-button-response-clever","120","689744","0.0-13.0-0.0","3599","Ez itt egy trájeg. Ott vagyunk a...","0","trájegben","[""trájegben"",""trájegban""]","","posttest trial","1",""
"html-button-response-clever","121","694918","0.0-13.0-0.1","4659","Ez itt egy kalréz. Ott vagyunk a...","0","kalrézben","[""kalrézben"",""kalrézban""]","","posttest trial","1",""
"html-button-response-clever","122","698483","0.0-13.0-0.2","3048","Ez itt egy darhén. Ott vagyunk a...","0","darhénben","[""darhénben"",""darhénban""]","","posttest trial","1",""
"html-button-response-clever","123","702132","0.0-13.0-0.3","3137","Ez itt egy ronszek. Ott vagyunk a...","0","ronszekben","[""ronszekben"",""ronszekban""]","","posttest trial","1",""
"html-button-response-clever","124","706084","0.0-13.0-0.4","3440","Ez itt egy zsúdel. Elneveztem a kutyámat...","0","zsúdelnek","[""zsúdelnek"",""zsúdelnak""]","","posttest trial","1",""
"html-button-response-clever","125","710010","0.0-13.0-0.5","3417","Ez itt egy luméz. Ott vagyunk a...","0","lumézben","[""lumézben"",""lumézban""]","","posttest trial","1",""
"html-button-response-clever","126","713651","0.0-13.0-0.6","3131","Ez itt egy fájéz. Ott vagyunk a...","1","fájézben","[""fájézban"",""fájézben""]","","posttest trial","1",""
"html-button-response-clever","127","717049","0.0-13.0-0.7","2883","Ez itt egy ítens. Ott vagyunk a...","0","ítensben","[""ítensben"",""ítensban""]","","posttest trial","1",""
"html-button-response-clever","128","722756","0.0-13.0-0.8","5189","Ez itt egy bralkép. Ott vagyunk a...","1","bralképben","[""bralképban"",""bralképben""]","","posttest trial","1",""
"html-button-response-clever","129","726276","0.0-13.0-0.9","3016","Ez itt egy incéj. Elneveztem a kutyámat...","0","incéjnek","[""incéjnek"",""incéjnak""]","","posttest trial","1",""
"html-button-response-clever","130","730793","0.0-13.0-0.10","4002","Ez itt egy brindez. Elneveztem a kutyámat...","0","brindeznek","[""brindeznek"",""brindeznak""]","","posttest trial","1",""
"html-button-response-clever","131","735445","0.0-13.0-0.11","4134","Ez itt egy sprivenc. Nincs is jobb egy jó...","1","sprivencnél","[""sprivencnál"",""sprivencnél""]","","posttest trial","1",""
"html-button-response-clever","132","739663","0.0-13.0-0.12","3708","Ez itt egy jóbec. Elneveztem a kutyámat...","1","jóbecnek","[""jóbecnak"",""jóbecnek""]","","posttest trial","1",""
"html-button-response-clever","133","743625","0.0-13.0-0.13","3452","Ez itt egy nyupér. Nincs is jobb egy jó...","1","nyupérnél","[""nyupérnál"",""nyupérnél""]","","posttest trial","1",""
"html-button-response-clever","134","748282","0.0-13.0-0.14","4140","Ez itt egy zsigén. Nincs is jobb egy jó...","1","zsigénnél","[""zsigénnál"",""zsigénnél""]","","posttest trial","1",""
"html-button-response-clever","135","751336","0.0-13.0-0.15","2536","Ez itt egy sortem. Nincs is jobb egy jó...","1","sortemnél","[""sortemnál"",""sortemnél""]","","posttest trial","1",""
"html-button-response-clever","136","753719","0.0-13.0-0.16","1868","Ez itt egy zopély. Nincs is jobb egy jó...","1","zopélynél","[""zopélynál"",""zopélynél""]","","posttest trial","1",""
"html-button-response-clever","137","757880","0.0-13.0-0.17","3647","Ez itt egy dábegy. Ott vagyunk a...","0","dábegyben","[""dábegyben"",""dábegyban""]","","posttest trial","1",""
"html-button-response-clever","138","761903","0.0-13.0-0.18","3520","Ez itt egy zsádév. Elneveztem a kutyámat...","0","zsádévnek","[""zsádévnek"",""zsádévnak""]","","posttest trial","1",""
"html-button-response-clever","139","766508","0.0-13.0-0.19","4093","Ez itt egy zsáder. Ott vagyunk a...","1","zsáderben","[""zsáderban"",""zsáderben""]","","posttest trial","1",""
"html-button-response-clever","140","770670","0.0-13.0-0.20","3655","Ez itt egy vorszen. Nincs is jobb egy jó...","1","vorszennél","[""vorszennál"",""vorszennél""]","","posttest trial","1",""
"html-button-response-clever","141","774515","0.0-13.0-0.21","3327","Ez itt egy lorzens. Nincs is jobb egy jó...","1","lorzensnél","[""lorzensnál"",""lorzensnél""]","","posttest trial","1",""
"html-button-response-clever","142","780988","0.0-13.0-0.22","5972","Ez itt egy nyamet. Ott vagyunk a...","1","nyametben","[""nyametban"",""nyametben""]","","posttest trial","1",""
"html-button-response-clever","143","785259","0.0-13.0-0.23","3759","Ez itt egy narem. Ott vagyunk a...","1","naremben","[""naremban"",""naremben""]","","posttest trial","1",""
"html-button-response-clever","144","790488","0.0-13.0-0.24","4726","Ez itt egy nyítem. Ott vagyunk a...","0","nyítemben","[""nyítemben"",""nyítemban""]","","posttest trial","1",""
"html-button-response-clever","145","795887","0.0-13.0-0.25","4885","Ez itt egy garcép. Nincs is jobb egy jó...","0","garcépnél","[""garcépnél"",""garcépnál""]","","posttest trial","1",""
"html-button-response-clever","146","800422","0.0-13.0-0.26","4029","Ez itt egy spábét. Ott vagyunk a...","0","spábétben","[""spábétben"",""spábétban""]","","posttest trial","1",""
"html-button-response-clever","147","805473","0.0-13.0-0.27","4540","Ez itt egy dihely. Elneveztem a kutyámat...","1","dihelynek","[""dihelynak"",""dihelynek""]","","posttest trial","1",""
"html-button-response-clever","148","808588","0.0-13.0-0.28","2602","Ez itt egy kaszép. Elneveztem a kutyámat...","1","kaszépnek","[""kaszépnak"",""kaszépnek""]","","posttest trial","1",""
"html-button-response-clever","149","812049","0.0-13.0-0.29","2957","Ez itt egy dalenc. Nincs is jobb egy jó...","1","dalencnél","[""dalencnál"",""dalencnél""]","","posttest trial","1",""
"html-button-response-clever","150","815790","0.0-13.0-0.30","3234","Ez itt egy kátel. Elneveztem a kutyámat...","1","kátelnek","[""kátelnak"",""kátelnek""]","","posttest trial","1",""
"html-button-response-clever","151","819044","0.0-13.0-0.31","2747","Ez itt egy klosét. Elneveztem a kutyámat...","0","klosétnek","[""klosétnek"",""klosétnak""]","","posttest trial","1",""
"html-button-response-clever","152","823080","0.0-13.0-0.32","3524","Ez itt egy monveg. Nincs is jobb egy jó...","1","monvegnél","[""monvegnál"",""monvegnél""]","","posttest trial","1",""
"html-button-response-clever","153","827044","0.0-13.0-0.33","3460","Ez itt egy spicet. Elneveztem a kutyámat...","0","spicetnek","[""spicetnek"",""spicetnak""]","","posttest trial","1",""
"html-button-response-clever","154","829681","0.0-13.0-0.34","2134","Ez itt egy danét. Nincs is jobb egy jó...","0","danétnél","[""danétnél"",""danétnál""]","","posttest trial","1",""
"html-button-response-clever","155","834553","0.0-13.0-0.35","4361","Ez itt egy dorzéj. Elneveztem a kutyámat...","0","dorzéjnek","[""dorzéjnek"",""dorzéjnak""]","","posttest trial","1",""
"html-button-response-clever","156","838768","0.0-13.0-0.36","3710","Ez itt egy tosély. Ott vagyunk a...","1","tosélyben","[""tosélyban"",""tosélyben""]","","posttest trial","1",""
"html-button-response-clever","157","843869","0.0-13.0-0.37","4595","Ez itt egy klingesz. Ott vagyunk a...","1","klingeszben","[""klingeszban"",""klingeszben""]","","posttest trial","1",""
"html-button-response-clever","158","850814","0.0-13.0-0.38","6444","Ez itt egy bupéz. Ott vagyunk a...","1","bupézban","[""bupézben"",""bupézban""]","","posttest trial","1",""
"html-button-response-clever","159","858553","0.0-13.0-0.39","7237","Ez itt egy priszec. Ott vagyunk a...","0","priszecben","[""priszecben"",""priszecban""]","","posttest trial","1",""
"html-button-response-clever","160","863891","0.0-13.0-0.40","4822","Ez itt egy spanél. Nincs is jobb egy jó...","0","spanélnél","[""spanélnél"",""spanélnál""]","","posttest trial","1",""
"html-button-response-clever","161","871568","0.0-13.0-0.41","7160","Ez itt egy kalhész. Elneveztem a kutyámat...","0","kalhésznek","[""kalhésznek"",""kalhésznak""]","","posttest trial","1",""
"html-button-response-clever","162","875256","0.0-13.0-0.42","3184","Ez itt egy gúden. Ott vagyunk a...","1","gúdenben","[""gúdenban"",""gúdenben""]","","posttest trial","1",""
"html-button-response-clever","163","879364","0.0-13.0-0.43","3594","Ez itt egy pivéd. Ott vagyunk a...","1","pivédben","[""pivédban"",""pivédben""]","","posttest trial","1",""
"html-button-response-clever","164","884015","0.0-13.0-0.44","4138","Ez itt egy pítend. Ott vagyunk a...","0","pítendben","[""pítendben"",""pítendban""]","","posttest trial","1",""
"html-button-response-clever","165","889693","0.0-13.0-0.45","5172","Ez itt egy jukél. Nincs is jobb egy jó...","1","jukélnél","[""jukélnál"",""jukélnél""]","","posttest trial","1",""
"html-button-response-clever","166","893056","0.0-13.0-0.46","2860","Ez itt egy rapszek. Nincs is jobb egy jó...","1","rapszeknél","[""rapszeknál"",""rapszeknél""]","","posttest trial","1",""
"html-button-response-clever","167","896762","0.0-13.0-0.47","3191","Ez itt egy trismél. Elneveztem a kutyámat...","1","trismélnek","[""trismélnak"",""trismélnek""]","","posttest trial","1",""
"html-button-response-clever","168","899222","0.0-13.0-0.48","1957","Ez itt egy pijél. Nincs is jobb egy jó...","1","pijélnél","[""pijélnál"",""pijélnél""]","","posttest trial","1",""
"html-button-response-clever","169","902397","0.0-13.0-0.49","2670","Ez itt egy hágyét. Elneveztem a kutyámat...","1","hágyétnek","[""hágyétnak"",""hágyétnek""]","","posttest trial","1",""
"html-button-response-clever","170","905754","0.0-13.0-0.50","2846","Ez itt egy spumény. Elneveztem a kutyámat...","0","spuménynek","[""spuménynek"",""spuménynak""]","","posttest trial","1",""
"html-button-response-clever","171","909136","0.0-13.0-0.51","2871","Ez itt egy braszenc. Nincs is jobb egy jó...","0","braszencnél","[""braszencnél"",""braszencnál""]","","posttest trial","1",""
"html-button-response-clever","172","911946","0.0-13.0-0.52","2301","Ez itt egy pisély. Ott vagyunk a...","0","pisélyben","[""pisélyben"",""pisélyban""]","","posttest trial","1",""
"html-button-response-clever","173","914464","0.0-13.0-0.53","2008","Ez itt egy zihenc. Elneveztem a kutyámat...","1","zihencnek","[""zihencnak"",""zihencnek""]","","posttest trial","1",""
"html-button-response","174","921394","0.0-14.0","6422","<p> Vége a játéknak. A teljes pontszámod 24/54.</p><p> Szép munka! &#128526;&#128526;&#128526;</p><p>A Befejezés gomb megnyomása után bezárhatod a böngészőablakot.</p>","0","","","","","",""
"html-keyboard-response","175","926900","0.0-15.0","null","<div class=""message"">
         <p>Egy kis türelmet kérünk, amíg elmentjük az adatokat...</p>
         </div>","null","","","","","",""
