"trial_type","trial_index","time_elapsed","internal_node_id","rt","stimulus","response","response_string","choices","esp_response","trial_kind","list_number","esp_match"
"pavlovia","0","847","0.0-0.0","","","","","","","","",""
"html-button-response","1","5661274","0.0-1.0","2334232","<p>Kedves Résztvevő! A Budapesti Műszaki és Gazdaságtudományi Egyetem Kognitív Tudományi Tanszékének kutatásában való részvételed kérjük. A kutatásban azt vizsgáljuk, hogy a magyar anyanyelvűek hogyan használnak bizonyos szóalakokat, és hogy milyen képük van arról, hogy mások hogyan használják, hogyan képzik a szavakat. Ez hozzásegít bennünket ahhoz, hogy jobban megértsük, hogyan dolgozza fel és tárolja a nyelvet az emberi agy, és hogyan működnek, hogyan változnak egy adott közösség nyelvi konvenciói.</p><p>A vizsgálat egy rövid számítógépes feladatból fog állni. A kutatásban való részvétel önkéntes, a részvételi szándék bármikor visszavonható. A résztvevők eredményeit név nélkül kezeljük, így nem beazonosíthatók az adatok feldolgozása során. Minden személyes adatot az EU általános adatvédelmi rendeletének (GDPR) megfelelően kezelünk és legfeljebb öt éven belül megsemmisítünk. A vizsgálat jellemzően húsz percet vesz igénybe.</p><p>Kutatásvezető:</p><p>Dr. Rácz Péter, tudományos munkatárs, BME KTT</p><p>e-mail: racz.peter.marton@ttk.bme.hu</p>","0","","","","","",""
"html-button-response","2","5663545","0.0-2.0","1762","<p>A kísérletben szavakat fogsz látni. Ezek között lesznek olyanok, amelyeket ismersz, de előfordulhatnak olyanok is, amelyeket nem ismersz, sőt, vannak köztük kitalált szavak is. Minden szónál látni fogsz toldalékolt alakokat. A te feladatod az lesz, hogy minden szóhoz kiválaszd azt a toldalékolt alakot, amely a te számodra ismerősebben, természetesebben hangzik. Rossz válaszok nincsenek, mert van olyan, hogy különböző embereknek más és más szó tűnik jobb választásnak. A választ úgy tudod majd kiválasztani, ha rákattintasz.</p><p>Ebben a szóválasztós játékban egy másik játékossal együtt veszel majd részt. A másik játékos is minden esetben azok közül a lehetőségek közül válogathat, mint te. Kettőtök feladata az, hogy ugyanazt a lehetőséget válasszátok minden esetben. Ahhoz, hogy ez sikerüljön, neked figyelned kell arra, hogy a másik játékos milyen válaszokat ad, és ennek alapján meg kell tippelned, hogyan választ legközelebb. Ha eltalálod, akkor pontot kapsz.</p>","0","","","","","",""
"html-button-response","3","5667110","0.0-3.0","3062","<p>Kérjük, olvasd el az alábbi nyilatkozatot, és amennyiben egyetértesz vele, nyomj a Beleegyezés gombra!</p><p>Kijelentem, hogy magyar anyanyelvű személyként önként veszek részt a BME KTT kísérletében. A kutatás céljával és folyamatával kapcsolatban elegendő tájékoztatást kaptam, lehetőségem volt kérdések feltételére, és esetleges kérdéseimre megfelelő válaszokat kaptam. A tájékoztatás alapján elegendő mennyiségű információ áll a rendelkezésemre, hogy eldönthessem, részt kívánok-e venni a kutatásban.</p><p>Tisztában vagyok vele, hogy részvételi szándékomat és adataimat bármikor, indoklás nélkül visszavonhatom.</p><p>Értem és tudomásul veszem, hogy a kutatás tudományos célokat szolgál, és az általam szolgáltatott adatokat a BME kizárólag kutatási célból használja fel. Tudomásul veszem, hogy eredményeimet a többi résztvevő eredményeivel együtt kezelik, így egyéni teljesítményemről visszajelzést, szakvéleményt nem kapok.</p><p>Megértettem, hogy adataim kezelését illetően a BME az EU általános adatvédelmi rendelete (GDPR), a hatályos adatvédelmi törvény és a nemzetközi kutatás-etikai alapelvek szerint jár el. Eredményeim anonim módon kerülnek feldolgozásra, és a kutatás résztvevői az azonosításomra alkalmas adataimat harmadik félnek nem szolgáltatják ki. Engedélyezem a BME számára a jelen kutatásban felvett adataim feldolgozását és tárolását, beleértve azok későbbi kutatásokhoz való felhasználását is. Személyes adataim kezelésével kapcsolatban tájékoztatást kérhetek a kutatás résztvevőitől, az adatkezelés ellen tiltakozhatok, kérhetem személyes adataim helyesbítését, törlését vagy zárolását, valamint jogorvoslatért a Nemzeti Adatvédelmi és Információszabadság Hatósághoz fordulhatok.</p><p>Kijelentem, hogy a kutatásban való részvételem körülményeiről részletes tájékoztatást kaptam, és a feltételeket elfogadom.</p>","0","","","","","",""
"survey-text","4","5705527","0.0-4.0","37878","","{""Q0"":""qi3t00"",""Q1"":"""",""Q2"":""2003"",""Q3"":""13""}","","","","","",""
"html-button-response","5","5709107","0.0-5.0","3077","<p>Ebben a játékban szavakat kell toldalékolni.</p> <p>Minden körben mutatunk majd egy példamondatot, amiben lesz egy szó.</p> <p>Alatta jön egy második mondat, ezt a mondatot neked kell majd befejezni, ugyanezzel a szóval.</p> <p>Nem biztos, hogy a szó eleve ismerős lesz számodra!</p> <p>Minden mondathoz adunk két lehetőséget, ezeket balra és jobbra látod majd.</p> <p>A játék kb. negyedóráig-húsz percig tart.</p>","0","","","","","",""
"html-button-response","6","5742988","0.0-6.0","33379","<p>Nézzünk egy példát!</p> <p>A példamondat: ""János imád fláramolni, ezért sokat fláramlik.""</p><p>Neked ezt a mondatot kell befejezned: ""Ti ritkán...""</p><p>A lehetőségek pedig ezek:</p>","0","","","","","",""
"html-button-response","7","5745253","0.0-7.0","1762","<p>Nagyon jó.</p><p>Ezt a játékot nem egyedül fogod játszani, hanem egy másik játékossal.</p><p>Mielőtt továbblépünk, összekapcsolunk titeket egymással.</p><p>Ez igénybe vehet néhány másodpercet, amihez szíves türelmed kérjük.</p>","0","","","","","",""
"html-button-response","8","5750977","0.0-8.0","null","<p>Csatlakozás a másik játékoshoz...</p>","null","","","","","",""
"html-button-response","9","5753481","0.0-9.0","null","<p> Sikeres kapcsolódás!</p>","null","","","","","",""
"html-button-response","10","5758991","0.0-10.0","5007","<p>A következőkben ketten játsszátok a szóválasztós játékot.</p><p>A feladatotok az lesz, hogy minden körben <b>ugyanazt</b> a szót válasszátok.</p><p>Minden ilyen egyező válaszért pontot kaptok.</p><p>Próbáld meg kitalálni, mit választ a másik játékos!</p><p>Bármikor választhatsz, a körnek akkor van vége, ha mindketten döntöttetek.</p><p>Sok sikert!</p>","0","","","","","",""
"html-button-response-esp","11","5767879","0.0-11.0-0.0","8382","János imád brározni, ezért sokat brárlik. Ők ritkán...","0","brároznak","[""brároznak"",""brárlanak""]","brárlanak","esp trial","9","false"
"html-button-response","12","5771384","0.0-11.0-1.0","null","<p>A másik játékos ezt választotta: <b>brárlanak</b>.</p><p>&#10060;</p><p>A válaszaitok <b>nem</b> egyeznek meg.</p>","null","","","","feedback trial","",""
"html-button-response-esp","13","5775130","0.0-11.0-0.1","2606","János imád tribejezni, ezért sokat tribejlik. Ti ritkán...","0","tribejletek","[""tribejletek"",""tribejeztek""]","tribejeztek","esp trial","9","false"
"html-button-response","14","5778661","0.0-11.0-1.1","null","<p>A másik játékos ezt választotta: <b>tribejeztek</b>.</p><p>&#10060;</p><p>A válaszaitok <b>nem</b> egyeznek meg.</p>","null","","","","feedback trial","",""
"html-button-response-esp","15","5782441","0.0-11.0-0.2","1416","János imád lumozni, ezért sokat lumlik. Ti ritkán...","1","lumoztok","[""lumlotok"",""lumoztok""]","lumoztok","esp trial","9","true"
"html-button-response","16","5785981","0.0-11.0-1.2","null","<p>A másik játékos ezt választotta: <b>lumoztok</b>.</p><p>&#x2705;</p><p>A te válaszod és a másik játékos válasza <b>megegyeznek</b>.</p>","null","","","","feedback trial","",""
"html-button-response-esp","17","5789761","0.0-11.0-0.3","1802","János imád gyivepedni, ezért sokat gyivepszik. Ők ritkán...","0","gyivepszenek","[""gyivepszenek"",""gyivepednek""]","gyivepszenek","esp trial","9","true"
"html-button-response","18","5793301","0.0-11.0-1.3","null","<p>A másik játékos ezt választotta: <b>gyivepszenek</b>.</p><p>&#x2705;</p><p>A te válaszod és a másik játékos válasza <b>megegyeznek</b>.</p>","null","","","","feedback trial","",""
"html-button-response-esp","19","5797081","0.0-11.0-0.4","2416","János imád flézezni, ezért sokat flézlik. Ti ritkán...","1","flézeztek","[""flézletek"",""flézeztek""]","flézeztek","esp trial","9","true"
"html-button-response","20","5800621","0.0-11.0-1.4","null","<p>A másik játékos ezt választotta: <b>flézeztek</b>.</p><p>&#x2705;</p><p>A te válaszod és a másik játékos válasza <b>megegyeznek</b>.</p>","null","","","","feedback trial","",""
"html-button-response-esp","21","5807646","0.0-11.0-0.5","6512","János imád livényezni, ezért sokat livénylik. Mi ritkán...","0","livénylünk","[""livénylünk"",""livényezünk""]","livénylünk","esp trial","9","true"
"html-button-response","22","5811150","0.0-11.0-1.5","null","<p>A másik játékos ezt választotta: <b>livénylünk</b>.</p><p>&#x2705;</p><p>A te válaszod és a másik játékos válasza <b>megegyeznek</b>.</p>","null","","","","feedback trial","",""
"html-button-response-esp","23","5814895","0.0-11.0-0.6","109","János imád flubokozni, ezért sokat fluboklik. Ti ritkán...","1","flubokoztok","[""fluboklotok"",""flubokoztok""]","flubokoztok","esp trial","9","true"
"html-button-response","24","5818411","0.0-11.0-1.6","null","<p>A másik játékos ezt választotta: <b>flubokoztok</b>.</p><p>&#x2705;</p><p>A te válaszod és a másik játékos válasza <b>megegyeznek</b>.</p>","null","","","","feedback trial","",""
"html-button-response-esp","25","5822191","0.0-11.0-0.7","1137","János imád brilegezni, ezért sokat brilegzik. Mi ritkán...","0","brilegzünk","[""brilegzünk"",""brilegezünk""]","brilegzünk","esp trial","9","true"
"html-button-response","26","5825731","0.0-11.0-1.7","null","<p>A másik játékos ezt választotta: <b>brilegzünk</b>.</p><p>&#x2705;</p><p>A te válaszod és a másik játékos válasza <b>megegyeznek</b>.</p>","null","","","","feedback trial","",""
"html-button-response-esp","27","5832061","0.0-11.0-0.8","5819","János imád filányozni, ezért sokat filánylik. Mi ritkán...","0","filánylunk","[""filánylunk"",""filányozunk""]","filánylunk","esp trial","9","true"
"html-button-response","28","5835564","0.0-11.0-1.8","null","<p>A másik játékos ezt választotta: <b>filánylunk</b>.</p><p>&#x2705;</p><p>A te válaszod és a másik játékos válasza <b>megegyeznek</b>.</p>","null","","","","feedback trial","",""
"html-button-response-esp","29","5839310","0.0-11.0-0.9","1892","János imád sztritozni, ezért sokat sztritlik. Ők ritkán...","1","sztritoznak","[""sztritlanak"",""sztritoznak""]","sztritlanak","esp trial","9","false"
"html-button-response","30","5842831","0.0-11.0-1.9","null","<p>A másik játékos ezt választotta: <b>sztritlanak</b>.</p><p>&#10060;</p><p>A válaszaitok <b>nem</b> egyeznek meg.</p>","null","","","","feedback trial","",""
"html-button-response-esp","31","5846611","0.0-11.0-0.10","821","János imád brivepedni, ezért sokat brivepszik. Mi ritkán...","0","brivepedünk","[""brivepedünk"",""brivepszünk""]","brivepszünk","esp trial","9","false"
"html-button-response","32","5850151","0.0-11.0-1.10","null","<p>A másik játékos ezt választotta: <b>brivepszünk</b>.</p><p>&#10060;</p><p>A válaszaitok <b>nem</b> egyeznek meg.</p>","null","","","","feedback trial","",""
"html-button-response-esp","33","5857796","0.0-11.0-0.11","7134","János imád drojozni, ezért sokat drojzik. Mi ritkán...","0","drojozunk","[""drojozunk"",""drojzunk""]","drojzunk","esp trial","9","false"
"html-button-response","34","5861299","0.0-11.0-1.11","null","<p>A másik játékos ezt választotta: <b>drojzunk</b>.</p><p>&#10060;</p><p>A válaszaitok <b>nem</b> egyeznek meg.</p>","null","","","","feedback trial","",""
"html-button-response-esp","35","5867552","0.0-11.0-0.12","5751","János imád dirányozni, ezért sokat diránylik. Ők ritkán...","1","dirányoznak","[""diránylanak"",""dirányoznak""]","diránylanak","esp trial","9","false"
"html-button-response","36","5871056","0.0-11.0-1.12","null","<p>A másik játékos ezt választotta: <b>diránylanak</b>.</p><p>&#10060;</p><p>A válaszaitok <b>nem</b> egyeznek meg.</p>","null","","","","feedback trial","",""
"html-button-response-esp","37","5877047","0.0-11.0-0.13","5488","János imád gatágozni, ezért sokat gatáglik. Mi ritkán...","0","gatáglunk","[""gatáglunk"",""gatágozunk""]","gatágozunk","esp trial","9","false"
"html-button-response","38","5880550","0.0-11.0-1.13","null","<p>A másik játékos ezt választotta: <b>gatágozunk</b>.</p><p>&#10060;</p><p>A válaszaitok <b>nem</b> egyeznek meg.</p>","null","","","","feedback trial","",""
"html-button-response-esp","39","5884295","0.0-11.0-0.14","2741","János imád frésezni, ezért sokat fréslik. Mi ritkán...","0","fréslünk","[""fréslünk"",""frésezünk""]","fréslünk","esp trial","9","true"
"html-button-response","40","5887800","0.0-11.0-1.14","null","<p>A másik játékos ezt választotta: <b>fréslünk</b>.</p><p>&#x2705;</p><p>A te válaszod és a másik játékos válasza <b>megegyeznek</b>.</p>","null","","","","feedback trial","",""
"html-button-response-esp","41","5891580","0.0-11.0-0.15","1323","János imád kluzozni, ezért sokat kluzlik. Ti ritkán...","0","kluzlotok","[""kluzlotok"",""kluzoztok""]","kluzoztok","esp trial","9","false"
"html-button-response","42","5895120","0.0-11.0-1.15","null","<p>A másik játékos ezt választotta: <b>kluzoztok</b>.</p><p>&#10060;</p><p>A válaszaitok <b>nem</b> egyeznek meg.</p>","null","","","","feedback trial","",""
"html-button-response-esp","43","5898900","0.0-11.0-0.16","714","János imád flivegezni, ezért sokat flivegzik. Ők ritkán...","1","flivegeznek","[""flivegzenek"",""flivegeznek""]","flivegeznek","esp trial","9","true"
"html-button-response","44","5902440","0.0-11.0-1.16","null","<p>A másik játékos ezt választotta: <b>flivegeznek</b>.</p><p>&#x2705;</p><p>A te válaszod és a másik játékos válasza <b>megegyeznek</b>.</p>","null","","","","feedback trial","",""
"html-button-response-esp","45","5906220","0.0-11.0-0.17","975","János imád sprigozni, ezért sokat sprigzik. Ti ritkán...","0","sprigzotok","[""sprigzotok"",""sprigoztok""]","sprigoztok","esp trial","9","false"
"html-button-response","46","5909760","0.0-11.0-1.17","null","<p>A másik játékos ezt választotta: <b>sprigoztok</b>.</p><p>&#10060;</p><p>A válaszaitok <b>nem</b> egyeznek meg.</p>","null","","","","feedback trial","",""
"html-button-response-esp","47","5914145","0.0-11.0-0.18","3874","János imád tágarozni, ezért sokat tágarzik. Mi ritkán...","1","tágarozunk","[""tágarzunk"",""tágarozunk""]","tágarzunk","esp trial","9","false"
"html-button-response","48","5917648","0.0-11.0-1.18","null","<p>A másik játékos ezt választotta: <b>tágarzunk</b>.</p><p>&#10060;</p><p>A válaszaitok <b>nem</b> egyeznek meg.</p>","null","","","","feedback trial","",""
"html-button-response-esp","49","5921392","0.0-11.0-0.19","1825","János imád sponyozni, ezért sokat sponylik. Ők ritkán...","0","sponyoznak","[""sponyoznak"",""sponylanak""]","sponylanak","esp trial","9","false"
"html-button-response","50","5924910","0.0-11.0-1.19","null","<p>A másik játékos ezt választotta: <b>sponylanak</b>.</p><p>&#10060;</p><p>A válaszaitok <b>nem</b> egyeznek meg.</p>","null","","","","feedback trial","",""
"html-button-response-esp","51","5928690","0.0-11.0-0.20","1115","János imád tűgözni, ezért sokat tűgzik. Ti ritkán...","1","tűgöztök","[""tűgzötök"",""tűgöztök""]","tűgzötök","esp trial","9","false"
"html-button-response","52","5932230","0.0-11.0-1.20","null","<p>A másik játékos ezt választotta: <b>tűgzötök</b>.</p><p>&#10060;</p><p>A válaszaitok <b>nem</b> egyeznek meg.</p>","null","","","","feedback trial","",""
"html-button-response-esp","53","5936010","0.0-11.0-0.21","2610","János imád drivegezni, ezért sokat drivegzik. Ti ritkán...","0","drivegeztek","[""drivegeztek"",""drivegzetek""]","drivegeztek","esp trial","9","true"
"html-button-response","54","5939549","0.0-11.0-1.21","null","<p>A másik játékos ezt választotta: <b>drivegeztek</b>.</p><p>&#x2705;</p><p>A te válaszod és a másik játékos válasza <b>megegyeznek</b>.</p>","null","","","","feedback trial","",""
"html-button-response-esp","55","5943330","0.0-11.0-0.22","2057","János imád trírozni, ezért sokat trírzik. Mi ritkán...","1","trírozunk","[""trírzunk"",""trírozunk""]","trírzunk","esp trial","9","false"
"html-button-response","56","5946869","0.0-11.0-1.22","null","<p>A másik játékos ezt választotta: <b>trírzunk</b>.</p><p>&#10060;</p><p>A válaszaitok <b>nem</b> egyeznek meg.</p>","null","","","","feedback trial","",""
"html-button-response-esp","57","5950649","0.0-11.0-0.23","1131","János imád riványozni, ezért sokat riványlik. Ti ritkán...","0","riványlotok","[""riványlotok"",""riványoztok""]","riványlotok","esp trial","9","true"
"html-button-response","58","5954189","0.0-11.0-1.23","null","<p>A másik játékos ezt választotta: <b>riványlotok</b>.</p><p>&#x2705;</p><p>A te válaszod és a másik játékos válasza <b>megegyeznek</b>.</p>","null","","","","feedback trial","",""
"html-button-response-esp","59","5957969","0.0-11.0-0.24","1052","János imád trűnyözni, ezért sokat trűnylik. Ők ritkán...","0","trűnylenek","[""trűnylenek"",""trűnyöznek""]","trűnylenek","esp trial","9","true"
"html-button-response","60","5961509","0.0-11.0-1.24","null","<p>A másik játékos ezt választotta: <b>trűnylenek</b>.</p><p>&#x2705;</p><p>A te válaszod és a másik játékos válasza <b>megegyeznek</b>.</p>","null","","","","feedback trial","",""
"html-button-response-esp","61","5965289","0.0-11.0-0.25","2747","János imád mihágozni, ezért sokat mihágzik. Ti ritkán...","1","mihágoztok","[""mihágzotok"",""mihágoztok""]","mihágoztok","esp trial","9","true"
"html-button-response","62","5968828","0.0-11.0-1.25","null","<p>A másik játékos ezt választotta: <b>mihágoztok</b>.</p><p>&#x2705;</p><p>A te válaszod és a másik játékos válasza <b>megegyeznek</b>.</p>","null","","","","feedback trial","",""
"html-button-response-esp","63","5975169","0.0-11.0-0.26","5828","János imád gibemezni, ezért sokat gibemlik. Mi ritkán...","0","gibemezünk","[""gibemezünk"",""gibemlünk""]","gibemlünk","esp trial","9","false"
"html-button-response","64","5978673","0.0-11.0-1.26","null","<p>A másik játékos ezt választotta: <b>gibemlünk</b>.</p><p>&#10060;</p><p>A válaszaitok <b>nem</b> egyeznek meg.</p>","null","","","","feedback trial","",""
"html-button-response-esp","65","5984423","0.0-11.0-0.27","5247","János imád vobozni, ezért sokat vobzik. Ti ritkán...","1","voboztok","[""vobzotok"",""voboztok""]","voboztok","esp trial","9","true"
"html-button-response","66","5987927","0.0-11.0-1.27","null","<p>A másik játékos ezt választotta: <b>voboztok</b>.</p><p>&#x2705;</p><p>A te válaszod és a másik játékos válasza <b>megegyeznek</b>.</p>","null","","","","feedback trial","",""
"html-button-response-esp","67","5991671","0.0-11.0-0.28","2130","János imád prilepedni, ezért sokat prilepszik. Mi ritkán...","0","prilepedünk","[""prilepedünk"",""prilepszünk""]","prilepszünk","esp trial","9","false"
"html-button-response","68","5995198","0.0-11.0-1.28","null","<p>A másik játékos ezt választotta: <b>prilepszünk</b>.</p><p>&#10060;</p><p>A válaszaitok <b>nem</b> egyeznek meg.</p>","null","","","","feedback trial","",""
"html-button-response-esp","69","5998979","0.0-11.0-0.29","836","János imád spöközni, ezért sokat spöklik. Mi ritkán...","1","spöklünk","[""spöközünk"",""spöklünk""]","spöklünk","esp trial","9","true"
"html-button-response","70","6002519","0.0-11.0-1.29","null","<p>A másik játékos ezt választotta: <b>spöklünk</b>.</p><p>&#x2705;</p><p>A te válaszod és a másik játékos válasza <b>megegyeznek</b>.</p>","null","","","","feedback trial","",""
"html-button-response-esp","71","6006299","0.0-11.0-0.30","1522","János imád bregezni, ezért sokat bregzik. Mi ritkán...","0","bregzünk","[""bregzünk"",""bregezünk""]","bregzünk","esp trial","9","true"
"html-button-response","72","6009839","0.0-11.0-1.30","null","<p>A másik játékos ezt választotta: <b>bregzünk</b>.</p><p>&#x2705;</p><p>A te válaszod és a másik játékos válasza <b>megegyeznek</b>.</p>","null","","","","feedback trial","",""
"html-button-response-esp","73","6013619","0.0-11.0-0.31","1204","János imád pörözni, ezért sokat pörzik. Ti ritkán...","1","pöröztök","[""pörzötök"",""pöröztök""]","pöröztök","esp trial","9","true"
"html-button-response","74","6017159","0.0-11.0-1.31","null","<p>A másik játékos ezt választotta: <b>pöröztök</b>.</p><p>&#x2705;</p><p>A te válaszod és a másik játékos válasza <b>megegyeznek</b>.</p>","null","","","","feedback trial","",""
"html-button-response-esp","75","6020939","0.0-11.0-0.32","758","János imád sztrajozni, ezért sokat sztrajlik. Ők ritkán...","0","sztrajoznak","[""sztrajoznak"",""sztrajlanak""]","sztrajlanak","esp trial","9","false"
"html-button-response","76","6024478","0.0-11.0-1.32","null","<p>A másik játékos ezt választotta: <b>sztrajlanak</b>.</p><p>&#10060;</p><p>A válaszaitok <b>nem</b> egyeznek meg.</p>","null","","","","feedback trial","",""
"html-button-response-esp","77","6028259","0.0-11.0-0.33","838","János imád tibarozni, ezért sokat tibarzik. Ők ritkán...","0","tibaroznak","[""tibaroznak"",""tibarzanak""]","tibarzanak","esp trial","9","false"
"html-button-response","78","6031799","0.0-11.0-1.33","null","<p>A másik játékos ezt választotta: <b>tibarzanak</b>.</p><p>&#10060;</p><p>A válaszaitok <b>nem</b> egyeznek meg.</p>","null","","","","feedback trial","",""
"html-button-response-esp","79","6035579","0.0-11.0-0.34","735","János imád brivágozni, ezért sokat briváglik. Ők ritkán...","1","brivágoznak","[""briváglanak"",""brivágoznak""]","brivágoznak","esp trial","9","true"
"html-button-response","80","6039119","0.0-11.0-1.34","null","<p>A másik játékos ezt választotta: <b>brivágoznak</b>.</p><p>&#x2705;</p><p>A te válaszod és a másik játékos válasza <b>megegyeznek</b>.</p>","null","","","","feedback trial","",""
"html-button-response-esp","81","6042898","0.0-11.0-0.35","1481","János imád mísozni, ezért sokat míslik. Mi ritkán...","0","mísozunk","[""mísozunk"",""míslunk""]","míslunk","esp trial","9","false"
"html-button-response","82","6046439","0.0-11.0-1.35","null","<p>A másik játékos ezt választotta: <b>míslunk</b>.</p><p>&#10060;</p><p>A válaszaitok <b>nem</b> egyeznek meg.</p>","null","","","","feedback trial","",""
"html-button-response-esp","83","6051377","0.0-11.0-0.36","4428","János imád spibamozni, ezért sokat spibamlik. Ők ritkán...","1","spibamoznak","[""spibamlanak"",""spibamoznak""]","spibamlanak","esp trial","9","false"
"html-button-response","84","6054882","0.0-11.0-1.36","null","<p>A másik játékos ezt választotta: <b>spibamlanak</b>.</p><p>&#10060;</p><p>A válaszaitok <b>nem</b> egyeznek meg.</p>","null","","","","feedback trial","",""
"html-button-response-esp","85","6058627","0.0-11.0-0.37","833","János imád galározni, ezért sokat galárzik. Ők ritkán...","0","galároznak","[""galároznak"",""galárzanak""]","galároznak","esp trial","9","true"
"html-button-response","86","6062159","0.0-11.0-1.37","null","<p>A másik játékos ezt választotta: <b>galároznak</b>.</p><p>&#x2705;</p><p>A te válaszod és a másik játékos válasza <b>megegyeznek</b>.</p>","null","","","","feedback trial","",""
"html-button-response-esp","87","6065938","0.0-11.0-0.38","1374","János imád frihegezni, ezért sokat friheglik. Mi ritkán...","0","frihegezünk","[""frihegezünk"",""friheglünk""]","friheglünk","esp trial","9","false"
"html-button-response","88","6069478","0.0-11.0-1.38","null","<p>A másik játékos ezt választotta: <b>friheglünk</b>.</p><p>&#10060;</p><p>A válaszaitok <b>nem</b> egyeznek meg.</p>","null","","","","feedback trial","",""
"html-button-response-esp","89","6073258","0.0-11.0-0.39","942","János imád fröjözni, ezért sokat fröjlik. Mi ritkán...","1","fröjlünk","[""fröjözünk"",""fröjlünk""]","fröjlünk","esp trial","9","true"
"html-button-response","90","6076798","0.0-11.0-1.39","null","<p>A másik játékos ezt választotta: <b>fröjlünk</b>.</p><p>&#x2705;</p><p>A te válaszod és a másik játékos válasza <b>megegyeznek</b>.</p>","null","","","","feedback trial","",""
"html-button-response-esp","91","6080578","0.0-11.0-0.40","2685","János imád hákodni, ezért sokat hákszik. Ők ritkán...","1","hákszanak","[""hákodnak"",""hákszanak""]","hákszanak","esp trial","9","true"
"html-button-response","92","6084118","0.0-11.0-1.40","null","<p>A másik játékos ezt választotta: <b>hákszanak</b>.</p><p>&#x2705;</p><p>A te válaszod és a másik játékos válasza <b>megegyeznek</b>.</p>","null","","","","feedback trial","",""
"html-button-response-esp","93","6087968","0.0-11.0-0.41","3339","János imád pehégedni, ezért sokat pehégszik. Ti ritkán...","0","pehégedtek","[""pehégedtek"",""pehégszetek""]","pehégszetek","esp trial","9","false"
"html-button-response","94","6091471","0.0-11.0-1.41","null","<p>A másik játékos ezt választotta: <b>pehégszetek</b>.</p><p>&#10060;</p><p>A válaszaitok <b>nem</b> egyeznek meg.</p>","null","","","","feedback trial","",""
"html-button-response-esp","95","6095215","0.0-11.0-0.42","1670","János imád küsözni, ezért sokat küslik. Mi ritkán...","1","küslünk","[""küsözünk"",""küslünk""]","küslünk","esp trial","9","true"
"html-button-response","96","6098728","0.0-11.0-1.42","null","<p>A másik játékos ezt választotta: <b>küslünk</b>.</p><p>&#x2705;</p><p>A te válaszod és a másik játékos válasza <b>megegyeznek</b>.</p>","null","","","","feedback trial","",""
"html-button-response-esp","97","6102508","0.0-11.0-0.43","872","János imád sprimozni, ezért sokat sprimlik. Mi ritkán...","0","sprimlunk","[""sprimlunk"",""sprimozunk""]","sprimlunk","esp trial","9","true"
"html-button-response","98","6106048","0.0-11.0-1.43","null","<p>A másik játékos ezt választotta: <b>sprimlunk</b>.</p><p>&#x2705;</p><p>A te válaszod és a másik játékos válasza <b>megegyeznek</b>.</p>","null","","","","feedback trial","",""
"html-button-response-esp","99","6109828","0.0-11.0-0.44","1247","János imád nágapodni, ezért sokat nágapszik. Ők ritkán...","1","nágapszanak","[""nágapodnak"",""nágapszanak""]","nágapszanak","esp trial","9","true"
"html-button-response","100","6113368","0.0-11.0-1.44","null","<p>A másik játékos ezt választotta: <b>nágapszanak</b>.</p><p>&#x2705;</p><p>A te válaszod és a másik játékos válasza <b>megegyeznek</b>.</p>","null","","","","feedback trial","",""
"html-button-response-esp","101","6117148","0.0-11.0-0.45","1298","János imád klarágozni, ezért sokat klarágzik. Ti ritkán...","0","klarágzotok","[""klarágzotok"",""klarágoztok""]","klarágoztok","esp trial","9","false"
"html-button-response","102","6120688","0.0-11.0-1.45","null","<p>A másik játékos ezt választotta: <b>klarágoztok</b>.</p><p>&#10060;</p><p>A válaszaitok <b>nem</b> egyeznek meg.</p>","null","","","","feedback trial","",""
"html-button-response-esp","103","6124468","0.0-11.0-0.46","2055","János imád frivamozni, ezért sokat frivamlik. Mi ritkán...","1","frivamlunk","[""frivamozunk"",""frivamlunk""]","frivamlunk","esp trial","9","true"
"html-button-response","104","6128008","0.0-11.0-1.46","null","<p>A másik játékos ezt választotta: <b>frivamlunk</b>.</p><p>&#x2705;</p><p>A te válaszod és a másik játékos válasza <b>megegyeznek</b>.</p>","null","","","","feedback trial","",""
"html-button-response-esp","105","6131788","0.0-11.0-0.47","1506","János imád míjozni, ezért sokat míjzik. Mi ritkán...","0","míjzunk","[""míjzunk"",""míjozunk""]","míjzunk","esp trial","9","true"
"html-button-response","106","6135328","0.0-11.0-1.47","null","<p>A másik játékos ezt választotta: <b>míjzunk</b>.</p><p>&#x2705;</p><p>A te válaszod és a másik játékos válasza <b>megegyeznek</b>.</p>","null","","","","feedback trial","",""
"html-button-response-esp","107","6140094","0.0-11.0-0.48","4256","János imád brálamozni, ezért sokat brálamlik. Ők ritkán...","1","brálamoznak","[""brálamlanak"",""brálamoznak""]","brálamlanak","esp trial","9","false"
"html-button-response","108","6143597","0.0-11.0-1.48","null","<p>A másik játékos ezt választotta: <b>brálamlanak</b>.</p><p>&#10060;</p><p>A válaszaitok <b>nem</b> egyeznek meg.</p>","null","","","","feedback trial","",""
"html-button-response-esp","109","6147344","0.0-11.0-0.49","842","János imád pekedni, ezért sokat pekszik. Mi ritkán...","1","pekedünk","[""pekszünk"",""pekedünk""]","pekszünk","esp trial","9","false"
"html-button-response","110","6150868","0.0-11.0-1.49","null","<p>A másik játékos ezt választotta: <b>pekszünk</b>.</p><p>&#10060;</p><p>A válaszaitok <b>nem</b> egyeznek meg.</p>","null","","","","feedback trial","",""
"html-button-response-esp","111","6154647","0.0-11.0-0.50","1300","János imád brüszözni, ezért sokat brüszlik. Ti ritkán...","0","brüszöztök","[""brüszöztök"",""brüszlötök""]","brüszlötök","esp trial","9","false"
"html-button-response","112","6158188","0.0-11.0-1.50","null","<p>A másik játékos ezt választotta: <b>brüszlötök</b>.</p><p>&#10060;</p><p>A válaszaitok <b>nem</b> egyeznek meg.</p>","null","","","","feedback trial","",""
"html-button-response-esp","113","6161967","0.0-11.0-0.51","901","János imád spalározni, ezért sokat spalárzik. Ők ritkán...","1","spalároznak","[""spalárzanak"",""spalároznak""]","spalárzanak","esp trial","9","false"
"html-button-response","114","6165508","0.0-11.0-1.51","null","<p>A másik játékos ezt választotta: <b>spalárzanak</b>.</p><p>&#10060;</p><p>A válaszaitok <b>nem</b> egyeznek meg.</p>","null","","","","feedback trial","",""
"html-button-response-esp","115","6169288","0.0-11.0-0.52","1626","János imád lírozni, ezért sokat lírlik. Ők ritkán...","0","lírlanak","[""lírlanak"",""líroznak""]","lírlanak","esp trial","9","true"
"html-button-response","116","6172828","0.0-11.0-1.52","null","<p>A másik játékos ezt választotta: <b>lírlanak</b>.</p><p>&#x2705;</p><p>A te válaszod és a másik játékos válasza <b>megegyeznek</b>.</p>","null","","","","feedback trial","",""
"html-button-response-esp","117","6176608","0.0-11.0-0.53","907","János imád prazozni, ezért sokat prazlik. Mi ritkán...","0","prazlunk","[""prazlunk"",""prazozunk""]","prazlunk","esp trial","9","true"
"html-button-response","118","6180147","0.0-11.0-1.53","null","<p>A másik játékos ezt választotta: <b>prazlunk</b>.</p><p>&#x2705;</p><p>A te válaszod és a másik játékos válasza <b>megegyeznek</b>.</p>","null","","","","feedback trial","",""
"html-button-response","119","6196022","0.0-12.0","15365","<p>A közös játék most véget ért.</p><p>Mielőtt eláruljuk a végső pontszámodat, arra kérlek, játszd a szóválasztós játékot néhány percig egyedül is.</p><p>A feladatod ugyanaz lesz, választani két lehetőség közül.</p><p>Most viszont egyedül kell döntened, hogy te melyiket választanád.</p>","0","","","","","",""
"html-button-response-clever","120","6198312","0.0-13.0-0.0","1783","János imád gihamozni, ezért sokat gihamlik. Ők ritkán...","0","gihamoznak","[""gihamoznak"",""gihamlanak""]","","posttest trial","1",""
"html-button-response-clever","121","6200226","0.0-13.0-0.1","1412","János imád pibegezni, ezért sokat pibegzik. Ők ritkán...","1","pibegeznek","[""pibegzenek"",""pibegeznek""]","","posttest trial","1",""
"html-button-response-clever","122","6203162","0.0-13.0-0.2","2432","János imád frélegezni, ezért sokat frélegzik. Mi ritkán...","0","frélegzünk","[""frélegzünk"",""frélegezünk""]","","posttest trial","1",""
"html-button-response-clever","123","6205994","0.0-13.0-0.3","2330","János imád bügözni, ezért sokat bügzik. Ők ritkán...","0","bügzenek","[""bügzenek"",""bügöznek""]","","posttest trial","1",""
"html-button-response-clever","124","6208061","0.0-13.0-0.4","1563","János imád flodozni, ezért sokat flodlik. Ti ritkán...","1","flodlotok","[""flodoztok"",""flodlotok""]","","posttest trial","1",""
"html-button-response-clever","125","6210260","0.0-13.0-0.5","1696","János imád nurokozni, ezért sokat nuroklik. Mi ritkán...","0","nurokozunk","[""nurokozunk"",""nuroklunk""]","","posttest trial","1",""
"html-button-response-clever","126","6211694","0.0-13.0-0.6","932","János imád hiragozni, ezért sokat hiragzik. Ők ritkán...","0","hiragoznak","[""hiragoznak"",""hiragzanak""]","","posttest trial","1",""
"html-button-response-clever","127","6216944","0.0-13.0-0.7","4747","János imád vilesezni, ezért sokat vileslik. Mi ritkán...","1","vileslünk","[""vilesezünk"",""vileslünk""]","","posttest trial","1",""
"html-button-response-clever","128","6218960","0.0-13.0-0.8","1514","János imád frirozni, ezért sokat frirzik. Mi ritkán...","0","frirozunk","[""frirozunk"",""frirzunk""]","","posttest trial","1",""
"html-button-response-clever","129","6222745","0.0-13.0-0.9","3281","János imád nyülöközni, ezért sokat nyülöklik. Ők ritkán...","0","nyülöklenek","[""nyülöklenek"",""nyülököznek""]","","posttest trial","1",""
"html-button-response-clever","130","6224561","0.0-13.0-0.10","1313","János imád géregezni, ezért sokat géreglik. Ti ritkán...","1","géregletek","[""géregeztek"",""géregletek""]","","posttest trial","1",""
"html-button-response-clever","131","6226845","0.0-13.0-0.11","1781","János imád nyizozni, ezért sokat nyizlik. Mi ritkán...","1","nyizozunk","[""nyizlunk"",""nyizozunk""]","","posttest trial","1",""
"html-button-response-clever","132","6228678","0.0-13.0-0.12","1330","János imád spuborozni, ezért sokat spuborzik. Ők ritkán...","0","spuborzanak","[""spuborzanak"",""spuboroznak""]","","posttest trial","1",""
"html-button-response-clever","133","6231495","0.0-13.0-0.13","2314","János imád bribasozni, ezért sokat bribaslik. Ők ritkán...","0","bribaslanak","[""bribaslanak"",""bribasoznak""]","","posttest trial","1",""
"html-button-response-clever","134","6233078","0.0-13.0-0.14","1080","János imád trálakozni, ezért sokat trálaklik. Ők ritkán...","0","trálakoznak","[""trálakoznak"",""trálaklanak""]","","posttest trial","1",""
"html-button-response-clever","135","6235079","0.0-13.0-0.15","1496","János imád frorozni, ezért sokat frorlik. Ők ritkán...","1","frorlanak","[""froroznak"",""frorlanak""]","","posttest trial","1",""
"html-button-response-clever","136","6236411","0.0-13.0-0.16","830","János imád vihapodni, ezért sokat vihapszik. Mi ritkán...","1","vihapszunk","[""vihapodunk"",""vihapszunk""]","","posttest trial","1",""
"html-button-response-clever","137","6237861","0.0-13.0-0.17","947","János imád trálodni, ezért sokat trálszik. Mi ritkán...","0","trálodunk","[""trálodunk"",""trálszunk""]","","posttest trial","1",""
"html-button-response-clever","138","6239144","0.0-13.0-0.18","779","János imád spivejezni, ezért sokat spivejlik. Ők ritkán...","0","spivejlenek","[""spivejlenek"",""spivejeznek""]","","posttest trial","1",""
"html-button-response-clever","139","6240544","0.0-13.0-0.19","898","János imád flugonyozni, ezért sokat flugonylik. Ők ritkán...","1","flugonyoznak","[""flugonylanak"",""flugonyoznak""]","","posttest trial","1",""
"html-button-response-clever","140","6242361","0.0-13.0-0.20","1314","János imád kláragodni, ezért sokat kláragszik. Ti ritkán...","1","kláragszotok","[""kláragodtok"",""kláragszotok""]","","posttest trial","1",""
"html-button-response-clever","141","6244228","0.0-13.0-0.21","1364","János imád flátozni, ezért sokat flátlik. Ti ritkán...","0","flátoztok","[""flátoztok"",""flátlotok""]","","posttest trial","1",""
"html-button-response-clever","142","6246128","0.0-13.0-0.22","1397","János imád dibágozni, ezért sokat dibáglik. Ti ritkán...","0","dibáglotok","[""dibáglotok"",""dibágoztok""]","","posttest trial","1",""
"html-button-response-clever","143","6250694","0.0-13.0-0.23","4064","János imád klégezni, ezért sokat kléglik. Mi ritkán...","1","klégezünk","[""kléglünk"",""klégezünk""]","","posttest trial","1",""
"html-button-response-clever","144","6253845","0.0-13.0-0.24","2648","János imád brűközni, ezért sokat brűklik. Ti ritkán...","1","brűköztök","[""brűklötök"",""brűköztök""]","","posttest trial","1",""
"html-button-response-clever","145","6254962","0.0-13.0-0.25","614","János imád klűmözni, ezért sokat klűmlik. Ti ritkán...","1","klűmlötök","[""klűmöztök"",""klűmlötök""]","","posttest trial","1",""
"html-button-response-clever","146","6256478","0.0-13.0-0.26","1012","János imád bötőrözni, ezért sokat bötőrzik. Mi ritkán...","0","bötőrözünk","[""bötőrözünk"",""bötőrzünk""]","","posttest trial","1",""
"html-button-response-clever","147","6259295","0.0-13.0-0.27","2315","János imád ribegedni, ezért sokat ribegszik. Ti ritkán...","0","ribegszetek","[""ribegszetek"",""ribegedtek""]","","posttest trial","1",""
"html-button-response-clever","148","6262897","0.0-13.0-0.28","3099","János imád jurozni, ezért sokat jurlik. Mi ritkán...","1","jurlunk","[""jurozunk"",""jurlunk""]","","posttest trial","1",""
"html-button-response-clever","149","6264445","0.0-13.0-0.29","1045","János imád játozni, ezért sokat játlik. Mi ritkán...","0","játozunk","[""játozunk"",""játlunk""]","","posttest trial","1",""
"html-button-response-clever","150","6266012","0.0-13.0-0.30","1064","János imád döjözni, ezért sokat döjlik. Ők ritkán...","0","döjlenek","[""döjlenek"",""döjöznek""]","","posttest trial","1",""
"html-button-response-clever","151","6267579","0.0-13.0-0.31","1064","János imád sprebezni, ezért sokat sprebzik. Ők ritkán...","0","sprebeznek","[""sprebeznek"",""sprebzenek""]","","posttest trial","1",""
"html-button-response-clever","152","6269080","0.0-13.0-0.32","999","János imád tögözni, ezért sokat töglik. Ők ritkán...","0","töglenek","[""töglenek"",""tögöznek""]","","posttest trial","1",""
"html-button-response-clever","153","6270864","0.0-13.0-0.33","1281","János imád bejezni, ezért sokat bejzik. Mi ritkán...","1","bejzünk","[""bejezünk"",""bejzünk""]","","posttest trial","1",""
"html-button-response-clever","154","6271813","0.0-13.0-0.34","446","János imád hubonyozni, ezért sokat hubonylik. Ti ritkán...","1","hubonyoztok","[""hubonylotok"",""hubonyoztok""]","","posttest trial","1",""
"html-button-response-clever","155","6273623","0.0-13.0-0.35","1306","János imád nivározni, ezért sokat nivárzik. Ti ritkán...","0","nivároztok","[""nivároztok"",""nivárzotok""]","","posttest trial","1",""
"html-button-response-clever","156","6275520","0.0-13.0-0.36","1394","János imád plibozni, ezért sokat plibzik. Ti ritkán...","0","pliboztok","[""pliboztok"",""plibzotok""]","","posttest trial","1",""
"html-button-response-clever","157","6277754","0.0-13.0-0.37","1731","János imád trukodni, ezért sokat trukszik. Ti ritkán...","1","trukodtok","[""trukszotok"",""trukodtok""]","","posttest trial","1",""
"html-button-response-clever","158","6278795","0.0-13.0-0.38","538","János imád flerékedni, ezért sokat flerékszik. Mi ritkán...","1","flerékszünk","[""flerékedünk"",""flerékszünk""]","","posttest trial","1",""
"html-button-response-clever","159","6288037","0.0-13.0-0.39","8739","János imád dralágozni, ezért sokat dralágzik. Mi ritkán...","0","dralágozunk","[""dralágozunk"",""dralágzunk""]","","posttest trial","1",""
"html-button-response-clever","160","6289462","0.0-13.0-0.40","922","János imád nyádozni, ezért sokat nyádlik. Ők ritkán...","1","nyádoznak","[""nyádlanak"",""nyádoznak""]","","posttest trial","1",""
"html-button-response-clever","161","6291371","0.0-13.0-0.41","1406","János imád prugorozni, ezért sokat prugorzik. Ti ritkán...","0","prugoroztok","[""prugoroztok"",""prugorzotok""]","","posttest trial","1",""
"html-button-response-clever","162","6292354","0.0-13.0-0.42","481","János imád frinyozni, ezért sokat frinylik. Mi ritkán...","0","frinylunk","[""frinylunk"",""frinyozunk""]","","posttest trial","1",""
"html-button-response-clever","163","6293354","0.0-13.0-0.43","497","János imád prihegedni, ezért sokat prihegszik. Ők ritkán...","0","prihegszenek","[""prihegszenek"",""prihegednek""]","","posttest trial","1",""
"html-button-response-clever","164","6294670","0.0-13.0-0.44","815","János imád sűjözni, ezért sokat sűjlik. Mi ritkán...","1","sűjlünk","[""sűjözünk"",""sűjlünk""]","","posttest trial","1",""
"html-button-response-clever","165","6296787","0.0-13.0-0.45","1614","János imád brürözni, ezért sokat brürzik. Ők ritkán...","0","brürzenek","[""brürzenek"",""brüröznek""]","","posttest trial","1",""
"html-button-response-clever","166","6297846","0.0-13.0-0.46","557","János imád vehékedni, ezért sokat vehékszik. Mi ritkán...","1","vehékszünk","[""vehékedünk"",""vehékszünk""]","","posttest trial","1",""
"html-button-response-clever","167","6298714","0.0-13.0-0.47","365","János imád metégedni, ezért sokat metégszik. Ők ritkán...","1","metégszenek","[""metégednek"",""metégszenek""]","","posttest trial","1",""
"html-button-response-clever","168","6299786","0.0-13.0-0.48","570","János imád bribékedni, ezért sokat bribékszik. Ti ritkán...","0","bribékszetek","[""bribékszetek"",""bribékedtek""]","","posttest trial","1",""
"html-button-response-clever","169","6301014","0.0-13.0-0.49","725","János imád sztredezni, ezért sokat sztredlik. Ti ritkán...","1","sztredeztek","[""sztredletek"",""sztredeztek""]","","posttest trial","1",""
"html-button-response-clever","170","6301804","0.0-13.0-0.50","288","János imád bresezni, ezért sokat breslik. Ők ritkán...","1","breslenek","[""breseznek"",""breslenek""]","","posttest trial","1",""
"html-button-response-clever","171","6303329","0.0-13.0-0.51","1022","János imád klihasozni, ezért sokat klihaslik. Ti ritkán...","0","klihaslotok","[""klihaslotok"",""klihasoztok""]","","posttest trial","1",""
"html-button-response-clever","172","6304230","0.0-13.0-0.52","399","János imád trilekedni, ezért sokat trilekszik. Ti ritkán...","0","trilekszetek","[""trilekszetek"",""trilekedtek""]","","posttest trial","1",""
"html-button-response-clever","173","6305214","0.0-13.0-0.53","481","János imád nyöbözni, ezért sokat nyöbzik. Ők ritkán...","0","nyöböznek","[""nyöböznek"",""nyöbzenek""]","","posttest trial","1",""
"html-button-response","174","6321539","0.0-14.0","15820","<p> Vége a játéknak. A teljes pontszámod 28/54.</p><p> Szép munka! &#128526;&#128526;&#128526;</p><p>A Befejezés gomb megnyomása után bezárhatod a böngészőablakot.</p>","0","","","","","",""
"html-keyboard-response","175","6327043","0.0-15.0","null","<div class=""message"">
         <p>Egy kis türelmet kérünk, amíg elmentjük az adatokat...</p>
         </div>","null","","","","","",""
