"trial_type","trial_index","time_elapsed","internal_node_id","rt","stimulus","response","response_string","choices","esp_response","trial_kind","list_number","esp_match"
"pavlovia","0","555","0.0-0.0","","","","","","","","",""
"html-button-response","1","7329","0.0-1.0","6262","<p>Kedves Résztvevő! A Budapesti Műszaki és Gazdaságtudományi Egyetem Kognitív Tudományi Tanszékének kutatásában való részvételed kérjük. A kutatásban azt vizsgáljuk, hogy a magyar anyanyelvűek hogyan használnak bizonyos szóalakokat, és hogy milyen képük van arról, hogy mások hogyan használják, hogyan képzik a szavakat. Ez hozzásegít bennünket ahhoz, hogy jobban megértsük, hogyan dolgozza fel és tárolja a nyelvet az emberi agy, és hogyan működnek, hogyan változnak egy adott közösség nyelvi konvenciói.</p><p>A vizsgálat egy rövid számítógépes feladatból fog állni. A kutatásban való részvétel önkéntes, a részvételi szándék bármikor visszavonható. A résztvevők eredményeit név nélkül kezeljük, így nem beazonosíthatók az adatok feldolgozása során. Minden személyes adatot az EU általános adatvédelmi rendeletének (GDPR) megfelelően kezelünk és legfeljebb öt éven belül megsemmisítünk. A vizsgálat jellemzően húsz percet vesz igénybe.</p><p>Kutatásvezető:</p><p>Dr. Rácz Péter, tudományos munkatárs, BME KTT</p><p>e-mail: racz.peter.marton@ttk.bme.hu</p>","0","","","","","",""
"html-button-response","2","52772","0.0-2.0","44937","<p>A kísérletben szavakat fogsz látni. Ezek között lesznek olyanok, amelyeket ismersz, de előfordulhatnak olyanok is, amelyeket nem ismersz, sőt, vannak köztük kitalált szavak is. Minden szónál látni fogsz toldalékolt alakokat. A te feladatod az lesz, hogy minden szóhoz kiválaszd azt a toldalékolt alakot, amely a te számodra ismerősebben, természetesebben hangzik. Rossz válaszok nincsenek, mert van olyan, hogy különböző embereknek más és más szó tűnik jobb választásnak. A választ úgy tudod majd kiválasztani, ha rákattintasz.</p><p>Ebben a szóválasztós játékban egy másik játékossal együtt veszel majd részt. A másik játékos is minden esetben azok közül a lehetőségek közül válogathat, mint te. Kettőtök feladata az, hogy ugyanazt a lehetőséget válasszátok minden esetben. Ahhoz, hogy ez sikerüljön, neked figyelned kell arra, hogy a másik játékos milyen válaszokat ad, és ennek alapján meg kell tippelned, hogyan választ legközelebb. Ha eltalálod, akkor pontot kapsz.</p>","0","","","","","",""
"html-button-response","3","57539","0.0-3.0","4257","<p>Kérjük, olvasd el az alábbi nyilatkozatot, és amennyiben egyetértesz vele, nyomj a Beleegyezés gombra!</p><p>Kijelentem, hogy magyar anyanyelvű személyként önként veszek részt a BME KTT kísérletében. A kutatás céljával és folyamatával kapcsolatban elegendő tájékoztatást kaptam, lehetőségem volt kérdések feltételére, és esetleges kérdéseimre megfelelő válaszokat kaptam. A tájékoztatás alapján elegendő mennyiségű információ áll a rendelkezésemre, hogy eldönthessem, részt kívánok-e venni a kutatásban.</p><p>Tisztában vagyok vele, hogy részvételi szándékomat és adataimat bármikor, indoklás nélkül visszavonhatom.</p><p>Értem és tudomásul veszem, hogy a kutatás tudományos célokat szolgál, és az általam szolgáltatott adatokat a BME kizárólag kutatási célból használja fel. Tudomásul veszem, hogy eredményeimet a többi résztvevő eredményeivel együtt kezelik, így egyéni teljesítményemről visszajelzést, szakvéleményt nem kapok.</p><p>Megértettem, hogy adataim kezelését illetően a BME az EU általános adatvédelmi rendelete (GDPR), a hatályos adatvédelmi törvény és a nemzetközi kutatás-etikai alapelvek szerint jár el. Eredményeim anonim módon kerülnek feldolgozásra, és a kutatás résztvevői az azonosításomra alkalmas adataimat harmadik félnek nem szolgáltatják ki. Engedélyezem a BME számára a jelen kutatásban felvett adataim feldolgozását és tárolását, beleértve azok későbbi kutatásokhoz való felhasználását is. Személyes adataim kezelésével kapcsolatban tájékoztatást kérhetek a kutatás résztvevőitől, az adatkezelés ellen tiltakozhatok, kérhetem személyes adataim helyesbítését, törlését vagy zárolását, valamint jogorvoslatért a Nemzeti Adatvédelmi és Információszabadság Hatósághoz fordulhatok.</p><p>Kijelentem, hogy a kutatásban való részvételem körülményeiről részletes tájékoztatást kaptam, és a feltételeket elfogadom.</p>","0","","","","","",""
"survey-text","4","80447","0.0-4.0","22384","","{""Q0"":""I2PAOR"",""Q1"":"""",""Q2"":""2001"",""Q3"":""14""}","","","","","",""
"html-button-response","5","93438","0.0-5.0","12478","<p>Ebben a játékban szavakat kell toldalékolni.</p> <p>Minden körben mutatunk majd egy példamondatot, amiben lesz egy szó.</p> <p>Alatta jön egy második mondat, ezt a mondatot neked kell majd befejezni, ugyanezzel a szóval.</p> <p>Nem biztos, hogy a szó eleve ismerős lesz számodra!</p> <p>Minden mondathoz adunk két lehetőséget, ezeket balra és jobbra látod majd.</p> <p>A játék kb. negyedóráig-húsz percig tart.</p>","0","","","","","",""
"html-button-response","6","108785","0.0-6.0","14828","<p>Nézzünk egy példát!</p> <p>A példamondat: ""János nagyon szeret rancsúrozni.""</p><p>Neked ezt a mondatot kell befejezned: ""Én is szívesen...""</p><p>A lehetőségek pedig ezek:</p>","0","","","","","",""
"html-button-response","7","117475","0.0-7.0","8176","<p>Nagyon jó.</p><p>Ezt a játékot nem egyedül fogod játszani, hanem egy másik játékossal.</p><p>Mielőtt továbblépünk, összekapcsolunk titeket egymással.</p><p>Ez igénybe vehet néhány másodpercet, amihez szíves türelmed kérjük.</p>","0","","","","","",""
"html-button-response","8","123213","0.0-8.0","null","<p>Csatlakozás a másik játékoshoz...</p>","null","","","","","",""
"html-button-response","9","125733","0.0-9.0","null","<p> Sikeres kapcsolódás!</p>","null","","","","","",""
"html-button-response","10","129236","0.0-10.0","2998","<p>A következőkben ketten játsszátok a szóválasztós játékot.</p><p>A feladatotok az lesz, hogy minden körben <b>ugyanazt</b> a szót válasszátok.</p><p>Minden ilyen egyező válaszért pontot kaptok.</p><p>Próbáld meg kitalálni, mit választ a másik játékos!</p><p>Bármikor választhatsz, a körnek akkor van vége, ha mindketten döntöttetek.</p><p>Sok sikert!</p>","0","","","","","",""
"html-button-response-esp","11","143098","0.0-11.0-0.0","13339","Te bizony sokat brágaklasz. Én is sokat...","1","brágaklom","[""brágaklok"",""brágaklom""]","brágaklok","esp trial","2","false"
"html-button-response","12","146622","0.0-11.0-1.0","null","<p>A másik játékos ezt választotta: <b>brágaklok</b>.</p><p>&#10060;</p><p>A válaszaitok <b>nem</b> egyeznek meg.</p>","null","","","","feedback trial","",""
"html-button-response-esp","13","153728","0.0-11.0-0.1","6595","Te bizony sokat büglesz. Én is sokat...","0","büglök","[""büglök"",""büglöm""]","büglöm","esp trial","2","false"
"html-button-response","14","157238","0.0-11.0-1.1","null","<p>A másik játékos ezt választotta: <b>büglöm</b>.</p><p>&#10060;</p><p>A válaszaitok <b>nem</b> egyeznek meg.</p>","null","","","","feedback trial","",""
"html-button-response-esp","15","162340","0.0-11.0-0.2","4593","Te bizony sokat sprogzol. Én is sokat...","0","sprogzom","[""sprogzom"",""sprogzok""]","sprogzok","esp trial","2","false"
"html-button-response","16","165864","0.0-11.0-1.2","null","<p>A másik játékos ezt választotta: <b>sprogzok</b>.</p><p>&#10060;</p><p>A válaszaitok <b>nem</b> egyeznek meg.</p>","null","","","","feedback trial","",""
"html-button-response-esp","17","170591","0.0-11.0-0.3","1605","Te bizony sokat tiregzel. Én is sokat...","0","tiregzek","[""tiregzek"",""tiregzem""]","tiregzem","esp trial","2","false"
"html-button-response","18","174114","0.0-11.0-1.3","null","<p>A másik játékos ezt választotta: <b>tiregzem</b>.</p><p>&#10060;</p><p>A válaszaitok <b>nem</b> egyeznek meg.</p>","null","","","","feedback trial","",""
"html-button-response-esp","19","181506","0.0-11.0-0.4","6875","Te bizony sokat sojzol. Én is sokat...","0","sojzok","[""sojzok"",""sojzom""]","sojzok","esp trial","2","true"
"html-button-response","20","185018","0.0-11.0-1.4","null","<p>A másik játékos ezt választotta: <b>sojzok</b>.</p><p>&#x2705;</p><p>A te válaszod és a másik játékos válasza <b>megegyeznek</b>.</p>","null","","","","feedback trial","",""
"html-button-response-esp","21","190720","0.0-11.0-0.5","5195","Te bizony sokat sprökszöl. Én is sokat...","0","sprökszöm","[""sprökszöm"",""sprökszök""]","sprökszök","esp trial","2","false"
"html-button-response","22","194237","0.0-11.0-1.5","null","<p>A másik játékos ezt választotta: <b>sprökszök</b>.</p><p>&#10060;</p><p>A válaszaitok <b>nem</b> egyeznek meg.</p>","null","","","","feedback trial","",""
"html-button-response-esp","23","199837","0.0-11.0-0.6","5099","Te bizony sokat ribegzel. Én is sokat...","0","ribegzem","[""ribegzem"",""ribegzek""]","ribegzem","esp trial","2","true"
"html-button-response","24","203350","0.0-11.0-1.6","null","<p>A másik játékos ezt választotta: <b>ribegzem</b>.</p><p>&#x2705;</p><p>A te válaszod és a másik játékos válasza <b>megegyeznek</b>.</p>","null","","","","feedback trial","",""
"html-button-response-esp","25","208422","0.0-11.0-0.7","4559","Te bizony sokat prűrlesz. Én is sokat...","1","prűrlök","[""prűrlöm"",""prűrlök""]","prűrlöm","esp trial","2","false"
"html-button-response","26","212903","0.0-11.0-1.7","null","<p>A másik játékos ezt választotta: <b>prűrlöm</b>.</p><p>&#10060;</p><p>A válaszaitok <b>nem</b> egyeznek meg.</p>","null","","","","feedback trial","",""
"html-button-response-esp","27","227339","0.0-11.0-0.8","13439","Te bizony sokat frilegszel. Én is sokat...","0","frilegszem","[""frilegszem"",""frilegszek""]","frilegszek","esp trial","2","false"
"html-button-response","28","230869","0.0-11.0-1.8","null","<p>A másik játékos ezt választotta: <b>frilegszek</b>.</p><p>&#10060;</p><p>A válaszaitok <b>nem</b> egyeznek meg.</p>","null","","","","feedback trial","",""
"html-button-response-esp","29","236767","0.0-11.0-0.9","5384","Te bizony sokat narjárzol. Én is sokat...","0","narjárzok","[""narjárzok"",""narjárzom""]","narjárzom","esp trial","2","false"
"html-button-response","30","240287","0.0-11.0-1.9","null","<p>A másik játékos ezt választotta: <b>narjárzom</b>.</p><p>&#10060;</p><p>A válaszaitok <b>nem</b> egyeznek meg.</p>","null","","","","feedback trial","",""
"html-button-response-esp","31","248737","0.0-11.0-0.10","7941","Te bizony sokat bölszöl. Én is sokat...","1","bölszök","[""bölszöm"",""bölszök""]","bölszöm","esp trial","2","false"
"html-button-response","32","252245","0.0-11.0-1.10","null","<p>A másik játékos ezt választotta: <b>bölszöm</b>.</p><p>&#10060;</p><p>A válaszaitok <b>nem</b> egyeznek meg.</p>","null","","","","feedback trial","",""
"html-button-response-esp","33","256971","0.0-11.0-0.11","2164","Te bizony sokat spatárzol. Én is sokat...","0","spatárzom","[""spatárzom"",""spatárzok""]","spatárzom","esp trial","2","true"
"html-button-response","34","260501","0.0-11.0-1.11","null","<p>A másik játékos ezt választotta: <b>spatárzom</b>.</p><p>&#x2705;</p><p>A te válaszod és a másik játékos válasza <b>megegyeznek</b>.</p>","null","","","","feedback trial","",""
"html-button-response-esp","35","268303","0.0-11.0-0.12","7283","Te bizony sokat böjzöl. Én is sokat...","0","böjzök","[""böjzök"",""böjzöm""]","böjzöm","esp trial","2","false"
"html-button-response","36","271835","0.0-11.0-1.12","null","<p>A másik játékos ezt választotta: <b>böjzöm</b>.</p><p>&#10060;</p><p>A válaszaitok <b>nem</b> egyeznek meg.</p>","null","","","","feedback trial","",""
"html-button-response-esp","37","276550","0.0-11.0-0.13","3900","Te bizony sokat tínylasz. Én is sokat...","0","tínylom","[""tínylom"",""tínylok""]","tínylom","esp trial","2","true"
"html-button-response","38","280077","0.0-11.0-1.13","null","<p>A másik játékos ezt választotta: <b>tínylom</b>.</p><p>&#x2705;</p><p>A te válaszod és a másik játékos válasza <b>megegyeznek</b>.</p>","null","","","","feedback trial","",""
"html-button-response-esp","39","285179","0.0-11.0-0.14","4597","Te bizony sokat málapszol. Én is sokat...","1","málapszom","[""málapszok"",""málapszom""]","málapszom","esp trial","2","true"
"html-button-response","40","288695","0.0-11.0-1.14","null","<p>A másik játékos ezt választotta: <b>málapszom</b>.</p><p>&#x2705;</p><p>A te válaszod és a másik játékos válasza <b>megegyeznek</b>.</p>","null","","","","feedback trial","",""
"html-button-response-esp","41","294385","0.0-11.0-0.15","5184","Te bizony sokat hilarzol. Én is sokat...","0","hilarzom","[""hilarzom"",""hilarzok""]","hilarzom","esp trial","2","true"
"html-button-response","42","297902","0.0-11.0-1.15","null","<p>A másik játékos ezt választotta: <b>hilarzom</b>.</p><p>&#x2705;</p><p>A te válaszod és a másik játékos válasza <b>megegyeznek</b>.</p>","null","","","","feedback trial","",""
"html-button-response-esp","43","303724","0.0-11.0-0.16","5310","Te bizony sokat flüröslesz. Én is sokat...","1","flüröslöm","[""flüröslök"",""flüröslöm""]","flüröslöm","esp trial","2","true"
"html-button-response","44","307261","0.0-11.0-1.16","null","<p>A másik játékos ezt választotta: <b>flüröslöm</b>.</p><p>&#x2705;</p><p>A te válaszod és a másik játékos válasza <b>megegyeznek</b>.</p>","null","","","","feedback trial","",""
"html-button-response-esp","45","315051","0.0-11.0-0.17","7272","Te bizony sokat spilágzol. Én is sokat...","0","spilágzok","[""spilágzok"",""spilágzom""]","spilágzok","esp trial","2","true"
"html-button-response","46","318574","0.0-11.0-1.17","null","<p>A másik játékos ezt választotta: <b>spilágzok</b>.</p><p>&#x2705;</p><p>A te válaszod és a másik játékos válasza <b>megegyeznek</b>.</p>","null","","","","feedback trial","",""
"html-button-response-esp","47","327167","0.0-11.0-0.18","8078","Te bizony sokat pratánylasz. Én is sokat...","1","pratánylok","[""pratánylom"",""pratánylok""]","pratánylom","esp trial","2","false"
"html-button-response","48","330706","0.0-11.0-1.18","null","<p>A másik játékos ezt választotta: <b>pratánylom</b>.</p><p>&#10060;</p><p>A válaszaitok <b>nem</b> egyeznek meg.</p>","null","","","","feedback trial","",""
"html-button-response-esp","49","335422","0.0-11.0-0.19","4135","Te bizony sokat nyáslasz. Én is sokat...","0","nyáslom","[""nyáslom"",""nyáslok""]","nyáslom","esp trial","2","true"
"html-button-response","50","338951","0.0-11.0-1.19","null","<p>A másik játékos ezt választotta: <b>nyáslom</b>.</p><p>&#x2705;</p><p>A te válaszod és a másik játékos válasza <b>megegyeznek</b>.</p>","null","","","","feedback trial","",""
"html-button-response-esp","51","344159","0.0-11.0-0.20","4696","Te bizony sokat brüjlesz. Én is sokat...","0","brüjlök","[""brüjlök"",""brüjlöm""]","brüjlöm","esp trial","2","false"
"html-button-response","52","347670","0.0-11.0-1.20","null","<p>A másik játékos ezt választotta: <b>brüjlöm</b>.</p><p>&#10060;</p><p>A válaszaitok <b>nem</b> egyeznek meg.</p>","null","","","","feedback trial","",""
"html-button-response-esp","53","352396","0.0-11.0-0.21","2744","Te bizony sokat femlesz. Én is sokat...","1","femlem","[""femlek"",""femlem""]","femlem","esp trial","2","true"
"html-button-response","54","355931","0.0-11.0-1.21","null","<p>A másik játékos ezt választotta: <b>femlem</b>.</p><p>&#x2705;</p><p>A te válaszod és a másik játékos válasza <b>megegyeznek</b>.</p>","null","","","","feedback trial","",""
"html-button-response-esp","55","360656","0.0-11.0-0.22","2654","Te bizony sokat prilegzel. Én is sokat...","0","prilegzek","[""prilegzek"",""prilegzem""]","prilegzek","esp trial","2","true"
"html-button-response","56","364168","0.0-11.0-1.22","null","<p>A másik játékos ezt választotta: <b>prilegzek</b>.</p><p>&#x2705;</p><p>A te válaszod és a másik játékos válasza <b>megegyeznek</b>.</p>","null","","","","feedback trial","",""
"html-button-response-esp","57","368879","0.0-11.0-0.23","1338","Te bizony sokat klörlesz. Én is sokat...","1","klörlöm","[""klörlök"",""klörlöm""]","klörlöm","esp trial","2","true"
"html-button-response","58","372396","0.0-11.0-1.23","null","<p>A másik játékos ezt választotta: <b>klörlöm</b>.</p><p>&#x2705;</p><p>A te válaszod és a másik játékos válasza <b>megegyeznek</b>.</p>","null","","","","feedback trial","",""
"html-button-response-esp","59","377105","0.0-11.0-0.24","3478","Te bizony sokat flagánylasz. Én is sokat...","0","flagánylom","[""flagánylom"",""flagánylok""]","flagánylom","esp trial","2","true"
"html-button-response","60","380629","0.0-11.0-1.24","null","<p>A másik játékos ezt választotta: <b>flagánylom</b>.</p><p>&#x2705;</p><p>A te válaszod és a másik játékos válasza <b>megegyeznek</b>.</p>","null","","","","feedback trial","",""
"html-button-response-esp","61","385360","0.0-11.0-0.25","2818","Te bizony sokat feténylesz. Én is sokat...","0","feténylem","[""feténylem"",""feténylek""]","feténylem","esp trial","2","true"
"html-button-response","62","388882","0.0-11.0-1.25","null","<p>A másik játékos ezt választotta: <b>feténylem</b>.</p><p>&#x2705;</p><p>A te válaszod és a másik játékos válasza <b>megegyeznek</b>.</p>","null","","","","feedback trial","",""
"html-button-response-esp","63","393607","0.0-11.0-0.26","2011","Te bizony sokat csíszlasz. Én is sokat...","0","csíszlom","[""csíszlom"",""csíszlok""]","csíszlom","esp trial","2","true"
"html-button-response","64","397139","0.0-11.0-1.26","null","<p>A másik játékos ezt választotta: <b>csíszlom</b>.</p><p>&#x2705;</p><p>A te válaszod és a másik játékos válasza <b>megegyeznek</b>.</p>","null","","","","feedback trial","",""
"html-button-response-esp","65","401854","0.0-11.0-0.27","2538","Te bizony sokat fibamlasz. Én is sokat...","1","fibamlom","[""fibamlok"",""fibamlom""]","fibamlom","esp trial","2","true"
"html-button-response","66","405374","0.0-11.0-1.27","null","<p>A másik játékos ezt választotta: <b>fibamlom</b>.</p><p>&#x2705;</p><p>A te válaszod és a másik játékos válasza <b>megegyeznek</b>.</p>","null","","","","feedback trial","",""
"html-button-response-esp","67","410098","0.0-11.0-0.28","3043","Te bizony sokat pivegszel. Én is sokat...","0","pivegszem","[""pivegszem"",""pivegszek""]","pivegszek","esp trial","2","false"
"html-button-response","68","413612","0.0-11.0-1.28","null","<p>A másik játékos ezt választotta: <b>pivegszek</b>.</p><p>&#10060;</p><p>A válaszaitok <b>nem</b> egyeznek meg.</p>","null","","","","feedback trial","",""
"html-button-response-esp","69","418551","0.0-11.0-0.29","4433","Te bizony sokat jüslesz. Én is sokat...","1","jüslök","[""jüslöm"",""jüslök""]","jüslöm","esp trial","2","false"
"html-button-response","70","422062","0.0-11.0-1.29","null","<p>A másik játékos ezt választotta: <b>jüslöm</b>.</p><p>&#10060;</p><p>A válaszaitok <b>nem</b> egyeznek meg.</p>","null","","","","feedback trial","",""
"html-button-response-esp","71","427654","0.0-11.0-0.30","5081","Te bizony sokat sűzlesz. Én is sokat...","1","sűzlöm","[""sűzlök"",""sűzlöm""]","sűzlöm","esp trial","2","true"
"html-button-response","72","431168","0.0-11.0-1.30","null","<p>A másik játékos ezt választotta: <b>sűzlöm</b>.</p><p>&#x2705;</p><p>A te válaszod és a másik játékos válasza <b>megegyeznek</b>.</p>","null","","","","feedback trial","",""
"html-button-response-esp","73","435894","0.0-11.0-0.31","3261","Te bizony sokat marzol. Én is sokat...","1","marzok","[""marzom"",""marzok""]","marzom","esp trial","2","false"
"html-button-response","74","439414","0.0-11.0-1.31","null","<p>A másik játékos ezt választotta: <b>marzom</b>.</p><p>&#10060;</p><p>A válaszaitok <b>nem</b> egyeznek meg.</p>","null","","","","feedback trial","",""
"html-button-response-esp","75","444125","0.0-11.0-0.32","2355","Te bizony sokat vilakszol. Én is sokat...","1","vilakszom","[""vilakszok"",""vilakszom""]","vilakszok","esp trial","2","false"
"html-button-response","76","447638","0.0-11.0-1.32","null","<p>A másik játékos ezt választotta: <b>vilakszok</b>.</p><p>&#10060;</p><p>A válaszaitok <b>nem</b> egyeznek meg.</p>","null","","","","feedback trial","",""
"html-button-response-esp","77","454342","0.0-11.0-0.33","6200","Te bizony sokat driládzol. Én is sokat...","1","driládzom","[""driládzok"",""driládzom""]","driládzok","esp trial","2","false"
"html-button-response","78","457862","0.0-11.0-1.33","null","<p>A másik játékos ezt választotta: <b>driládzok</b>.</p><p>&#10060;</p><p>A válaszaitok <b>nem</b> egyeznek meg.</p>","null","","","","feedback trial","",""
"html-button-response-esp","79","462586","0.0-11.0-0.34","3023","Te bizony sokat ruslasz. Én is sokat...","1","ruslom","[""ruslok"",""ruslom""]","ruslom","esp trial","2","true"
"html-button-response","80","466106","0.0-11.0-1.34","null","<p>A másik játékos ezt választotta: <b>ruslom</b>.</p><p>&#x2705;</p><p>A te válaszod és a másik játékos válasza <b>megegyeznek</b>.</p>","null","","","","feedback trial","",""
"html-button-response-esp","81","470834","0.0-11.0-0.35","2980","Te bizony sokat lorjódzol. Én is sokat...","0","lorjódzom","[""lorjódzom"",""lorjódzok""]","lorjódzom","esp trial","2","true"
"html-button-response","82","474357","0.0-11.0-1.35","null","<p>A másik játékos ezt választotta: <b>lorjódzom</b>.</p><p>&#x2705;</p><p>A te válaszod és a másik játékos válasza <b>megegyeznek</b>.</p>","null","","","","feedback trial","",""
"html-button-response-esp","83","479324","0.0-11.0-0.36","4456","Te bizony sokat piragszol. Én is sokat...","1","piragszom","[""piragszok"",""piragszom""]","piragszok","esp trial","2","false"
"html-button-response","84","482845","0.0-11.0-1.36","null","<p>A másik játékos ezt választotta: <b>piragszok</b>.</p><p>&#10060;</p><p>A válaszaitok <b>nem</b> egyeznek meg.</p>","null","","","","feedback trial","",""
"html-button-response-esp","85","489876","0.0-11.0-0.37","6527","Te bizony sokat flűröklesz. Én is sokat...","0","flűröklöm","[""flűröklöm"",""flűröklök""]","flűröklöm","esp trial","2","true"
"html-button-response","86","493390","0.0-11.0-1.37","null","<p>A másik játékos ezt választotta: <b>flűröklöm</b>.</p><p>&#x2705;</p><p>A te válaszod és a másik játékos válasza <b>megegyeznek</b>.</p>","null","","","","feedback trial","",""
"html-button-response-esp","87","498110","0.0-11.0-0.38","3149","Te bizony sokat trilszol. Én is sokat...","0","trilszom","[""trilszom"",""trilszok""]","trilszom","esp trial","2","true"
"html-button-response","88","501630","0.0-11.0-1.38","null","<p>A másik játékos ezt választotta: <b>trilszom</b>.</p><p>&#x2705;</p><p>A te válaszod és a másik játékos válasza <b>megegyeznek</b>.</p>","null","","","","feedback trial","",""
"html-button-response-esp","89","506347","0.0-11.0-0.39","2793","Te bizony sokat siladzol. Én is sokat...","0","siladzom","[""siladzom"",""siladzok""]","siladzok","esp trial","2","false"
"html-button-response","90","509863","0.0-11.0-1.39","null","<p>A másik játékos ezt választotta: <b>siladzok</b>.</p><p>&#10060;</p><p>A válaszaitok <b>nem</b> egyeznek meg.</p>","null","","","","feedback trial","",""
"html-button-response-esp","91","514752","0.0-11.0-0.40","4383","Te bizony sokat spűmlesz. Én is sokat...","1","spűmlök","[""spűmlöm"",""spűmlök""]","spűmlöm","esp trial","2","false"
"html-button-response","92","518270","0.0-11.0-1.40","null","<p>A másik játékos ezt választotta: <b>spűmlöm</b>.</p><p>&#10060;</p><p>A válaszaitok <b>nem</b> egyeznek meg.</p>","null","","","","feedback trial","",""
"html-button-response-esp","93","523006","0.0-11.0-0.41","2077","Te bizony sokat juszlasz. Én is sokat...","0","juszlom","[""juszlom"",""juszlok""]","juszlom","esp trial","2","true"
"html-button-response","94","526541","0.0-11.0-1.41","null","<p>A másik játékos ezt választotta: <b>juszlom</b>.</p><p>&#x2705;</p><p>A te válaszod és a másik játékos válasza <b>megegyeznek</b>.</p>","null","","","","feedback trial","",""
"html-button-response-esp","95","533551","0.0-11.0-0.42","6497","Te bizony sokat ribzol. Én is sokat...","0","ribzom","[""ribzom"",""ribzok""]","ribzok","esp trial","2","false"
"html-button-response","96","537054","0.0-11.0-1.42","null","<p>A másik játékos ezt választotta: <b>ribzok</b>.</p><p>&#10060;</p><p>A válaszaitok <b>nem</b> egyeznek meg.</p>","null","","","","feedback trial","",""
"html-button-response-esp","97","541766","0.0-11.0-0.43","3022","Te bizony sokat fretszel. Én is sokat...","0","fretszem","[""fretszem"",""fretszek""]","fretszem","esp trial","2","true"
"html-button-response","98","545288","0.0-11.0-1.43","null","<p>A másik játékos ezt választotta: <b>fretszem</b>.</p><p>&#x2705;</p><p>A te válaszod és a másik játékos válasza <b>megegyeznek</b>.</p>","null","","","","feedback trial","",""
"html-button-response-esp","99","550026","0.0-11.0-0.44","2075","Te bizony sokat szirlasz. Én is sokat...","1","szirlom","[""szirlok"",""szirlom""]","szirlom","esp trial","2","true"
"html-button-response","100","553558","0.0-11.0-1.44","null","<p>A másik játékos ezt választotta: <b>szirlom</b>.</p><p>&#x2705;</p><p>A te válaszod és a másik játékos válasza <b>megegyeznek</b>.</p>","null","","","","feedback trial","",""
"html-button-response-esp","101","558290","0.0-11.0-0.45","1465","Te bizony sokat pebzel. Én is sokat...","1","pebzem","[""pebzek"",""pebzem""]","pebzem","esp trial","2","true"
"html-button-response","102","561822","0.0-11.0-1.45","null","<p>A másik játékos ezt választotta: <b>pebzem</b>.</p><p>&#x2705;</p><p>A te válaszod és a másik játékos válasza <b>megegyeznek</b>.</p>","null","","","","feedback trial","",""
"html-button-response-esp","103","567875","0.0-11.0-0.46","5534","Te bizony sokat herégszel. Én is sokat...","0","herégszem","[""herégszem"",""herégszek""]","herégszek","esp trial","2","false"
"html-button-response","104","571392","0.0-11.0-1.46","null","<p>A másik játékos ezt választotta: <b>herégszek</b>.</p><p>&#10060;</p><p>A válaszaitok <b>nem</b> egyeznek meg.</p>","null","","","","feedback trial","",""
"html-button-response-esp","105","576102","0.0-11.0-0.47","1730","Te bizony sokat spéslesz. Én is sokat...","1","spéslem","[""spéslek"",""spéslem""]","spéslem","esp trial","2","true"
"html-button-response","106","579618","0.0-11.0-1.47","null","<p>A másik játékos ezt választotta: <b>spéslem</b>.</p><p>&#x2705;</p><p>A te válaszod és a másik játékos válasza <b>megegyeznek</b>.</p>","null","","","","feedback trial","",""
"html-button-response-esp","107","584350","0.0-11.0-0.48","1469","Te bizony sokat drubódzol. Én is sokat...","1","drubódzom","[""drubódzok"",""drubódzom""]","drubódzok","esp trial","2","false"
"html-button-response","108","587861","0.0-11.0-1.48","null","<p>A másik játékos ezt választotta: <b>drubódzok</b>.</p><p>&#10060;</p><p>A válaszaitok <b>nem</b> egyeznek meg.</p>","null","","","","feedback trial","",""
"html-button-response-esp","109","592584","0.0-11.0-0.49","2542","Te bizony sokat sztremlesz. Én is sokat...","1","sztremlem","[""sztremlek"",""sztremlem""]","sztremlem","esp trial","2","true"
"html-button-response","110","596094","0.0-11.0-1.49","null","<p>A másik játékos ezt választotta: <b>sztremlem</b>.</p><p>&#x2705;</p><p>A te válaszod és a másik játékos válasza <b>megegyeznek</b>.</p>","null","","","","feedback trial","",""
"html-button-response-esp","111","600817","0.0-11.0-0.50","1505","Te bizony sokat tomlasz. Én is sokat...","1","tomlom","[""tomlok"",""tomlom""]","tomlom","esp trial","2","true"
"html-button-response","112","604334","0.0-11.0-1.50","null","<p>A másik játékos ezt választotta: <b>tomlom</b>.</p><p>&#x2705;</p><p>A te válaszod és a másik játékos válasza <b>megegyeznek</b>.</p>","null","","","","feedback trial","",""
"html-button-response-esp","113","609045","0.0-11.0-0.51","4018","Te bizony sokat spibaklasz. Én is sokat...","0","spibaklom","[""spibaklom"",""spibaklok""]","spibaklom","esp trial","2","true"
"html-button-response","114","612557","0.0-11.0-1.51","null","<p>A másik játékos ezt választotta: <b>spibaklom</b>.</p><p>&#x2705;</p><p>A te válaszod és a másik játékos válasza <b>megegyeznek</b>.</p>","null","","","","feedback trial","",""
"html-button-response-esp","115","619336","0.0-11.0-0.52","6275","Te bizony sokat flagárzol. Én is sokat...","0","flagárzom","[""flagárzom"",""flagárzok""]","flagárzom","esp trial","2","true"
"html-button-response","116","622864","0.0-11.0-1.52","null","<p>A másik játékos ezt választotta: <b>flagárzom</b>.</p><p>&#x2705;</p><p>A te válaszod és a másik játékos válasza <b>megegyeznek</b>.</p>","null","","","","feedback trial","",""
"html-button-response-esp","117","627583","0.0-11.0-0.53","1701","Te bizony sokat klibamlasz. Én is sokat...","0","klibamlom","[""klibamlom"",""klibamlok""]","klibamlom","esp trial","2","true"
"html-button-response","118","631101","0.0-11.0-1.53","null","<p>A másik játékos ezt választotta: <b>klibamlom</b>.</p><p>&#x2705;</p><p>A te válaszod és a másik játékos válasza <b>megegyeznek</b>.</p>","null","","","","feedback trial","",""
"html-button-response","119","641777","0.0-12.0","10159","<p>A közös játék most véget ért.</p><p>Mielőtt eláruljuk a végső pontszámodat, arra kérlek, játszd a szóválasztós játékot néhány percig egyedül is.</p><p>A feladatod ugyanaz lesz, választani két lehetőség közül.</p><p>Most viszont egyedül kell döntened, hogy te melyiket választanád.</p>","0","","","","","",""
"html-button-response-clever","120","649306","0.0-13.0-0.0","7016","Te bizony sokat brivegzel. Én is sokat...","0","brivegzek","[""brivegzek"",""brivegzem""]","","posttest trial","4",""
"html-button-response-clever","121","654214","0.0-13.0-0.1","4393","Te bizony sokat jonylasz. Én is sokat...","0","jonylom","[""jonylom"",""jonylok""]","","posttest trial","4",""
"html-button-response-clever","122","657165","0.0-13.0-0.2","2443","Te bizony sokat hurjorzol. Én is sokat...","1","hurjorzok","[""hurjorzom"",""hurjorzok""]","","posttest trial","4",""
"html-button-response-clever","123","659260","0.0-13.0-0.3","1590","Te bizony sokat spihegzel. Én is sokat...","1","spihegzek","[""spihegzem"",""spihegzek""]","","posttest trial","4",""
"html-button-response-clever","124","661634","0.0-13.0-0.4","1859","Te bizony sokat ibékszel. Én is sokat...","1","ibékszem","[""ibékszek"",""ibékszem""]","","posttest trial","4",""
"html-button-response-clever","125","665591","0.0-13.0-0.5","3434","Te bizony sokat salárzol. Én is sokat...","0","salárzom","[""salárzom"",""salárzok""]","","posttest trial","4",""
"html-button-response-clever","126","668292","0.0-13.0-0.6","2187","Te bizony sokat brobódzol. Én is sokat...","0","brobódzok","[""brobódzok"",""brobódzom""]","","posttest trial","4",""
"html-button-response-clever","127","671434","0.0-13.0-0.7","2628","Te bizony sokat pribemlesz. Én is sokat...","0","pribemlek","[""pribemlek"",""pribemlem""]","","posttest trial","4",""
"html-button-response-clever","128","673608","0.0-13.0-0.8","1662","Te bizony sokat düjzöl. Én is sokat...","0","düjzök","[""düjzök"",""düjzöm""]","","posttest trial","4",""
"html-button-response-clever","129","676054","0.0-13.0-0.9","1943","Te bizony sokat vülődzöl. Én is sokat...","0","vülődzök","[""vülődzök"",""vülődzöm""]","","posttest trial","4",""
"html-button-response-clever","130","678494","0.0-13.0-0.10","1934","Te bizony sokat flátszol. Én is sokat...","1","flátszok","[""flátszom"",""flátszok""]","","posttest trial","4",""
"html-button-response-clever","131","682610","0.0-13.0-0.11","3603","Te bizony sokat plűbzöl. Én is sokat...","1","plűbzöm","[""plűbzök"",""plűbzöm""]","","posttest trial","4",""
"html-button-response-clever","132","689052","0.0-13.0-0.12","5932","Te bizony sokat flitlasz. Én is sokat...","0","flitlok","[""flitlok"",""flitlom""]","","posttest trial","4",""
"html-button-response-clever","133","695194","0.0-13.0-0.13","5624","Te bizony sokat figlasz. Én is sokat...","0","figlok","[""figlok"",""figlom""]","","posttest trial","4",""
"html-button-response-clever","134","699418","0.0-13.0-0.14","3703","Te bizony sokat gyibeslesz. Én is sokat...","1","gyibeslek","[""gyibeslem"",""gyibeslek""]","","posttest trial","4",""
"html-button-response-clever","135","701480","0.0-13.0-0.15","1552","Te bizony sokat brubzol. Én is sokat...","1","brubzok","[""brubzom"",""brubzok""]","","posttest trial","4",""
"html-button-response-clever","136","703276","0.0-13.0-0.16","1280","Te bizony sokat sztrijzol. Én is sokat...","0","sztrijzok","[""sztrijzok"",""sztrijzom""]","","posttest trial","4",""
"html-button-response-clever","137","705214","0.0-13.0-0.17","1429","Te bizony sokat píjlasz. Én is sokat...","1","píjlok","[""píjlom"",""píjlok""]","","posttest trial","4",""
"html-button-response-clever","138","707912","0.0-13.0-0.18","2186","Te bizony sokat sztrozlasz. Én is sokat...","1","sztrozlom","[""sztrozlok"",""sztrozlom""]","","posttest trial","4",""
"html-button-response-clever","139","710192","0.0-13.0-0.19","1766","Te bizony sokat narádzol. Én is sokat...","0","narádzok","[""narádzok"",""narádzom""]","","posttest trial","4",""
"html-button-response-clever","140","715442","0.0-13.0-0.20","4748","Te bizony sokat bivégszel. Én is sokat...","0","bivégszem","[""bivégszem"",""bivégszek""]","","posttest trial","4",""
"html-button-response-clever","141","725258","0.0-13.0-0.21","9295","Te bizony sokat flehékszel. Én is sokat...","0","flehékszek","[""flehékszek"",""flehékszem""]","","posttest trial","4",""
"html-button-response-clever","142","728376","0.0-13.0-0.22","2604","Te bizony sokat spihemlesz. Én is sokat...","0","spihemlek","[""spihemlek"",""spihemlem""]","","posttest trial","4",""
"html-button-response-clever","143","733236","0.0-13.0-0.23","4357","Te bizony sokat rokszol. Én is sokat...","1","rokszom","[""rokszok"",""rokszom""]","","posttest trial","4",""
"html-button-response-clever","144","737529","0.0-13.0-0.24","3788","Te bizony sokat spáraklasz. Én is sokat...","1","spáraklom","[""spáraklok"",""spáraklom""]","","posttest trial","4",""
"html-button-response-clever","145","740166","0.0-13.0-0.25","2134","Te bizony sokat lörűdzöl. Én is sokat...","1","lörűdzök","[""lörűdzöm"",""lörűdzök""]","","posttest trial","4",""
"html-button-response-clever","146","744892","0.0-13.0-0.26","4213","Te bizony sokat sztrűkszöl. Én is sokat...","0","sztrűkszöm","[""sztrűkszöm"",""sztrűkszök""]","","posttest trial","4",""
"html-button-response-clever","147","750932","0.0-13.0-0.27","5523","Te bizony sokat pítszol. Én is sokat...","0","pítszom","[""pítszom"",""pítszok""]","","posttest trial","4",""
"html-button-response-clever","148","753328","0.0-13.0-0.28","1879","Te bizony sokat huroslasz. Én is sokat...","1","huroslom","[""huroslok"",""huroslom""]","","posttest trial","4",""
"html-button-response-clever","149","754876","0.0-13.0-0.29","1036","Te bizony sokat trehégszel. Én is sokat...","1","trehégszem","[""trehégszek"",""trehégszem""]","","posttest trial","4",""
"html-button-response-clever","150","756514","0.0-13.0-0.30","1124","Te bizony sokat flűmlesz. Én is sokat...","0","flűmlöm","[""flűmlöm"",""flűmlök""]","","posttest trial","4",""
"html-button-response-clever","151","758566","0.0-13.0-0.31","1532","Te bizony sokat trádlasz. Én is sokat...","1","trádlom","[""trádlok"",""trádlom""]","","posttest trial","4",""
"html-button-response-clever","152","760307","0.0-13.0-0.32","1224","Te bizony sokat bűtszöl. Én is sokat...","0","bűtszök","[""bűtszök"",""bűtszöm""]","","posttest trial","4",""
"html-button-response-clever","153","761831","0.0-13.0-0.33","1007","Te bizony sokat prínylasz. Én is sokat...","1","prínylom","[""prínylok"",""prínylom""]","","posttest trial","4",""
"html-button-response-clever","154","763120","0.0-13.0-0.34","774","Te bizony sokat nűröklesz. Én is sokat...","1","nűröklök","[""nűröklöm"",""nűröklök""]","","posttest trial","4",""
"html-button-response-clever","155","764952","0.0-13.0-0.35","1322","Te bizony sokat klivaslasz. Én is sokat...","0","klivaslok","[""klivaslok"",""klivaslom""]","","posttest trial","4",""
"html-button-response-clever","156","766646","0.0-13.0-0.36","1177","Te bizony sokat pribagszol. Én is sokat...","1","pribagszok","[""pribagszom"",""pribagszok""]","","posttest trial","4",""
"html-button-response-clever","157","768327","0.0-13.0-0.37","1166","Te bizony sokat vanylasz. Én is sokat...","0","vanylok","[""vanylok"",""vanylom""]","","posttest trial","4",""
"html-button-response-clever","158","769632","0.0-13.0-0.38","787","Te bizony sokat spröbzöl. Én is sokat...","1","spröbzöm","[""spröbzök"",""spröbzöm""]","","posttest trial","4",""
"html-button-response-clever","159","770762","0.0-13.0-0.39","614","Te bizony sokat filágzol. Én is sokat...","1","filágzom","[""filágzok"",""filágzom""]","","posttest trial","4",""
"html-button-response-clever","160","772522","0.0-13.0-0.40","1243","Te bizony sokat klaráglasz. Én is sokat...","0","klaráglom","[""klaráglom"",""klaráglok""]","","posttest trial","4",""
"html-button-response-clever","161","774617","0.0-13.0-0.41","1576","Te bizony sokat rájzol. Én is sokat...","1","rájzom","[""rájzok"",""rájzom""]","","posttest trial","4",""
"html-button-response-clever","162","777298","0.0-13.0-0.42","2173","Te bizony sokat bihánylasz. Én is sokat...","0","bihánylok","[""bihánylok"",""bihánylom""]","","posttest trial","4",""
"html-button-response-clever","163","778465","0.0-13.0-0.43","659","Te bizony sokat frodlasz. Én is sokat...","1","frodlom","[""frodlok"",""frodlom""]","","posttest trial","4",""
"html-button-response-clever","164","780410","0.0-13.0-0.44","1431","Te bizony sokat treglesz. Én is sokat...","0","treglek","[""treglek"",""treglem""]","","posttest trial","4",""
"html-button-response-clever","165","782212","0.0-13.0-0.45","1293","Te bizony sokat spubonylasz. Én is sokat...","1","spubonylom","[""spubonylok"",""spubonylom""]","","posttest trial","4",""
"html-button-response-clever","166","784216","0.0-13.0-0.46","1495","Te bizony sokat spüjzöl. Én is sokat...","1","spüjzök","[""spüjzöm"",""spüjzök""]","","posttest trial","4",""
"html-button-response-clever","167","786118","0.0-13.0-0.47","1397","Te bizony sokat hűgzöl. Én is sokat...","0","hűgzöm","[""hűgzöm"",""hűgzök""]","","posttest trial","4",""
"html-button-response-clever","168","788038","0.0-13.0-0.48","1408","Te bizony sokat szibánylasz. Én is sokat...","1","szibánylok","[""szibánylom"",""szibánylok""]","","posttest trial","4",""
"html-button-response-clever","169","795156","0.0-13.0-0.49","6613","Te bizony sokat spülűdzöl. Én is sokat...","0","spülűdzök","[""spülűdzök"",""spülűdzöm""]","","posttest trial","4",""
"html-button-response-clever","170","797922","0.0-13.0-0.50","2261","Te bizony sokat flehénylesz. Én is sokat...","0","flehénylek","[""flehénylek"",""flehénylem""]","","posttest trial","4",""
"html-button-response-clever","171","799633","0.0-13.0-0.51","1202","Te bizony sokat tragzol. Én is sokat...","1","tragzom","[""tragzok"",""tragzom""]","","posttest trial","4",""
"html-button-response-clever","172","807258","0.0-13.0-0.52","7115","Te bizony sokat klétszel. Én is sokat...","1","klétszek","[""klétszem"",""klétszek""]","","posttest trial","4",""
"html-button-response-clever","173","809126","0.0-13.0-0.53","1357","Te bizony sokat plugzol. Én is sokat...","0","plugzom","[""plugzom"",""plugzok""]","","posttest trial","4",""
"html-button-response","174","817150","0.0-14.0","7505","<p> Vége a játéknak. A teljes pontszámod 31/54.</p><p> Szép munka! &#128526;&#128526;&#128526;</p><p>A Befejezés gomb megnyomása után bezárhatod a böngészőablakot.</p>","0","","","","","",""
"html-keyboard-response","175","822669","0.0-15.0","null","<div class=""message"">
         <p>Egy kis türelmet kérünk, amíg elmentjük az adatokat...</p>
         </div>","null","","","","","",""
