"trial_type","trial_index","time_elapsed","internal_node_id","rt","stimulus","response","response_string","choices","esp_response","trial_kind","list_number","esp_match"
"pavlovia","0","1106","0.0-0.0","","","","","","","","",""
"html-button-response","1","8573","0.0-1.0","6966","<p>Kedves Résztvevő! A Budapesti Műszaki és Gazdaságtudományi Egyetem Kognitív Tudományi Tanszékének kutatásában való részvételed kérjük. A kutatásban azt vizsgáljuk, hogy a magyar anyanyelvűek hogyan használnak bizonyos szóalakokat, és hogy milyen képük van arról, hogy mások hogyan használják, hogyan képzik a szavakat. Ez hozzásegít bennünket ahhoz, hogy jobban megértsük, hogyan dolgozza fel és tárolja a nyelvet az emberi agy, és hogyan működnek, hogyan változnak egy adott közösség nyelvi konvenciói.</p><p>A vizsgálat egy rövid számítógépes feladatból fog állni. A kutatásban való részvétel önkéntes, a részvételi szándék bármikor visszavonható. A résztvevők eredményeit név nélkül kezeljük, így nem beazonosíthatók az adatok feldolgozása során. Minden személyes adatot az EU általános adatvédelmi rendeletének (GDPR) megfelelően kezelünk és legfeljebb öt éven belül megsemmisítünk. A vizsgálat jellemzően húsz percet vesz igénybe.</p><p>Kutatásvezető:</p><p>Dr. Rácz Péter, tudományos munkatárs, BME KTT</p><p>e-mail: racz.peter.marton@ttk.bme.hu</p>","0","","","","","",""
"html-button-response","2","26590","0.0-2.0","17512","<p>A kísérletben szavakat fogsz látni. Ezek között lesznek olyanok, amelyeket ismersz, de előfordulhatnak olyanok is, amelyeket nem ismersz, sőt, vannak köztük kitalált szavak is. Minden szónál látni fogsz toldalékolt alakokat. A te feladatod az lesz, hogy minden szóhoz kiválaszd azt a toldalékolt alakot, amely a te számodra ismerősebben, természetesebben hangzik. Rossz válaszok nincsenek, mert van olyan, hogy különböző embereknek más és más szó tűnik jobb választásnak. A választ úgy tudod majd kiválasztani, ha rákattintasz.</p><p>Ebben a szóválasztós játékban egy másik játékossal együtt veszel majd részt. A másik játékos is minden esetben azok közül a lehetőségek közül válogathat, mint te. Kettőtök feladata az, hogy ugyanazt a lehetőséget válasszátok minden esetben. Ahhoz, hogy ez sikerüljön, neked figyelned kell arra, hogy a másik játékos milyen válaszokat ad, és ennek alapján meg kell tippelned, hogyan választ legközelebb. Ha eltalálod, akkor pontot kapsz.</p>","0","","","","","",""
"html-button-response","3","34692","0.0-3.0","7590","<p>Kérjük, olvasd el az alábbi nyilatkozatot, és amennyiben egyetértesz vele, nyomj a Beleegyezés gombra!</p><p>Kijelentem, hogy magyar anyanyelvű személyként önként veszek részt a BME KTT kísérletében. A kutatás céljával és folyamatával kapcsolatban elegendő tájékoztatást kaptam, lehetőségem volt kérdések feltételére, és esetleges kérdéseimre megfelelő válaszokat kaptam. A tájékoztatás alapján elegendő mennyiségű információ áll a rendelkezésemre, hogy eldönthessem, részt kívánok-e venni a kutatásban.</p><p>Tisztában vagyok vele, hogy részvételi szándékomat és adataimat bármikor, indoklás nélkül visszavonhatom.</p><p>Értem és tudomásul veszem, hogy a kutatás tudományos célokat szolgál, és az általam szolgáltatott adatokat a BME kizárólag kutatási célból használja fel. Tudomásul veszem, hogy eredményeimet a többi résztvevő eredményeivel együtt kezelik, így egyéni teljesítményemről visszajelzést, szakvéleményt nem kapok.</p><p>Megértettem, hogy adataim kezelését illetően a BME az EU általános adatvédelmi rendelete (GDPR), a hatályos adatvédelmi törvény és a nemzetközi kutatás-etikai alapelvek szerint jár el. Eredményeim anonim módon kerülnek feldolgozásra, és a kutatás résztvevői az azonosításomra alkalmas adataimat harmadik félnek nem szolgáltatják ki. Engedélyezem a BME számára a jelen kutatásban felvett adataim feldolgozását és tárolását, beleértve azok későbbi kutatásokhoz való felhasználását is. Személyes adataim kezelésével kapcsolatban tájékoztatást kérhetek a kutatás résztvevőitől, az adatkezelés ellen tiltakozhatok, kérhetem személyes adataim helyesbítését, törlését vagy zárolását, valamint jogorvoslatért a Nemzeti Adatvédelmi és Információszabadság Hatósághoz fordulhatok.</p><p>Kijelentem, hogy a kutatásban való részvételem körülményeiről részletes tájékoztatást kaptam, és a feltételeket elfogadom.</p>","0","","","","","",""
"survey-text","4","65188","0.0-4.0","29929","","{""Q0"":""K8GD4Q"",""Q1"":""férfi"",""Q2"":""1986"",""Q3"":""20""}","","","","","",""
"html-button-response","5","89355","0.0-5.0","23664","<p>Ebben a játékban szavakat kell toldalékolni.</p> <p>Minden körben mutatunk majd egy példamondatot, amiben lesz egy szó.</p> <p>Alatta jön egy második mondat, ezt a mondatot neked kell majd befejezni, ugyanezzel a szóval.</p> <p>Nem biztos, hogy a szó eleve ismerős lesz számodra!</p> <p>Minden mondathoz adunk két lehetőséget, ezeket balra és jobbra látod majd.</p> <p>A játék kb. negyedóráig-húsz percig tart.</p>","0","","","","","",""
"html-button-response","6","94946","0.0-6.0","5086","<p>Nézzünk egy példát!</p> <p>A példamondat: ""Ez itt egy blumbnyeg.""</p><p>Neked ezt a mondatot kell befejezned: ""Ott vagyunk a...""</p><p>A lehetőségek pedig ezek:</p>","0","","","","","",""
"html-button-response","7","100374","0.0-7.0","4923","<p>Nagyon jó.</p><p>Ezt a játékot nem egyedül fogod játszani, hanem egy másik játékossal.</p><p>Mielőtt továbblépünk, összekapcsolunk titeket egymással.</p><p>Ez igénybe vehet néhány másodpercet, amihez szíves türelmed kérjük.</p>","0","","","","","",""
"html-button-response","8","106098","0.0-8.0","null","<p>Csatlakozás a másik játékoshoz...</p>","null","","","","","",""
"html-button-response","9","108605","0.0-9.0","null","<p> Sikeres kapcsolódás!</p>","null","","","","","",""
"html-button-response","10","115641","0.0-10.0","6533","<p>A következőkben ketten játsszátok a szóválasztós játékot.</p><p>A feladatotok az lesz, hogy minden körben <b>ugyanazt</b> a szót válasszátok.</p><p>Minden ilyen egyező válaszért pontot kaptok.</p><p>Próbáld meg kitalálni, mit választ a másik játékos!</p><p>Bármikor választhatsz, a körnek akkor van vége, ha mindketten döntöttetek.</p><p>Sok sikert!</p>","0","","","","","",""
"html-button-response-esp","11","121045","0.0-11.0-0.0","4845","Ez itt egy kátel. Elneveztem a kutyámat...","1","kátelnek","[""kátelnak"",""kátelnek""]","kátelnak","esp trial","0","false"
"html-button-response","12","124704","0.0-11.0-1.0","null","<p>A másik játékos ezt választotta: <b>kátelnak</b>.</p><p>&#10060;</p><p>A válaszaitok <b>nem</b> egyeznek meg.</p>","null","","","","feedback trial","",""
"html-button-response-esp","13","130096","0.0-11.0-0.1","4890","Ez itt egy zopély. Nincs is jobb egy jó...","1","zopélynál","[""zopélynél"",""zopélynál""]","zopélynél","esp trial","0","false"
"html-button-response","14","133667","0.0-11.0-1.1","null","<p>A másik játékos ezt választotta: <b>zopélynél</b>.</p><p>&#10060;</p><p>A válaszaitok <b>nem</b> egyeznek meg.</p>","null","","","","feedback trial","",""
"html-button-response-esp","15","138771","0.0-11.0-0.2","3372","Ez itt egy rapszek. Nincs is jobb egy jó...","0","rapszeknél","[""rapszeknél"",""rapszeknál""]","rapszeknál","esp trial","0","false"
"html-button-response","16","142275","0.0-11.0-1.2","null","<p>A másik játékos ezt választotta: <b>rapszeknál</b>.</p><p>&#10060;</p><p>A válaszaitok <b>nem</b> egyeznek meg.</p>","null","","","","feedback trial","",""
"html-button-response-esp","17","148574","0.0-11.0-0.3","5795","Ez itt egy bupéz. Ott vagyunk a...","0","bupézben","[""bupézben"",""bupézban""]","bupézben","esp trial","0","true"
"html-button-response","18","152078","0.0-11.0-1.3","null","<p>A másik játékos ezt választotta: <b>bupézben</b>.</p><p>&#x2705;</p><p>A te válaszod és a másik játékos válasza <b>megegyeznek</b>.</p>","null","","","","feedback trial","",""
"html-button-response-esp","19","156780","0.0-11.0-0.4","2489","Ez itt egy pisély. Ott vagyunk a...","1","pisélyben","[""pisélyban"",""pisélyben""]","pisélyban","esp trial","0","false"
"html-button-response","20","160515","0.0-11.0-1.4","null","<p>A másik játékos ezt választotta: <b>pisélyban</b>.</p><p>&#10060;</p><p>A válaszaitok <b>nem</b> egyeznek meg.</p>","null","","","","feedback trial","",""
"html-button-response-esp","21","166619","0.0-11.0-0.5","5603","Ez itt egy spumény. Elneveztem a kutyámat...","1","spuménynek","[""spuménynak"",""spuménynek""]","spuménynak","esp trial","0","false"
"html-button-response","22","170122","0.0-11.0-1.5","null","<p>A másik játékos ezt választotta: <b>spuménynak</b>.</p><p>&#10060;</p><p>A válaszaitok <b>nem</b> egyeznek meg.</p>","null","","","","feedback trial","",""
"html-button-response-esp","23","175780","0.0-11.0-0.6","5155","Ez itt egy dihely. Elneveztem a kutyámat...","1","dihelynek","[""dihelynak"",""dihelynek""]","dihelynak","esp trial","0","false"
"html-button-response","24","179397","0.0-11.0-1.6","null","<p>A másik játékos ezt választotta: <b>dihelynak</b>.</p><p>&#10060;</p><p>A válaszaitok <b>nem</b> egyeznek meg.</p>","null","","","","feedback trial","",""
"html-button-response-esp","25","188346","0.0-11.0-0.7","8446","Ez itt egy sortem. Nincs is jobb egy jó...","1","sortemnél","[""sortemnál"",""sortemnél""]","sortemnál","esp trial","0","false"
"html-button-response","26","191896","0.0-11.0-1.7","null","<p>A másik játékos ezt választotta: <b>sortemnál</b>.</p><p>&#10060;</p><p>A válaszaitok <b>nem</b> egyeznek meg.</p>","null","","","","feedback trial","",""
"html-button-response-esp","27","196598","0.0-11.0-0.8","3979","Ez itt egy pivéd. Ott vagyunk a...","1","pivédben","[""pivédban"",""pivédben""]","pivédban","esp trial","0","false"
"html-button-response","28","200325","0.0-11.0-1.8","null","<p>A másik játékos ezt választotta: <b>pivédban</b>.</p><p>&#10060;</p><p>A válaszaitok <b>nem</b> egyeznek meg.</p>","null","","","","feedback trial","",""
"html-button-response-esp","29","205244","0.0-11.0-0.9","4417","Ez itt egy dorzéj. Elneveztem a kutyámat...","1","dorzéjnak","[""dorzéjnek"",""dorzéjnak""]","dorzéjnak","esp trial","0","true"
"html-button-response","30","208937","0.0-11.0-1.9","null","<p>A másik játékos ezt választotta: <b>dorzéjnak</b>.</p><p>&#x2705;</p><p>A te válaszod és a másik játékos válasza <b>megegyeznek</b>.</p>","null","","","","feedback trial","",""
"html-button-response-esp","31","213814","0.0-11.0-0.10","1935","Ez itt egy jukél. Nincs is jobb egy jó...","1","jukélnál","[""jukélnél"",""jukélnál""]","jukélnál","esp trial","0","true"
"html-button-response","32","217317","0.0-11.0-1.10","null","<p>A másik játékos ezt választotta: <b>jukélnál</b>.</p><p>&#x2705;</p><p>A te válaszod és a másik játékos válasza <b>megegyeznek</b>.</p>","null","","","","feedback trial","",""
"html-button-response-esp","33","222932","0.0-11.0-0.11","5112","Ez itt egy monveg. Nincs is jobb egy jó...","1","monvegnál","[""monvegnél"",""monvegnál""]","monvegnál","esp trial","0","true"
"html-button-response","34","226487","0.0-11.0-1.11","null","<p>A másik játékos ezt választotta: <b>monvegnál</b>.</p><p>&#x2705;</p><p>A te válaszod és a másik játékos válasza <b>megegyeznek</b>.</p>","null","","","","feedback trial","",""
"html-button-response-esp","35","231378","0.0-11.0-0.12","2051","Ez itt egy nyupér. Nincs is jobb egy jó...","1","nyupérnál","[""nyupérnél"",""nyupérnál""]","nyupérnél","esp trial","0","false"
"html-button-response","36","234882","0.0-11.0-1.12","null","<p>A másik játékos ezt választotta: <b>nyupérnél</b>.</p><p>&#10060;</p><p>A válaszaitok <b>nem</b> egyeznek meg.</p>","null","","","","feedback trial","",""
"html-button-response-esp","37","240720","0.0-11.0-0.13","5336","Ez itt egy zsáder. Ott vagyunk a...","1","zsáderben","[""zsáderban"",""zsáderben""]","zsáderban","esp trial","0","false"
"html-button-response","38","244393","0.0-11.0-1.13","null","<p>A másik játékos ezt választotta: <b>zsáderban</b>.</p><p>&#10060;</p><p>A válaszaitok <b>nem</b> egyeznek meg.</p>","null","","","","feedback trial","",""
"html-button-response-esp","39","251274","0.0-11.0-0.14","6380","Ez itt egy pijél. Nincs is jobb egy jó...","0","pijélnél","[""pijélnél"",""pijélnál""]","pijélnál","esp trial","0","false"
"html-button-response","40","254778","0.0-11.0-1.14","null","<p>A másik játékos ezt választotta: <b>pijélnál</b>.</p><p>&#10060;</p><p>A válaszaitok <b>nem</b> egyeznek meg.</p>","null","","","","feedback trial","",""
"html-button-response-esp","41","259662","0.0-11.0-0.15","4381","Ez itt egy nyítem. Ott vagyunk a...","0","nyítemben","[""nyítemben"",""nyítemban""]","nyítemban","esp trial","0","false"
"html-button-response","42","263165","0.0-11.0-1.15","null","<p>A másik játékos ezt választotta: <b>nyítemban</b>.</p><p>&#10060;</p><p>A válaszaitok <b>nem</b> egyeznek meg.</p>","null","","","","feedback trial","",""
"html-button-response-esp","43","268204","0.0-11.0-0.16","4536","Ez itt egy spanél. Nincs is jobb egy jó...","1","spanélnál","[""spanélnél"",""spanélnál""]","spanélnél","esp trial","0","false"
"html-button-response","44","271780","0.0-11.0-1.16","null","<p>A másik játékos ezt választotta: <b>spanélnél</b>.</p><p>&#10060;</p><p>A válaszaitok <b>nem</b> egyeznek meg.</p>","null","","","","feedback trial","",""
"html-button-response-esp","45","278509","0.0-11.0-0.17","6227","Ez itt egy brindez. Elneveztem a kutyámat...","1","brindeznek","[""brindeznak"",""brindeznek""]","brindeznak","esp trial","0","false"
"html-button-response","46","282112","0.0-11.0-1.17","null","<p>A másik játékos ezt választotta: <b>brindeznak</b>.</p><p>&#10060;</p><p>A válaszaitok <b>nem</b> egyeznek meg.</p>","null","","","","feedback trial","",""
"html-button-response-esp","47","288581","0.0-11.0-0.18","5967","Ez itt egy sprivenc. Nincs is jobb egy jó...","0","sprivencnál","[""sprivencnál"",""sprivencnél""]","sprivencnál","esp trial","0","true"
"html-button-response","48","292083","0.0-11.0-1.18","null","<p>A másik játékos ezt választotta: <b>sprivencnál</b>.</p><p>&#x2705;</p><p>A te válaszod és a másik játékos válasza <b>megegyeznek</b>.</p>","null","","","","feedback trial","",""
"html-button-response-esp","49","296823","0.0-11.0-0.19","4215","Ez itt egy hágyét. Elneveztem a kutyámat...","0","hágyétnek","[""hágyétnek"",""hágyétnak""]","hágyétnek","esp trial","0","true"
"html-button-response","50","300328","0.0-11.0-1.19","null","<p>A másik játékos ezt választotta: <b>hágyétnek</b>.</p><p>&#x2705;</p><p>A te válaszod és a másik játékos válasza <b>megegyeznek</b>.</p>","null","","","","feedback trial","",""
"html-button-response-esp","51","305137","0.0-11.0-0.20","4307","Ez itt egy bralkép. Ott vagyunk a...","1","bralképben","[""bralképban"",""bralképben""]","bralképban","esp trial","0","false"
"html-button-response","52","308968","0.0-11.0-1.20","null","<p>A másik játékos ezt választotta: <b>bralképban</b>.</p><p>&#10060;</p><p>A válaszaitok <b>nem</b> egyeznek meg.</p>","null","","","","feedback trial","",""
"html-button-response-esp","53","313950","0.0-11.0-0.21","1966","Ez itt egy kalréz. Ott vagyunk a...","1","kalrézban","[""kalrézben"",""kalrézban""]","kalrézben","esp trial","0","false"
"html-button-response","54","317452","0.0-11.0-1.21","null","<p>A másik játékos ezt választotta: <b>kalrézben</b>.</p><p>&#10060;</p><p>A válaszaitok <b>nem</b> egyeznek meg.</p>","null","","","","feedback trial","",""
"html-button-response-esp","55","322156","0.0-11.0-0.22","3170","Ez itt egy trájeg. Ott vagyunk a...","0","trájegban","[""trájegban"",""trájegben""]","trájegban","esp trial","0","true"
"html-button-response","56","325943","0.0-11.0-1.22","null","<p>A másik játékos ezt választotta: <b>trájegban</b>.</p><p>&#x2705;</p><p>A te válaszod és a másik játékos válasza <b>megegyeznek</b>.</p>","null","","","","feedback trial","",""
"html-button-response-esp","57","330787","0.0-11.0-0.23","2717","Ez itt egy kaszép. Elneveztem a kutyámat...","1","kaszépnak","[""kaszépnek"",""kaszépnak""]","kaszépnak","esp trial","0","true"
"html-button-response","58","334291","0.0-11.0-1.23","null","<p>A másik játékos ezt választotta: <b>kaszépnak</b>.</p><p>&#x2705;</p><p>A te válaszod és a másik játékos válasza <b>megegyeznek</b>.</p>","null","","","","feedback trial","",""
"html-button-response-esp","59","339279","0.0-11.0-0.24","4485","Ez itt egy danét. Nincs is jobb egy jó...","0","danétnál","[""danétnál"",""danétnél""]","danétnél","esp trial","0","false"
"html-button-response","60","342830","0.0-11.0-1.24","null","<p>A másik játékos ezt választotta: <b>danétnél</b>.</p><p>&#10060;</p><p>A válaszaitok <b>nem</b> egyeznek meg.</p>","null","","","","feedback trial","",""
"html-button-response-esp","61","347548","0.0-11.0-0.25","1747","Ez itt egy tosély. Ott vagyunk a...","1","tosélyban","[""tosélyben"",""tosélyban""]","tosélyben","esp trial","0","false"
"html-button-response","62","351164","0.0-11.0-1.25","null","<p>A másik játékos ezt választotta: <b>tosélyben</b>.</p><p>&#10060;</p><p>A válaszaitok <b>nem</b> egyeznek meg.</p>","null","","","","feedback trial","",""
"html-button-response-esp","63","355889","0.0-11.0-0.26","2151","Ez itt egy klosét. Elneveztem a kutyámat...","0","klosétnak","[""klosétnak"",""klosétnek""]","klosétnek","esp trial","0","false"
"html-button-response","64","359667","0.0-11.0-1.26","null","<p>A másik játékos ezt választotta: <b>klosétnek</b>.</p><p>&#10060;</p><p>A válaszaitok <b>nem</b> egyeznek meg.</p>","null","","","","feedback trial","",""
"html-button-response-esp","65","364371","0.0-11.0-0.27","1996","Ez itt egy dalenc. Nincs is jobb egy jó...","1","dalencnál","[""dalencnél"",""dalencnál""]","dalencnál","esp trial","0","true"
"html-button-response","66","368135","0.0-11.0-1.27","null","<p>A másik játékos ezt választotta: <b>dalencnál</b>.</p><p>&#x2705;</p><p>A te válaszod és a másik játékos válasza <b>megegyeznek</b>.</p>","null","","","","feedback trial","",""
"html-button-response-esp","67","373007","0.0-11.0-0.28","2755","Ez itt egy luméz. Ott vagyunk a...","0","lumézban","[""lumézban"",""lumézben""]","lumézben","esp trial","0","false"
"html-button-response","68","376510","0.0-11.0-1.28","null","<p>A másik játékos ezt választotta: <b>lumézben</b>.</p><p>&#10060;</p><p>A válaszaitok <b>nem</b> egyeznek meg.</p>","null","","","","feedback trial","",""
"html-button-response-esp","69","384182","0.0-11.0-0.29","7170","Ez itt egy garcép. Nincs is jobb egy jó...","1","garcépnál","[""garcépnél"",""garcépnál""]","garcépnél","esp trial","0","false"
"html-button-response","70","387691","0.0-11.0-1.29","null","<p>A másik játékos ezt választotta: <b>garcépnél</b>.</p><p>&#10060;</p><p>A válaszaitok <b>nem</b> egyeznek meg.</p>","null","","","","feedback trial","",""
"html-button-response-esp","71","393587","0.0-11.0-0.30","5392","Ez itt egy spábét. Ott vagyunk a...","0","spábétban","[""spábétban"",""spábétben""]","spábétben","esp trial","0","false"
"html-button-response","72","397302","0.0-11.0-1.30","null","<p>A másik játékos ezt választotta: <b>spábétben</b>.</p><p>&#10060;</p><p>A válaszaitok <b>nem</b> egyeznek meg.</p>","null","","","","feedback trial","",""
"html-button-response-esp","73","402005","0.0-11.0-0.31","1751","Ez itt egy braszenc. Nincs is jobb egy jó...","0","braszencnél","[""braszencnél"",""braszencnál""]","braszencnál","esp trial","0","false"
"html-button-response","74","405506","0.0-11.0-1.31","null","<p>A másik játékos ezt választotta: <b>braszencnál</b>.</p><p>&#10060;</p><p>A válaszaitok <b>nem</b> egyeznek meg.</p>","null","","","","feedback trial","",""
"html-button-response-esp","75","410367","0.0-11.0-0.32","867","Ez itt egy priszec. Ott vagyunk a...","0","priszecben","[""priszecben"",""priszecban""]","priszecban","esp trial","0","false"
"html-button-response","76","414008","0.0-11.0-1.32","null","<p>A másik játékos ezt választotta: <b>priszecban</b>.</p><p>&#10060;</p><p>A válaszaitok <b>nem</b> egyeznek meg.</p>","null","","","","feedback trial","",""
"html-button-response-esp","77","419011","0.0-11.0-0.33","2854","Ez itt egy zsúdel. Elneveztem a kutyámat...","1","zsúdelnak","[""zsúdelnek"",""zsúdelnak""]","zsúdelnak","esp trial","0","true"
"html-button-response","78","422515","0.0-11.0-1.33","null","<p>A másik játékos ezt választotta: <b>zsúdelnak</b>.</p><p>&#x2705;</p><p>A te válaszod és a másik játékos válasza <b>megegyeznek</b>.</p>","null","","","","feedback trial","",""
"html-button-response-esp","79","427217","0.0-11.0-0.34","1754","Ez itt egy pítend. Ott vagyunk a...","1","pítendban","[""pítendben"",""pítendban""]","pítendban","esp trial","0","true"
"html-button-response","80","430721","0.0-11.0-1.34","null","<p>A másik játékos ezt választotta: <b>pítendban</b>.</p><p>&#x2705;</p><p>A te válaszod és a másik játékos válasza <b>megegyeznek</b>.</p>","null","","","","feedback trial","",""
"html-button-response-esp","81","435447","0.0-11.0-0.35","1173","Ez itt egy dábegy. Ott vagyunk a...","1","dábegyban","[""dábegyben"",""dábegyban""]","dábegyban","esp trial","0","true"
"html-button-response","82","438950","0.0-11.0-1.35","null","<p>A másik játékos ezt választotta: <b>dábegyban</b>.</p><p>&#x2705;</p><p>A te válaszod és a másik játékos válasza <b>megegyeznek</b>.</p>","null","","","","feedback trial","",""
"html-button-response-esp","83","443653","0.0-11.0-0.36","1585","Ez itt egy kalhész. Elneveztem a kutyámat...","1","kalhésznak","[""kalhésznek"",""kalhésznak""]","kalhésznak","esp trial","0","true"
"html-button-response","84","447156","0.0-11.0-1.36","null","<p>A másik játékos ezt választotta: <b>kalhésznak</b>.</p><p>&#x2705;</p><p>A te válaszod és a másik játékos válasza <b>megegyeznek</b>.</p>","null","","","","feedback trial","",""
"html-button-response-esp","85","451859","0.0-11.0-0.37","1657","Ez itt egy fájéz. Ott vagyunk a...","1","fájézban","[""fájézben"",""fájézban""]","fájézben","esp trial","0","false"
"html-button-response","86","455363","0.0-11.0-1.37","null","<p>A másik játékos ezt választotta: <b>fájézben</b>.</p><p>&#10060;</p><p>A válaszaitok <b>nem</b> egyeznek meg.</p>","null","","","","feedback trial","",""
"html-button-response-esp","87","460065","0.0-11.0-0.38","1840","Ez itt egy jóbec. Elneveztem a kutyámat...","0","jóbecnek","[""jóbecnek"",""jóbecnak""]","jóbecnak","esp trial","0","false"
"html-button-response","88","463569","0.0-11.0-1.38","null","<p>A másik játékos ezt választotta: <b>jóbecnak</b>.</p><p>&#10060;</p><p>A válaszaitok <b>nem</b> egyeznek meg.</p>","null","","","","feedback trial","",""
"html-button-response-esp","89","470082","0.0-11.0-0.39","6011","Ez itt egy ronszek. Ott vagyunk a...","0","ronszekban","[""ronszekban"",""ronszekben""]","ronszekban","esp trial","0","true"
"html-button-response","90","473586","0.0-11.0-1.39","null","<p>A másik játékos ezt választotta: <b>ronszekban</b>.</p><p>&#x2705;</p><p>A te válaszod és a másik játékos válasza <b>megegyeznek</b>.</p>","null","","","","feedback trial","",""
"html-button-response-esp","91","481771","0.0-11.0-0.40","7681","Ez itt egy zsigén. Nincs is jobb egy jó...","0","zsigénnál","[""zsigénnál"",""zsigénnél""]","zsigénnál","esp trial","0","true"
"html-button-response","92","485275","0.0-11.0-1.40","null","<p>A másik játékos ezt választotta: <b>zsigénnál</b>.</p><p>&#x2705;</p><p>A te válaszod és a másik játékos válasza <b>megegyeznek</b>.</p>","null","","","","feedback trial","",""
"html-button-response-esp","93","490275","0.0-11.0-0.41","2666","Ez itt egy incéj. Elneveztem a kutyámat...","0","incéjnak","[""incéjnak"",""incéjnek""]","incéjnak","esp trial","0","true"
"html-button-response","94","493854","0.0-11.0-1.41","null","<p>A másik játékos ezt választotta: <b>incéjnak</b>.</p><p>&#x2705;</p><p>A te válaszod és a másik játékos válasza <b>megegyeznek</b>.</p>","null","","","","feedback trial","",""
"html-button-response-esp","95","499402","0.0-11.0-0.42","5046","Ez itt egy lorzens. Nincs is jobb egy jó...","1","lorzensnél","[""lorzensnál"",""lorzensnél""]","lorzensnál","esp trial","0","false"
"html-button-response","96","502978","0.0-11.0-1.42","null","<p>A másik játékos ezt választotta: <b>lorzensnál</b>.</p><p>&#10060;</p><p>A válaszaitok <b>nem</b> egyeznek meg.</p>","null","","","","feedback trial","",""
"html-button-response-esp","97","508017","0.0-11.0-0.43","2593","Ez itt egy nyamet. Ott vagyunk a...","1","nyametban","[""nyametben"",""nyametban""]","nyametban","esp trial","0","true"
"html-button-response","98","511737","0.0-11.0-1.43","null","<p>A másik játékos ezt választotta: <b>nyametban</b>.</p><p>&#x2705;</p><p>A te válaszod és a másik játékos válasza <b>megegyeznek</b>.</p>","null","","","","feedback trial","",""
"html-button-response-esp","99","516732","0.0-11.0-0.44","3160","Ez itt egy zsádév. Elneveztem a kutyámat...","0","zsádévnak","[""zsádévnak"",""zsádévnek""]","zsádévnek","esp trial","0","false"
"html-button-response","100","520580","0.0-11.0-1.44","null","<p>A másik játékos ezt választotta: <b>zsádévnek</b>.</p><p>&#10060;</p><p>A válaszaitok <b>nem</b> egyeznek meg.</p>","null","","","","feedback trial","",""
"html-button-response-esp","101","525441","0.0-11.0-0.45","4359","Ez itt egy gúden. Ott vagyunk a...","1","gúdenben","[""gúdenban"",""gúdenben""]","gúdenban","esp trial","0","false"
"html-button-response","102","529182","0.0-11.0-1.45","null","<p>A másik játékos ezt választotta: <b>gúdenban</b>.</p><p>&#10060;</p><p>A válaszaitok <b>nem</b> egyeznek meg.</p>","null","","","","feedback trial","",""
"html-button-response-esp","103","534089","0.0-11.0-0.46","1977","Ez itt egy narem. Ott vagyunk a...","1","naremban","[""naremben"",""naremban""]","naremban","esp trial","0","true"
"html-button-response","104","537651","0.0-11.0-1.46","null","<p>A másik játékos ezt választotta: <b>naremban</b>.</p><p>&#x2705;</p><p>A te válaszod és a másik játékos válasza <b>megegyeznek</b>.</p>","null","","","","feedback trial","",""
"html-button-response-esp","105","542673","0.0-11.0-0.47","4520","Ez itt egy vorszen. Nincs is jobb egy jó...","0","vorszennél","[""vorszennél"",""vorszennál""]","vorszennál","esp trial","0","false"
"html-button-response","106","546212","0.0-11.0-1.47","null","<p>A másik játékos ezt választotta: <b>vorszennál</b>.</p><p>&#10060;</p><p>A válaszaitok <b>nem</b> egyeznek meg.</p>","null","","","","feedback trial","",""
"html-button-response-esp","107","550996","0.0-11.0-0.48","2536","Ez itt egy klingesz. Ott vagyunk a...","1","klingeszban","[""klingeszben"",""klingeszban""]","klingeszban","esp trial","0","true"
"html-button-response","108","554764","0.0-11.0-1.48","null","<p>A másik játékos ezt választotta: <b>klingeszban</b>.</p><p>&#x2705;</p><p>A te válaszod és a másik játékos válasza <b>megegyeznek</b>.</p>","null","","","","feedback trial","",""
"html-button-response-esp","109","559562","0.0-11.0-0.49","4297","Ez itt egy ítens. Ott vagyunk a...","1","ítensban","[""ítensben"",""ítensban""]","ítensban","esp trial","0","true"
"html-button-response","110","563067","0.0-11.0-1.49","null","<p>A másik játékos ezt választotta: <b>ítensban</b>.</p><p>&#x2705;</p><p>A te válaszod és a másik játékos válasza <b>megegyeznek</b>.</p>","null","","","","feedback trial","",""
"html-button-response-esp","111","567955","0.0-11.0-0.50","2697","Ez itt egy zihenc. Elneveztem a kutyámat...","1","zihencnek","[""zihencnak"",""zihencnek""]","zihencnak","esp trial","0","false"
"html-button-response","112","571458","0.0-11.0-1.50","null","<p>A másik játékos ezt választotta: <b>zihencnak</b>.</p><p>&#10060;</p><p>A válaszaitok <b>nem</b> egyeznek meg.</p>","null","","","","feedback trial","",""
"html-button-response-esp","113","576459","0.0-11.0-0.51","2717","Ez itt egy darhén. Ott vagyunk a...","1","darhénban","[""darhénben"",""darhénban""]","darhénben","esp trial","0","false"
"html-button-response","114","579962","0.0-11.0-1.51","null","<p>A másik játékos ezt választotta: <b>darhénben</b>.</p><p>&#10060;</p><p>A válaszaitok <b>nem</b> egyeznek meg.</p>","null","","","","feedback trial","",""
"html-button-response-esp","115","584774","0.0-11.0-0.52","2778","Ez itt egy spicet. Elneveztem a kutyámat...","0","spicetnek","[""spicetnek"",""spicetnak""]","spicetnak","esp trial","0","false"
"html-button-response","116","588398","0.0-11.0-1.52","null","<p>A másik játékos ezt választotta: <b>spicetnak</b>.</p><p>&#10060;</p><p>A válaszaitok <b>nem</b> egyeznek meg.</p>","null","","","","feedback trial","",""
"html-button-response-esp","117","593100","0.0-11.0-0.53","887","Ez itt egy trismél. Elneveztem a kutyámat...","1","trismélnak","[""trismélnek"",""trismélnak""]","trismélnak","esp trial","0","true"
"html-button-response","118","596675","0.0-11.0-1.53","null","<p>A másik játékos ezt választotta: <b>trismélnak</b>.</p><p>&#x2705;</p><p>A te válaszod és a másik játékos válasza <b>megegyeznek</b>.</p>","null","","","","feedback trial","",""
"html-button-response","119","607269","0.0-12.0","10093","<p>A közös játék most véget ért.</p><p>Mielőtt eláruljuk a végső pontszámodat, arra kérlek, játszd a szóválasztós játékot néhány percig egyedül is.</p><p>A feladatod ugyanaz lesz, választani két lehetőség közül.</p><p>Most viszont egyedül kell döntened, hogy te melyiket választanád.</p>","0","","","","","",""
"html-button-response-clever","120","612176","0.0-13.0-0.0","4402","Ez itt egy vurnel. Elneveztem a kutyámat...","0","vurnelnek","[""vurnelnek"",""vurnelnak""]","","posttest trial","4",""
"html-button-response-clever","121","616081","0.0-13.0-0.1","3401","Ez itt egy spivél. Elneveztem a kutyámat...","0","spivélnek","[""spivélnek"",""spivélnak""]","","posttest trial","4",""
"html-button-response-clever","122","625555","0.0-13.0-0.2","8972","Ez itt egy zatéj. Nincs is jobb egy jó...","1","zatéjnél","[""zatéjnál"",""zatéjnél""]","","posttest trial","4",""
"html-button-response-clever","123","628958","0.0-13.0-0.3","2847","Ez itt egy zined. Elneveztem a kutyámat...","1","zinednek","[""zinednak"",""zinednek""]","","posttest trial","4",""
"html-button-response-clever","124","638627","0.0-13.0-0.4","9167","Ez itt egy klajrén. Elneveztem a kutyámat...","1","klajrénnak","[""klajrénnek"",""klajrénnak""]","","posttest trial","4",""
"html-button-response-clever","125","644934","0.0-13.0-0.5","5804","Ez itt egy zuten. Nincs is jobb egy jó...","0","zutennél","[""zutennél"",""zutennál""]","","posttest trial","4",""
"html-button-response-clever","126","649415","0.0-13.0-0.6","3978","Ez itt egy pristél. Ott vagyunk a...","0","pristélben","[""pristélben"",""pristélban""]","","posttest trial","4",""
"html-button-response-clever","127","655297","0.0-13.0-0.7","5377","Ez itt egy bingéj. Elneveztem a kutyámat...","0","bingéjnek","[""bingéjnek"",""bingéjnak""]","","posttest trial","4",""
"html-button-response-clever","128","658843","0.0-13.0-0.8","3042","Ez itt egy csodeg. Nincs is jobb egy jó...","1","csodegnél","[""csodegnál"",""csodegnél""]","","posttest trial","4",""
"html-button-response-clever","129","666107","0.0-13.0-0.9","6762","Ez itt egy dutec. Nincs is jobb egy jó...","0","dutecnél","[""dutecnél"",""dutecnál""]","","posttest trial","4",""
"html-button-response-clever","130","668873","0.0-13.0-0.10","2263","Ez itt egy klítegy. Nincs is jobb egy jó...","0","klítegynél","[""klítegynél"",""klítegynál""]","","posttest trial","4",""
"html-button-response-clever","131","677775","0.0-13.0-0.11","8399","Ez itt egy lingék. Nincs is jobb egy jó...","0","lingéknél","[""lingéknél"",""lingéknál""]","","posttest trial","4",""
"html-button-response-clever","132","681731","0.0-13.0-0.12","3453","Ez itt egy briskéd. Nincs is jobb egy jó...","0","briskédnél","[""briskédnél"",""briskédnál""]","","posttest trial","4",""
"html-button-response-clever","133","684245","0.0-13.0-0.13","2011","Ez itt egy szibed. Ott vagyunk a...","0","szibedben","[""szibedben"",""szibedban""]","","posttest trial","4",""
"html-button-response-clever","134","690364","0.0-13.0-0.14","5615","Ez itt egy tumély. Nincs is jobb egy jó...","0","tumélynál","[""tumélynál"",""tumélynél""]","","posttest trial","4",""
"html-button-response-clever","135","700438","0.0-13.0-0.15","9571","Ez itt egy dajrens. Nincs is jobb egy jó...","1","dajrensnél","[""dajrensnál"",""dajrensnél""]","","posttest trial","4",""
"html-button-response-clever","136","704983","0.0-13.0-0.16","4042","Ez itt egy vismer. Nincs is jobb egy jó...","0","vismernél","[""vismernél"",""vismernál""]","","posttest trial","4",""
"html-button-response-clever","137","721325","0.0-13.0-0.17","15839","Ez itt egy kátéd. Nincs is jobb egy jó...","1","kátédnál","[""kátédnél"",""kátédnál""]","","posttest trial","4",""
"html-button-response-clever","138","726974","0.0-13.0-0.18","5146","Ez itt egy fágyép. Nincs is jobb egy jó...","1","fágyépnél","[""fágyépnál"",""fágyépnél""]","","posttest trial","4",""
"html-button-response-clever","139","737006","0.0-13.0-0.19","9530","Ez itt egy zsalrén. Elneveztem a kutyámat...","1","zsalrénnek","[""zsalrénnak"",""zsalrénnek""]","","posttest trial","4",""
"html-button-response-clever","140","745126","0.0-13.0-0.20","7611","Ez itt egy spizec. Elneveztem a kutyámat...","0","spizecnek","[""spizecnek"",""spizecnak""]","","posttest trial","4",""
"html-button-response-clever","141","750269","0.0-13.0-0.21","4580","Ez itt egy tivenc. Ott vagyunk a...","0","tivencben","[""tivencben"",""tivencban""]","","posttest trial","4",""
"html-button-response-clever","142","761173","0.0-13.0-0.22","10402","Ez itt egy dóbem. Elneveztem a kutyámat...","0","dóbemnek","[""dóbemnek"",""dóbemnak""]","","posttest trial","4",""
"html-button-response-clever","143","766803","0.0-13.0-0.23","5127","Ez itt egy dinelt. Ott vagyunk a...","1","dineltben","[""dineltban"",""dineltben""]","","posttest trial","4",""
"html-button-response-clever","144","772658","0.0-13.0-0.24","5351","Ez itt egy szanéj. Elneveztem a kutyámat...","0","szanéjnak","[""szanéjnak"",""szanéjnek""]","","posttest trial","4",""
"html-button-response-clever","145","782848","0.0-13.0-0.25","9686","Ez itt egy jurdent. Nincs is jobb egy jó...","0","jurdentnél","[""jurdentnél"",""jurdentnál""]","","posttest trial","4",""
"html-button-response-clever","146","791441","0.0-13.0-0.26","8090","Ez itt egy hijegy. Nincs is jobb egy jó...","0","hijegynél","[""hijegynél"",""hijegynál""]","","posttest trial","4",""
"html-button-response-clever","147","799689","0.0-13.0-0.27","7746","Ez itt egy fizend. Ott vagyunk a...","0","fizendben","[""fizendben"",""fizendban""]","","posttest trial","4",""
"html-button-response-clever","148","809874","0.0-13.0-0.28","9682","Ez itt egy tarhéz. Ott vagyunk a...","0","tarhézban","[""tarhézban"",""tarhézben""]","","posttest trial","4",""
"html-button-response-clever","149","817549","0.0-13.0-0.29","7173","Ez itt egy hosét. Elneveztem a kutyámat...","1","hosétnak","[""hosétnek"",""hosétnak""]","","posttest trial","4",""
"html-button-response-clever","150","829335","0.0-13.0-0.30","11282","Ez itt egy dunkész. Ott vagyunk a...","0","dunkészben","[""dunkészben"",""dunkészban""]","","posttest trial","4",""
"html-button-response-clever","151","832881","0.0-13.0-0.31","3045","Ez itt egy zarcég. Nincs is jobb egy jó...","1","zarcégnél","[""zarcégnál"",""zarcégnél""]","","posttest trial","4",""
"html-button-response-clever","152","843346","0.0-13.0-0.32","9952","Ez itt egy nuhét. Nincs is jobb egy jó...","0","nuhétnál","[""nuhétnál"",""nuhétnél""]","","posttest trial","4",""
"html-button-response-clever","153","850567","0.0-13.0-0.33","6718","Ez itt egy murdes. Nincs is jobb egy jó...","0","murdesnél","[""murdesnél"",""murdesnál""]","","posttest trial","4",""
"html-button-response-clever","154","854831","0.0-13.0-0.34","3762","Ez itt egy fojlegy. Elneveztem a kutyámat...","1","fojlegynek","[""fojlegynak"",""fojlegynek""]","","posttest trial","4",""
"html-button-response-clever","155","859776","0.0-13.0-0.35","4442","Ez itt egy cságyelt. Ott vagyunk a...","1","cságyeltben","[""cságyeltban"",""cságyeltben""]","","posttest trial","4",""
"html-button-response-clever","156","866010","0.0-13.0-0.36","5730","Ez itt egy lijez. Elneveztem a kutyámat...","0","lijeznek","[""lijeznek"",""lijeznak""]","","posttest trial","4",""
"html-button-response-clever","157","872362","0.0-13.0-0.37","5851","Ez itt egy csublény. Ott vagyunk a...","0","csublényben","[""csublényben"",""csublényban""]","","posttest trial","4",""
"html-button-response-clever","158","875003","0.0-13.0-0.38","2138","Ez itt egy dibez. Ott vagyunk a...","1","dibezben","[""dibezban"",""dibezben""]","","posttest trial","4",""
"html-button-response-clever","159","879236","0.0-13.0-0.39","3730","Ez itt egy sihen. Nincs is jobb egy jó...","0","sihennél","[""sihennél"",""sihennál""]","","posttest trial","4",""
"html-button-response-clever","160","882696","0.0-13.0-0.40","2957","Ez itt egy gábéd. Nincs is jobb egy jó...","1","gábédnál","[""gábédnél"",""gábédnál""]","","posttest trial","4",""
"html-button-response-clever","161","888237","0.0-13.0-0.41","5039","Ez itt egy klazér. Ott vagyunk a...","1","klazérban","[""klazérben"",""klazérban""]","","posttest trial","4",""
"html-button-response-clever","162","895512","0.0-13.0-0.42","6772","Ez itt egy zábény. Elneveztem a kutyámat...","1","zábénynek","[""zábénynak"",""zábénynek""]","","posttest trial","4",""
"html-button-response-clever","163","902043","0.0-13.0-0.43","6027","Ez itt egy vodec. Nincs is jobb egy jó...","1","vodecnél","[""vodecnál"",""vodecnél""]","","posttest trial","4",""
"html-button-response-clever","164","914870","0.0-13.0-0.44","12309","Ez itt egy humék. Elneveztem a kutyámat...","0","huméknak","[""huméknak"",""huméknek""]","","posttest trial","4",""
"html-button-response-clever","165","924589","0.0-13.0-0.45","9216","Ez itt egy jutély. Nincs is jobb egy jó...","0","jutélynél","[""jutélynél"",""jutélynál""]","","posttest trial","4",""
"html-button-response-clever","166","928802","0.0-13.0-0.46","3677","Ez itt egy pazév. Nincs is jobb egy jó...","1","pazévnél","[""pazévnál"",""pazévnél""]","","posttest trial","4",""
"html-button-response-clever","167","937448","0.0-13.0-0.47","8142","Ez itt egy spatel. Elneveztem a kutyámat...","1","spatelnek","[""spatelnak"",""spatelnek""]","","posttest trial","4",""
"html-button-response-clever","168","948279","0.0-13.0-0.48","10327","Ez itt egy trodély. Ott vagyunk a...","0","trodélyben","[""trodélyben"",""trodélyban""]","","posttest trial","4",""
"html-button-response-clever","169","955452","0.0-13.0-0.49","6623","Ez itt egy lihény. Elneveztem a kutyámat...","0","lihénynek","[""lihénynek"",""lihénynak""]","","posttest trial","4",""
"html-button-response-clever","170","963693","0.0-13.0-0.50","7679","Ez itt egy mádép. Nincs is jobb egy jó...","1","mádépnál","[""mádépnél"",""mádépnál""]","","posttest trial","4",""
"html-button-response-clever","171","971271","0.0-13.0-0.51","7075","Ez itt egy trikép. Ott vagyunk a...","0","triképben","[""triképben"",""triképban""]","","posttest trial","4",""
"html-button-response-clever","172","979459","0.0-13.0-0.52","7684","Ez itt egy surnegy. Nincs is jobb egy jó...","1","surnegynél","[""surnegynál"",""surnegynél""]","","posttest trial","4",""
"html-button-response-clever","173","988321","0.0-13.0-0.53","8358","Ez itt egy fupét. Nincs is jobb egy jó...","1","fupétnél","[""fupétnál"",""fupétnél""]","","posttest trial","4",""
"html-button-response","174","994684","0.0-14.0","5860","<p> Vége a játéknak. A teljes pontszámod 21/54.</p><p> Szép munka! &#128526;&#128526;&#128526;</p><p>A Befejezés gomb megnyomása után bezárhatod a böngészőablakot.</p>","0","","","","","",""
"html-keyboard-response","175","1000231","0.0-15.0","null","<div class=""message"">
         <p>Egy kis türelmet kérünk, amíg elmentjük az adatokat...</p>
         </div>","null","","","","","",""
