"trial_type","trial_index","time_elapsed","internal_node_id","rt","stimulus","response","response_string","choices","esp_response","trial_kind","list_number","esp_match"
"pavlovia","0","719","0.0-0.0","","","","","","","","",""
"html-button-response","1","20713","0.0-1.0","19480","<p>Kedves Résztvevő! A Budapesti Műszaki és Gazdaságtudományi Egyetem Kognitív Tudományi Tanszékének kutatásában való részvételed kérjük. A kutatásban azt vizsgáljuk, hogy a magyar anyanyelvűek hogyan használnak bizonyos szóalakokat, és hogy milyen képük van arról, hogy mások hogyan használják, hogyan képzik a szavakat. Ez hozzásegít bennünket ahhoz, hogy jobban megértsük, hogyan dolgozza fel és tárolja a nyelvet az emberi agy, és hogyan működnek, hogyan változnak egy adott közösség nyelvi konvenciói.</p><p>A vizsgálat egy rövid számítógépes feladatból fog állni. A kutatásban való részvétel önkéntes, a részvételi szándék bármikor visszavonható. A résztvevők eredményeit név nélkül kezeljük, így nem beazonosíthatók az adatok feldolgozása során. Minden személyes adatot az EU általános adatvédelmi rendeletének (GDPR) megfelelően kezelünk és legfeljebb öt éven belül megsemmisítünk. A vizsgálat jellemzően húsz percet vesz igénybe.</p><p>Kutatásvezető:</p><p>Dr. Rácz Péter, tudományos munkatárs, BME KTT</p><p>e-mail: racz.peter.marton@ttk.bme.hu</p>","0","","","","","",""
"html-button-response","2","62332","0.0-2.0","41114","<p>A kísérletben szavakat fogsz látni. Ezek között lesznek olyanok, amelyeket ismersz, de előfordulhatnak olyanok is, amelyeket nem ismersz, sőt, vannak köztük kitalált szavak is. Minden szónál látni fogsz toldalékolt alakokat. A te feladatod az lesz, hogy minden szóhoz kiválaszd azt a toldalékolt alakot, amely a te számodra ismerősebben, természetesebben hangzik. Rossz válaszok nincsenek, mert van olyan, hogy különböző embereknek más és más szó tűnik jobb választásnak. A választ úgy tudod majd kiválasztani, ha rákattintasz.</p><p>Ebben a szóválasztós játékban egy másik játékossal együtt veszel majd részt. A másik játékos is minden esetben azok közül a lehetőségek közül válogathat, mint te. Kettőtök feladata az, hogy ugyanazt a lehetőséget válasszátok minden esetben. Ahhoz, hogy ez sikerüljön, neked figyelned kell arra, hogy a másik játékos milyen válaszokat ad, és ennek alapján meg kell tippelned, hogyan választ legközelebb. Ha eltalálod, akkor pontot kapsz.</p>","0","","","","","",""
"html-button-response","3","94866","0.0-3.0","32030","<p>Kérjük, olvasd el az alábbi nyilatkozatot, és amennyiben egyetértesz vele, nyomj a Beleegyezés gombra!</p><p>Kijelentem, hogy magyar anyanyelvű személyként önként veszek részt a BME KTT kísérletében. A kutatás céljával és folyamatával kapcsolatban elegendő tájékoztatást kaptam, lehetőségem volt kérdések feltételére, és esetleges kérdéseimre megfelelő válaszokat kaptam. A tájékoztatás alapján elegendő mennyiségű információ áll a rendelkezésemre, hogy eldönthessem, részt kívánok-e venni a kutatásban.</p><p>Tisztában vagyok vele, hogy részvételi szándékomat és adataimat bármikor, indoklás nélkül visszavonhatom.</p><p>Értem és tudomásul veszem, hogy a kutatás tudományos célokat szolgál, és az általam szolgáltatott adatokat a BME kizárólag kutatási célból használja fel. Tudomásul veszem, hogy eredményeimet a többi résztvevő eredményeivel együtt kezelik, így egyéni teljesítményemről visszajelzést, szakvéleményt nem kapok.</p><p>Megértettem, hogy adataim kezelését illetően a BME az EU általános adatvédelmi rendelete (GDPR), a hatályos adatvédelmi törvény és a nemzetközi kutatás-etikai alapelvek szerint jár el. Eredményeim anonim módon kerülnek feldolgozásra, és a kutatás résztvevői az azonosításomra alkalmas adataimat harmadik félnek nem szolgáltatják ki. Engedélyezem a BME számára a jelen kutatásban felvett adataim feldolgozását és tárolását, beleértve azok későbbi kutatásokhoz való felhasználását is. Személyes adataim kezelésével kapcsolatban tájékoztatást kérhetek a kutatás résztvevőitől, az adatkezelés ellen tiltakozhatok, kérhetem személyes adataim helyesbítését, törlését vagy zárolását, valamint jogorvoslatért a Nemzeti Adatvédelmi és Információszabadság Hatósághoz fordulhatok.</p><p>Kijelentem, hogy a kutatásban való részvételem körülményeiről részletes tájékoztatást kaptam, és a feltételeket elfogadom.</p>","0","","","","","",""
"survey-text","4","137981","0.0-4.0","42592","","{""Q0"":""U1NU8V"",""Q1"":""Nő"",""Q2"":""1996"",""Q3"":""15""}","","","","","",""
"html-button-response","5","154920","0.0-5.0","16435","<p>Ebben a játékban szavakat kell toldalékolni.</p> <p>Minden körben mutatunk majd egy példamondatot, amiben lesz egy szó.</p> <p>Alatta jön egy második mondat, ezt a mondatot neked kell majd befejezni, ugyanezzel a szóval.</p> <p>Nem biztos, hogy a szó eleve ismerős lesz számodra!</p> <p>Minden mondathoz adunk két lehetőséget, ezeket balra és jobbra látod majd.</p> <p>A játék kb. negyedóráig-húsz percig tart.</p>","0","","","","","",""
"html-button-response","6","188805","0.0-6.0","33381","<p>Nézzünk egy példát!</p> <p>A példamondat: ""János imád fláramolni, ezért sokat fláramlik. Mi ritkán...""</p><p>Neked ezt a mondatot kell befejezned: ""Ti ritkán...""</p><p>A lehetőségek pedig ezek:</p>","0","","","","","",""
"html-button-response","7","199290","0.0-7.0","9981","<p>Nagyon jó.</p><p>Ezt a játékot nem egyedül fogod játszani, hanem egy másik játékossal.</p><p>Mielőtt továbblépünk, összekapcsolunk titeket egymással.</p><p>Ez igénybe vehet néhány másodpercet, amihez szíves türelmed kérjük.</p>","0","","","","","",""
"html-button-response","8","205016","0.0-8.0","null","<p>Csatlakozás a másik játékoshoz...</p>","null","","","","","",""
"html-button-response","9","207536","0.0-9.0","null","<p> Sikeres kapcsolódás!</p>","null","","","","","",""
"html-button-response","10","218042","0.0-10.0","null","<p>A következőkben ketten játsszátok a szóválasztós játékot.</p><p>A feladatotok az lesz, hogy minden körben <b>ugyanazt</b> a szót válasszátok.</p><p>Minden ilyen egyező válaszért pontot kaptok.</p><p>Próbáld meg kitalálni, mit választ a másik játékos!</p><p>Bármikor választhatsz, a körnek akkor van vége, ha mindketten döntöttetek.</p><p>Sok sikert!</p>","null","","","","","",""
"html-button-response-esp","11","228075","0.0-11.0-0.0","9524","János imád trugozni, ezért sokat trugzik. Ők ritkán...","1","trugoznak","[""trugzanak"",""trugoznak""]","trugoznak","esp trial","5","true"
"html-button-response","12","231582","0.0-11.0-1.0","null","<p>A másik játékos ezt választotta: <b>trugoznak</b>.</p><p>&#x2705;</p><p>A te válaszod és a másik játékos válasza <b>megegyeznek</b>.</p>","null","","","","feedback trial","",""
"html-button-response-esp","13","241155","0.0-11.0-0.1","9066","János imád spiharozni, ezért sokat spiharzik. Ti ritkán...","1","spiharoztok","[""spiharzotok"",""spiharoztok""]","spiharoztok","esp trial","5","true"
"html-button-response","14","244660","0.0-11.0-1.1","null","<p>A másik játékos ezt választotta: <b>spiharoztok</b>.</p><p>&#x2705;</p><p>A te válaszod és a másik játékos válasza <b>megegyeznek</b>.</p>","null","","","","feedback trial","",""
"html-button-response-esp","15","260108","0.0-11.0-0.2","14943","János imád dilakozni, ezért sokat dilaklik. Ti ritkán...","0","dilakoztok","[""dilakoztok"",""dilaklotok""]","dilakoztok","esp trial","5","true"
"html-button-response","16","263614","0.0-11.0-1.2","null","<p>A másik játékos ezt választotta: <b>dilakoztok</b>.</p><p>&#x2705;</p><p>A te válaszod és a másik játékos válasza <b>megegyeznek</b>.</p>","null","","","","feedback trial","",""
"html-button-response-esp","17","269892","0.0-11.0-0.3","5771","János imád brivakozni, ezért sokat brivaklik. Ti ritkán...","0","brivakoztok","[""brivakoztok"",""brivaklotok""]","brivaklotok","esp trial","5","false"
"html-button-response","18","273397","0.0-11.0-1.3","null","<p>A másik játékos ezt választotta: <b>brivaklotok</b>.</p><p>&#10060;</p><p>A válaszaitok <b>nem</b> egyeznek meg.</p>","null","","","","feedback trial","",""
"html-button-response-esp","19","288576","0.0-11.0-0.4","14676","János imád frakozni, ezért sokat fraklik. Mi ritkán...","1","frakozunk","[""fraklunk"",""frakozunk""]","fraklunk","esp trial","5","false"
"html-button-response","20","292081","0.0-11.0-1.4","null","<p>A másik játékos ezt választotta: <b>fraklunk</b>.</p><p>&#10060;</p><p>A válaszaitok <b>nem</b> egyeznek meg.</p>","null","","","","feedback trial","",""
"html-button-response-esp","21","307595","0.0-11.0-0.5","15011","János imád dirozni, ezért sokat dirlik. Ti ritkán...","0","dirlotok","[""dirlotok"",""diroztok""]","dirlotok","esp trial","5","true"
"html-button-response","22","311102","0.0-11.0-1.5","null","<p>A másik játékos ezt választotta: <b>dirlotok</b>.</p><p>&#x2705;</p><p>A te válaszod és a másik játékos válasza <b>megegyeznek</b>.</p>","null","","","","feedback trial","",""
"html-button-response-esp","23","323527","0.0-11.0-0.6","11921","János imád dárakodni, ezért sokat dárakszik. Mi ritkán...","1","dárakodunk","[""dárakszunk"",""dárakodunk""]","dárakszunk","esp trial","5","false"
"html-button-response","24","327036","0.0-11.0-1.6","null","<p>A másik játékos ezt választotta: <b>dárakszunk</b>.</p><p>&#10060;</p><p>A válaszaitok <b>nem</b> egyeznek meg.</p>","null","","","","feedback trial","",""
"html-button-response-esp","25","344828","0.0-11.0-0.7","17289","János imád kűdözni, ezért sokat kűdlik. Ők ritkán...","1","kűdlenek","[""kűdöznek"",""kűdlenek""]","kűdlenek","esp trial","5","true"
"html-button-response","26","348333","0.0-11.0-1.7","null","<p>A másik játékos ezt választotta: <b>kűdlenek</b>.</p><p>&#x2705;</p><p>A te válaszod és a másik játékos válasza <b>megegyeznek</b>.</p>","null","","","","feedback trial","",""
"html-button-response-esp","27","355745","0.0-11.0-0.8","6908","János imád püzözni, ezért sokat püzlik. Ti ritkán...","1","püzlötök","[""püzöztök"",""püzlötök""]","püzlötök","esp trial","5","true"
"html-button-response","28","359249","0.0-11.0-1.8","null","<p>A másik játékos ezt választotta: <b>püzlötök</b>.</p><p>&#x2705;</p><p>A te válaszod és a másik játékos válasza <b>megegyeznek</b>.</p>","null","","","","feedback trial","",""
"html-button-response-esp","29","373763","0.0-11.0-0.9","14008","János imád flüröközni, ezért sokat flüröklik. Ti ritkán...","1","flürököztök","[""flüröklötök"",""flürököztök""]","flüröklötök","esp trial","5","false"
"html-button-response","30","377268","0.0-11.0-1.9","null","<p>A másik játékos ezt választotta: <b>flüröklötök</b>.</p><p>&#10060;</p><p>A válaszaitok <b>nem</b> egyeznek meg.</p>","null","","","","feedback trial","",""
"html-button-response-esp","31","392464","0.0-11.0-0.10","14692","János imád drilarozni, ezért sokat drilarzik. Mi ritkán...","0","drilarzunk","[""drilarzunk"",""drilarozunk""]","drilarozunk","esp trial","5","false"
"html-button-response","32","395969","0.0-11.0-1.10","null","<p>A másik játékos ezt választotta: <b>drilarozunk</b>.</p><p>&#10060;</p><p>A válaszaitok <b>nem</b> egyeznek meg.</p>","null","","","","feedback trial","",""
"html-button-response-esp","33","404016","0.0-11.0-0.11","7543","János imád sprudozni, ezért sokat sprudlik. Mi ritkán...","0","sprudlunk","[""sprudlunk"",""sprudozunk""]","sprudozunk","esp trial","5","false"
"html-button-response","34","407521","0.0-11.0-1.11","null","<p>A másik játékos ezt választotta: <b>sprudozunk</b>.</p><p>&#10060;</p><p>A válaszaitok <b>nem</b> egyeznek meg.</p>","null","","","","feedback trial","",""
"html-button-response-esp","35","414414","0.0-11.0-0.12","6389","János imád virozni, ezért sokat virzik. Ők ritkán...","1","viroznak","[""virzanak"",""viroznak""]","virzanak","esp trial","5","false"
"html-button-response","36","417919","0.0-11.0-1.12","null","<p>A másik játékos ezt választotta: <b>virzanak</b>.</p><p>&#10060;</p><p>A válaszaitok <b>nem</b> egyeznek meg.</p>","null","","","","feedback trial","",""
"html-button-response-esp","37","427498","0.0-11.0-0.13","9076","János imád klehényezni, ezért sokat klehénylik. Ti ritkán...","0","klehényletek","[""klehényletek"",""klehényeztek""]","klehényletek","esp trial","5","true"
"html-button-response","38","431003","0.0-11.0-1.13","null","<p>A másik játékos ezt választotta: <b>klehényletek</b>.</p><p>&#x2705;</p><p>A te válaszod és a másik játékos válasza <b>megegyeznek</b>.</p>","null","","","","feedback trial","",""
"html-button-response-esp","39","447349","0.0-11.0-0.14","15842","János imád branyozni, ezért sokat branylik. Ők ritkán...","0","branyoznak","[""branyoznak"",""branylanak""]","branylanak","esp trial","5","false"
"html-button-response","40","450854","0.0-11.0-1.14","null","<p>A másik játékos ezt választotta: <b>branylanak</b>.</p><p>&#10060;</p><p>A válaszaitok <b>nem</b> egyeznek meg.</p>","null","","","","feedback trial","",""
"html-button-response-esp","41","457100","0.0-11.0-0.15","5744","János imád mágamozni, ezért sokat mágamlik. Mi ritkán...","0","mágamozunk","[""mágamozunk"",""mágamlunk""]","mágamlunk","esp trial","5","false"
"html-button-response","42","460605","0.0-11.0-1.15","null","<p>A másik játékos ezt választotta: <b>mágamlunk</b>.</p><p>&#10060;</p><p>A válaszaitok <b>nem</b> egyeznek meg.</p>","null","","","","feedback trial","",""
"html-button-response-esp","43","468934","0.0-11.0-0.16","7824","János imád lájozni, ezért sokat lájzik. Ti ritkán...","0","lájoztok","[""lájoztok"",""lájzotok""]","lájzotok","esp trial","5","false"
"html-button-response","44","472440","0.0-11.0-1.16","null","<p>A másik játékos ezt választotta: <b>lájzotok</b>.</p><p>&#10060;</p><p>A válaszaitok <b>nem</b> egyeznek meg.</p>","null","","","","feedback trial","",""
"html-button-response-esp","45","480766","0.0-11.0-0.17","7823","János imád dujozni, ezért sokat dujzik. Ők ritkán...","1","dujoznak","[""dujzanak"",""dujoznak""]","dujzanak","esp trial","5","false"
"html-button-response","46","484271","0.0-11.0-1.17","null","<p>A másik játékos ezt választotta: <b>dujzanak</b>.</p><p>&#10060;</p><p>A válaszaitok <b>nem</b> egyeznek meg.</p>","null","","","","feedback trial","",""
"html-button-response-esp","47","492636","0.0-11.0-0.18","7861","János imád pragányozni, ezért sokat pragánylik. Ti ritkán...","1","pragánylotok","[""pragányoztok"",""pragánylotok""]","pragánylotok","esp trial","5","true"
"html-button-response","48","496141","0.0-11.0-1.18","null","<p>A másik játékos ezt választotta: <b>pragánylotok</b>.</p><p>&#x2705;</p><p>A te válaszod és a másik játékos válasza <b>megegyeznek</b>.</p>","null","","","","feedback trial","",""
"html-button-response-esp","49","509319","0.0-11.0-0.19","12674","János imád nyivágozni, ezért sokat nyivágzik. Mi ritkán...","0","nyivágzunk","[""nyivágzunk"",""nyivágozunk""]","nyivágzunk","esp trial","5","true"
"html-button-response","50","512824","0.0-11.0-1.19","null","<p>A másik játékos ezt választotta: <b>nyivágzunk</b>.</p><p>&#x2705;</p><p>A te válaszod és a másik játékos válasza <b>megegyeznek</b>.</p>","null","","","","feedback trial","",""
"html-button-response-esp","51","519521","0.0-11.0-0.20","6194","János imád dabozni, ezért sokat dabzik. Ti ritkán...","0","daboztok","[""daboztok"",""dabzotok""]","dabzotok","esp trial","5","false"
"html-button-response","52","523026","0.0-11.0-1.20","null","<p>A másik játékos ezt választotta: <b>dabzotok</b>.</p><p>&#10060;</p><p>A válaszaitok <b>nem</b> egyeznek meg.</p>","null","","","","feedback trial","",""
"html-button-response-esp","53","537888","0.0-11.0-0.21","14359","János imád föködni, ezért sokat fökszik. Ők ritkán...","0","föködnek","[""föködnek"",""fökszenek""]","fökszenek","esp trial","5","false"
"html-button-response","54","541393","0.0-11.0-1.21","null","<p>A másik játékos ezt választotta: <b>fökszenek</b>.</p><p>&#10060;</p><p>A válaszaitok <b>nem</b> egyeznek meg.</p>","null","","","","feedback trial","",""
"html-button-response-esp","55","553840","0.0-11.0-0.22","11944","János imád gihejezni, ezért sokat gihejlik. Mi ritkán...","1","gihejlünk","[""gihejezünk"",""gihejlünk""]","gihejlünk","esp trial","5","true"
"html-button-response","56","557345","0.0-11.0-1.22","null","<p>A másik játékos ezt választotta: <b>gihejlünk</b>.</p><p>&#x2705;</p><p>A te válaszod és a másik játékos válasza <b>megegyeznek</b>.</p>","null","","","","feedback trial","",""
"html-button-response-esp","57","570120","0.0-11.0-0.23","12273","János imád trugokozni, ezért sokat trugoklik. Ők ritkán...","1","trugokoznak","[""trugoklanak"",""trugokoznak""]","trugoklanak","esp trial","5","false"
"html-button-response","58","573625","0.0-11.0-1.23","null","<p>A másik játékos ezt választotta: <b>trugoklanak</b>.</p><p>&#10060;</p><p>A válaszaitok <b>nem</b> egyeznek meg.</p>","null","","","","feedback trial","",""
"html-button-response-esp","59","582106","0.0-11.0-0.24","7978","János imád sprűrözni, ezért sokat sprűrlik. Ők ritkán...","1","sprűröznek","[""sprűrlenek"",""sprűröznek""]","sprűrlenek","esp trial","5","false"
"html-button-response","60","585611","0.0-11.0-1.24","null","<p>A másik játékos ezt választotta: <b>sprűrlenek</b>.</p><p>&#10060;</p><p>A válaszaitok <b>nem</b> egyeznek meg.</p>","null","","","","feedback trial","",""
"html-button-response-esp","61","599645","0.0-11.0-0.25","13530","János imád lűközni, ezért sokat lűklik. Ők ritkán...","0","lűklenek","[""lűklenek"",""lűköznek""]","lűköznek","esp trial","5","false"
"html-button-response","62","603150","0.0-11.0-1.25","null","<p>A másik játékos ezt választotta: <b>lűköznek</b>.</p><p>&#10060;</p><p>A válaszaitok <b>nem</b> egyeznek meg.</p>","null","","","","feedback trial","",""
"html-button-response-esp","63","611608","0.0-11.0-0.26","7954","János imád nyürözni, ezért sokat nyürzik. Ők ritkán...","0","nyüröznek","[""nyüröznek"",""nyürzenek""]","nyürzenek","esp trial","5","false"
"html-button-response","64","615112","0.0-11.0-1.26","null","<p>A másik játékos ezt választotta: <b>nyürzenek</b>.</p><p>&#10060;</p><p>A válaszaitok <b>nem</b> egyeznek meg.</p>","null","","","","feedback trial","",""
"html-button-response-esp","65","624474","0.0-11.0-0.27","8858","János imád flemezni, ezért sokat flemlik. Mi ritkán...","0","flemezünk","[""flemezünk"",""flemlünk""]","flemezünk","esp trial","5","true"
"html-button-response","66","627978","0.0-11.0-1.27","null","<p>A másik játékos ezt választotta: <b>flemezünk</b>.</p><p>&#x2705;</p><p>A te válaszod és a másik játékos válasza <b>megegyeznek</b>.</p>","null","","","","feedback trial","",""
"html-button-response-esp","67","636441","0.0-11.0-0.28","7958","János imád mülőrözni, ezért sokat mülőrzik. Mi ritkán...","0","mülőrözünk","[""mülőrözünk"",""mülőrzünk""]","mülőrzünk","esp trial","5","false"
"html-button-response","68","639945","0.0-11.0-1.28","null","<p>A másik játékos ezt választotta: <b>mülőrzünk</b>.</p><p>&#10060;</p><p>A válaszaitok <b>nem</b> egyeznek meg.</p>","null","","","","feedback trial","",""
"html-button-response-esp","69","646975","0.0-11.0-0.29","6526","János imád frálapodni, ezért sokat frálapszik. Ti ritkán...","0","frálapszotok","[""frálapszotok"",""frálapodtok""]","frálapszotok","esp trial","5","true"
"html-button-response","70","650479","0.0-11.0-1.29","null","<p>A másik játékos ezt választotta: <b>frálapszotok</b>.</p><p>&#x2705;</p><p>A te válaszod és a másik játékos válasza <b>megegyeznek</b>.</p>","null","","","","feedback trial","",""
"html-button-response-esp","71","659376","0.0-11.0-0.30","8392","János imád posozni, ezért sokat poslik. Ti ritkán...","0","poslotok","[""poslotok"",""posoztok""]","poslotok","esp trial","5","true"
"html-button-response","72","662881","0.0-11.0-1.30","null","<p>A másik játékos ezt választotta: <b>poslotok</b>.</p><p>&#x2705;</p><p>A te válaszod és a másik játékos válasza <b>megegyeznek</b>.</p>","null","","","","feedback trial","",""
"html-button-response-esp","73","671228","0.0-11.0-0.31","7844","János imád trikozni, ezért sokat triklik. Ti ritkán...","1","triklotok","[""trikoztok"",""triklotok""]","triklotok","esp trial","5","true"
"html-button-response","74","674734","0.0-11.0-1.31","null","<p>A másik játékos ezt választotta: <b>triklotok</b>.</p><p>&#x2705;</p><p>A te válaszod és a másik játékos válasza <b>megegyeznek</b>.</p>","null","","","","feedback trial","",""
"html-button-response-esp","75","681845","0.0-11.0-0.32","6607","János imád brözözni, ezért sokat brözlik. Ti ritkán...","1","brözöztök","[""brözlötök"",""brözöztök""]","brözlötök","esp trial","5","false"
"html-button-response","76","685351","0.0-11.0-1.32","null","<p>A másik játékos ezt választotta: <b>brözlötök</b>.</p><p>&#10060;</p><p>A válaszaitok <b>nem</b> egyeznek meg.</p>","null","","","","feedback trial","",""
"html-button-response-esp","77","696827","0.0-11.0-0.33","10972","János imád frálasozni, ezért sokat frálaslik. Ők ritkán...","0","frálaslanak","[""frálaslanak"",""frálasoznak""]","frálaslanak","esp trial","5","true"
"html-button-response","78","700332","0.0-11.0-1.33","null","<p>A másik játékos ezt választotta: <b>frálaslanak</b>.</p><p>&#x2705;</p><p>A te válaszod és a másik játékos válasza <b>megegyeznek</b>.</p>","null","","","","feedback trial","",""
"html-button-response-esp","79","710661","0.0-11.0-0.34","9825","János imád prélemezni, ezért sokat prélemlik. Ők ritkán...","1","prélemeznek","[""prélemlenek"",""prélemeznek""]","prélemlenek","esp trial","5","false"
"html-button-response","80","714167","0.0-11.0-1.34","null","<p>A másik játékos ezt választotta: <b>prélemlenek</b>.</p><p>&#10060;</p><p>A válaszaitok <b>nem</b> egyeznek meg.</p>","null","","","","feedback trial","",""
"html-button-response-esp","81","720029","0.0-11.0-0.35","5358","János imád spibegezni, ezért sokat spibeglik. Mi ritkán...","1","spibeglünk","[""spibegezünk"",""spibeglünk""]","spibeglünk","esp trial","5","true"
"html-button-response","82","723533","0.0-11.0-1.35","null","<p>A másik játékos ezt választotta: <b>spibeglünk</b>.</p><p>&#x2705;</p><p>A te válaszod és a másik játékos válasza <b>megegyeznek</b>.</p>","null","","","","feedback trial","",""
"html-button-response-esp","83","730362","0.0-11.0-0.36","6325","János imád trivakodni, ezért sokat trivakszik. Mi ritkán...","0","trivakszunk","[""trivakszunk"",""trivakodunk""]","trivakszunk","esp trial","5","true"
"html-button-response","84","733866","0.0-11.0-1.36","null","<p>A másik játékos ezt választotta: <b>trivakszunk</b>.</p><p>&#x2705;</p><p>A te válaszod és a másik játékos válasza <b>megegyeznek</b>.</p>","null","","","","feedback trial","",""
"html-button-response-esp","85","740062","0.0-11.0-0.37","5694","János imád prögözni, ezért sokat prögzik. Ti ritkán...","1","prögöztök","[""prögzötök"",""prögöztök""]","prögöztök","esp trial","5","true"
"html-button-response","86","743567","0.0-11.0-1.37","null","<p>A másik játékos ezt választotta: <b>prögöztök</b>.</p><p>&#x2705;</p><p>A te válaszod és a másik játékos válasza <b>megegyeznek</b>.</p>","null","","","","feedback trial","",""
"html-button-response-esp","87","750497","0.0-11.0-0.38","6428","János imád fröjözni, ezért sokat fröjzik. Ti ritkán...","1","fröjzötök","[""fröjöztök"",""fröjzötök""]","fröjöztök","esp trial","5","false"
"html-button-response","88","754001","0.0-11.0-1.38","null","<p>A másik játékos ezt választotta: <b>fröjöztök</b>.</p><p>&#10060;</p><p>A válaszaitok <b>nem</b> egyeznek meg.</p>","null","","","","feedback trial","",""
"html-button-response-esp","89","759406","0.0-11.0-0.39","4844","János imád köszözni, ezért sokat köszlik. Ti ritkán...","1","köszlötök","[""köszöztök"",""köszlötök""]","köszöztök","esp trial","5","false"
"html-button-response","90","762911","0.0-11.0-1.39","null","<p>A másik játékos ezt választotta: <b>köszöztök</b>.</p><p>&#10060;</p><p>A válaszaitok <b>nem</b> egyeznek meg.</p>","null","","","","feedback trial","",""
"html-button-response-esp","91","769883","0.0-11.0-0.40","6469","János imád drűrözni, ezért sokat drűrzik. Ők ritkán...","0","drűröznek","[""drűröznek"",""drűrzenek""]","drűröznek","esp trial","5","true"
"html-button-response","92","773387","0.0-11.0-1.40","null","<p>A másik játékos ezt választotta: <b>drűröznek</b>.</p><p>&#x2705;</p><p>A te válaszod és a másik játékos válasza <b>megegyeznek</b>.</p>","null","","","","feedback trial","",""
"html-button-response-esp","93","779379","0.0-11.0-0.41","5488","János imád flöközni, ezért sokat flöklik. Ti ritkán...","0","flöklötök","[""flöklötök"",""flököztök""]","flöklötök","esp trial","5","true"
"html-button-response","94","782883","0.0-11.0-1.41","null","<p>A másik játékos ezt választotta: <b>flöklötök</b>.</p><p>&#x2705;</p><p>A te válaszod és a másik játékos válasza <b>megegyeznek</b>.</p>","null","","","","feedback trial","",""
"html-button-response-esp","95","791933","0.0-11.0-0.42","8545","János imád pilégedni, ezért sokat pilégszik. Ők ritkán...","0","pilégszenek","[""pilégszenek"",""pilégednek""]","pilégszenek","esp trial","5","true"
"html-button-response","96","795437","0.0-11.0-1.42","null","<p>A másik játékos ezt választotta: <b>pilégszenek</b>.</p><p>&#x2705;</p><p>A te válaszod és a másik játékos válasza <b>megegyeznek</b>.</p>","null","","","","feedback trial","",""
"html-button-response-esp","97","801817","0.0-11.0-0.43","5877","János imád brülösözni, ezért sokat brülöslik. Mi ritkán...","0","brülöslünk","[""brülöslünk"",""brülösözünk""]","brülöslünk","esp trial","5","true"
"html-button-response","98","805323","0.0-11.0-1.43","null","<p>A másik játékos ezt választotta: <b>brülöslünk</b>.</p><p>&#x2705;</p><p>A te válaszod és a másik játékos válasza <b>megegyeznek</b>.</p>","null","","","","feedback trial","",""
"html-button-response-esp","99","811888","0.0-11.0-0.44","6123","János imád csubozni, ezért sokat csubzik. Mi ritkán...","1","csubozunk","[""csubzunk"",""csubozunk""]","csubzunk","esp trial","5","false"
"html-button-response","100","815394","0.0-11.0-1.44","null","<p>A másik játékos ezt választotta: <b>csubzunk</b>.</p><p>&#10060;</p><p>A válaszaitok <b>nem</b> egyeznek meg.</p>","null","","","","feedback trial","",""
"html-button-response-esp","101","824076","0.0-11.0-0.45","8177","János imád gyihegezni, ezért sokat gyihegzik. Ti ritkán...","1","gyihegeztek","[""gyihegzetek"",""gyihegeztek""]","gyihegeztek","esp trial","5","true"
"html-button-response","102","827580","0.0-11.0-1.45","null","<p>A másik játékos ezt választotta: <b>gyihegeztek</b>.</p><p>&#x2705;</p><p>A te válaszod és a másik játékos válasza <b>megegyeznek</b>.</p>","null","","","","feedback trial","",""
"html-button-response-esp","103","834824","0.0-11.0-0.46","6742","János imád sprozozni, ezért sokat sprozlik. Ők ritkán...","0","sprozlanak","[""sprozlanak"",""sprozoznak""]","sprozlanak","esp trial","5","true"
"html-button-response","104","838329","0.0-11.0-1.46","null","<p>A másik játékos ezt választotta: <b>sprozlanak</b>.</p><p>&#x2705;</p><p>A te válaszod és a másik játékos válasza <b>megegyeznek</b>.</p>","null","","","","feedback trial","",""
"html-button-response-esp","105","843734","0.0-11.0-0.47","3559","János imád spirágozni, ezért sokat spiráglik. Ti ritkán...","1","spiráglotok","[""spirágoztok"",""spiráglotok""]","spirágoztok","esp trial","5","false"
"html-button-response","106","847239","0.0-11.0-1.47","null","<p>A másik játékos ezt választotta: <b>spirágoztok</b>.</p><p>&#10060;</p><p>A válaszaitok <b>nem</b> egyeznek meg.</p>","null","","","","feedback trial","",""
"html-button-response-esp","107","852644","0.0-11.0-0.48","4516","János imád spügözni, ezért sokat spügzik. Mi ritkán...","1","spügzünk","[""spügözünk"",""spügzünk""]","spügzünk","esp trial","5","true"
"html-button-response","108","856148","0.0-11.0-1.48","null","<p>A másik játékos ezt választotta: <b>spügzünk</b>.</p><p>&#x2705;</p><p>A te válaszod és a másik játékos válasza <b>megegyeznek</b>.</p>","null","","","","feedback trial","",""
"html-button-response-esp","109","861611","0.0-11.0-0.49","4942","János imád csibagozni, ezért sokat csibagzik. Ti ritkán...","0","csibagoztok","[""csibagoztok"",""csibagzotok""]","csibagoztok","esp trial","5","true"
"html-button-response","110","865115","0.0-11.0-1.49","null","<p>A másik játékos ezt választotta: <b>csibagoztok</b>.</p><p>&#x2705;</p><p>A te válaszod és a másik játékos válasza <b>megegyeznek</b>.</p>","null","","","","feedback trial","",""
"html-button-response-esp","111","870519","0.0-11.0-0.50","4641","János imád flűgözni, ezért sokat flűgzik. Mi ritkán...","0","flűgözünk","[""flűgözünk"",""flűgzünk""]","flűgzünk","esp trial","5","false"
"html-button-response","112","874024","0.0-11.0-1.50","null","<p>A másik játékos ezt választotta: <b>flűgzünk</b>.</p><p>&#10060;</p><p>A válaszaitok <b>nem</b> egyeznek meg.</p>","null","","","","feedback trial","",""
"html-button-response-esp","113","879428","0.0-11.0-0.51","4366","János imád privékedni, ezért sokat privékszik. Ők ritkán...","0","privékszenek","[""privékszenek"",""privékednek""]","privékszenek","esp trial","5","true"
"html-button-response","114","882933","0.0-11.0-1.51","null","<p>A másik játékos ezt választotta: <b>privékszenek</b>.</p><p>&#x2705;</p><p>A te válaszod és a másik játékos válasza <b>megegyeznek</b>.</p>","null","","","","feedback trial","",""
"html-button-response-esp","115","889876","0.0-11.0-0.52","6416","János imád bratározni, ezért sokat bratárzik. Ők ritkán...","1","bratároznak","[""bratárzanak"",""bratároznak""]","bratároznak","esp trial","5","true"
"html-button-response","116","893381","0.0-11.0-1.52","null","<p>A másik játékos ezt választotta: <b>bratároznak</b>.</p><p>&#x2705;</p><p>A te válaszod és a másik játékos válasza <b>megegyeznek</b>.</p>","null","","","","feedback trial","",""
"html-button-response-esp","117","898784","0.0-11.0-0.53","4776","János imád molodni, ezért sokat molszik. Ti ritkán...","1","molszotok","[""molodtok"",""molszotok""]","molszotok","esp trial","5","true"
"html-button-response","118","902289","0.0-11.0-1.53","null","<p>A másik játékos ezt választotta: <b>molszotok</b>.</p><p>&#x2705;</p><p>A te válaszod és a másik játékos válasza <b>megegyeznek</b>.</p>","null","","","","feedback trial","",""
"html-button-response","119","913993","0.0-12.0","11199","<p>A közös játék most véget ért.</p><p>Mielőtt eláruljuk a végső pontszámodat, arra kérlek, játszd a szóválasztós játékot néhány percig egyedül is.</p><p>A feladatod ugyanaz lesz, választani két lehetőség közül.</p><p>Most viszont egyedül kell döntened, hogy te melyiket választanád.</p>","0","","","","","",""
"html-button-response-clever","120","925113","0.0-13.0-0.0","10609","János imád flubokozni, ezért sokat fluboklik. Ti ritkán...","0","fluboklotok","[""fluboklotok"",""flubokoztok""]","","posttest trial","8",""
"html-button-response-clever","121","932896","0.0-13.0-0.1","7278","János imád klarágozni, ezért sokat klarágzik. Ti ritkán...","1","klarágoztok","[""klarágzotok"",""klarágoztok""]","","posttest trial","8",""
"html-button-response-clever","122","940611","0.0-13.0-0.2","7212","János imád hákodni, ezért sokat hákszik. Ők ritkán...","0","hákszanak","[""hákszanak"",""hákodnak""]","","posttest trial","8",""
"html-button-response-clever","123","947178","0.0-13.0-0.3","6063","János imád gibemezni, ezért sokat gibemlik. Mi ritkán...","0","gibemlünk","[""gibemlünk"",""gibemezünk""]","","posttest trial","8",""
"html-button-response-clever","124","954209","0.0-13.0-0.4","6527","János imád vobozni, ezért sokat vobzik. Ti ritkán...","0","voboztok","[""voboztok"",""vobzotok""]","","posttest trial","8",""
"html-button-response-clever","125","961511","0.0-13.0-0.5","6798","János imád bregezni, ezért sokat bregzik. Mi ritkán...","1","bregzünk","[""bregezünk"",""bregzünk""]","","posttest trial","8",""
"html-button-response-clever","126","971194","0.0-13.0-0.6","9180","János imád trírozni, ezért sokat trírzik. Mi ritkán...","0","trírzunk","[""trírzunk"",""trírozunk""]","","posttest trial","8",""
"html-button-response-clever","127","982262","0.0-13.0-0.7","10563","János imád sztritozni, ezért sokat sztritlik. Ők ritkán...","0","sztritlanak","[""sztritlanak"",""sztritoznak""]","","posttest trial","8",""
"html-button-response-clever","128","993194","0.0-13.0-0.8","10429","János imád dirányozni, ezért sokat diránylik. Ők ritkán...","0","diránylanak","[""diránylanak"",""dirányoznak""]","","posttest trial","8",""
"html-button-response-clever","129","1004328","0.0-13.0-0.9","10630","János imád sprigozni, ezért sokat sprigzik. Ti ritkán...","1","sprigoztok","[""sprigzotok"",""sprigoztok""]","","posttest trial","8",""
"html-button-response-clever","130","1013413","0.0-13.0-0.10","8581","János imád drivegezni, ezért sokat drivegzik. Ti ritkán...","0","drivegeztek","[""drivegeztek"",""drivegzetek""]","","posttest trial","8",""
"html-button-response-clever","131","1024145","0.0-13.0-0.11","10229","János imád frésezni, ezért sokat fréslik. Mi ritkán...","0","fréslünk","[""fréslünk"",""frésezünk""]","","posttest trial","8",""
"html-button-response-clever","132","1037795","0.0-13.0-0.12","13148","János imád frihegezni, ezért sokat friheglik. Mi ritkán...","0","friheglünk","[""friheglünk"",""frihegezünk""]","","posttest trial","8",""
"html-button-response-clever","133","1045646","0.0-13.0-0.13","7347","János imád drojozni, ezért sokat drojzik. Mi ritkán...","0","drojozunk","[""drojozunk"",""drojzunk""]","","posttest trial","8",""
"html-button-response-clever","134","1052913","0.0-13.0-0.14","6765","János imád fröjözni, ezért sokat fröjlik. Mi ritkán...","0","fröjözünk","[""fröjözünk"",""fröjlünk""]","","posttest trial","8",""
"html-button-response-clever","135","1066646","0.0-13.0-0.15","13230","János imád prazozni, ezért sokat prazlik. Mi ritkán...","0","prazlunk","[""prazlunk"",""prazozunk""]","","posttest trial","8",""
"html-button-response-clever","136","1080097","0.0-13.0-0.16","12947","János imád mihágozni, ezért sokat mihágzik. Ti ritkán...","1","mihágoztok","[""mihágzotok"",""mihágoztok""]","","posttest trial","8",""
"html-button-response-clever","137","1093613","0.0-13.0-0.17","13012","János imád galározni, ezért sokat galárzik. Ők ritkán...","0","galároznak","[""galároznak"",""galárzanak""]","","posttest trial","8",""
"html-button-response-clever","138","1103882","0.0-13.0-0.18","9766","János imád sponyozni, ezért sokat sponylik. Ők ritkán...","1","sponyoznak","[""sponylanak"",""sponyoznak""]","","posttest trial","8",""
"html-button-response-clever","139","1109633","0.0-13.0-0.19","5247","János imád prilepedni, ezért sokat prilepszik. Mi ritkán...","1","prilepszünk","[""prilepedünk"",""prilepszünk""]","","posttest trial","8",""
"html-button-response-clever","140","1117783","0.0-13.0-0.20","7644","János imád flézezni, ezért sokat flézlik. Ti ritkán...","1","flézeztek","[""flézletek"",""flézeztek""]","","posttest trial","8",""
"html-button-response-clever","141","1123482","0.0-13.0-0.21","5196","János imád küsözni, ezért sokat küslik. Mi ritkán...","1","küslünk","[""küsözünk"",""küslünk""]","","posttest trial","8",""
"html-button-response-clever","142","1168651","0.0-13.0-0.22","44667","János imád flivegezni, ezért sokat flivegzik. Ők ritkán...","1","flivegeznek","[""flivegzenek"",""flivegeznek""]","","posttest trial","8",""
"html-button-response-clever","143","1175584","0.0-13.0-0.23","6429","János imád livényezni, ezért sokat livénylik. Mi ritkán...","1","livényezünk","[""livénylünk"",""livényezünk""]","","posttest trial","8",""
"html-button-response-clever","144","1182869","0.0-13.0-0.24","6782","János imád filányozni, ezért sokat filánylik. Mi ritkán...","1","filánylunk","[""filányozunk"",""filánylunk""]","","posttest trial","8",""
"html-button-response-clever","145","1191785","0.0-13.0-0.25","8413","János imád pehégedni, ezért sokat pehégszik. Ti ritkán...","0","pehégedtek","[""pehégedtek"",""pehégszetek""]","","posttest trial","8",""
"html-button-response-clever","146","1199549","0.0-13.0-0.26","7261","János imád spibamozni, ezért sokat spibamlik. Ők ritkán...","1","spibamoznak","[""spibamlanak"",""spibamoznak""]","","posttest trial","8",""
"html-button-response-clever","147","1213316","0.0-13.0-0.27","13262","János imád spöközni, ezért sokat spöklik. Mi ritkán...","0","spöklünk","[""spöklünk"",""spöközünk""]","","posttest trial","8",""
"html-button-response-clever","148","1223386","0.0-13.0-0.28","9566","János imád mísozni, ezért sokat míslik. Mi ritkán...","0","míslunk","[""míslunk"",""mísozunk""]","","posttest trial","8",""
"html-button-response-clever","149","1229288","0.0-13.0-0.29","5399","János imád brilegezni, ezért sokat brilegzik. Mi ritkán...","0","brilegzünk","[""brilegzünk"",""brilegezünk""]","","posttest trial","8",""
"html-button-response-clever","150","1254519","0.0-13.0-0.30","24729","János imád míjozni, ezért sokat míjzik. Mi ritkán...","1","míjozunk","[""míjzunk"",""míjozunk""]","","posttest trial","8",""
"html-button-response-clever","151","1264522","0.0-13.0-0.31","9500","János imád tűgözni, ezért sokat tűgzik. Ti ritkán...","0","tűgzötök","[""tűgzötök"",""tűgöztök""]","","posttest trial","8",""
"html-button-response-clever","152","1271964","0.0-13.0-0.32","6937","János imád pörözni, ezért sokat pörzik. Ti ritkán...","0","pörzötök","[""pörzötök"",""pöröztök""]","","posttest trial","8",""
"html-button-response-clever","153","1282909","0.0-13.0-0.33","10437","János imád frivamozni, ezért sokat frivamlik. Mi ritkán...","1","frivamozunk","[""frivamlunk"",""frivamozunk""]","","posttest trial","8",""
"html-button-response-clever","154","1288420","0.0-13.0-0.34","5007","János imád tribejezni, ezért sokat tribejlik. Ti ritkán...","1","tribejeztek","[""tribejletek"",""tribejeztek""]","","posttest trial","8",""
"html-button-response-clever","155","1292436","0.0-13.0-0.35","3513","János imád sprimozni, ezért sokat sprimlik. Mi ritkán...","1","sprimlunk","[""sprimozunk"",""sprimlunk""]","","posttest trial","8",""
"html-button-response-clever","156","1297539","0.0-13.0-0.36","4599","János imád spalározni, ezért sokat spalárzik. Ők ritkán...","1","spalároznak","[""spalárzanak"",""spalároznak""]","","posttest trial","8",""
"html-button-response-clever","157","1304385","0.0-13.0-0.37","6343","János imád riványozni, ezért sokat riványlik. Ti ritkán...","0","riványlotok","[""riványlotok"",""riványoztok""]","","posttest trial","8",""
"html-button-response-clever","158","1312704","0.0-13.0-0.38","7815","János imád tágarozni, ezért sokat tágarzik. Mi ritkán...","0","tágarzunk","[""tágarzunk"",""tágarozunk""]","","posttest trial","8",""
"html-button-response-clever","159","1318424","0.0-13.0-0.39","5213","János imád gyivepedni, ezért sokat gyivepszik. Ők ritkán...","0","gyivepszenek","[""gyivepszenek"",""gyivepednek""]","","posttest trial","8",""
"html-button-response-clever","160","1325191","0.0-13.0-0.40","6263","János imád lírozni, ezért sokat lírlik. Ők ritkán...","1","líroznak","[""lírlanak"",""líroznak""]","","posttest trial","8",""
"html-button-response-clever","161","1333220","0.0-13.0-0.41","7525","János imád pekedni, ezért sokat pekszik. Mi ritkán...","0","pekszünk","[""pekszünk"",""pekedünk""]","","posttest trial","8",""
"html-button-response-clever","162","1339305","0.0-13.0-0.42","5581","János imád brüszözni, ezért sokat brüszlik. Ti ritkán...","0","brüszlötök","[""brüszlötök"",""brüszöztök""]","","posttest trial","8",""
"html-button-response-clever","163","1345772","0.0-13.0-0.43","5963","János imád brivepedni, ezért sokat brivepszik. Mi ritkán...","1","brivepszünk","[""brivepedünk"",""brivepszünk""]","","posttest trial","8",""
"html-button-response-clever","164","1349589","0.0-13.0-0.44","3314","János imád brározni, ezért sokat brárlik. Ők ritkán...","1","brárlanak","[""brároznak"",""brárlanak""]","","posttest trial","8",""
"html-button-response-clever","165","1359772","0.0-13.0-0.45","9679","János imád trűnyözni, ezért sokat trűnylik. Ők ritkán...","1","trűnylenek","[""trűnyöznek"",""trűnylenek""]","","posttest trial","8",""
"html-button-response-clever","166","1367339","0.0-13.0-0.46","7063","János imád tibarozni, ezért sokat tibarzik. Ők ritkán...","1","tibaroznak","[""tibarzanak"",""tibaroznak""]","","posttest trial","8",""
"html-button-response-clever","167","1375672","0.0-13.0-0.47","7830","János imád kluzozni, ezért sokat kluzlik. Ti ritkán...","1","kluzoztok","[""kluzlotok"",""kluzoztok""]","","posttest trial","8",""
"html-button-response-clever","168","1382104","0.0-13.0-0.48","5929","János imád lumozni, ezért sokat lumlik. Ti ritkán...","0","lumoztok","[""lumoztok"",""lumlotok""]","","posttest trial","8",""
"html-button-response-clever","169","1387523","0.0-13.0-0.49","4916","János imád sztrajozni, ezért sokat sztrajlik. Ők ritkán...","1","sztrajlanak","[""sztrajoznak"",""sztrajlanak""]","","posttest trial","8",""
"html-button-response-clever","170","1392307","0.0-13.0-0.50","4282","János imád brivágozni, ezért sokat briváglik. Ők ritkán...","1","brivágoznak","[""briváglanak"",""brivágoznak""]","","posttest trial","8",""
"html-button-response-clever","171","1397471","0.0-13.0-0.51","4660","János imád nágapodni, ezért sokat nágapszik. Ők ritkán...","1","nágapszanak","[""nágapodnak"",""nágapszanak""]","","posttest trial","8",""
"html-button-response-clever","172","1405138","0.0-13.0-0.52","7164","János imád gatágozni, ezért sokat gatáglik. Mi ritkán...","0","gatáglunk","[""gatáglunk"",""gatágozunk""]","","posttest trial","8",""
"html-button-response-clever","173","1411072","0.0-13.0-0.53","5431","János imád brálamozni, ezért sokat brálamlik. Ők ritkán...","0","brálamlanak","[""brálamlanak"",""brálamoznak""]","","posttest trial","8",""
"html-button-response","174","1418723","0.0-14.0","7121","<p> Vége a játéknak. A teljes pontszámod 29/54.</p><p> Szép munka! &#128526;&#128526;&#128526;</p><p>A Befejezés gomb megnyomása után bezárhatod a böngészőablakot.</p>","0","","","","","",""
"html-keyboard-response","175","1424277","0.0-15.0","null","<div class=""message"">
         <p>Egy kis türelmet kérünk, amíg elmentjük az adatokat...</p>
         </div>","null","","","","","",""
