"trial_type","trial_index","time_elapsed","internal_node_id","rt","stimulus","response","response_string","choices","esp_response","trial_kind","list_number","esp_match"
"pavlovia","0","749","0.0-0.0","","","","","","","","",""
"html-button-response","1","11635","0.0-1.0","10378","<p>Kedves Résztvevő! A Budapesti Műszaki és Gazdaságtudományi Egyetem Kognitív Tudományi Tanszékének kutatásában való részvételed kérjük. A kutatásban azt vizsgáljuk, hogy a magyar anyanyelvűek hogyan használnak bizonyos szóalakokat, és hogy milyen képük van arról, hogy mások hogyan használják, hogyan képzik a szavakat. Ez hozzásegít bennünket ahhoz, hogy jobban megértsük, hogyan dolgozza fel és tárolja a nyelvet az emberi agy, és hogyan működnek, hogyan változnak egy adott közösség nyelvi konvenciói.</p><p>A vizsgálat egy rövid számítógépes feladatból fog állni. A kutatásban való részvétel önkéntes, a részvételi szándék bármikor visszavonható. A résztvevők eredményeit név nélkül kezeljük, így nem beazonosíthatók az adatok feldolgozása során. Minden személyes adatot az EU általános adatvédelmi rendeletének (GDPR) megfelelően kezelünk és legfeljebb öt éven belül megsemmisítünk. A vizsgálat jellemzően húsz percet vesz igénybe.</p><p>Kutatásvezető:</p><p>Dr. Rácz Péter, tudományos munkatárs, BME KTT</p><p>e-mail: racz.peter.marton@ttk.bme.hu</p>","0","","","","","",""
"html-button-response","2","18210","0.0-2.0","6067","<p>A kísérletben szavakat fogsz látni. Ezek között lesznek olyanok, amelyeket ismersz, de előfordulhatnak olyanok is, amelyeket nem ismersz, sőt, vannak köztük kitalált szavak is. Minden szónál látni fogsz toldalékolt alakokat. A te feladatod az lesz, hogy minden szóhoz kiválaszd azt a toldalékolt alakot, amely a te számodra ismerősebben, természetesebben hangzik. Rossz válaszok nincsenek, mert van olyan, hogy különböző embereknek más és más szó tűnik jobb választásnak. A választ úgy tudod majd kiválasztani, ha rákattintasz.</p><p>Ebben a szóválasztós játékban egy másik játékossal együtt veszel majd részt. A másik játékos is minden esetben azok közül a lehetőségek közül válogathat, mint te. Kettőtök feladata az, hogy ugyanazt a lehetőséget válasszátok minden esetben. Ahhoz, hogy ez sikerüljön, neked figyelned kell arra, hogy a másik játékos milyen válaszokat ad, és ennek alapján meg kell tippelned, hogyan választ legközelebb. Ha eltalálod, akkor pontot kapsz.</p>","0","","","","","",""
"html-button-response","3","21171","0.0-3.0","2444","<p>Kérjük, olvasd el az alábbi nyilatkozatot, és amennyiben egyetértesz vele, nyomj a Beleegyezés gombra!</p><p>Kijelentem, hogy magyar anyanyelvű személyként önként veszek részt a BME KTT kísérletében. A kutatás céljával és folyamatával kapcsolatban elegendő tájékoztatást kaptam, lehetőségem volt kérdések feltételére, és esetleges kérdéseimre megfelelő válaszokat kaptam. A tájékoztatás alapján elegendő mennyiségű információ áll a rendelkezésemre, hogy eldönthessem, részt kívánok-e venni a kutatásban.</p><p>Tisztában vagyok vele, hogy részvételi szándékomat és adataimat bármikor, indoklás nélkül visszavonhatom.</p><p>Értem és tudomásul veszem, hogy a kutatás tudományos célokat szolgál, és az általam szolgáltatott adatokat a BME kizárólag kutatási célból használja fel. Tudomásul veszem, hogy eredményeimet a többi résztvevő eredményeivel együtt kezelik, így egyéni teljesítményemről visszajelzést, szakvéleményt nem kapok.</p><p>Megértettem, hogy adataim kezelését illetően a BME az EU általános adatvédelmi rendelete (GDPR), a hatályos adatvédelmi törvény és a nemzetközi kutatás-etikai alapelvek szerint jár el. Eredményeim anonim módon kerülnek feldolgozásra, és a kutatás résztvevői az azonosításomra alkalmas adataimat harmadik félnek nem szolgáltatják ki. Engedélyezem a BME számára a jelen kutatásban felvett adataim feldolgozását és tárolását, beleértve azok későbbi kutatásokhoz való felhasználását is. Személyes adataim kezelésével kapcsolatban tájékoztatást kérhetek a kutatás résztvevőitől, az adatkezelés ellen tiltakozhatok, kérhetem személyes adataim helyesbítését, törlését vagy zárolását, valamint jogorvoslatért a Nemzeti Adatvédelmi és Információszabadság Hatósághoz fordulhatok.</p><p>Kijelentem, hogy a kutatásban való részvételem körülményeiről részletes tájékoztatást kaptam, és a feltételeket elfogadom.</p>","0","","","","","",""
"survey-text","4","52334","0.0-4.0","30650","","{""Q0"":""HIYCTT"",""Q1"":""nő"",""Q2"":""1998"",""Q3"":""14""}","","","","","",""
"html-button-response","5","56733","0.0-5.0","3881","<p>Ebben a játékban szavakat kell toldalékolni.</p> <p>Minden körben mutatunk majd egy példamondatot, amiben lesz egy szó.</p> <p>Alatta jön egy második mondat, ezt a mondatot neked kell majd befejezni, ugyanezzel a szóval.</p> <p>Nem biztos, hogy a szó eleve ismerős lesz számodra!</p> <p>Minden mondathoz adunk két lehetőséget, ezeket balra és jobbra látod majd.</p> <p>A játék kb. negyedóráig-húsz percig tart.</p>","0","","","","","",""
"html-button-response","6","66327","0.0-6.0","9087","<p>Nézzünk egy példát!</p> <p>A példamondat: ""Ez itt egy blumbnyeg.""</p><p>Neked ezt a mondatot kell befejezned: ""Ott vagyunk a...""</p><p>A lehetőségek pedig ezek:</p>","0","","","","","",""
"html-button-response","7","69163","0.0-7.0","2325","<p>Nagyon jó.</p><p>Ezt a játékot nem egyedül fogod játszani, hanem egy másik játékossal.</p><p>Mielőtt továbblépünk, összekapcsolunk titeket egymással.</p><p>Ez igénybe vehet néhány másodpercet, amihez szíves türelmed kérjük.</p>","0","","","","","",""
"html-button-response","8","74888","0.0-8.0","null","<p>Csatlakozás a másik játékoshoz...</p>","null","","","","","",""
"html-button-response","9","77399","0.0-9.0","null","<p> Sikeres kapcsolódás!</p>","null","","","","","",""
"html-button-response","10","81454","0.0-10.0","3543","<p>A következőkben ketten játsszátok a szóválasztós játékot.</p><p>A feladatotok az lesz, hogy minden körben <b>ugyanazt</b> a szót válasszátok.</p><p>Minden ilyen egyező válaszért pontot kaptok.</p><p>Próbáld meg kitalálni, mit választ a másik játékos!</p><p>Bármikor választhatsz, a körnek akkor van vége, ha mindketten döntöttetek.</p><p>Sok sikert!</p>","0","","","","","",""
"html-button-response-esp","11","87535","0.0-11.0-0.0","5569","Ez itt egy danét. Nincs is jobb egy jó...","1","danétnál","[""danétnél"",""danétnál""]","danétnál","esp trial","3","true"
"html-button-response","12","91046","0.0-11.0-1.0","null","<p>A másik játékos ezt választotta: <b>danétnál</b>.</p><p>&#x2705;</p><p>A te válaszod és a másik játékos válasza <b>megegyeznek</b>.</p>","null","","","","feedback trial","",""
"html-button-response-esp","13","96312","0.0-11.0-0.1","4754","Ez itt egy braszenc. Nincs is jobb egy jó...","0","braszencnél","[""braszencnél"",""braszencnál""]","braszencnél","esp trial","3","true"
"html-button-response","14","99835","0.0-11.0-1.1","null","<p>A másik játékos ezt választotta: <b>braszencnél</b>.</p><p>&#x2705;</p><p>A te válaszod és a másik játékos válasza <b>megegyeznek</b>.</p>","null","","","","feedback trial","",""
"html-button-response-esp","15","104077","0.0-11.0-0.2","3739","Ez itt egy incéj. Elneveztem a kutyámat...","0","incéjnek","[""incéjnek"",""incéjnak""]","incéjnek","esp trial","3","true"
"html-button-response","16","107588","0.0-11.0-1.2","null","<p>A másik játékos ezt választotta: <b>incéjnek</b>.</p><p>&#x2705;</p><p>A te válaszod és a másik játékos válasza <b>megegyeznek</b>.</p>","null","","","","feedback trial","",""
"html-button-response-esp","17","111337","0.0-11.0-0.3","2970","Ez itt egy narem. Ott vagyunk a...","0","naremben","[""naremben"",""naremban""]","naremben","esp trial","3","true"
"html-button-response","18","114853","0.0-11.0-1.3","null","<p>A másik játékos ezt választotta: <b>naremben</b>.</p><p>&#x2705;</p><p>A te válaszod és a másik játékos válasza <b>megegyeznek</b>.</p>","null","","","","feedback trial","",""
"html-button-response-esp","19","118815","0.0-11.0-0.4","3448","Ez itt egy gúden. Ott vagyunk a...","0","gúdenben","[""gúdenben"",""gúdenban""]","gúdenben","esp trial","3","true"
"html-button-response","20","122329","0.0-11.0-1.4","null","<p>A másik játékos ezt választotta: <b>gúdenben</b>.</p><p>&#x2705;</p><p>A te válaszod és a másik játékos válasza <b>megegyeznek</b>.</p>","null","","","","feedback trial","",""
"html-button-response-esp","21","126173","0.0-11.0-0.5","3331","Ez itt egy priszec. Ott vagyunk a...","1","priszecben","[""priszecban"",""priszecben""]","priszecben","esp trial","3","true"
"html-button-response","22","129686","0.0-11.0-1.5","null","<p>A másik játékos ezt választotta: <b>priszecben</b>.</p><p>&#x2705;</p><p>A te válaszod és a másik játékos válasza <b>megegyeznek</b>.</p>","null","","","","feedback trial","",""
"html-button-response-esp","23","133444","0.0-11.0-0.6","2936","Ez itt egy nyítem. Ott vagyunk a...","1","nyítemben","[""nyítemban"",""nyítemben""]","nyítemben","esp trial","3","true"
"html-button-response","24","136960","0.0-11.0-1.6","null","<p>A másik játékos ezt választotta: <b>nyítemben</b>.</p><p>&#x2705;</p><p>A te válaszod és a másik játékos válasza <b>megegyeznek</b>.</p>","null","","","","feedback trial","",""
"html-button-response-esp","25","140907","0.0-11.0-0.7","3436","Ez itt egy zsádév. Elneveztem a kutyámat...","1","zsádévnak","[""zsádévnek"",""zsádévnak""]","zsádévnak","esp trial","3","true"
"html-button-response","26","144413","0.0-11.0-1.7","null","<p>A másik játékos ezt választotta: <b>zsádévnak</b>.</p><p>&#x2705;</p><p>A te válaszod és a másik játékos válasza <b>megegyeznek</b>.</p>","null","","","","feedback trial","",""
"html-button-response-esp","27","149501","0.0-11.0-0.8","4586","Ez itt egy bralkép. Ott vagyunk a...","0","bralképben","[""bralképben"",""bralképban""]","bralképben","esp trial","3","true"
"html-button-response","28","153024","0.0-11.0-1.8","null","<p>A másik játékos ezt választotta: <b>bralképben</b>.</p><p>&#x2705;</p><p>A te válaszod és a másik játékos válasza <b>megegyeznek</b>.</p>","null","","","","feedback trial","",""
"html-button-response-esp","29","158842","0.0-11.0-0.9","5305","Ez itt egy trismél. Elneveztem a kutyámat...","0","trismélnek","[""trismélnek"",""trismélnak""]","trismélnek","esp trial","3","true"
"html-button-response","30","162355","0.0-11.0-1.9","null","<p>A másik játékos ezt választotta: <b>trismélnek</b>.</p><p>&#x2705;</p><p>A te válaszod és a másik játékos válasza <b>megegyeznek</b>.</p>","null","","","","feedback trial","",""
"html-button-response-esp","31","166128","0.0-11.0-0.10","3259","Ez itt egy tosély. Ott vagyunk a...","1","tosélyban","[""tosélyben"",""tosélyban""]","tosélyban","esp trial","3","true"
"html-button-response","32","169649","0.0-11.0-1.10","null","<p>A másik játékos ezt választotta: <b>tosélyban</b>.</p><p>&#x2705;</p><p>A te válaszod és a másik játékos válasza <b>megegyeznek</b>.</p>","null","","","","feedback trial","",""
"html-button-response-esp","33","174536","0.0-11.0-0.11","4376","Ez itt egy darhén. Ott vagyunk a...","1","darhénben","[""darhénban"",""darhénben""]","darhénban","esp trial","3","false"
"html-button-response","34","178050","0.0-11.0-1.11","null","<p>A másik játékos ezt választotta: <b>darhénban</b>.</p><p>&#10060;</p><p>A válaszaitok <b>nem</b> egyeznek meg.</p>","null","","","","feedback trial","",""
"html-button-response-esp","35","182183","0.0-11.0-0.12","3617","Ez itt egy zihenc. Elneveztem a kutyámat...","0","zihencnek","[""zihencnek"",""zihencnak""]","zihencnek","esp trial","3","true"
"html-button-response","36","185691","0.0-11.0-1.12","null","<p>A másik játékos ezt választotta: <b>zihencnek</b>.</p><p>&#x2705;</p><p>A te válaszod és a másik játékos válasza <b>megegyeznek</b>.</p>","null","","","","feedback trial","",""
"html-button-response-esp","37","189463","0.0-11.0-0.13","3261","Ez itt egy dihely. Elneveztem a kutyámat...","0","dihelynek","[""dihelynek"",""dihelynak""]","dihelynek","esp trial","3","true"
"html-button-response","38","192969","0.0-11.0-1.13","null","<p>A másik játékos ezt választotta: <b>dihelynek</b>.</p><p>&#x2705;</p><p>A te válaszod és a másik játékos válasza <b>megegyeznek</b>.</p>","null","","","","feedback trial","",""
"html-button-response-esp","39","197456","0.0-11.0-0.14","3972","Ez itt egy pijél. Nincs is jobb egy jó...","1","pijélnél","[""pijélnál"",""pijélnél""]","pijélnél","esp trial","3","true"
"html-button-response","40","200972","0.0-11.0-1.14","null","<p>A másik játékos ezt választotta: <b>pijélnél</b>.</p><p>&#x2705;</p><p>A te válaszod és a másik játékos válasza <b>megegyeznek</b>.</p>","null","","","","feedback trial","",""
"html-button-response-esp","41","205277","0.0-11.0-0.15","3793","Ez itt egy pítend. Ott vagyunk a...","0","pítendben","[""pítendben"",""pítendban""]","pítendben","esp trial","3","true"
"html-button-response","42","208806","0.0-11.0-1.15","null","<p>A másik játékos ezt választotta: <b>pítendben</b>.</p><p>&#x2705;</p><p>A te válaszod és a másik játékos válasza <b>megegyeznek</b>.</p>","null","","","","feedback trial","",""
"html-button-response-esp","43","216678","0.0-11.0-0.16","7367","Ez itt egy luméz. Ott vagyunk a...","0","lumézben","[""lumézben"",""lumézban""]","lumézban","esp trial","3","false"
"html-button-response","44","220199","0.0-11.0-1.16","null","<p>A másik játékos ezt választotta: <b>lumézban</b>.</p><p>&#10060;</p><p>A válaszaitok <b>nem</b> egyeznek meg.</p>","null","","","","feedback trial","",""
"html-button-response-esp","45","224423","0.0-11.0-0.17","3721","Ez itt egy klingesz. Ott vagyunk a...","1","klingeszben","[""klingeszban"",""klingeszben""]","klingeszben","esp trial","3","true"
"html-button-response","46","227939","0.0-11.0-1.17","null","<p>A másik játékos ezt választotta: <b>klingeszben</b>.</p><p>&#x2705;</p><p>A te válaszod és a másik játékos válasza <b>megegyeznek</b>.</p>","null","","","","feedback trial","",""
"html-button-response-esp","47","232693","0.0-11.0-0.18","4243","Ez itt egy vorszen. Nincs is jobb egy jó...","0","vorszennél","[""vorszennél"",""vorszennál""]","vorszennél","esp trial","3","true"
"html-button-response","48","236223","0.0-11.0-1.18","null","<p>A másik játékos ezt választotta: <b>vorszennél</b>.</p><p>&#x2705;</p><p>A te válaszod és a másik játékos válasza <b>megegyeznek</b>.</p>","null","","","","feedback trial","",""
"html-button-response-esp","49","240383","0.0-11.0-0.19","3658","Ez itt egy fájéz. Ott vagyunk a...","0","fájézban","[""fájézban"",""fájézben""]","fájézban","esp trial","3","true"
"html-button-response","50","243906","0.0-11.0-1.19","null","<p>A másik játékos ezt választotta: <b>fájézban</b>.</p><p>&#x2705;</p><p>A te válaszod és a másik játékos válasza <b>megegyeznek</b>.</p>","null","","","","feedback trial","",""
"html-button-response-esp","51","247665","0.0-11.0-0.20","3246","Ez itt egy zsigén. Nincs is jobb egy jó...","1","zsigénnél","[""zsigénnál"",""zsigénnél""]","zsigénnél","esp trial","3","true"
"html-button-response","52","251184","0.0-11.0-1.20","null","<p>A másik játékos ezt választotta: <b>zsigénnél</b>.</p><p>&#x2705;</p><p>A te válaszod és a másik játékos válasza <b>megegyeznek</b>.</p>","null","","","","feedback trial","",""
"html-button-response-esp","53","259002","0.0-11.0-0.21","7307","Ez itt egy jóbec. Elneveztem a kutyámat...","0","jóbecnek","[""jóbecnek"",""jóbecnak""]","jóbecnek","esp trial","3","true"
"html-button-response","54","262514","0.0-11.0-1.21","null","<p>A másik játékos ezt választotta: <b>jóbecnek</b>.</p><p>&#x2705;</p><p>A te válaszod és a másik játékos válasza <b>megegyeznek</b>.</p>","null","","","","feedback trial","",""
"html-button-response-esp","55","266707","0.0-11.0-0.22","3679","Ez itt egy ítens. Ott vagyunk a...","1","ítensben","[""ítensban"",""ítensben""]","ítensben","esp trial","3","true"
"html-button-response","56","270224","0.0-11.0-1.22","null","<p>A másik játékos ezt választotta: <b>ítensben</b>.</p><p>&#x2705;</p><p>A te válaszod és a másik játékos válasza <b>megegyeznek</b>.</p>","null","","","","feedback trial","",""
"html-button-response-esp","57","279730","0.0-11.0-0.23","9002","Ez itt egy dalenc. Nincs is jobb egy jó...","1","dalencnél","[""dalencnál"",""dalencnél""]","dalencnél","esp trial","3","true"
"html-button-response","58","283258","0.0-11.0-1.23","null","<p>A másik játékos ezt választotta: <b>dalencnél</b>.</p><p>&#x2705;</p><p>A te válaszod és a másik játékos válasza <b>megegyeznek</b>.</p>","null","","","","feedback trial","",""
"html-button-response-esp","59","293127","0.0-11.0-0.24","9357","Ez itt egy zopély. Nincs is jobb egy jó...","0","zopélynél","[""zopélynél"",""zopélynál""]","zopélynál","esp trial","3","false"
"html-button-response","60","296644","0.0-11.0-1.24","null","<p>A másik játékos ezt választotta: <b>zopélynál</b>.</p><p>&#10060;</p><p>A válaszaitok <b>nem</b> egyeznek meg.</p>","null","","","","feedback trial","",""
"html-button-response-esp","61","305143","0.0-11.0-0.25","7988","Ez itt egy zsúdel. Elneveztem a kutyámat...","1","zsúdelnek","[""zsúdelnak"",""zsúdelnek""]","zsúdelnek","esp trial","3","true"
"html-button-response","62","308655","0.0-11.0-1.25","null","<p>A másik játékos ezt választotta: <b>zsúdelnek</b>.</p><p>&#x2705;</p><p>A te válaszod és a másik játékos válasza <b>megegyeznek</b>.</p>","null","","","","feedback trial","",""
"html-button-response-esp","63","314752","0.0-11.0-0.26","5584","Ez itt egy dábegy. Ott vagyunk a...","1","dábegyben","[""dábegyban"",""dábegyben""]","dábegyben","esp trial","3","true"
"html-button-response","64","318260","0.0-11.0-1.26","null","<p>A másik játékos ezt választotta: <b>dábegyben</b>.</p><p>&#x2705;</p><p>A te válaszod és a másik játékos válasza <b>megegyeznek</b>.</p>","null","","","","feedback trial","",""
"html-button-response-esp","65","323105","0.0-11.0-0.27","4343","Ez itt egy monveg. Nincs is jobb egy jó...","1","monvegnél","[""monvegnál"",""monvegnél""]","monvegnél","esp trial","3","true"
"html-button-response","66","326625","0.0-11.0-1.27","null","<p>A másik játékos ezt választotta: <b>monvegnél</b>.</p><p>&#x2705;</p><p>A te válaszod és a másik játékos válasza <b>megegyeznek</b>.</p>","null","","","","feedback trial","",""
"html-button-response-esp","67","332963","0.0-11.0-0.28","5835","Ez itt egy kaszép. Elneveztem a kutyámat...","0","kaszépnek","[""kaszépnek"",""kaszépnak""]","kaszépnek","esp trial","3","true"
"html-button-response","68","336481","0.0-11.0-1.28","null","<p>A másik játékos ezt választotta: <b>kaszépnek</b>.</p><p>&#x2705;</p><p>A te válaszod és a másik játékos válasza <b>megegyeznek</b>.</p>","null","","","","feedback trial","",""
"html-button-response-esp","69","344481","0.0-11.0-0.29","7487","Ez itt egy kalréz. Ott vagyunk a...","0","kalrézben","[""kalrézben"",""kalrézban""]","kalrézban","esp trial","3","false"
"html-button-response","70","347989","0.0-11.0-1.29","null","<p>A másik játékos ezt választotta: <b>kalrézban</b>.</p><p>&#10060;</p><p>A válaszaitok <b>nem</b> egyeznek meg.</p>","null","","","","feedback trial","",""
"html-button-response-esp","71","354811","0.0-11.0-0.30","6319","Ez itt egy sprivenc. Nincs is jobb egy jó...","0","sprivencnél","[""sprivencnél"",""sprivencnál""]","sprivencnél","esp trial","3","true"
"html-button-response","72","358317","0.0-11.0-1.30","null","<p>A másik játékos ezt választotta: <b>sprivencnél</b>.</p><p>&#x2705;</p><p>A te válaszod és a másik játékos válasza <b>megegyeznek</b>.</p>","null","","","","feedback trial","",""
"html-button-response-esp","73","366548","0.0-11.0-0.31","7729","Ez itt egy jukél. Nincs is jobb egy jó...","0","jukélnél","[""jukélnél"",""jukélnál""]","jukélnél","esp trial","3","true"
"html-button-response","74","370059","0.0-11.0-1.31","null","<p>A másik játékos ezt választotta: <b>jukélnél</b>.</p><p>&#x2705;</p><p>A te válaszod és a másik játékos válasza <b>megegyeznek</b>.</p>","null","","","","feedback trial","",""
"html-button-response-esp","75","377186","0.0-11.0-0.32","6624","Ez itt egy lorzens. Nincs is jobb egy jó...","1","lorzensnál","[""lorzensnél"",""lorzensnál""]","lorzensnél","esp trial","3","false"
"html-button-response","76","380695","0.0-11.0-1.32","null","<p>A másik játékos ezt választotta: <b>lorzensnél</b>.</p><p>&#10060;</p><p>A válaszaitok <b>nem</b> egyeznek meg.</p>","null","","","","feedback trial","",""
"html-button-response-esp","77","386826","0.0-11.0-0.33","5619","Ez itt egy sortem. Nincs is jobb egy jó...","1","sortemnél","[""sortemnál"",""sortemnél""]","sortemnél","esp trial","3","true"
"html-button-response","78","390355","0.0-11.0-1.33","null","<p>A másik játékos ezt választotta: <b>sortemnél</b>.</p><p>&#x2705;</p><p>A te válaszod és a másik játékos válasza <b>megegyeznek</b>.</p>","null","","","","feedback trial","",""
"html-button-response-esp","79","394564","0.0-11.0-0.34","3699","Ez itt egy brindez. Elneveztem a kutyámat...","0","brindeznek","[""brindeznek"",""brindeznak""]","brindeznek","esp trial","3","true"
"html-button-response","80","398075","0.0-11.0-1.34","null","<p>A másik játékos ezt választotta: <b>brindeznek</b>.</p><p>&#x2705;</p><p>A te válaszod és a másik játékos válasza <b>megegyeznek</b>.</p>","null","","","","feedback trial","",""
"html-button-response-esp","81","405123","0.0-11.0-0.35","6542","Ez itt egy nyupér. Nincs is jobb egy jó...","0","nyupérnél","[""nyupérnél"",""nyupérnál""]","nyupérnál","esp trial","3","false"
"html-button-response","82","408639","0.0-11.0-1.35","null","<p>A másik játékos ezt választotta: <b>nyupérnál</b>.</p><p>&#10060;</p><p>A válaszaitok <b>nem</b> egyeznek meg.</p>","null","","","","feedback trial","",""
"html-button-response-esp","83","414656","0.0-11.0-0.36","5514","Ez itt egy bupéz. Ott vagyunk a...","0","bupézban","[""bupézban"",""bupézben""]","bupézban","esp trial","3","true"
"html-button-response","84","418180","0.0-11.0-1.36","null","<p>A másik játékos ezt választotta: <b>bupézban</b>.</p><p>&#x2705;</p><p>A te válaszod és a másik játékos válasza <b>megegyeznek</b>.</p>","null","","","","feedback trial","",""
"html-button-response-esp","85","422542","0.0-11.0-0.37","3849","Ez itt egy nyamet. Ott vagyunk a...","1","nyametben","[""nyametban"",""nyametben""]","nyametben","esp trial","3","true"
"html-button-response","86","426054","0.0-11.0-1.37","null","<p>A másik játékos ezt választotta: <b>nyametben</b>.</p><p>&#x2705;</p><p>A te válaszod és a másik játékos válasza <b>megegyeznek</b>.</p>","null","","","","feedback trial","",""
"html-button-response-esp","87","432439","0.0-11.0-0.38","5883","Ez itt egy garcép. Nincs is jobb egy jó...","1","garcépnál","[""garcépnél"",""garcépnál""]","garcépnál","esp trial","3","true"
"html-button-response","88","435947","0.0-11.0-1.38","null","<p>A másik játékos ezt választotta: <b>garcépnál</b>.</p><p>&#x2705;</p><p>A te válaszod és a másik játékos válasza <b>megegyeznek</b>.</p>","null","","","","feedback trial","",""
"html-button-response-esp","89","440204","0.0-11.0-0.39","3754","Ez itt egy ronszek. Ott vagyunk a...","0","ronszekben","[""ronszekben"",""ronszekban""]","ronszekben","esp trial","3","true"
"html-button-response","90","443717","0.0-11.0-1.39","null","<p>A másik játékos ezt választotta: <b>ronszekben</b>.</p><p>&#x2705;</p><p>A te válaszod és a másik játékos válasza <b>megegyeznek</b>.</p>","null","","","","feedback trial","",""
"html-button-response-esp","91","447538","0.0-11.0-0.40","3308","Ez itt egy pisély. Ott vagyunk a...","0","pisélyben","[""pisélyben"",""pisélyban""]","pisélyben","esp trial","3","true"
"html-button-response","92","451048","0.0-11.0-1.40","null","<p>A másik játékos ezt választotta: <b>pisélyben</b>.</p><p>&#x2705;</p><p>A te válaszod és a másik játékos válasza <b>megegyeznek</b>.</p>","null","","","","feedback trial","",""
"html-button-response-esp","93","458652","0.0-11.0-0.41","7101","Ez itt egy trájeg. Ott vagyunk a...","1","trájegben","[""trájegban"",""trájegben""]","trájegben","esp trial","3","true"
"html-button-response","94","462161","0.0-11.0-1.41","null","<p>A másik játékos ezt választotta: <b>trájegben</b>.</p><p>&#x2705;</p><p>A te válaszod és a másik játékos válasza <b>megegyeznek</b>.</p>","null","","","","feedback trial","",""
"html-button-response-esp","95","467132","0.0-11.0-0.42","4464","Ez itt egy kalhész. Elneveztem a kutyámat...","1","kalhésznak","[""kalhésznek"",""kalhésznak""]","kalhésznek","esp trial","3","false"
"html-button-response","96","470651","0.0-11.0-1.42","null","<p>A másik játékos ezt választotta: <b>kalhésznek</b>.</p><p>&#10060;</p><p>A válaszaitok <b>nem</b> egyeznek meg.</p>","null","","","","feedback trial","",""
"html-button-response-esp","97","476306","0.0-11.0-0.43","5141","Ez itt egy spumény. Elneveztem a kutyámat...","1","spuménynek","[""spuménynak"",""spuménynek""]","spuménynek","esp trial","3","true"
"html-button-response","98","479816","0.0-11.0-1.43","null","<p>A másik játékos ezt választotta: <b>spuménynek</b>.</p><p>&#x2705;</p><p>A te válaszod és a másik játékos válasza <b>megegyeznek</b>.</p>","null","","","","feedback trial","",""
"html-button-response-esp","99","484059","0.0-11.0-0.44","3725","Ez itt egy dorzéj. Elneveztem a kutyámat...","1","dorzéjnek","[""dorzéjnak"",""dorzéjnek""]","dorzéjnek","esp trial","3","true"
"html-button-response","100","487572","0.0-11.0-1.44","null","<p>A másik játékos ezt választotta: <b>dorzéjnek</b>.</p><p>&#x2705;</p><p>A te válaszod és a másik játékos válasza <b>megegyeznek</b>.</p>","null","","","","feedback trial","",""
"html-button-response-esp","101","493925","0.0-11.0-0.45","5847","Ez itt egy pivéd. Ott vagyunk a...","1","pivédben","[""pivédban"",""pivédben""]","pivédben","esp trial","3","true"
"html-button-response","102","497439","0.0-11.0-1.45","null","<p>A másik játékos ezt választotta: <b>pivédben</b>.</p><p>&#x2705;</p><p>A te válaszod és a másik játékos válasza <b>megegyeznek</b>.</p>","null","","","","feedback trial","",""
"html-button-response-esp","103","501518","0.0-11.0-0.46","3576","Ez itt egy kátel. Elneveztem a kutyámat...","1","kátelnek","[""kátelnak"",""kátelnek""]","kátelnek","esp trial","3","true"
"html-button-response","104","505037","0.0-11.0-1.46","null","<p>A másik játékos ezt választotta: <b>kátelnek</b>.</p><p>&#x2705;</p><p>A te válaszod és a másik játékos válasza <b>megegyeznek</b>.</p>","null","","","","feedback trial","",""
"html-button-response-esp","105","511420","0.0-11.0-0.47","5879","Ez itt egy spábét. Ott vagyunk a...","0","spábétben","[""spábétben"",""spábétban""]","spábétban","esp trial","3","false"
"html-button-response","106","514936","0.0-11.0-1.47","null","<p>A másik játékos ezt választotta: <b>spábétban</b>.</p><p>&#10060;</p><p>A válaszaitok <b>nem</b> egyeznek meg.</p>","null","","","","feedback trial","",""
"html-button-response-esp","107","519860","0.0-11.0-0.48","4422","Ez itt egy spicet. Elneveztem a kutyámat...","0","spicetnek","[""spicetnek"",""spicetnak""]","spicetnek","esp trial","3","true"
"html-button-response","108","523367","0.0-11.0-1.48","null","<p>A másik játékos ezt választotta: <b>spicetnek</b>.</p><p>&#x2705;</p><p>A te válaszod és a másik játékos válasza <b>megegyeznek</b>.</p>","null","","","","feedback trial","",""
"html-button-response-esp","109","530383","0.0-11.0-0.49","6513","Ez itt egy hágyét. Elneveztem a kutyámat...","1","hágyétnek","[""hágyétnak"",""hágyétnek""]","hágyétnak","esp trial","3","false"
"html-button-response","110","533892","0.0-11.0-1.49","null","<p>A másik játékos ezt választotta: <b>hágyétnak</b>.</p><p>&#10060;</p><p>A válaszaitok <b>nem</b> egyeznek meg.</p>","null","","","","feedback trial","",""
"html-button-response-esp","111","537667","0.0-11.0-0.50","3274","Ez itt egy zsáder. Ott vagyunk a...","0","zsáderben","[""zsáderben"",""zsáderban""]","zsáderben","esp trial","3","true"
"html-button-response","112","541178","0.0-11.0-1.50","null","<p>A másik játékos ezt választotta: <b>zsáderben</b>.</p><p>&#x2705;</p><p>A te válaszod és a másik játékos válasza <b>megegyeznek</b>.</p>","null","","","","feedback trial","",""
"html-button-response-esp","113","545249","0.0-11.0-0.51","3557","Ez itt egy klosét. Elneveztem a kutyámat...","0","klosétnek","[""klosétnek"",""klosétnak""]","klosétnak","esp trial","3","false"
"html-button-response","114","548758","0.0-11.0-1.51","null","<p>A másik játékos ezt választotta: <b>klosétnak</b>.</p><p>&#10060;</p><p>A válaszaitok <b>nem</b> egyeznek meg.</p>","null","","","","feedback trial","",""
"html-button-response-esp","115","553207","0.0-11.0-0.52","3943","Ez itt egy rapszek. Nincs is jobb egy jó...","1","rapszeknél","[""rapszeknál"",""rapszeknél""]","rapszeknél","esp trial","3","true"
"html-button-response","116","556712","0.0-11.0-1.52","null","<p>A másik játékos ezt választotta: <b>rapszeknél</b>.</p><p>&#x2705;</p><p>A te válaszod és a másik játékos válasza <b>megegyeznek</b>.</p>","null","","","","feedback trial","",""
"html-button-response-esp","117","562792","0.0-11.0-0.53","5565","Ez itt egy spanél. Nincs is jobb egy jó...","0","spanélnél","[""spanélnél"",""spanélnál""]","spanélnál","esp trial","3","false"
"html-button-response","118","566314","0.0-11.0-1.53","null","<p>A másik játékos ezt választotta: <b>spanélnál</b>.</p><p>&#10060;</p><p>A válaszaitok <b>nem</b> egyeznek meg.</p>","null","","","","feedback trial","",""
"html-button-response","119","575750","0.0-12.0","8925","<p>A közös játék most véget ért.</p><p>Mielőtt eláruljuk a végső pontszámodat, arra kérlek, játszd a szóválasztós játékot néhány percig egyedül is.</p><p>A feladatod ugyanaz lesz, választani két lehetőség közül.</p><p>Most viszont egyedül kell döntened, hogy te melyiket választanád.</p>","0","","","","","",""
"html-button-response-clever","120","579839","0.0-13.0-0.0","3580","Ez itt egy zuten. Nincs is jobb egy jó...","1","zutennél","[""zutennál"",""zutennél""]","","posttest trial","4",""
"html-button-response-clever","121","586368","0.0-13.0-0.1","6024","Ez itt egy tarhéz. Ott vagyunk a...","1","tarhézban","[""tarhézben"",""tarhézban""]","","posttest trial","4",""
"html-button-response-clever","122","590409","0.0-13.0-0.2","3532","Ez itt egy klazér. Ott vagyunk a...","0","klazérben","[""klazérben"",""klazérban""]","","posttest trial","4",""
"html-button-response-clever","123","593173","0.0-13.0-0.3","2250","Ez itt egy fizend. Ott vagyunk a...","0","fizendben","[""fizendben"",""fizendban""]","","posttest trial","4",""
"html-button-response-clever","124","596654","0.0-13.0-0.4","2971","Ez itt egy dibez. Ott vagyunk a...","0","dibezben","[""dibezben"",""dibezban""]","","posttest trial","4",""
"html-button-response-clever","125","599690","0.0-13.0-0.5","2524","Ez itt egy briskéd. Nincs is jobb egy jó...","0","briskédnél","[""briskédnél"",""briskédnál""]","","posttest trial","4",""
"html-button-response-clever","126","604123","0.0-13.0-0.6","3919","Ez itt egy lijez. Elneveztem a kutyámat...","0","lijeznek","[""lijeznek"",""lijeznak""]","","posttest trial","4",""
"html-button-response-clever","127","608120","0.0-13.0-0.7","3491","Ez itt egy bingéj. Elneveztem a kutyámat...","1","bingéjnek","[""bingéjnak"",""bingéjnek""]","","posttest trial","4",""
"html-button-response-clever","128","613077","0.0-13.0-0.8","4450","Ez itt egy tumély. Nincs is jobb egy jó...","0","tumélynál","[""tumélynál"",""tumélynél""]","","posttest trial","4",""
"html-button-response-clever","129","616650","0.0-13.0-0.9","3067","Ez itt egy jutély. Nincs is jobb egy jó...","1","jutélynál","[""jutélynél"",""jutélynál""]","","posttest trial","4",""
"html-button-response-clever","130","623924","0.0-13.0-0.10","6761","Ez itt egy klajrén. Elneveztem a kutyámat...","0","klajrénnak","[""klajrénnak"",""klajrénnek""]","","posttest trial","4",""
"html-button-response-clever","131","628984","0.0-13.0-0.11","4556","Ez itt egy zarcég. Nincs is jobb egy jó...","0","zarcégnál","[""zarcégnál"",""zarcégnél""]","","posttest trial","4",""
"html-button-response-clever","132","635338","0.0-13.0-0.12","5847","Ez itt egy zsalrén. Elneveztem a kutyámat...","1","zsalrénnek","[""zsalrénnak"",""zsalrénnek""]","","posttest trial","4",""
"html-button-response-clever","133","638422","0.0-13.0-0.13","2579","Ez itt egy spivél. Elneveztem a kutyámat...","1","spivélnek","[""spivélnak"",""spivélnek""]","","posttest trial","4",""
"html-button-response-clever","134","642450","0.0-13.0-0.14","3525","Ez itt egy dóbem. Elneveztem a kutyámat...","1","dóbemnek","[""dóbemnak"",""dóbemnek""]","","posttest trial","4",""
"html-button-response-clever","135","646382","0.0-13.0-0.15","3422","Ez itt egy murdes. Nincs is jobb egy jó...","1","murdesnél","[""murdesnál"",""murdesnél""]","","posttest trial","4",""
"html-button-response-clever","136","650063","0.0-13.0-0.16","3168","Ez itt egy csublény. Ott vagyunk a...","1","csublényben","[""csublényban"",""csublényben""]","","posttest trial","4",""
"html-button-response-clever","137","669530","0.0-13.0-0.17","18952","Ez itt egy dajrens. Nincs is jobb egy jó...","0","dajrensnél","[""dajrensnél"",""dajrensnál""]","","posttest trial","4",""
"html-button-response-clever","138","672678","0.0-13.0-0.18","2642","Ez itt egy vodec. Nincs is jobb egy jó...","0","vodecnál","[""vodecnál"",""vodecnél""]","","posttest trial","4",""
"html-button-response-clever","139","676927","0.0-13.0-0.19","3742","Ez itt egy cságyelt. Ott vagyunk a...","0","cságyeltben","[""cságyeltben"",""cságyeltban""]","","posttest trial","4",""
"html-button-response-clever","140","682576","0.0-13.0-0.20","5144","Ez itt egy pazév. Nincs is jobb egy jó...","1","pazévnál","[""pazévnél"",""pazévnál""]","","posttest trial","4",""
"html-button-response-clever","141","685921","0.0-13.0-0.21","2828","Ez itt egy nuhét. Nincs is jobb egy jó...","0","nuhétnál","[""nuhétnál"",""nuhétnél""]","","posttest trial","4",""
"html-button-response-clever","142","689225","0.0-13.0-0.22","2800","Ez itt egy mádép. Nincs is jobb egy jó...","0","mádépnél","[""mádépnél"",""mádépnál""]","","posttest trial","4",""
"html-button-response-clever","143","692137","0.0-13.0-0.23","2395","Ez itt egy dunkész. Ott vagyunk a...","0","dunkészben","[""dunkészben"",""dunkészban""]","","posttest trial","4",""
"html-button-response-clever","144","695810","0.0-13.0-0.24","3165","Ez itt egy fojlegy. Elneveztem a kutyámat...","1","fojlegynek","[""fojlegynak"",""fojlegynek""]","","posttest trial","4",""
"html-button-response-clever","145","701836","0.0-13.0-0.25","5518","Ez itt egy surnegy. Nincs is jobb egy jó...","0","surnegynél","[""surnegynél"",""surnegynál""]","","posttest trial","4",""
"html-button-response-clever","146","706232","0.0-13.0-0.26","3888","Ez itt egy gábéd. Nincs is jobb egy jó...","0","gábédnél","[""gábédnél"",""gábédnál""]","","posttest trial","4",""
"html-button-response-clever","147","710321","0.0-13.0-0.27","3574","Ez itt egy humék. Elneveztem a kutyámat...","1","huméknek","[""huméknak"",""huméknek""]","","posttest trial","4",""
"html-button-response-clever","148","717234","0.0-13.0-0.28","6395","Ez itt egy vurnel. Elneveztem a kutyámat...","1","vurnelnek","[""vurnelnak"",""vurnelnek""]","","posttest trial","4",""
"html-button-response-clever","149","721474","0.0-13.0-0.29","3731","Ez itt egy dinelt. Ott vagyunk a...","0","dineltben","[""dineltben"",""dineltban""]","","posttest trial","4",""
"html-button-response-clever","150","724451","0.0-13.0-0.30","2458","Ez itt egy trikép. Ott vagyunk a...","1","triképben","[""triképban"",""triképben""]","","posttest trial","4",""
"html-button-response-clever","151","729764","0.0-13.0-0.31","4794","Ez itt egy zined. Elneveztem a kutyámat...","0","zinednek","[""zinednek"",""zinednak""]","","posttest trial","4",""
"html-button-response-clever","152","733105","0.0-13.0-0.32","2837","Ez itt egy spizec. Elneveztem a kutyámat...","0","spizecnek","[""spizecnek"",""spizecnak""]","","posttest trial","4",""
"html-button-response-clever","153","736827","0.0-13.0-0.33","3213","Ez itt egy zábény. Elneveztem a kutyámat...","0","zábénynek","[""zábénynek"",""zábénynak""]","","posttest trial","4",""
"html-button-response-clever","154","740875","0.0-13.0-0.34","3544","Ez itt egy hijegy. Nincs is jobb egy jó...","0","hijegynál","[""hijegynál"",""hijegynél""]","","posttest trial","4",""
"html-button-response-clever","155","746299","0.0-13.0-0.35","4908","Ez itt egy dutec. Nincs is jobb egy jó...","1","dutecnál","[""dutecnél"",""dutecnál""]","","posttest trial","4",""
"html-button-response-clever","156","754180","0.0-13.0-0.36","7364","Ez itt egy zatéj. Nincs is jobb egy jó...","0","zatéjnél","[""zatéjnél"",""zatéjnál""]","","posttest trial","4",""
"html-button-response-clever","157","758857","0.0-13.0-0.37","4168","Ez itt egy klítegy. Nincs is jobb egy jó...","0","klítegynél","[""klítegynél"",""klítegynál""]","","posttest trial","4",""
"html-button-response-clever","158","762115","0.0-13.0-0.38","2746","Ez itt egy szanéj. Elneveztem a kutyámat...","0","szanéjnek","[""szanéjnek"",""szanéjnak""]","","posttest trial","4",""
"html-button-response-clever","159","764346","0.0-13.0-0.39","1721","Ez itt egy szibed. Ott vagyunk a...","0","szibedben","[""szibedben"",""szibedban""]","","posttest trial","4",""
"html-button-response-clever","160","767155","0.0-13.0-0.40","2300","Ez itt egy tivenc. Ott vagyunk a...","0","tivencben","[""tivencben"",""tivencban""]","","posttest trial","4",""
"html-button-response-clever","161","769879","0.0-13.0-0.41","2206","Ez itt egy lingék. Nincs is jobb egy jó...","0","lingéknél","[""lingéknél"",""lingéknál""]","","posttest trial","4",""
"html-button-response-clever","162","772907","0.0-13.0-0.42","2521","Ez itt egy vismer. Nincs is jobb egy jó...","1","vismernél","[""vismernál"",""vismernél""]","","posttest trial","4",""
"html-button-response-clever","163","777316","0.0-13.0-0.43","3897","Ez itt egy hosét. Elneveztem a kutyámat...","0","hosétnek","[""hosétnek"",""hosétnak""]","","posttest trial","4",""
"html-button-response-clever","164","780516","0.0-13.0-0.44","2696","Ez itt egy csodeg. Nincs is jobb egy jó...","1","csodegnál","[""csodegnél"",""csodegnál""]","","posttest trial","4",""
"html-button-response-clever","165","787321","0.0-13.0-0.45","6289","Ez itt egy pristél. Ott vagyunk a...","1","pristélben","[""pristélban"",""pristélben""]","","posttest trial","4",""
"html-button-response-clever","166","792643","0.0-13.0-0.46","4813","Ez itt egy kátéd. Nincs is jobb egy jó...","0","kátédnál","[""kátédnál"",""kátédnél""]","","posttest trial","4",""
"html-button-response-clever","167","795819","0.0-13.0-0.47","2660","Ez itt egy lihény. Elneveztem a kutyámat...","0","lihénynek","[""lihénynek"",""lihénynak""]","","posttest trial","4",""
"html-button-response-clever","168","800144","0.0-13.0-0.48","3806","Ez itt egy fágyép. Nincs is jobb egy jó...","0","fágyépnél","[""fágyépnél"",""fágyépnál""]","","posttest trial","4",""
"html-button-response-clever","169","804981","0.0-13.0-0.49","4318","Ez itt egy trodély. Ott vagyunk a...","1","trodélyban","[""trodélyben"",""trodélyban""]","","posttest trial","4",""
"html-button-response-clever","170","807461","0.0-13.0-0.50","1974","Ez itt egy fupét. Nincs is jobb egy jó...","0","fupétnál","[""fupétnál"",""fupétnél""]","","posttest trial","4",""
"html-button-response-clever","171","813978","0.0-13.0-0.51","6000","Ez itt egy spatel. Elneveztem a kutyámat...","0","spatelnak","[""spatelnak"",""spatelnek""]","","posttest trial","4",""
"html-button-response-clever","172","820164","0.0-13.0-0.52","5678","Ez itt egy sihen. Nincs is jobb egy jó...","0","sihennél","[""sihennél"",""sihennál""]","","posttest trial","4",""
"html-button-response-clever","173","823736","0.0-13.0-0.53","3060","Ez itt egy jurdent. Nincs is jobb egy jó...","0","jurdentnél","[""jurdentnél"",""jurdentnál""]","","posttest trial","4",""
"html-button-response","174","829713","0.0-14.0","5461","<p> Vége a játéknak. A teljes pontszámod 43/54.</p><p> Szép munka! &#128526;&#128526;&#128526;</p><p>A Befejezés gomb megnyomása után bezárhatod a böngészőablakot.</p>","0","","","","","",""
"html-keyboard-response","175","835230","0.0-15.0","null","<div class=""message"">
         <p>Egy kis türelmet kérünk, amíg elmentjük az adatokat...</p>
         </div>","null","","","","","",""
