"trial_type","trial_index","time_elapsed","internal_node_id","rt","stimulus","response","response_string","choices","esp_response","trial_kind","list_number","esp_match"
"pavlovia","0","889","0.0-0.0","","","","","","","","",""
"html-button-response","1","7804","0.0-1.0","6405","<p>Kedves Résztvevő! A Budapesti Műszaki és Gazdaságtudományi Egyetem Kognitív Tudományi Tanszékének kutatásában való részvételed kérjük. A kutatásban azt vizsgáljuk, hogy a magyar anyanyelvűek hogyan használnak bizonyos szóalakokat, és hogy milyen képük van arról, hogy mások hogyan használják, hogyan képzik a szavakat. Ez hozzásegít bennünket ahhoz, hogy jobban megértsük, hogyan dolgozza fel és tárolja a nyelvet az emberi agy, és hogyan működnek, hogyan változnak egy adott közösség nyelvi konvenciói.</p><p>A vizsgálat egy rövid számítógépes feladatból fog állni. A kutatásban való részvétel önkéntes, a részvételi szándék bármikor visszavonható. A résztvevők eredményeit név nélkül kezeljük, így nem beazonosíthatók az adatok feldolgozása során. Minden személyes adatot az EU általános adatvédelmi rendeletének (GDPR) megfelelően kezelünk és legfeljebb öt éven belül megsemmisítünk. A vizsgálat jellemzően húsz percet vesz igénybe.</p><p>Kutatásvezető:</p><p>Dr. Rácz Péter, tudományos munkatárs, BME KTT</p><p>e-mail: racz.peter.marton@ttk.bme.hu</p>","0","","","","","",""
"html-button-response","2","9715","0.0-2.0","1407","<p>A kísérletben szavakat fogsz látni. Ezek között lesznek olyanok, amelyeket ismersz, de előfordulhatnak olyanok is, amelyeket nem ismersz, sőt, vannak köztük kitalált szavak is. Minden szónál látni fogsz toldalékolt alakokat. A te feladatod az lesz, hogy minden szóhoz kiválaszd azt a toldalékolt alakot, amely a te számodra ismerősebben, természetesebben hangzik. Rossz válaszok nincsenek, mert van olyan, hogy különböző embereknek más és más szó tűnik jobb választásnak. A választ úgy tudod majd kiválasztani, ha rákattintasz.</p><p>Ebben a szóválasztós játékban egy másik játékossal együtt veszel majd részt. A másik játékos is minden esetben azok közül a lehetőségek közül válogathat, mint te. Kettőtök feladata az, hogy ugyanazt a lehetőséget válasszátok minden esetben. Ahhoz, hogy ez sikerüljön, neked figyelned kell arra, hogy a másik játékos milyen válaszokat ad, és ennek alapján meg kell tippelned, hogyan választ legközelebb. Ha eltalálod, akkor pontot kapsz.</p>","0","","","","","",""
"html-button-response","3","11952","0.0-3.0","1733","<p>Kérjük, olvasd el az alábbi nyilatkozatot, és amennyiben egyetértesz vele, nyomj a Beleegyezés gombra!</p><p>Kijelentem, hogy magyar anyanyelvű személyként önként veszek részt a BME KTT kísérletében. A kutatás céljával és folyamatával kapcsolatban elegendő tájékoztatást kaptam, lehetőségem volt kérdések feltételére, és esetleges kérdéseimre megfelelő válaszokat kaptam. A tájékoztatás alapján elegendő mennyiségű információ áll a rendelkezésemre, hogy eldönthessem, részt kívánok-e venni a kutatásban.</p><p>Tisztában vagyok vele, hogy részvételi szándékomat és adataimat bármikor, indoklás nélkül visszavonhatom.</p><p>Értem és tudomásul veszem, hogy a kutatás tudományos célokat szolgál, és az általam szolgáltatott adatokat a BME kizárólag kutatási célból használja fel. Tudomásul veszem, hogy eredményeimet a többi résztvevő eredményeivel együtt kezelik, így egyéni teljesítményemről visszajelzést, szakvéleményt nem kapok.</p><p>Megértettem, hogy adataim kezelését illetően a BME az EU általános adatvédelmi rendelete (GDPR), a hatályos adatvédelmi törvény és a nemzetközi kutatás-etikai alapelvek szerint jár el. Eredményeim anonim módon kerülnek feldolgozásra, és a kutatás résztvevői az azonosításomra alkalmas adataimat harmadik félnek nem szolgáltatják ki. Engedélyezem a BME számára a jelen kutatásban felvett adataim feldolgozását és tárolását, beleértve azok későbbi kutatásokhoz való felhasználását is. Személyes adataim kezelésével kapcsolatban tájékoztatást kérhetek a kutatás résztvevőitől, az adatkezelés ellen tiltakozhatok, kérhetem személyes adataim helyesbítését, törlését vagy zárolását, valamint jogorvoslatért a Nemzeti Adatvédelmi és Információszabadság Hatósághoz fordulhatok.</p><p>Kijelentem, hogy a kutatásban való részvételem körülményeiről részletes tájékoztatást kaptam, és a feltételeket elfogadom.</p>","0","","","","","",""
"survey-text","4","35033","0.0-4.0","22566","","{""Q0"":""GAJAXI"",""Q1"":""férfi"",""Q2"":""1999"",""Q3"":""17""}","","","","","",""
"html-button-response","5","40535","0.0-5.0","4999","<p>Ebben a játékban szavakat kell toldalékolni.</p> <p>Minden körben mutatunk majd egy példamondatot, amiben lesz egy szó.</p> <p>Alatta jön egy második mondat, ezt a mondatot neked kell majd befejezni, ugyanezzel a szóval.</p> <p>Nem biztos, hogy a szó eleve ismerős lesz számodra!</p> <p>Minden mondathoz adunk két lehetőséget, ezeket balra és jobbra látod majd.</p> <p>A játék kb. negyedóráig-húsz percig tart.</p>","0","","","","","",""
"html-button-response","6","98198","0.0-6.0","57160","<p>Nézzünk egy példát!</p> <p>A példamondat: ""János imád fláramolni, ezért sokat fláramlik. Mi ritkán...""</p><p>Neked ezt a mondatot kell befejezned: ""Ti ritkán...""</p><p>A lehetőségek pedig ezek:</p>","0","","","","","",""
"html-button-response","7","119895","0.0-7.0","21194","<p>Nagyon jó.</p><p>Ezt a játékot nem egyedül fogod játszani, hanem egy másik játékossal.</p><p>Mielőtt továbblépünk, összekapcsolunk titeket egymással.</p><p>Ez igénybe vehet néhány másodpercet, amihez szíves türelmed kérjük.</p>","0","","","","","",""
"html-button-response","8","125623","0.0-8.0","null","<p>Csatlakozás a másik játékoshoz...</p>","null","","","","","",""
"html-button-response","9","128127","0.0-9.0","null","<p> Sikeres kapcsolódás!</p>","null","","","","","",""
"html-button-response","10","134183","0.0-10.0","5554","<p>A következőkben ketten játsszátok a szóválasztós játékot.</p><p>A feladatotok az lesz, hogy minden körben <b>ugyanazt</b> a szót válasszátok.</p><p>Minden ilyen egyező válaszért pontot kaptok.</p><p>Próbáld meg kitalálni, mit választ a másik játékos!</p><p>Bármikor választhatsz, a körnek akkor van vége, ha mindketten döntöttetek.</p><p>Sok sikert!</p>","0","","","","","",""
"html-button-response-esp","11","144618","0.0-11.0-0.0","9929","János imád vobozni, ezért sokat vobzik. Ti ritkán...","1","voboztok","[""vobzotok"",""voboztok""]","vobzotok","esp trial","8","false"
"html-button-response","12","148124","0.0-11.0-1.0","null","<p>A másik játékos ezt választotta: <b>vobzotok</b>.</p><p>&#10060;</p><p>A válaszaitok <b>nem</b> egyeznek meg.</p>","null","","","","feedback trial","",""
"html-button-response-esp","13","158190","0.0-11.0-0.1","9562","János imád fröjözni, ezért sokat fröjlik. Mi ritkán...","1","fröjözünk","[""fröjlünk"",""fröjözünk""]","fröjlünk","esp trial","8","false"
"html-button-response","14","161695","0.0-11.0-1.1","null","<p>A másik játékos ezt választotta: <b>fröjlünk</b>.</p><p>&#10060;</p><p>A válaszaitok <b>nem</b> egyeznek meg.</p>","null","","","","feedback trial","",""
"html-button-response-esp","15","168986","0.0-11.0-0.2","6787","János imád nágapodni, ezért sokat nágapszik. Ők ritkán...","0","nágapszanak","[""nágapszanak"",""nágapodnak""]","nágapszanak","esp trial","8","true"
"html-button-response","16","172490","0.0-11.0-1.2","null","<p>A másik játékos ezt választotta: <b>nágapszanak</b>.</p><p>&#x2705;</p><p>A te válaszod és a másik játékos válasza <b>megegyeznek</b>.</p>","null","","","","feedback trial","",""
"html-button-response-esp","17","178684","0.0-11.0-0.3","5691","János imád gibemezni, ezért sokat gibemlik. Mi ritkán...","1","gibemezünk","[""gibemlünk"",""gibemezünk""]","gibemezünk","esp trial","8","true"
"html-button-response","18","182189","0.0-11.0-1.3","null","<p>A másik játékos ezt választotta: <b>gibemezünk</b>.</p><p>&#x2705;</p><p>A te válaszod és a másik játékos válasza <b>megegyeznek</b>.</p>","null","","","","feedback trial","",""
"html-button-response-esp","19","194909","0.0-11.0-0.4","12218","János imád dirányozni, ezért sokat diránylik. Ők ritkán...","1","dirányoznak","[""diránylanak"",""dirányoznak""]","diránylanak","esp trial","8","false"
"html-button-response","20","198414","0.0-11.0-1.4","null","<p>A másik játékos ezt választotta: <b>diránylanak</b>.</p><p>&#10060;</p><p>A válaszaitok <b>nem</b> egyeznek meg.</p>","null","","","","feedback trial","",""
"html-button-response-esp","21","203671","0.0-11.0-0.5","4754","János imád sponyozni, ezért sokat sponylik. Ők ritkán...","1","sponyoznak","[""sponylanak"",""sponyoznak""]","sponyoznak","esp trial","8","true"
"html-button-response","22","207176","0.0-11.0-1.5","null","<p>A másik játékos ezt választotta: <b>sponyoznak</b>.</p><p>&#x2705;</p><p>A te válaszod és a másik játékos válasza <b>megegyeznek</b>.</p>","null","","","","feedback trial","",""
"html-button-response-esp","23","212001","0.0-11.0-0.6","4322","János imád sprimozni, ezért sokat sprimlik. Mi ritkán...","1","sprimozunk","[""sprimlunk"",""sprimozunk""]","sprimlunk","esp trial","8","false"
"html-button-response","24","215506","0.0-11.0-1.6","null","<p>A másik játékos ezt választotta: <b>sprimlunk</b>.</p><p>&#10060;</p><p>A válaszaitok <b>nem</b> egyeznek meg.</p>","null","","","","feedback trial","",""
"html-button-response-esp","25","223702","0.0-11.0-0.7","7693","János imád galározni, ezért sokat galárzik. Ők ritkán...","1","galároznak","[""galárzanak"",""galároznak""]","galárzanak","esp trial","8","false"
"html-button-response","26","227206","0.0-11.0-1.7","null","<p>A másik játékos ezt választotta: <b>galárzanak</b>.</p><p>&#10060;</p><p>A válaszaitok <b>nem</b> egyeznek meg.</p>","null","","","","feedback trial","",""
"html-button-response-esp","27","233652","0.0-11.0-0.8","5943","János imád brározni, ezért sokat brárlik. Ők ritkán...","0","brároznak","[""brároznak"",""brárlanak""]","brárlanak","esp trial","8","false"
"html-button-response","28","237155","0.0-11.0-1.8","null","<p>A másik játékos ezt választotta: <b>brárlanak</b>.</p><p>&#10060;</p><p>A válaszaitok <b>nem</b> egyeznek meg.</p>","null","","","","feedback trial","",""
"html-button-response-esp","29","245123","0.0-11.0-0.9","7465","János imád flézezni, ezért sokat flézlik. Ti ritkán...","0","flézletek","[""flézletek"",""flézeztek""]","flézletek","esp trial","8","true"
"html-button-response","30","248627","0.0-11.0-1.9","null","<p>A másik játékos ezt választotta: <b>flézletek</b>.</p><p>&#x2705;</p><p>A te válaszod és a másik játékos válasza <b>megegyeznek</b>.</p>","null","","","","feedback trial","",""
"html-button-response-esp","31","256507","0.0-11.0-0.10","7377","János imád tibarozni, ezért sokat tibarzik. Ők ritkán...","0","tibarzanak","[""tibarzanak"",""tibaroznak""]","tibarzanak","esp trial","8","true"
"html-button-response","32","260011","0.0-11.0-1.10","null","<p>A másik játékos ezt választotta: <b>tibarzanak</b>.</p><p>&#x2705;</p><p>A te válaszod és a másik játékos válasza <b>megegyeznek</b>.</p>","null","","","","feedback trial","",""
"html-button-response-esp","33","264758","0.0-11.0-0.11","4243","János imád sztritozni, ezért sokat sztritlik. Ők ritkán...","1","sztritlanak","[""sztritoznak"",""sztritlanak""]","sztritlanak","esp trial","8","true"
"html-button-response","34","268262","0.0-11.0-1.11","null","<p>A másik játékos ezt választotta: <b>sztritlanak</b>.</p><p>&#x2705;</p><p>A te válaszod és a másik játékos válasza <b>megegyeznek</b>.</p>","null","","","","feedback trial","",""
"html-button-response-esp","35","272876","0.0-11.0-0.12","3488","János imád tűgözni, ezért sokat tűgzik. Ti ritkán...","1","tűgzötök","[""tűgöztök"",""tűgzötök""]","tűgzötök","esp trial","8","true"
"html-button-response","36","276380","0.0-11.0-1.12","null","<p>A másik játékos ezt választotta: <b>tűgzötök</b>.</p><p>&#x2705;</p><p>A te válaszod és a másik játékos válasza <b>megegyeznek</b>.</p>","null","","","","feedback trial","",""
"html-button-response-esp","37","281932","0.0-11.0-0.13","5048","János imád trírozni, ezért sokat trírzik. Mi ritkán...","1","trírzunk","[""trírozunk"",""trírzunk""]","trírzunk","esp trial","8","true"
"html-button-response","38","285436","0.0-11.0-1.13","null","<p>A másik játékos ezt választotta: <b>trírzunk</b>.</p><p>&#x2705;</p><p>A te válaszod és a másik játékos válasza <b>megegyeznek</b>.</p>","null","","","","feedback trial","",""
"html-button-response-esp","39","290052","0.0-11.0-0.14","4023","János imád brálamozni, ezért sokat brálamlik. Ők ritkán...","1","brálamlanak","[""brálamoznak"",""brálamlanak""]","brálamoznak","esp trial","8","false"
"html-button-response","40","293557","0.0-11.0-1.14","null","<p>A másik játékos ezt választotta: <b>brálamoznak</b>.</p><p>&#10060;</p><p>A válaszaitok <b>nem</b> egyeznek meg.</p>","null","","","","feedback trial","",""
"html-button-response-esp","41","299466","0.0-11.0-0.15","5404","János imád gyivepedni, ezért sokat gyivepszik. Ők ritkán...","1","gyivepszenek","[""gyivepednek"",""gyivepszenek""]","gyivepszenek","esp trial","8","true"
"html-button-response","42","302971","0.0-11.0-1.15","null","<p>A másik játékos ezt választotta: <b>gyivepszenek</b>.</p><p>&#x2705;</p><p>A te válaszod és a másik játékos válasza <b>megegyeznek</b>.</p>","null","","","","feedback trial","",""
"html-button-response-esp","43","310422","0.0-11.0-0.16","6946","János imád spibamozni, ezért sokat spibamlik. Ők ritkán...","1","spibamlanak","[""spibamoznak"",""spibamlanak""]","spibamoznak","esp trial","8","false"
"html-button-response","44","313926","0.0-11.0-1.16","null","<p>A másik játékos ezt választotta: <b>spibamoznak</b>.</p><p>&#10060;</p><p>A válaszaitok <b>nem</b> egyeznek meg.</p>","null","","","","feedback trial","",""
"html-button-response-esp","45","320638","0.0-11.0-0.17","6208","János imád prilepedni, ezért sokat prilepszik. Mi ritkán...","1","prilepedünk","[""prilepszünk"",""prilepedünk""]","prilepedünk","esp trial","8","true"
"html-button-response","46","324142","0.0-11.0-1.17","null","<p>A másik játékos ezt választotta: <b>prilepedünk</b>.</p><p>&#x2705;</p><p>A te válaszod és a másik játékos válasza <b>megegyeznek</b>.</p>","null","","","","feedback trial","",""
"html-button-response-esp","47","338028","0.0-11.0-0.18","13383","János imád spalározni, ezért sokat spalárzik. Ők ritkán...","1","spalároznak","[""spalárzanak"",""spalároznak""]","spalárzanak","esp trial","8","false"
"html-button-response","48","341532","0.0-11.0-1.18","null","<p>A másik játékos ezt választotta: <b>spalárzanak</b>.</p><p>&#10060;</p><p>A válaszaitok <b>nem</b> egyeznek meg.</p>","null","","","","feedback trial","",""
"html-button-response-esp","49","346147","0.0-11.0-0.19","3523","János imád küsözni, ezért sokat küslik. Mi ritkán...","1","küsözünk","[""küslünk"",""küsözünk""]","küsözünk","esp trial","8","true"
"html-button-response","50","349651","0.0-11.0-1.19","null","<p>A másik játékos ezt választotta: <b>küsözünk</b>.</p><p>&#x2705;</p><p>A te válaszod és a másik játékos válasza <b>megegyeznek</b>.</p>","null","","","","feedback trial","",""
"html-button-response-esp","51","354265","0.0-11.0-0.20","3251","János imád brilegezni, ezért sokat brilegzik. Mi ritkán...","1","brilegezünk","[""brilegzünk"",""brilegezünk""]","brilegzünk","esp trial","8","false"
"html-button-response","52","357769","0.0-11.0-1.20","null","<p>A másik játékos ezt választotta: <b>brilegzünk</b>.</p><p>&#10060;</p><p>A válaszaitok <b>nem</b> egyeznek meg.</p>","null","","","","feedback trial","",""
"html-button-response-esp","53","362738","0.0-11.0-0.21","4466","János imád spöközni, ezért sokat spöklik. Mi ritkán...","1","spöklünk","[""spöközünk"",""spöklünk""]","spöközünk","esp trial","8","false"
"html-button-response","54","366242","0.0-11.0-1.21","null","<p>A másik játékos ezt választotta: <b>spöközünk</b>.</p><p>&#10060;</p><p>A válaszaitok <b>nem</b> egyeznek meg.</p>","null","","","","feedback trial","",""
"html-button-response-esp","55","378900","0.0-11.0-0.22","12155","János imád hákodni, ezért sokat hákszik. Ők ritkán...","1","hákodnak","[""hákszanak"",""hákodnak""]","hákszanak","esp trial","8","false"
"html-button-response","56","382404","0.0-11.0-1.22","null","<p>A másik játékos ezt választotta: <b>hákszanak</b>.</p><p>&#10060;</p><p>A válaszaitok <b>nem</b> egyeznek meg.</p>","null","","","","feedback trial","",""
"html-button-response-esp","57","388350","0.0-11.0-0.23","5443","János imád brivágozni, ezért sokat briváglik. Ők ritkán...","0","briváglanak","[""briváglanak"",""brivágoznak""]","briváglanak","esp trial","8","true"
"html-button-response","58","391855","0.0-11.0-1.23","null","<p>A másik játékos ezt választotta: <b>briváglanak</b>.</p><p>&#x2705;</p><p>A te válaszod és a másik játékos válasza <b>megegyeznek</b>.</p>","null","","","","feedback trial","",""
"html-button-response-esp","59","396469","0.0-11.0-0.24","3507","János imád brüszözni, ezért sokat brüszlik. Ti ritkán...","1","brüszlötök","[""brüszöztök"",""brüszlötök""]","brüszlötök","esp trial","8","true"
"html-button-response","60","399973","0.0-11.0-1.24","null","<p>A másik játékos ezt választotta: <b>brüszlötök</b>.</p><p>&#x2705;</p><p>A te válaszod és a másik játékos válasza <b>megegyeznek</b>.</p>","null","","","","feedback trial","",""
"html-button-response-esp","61","404587","0.0-11.0-0.25","3854","János imád brivepedni, ezért sokat brivepszik. Mi ritkán...","1","brivepszünk","[""brivepedünk"",""brivepszünk""]","brivepedünk","esp trial","8","false"
"html-button-response","62","408091","0.0-11.0-1.25","null","<p>A másik játékos ezt választotta: <b>brivepedünk</b>.</p><p>&#10060;</p><p>A válaszaitok <b>nem</b> egyeznek meg.</p>","null","","","","feedback trial","",""
"html-button-response-esp","63","413662","0.0-11.0-0.26","5069","János imád kluzozni, ezért sokat kluzlik. Ti ritkán...","0","kluzoztok","[""kluzoztok"",""kluzlotok""]","kluzlotok","esp trial","8","false"
"html-button-response","64","417166","0.0-11.0-1.26","null","<p>A másik játékos ezt választotta: <b>kluzlotok</b>.</p><p>&#10060;</p><p>A válaszaitok <b>nem</b> egyeznek meg.</p>","null","","","","feedback trial","",""
"html-button-response-esp","65","422877","0.0-11.0-0.27","5209","János imád lumozni, ezért sokat lumlik. Ti ritkán...","1","lumoztok","[""lumlotok"",""lumoztok""]","lumlotok","esp trial","8","false"
"html-button-response","66","426381","0.0-11.0-1.27","null","<p>A másik játékos ezt választotta: <b>lumlotok</b>.</p><p>&#10060;</p><p>A válaszaitok <b>nem</b> egyeznek meg.</p>","null","","","","feedback trial","",""
"html-button-response-esp","67","431639","0.0-11.0-0.28","4755","János imád flivegezni, ezért sokat flivegzik. Ők ritkán...","0","flivegzenek","[""flivegzenek"",""flivegeznek""]","flivegzenek","esp trial","8","true"
"html-button-response","68","435143","0.0-11.0-1.28","null","<p>A másik játékos ezt választotta: <b>flivegzenek</b>.</p><p>&#x2705;</p><p>A te válaszod és a másik játékos válasza <b>megegyeznek</b>.</p>","null","","","","feedback trial","",""
"html-button-response-esp","69","439757","0.0-11.0-0.29","3089","János imád livényezni, ezért sokat livénylik. Mi ritkán...","1","livényezünk","[""livénylünk"",""livényezünk""]","livényezünk","esp trial","8","true"
"html-button-response","70","443261","0.0-11.0-1.29","null","<p>A másik játékos ezt választotta: <b>livényezünk</b>.</p><p>&#x2705;</p><p>A te válaszod és a másik játékos válasza <b>megegyeznek</b>.</p>","null","","","","feedback trial","",""
"html-button-response-esp","71","447875","0.0-11.0-0.30","2900","János imád míjozni, ezért sokat míjzik. Mi ritkán...","0","míjozunk","[""míjozunk"",""míjzunk""]","míjzunk","esp trial","8","false"
"html-button-response","72","451378","0.0-11.0-1.30","null","<p>A másik játékos ezt választotta: <b>míjzunk</b>.</p><p>&#10060;</p><p>A válaszaitok <b>nem</b> egyeznek meg.</p>","null","","","","feedback trial","",""
"html-button-response-esp","73","455992","0.0-11.0-0.31","3748","János imád klarágozni, ezért sokat klarágzik. Ti ritkán...","0","klarágoztok","[""klarágoztok"",""klarágzotok""]","klarágzotok","esp trial","8","false"
"html-button-response","74","459496","0.0-11.0-1.31","null","<p>A másik játékos ezt választotta: <b>klarágzotok</b>.</p><p>&#10060;</p><p>A válaszaitok <b>nem</b> egyeznek meg.</p>","null","","","","feedback trial","",""
"html-button-response-esp","75","464110","0.0-11.0-0.32","3830","János imád filányozni, ezért sokat filánylik. Mi ritkán...","1","filányozunk","[""filánylunk"",""filányozunk""]","filánylunk","esp trial","8","false"
"html-button-response","76","467615","0.0-11.0-1.32","null","<p>A másik játékos ezt választotta: <b>filánylunk</b>.</p><p>&#10060;</p><p>A válaszaitok <b>nem</b> egyeznek meg.</p>","null","","","","feedback trial","",""
"html-button-response-esp","77","472229","0.0-11.0-0.33","2588","János imád pehégedni, ezért sokat pehégszik. Ti ritkán...","0","pehégszetek","[""pehégszetek"",""pehégedtek""]","pehégedtek","esp trial","8","false"
"html-button-response","78","475733","0.0-11.0-1.33","null","<p>A másik játékos ezt választotta: <b>pehégedtek</b>.</p><p>&#10060;</p><p>A válaszaitok <b>nem</b> egyeznek meg.</p>","null","","","","feedback trial","",""
"html-button-response-esp","79","481589","0.0-11.0-0.34","5354","János imád drivegezni, ezért sokat drivegzik. Ti ritkán...","1","drivegeztek","[""drivegzetek"",""drivegeztek""]","drivegzetek","esp trial","8","false"
"html-button-response","80","485093","0.0-11.0-1.34","null","<p>A másik játékos ezt választotta: <b>drivegzetek</b>.</p><p>&#10060;</p><p>A válaszaitok <b>nem</b> egyeznek meg.</p>","null","","","","feedback trial","",""
"html-button-response-esp","81","489707","0.0-11.0-0.35","1220","János imád pörözni, ezért sokat pörzik. Ti ritkán...","1","pörzötök","[""pöröztök"",""pörzötök""]","pörzötök","esp trial","8","true"
"html-button-response","82","493211","0.0-11.0-1.35","null","<p>A másik játékos ezt választotta: <b>pörzötök</b>.</p><p>&#x2705;</p><p>A te válaszod és a másik játékos válasza <b>megegyeznek</b>.</p>","null","","","","feedback trial","",""
"html-button-response-esp","83","497825","0.0-11.0-0.36","1033","János imád trűnyözni, ezért sokat trűnylik. Ők ritkán...","1","trűnyöznek","[""trűnylenek"",""trűnyöznek""]","trűnylenek","esp trial","8","false"
"html-button-response","84","501329","0.0-11.0-1.36","null","<p>A másik játékos ezt választotta: <b>trűnylenek</b>.</p><p>&#10060;</p><p>A válaszaitok <b>nem</b> egyeznek meg.</p>","null","","","","feedback trial","",""
"html-button-response-esp","85","505943","0.0-11.0-0.37","1263","János imád drojozni, ezért sokat drojzik. Mi ritkán...","1","drojzunk","[""drojozunk"",""drojzunk""]","drojzunk","esp trial","8","true"
"html-button-response","86","509447","0.0-11.0-1.37","null","<p>A másik játékos ezt választotta: <b>drojzunk</b>.</p><p>&#x2705;</p><p>A te válaszod és a másik játékos válasza <b>megegyeznek</b>.</p>","null","","","","feedback trial","",""
"html-button-response-esp","87","514701","0.0-11.0-0.38","4752","János imád mísozni, ezért sokat míslik. Mi ritkán...","1","míslunk","[""mísozunk"",""míslunk""]","míslunk","esp trial","8","true"
"html-button-response","88","518205","0.0-11.0-1.38","null","<p>A másik játékos ezt választotta: <b>míslunk</b>.</p><p>&#x2705;</p><p>A te válaszod és a másik játékos válasza <b>megegyeznek</b>.</p>","null","","","","feedback trial","",""
"html-button-response-esp","89","522819","0.0-11.0-0.39","2552","János imád sztrajozni, ezért sokat sztrajlik. Ők ritkán...","1","sztrajoznak","[""sztrajlanak"",""sztrajoznak""]","sztrajoznak","esp trial","8","true"
"html-button-response","90","526323","0.0-11.0-1.39","null","<p>A másik játékos ezt választotta: <b>sztrajoznak</b>.</p><p>&#x2705;</p><p>A te válaszod és a másik játékos válasza <b>megegyeznek</b>.</p>","null","","","","feedback trial","",""
"html-button-response-esp","91","530937","0.0-11.0-0.40","1044","János imád mihágozni, ezért sokat mihágzik. Ti ritkán...","1","mihágoztok","[""mihágzotok"",""mihágoztok""]","mihágzotok","esp trial","8","false"
"html-button-response","92","534441","0.0-11.0-1.40","null","<p>A másik játékos ezt választotta: <b>mihágzotok</b>.</p><p>&#10060;</p><p>A válaszaitok <b>nem</b> egyeznek meg.</p>","null","","","","feedback trial","",""
"html-button-response-esp","93","539055","0.0-11.0-0.41","985","János imád frihegezni, ezért sokat friheglik. Mi ritkán...","1","friheglünk","[""frihegezünk"",""friheglünk""]","friheglünk","esp trial","8","true"
"html-button-response","94","542559","0.0-11.0-1.41","null","<p>A másik játékos ezt választotta: <b>friheglünk</b>.</p><p>&#x2705;</p><p>A te válaszod és a másik játékos válasza <b>megegyeznek</b>.</p>","null","","","","feedback trial","",""
"html-button-response-esp","95","547172","0.0-11.0-0.42","3195","János imád pekedni, ezért sokat pekszik. Mi ritkán...","1","pekszünk","[""pekedünk"",""pekszünk""]","pekedünk","esp trial","8","false"
"html-button-response","96","550676","0.0-11.0-1.42","null","<p>A másik játékos ezt választotta: <b>pekedünk</b>.</p><p>&#10060;</p><p>A válaszaitok <b>nem</b> egyeznek meg.</p>","null","","","","feedback trial","",""
"html-button-response-esp","97","555291","0.0-11.0-0.43","1020","János imád tribejezni, ezért sokat tribejlik. Ti ritkán...","1","tribejeztek","[""tribejletek"",""tribejeztek""]","tribejletek","esp trial","8","false"
"html-button-response","98","558795","0.0-11.0-1.43","null","<p>A másik játékos ezt választotta: <b>tribejletek</b>.</p><p>&#10060;</p><p>A válaszaitok <b>nem</b> egyeznek meg.</p>","null","","","","feedback trial","",""
"html-button-response-esp","99","563409","0.0-11.0-0.44","961","János imád tágarozni, ezért sokat tágarzik. Mi ritkán...","1","tágarozunk","[""tágarzunk"",""tágarozunk""]","tágarzunk","esp trial","8","false"
"html-button-response","100","566913","0.0-11.0-1.44","null","<p>A másik játékos ezt választotta: <b>tágarzunk</b>.</p><p>&#10060;</p><p>A válaszaitok <b>nem</b> egyeznek meg.</p>","null","","","","feedback trial","",""
"html-button-response-esp","101","571527","0.0-11.0-0.45","3757","János imád lírozni, ezért sokat lírlik. Ők ritkán...","1","líroznak","[""lírlanak"",""líroznak""]","lírlanak","esp trial","8","false"
"html-button-response","102","575030","0.0-11.0-1.45","null","<p>A másik játékos ezt választotta: <b>lírlanak</b>.</p><p>&#10060;</p><p>A válaszaitok <b>nem</b> egyeznek meg.</p>","null","","","","feedback trial","",""
"html-button-response-esp","103","579644","0.0-11.0-0.46","1666","János imád frésezni, ezért sokat fréslik. Mi ritkán...","1","fréslünk","[""frésezünk"",""fréslünk""]","frésezünk","esp trial","8","false"
"html-button-response","104","583148","0.0-11.0-1.46","null","<p>A másik játékos ezt választotta: <b>frésezünk</b>.</p><p>&#10060;</p><p>A válaszaitok <b>nem</b> egyeznek meg.</p>","null","","","","feedback trial","",""
"html-button-response-esp","105","587762","0.0-11.0-0.47","1475","János imád riványozni, ezért sokat riványlik. Ti ritkán...","1","riványlotok","[""riványoztok"",""riványlotok""]","riványlotok","esp trial","8","true"
"html-button-response","106","591266","0.0-11.0-1.47","null","<p>A másik játékos ezt választotta: <b>riványlotok</b>.</p><p>&#x2705;</p><p>A te válaszod és a másik játékos válasza <b>megegyeznek</b>.</p>","null","","","","feedback trial","",""
"html-button-response-esp","107","595881","0.0-11.0-0.48","869","János imád flubokozni, ezért sokat fluboklik. Ti ritkán...","1","fluboklotok","[""flubokoztok"",""fluboklotok""]","fluboklotok","esp trial","8","true"
"html-button-response","108","599384","0.0-11.0-1.48","null","<p>A másik játékos ezt választotta: <b>fluboklotok</b>.</p><p>&#x2705;</p><p>A te válaszod és a másik játékos válasza <b>megegyeznek</b>.</p>","null","","","","feedback trial","",""
"html-button-response-esp","109","603998","0.0-11.0-0.49","3669","János imád prazozni, ezért sokat prazlik. Mi ritkán...","1","prazlunk","[""prazozunk"",""prazlunk""]","prazlunk","esp trial","8","true"
"html-button-response","110","607502","0.0-11.0-1.49","null","<p>A másik játékos ezt választotta: <b>prazlunk</b>.</p><p>&#x2705;</p><p>A te válaszod és a másik játékos válasza <b>megegyeznek</b>.</p>","null","","","","feedback trial","",""
"html-button-response-esp","111","615709","0.0-11.0-0.50","7704","János imád sprigozni, ezért sokat sprigzik. Ti ritkán...","1","sprigzotok","[""sprigoztok"",""sprigzotok""]","sprigzotok","esp trial","8","true"
"html-button-response","112","619213","0.0-11.0-1.50","null","<p>A másik játékos ezt választotta: <b>sprigzotok</b>.</p><p>&#x2705;</p><p>A te válaszod és a másik játékos válasza <b>megegyeznek</b>.</p>","null","","","","feedback trial","",""
"html-button-response-esp","113","623827","0.0-11.0-0.51","1049","János imád frivamozni, ezért sokat frivamlik. Mi ritkán...","1","frivamlunk","[""frivamozunk"",""frivamlunk""]","frivamozunk","esp trial","8","false"
"html-button-response","114","627331","0.0-11.0-1.51","null","<p>A másik játékos ezt választotta: <b>frivamozunk</b>.</p><p>&#10060;</p><p>A válaszaitok <b>nem</b> egyeznek meg.</p>","null","","","","feedback trial","",""
"html-button-response-esp","115","631945","0.0-11.0-0.52","1695","János imád gatágozni, ezért sokat gatáglik. Mi ritkán...","1","gatágozunk","[""gatáglunk"",""gatágozunk""]","gatáglunk","esp trial","8","false"
"html-button-response","116","635449","0.0-11.0-1.52","null","<p>A másik játékos ezt választotta: <b>gatáglunk</b>.</p><p>&#10060;</p><p>A válaszaitok <b>nem</b> egyeznek meg.</p>","null","","","","feedback trial","",""
"html-button-response-esp","117","640063","0.0-11.0-0.53","1471","János imád bregezni, ezért sokat bregzik. Mi ritkán...","1","bregzünk","[""bregezünk"",""bregzünk""]","bregezünk","esp trial","8","false"
"html-button-response","118","643567","0.0-11.0-1.53","null","<p>A másik játékos ezt választotta: <b>bregezünk</b>.</p><p>&#10060;</p><p>A válaszaitok <b>nem</b> egyeznek meg.</p>","null","","","","feedback trial","",""
"html-button-response","119","647021","0.0-12.0","2951","<p>A közös játék most véget ért.</p><p>Mielőtt eláruljuk a végső pontszámodat, arra kérlek, játszd a szóválasztós játékot néhány percig egyedül is.</p><p>A feladatod ugyanaz lesz, választani két lehetőség közül.</p><p>Most viszont egyedül kell döntened, hogy te melyiket választanád.</p>","0","","","","","",""
"html-button-response-clever","120","650444","0.0-13.0-0.0","2919","János imád metégedni, ezért sokat metégszik. Ők ritkán...","1","metégszenek","[""metégednek"",""metégszenek""]","","posttest trial","1",""
"html-button-response-clever","121","651829","0.0-13.0-0.1","882","János imád dibágozni, ezért sokat dibáglik. Ti ritkán...","1","dibágoztok","[""dibáglotok"",""dibágoztok""]","","posttest trial","1",""
"html-button-response-clever","122","653098","0.0-13.0-0.2","766","János imád trilekedni, ezért sokat trilekszik. Ti ritkán...","1","trilekedtek","[""trilekszetek"",""trilekedtek""]","","posttest trial","1",""
"html-button-response-clever","123","654484","0.0-13.0-0.3","883","János imád hiragozni, ezért sokat hiragzik. Ők ritkán...","1","hiragoznak","[""hiragzanak"",""hiragoznak""]","","posttest trial","1",""
"html-button-response-clever","124","655769","0.0-13.0-0.4","782","János imád brürözni, ezért sokat brürzik. Ők ritkán...","1","brüröznek","[""brürzenek"",""brüröznek""]","","posttest trial","1",""
"html-button-response-clever","125","657488","0.0-13.0-0.5","1216","János imád géregezni, ezért sokat géreglik. Ti ritkán...","1","géregeztek","[""géregletek"",""géregeztek""]","","posttest trial","1",""
"html-button-response-clever","126","658807","0.0-13.0-0.6","816","János imád nyizozni, ezért sokat nyizlik. Mi ritkán...","1","nyizozunk","[""nyizlunk"",""nyizozunk""]","","posttest trial","1",""
"html-button-response-clever","127","660160","0.0-13.0-0.7","850","János imád kláragodni, ezért sokat kláragszik. Ti ritkán...","1","kláragszotok","[""kláragodtok"",""kláragszotok""]","","posttest trial","1",""
"html-button-response-clever","128","661411","0.0-13.0-0.8","748","János imád trukodni, ezért sokat trukszik. Ti ritkán...","1","trukodtok","[""trukszotok"",""trukodtok""]","","posttest trial","1",""
"html-button-response-clever","129","662646","0.0-13.0-0.9","732","János imád brűközni, ezért sokat brűklik. Ti ritkán...","1","brűköztök","[""brűklötök"",""brűköztök""]","","posttest trial","1",""
"html-button-response-clever","130","663848","0.0-13.0-0.10","699","János imád vihapodni, ezért sokat vihapszik. Mi ritkán...","1","vihapszunk","[""vihapodunk"",""vihapszunk""]","","posttest trial","1",""
"html-button-response-clever","131","665151","0.0-13.0-0.11","800","János imád bribasozni, ezért sokat bribaslik. Ők ritkán...","1","bribaslanak","[""bribasoznak"",""bribaslanak""]","","posttest trial","1",""
"html-button-response-clever","132","666419","0.0-13.0-0.12","765","János imád sűjözni, ezért sokat sűjlik. Mi ritkán...","1","sűjözünk","[""sűjlünk"",""sűjözünk""]","","posttest trial","1",""
"html-button-response-clever","133","667688","0.0-13.0-0.13","766","János imád bresezni, ezért sokat breslik. Ők ritkán...","1","breslenek","[""breseznek"",""breslenek""]","","posttest trial","1",""
"html-button-response-clever","134","668973","0.0-13.0-0.14","783","János imád trálakozni, ezért sokat trálaklik. Ők ritkán...","1","trálaklanak","[""trálakoznak"",""trálaklanak""]","","posttest trial","1",""
"html-button-response-clever","135","670325","0.0-13.0-0.15","849","János imád spuborozni, ezért sokat spuborzik. Ők ritkán...","1","spuboroznak","[""spuborzanak"",""spuboroznak""]","","posttest trial","1",""
"html-button-response-clever","136","671626","0.0-13.0-0.16","798","János imád trálodni, ezért sokat trálszik. Mi ritkán...","1","trálszunk","[""trálodunk"",""trálszunk""]","","posttest trial","1",""
"html-button-response-clever","137","672912","0.0-13.0-0.17","783","János imád nivározni, ezért sokat nivárzik. Ti ritkán...","1","nivárzotok","[""nivároztok"",""nivárzotok""]","","posttest trial","1",""
"html-button-response-clever","138","674247","0.0-13.0-0.18","832","János imád flugonyozni, ezért sokat flugonylik. Ők ritkán...","1","flugonyoznak","[""flugonylanak"",""flugonyoznak""]","","posttest trial","1",""
"html-button-response-clever","139","675565","0.0-13.0-0.19","815","János imád vilesezni, ezért sokat vileslik. Mi ritkán...","1","vilesezünk","[""vileslünk"",""vilesezünk""]","","posttest trial","1",""
"html-button-response-clever","140","676850","0.0-13.0-0.20","782","János imád frorozni, ezért sokat frorlik. Ők ritkán...","1","frorlanak","[""froroznak"",""frorlanak""]","","posttest trial","1",""
"html-button-response-clever","141","678151","0.0-13.0-0.21","798","János imád tögözni, ezért sokat töglik. Ők ritkán...","1","tögöznek","[""töglenek"",""tögöznek""]","","posttest trial","1",""
"html-button-response-clever","142","679621","0.0-13.0-0.22","967","János imád nyádozni, ezért sokat nyádlik. Ők ritkán...","1","nyádlanak","[""nyádoznak"",""nyádlanak""]","","posttest trial","1",""
"html-button-response-clever","143","680839","0.0-13.0-0.23","715","János imád flerékedni, ezért sokat flerékszik. Mi ritkán...","1","flerékedünk","[""flerékszünk"",""flerékedünk""]","","posttest trial","1",""
"html-button-response-clever","144","682224","0.0-13.0-0.24","883","János imád bejezni, ezért sokat bejzik. Mi ritkán...","1","bejezünk","[""bejzünk"",""bejezünk""]","","posttest trial","1",""
"html-button-response-clever","145","683544","0.0-13.0-0.25","817","János imád klégezni, ezért sokat kléglik. Mi ritkán...","1","klégezünk","[""kléglünk"",""klégezünk""]","","posttest trial","1",""
"html-button-response-clever","146","684863","0.0-13.0-0.26","816","János imád frinyozni, ezért sokat frinylik. Mi ritkán...","1","frinyozunk","[""frinylunk"",""frinyozunk""]","","posttest trial","1",""
"html-button-response-clever","147","686132","0.0-13.0-0.27","766","János imád vehékedni, ezért sokat vehékszik. Mi ritkán...","1","vehékedünk","[""vehékszünk"",""vehékedünk""]","","posttest trial","1",""
"html-button-response-clever","148","687367","0.0-13.0-0.28","732","János imád játozni, ezért sokat játlik. Mi ritkán...","1","játlunk","[""játozunk"",""játlunk""]","","posttest trial","1",""
"html-button-response-clever","149","688652","0.0-13.0-0.29","782","János imád gihamozni, ezért sokat gihamlik. Ők ritkán...","1","gihamoznak","[""gihamlanak"",""gihamoznak""]","","posttest trial","1",""
"html-button-response-clever","150","689971","0.0-13.0-0.30","816","János imád klűmözni, ezért sokat klűmlik. Ti ritkán...","1","klűmlötök","[""klűmöztök"",""klűmlötök""]","","posttest trial","1",""
"html-button-response-clever","151","691239","0.0-13.0-0.31","766","János imád bügözni, ezért sokat bügzik. Ők ritkán...","1","bügöznek","[""bügzenek"",""bügöznek""]","","posttest trial","1",""
"html-button-response-clever","152","692591","0.0-13.0-0.32","850","János imád jurozni, ezért sokat jurlik. Mi ritkán...","1","jurozunk","[""jurlunk"",""jurozunk""]","","posttest trial","1",""
"html-button-response-clever","153","693860","0.0-13.0-0.33","766","János imád hubonyozni, ezért sokat hubonylik. Ti ritkán...","1","hubonyoztok","[""hubonylotok"",""hubonyoztok""]","","posttest trial","1",""
"html-button-response-clever","154","695196","0.0-13.0-0.34","833","János imád bötőrözni, ezért sokat bötőrzik. Mi ritkán...","1","bötőrzünk","[""bötőrözünk"",""bötőrzünk""]","","posttest trial","1",""
"html-button-response-clever","155","696398","0.0-13.0-0.35","699","János imád klihasozni, ezért sokat klihaslik. Ti ritkán...","1","klihaslotok","[""klihasoztok"",""klihaslotok""]","","posttest trial","1",""
"html-button-response-clever","156","697733","0.0-13.0-0.36","834","János imád frélegezni, ezért sokat frélegzik. Mi ritkán...","1","frélegezünk","[""frélegzünk"",""frélegezünk""]","","posttest trial","1",""
"html-button-response-clever","157","699002","0.0-13.0-0.37","765","János imád ribegedni, ezért sokat ribegszik. Ti ritkán...","1","ribegedtek","[""ribegszetek"",""ribegedtek""]","","posttest trial","1",""
"html-button-response-clever","158","700203","0.0-13.0-0.38","699","János imád nurokozni, ezért sokat nuroklik. Mi ritkán...","1","nurokozunk","[""nuroklunk"",""nurokozunk""]","","posttest trial","1",""
"html-button-response-clever","159","701490","0.0-13.0-0.39","784","János imád flodozni, ezért sokat flodlik. Ti ritkán...","1","flodoztok","[""flodlotok"",""flodoztok""]","","posttest trial","1",""
"html-button-response-clever","160","702809","0.0-13.0-0.40","817","János imád nyöbözni, ezért sokat nyöbzik. Ők ritkán...","1","nyöböznek","[""nyöbzenek"",""nyöböznek""]","","posttest trial","1",""
"html-button-response-clever","161","704228","0.0-13.0-0.41","916","János imád flátozni, ezért sokat flátlik. Ti ritkán...","1","flátlotok","[""flátoztok"",""flátlotok""]","","posttest trial","1",""
"html-button-response-clever","162","705513","0.0-13.0-0.42","782","János imád döjözni, ezért sokat döjlik. Ők ritkán...","1","döjlenek","[""döjöznek"",""döjlenek""]","","posttest trial","1",""
"html-button-response-clever","163","706815","0.0-13.0-0.43","799","János imád spivejezni, ezért sokat spivejlik. Ők ritkán...","1","spivejlenek","[""spivejeznek"",""spivejlenek""]","","posttest trial","1",""
"html-button-response-clever","164","708400","0.0-13.0-0.44","1083","János imád dralágozni, ezért sokat dralágzik. Mi ritkán...","1","dralágzunk","[""dralágozunk"",""dralágzunk""]","","posttest trial","1",""
"html-button-response-clever","165","710187","0.0-13.0-0.45","1285","János imád nyülöközni, ezért sokat nyülöklik. Ők ritkán...","1","nyülöklenek","[""nyülököznek"",""nyülöklenek""]","","posttest trial","1",""
"html-button-response-clever","166","711655","0.0-13.0-0.46","966","János imád frirozni, ezért sokat frirzik. Mi ritkán...","1","frirzunk","[""frirozunk"",""frirzunk""]","","posttest trial","1",""
"html-button-response-clever","167","712973","0.0-13.0-0.47","815","János imád sztredezni, ezért sokat sztredlik. Ti ritkán...","1","sztredeztek","[""sztredletek"",""sztredeztek""]","","posttest trial","1",""
"html-button-response-clever","168","714309","0.0-13.0-0.48","832","János imád prihegedni, ezért sokat prihegszik. Ők ritkán...","1","prihegednek","[""prihegszenek"",""prihegednek""]","","posttest trial","1",""
"html-button-response-clever","169","715493","0.0-13.0-0.49","682","János imád sprebezni, ezért sokat sprebzik. Ők ritkán...","1","sprebzenek","[""sprebeznek"",""sprebzenek""]","","posttest trial","1",""
"html-button-response-clever","170","716511","0.0-13.0-0.50","515","János imád prugorozni, ezért sokat prugorzik. Ti ritkán...","1","prugorzotok","[""prugoroztok"",""prugorzotok""]","","posttest trial","1",""
"html-button-response-clever","171","717613","0.0-13.0-0.51","598","János imád plibozni, ezért sokat plibzik. Ti ritkán...","1","plibzotok","[""pliboztok"",""plibzotok""]","","posttest trial","1",""
"html-button-response-clever","172","718731","0.0-13.0-0.52","616","János imád pibegezni, ezért sokat pibegzik. Ők ritkán...","1","pibegzenek","[""pibegeznek"",""pibegzenek""]","","posttest trial","1",""
"html-button-response-clever","173","719932","0.0-13.0-0.53","699","János imád bribékedni, ezért sokat bribékszik. Ti ritkán...","1","bribékedtek","[""bribékszetek"",""bribékedtek""]","","posttest trial","1",""
"html-button-response","174","723703","0.0-14.0","3267","<p> Vége a játéknak. A teljes pontszámod 24/54.</p><p> Szép munka! &#128526;&#128526;&#128526;</p><p>A Befejezés gomb megnyomása után bezárhatod a böngészőablakot.</p>","0","","","","","",""
"html-keyboard-response","175","729207","0.0-15.0","null","<div class=""message"">
         <p>Egy kis türelmet kérünk, amíg elmentjük az adatokat...</p>
         </div>","null","","","","","",""
