"trial_type","trial_index","time_elapsed","internal_node_id","rt","stimulus","response","response_string","choices","esp_response","trial_kind","list_number","esp_match"
"pavlovia","0","739","0.0-0.0","","","","","","","","",""
"html-button-response","1","3227","0.0-1.0","1986","<p>Kedves Résztvevő! A Budapesti Műszaki és Gazdaságtudományi Egyetem Kognitív Tudományi Tanszékének kutatásában való részvételed kérjük. A kutatásban azt vizsgáljuk, hogy a magyar anyanyelvűek hogyan használnak bizonyos szóalakokat, és hogy milyen képük van arról, hogy mások hogyan használják, hogyan képzik a szavakat. Ez hozzásegít bennünket ahhoz, hogy jobban megértsük, hogyan dolgozza fel és tárolja a nyelvet az emberi agy, és hogyan működnek, hogyan változnak egy adott közösség nyelvi konvenciói.</p><p>A vizsgálat egy rövid számítógépes feladatból fog állni. A kutatásban való részvétel önkéntes, a részvételi szándék bármikor visszavonható. A résztvevők eredményeit név nélkül kezeljük, így nem beazonosíthatók az adatok feldolgozása során. Minden személyes adatot az EU általános adatvédelmi rendeletének (GDPR) megfelelően kezelünk és legfeljebb öt éven belül megsemmisítünk. A vizsgálat jellemzően húsz percet vesz igénybe.</p><p>Kutatásvezető:</p><p>Dr. Rácz Péter, tudományos munkatárs, BME KTT</p><p>e-mail: racz.peter.marton@ttk.bme.hu</p>","0","","","","","",""
"html-button-response","2","5235","0.0-2.0","1506","<p>A kísérletben szavakat fogsz látni. Ezek között lesznek olyanok, amelyeket ismersz, de előfordulhatnak olyanok is, amelyeket nem ismersz, sőt, vannak köztük kitalált szavak is. Minden szónál látni fogsz toldalékolt alakokat. A te feladatod az lesz, hogy minden szóhoz kiválaszd azt a toldalékolt alakot, amely a te számodra ismerősebben, természetesebben hangzik. Rossz válaszok nincsenek, mert van olyan, hogy különböző embereknek más és más szó tűnik jobb választásnak. A választ úgy tudod majd kiválasztani, ha rákattintasz.</p><p>Ebben a szóválasztós játékban egy másik játékossal együtt veszel majd részt. A másik játékos is minden esetben azok közül a lehetőségek közül válogathat, mint te. Kettőtök feladata az, hogy ugyanazt a lehetőséget válasszátok minden esetben. Ahhoz, hogy ez sikerüljön, neked figyelned kell arra, hogy a másik játékos milyen válaszokat ad, és ennek alapján meg kell tippelned, hogyan választ legközelebb. Ha eltalálod, akkor pontot kapsz.</p>","0","","","","","",""
"html-button-response","3","9211","0.0-3.0","3475","<p>Kérjük, olvasd el az alábbi nyilatkozatot, és amennyiben egyetértesz vele, nyomj a Beleegyezés gombra!</p><p>Kijelentem, hogy magyar anyanyelvű személyként önként veszek részt a BME KTT kísérletében. A kutatás céljával és folyamatával kapcsolatban elegendő tájékoztatást kaptam, lehetőségem volt kérdések feltételére, és esetleges kérdéseimre megfelelő válaszokat kaptam. A tájékoztatás alapján elegendő mennyiségű információ áll a rendelkezésemre, hogy eldönthessem, részt kívánok-e venni a kutatásban.</p><p>Tisztában vagyok vele, hogy részvételi szándékomat és adataimat bármikor, indoklás nélkül visszavonhatom.</p><p>Értem és tudomásul veszem, hogy a kutatás tudományos célokat szolgál, és az általam szolgáltatott adatokat a BME kizárólag kutatási célból használja fel. Tudomásul veszem, hogy eredményeimet a többi résztvevő eredményeivel együtt kezelik, így egyéni teljesítményemről visszajelzést, szakvéleményt nem kapok.</p><p>Megértettem, hogy adataim kezelését illetően a BME az EU általános adatvédelmi rendelete (GDPR), a hatályos adatvédelmi törvény és a nemzetközi kutatás-etikai alapelvek szerint jár el. Eredményeim anonim módon kerülnek feldolgozásra, és a kutatás résztvevői az azonosításomra alkalmas adataimat harmadik félnek nem szolgáltatják ki. Engedélyezem a BME számára a jelen kutatásban felvett adataim feldolgozását és tárolását, beleértve azok későbbi kutatásokhoz való felhasználását is. Személyes adataim kezelésével kapcsolatban tájékoztatást kérhetek a kutatás résztvevőitől, az adatkezelés ellen tiltakozhatok, kérhetem személyes adataim helyesbítését, törlését vagy zárolását, valamint jogorvoslatért a Nemzeti Adatvédelmi és Információszabadság Hatósághoz fordulhatok.</p><p>Kijelentem, hogy a kutatásban való részvételem körülményeiről részletes tájékoztatást kaptam, és a feltételeket elfogadom.</p>","0","","","","","",""
"survey-text","4","43403","0.0-4.0","33686","","{""Q0"":""YTMJ0O"",""Q1"":""férfi"",""Q2"":""2002"",""Q3"":""14""}","","","","","",""
"html-button-response","5","62165","0.0-5.0","18258","<p>Ebben a játékban szavakat kell toldalékolni.</p> <p>Minden körben mutatunk majd egy példamondatot, amiben lesz egy szó.</p> <p>Alatta jön egy második mondat, ezt a mondatot neked kell majd befejezni, ugyanezzel a szóval.</p> <p>Nem biztos, hogy a szó eleve ismerős lesz számodra!</p> <p>Minden mondathoz adunk két lehetőséget, ezeket balra és jobbra látod majd.</p> <p>A játék kb. negyedóráig-húsz percig tart.</p>","0","","","","","",""
"html-button-response","6","74325","0.0-6.0","11659","<p>Nézzünk egy példát!</p> <p>A példamondat: ""Ez itt egy blumbnyeg.""</p><p>Neked ezt a mondatot kell befejezned: ""Ott vagyunk a...""</p><p>A lehetőségek pedig ezek:</p>","0","","","","","",""
"html-button-response","7","86613","0.0-7.0","11787","<p>Nagyon jó.</p><p>Ezt a játékot nem egyedül fogod játszani, hanem egy másik játékossal.</p><p>Mielőtt továbblépünk, összekapcsolunk titeket egymással.</p><p>Ez igénybe vehet néhány másodpercet, amihez szíves türelmed kérjük.</p>","0","","","","","",""
"html-button-response","8","92335","0.0-8.0","null","<p>Csatlakozás a másik játékoshoz...</p>","null","","","","","",""
"html-button-response","9","94838","0.0-9.0","null","<p> Sikeres kapcsolódás!</p>","null","","","","","",""
"html-button-response","10","105340","0.0-10.0","null","<p>A következőkben ketten játsszátok a szóválasztós játékot.</p><p>A feladatotok az lesz, hogy minden körben <b>ugyanazt</b> a szót válasszátok.</p><p>Minden ilyen egyező válaszért pontot kaptok.</p><p>Próbáld meg kitalálni, mit választ a másik játékos!</p><p>Bármikor választhatsz, a körnek akkor van vége, ha mindketten döntöttetek.</p><p>Sok sikert!</p>","null","","","","","",""
"html-button-response-esp","11","113733","0.0-11.0-0.0","4723","Ez itt egy vublet. Nincs is jobb egy jó...","0","vubletnél","[""vubletnél"",""vubletnál""]","vubletnál","esp trial","8","false"
"html-button-response","12","117237","0.0-11.0-1.0","null","<p>A másik játékos ezt választotta: <b>vubletnál</b>.</p><p>&#10060;</p><p>A válaszaitok <b>nem</b> egyeznek meg.</p>","null","","","","feedback trial","",""
"html-button-response-esp","13","125633","0.0-11.0-0.1","5770","Ez itt egy szihét. Elneveztem a kutyámat...","1","szihétnek","[""szihétnak"",""szihétnek""]","szihétnak","esp trial","8","false"
"html-button-response","14","129136","0.0-11.0-1.1","null","<p>A másik játékos ezt választotta: <b>szihétnak</b>.</p><p>&#10060;</p><p>A válaszaitok <b>nem</b> egyeznek meg.</p>","null","","","","feedback trial","",""
"html-button-response-esp","15","137529","0.0-11.0-0.2","5185","Ez itt egy zsopéd. Ott vagyunk a...","0","zsopédben","[""zsopédben"",""zsopédban""]","zsopédben","esp trial","8","true"
"html-button-response","16","141032","0.0-11.0-1.2","null","<p>A másik játékos ezt választotta: <b>zsopédben</b>.</p><p>&#x2705;</p><p>A te válaszod és a másik játékos válasza <b>megegyeznek</b>.</p>","null","","","","feedback trial","",""
"html-button-response-esp","17","149425","0.0-11.0-0.3","4009","Ez itt egy ronvet. Elneveztem a kutyámat...","0","ronvetnek","[""ronvetnek"",""ronvetnak""]","ronvetnak","esp trial","8","false"
"html-button-response","18","152927","0.0-11.0-1.3","null","<p>A másik játékos ezt választotta: <b>ronvetnak</b>.</p><p>&#10060;</p><p>A válaszaitok <b>nem</b> egyeznek meg.</p>","null","","","","feedback trial","",""
"html-button-response-esp","19","162103","0.0-11.0-0.4","8674","Ez itt egy forzéd. Elneveztem a kutyámat...","1","forzédnak","[""forzédnek"",""forzédnak""]","forzédnak","esp trial","8","true"
"html-button-response","20","165607","0.0-11.0-1.4","null","<p>A másik játékos ezt választotta: <b>forzédnak</b>.</p><p>&#x2705;</p><p>A te válaszod és a másik játékos válasza <b>megegyeznek</b>.</p>","null","","","","feedback trial","",""
"html-button-response-esp","21","173999","0.0-11.0-0.5","5442","Ez itt egy jorzég. Elneveztem a kutyámat...","0","jorzégnak","[""jorzégnak"",""jorzégnek""]","jorzégnak","esp trial","8","true"
"html-button-response","22","177503","0.0-11.0-1.5","null","<p>A másik játékos ezt választotta: <b>jorzégnak</b>.</p><p>&#x2705;</p><p>A te válaszod és a másik játékos válasza <b>megegyeznek</b>.</p>","null","","","","feedback trial","",""
"html-button-response-esp","23","185897","0.0-11.0-0.6","5403","Ez itt egy navec. Ott vagyunk a...","1","navecben","[""navecban"",""navecben""]","navecban","esp trial","8","false"
"html-button-response","24","189399","0.0-11.0-1.6","null","<p>A másik játékos ezt választotta: <b>navecban</b>.</p><p>&#10060;</p><p>A válaszaitok <b>nem</b> egyeznek meg.</p>","null","","","","feedback trial","",""
"html-button-response-esp","25","201353","0.0-11.0-0.7","11452","Ez itt egy sartely. Ott vagyunk a...","0","sartelyban","[""sartelyban"",""sartelyben""]","sartelyban","esp trial","8","true"
"html-button-response","26","204856","0.0-11.0-1.7","null","<p>A másik játékos ezt választotta: <b>sartelyban</b>.</p><p>&#x2705;</p><p>A te válaszod és a másik játékos válasza <b>megegyeznek</b>.</p>","null","","","","feedback trial","",""
"html-button-response-esp","27","213248","0.0-11.0-0.8","7564","Ez itt egy nyarcéj. Elneveztem a kutyámat...","0","nyarcéjnak","[""nyarcéjnak"",""nyarcéjnek""]","nyarcéjnek","esp trial","8","false"
"html-button-response","28","216750","0.0-11.0-1.8","null","<p>A másik játékos ezt választotta: <b>nyarcéjnek</b>.</p><p>&#10060;</p><p>A válaszaitok <b>nem</b> egyeznek meg.</p>","null","","","","feedback trial","",""
"html-button-response-esp","29","225142","0.0-11.0-0.9","6014","Ez itt egy sprízem. Nincs is jobb egy jó...","1","sprízemnél","[""sprízemnál"",""sprízemnél""]","sprízemnál","esp trial","8","false"
"html-button-response","30","228645","0.0-11.0-1.9","null","<p>A másik játékos ezt választotta: <b>sprízemnál</b>.</p><p>&#10060;</p><p>A válaszaitok <b>nem</b> egyeznek meg.</p>","null","","","","feedback trial","",""
"html-button-response-esp","31","237038","0.0-11.0-0.10","7173","Ez itt egy vodép. Elneveztem a kutyámat...","1","vodépnek","[""vodépnak"",""vodépnek""]","vodépnak","esp trial","8","false"
"html-button-response","32","240540","0.0-11.0-1.10","null","<p>A másik játékos ezt választotta: <b>vodépnak</b>.</p><p>&#10060;</p><p>A válaszaitok <b>nem</b> egyeznek meg.</p>","null","","","","feedback trial","",""
"html-button-response-esp","33","249387","0.0-11.0-0.11","8344","Ez itt egy nyábét. Ott vagyunk a...","0","nyábétban","[""nyábétban"",""nyábétben""]","nyábétben","esp trial","8","false"
"html-button-response","34","252889","0.0-11.0-1.11","null","<p>A másik játékos ezt választotta: <b>nyábétben</b>.</p><p>&#10060;</p><p>A válaszaitok <b>nem</b> egyeznek meg.</p>","null","","","","feedback trial","",""
"html-button-response-esp","35","261281","0.0-11.0-0.12","6340","Ez itt egy hivép. Ott vagyunk a...","0","hivépben","[""hivépben"",""hivépban""]","hivépban","esp trial","8","false"
"html-button-response","36","264783","0.0-11.0-1.12","null","<p>A másik játékos ezt választotta: <b>hivépban</b>.</p><p>&#10060;</p><p>A válaszaitok <b>nem</b> egyeznek meg.</p>","null","","","","feedback trial","",""
"html-button-response-esp","37","273176","0.0-11.0-0.13","5822","Ez itt egy jábéz. Ott vagyunk a...","1","jábézban","[""jábézben"",""jábézban""]","jábézben","esp trial","8","false"
"html-button-response","38","276679","0.0-11.0-1.13","null","<p>A másik játékos ezt választotta: <b>jábézben</b>.</p><p>&#10060;</p><p>A válaszaitok <b>nem</b> egyeznek meg.</p>","null","","","","feedback trial","",""
"html-button-response-esp","39","285070","0.0-11.0-0.14","6007","Ez itt egy ikszert. Ott vagyunk a...","1","ikszertben","[""ikszertban"",""ikszertben""]","ikszertban","esp trial","8","false"
"html-button-response","40","288572","0.0-11.0-1.14","null","<p>A másik játékos ezt választotta: <b>ikszertban</b>.</p><p>&#10060;</p><p>A válaszaitok <b>nem</b> egyeznek meg.</p>","null","","","","feedback trial","",""
"html-button-response-esp","41","296964","0.0-11.0-0.15","4482","Ez itt egy fincek. Nincs is jobb egy jó...","0","finceknél","[""finceknél"",""finceknál""]","finceknál","esp trial","8","false"
"html-button-response","42","300466","0.0-11.0-1.15","null","<p>A másik játékos ezt választotta: <b>finceknál</b>.</p><p>&#10060;</p><p>A válaszaitok <b>nem</b> egyeznek meg.</p>","null","","","","feedback trial","",""
"html-button-response-esp","43","317069","0.0-11.0-0.16","16099","Ez itt egy klordény. Elneveztem a kutyámat...","0","klordénynek","[""klordénynek"",""klordénynak""]","klordénynek","esp trial","8","true"
"html-button-response","44","320571","0.0-11.0-1.16","null","<p>A másik játékos ezt választotta: <b>klordénynek</b>.</p><p>&#x2705;</p><p>A te válaszod és a másik játékos válasza <b>megegyeznek</b>.</p>","null","","","","feedback trial","",""
"html-button-response-esp","45","328964","0.0-11.0-0.17","5173","Ez itt egy matéz. Ott vagyunk a...","0","matézban","[""matézban"",""matézben""]","matézben","esp trial","8","false"
"html-button-response","46","332467","0.0-11.0-1.17","null","<p>A másik játékos ezt választotta: <b>matézben</b>.</p><p>&#10060;</p><p>A válaszaitok <b>nem</b> egyeznek meg.</p>","null","","","","feedback trial","",""
"html-button-response-esp","47","340858","0.0-11.0-0.18","4109","Ez itt egy nidét. Ott vagyunk a...","0","nidétben","[""nidétben"",""nidétban""]","nidétban","esp trial","8","false"
"html-button-response","48","344361","0.0-11.0-1.18","null","<p>A másik játékos ezt választotta: <b>nidétban</b>.</p><p>&#10060;</p><p>A válaszaitok <b>nem</b> egyeznek meg.</p>","null","","","","feedback trial","",""
"html-button-response-esp","49","352753","0.0-11.0-0.19","3775","Ez itt egy brotes. Ott vagyunk a...","0","brotesban","[""brotesban"",""brotesben""]","brotesben","esp trial","8","false"
"html-button-response","50","356256","0.0-11.0-1.19","null","<p>A másik játékos ezt választotta: <b>brotesben</b>.</p><p>&#10060;</p><p>A válaszaitok <b>nem</b> egyeznek meg.</p>","null","","","","feedback trial","",""
"html-button-response-esp","51","364651","0.0-11.0-0.20","5432","Ez itt egy brágéd. Elneveztem a kutyámat...","1","brágédnak","[""brágédnek"",""brágédnak""]","brágédnek","esp trial","8","false"
"html-button-response","52","368153","0.0-11.0-1.20","null","<p>A másik játékos ezt választotta: <b>brágédnek</b>.</p><p>&#10060;</p><p>A válaszaitok <b>nem</b> egyeznek meg.</p>","null","","","","feedback trial","",""
"html-button-response-esp","53","376546","0.0-11.0-0.21","4296","Ez itt egy kábesz. Nincs is jobb egy jó...","0","kábesznél","[""kábesznél"",""kábesznál""]","kábesznál","esp trial","8","false"
"html-button-response","54","380049","0.0-11.0-1.21","null","<p>A másik játékos ezt választotta: <b>kábesznál</b>.</p><p>&#10060;</p><p>A válaszaitok <b>nem</b> egyeznek meg.</p>","null","","","","feedback trial","",""
"html-button-response-esp","55","388441","0.0-11.0-0.22","4521","Ez itt egy tranék. Ott vagyunk a...","0","tranékban","[""tranékban"",""tranékben""]","tranékben","esp trial","8","false"
"html-button-response","56","391945","0.0-11.0-1.22","null","<p>A másik játékos ezt választotta: <b>tranékben</b>.</p><p>&#10060;</p><p>A válaszaitok <b>nem</b> egyeznek meg.</p>","null","","","","feedback trial","",""
"html-button-response-esp","57","400337","0.0-11.0-0.23","4218","Ez itt egy trincseg. Ott vagyunk a...","0","trincsegben","[""trincsegben"",""trincsegban""]","trincsegban","esp trial","8","false"
"html-button-response","58","403839","0.0-11.0-1.23","null","<p>A másik játékos ezt választotta: <b>trincsegban</b>.</p><p>&#10060;</p><p>A válaszaitok <b>nem</b> egyeznek meg.</p>","null","","","","feedback trial","",""
"html-button-response-esp","59","418535","0.0-11.0-0.24","14195","Ez itt egy giheszt. Elneveztem a kutyámat...","0","gihesztnek","[""gihesztnek"",""gihesztnak""]","gihesztnak","esp trial","8","false"
"html-button-response","60","422038","0.0-11.0-1.24","null","<p>A másik játékos ezt választotta: <b>gihesztnak</b>.</p><p>&#10060;</p><p>A válaszaitok <b>nem</b> egyeznek meg.</p>","null","","","","feedback trial","",""
"html-button-response-esp","61","432073","0.0-11.0-0.25","9532","Ez itt egy brigeszt. Elneveztem a kutyámat...","1","brigesztnek","[""brigesztnak"",""brigesztnek""]","brigesztnak","esp trial","8","false"
"html-button-response","62","435577","0.0-11.0-1.25","null","<p>A másik játékos ezt választotta: <b>brigesztnak</b>.</p><p>&#10060;</p><p>A válaszaitok <b>nem</b> egyeznek meg.</p>","null","","","","feedback trial","",""
"html-button-response-esp","63","443969","0.0-11.0-0.26","7435","Ez itt egy hóbens. Ott vagyunk a...","1","hóbensben","[""hóbensban"",""hóbensben""]","hóbensban","esp trial","8","false"
"html-button-response","64","447471","0.0-11.0-1.26","null","<p>A másik játékos ezt választotta: <b>hóbensban</b>.</p><p>&#10060;</p><p>A válaszaitok <b>nem</b> egyeznek meg.</p>","null","","","","feedback trial","",""
"html-button-response-esp","65","459090","0.0-11.0-0.27","11117","Ez itt egy gótem. Elneveztem a kutyámat...","1","gótemnak","[""gótemnek"",""gótemnak""]","gótemnak","esp trial","8","true"
"html-button-response","66","462592","0.0-11.0-1.27","null","<p>A másik játékos ezt választotta: <b>gótemnak</b>.</p><p>&#x2705;</p><p>A te válaszod és a másik játékos válasza <b>megegyeznek</b>.</p>","null","","","","feedback trial","",""
"html-button-response-esp","67","470984","0.0-11.0-0.28","4869","Ez itt egy licegy. Ott vagyunk a...","0","licegyben","[""licegyben"",""licegyban""]","licegyban","esp trial","8","false"
"html-button-response","68","474486","0.0-11.0-1.28","null","<p>A másik játékos ezt választotta: <b>licegyban</b>.</p><p>&#10060;</p><p>A válaszaitok <b>nem</b> egyeznek meg.</p>","null","","","","feedback trial","",""
"html-button-response-esp","69","482877","0.0-11.0-0.29","6767","Ez itt egy júder. Elneveztem a kutyámat...","0","júdernek","[""júdernek"",""júdernak""]","júdernak","esp trial","8","false"
"html-button-response","70","486380","0.0-11.0-1.29","null","<p>A másik játékos ezt választotta: <b>júdernak</b>.</p><p>&#10060;</p><p>A válaszaitok <b>nem</b> egyeznek meg.</p>","null","","","","feedback trial","",""
"html-button-response-esp","71","494775","0.0-11.0-0.30","5359","Ez itt egy csinték. Ott vagyunk a...","0","csintékban","[""csintékban"",""csintékben""]","csintékban","esp trial","8","true"
"html-button-response","72","498279","0.0-11.0-1.30","null","<p>A másik játékos ezt választotta: <b>csintékban</b>.</p><p>&#x2705;</p><p>A te válaszod és a másik játékos válasza <b>megegyeznek</b>.</p>","null","","","","feedback trial","",""
"html-button-response-esp","73","506671","0.0-11.0-0.31","4351","Ez itt egy lismév. Ott vagyunk a...","0","lismévben","[""lismévben"",""lismévban""]","lismévban","esp trial","8","false"
"html-button-response","74","510172","0.0-11.0-1.31","null","<p>A másik játékos ezt választotta: <b>lismévban</b>.</p><p>&#10060;</p><p>A válaszaitok <b>nem</b> egyeznek meg.</p>","null","","","","feedback trial","",""
"html-button-response-esp","75","518565","0.0-11.0-0.32","7065","Ez itt egy szutend. Ott vagyunk a...","1","szutendban","[""szutendben"",""szutendban""]","szutendban","esp trial","8","true"
"html-button-response","76","522067","0.0-11.0-1.32","null","<p>A másik játékos ezt választotta: <b>szutendban</b>.</p><p>&#x2705;</p><p>A te válaszod és a másik játékos válasza <b>megegyeznek</b>.</p>","null","","","","feedback trial","",""
"html-button-response-esp","77","530458","0.0-11.0-0.33","7668","Ez itt egy brukész. Nincs is jobb egy jó...","1","brukésznél","[""brukésznál"",""brukésznél""]","brukésznál","esp trial","8","false"
"html-button-response","78","533961","0.0-11.0-1.33","null","<p>A másik játékos ezt választotta: <b>brukésznál</b>.</p><p>&#10060;</p><p>A válaszaitok <b>nem</b> egyeznek meg.</p>","null","","","","feedback trial","",""
"html-button-response-esp","79","542353","0.0-11.0-0.34","7086","Ez itt egy prately. Elneveztem a kutyámat...","1","pratelynek","[""pratelynak"",""pratelynek""]","pratelynak","esp trial","8","false"
"html-button-response","80","545855","0.0-11.0-1.34","null","<p>A másik játékos ezt választotta: <b>pratelynak</b>.</p><p>&#10060;</p><p>A válaszaitok <b>nem</b> egyeznek meg.</p>","null","","","","feedback trial","",""
"html-button-response-esp","81","554250","0.0-11.0-0.35","7574","Ez itt egy bródesz. Elneveztem a kutyámat...","0","bródesznek","[""bródesznek"",""bródesznak""]","bródesznak","esp trial","8","false"
"html-button-response","82","557752","0.0-11.0-1.35","null","<p>A másik játékos ezt választotta: <b>bródesznak</b>.</p><p>&#10060;</p><p>A válaszaitok <b>nem</b> egyeznek meg.</p>","null","","","","feedback trial","",""
"html-button-response-esp","83","566885","0.0-11.0-0.36","8633","Ez itt egy fádens. Elneveztem a kutyámat...","0","fádensnek","[""fádensnek"",""fádensnak""]","fádensnak","esp trial","8","false"
"html-button-response","84","570387","0.0-11.0-1.36","null","<p>A másik játékos ezt választotta: <b>fádensnak</b>.</p><p>&#10060;</p><p>A válaszaitok <b>nem</b> egyeznek meg.</p>","null","","","","feedback trial","",""
"html-button-response-esp","85","584829","0.0-11.0-0.37","13941","Ez itt egy trigenc. Elneveztem a kutyámat...","0","trigencnek","[""trigencnek"",""trigencnak""]","trigencnak","esp trial","8","false"
"html-button-response","86","588332","0.0-11.0-1.37","null","<p>A másik játékos ezt választotta: <b>trigencnak</b>.</p><p>&#10060;</p><p>A válaszaitok <b>nem</b> egyeznek meg.</p>","null","","","","feedback trial","",""
"html-button-response-esp","87","598941","0.0-11.0-0.38","10108","Ez itt egy priszkenc. Elneveztem a kutyámat...","0","priszkencnek","[""priszkencnek"",""priszkencnak""]","priszkencnak","esp trial","8","false"
"html-button-response","88","602443","0.0-11.0-1.38","null","<p>A másik játékos ezt választotta: <b>priszkencnak</b>.</p><p>&#10060;</p><p>A válaszaitok <b>nem</b> egyeznek meg.</p>","null","","","","feedback trial","",""
"html-button-response-esp","89","610837","0.0-11.0-0.39","7269","Ez itt egy gonszék. Nincs is jobb egy jó...","1","gonszéknél","[""gonszéknál"",""gonszéknél""]","gonszéknál","esp trial","8","false"
"html-button-response","90","614339","0.0-11.0-1.39","null","<p>A másik játékos ezt választotta: <b>gonszéknál</b>.</p><p>&#10060;</p><p>A válaszaitok <b>nem</b> egyeznek meg.</p>","null","","","","feedback trial","",""
"html-button-response-esp","91","622730","0.0-11.0-0.40","5704","Ez itt egy kluhéj. Nincs is jobb egy jó...","1","kluhéjnál","[""kluhéjnél"",""kluhéjnál""]","kluhéjnél","esp trial","8","false"
"html-button-response","92","626233","0.0-11.0-1.40","null","<p>A másik játékos ezt választotta: <b>kluhéjnél</b>.</p><p>&#10060;</p><p>A válaszaitok <b>nem</b> egyeznek meg.</p>","null","","","","feedback trial","",""
"html-button-response-esp","93","634625","0.0-11.0-0.41","4001","Ez itt egy csimen. Nincs is jobb egy jó...","0","csimennél","[""csimennél"",""csimennál""]","csimennál","esp trial","8","false"
"html-button-response","94","638127","0.0-11.0-1.41","null","<p>A másik játékos ezt választotta: <b>csimennál</b>.</p><p>&#10060;</p><p>A válaszaitok <b>nem</b> egyeznek meg.</p>","null","","","","feedback trial","",""
"html-button-response-esp","95","646595","0.0-11.0-0.42","4699","Ez itt egy kliszer. Nincs is jobb egy jó...","1","kliszernél","[""kliszernál"",""kliszernél""]","kliszernál","esp trial","8","false"
"html-button-response","96","650098","0.0-11.0-1.42","null","<p>A másik játékos ezt választotta: <b>kliszernál</b>.</p><p>&#10060;</p><p>A válaszaitok <b>nem</b> egyeznek meg.</p>","null","","","","feedback trial","",""
"html-button-response-esp","97","658494","0.0-11.0-0.43","6564","Ez itt egy bidem. Ott vagyunk a...","1","bidemben","[""bidemban"",""bidemben""]","bidemban","esp trial","8","false"
"html-button-response","98","661995","0.0-11.0-1.43","null","<p>A másik játékos ezt választotta: <b>bidemban</b>.</p><p>&#10060;</p><p>A válaszaitok <b>nem</b> egyeznek meg.</p>","null","","","","feedback trial","",""
"html-button-response-esp","99","676194","0.0-11.0-0.44","13694","Ez itt egy csartény. Elneveztem a kutyámat...","1","csarténynak","[""csarténynek"",""csarténynak""]","csarténynek","esp trial","8","false"
"html-button-response","100","679696","0.0-11.0-1.44","null","<p>A másik játékos ezt választotta: <b>csarténynek</b>.</p><p>&#10060;</p><p>A válaszaitok <b>nem</b> egyeznek meg.</p>","null","","","","feedback trial","",""
"html-button-response-esp","101","688089","0.0-11.0-0.45","4660","Ez itt egy sporzem. Elneveztem a kutyámat...","0","sporzemnek","[""sporzemnek"",""sporzemnak""]","sporzemnak","esp trial","8","false"
"html-button-response","102","691593","0.0-11.0-1.45","null","<p>A másik játékos ezt választotta: <b>sporzemnak</b>.</p><p>&#10060;</p><p>A válaszaitok <b>nem</b> egyeznek meg.</p>","null","","","","feedback trial","",""
"html-button-response-esp","103","699985","0.0-11.0-0.46","6786","Ez itt egy dingec. Elneveztem a kutyámat...","1","dingecnek","[""dingecnak"",""dingecnek""]","dingecnak","esp trial","8","false"
"html-button-response","104","703487","0.0-11.0-1.46","null","<p>A másik játékos ezt választotta: <b>dingecnak</b>.</p><p>&#10060;</p><p>A válaszaitok <b>nem</b> egyeznek meg.</p>","null","","","","feedback trial","",""
"html-button-response-esp","105","711880","0.0-11.0-0.47","6349","Ez itt egy gicéj. Nincs is jobb egy jó...","0","gicéjnél","[""gicéjnél"",""gicéjnál""]","gicéjnál","esp trial","8","false"
"html-button-response","106","715382","0.0-11.0-1.47","null","<p>A másik játékos ezt választotta: <b>gicéjnál</b>.</p><p>&#10060;</p><p>A válaszaitok <b>nem</b> egyeznek meg.</p>","null","","","","feedback trial","",""
"html-button-response-esp","107","723774","0.0-11.0-0.48","6430","Ez itt egy kadér. Nincs is jobb egy jó...","0","kadérnál","[""kadérnál"",""kadérnél""]","kadérnél","esp trial","8","false"
"html-button-response","108","727275","0.0-11.0-1.48","null","<p>A másik játékos ezt választotta: <b>kadérnél</b>.</p><p>&#10060;</p><p>A válaszaitok <b>nem</b> egyeznek meg.</p>","null","","","","feedback trial","",""
"html-button-response-esp","109","735670","0.0-11.0-0.49","6961","Ez itt egy jalrény. Nincs is jobb egy jó...","1","jalrénynél","[""jalrénynál"",""jalrénynél""]","jalrénynél","esp trial","8","true"
"html-button-response","110","739174","0.0-11.0-1.49","null","<p>A másik játékos ezt választotta: <b>jalrénynél</b>.</p><p>&#x2705;</p><p>A te válaszod és a másik játékos válasza <b>megegyeznek</b>.</p>","null","","","","feedback trial","",""
"html-button-response-esp","111","748412","0.0-11.0-0.50","8737","Ez itt egy tránély. Elneveztem a kutyámat...","0","tránélynak","[""tránélynak"",""tránélynek""]","tránélynek","esp trial","8","false"
"html-button-response","112","751915","0.0-11.0-1.50","null","<p>A másik játékos ezt választotta: <b>tránélynek</b>.</p><p>&#10060;</p><p>A válaszaitok <b>nem</b> egyeznek meg.</p>","null","","","","feedback trial","",""
"html-button-response-esp","113","760306","0.0-11.0-0.51","3108","Ez itt egy buhény. Ott vagyunk a...","0","buhényban","[""buhényban"",""buhényben""]","buhényben","esp trial","8","false"
"html-button-response","114","763809","0.0-11.0-1.51","null","<p>A másik játékos ezt választotta: <b>buhényben</b>.</p><p>&#10060;</p><p>A válaszaitok <b>nem</b> egyeznek meg.</p>","null","","","","feedback trial","",""
"html-button-response-esp","115","772201","0.0-11.0-0.52","3558","Ez itt egy trapszegy. Nincs is jobb egy jó...","1","trapszegynél","[""trapszegynál"",""trapszegynél""]","trapszegynál","esp trial","8","false"
"html-button-response","116","775704","0.0-11.0-1.52","null","<p>A másik játékos ezt választotta: <b>trapszegynál</b>.</p><p>&#10060;</p><p>A válaszaitok <b>nem</b> egyeznek meg.</p>","null","","","","feedback trial","",""
"html-button-response-esp","117","784097","0.0-11.0-0.53","4734","Ez itt egy spáten. Elneveztem a kutyámat...","0","spátennek","[""spátennek"",""spátennak""]","spátennak","esp trial","8","false"
"html-button-response","118","787599","0.0-11.0-1.53","null","<p>A másik játékos ezt választotta: <b>spátennak</b>.</p><p>&#10060;</p><p>A válaszaitok <b>nem</b> egyeznek meg.</p>","null","","","","feedback trial","",""
"html-button-response","119","796702","0.0-12.0","8598","<p>A közös játék most véget ért.</p><p>Mielőtt eláruljuk a végső pontszámodat, arra kérlek, játszd a szóválasztós játékot néhány percig egyedül is.</p><p>A feladatod ugyanaz lesz, választani két lehetőség közül.</p><p>Most viszont egyedül kell döntened, hogy te melyiket választanád.</p>","0","","","","","",""
"html-button-response-clever","120","801678","0.0-13.0-0.0","4474","Ez itt egy kalhész. Elneveztem a kutyámat...","1","kalhésznek","[""kalhésznak"",""kalhésznek""]","","posttest trial","1",""
"html-button-response-clever","121","807870","0.0-13.0-0.1","5690","Ez itt egy jóbec. Elneveztem a kutyámat...","0","jóbecnek","[""jóbecnek"",""jóbecnak""]","","posttest trial","1",""
"html-button-response-clever","122","815278","0.0-13.0-0.2","6906","Ez itt egy luméz. Ott vagyunk a...","1","lumézben","[""lumézban"",""lumézben""]","","posttest trial","1",""
"html-button-response-clever","123","818630","0.0-13.0-0.3","2851","Ez itt egy zihenc. Elneveztem a kutyámat...","1","zihencnek","[""zihencnak"",""zihencnek""]","","posttest trial","1",""
"html-button-response-clever","124","822638","0.0-13.0-0.4","3506","Ez itt egy zsúdel. Elneveztem a kutyámat...","1","zsúdelnek","[""zsúdelnak"",""zsúdelnek""]","","posttest trial","1",""
"html-button-response-clever","125","826902","0.0-13.0-0.5","3762","Ez itt egy fájéz. Ott vagyunk a...","0","fájézban","[""fájézban"",""fájézben""]","","posttest trial","1",""
"html-button-response-clever","126","833734","0.0-13.0-0.6","6331","Ez itt egy zsigén. Nincs is jobb egy jó...","0","zsigénnél","[""zsigénnél"",""zsigénnál""]","","posttest trial","1",""
"html-button-response-clever","127","838534","0.0-13.0-0.7","4297","Ez itt egy nyamet. Ott vagyunk a...","0","nyametban","[""nyametban"",""nyametben""]","","posttest trial","1",""
"html-button-response-clever","128","842086","0.0-13.0-0.8","3051","Ez itt egy incéj. Elneveztem a kutyámat...","1","incéjnek","[""incéjnak"",""incéjnek""]","","posttest trial","1",""
"html-button-response-clever","129","850005","0.0-13.0-0.9","7418","Ez itt egy garcép. Nincs is jobb egy jó...","1","garcépnál","[""garcépnél"",""garcépnál""]","","posttest trial","1",""
"html-button-response-clever","130","855087","0.0-13.0-0.10","4579","Ez itt egy brindez. Elneveztem a kutyámat...","1","brindeznek","[""brindeznak"",""brindeznek""]","","posttest trial","1",""
"html-button-response-clever","131","859159","0.0-13.0-0.11","3570","Ez itt egy kalréz. Ott vagyunk a...","1","kalrézben","[""kalrézban"",""kalrézben""]","","posttest trial","1",""
"html-button-response-clever","132","862663","0.0-13.0-0.12","3003","Ez itt egy pisély. Ott vagyunk a...","1","pisélyben","[""pisélyban"",""pisélyben""]","","posttest trial","1",""
"html-button-response-clever","133","867270","0.0-13.0-0.13","4107","Ez itt egy jukél. Nincs is jobb egy jó...","1","jukélnál","[""jukélnél"",""jukélnál""]","","posttest trial","1",""
"html-button-response-clever","134","871030","0.0-13.0-0.14","3259","Ez itt egy spanél. Nincs is jobb egy jó...","0","spanélnál","[""spanélnál"",""spanélnél""]","","posttest trial","1",""
"html-button-response-clever","135","875198","0.0-13.0-0.15","3666","Ez itt egy bralkép. Ott vagyunk a...","1","bralképben","[""bralképban"",""bralképben""]","","posttest trial","1",""
"html-button-response-clever","136","881495","0.0-13.0-0.16","5795","Ez itt egy danét. Nincs is jobb egy jó...","0","danétnál","[""danétnál"",""danétnél""]","","posttest trial","1",""
"html-button-response-clever","137","886935","0.0-13.0-0.17","4938","Ez itt egy sprivenc. Nincs is jobb egy jó...","1","sprivencnél","[""sprivencnál"",""sprivencnél""]","","posttest trial","1",""
"html-button-response-clever","138","891814","0.0-13.0-0.18","4378","Ez itt egy zsáder. Ott vagyunk a...","1","zsáderben","[""zsáderban"",""zsáderben""]","","posttest trial","1",""
"html-button-response-clever","139","895550","0.0-13.0-0.19","3235","Ez itt egy trismél. Elneveztem a kutyámat...","0","trismélnek","[""trismélnek"",""trismélnak""]","","posttest trial","1",""
"html-button-response-clever","140","899150","0.0-13.0-0.20","3098","Ez itt egy narem. Ott vagyunk a...","1","naremben","[""naremban"",""naremben""]","","posttest trial","1",""
"html-button-response-clever","141","903734","0.0-13.0-0.21","4083","Ez itt egy nyítem. Ott vagyunk a...","1","nyítemben","[""nyítemban"",""nyítemben""]","","posttest trial","1",""
"html-button-response-clever","142","907119","0.0-13.0-0.22","2883","Ez itt egy zopély. Nincs is jobb egy jó...","1","zopélynál","[""zopélynél"",""zopélynál""]","","posttest trial","1",""
"html-button-response-clever","143","910342","0.0-13.0-0.23","2722","Ez itt egy klingesz. Ott vagyunk a...","0","klingeszben","[""klingeszben"",""klingeszban""]","","posttest trial","1",""
"html-button-response-clever","144","913254","0.0-13.0-0.24","2410","Ez itt egy bupéz. Ott vagyunk a...","1","bupézban","[""bupézben"",""bupézban""]","","posttest trial","1",""
"html-button-response-clever","145","918824","0.0-13.0-0.25","5067","Ez itt egy tosély. Ott vagyunk a...","1","tosélyban","[""tosélyben"",""tosélyban""]","","posttest trial","1",""
"html-button-response-clever","146","923761","0.0-13.0-0.26","4435","Ez itt egy nyupér. Nincs is jobb egy jó...","1","nyupérnál","[""nyupérnél"",""nyupérnál""]","","posttest trial","1",""
"html-button-response-clever","147","926409","0.0-13.0-0.27","2147","Ez itt egy dábegy. Ott vagyunk a...","0","dábegyben","[""dábegyben"",""dábegyban""]","","posttest trial","1",""
"html-button-response-clever","148","929200","0.0-13.0-0.28","2289","Ez itt egy pivéd. Ott vagyunk a...","1","pivédben","[""pivédban"",""pivédben""]","","posttest trial","1",""
"html-button-response-clever","149","932705","0.0-13.0-0.29","3003","Ez itt egy klosét. Elneveztem a kutyámat...","1","klosétnek","[""klosétnak"",""klosétnek""]","","posttest trial","1",""
"html-button-response-clever","150","937472","0.0-13.0-0.30","4266","Ez itt egy spábét. Ott vagyunk a...","1","spábétben","[""spábétban"",""spábétben""]","","posttest trial","1",""
"html-button-response-clever","151","940913","0.0-13.0-0.31","2938","Ez itt egy spumény. Elneveztem a kutyámat...","0","spuménynek","[""spuménynek"",""spuménynak""]","","posttest trial","1",""
"html-button-response-clever","152","946560","0.0-13.0-0.32","5146","Ez itt egy ronszek. Ott vagyunk a...","1","ronszekben","[""ronszekban"",""ronszekben""]","","posttest trial","1",""
"html-button-response-clever","153","950056","0.0-13.0-0.33","2995","Ez itt egy pítend. Ott vagyunk a...","1","pítendben","[""pítendban"",""pítendben""]","","posttest trial","1",""
"html-button-response-clever","154","953393","0.0-13.0-0.34","2835","Ez itt egy vorszen. Nincs is jobb egy jó...","0","vorszennál","[""vorszennál"",""vorszennél""]","","posttest trial","1",""
"html-button-response-clever","155","956585","0.0-13.0-0.35","2691","Ez itt egy sortem. Nincs is jobb egy jó...","0","sortemnél","[""sortemnél"",""sortemnál""]","","posttest trial","1",""
"html-button-response-clever","156","960217","0.0-13.0-0.36","3129","Ez itt egy trájeg. Ott vagyunk a...","0","trájegben","[""trájegben"",""trájegban""]","","posttest trial","1",""
"html-button-response-clever","157","963185","0.0-13.0-0.37","2467","Ez itt egy ítens. Ott vagyunk a...","1","ítensben","[""ítensban"",""ítensben""]","","posttest trial","1",""
"html-button-response-clever","158","966856","0.0-13.0-0.38","3170","Ez itt egy hágyét. Elneveztem a kutyámat...","0","hágyétnek","[""hágyétnek"",""hágyétnak""]","","posttest trial","1",""
"html-button-response-clever","159","971552","0.0-13.0-0.39","4195","Ez itt egy monveg. Nincs is jobb egy jó...","0","monvegnél","[""monvegnél"",""monvegnál""]","","posttest trial","1",""
"html-button-response-clever","160","976289","0.0-13.0-0.40","4235","Ez itt egy spicet. Elneveztem a kutyámat...","0","spicetnek","[""spicetnek"",""spicetnak""]","","posttest trial","1",""
"html-button-response-clever","161","979113","0.0-13.0-0.41","2323","Ez itt egy kátel. Elneveztem a kutyámat...","1","kátelnak","[""kátelnek"",""kátelnak""]","","posttest trial","1",""
"html-button-response-clever","162","984417","0.0-13.0-0.42","4802","Ez itt egy braszenc. Nincs is jobb egy jó...","0","braszencnál","[""braszencnál"",""braszencnél""]","","posttest trial","1",""
"html-button-response-clever","163","988537","0.0-13.0-0.43","3619","Ez itt egy dorzéj. Elneveztem a kutyámat...","0","dorzéjnak","[""dorzéjnak"",""dorzéjnek""]","","posttest trial","1",""
"html-button-response-clever","164","993377","0.0-13.0-0.44","4339","Ez itt egy dalenc. Nincs is jobb egy jó...","0","dalencnél","[""dalencnél"",""dalencnál""]","","posttest trial","1",""
"html-button-response-clever","165","997241","0.0-13.0-0.45","3363","Ez itt egy rapszek. Nincs is jobb egy jó...","0","rapszeknál","[""rapszeknál"",""rapszeknél""]","","posttest trial","1",""
"html-button-response-clever","166","1000489","0.0-13.0-0.46","2747","Ez itt egy dihely. Elneveztem a kutyámat...","0","dihelynek","[""dihelynek"",""dihelynak""]","","posttest trial","1",""
"html-button-response-clever","167","1003553","0.0-13.0-0.47","2563","Ez itt egy gúden. Ott vagyunk a...","1","gúdenben","[""gúdenban"",""gúdenben""]","","posttest trial","1",""
"html-button-response-clever","168","1006858","0.0-13.0-0.48","2803","Ez itt egy priszec. Ott vagyunk a...","0","priszecben","[""priszecben"",""priszecban""]","","posttest trial","1",""
"html-button-response-clever","169","1012625","0.0-13.0-0.49","5267","Ez itt egy kaszép. Elneveztem a kutyámat...","1","kaszépnek","[""kaszépnak"",""kaszépnek""]","","posttest trial","1",""
"html-button-response-clever","170","1016345","0.0-13.0-0.50","3218","Ez itt egy pijél. Nincs is jobb egy jó...","0","pijélnél","[""pijélnél"",""pijélnál""]","","posttest trial","1",""
"html-button-response-clever","171","1020193","0.0-13.0-0.51","3346","Ez itt egy lorzens. Nincs is jobb egy jó...","1","lorzensnál","[""lorzensnél"",""lorzensnál""]","","posttest trial","1",""
"html-button-response-clever","172","1028457","0.0-13.0-0.52","7763","Ez itt egy darhén. Ott vagyunk a...","0","darhénban","[""darhénban"",""darhénben""]","","posttest trial","1",""
"html-button-response-clever","173","1033753","0.0-13.0-0.53","4795","Ez itt egy zsádév. Elneveztem a kutyámat...","0","zsádévnek","[""zsádévnek"",""zsádévnak""]","","posttest trial","1",""
"html-button-response","174","1042259","0.0-14.0","8002","<p> Vége a játéknak. A teljes pontszámod 9/54.</p><p> Szép munka! &#128526;&#128526;&#128526;</p><p>A Befejezés gomb megnyomása után bezárhatod a böngészőablakot.</p>","0","","","","","",""
"html-keyboard-response","175","1047762","0.0-15.0","null","<div class=""message"">
         <p>Egy kis türelmet kérünk, amíg elmentjük az adatokat...</p>
         </div>","null","","","","","",""
