"trial_type","trial_index","time_elapsed","internal_node_id","rt","stimulus","response","response_string","choices","esp_response","trial_kind","list_number","esp_match"
"pavlovia","0","821","0.0-0.0","","","","","","","","",""
"html-button-response","1","22043","0.0-1.0","20715","<p>Kedves Résztvevő! A Budapesti Műszaki és Gazdaságtudományi Egyetem Kognitív Tudományi Tanszékének kutatásában való részvételed kérjük. A kutatásban azt vizsgáljuk, hogy a magyar anyanyelvűek hogyan használnak bizonyos szóalakokat, és hogy milyen képük van arról, hogy mások hogyan használják, hogyan képzik a szavakat. Ez hozzásegít bennünket ahhoz, hogy jobban megértsük, hogyan dolgozza fel és tárolja a nyelvet az emberi agy, és hogyan működnek, hogyan változnak egy adott közösség nyelvi konvenciói.</p><p>A vizsgálat egy rövid számítógépes feladatból fog állni. A kutatásban való részvétel önkéntes, a részvételi szándék bármikor visszavonható. A résztvevők eredményeit név nélkül kezeljük, így nem beazonosíthatók az adatok feldolgozása során. Minden személyes adatot az EU általános adatvédelmi rendeletének (GDPR) megfelelően kezelünk és legfeljebb öt éven belül megsemmisítünk. A vizsgálat jellemzően húsz percet vesz igénybe.</p><p>Kutatásvezető:</p><p>Dr. Rácz Péter, tudományos munkatárs, BME KTT</p><p>e-mail: racz.peter.marton@ttk.bme.hu</p>","0","","","","","",""
"html-button-response","2","49938","0.0-2.0","27392","<p>A kísérletben szavakat fogsz látni. Ezek között lesznek olyanok, amelyeket ismersz, de előfordulhatnak olyanok is, amelyeket nem ismersz, sőt, vannak köztük kitalált szavak is. Minden szónál látni fogsz toldalékolt alakokat. A te feladatod az lesz, hogy minden szóhoz kiválaszd azt a toldalékolt alakot, amely a te számodra ismerősebben, természetesebben hangzik. Rossz válaszok nincsenek, mert van olyan, hogy különböző embereknek más és más szó tűnik jobb választásnak. A választ úgy tudod majd kiválasztani, ha rákattintasz.</p><p>Ebben a szóválasztós játékban egy másik játékossal együtt veszel majd részt. A másik játékos is minden esetben azok közül a lehetőségek közül válogathat, mint te. Kettőtök feladata az, hogy ugyanazt a lehetőséget válasszátok minden esetben. Ahhoz, hogy ez sikerüljön, neked figyelned kell arra, hogy a másik játékos milyen válaszokat ad, és ennek alapján meg kell tippelned, hogyan választ legközelebb. Ha eltalálod, akkor pontot kapsz.</p>","0","","","","","",""
"html-button-response","3","78523","0.0-3.0","28077","<p>Kérjük, olvasd el az alábbi nyilatkozatot, és amennyiben egyetértesz vele, nyomj a Beleegyezés gombra!</p><p>Kijelentem, hogy magyar anyanyelvű személyként önként veszek részt a BME KTT kísérletében. A kutatás céljával és folyamatával kapcsolatban elegendő tájékoztatást kaptam, lehetőségem volt kérdések feltételére, és esetleges kérdéseimre megfelelő válaszokat kaptam. A tájékoztatás alapján elegendő mennyiségű információ áll a rendelkezésemre, hogy eldönthessem, részt kívánok-e venni a kutatásban.</p><p>Tisztában vagyok vele, hogy részvételi szándékomat és adataimat bármikor, indoklás nélkül visszavonhatom.</p><p>Értem és tudomásul veszem, hogy a kutatás tudományos célokat szolgál, és az általam szolgáltatott adatokat a BME kizárólag kutatási célból használja fel. Tudomásul veszem, hogy eredményeimet a többi résztvevő eredményeivel együtt kezelik, így egyéni teljesítményemről visszajelzést, szakvéleményt nem kapok.</p><p>Megértettem, hogy adataim kezelését illetően a BME az EU általános adatvédelmi rendelete (GDPR), a hatályos adatvédelmi törvény és a nemzetközi kutatás-etikai alapelvek szerint jár el. Eredményeim anonim módon kerülnek feldolgozásra, és a kutatás résztvevői az azonosításomra alkalmas adataimat harmadik félnek nem szolgáltatják ki. Engedélyezem a BME számára a jelen kutatásban felvett adataim feldolgozását és tárolását, beleértve azok későbbi kutatásokhoz való felhasználását is. Személyes adataim kezelésével kapcsolatban tájékoztatást kérhetek a kutatás résztvevőitől, az adatkezelés ellen tiltakozhatok, kérhetem személyes adataim helyesbítését, törlését vagy zárolását, valamint jogorvoslatért a Nemzeti Adatvédelmi és Információszabadság Hatósághoz fordulhatok.</p><p>Kijelentem, hogy a kutatásban való részvételem körülményeiről részletes tájékoztatást kaptam, és a feltételeket elfogadom.</p>","0","","","","","",""
"survey-text","4","99620","0.0-4.0","20580","","{""Q0"":""EW1RPT"",""Q1"":""férfi"",""Q2"":""2001"",""Q3"":""12""}","","","","","",""
"html-button-response","5","121314","0.0-5.0","21176","<p>Ebben a játékban szavakat kell toldalékolni.</p> <p>Minden körben mutatunk majd egy példamondatot, amiben lesz egy szó.</p> <p>Alatta jön egy második mondat, ezt a mondatot neked kell majd befejezni, ugyanezzel a szóval.</p> <p>Nem biztos, hogy a szó eleve ismerős lesz számodra!</p> <p>Minden mondathoz adunk két lehetőséget, ezeket balra és jobbra látod majd.</p> <p>A játék kb. negyedóráig-húsz percig tart.</p>","0","","","","","",""
"html-button-response","6","130666","0.0-6.0","8838","<p>Nézzünk egy példát!</p> <p>A példamondat: ""János nagyon szeret rancsúrozni.""</p><p>Neked ezt a mondatot kell befejezned: ""Én is szívesen...""</p><p>A lehetőségek pedig ezek:</p>","0","","","","","",""
"html-button-response","7","153122","0.0-7.0","21956","<p>Nagyon jó.</p><p>Ezt a játékot nem egyedül fogod játszani, hanem egy másik játékossal.</p><p>Mielőtt továbblépünk, összekapcsolunk titeket egymással.</p><p>Ez igénybe vehet néhány másodpercet, amihez szíves türelmed kérjük.</p>","0","","","","","",""
"html-button-response","8","158862","0.0-8.0","null","<p>Csatlakozás a másik játékoshoz...</p>","null","","","","","",""
"html-button-response","9","161393","0.0-9.0","null","<p> Sikeres kapcsolódás!</p>","null","","","","","",""
"html-button-response","10","170890","0.0-10.0","8981","<p>A következőkben ketten játsszátok a szóválasztós játékot.</p><p>A feladatotok az lesz, hogy minden körben <b>ugyanazt</b> a szót válasszátok.</p><p>Minden ilyen egyező válaszért pontot kaptok.</p><p>Próbáld meg kitalálni, mit választ a másik játékos!</p><p>Bármikor választhatsz, a körnek akkor van vége, ha mindketten döntöttetek.</p><p>Sok sikert!</p>","0","","","","","",""
"html-button-response-esp","11","180434","0.0-11.0-0.0","6314","Te bizony sokat klaráglasz. Én is sokat...","1","klaráglok","[""klaráglom"",""klaráglok""]","klaráglom","esp trial","6","false"
"html-button-response","12","183952","0.0-11.0-1.0","null","<p>A másik játékos ezt választotta: <b>klaráglom</b>.</p><p>&#10060;</p><p>A válaszaitok <b>nem</b> egyeznek meg.</p>","null","","","","feedback trial","",""
"html-button-response-esp","13","193484","0.0-11.0-0.1","4324","Te bizony sokat spüjzöl. Én is sokat...","0","spüjzöm","[""spüjzöm"",""spüjzök""]","spüjzöm","esp trial","6","true"
"html-button-response","14","197001","0.0-11.0-1.1","null","<p>A másik játékos ezt választotta: <b>spüjzöm</b>.</p><p>&#x2705;</p><p>A te válaszod és a másik játékos válasza <b>megegyeznek</b>.</p>","null","","","","feedback trial","",""
"html-button-response-esp","15","206546","0.0-11.0-0.2","4810","Te bizony sokat trádlasz. Én is sokat...","0","trádlom","[""trádlom"",""trádlok""]","trádlom","esp trial","6","true"
"html-button-response","16","210062","0.0-11.0-1.2","null","<p>A másik játékos ezt választotta: <b>trádlom</b>.</p><p>&#x2705;</p><p>A te válaszod és a másik játékos válasza <b>megegyeznek</b>.</p>","null","","","","feedback trial","",""
"html-button-response-esp","17","219600","0.0-11.0-0.3","3163","Te bizony sokat trehégszel. Én is sokat...","0","trehégszem","[""trehégszem"",""trehégszek""]","trehégszek","esp trial","6","false"
"html-button-response","18","223110","0.0-11.0-1.3","null","<p>A másik játékos ezt választotta: <b>trehégszek</b>.</p><p>&#10060;</p><p>A válaszaitok <b>nem</b> egyeznek meg.</p>","null","","","","feedback trial","",""
"html-button-response-esp","19","232649","0.0-11.0-0.4","3790","Te bizony sokat brivegzel. Én is sokat...","0","brivegzek","[""brivegzek"",""brivegzem""]","brivegzek","esp trial","6","true"
"html-button-response","20","236164","0.0-11.0-1.4","null","<p>A másik játékos ezt választotta: <b>brivegzek</b>.</p><p>&#x2705;</p><p>A te válaszod és a másik játékos válasza <b>megegyeznek</b>.</p>","null","","","","feedback trial","",""
"html-button-response-esp","21","250633","0.0-11.0-0.5","13968","Te bizony sokat pítszol. Én is sokat...","0","pítszok","[""pítszok"",""pítszom""]","pítszok","esp trial","6","true"
"html-button-response","22","254142","0.0-11.0-1.5","null","<p>A másik játékos ezt választotta: <b>pítszok</b>.</p><p>&#x2705;</p><p>A te válaszod és a másik játékos válasza <b>megegyeznek</b>.</p>","null","","","","feedback trial","",""
"html-button-response-esp","23","263687","0.0-11.0-0.6","2925","Te bizony sokat klétszel. Én is sokat...","0","klétszek","[""klétszek"",""klétszem""]","klétszek","esp trial","6","true"
"html-button-response","24","267190","0.0-11.0-1.6","null","<p>A másik játékos ezt választotta: <b>klétszek</b>.</p><p>&#x2705;</p><p>A te válaszod és a másik játékos válasza <b>megegyeznek</b>.</p>","null","","","","feedback trial","",""
"html-button-response-esp","25","276749","0.0-11.0-0.7","3896","Te bizony sokat filágzol. Én is sokat...","0","filágzok","[""filágzok"",""filágzom""]","filágzok","esp trial","6","true"
"html-button-response","26","280269","0.0-11.0-1.7","null","<p>A másik játékos ezt választotta: <b>filágzok</b>.</p><p>&#x2705;</p><p>A te válaszod és a másik játékos válasza <b>megegyeznek</b>.</p>","null","","","","feedback trial","",""
"html-button-response-esp","27","289809","0.0-11.0-0.8","3757","Te bizony sokat hurjorzol. Én is sokat...","0","hurjorzok","[""hurjorzok"",""hurjorzom""]","hurjorzom","esp trial","6","false"
"html-button-response","28","293316","0.0-11.0-1.8","null","<p>A másik játékos ezt választotta: <b>hurjorzom</b>.</p><p>&#10060;</p><p>A válaszaitok <b>nem</b> egyeznek meg.</p>","null","","","","feedback trial","",""
"html-button-response-esp","29","302860","0.0-11.0-0.9","4063","Te bizony sokat flűmlesz. Én is sokat...","0","flűmlök","[""flűmlök"",""flűmlöm""]","flűmlöm","esp trial","6","false"
"html-button-response","30","306381","0.0-11.0-1.9","null","<p>A másik játékos ezt választotta: <b>flűmlöm</b>.</p><p>&#10060;</p><p>A válaszaitok <b>nem</b> egyeznek meg.</p>","null","","","","feedback trial","",""
"html-button-response-esp","31","315928","0.0-11.0-0.10","8942","Te bizony sokat pribagszol. Én is sokat...","1","pribagszok","[""pribagszom"",""pribagszok""]","pribagszok","esp trial","6","true"
"html-button-response","32","319441","0.0-11.0-1.10","null","<p>A másik játékos ezt választotta: <b>pribagszok</b>.</p><p>&#x2705;</p><p>A te válaszod és a másik játékos válasza <b>megegyeznek</b>.</p>","null","","","","feedback trial","",""
"html-button-response-esp","33","328982","0.0-11.0-0.11","7250","Te bizony sokat salárzol. Én is sokat...","1","salárzok","[""salárzom"",""salárzok""]","salárzom","esp trial","6","false"
"html-button-response","34","332485","0.0-11.0-1.11","null","<p>A másik játékos ezt választotta: <b>salárzom</b>.</p><p>&#10060;</p><p>A válaszaitok <b>nem</b> egyeznek meg.</p>","null","","","","feedback trial","",""
"html-button-response-esp","35","342029","0.0-11.0-0.12","2120","Te bizony sokat sztrijzol. Én is sokat...","0","sztrijzok","[""sztrijzok"",""sztrijzom""]","sztrijzom","esp trial","6","false"
"html-button-response","36","345541","0.0-11.0-1.12","null","<p>A másik játékos ezt választotta: <b>sztrijzom</b>.</p><p>&#10060;</p><p>A válaszaitok <b>nem</b> egyeznek meg.</p>","null","","","","feedback trial","",""
"html-button-response-esp","37","355097","0.0-11.0-0.13","1993","Te bizony sokat hűgzöl. Én is sokat...","0","hűgzöm","[""hűgzöm"",""hűgzök""]","hűgzöm","esp trial","6","true"
"html-button-response","38","358617","0.0-11.0-1.13","null","<p>A másik játékos ezt választotta: <b>hűgzöm</b>.</p><p>&#x2705;</p><p>A te válaszod és a másik játékos válasza <b>megegyeznek</b>.</p>","null","","","","feedback trial","",""
"html-button-response-esp","39","368160","0.0-11.0-0.14","5432","Te bizony sokat nűröklesz. Én is sokat...","0","nűröklök","[""nűröklök"",""nűröklöm""]","nűröklöm","esp trial","6","false"
"html-button-response","40","371664","0.0-11.0-1.14","null","<p>A másik játékos ezt választotta: <b>nűröklöm</b>.</p><p>&#10060;</p><p>A válaszaitok <b>nem</b> egyeznek meg.</p>","null","","","","feedback trial","",""
"html-button-response-esp","41","381206","0.0-11.0-0.15","3315","Te bizony sokat gyibeslesz. Én is sokat...","0","gyibeslek","[""gyibeslek"",""gyibeslem""]","gyibeslem","esp trial","6","false"
"html-button-response","42","384723","0.0-11.0-1.15","null","<p>A másik játékos ezt választotta: <b>gyibeslem</b>.</p><p>&#10060;</p><p>A válaszaitok <b>nem</b> egyeznek meg.</p>","null","","","","feedback trial","",""
"html-button-response-esp","43","394257","0.0-11.0-0.16","4530","Te bizony sokat narádzol. Én is sokat...","1","narádzok","[""narádzom"",""narádzok""]","narádzok","esp trial","6","true"
"html-button-response","44","397769","0.0-11.0-1.16","null","<p>A másik játékos ezt választotta: <b>narádzok</b>.</p><p>&#x2705;</p><p>A te válaszod és a másik játékos válasza <b>megegyeznek</b>.</p>","null","","","","feedback trial","",""
"html-button-response-esp","45","407317","0.0-11.0-0.17","6538","Te bizony sokat lörűdzöl. Én is sokat...","0","lörűdzök","[""lörűdzök"",""lörűdzöm""]","lörűdzöm","esp trial","6","false"
"html-button-response","46","410821","0.0-11.0-1.17","null","<p>A másik játékos ezt választotta: <b>lörűdzöm</b>.</p><p>&#10060;</p><p>A válaszaitok <b>nem</b> egyeznek meg.</p>","null","","","","feedback trial","",""
"html-button-response-esp","47","420369","0.0-11.0-0.18","5717","Te bizony sokat vanylasz. Én is sokat...","1","vanylok","[""vanylom"",""vanylok""]","vanylom","esp trial","6","false"
"html-button-response","48","423882","0.0-11.0-1.18","null","<p>A másik játékos ezt választotta: <b>vanylom</b>.</p><p>&#10060;</p><p>A válaszaitok <b>nem</b> egyeznek meg.</p>","null","","","","feedback trial","",""
"html-button-response-esp","49","433424","0.0-11.0-0.19","3816","Te bizony sokat rájzol. Én is sokat...","1","rájzok","[""rájzom"",""rájzok""]","rájzom","esp trial","6","false"
"html-button-response","50","436933","0.0-11.0-1.19","null","<p>A másik játékos ezt választotta: <b>rájzom</b>.</p><p>&#10060;</p><p>A válaszaitok <b>nem</b> egyeznek meg.</p>","null","","","","feedback trial","",""
"html-button-response-esp","51","446482","0.0-11.0-0.20","4872","Te bizony sokat klivaslasz. Én is sokat...","0","klivaslok","[""klivaslok"",""klivaslom""]","klivaslom","esp trial","6","false"
"html-button-response","52","449988","0.0-11.0-1.20","null","<p>A másik játékos ezt választotta: <b>klivaslom</b>.</p><p>&#10060;</p><p>A válaszaitok <b>nem</b> egyeznek meg.</p>","null","","","","feedback trial","",""
"html-button-response-esp","53","459532","0.0-11.0-0.21","4925","Te bizony sokat ibékszel. Én is sokat...","1","ibékszem","[""ibékszek"",""ibékszem""]","ibékszek","esp trial","6","false"
"html-button-response","54","463058","0.0-11.0-1.21","null","<p>A másik játékos ezt választotta: <b>ibékszek</b>.</p><p>&#10060;</p><p>A válaszaitok <b>nem</b> egyeznek meg.</p>","null","","","","feedback trial","",""
"html-button-response-esp","55","472597","0.0-11.0-0.22","1912","Te bizony sokat spröbzöl. Én is sokat...","1","spröbzök","[""spröbzöm"",""spröbzök""]","spröbzöm","esp trial","6","false"
"html-button-response","56","476117","0.0-11.0-1.22","null","<p>A másik játékos ezt választotta: <b>spröbzöm</b>.</p><p>&#10060;</p><p>A válaszaitok <b>nem</b> egyeznek meg.</p>","null","","","","feedback trial","",""
"html-button-response-esp","57","485652","0.0-11.0-0.23","4672","Te bizony sokat bivégszel. Én is sokat...","0","bivégszem","[""bivégszem"",""bivégszek""]","bivégszek","esp trial","6","false"
"html-button-response","58","489168","0.0-11.0-1.23","null","<p>A másik játékos ezt választotta: <b>bivégszek</b>.</p><p>&#10060;</p><p>A válaszaitok <b>nem</b> egyeznek meg.</p>","null","","","","feedback trial","",""
"html-button-response-esp","59","498726","0.0-11.0-0.24","2870","Te bizony sokat spihemlesz. Én is sokat...","0","spihemlek","[""spihemlek"",""spihemlem""]","spihemlem","esp trial","6","false"
"html-button-response","60","502248","0.0-11.0-1.24","null","<p>A másik játékos ezt választotta: <b>spihemlem</b>.</p><p>&#10060;</p><p>A válaszaitok <b>nem</b> egyeznek meg.</p>","null","","","","feedback trial","",""
"html-button-response-esp","61","511784","0.0-11.0-0.25","2274","Te bizony sokat rokszol. Én is sokat...","0","rokszok","[""rokszok"",""rokszom""]","rokszok","esp trial","6","true"
"html-button-response","62","515298","0.0-11.0-1.25","null","<p>A másik játékos ezt választotta: <b>rokszok</b>.</p><p>&#x2705;</p><p>A te válaszod és a másik játékos válasza <b>megegyeznek</b>.</p>","null","","","","feedback trial","",""
"html-button-response-esp","63","524838","0.0-11.0-0.26","4210","Te bizony sokat brobódzol. Én is sokat...","0","brobódzok","[""brobódzok"",""brobódzom""]","brobódzok","esp trial","6","true"
"html-button-response","64","528346","0.0-11.0-1.26","null","<p>A másik játékos ezt választotta: <b>brobódzok</b>.</p><p>&#x2705;</p><p>A te válaszod és a másik játékos válasza <b>megegyeznek</b>.</p>","null","","","","feedback trial","",""
"html-button-response-esp","65","537884","0.0-11.0-0.27","3560","Te bizony sokat píjlasz. Én is sokat...","1","píjlom","[""píjlok"",""píjlom""]","píjlom","esp trial","6","true"
"html-button-response","66","541393","0.0-11.0-1.27","null","<p>A másik játékos ezt választotta: <b>píjlom</b>.</p><p>&#x2705;</p><p>A te válaszod és a másik játékos válasza <b>megegyeznek</b>.</p>","null","","","","feedback trial","",""
"html-button-response-esp","67","550936","0.0-11.0-0.28","3208","Te bizony sokat flitlasz. Én is sokat...","0","flitlom","[""flitlom"",""flitlok""]","flitlom","esp trial","6","true"
"html-button-response","68","554455","0.0-11.0-1.28","null","<p>A másik játékos ezt választotta: <b>flitlom</b>.</p><p>&#x2705;</p><p>A te válaszod és a másik játékos válasza <b>megegyeznek</b>.</p>","null","","","","feedback trial","",""
"html-button-response-esp","69","564003","0.0-11.0-0.29","7009","Te bizony sokat spülűdzöl. Én is sokat...","1","spülűdzök","[""spülűdzöm"",""spülűdzök""]","spülűdzöm","esp trial","6","false"
"html-button-response","70","567511","0.0-11.0-1.29","null","<p>A másik játékos ezt választotta: <b>spülűdzöm</b>.</p><p>&#10060;</p><p>A válaszaitok <b>nem</b> egyeznek meg.</p>","null","","","","feedback trial","",""
"html-button-response-esp","71","577067","0.0-11.0-0.30","2566","Te bizony sokat szibánylasz. Én is sokat...","1","szibánylok","[""szibánylom"",""szibánylok""]","szibánylom","esp trial","6","false"
"html-button-response","72","580583","0.0-11.0-1.30","null","<p>A másik játékos ezt választotta: <b>szibánylom</b>.</p><p>&#10060;</p><p>A válaszaitok <b>nem</b> egyeznek meg.</p>","null","","","","feedback trial","",""
"html-button-response-esp","73","590864","0.0-11.0-0.31","9779","Te bizony sokat tragzol. Én is sokat...","0","tragzok","[""tragzok"",""tragzom""]","tragzom","esp trial","6","false"
"html-button-response","74","594381","0.0-11.0-1.31","null","<p>A másik játékos ezt választotta: <b>tragzom</b>.</p><p>&#10060;</p><p>A válaszaitok <b>nem</b> egyeznek meg.</p>","null","","","","feedback trial","",""
"html-button-response-esp","75","603938","0.0-11.0-0.32","2585","Te bizony sokat flehénylesz. Én is sokat...","0","flehénylek","[""flehénylek"",""flehénylem""]","flehénylem","esp trial","6","false"
"html-button-response","76","607443","0.0-11.0-1.32","null","<p>A másik játékos ezt választotta: <b>flehénylem</b>.</p><p>&#10060;</p><p>A válaszaitok <b>nem</b> egyeznek meg.</p>","null","","","","feedback trial","",""
"html-button-response-esp","77","616984","0.0-11.0-0.33","3364","Te bizony sokat prínylasz. Én is sokat...","1","prínylok","[""prínylom"",""prínylok""]","prínylom","esp trial","6","false"
"html-button-response","78","620493","0.0-11.0-1.33","null","<p>A másik játékos ezt választotta: <b>prínylom</b>.</p><p>&#10060;</p><p>A válaszaitok <b>nem</b> egyeznek meg.</p>","null","","","","feedback trial","",""
"html-button-response-esp","79","630029","0.0-11.0-0.34","4749","Te bizony sokat plűbzöl. Én is sokat...","0","plűbzök","[""plűbzök"",""plűbzöm""]","plűbzöm","esp trial","6","false"
"html-button-response","80","633547","0.0-11.0-1.34","null","<p>A másik játékos ezt választotta: <b>plűbzöm</b>.</p><p>&#10060;</p><p>A válaszaitok <b>nem</b> egyeznek meg.</p>","null","","","","feedback trial","",""
"html-button-response-esp","81","643079","0.0-11.0-0.35","1495","Te bizony sokat treglesz. Én is sokat...","1","treglek","[""treglem"",""treglek""]","treglem","esp trial","6","false"
"html-button-response","82","646596","0.0-11.0-1.35","null","<p>A másik játékos ezt választotta: <b>treglem</b>.</p><p>&#10060;</p><p>A válaszaitok <b>nem</b> egyeznek meg.</p>","null","","","","feedback trial","",""
"html-button-response-esp","83","656145","0.0-11.0-0.36","1619","Te bizony sokat huroslasz. Én is sokat...","1","huroslom","[""huroslok"",""huroslom""]","huroslom","esp trial","6","true"
"html-button-response","84","659650","0.0-11.0-1.36","null","<p>A másik játékos ezt választotta: <b>huroslom</b>.</p><p>&#x2705;</p><p>A te válaszod és a másik játékos válasza <b>megegyeznek</b>.</p>","null","","","","feedback trial","",""
"html-button-response-esp","85","669197","0.0-11.0-0.37","1573","Te bizony sokat figlasz. Én is sokat...","0","figlom","[""figlom"",""figlok""]","figlom","esp trial","6","true"
"html-button-response","86","672701","0.0-11.0-1.37","null","<p>A másik játékos ezt választotta: <b>figlom</b>.</p><p>&#x2705;</p><p>A te válaszod és a másik játékos válasza <b>megegyeznek</b>.</p>","null","","","","feedback trial","",""
"html-button-response-esp","87","682247","0.0-11.0-0.38","1073","Te bizony sokat sztrűkszöl. Én is sokat...","1","sztrűkszöm","[""sztrűkszök"",""sztrűkszöm""]","sztrűkszök","esp trial","6","false"
"html-button-response","88","685753","0.0-11.0-1.38","null","<p>A másik játékos ezt választotta: <b>sztrűkszök</b>.</p><p>&#10060;</p><p>A válaszaitok <b>nem</b> egyeznek meg.</p>","null","","","","feedback trial","",""
"html-button-response-esp","89","695314","0.0-11.0-0.39","1188","Te bizony sokat bihánylasz. Én is sokat...","0","bihánylok","[""bihánylok"",""bihánylom""]","bihánylom","esp trial","6","false"
"html-button-response","90","698820","0.0-11.0-1.39","null","<p>A másik játékos ezt választotta: <b>bihánylom</b>.</p><p>&#10060;</p><p>A válaszaitok <b>nem</b> egyeznek meg.</p>","null","","","","feedback trial","",""
"html-button-response-esp","91","708380","0.0-11.0-0.40","2231","Te bizony sokat spubonylasz. Én is sokat...","1","spubonylok","[""spubonylom"",""spubonylok""]","spubonylom","esp trial","6","false"
"html-button-response","92","711894","0.0-11.0-1.40","null","<p>A másik játékos ezt választotta: <b>spubonylom</b>.</p><p>&#10060;</p><p>A válaszaitok <b>nem</b> egyeznek meg.</p>","null","","","","feedback trial","",""
"html-button-response-esp","93","721429","0.0-11.0-0.41","1316","Te bizony sokat flehékszel. Én is sokat...","0","flehékszem","[""flehékszem"",""flehékszek""]","flehékszek","esp trial","6","false"
"html-button-response","94","724935","0.0-11.0-1.41","null","<p>A másik játékos ezt választotta: <b>flehékszek</b>.</p><p>&#10060;</p><p>A válaszaitok <b>nem</b> egyeznek meg.</p>","null","","","","feedback trial","",""
"html-button-response-esp","95","734481","0.0-11.0-0.42","810","Te bizony sokat plugzol. Én is sokat...","0","plugzom","[""plugzom"",""plugzok""]","plugzok","esp trial","6","false"
"html-button-response","96","737990","0.0-11.0-1.42","null","<p>A másik játékos ezt választotta: <b>plugzok</b>.</p><p>&#10060;</p><p>A válaszaitok <b>nem</b> egyeznek meg.</p>","null","","","","feedback trial","",""
"html-button-response-esp","97","747522","0.0-11.0-0.43","2140","Te bizony sokat sztrozlasz. Én is sokat...","0","sztrozlok","[""sztrozlok"",""sztrozlom""]","sztrozlom","esp trial","6","false"
"html-button-response","98","751032","0.0-11.0-1.43","null","<p>A másik játékos ezt választotta: <b>sztrozlom</b>.</p><p>&#10060;</p><p>A válaszaitok <b>nem</b> egyeznek meg.</p>","null","","","","feedback trial","",""
"html-button-response-esp","99","760587","0.0-11.0-0.44","1204","Te bizony sokat vülődzöl. Én is sokat...","0","vülődzök","[""vülődzök"",""vülődzöm""]","vülődzöm","esp trial","6","false"
"html-button-response","100","764115","0.0-11.0-1.44","null","<p>A másik játékos ezt választotta: <b>vülődzöm</b>.</p><p>&#10060;</p><p>A válaszaitok <b>nem</b> egyeznek meg.</p>","null","","","","feedback trial","",""
"html-button-response-esp","101","773658","0.0-11.0-0.45","1316","Te bizony sokat spihegzel. Én is sokat...","1","spihegzek","[""spihegzem"",""spihegzek""]","spihegzem","esp trial","6","false"
"html-button-response","102","777168","0.0-11.0-1.45","null","<p>A másik játékos ezt választotta: <b>spihegzem</b>.</p><p>&#10060;</p><p>A válaszaitok <b>nem</b> egyeznek meg.</p>","null","","","","feedback trial","",""
"html-button-response-esp","103","786704","0.0-11.0-0.46","1032","Te bizony sokat flátszol. Én is sokat...","0","flátszom","[""flátszom"",""flátszok""]","flátszok","esp trial","6","false"
"html-button-response","104","790209","0.0-11.0-1.46","null","<p>A másik játékos ezt választotta: <b>flátszok</b>.</p><p>&#10060;</p><p>A válaszaitok <b>nem</b> egyeznek meg.</p>","null","","","","feedback trial","",""
"html-button-response-esp","105","799753","0.0-11.0-0.47","1361","Te bizony sokat bűtszöl. Én is sokat...","1","bűtszöm","[""bűtszök"",""bűtszöm""]","bűtszöm","esp trial","6","true"
"html-button-response","106","803286","0.0-11.0-1.47","null","<p>A másik játékos ezt választotta: <b>bűtszöm</b>.</p><p>&#x2705;</p><p>A te válaszod és a másik játékos válasza <b>megegyeznek</b>.</p>","null","","","","feedback trial","",""
"html-button-response-esp","107","812831","0.0-11.0-0.48","1171","Te bizony sokat pribemlesz. Én is sokat...","1","pribemlem","[""pribemlek"",""pribemlem""]","pribemlem","esp trial","6","true"
"html-button-response","108","816344","0.0-11.0-1.48","null","<p>A másik játékos ezt választotta: <b>pribemlem</b>.</p><p>&#x2705;</p><p>A te válaszod és a másik játékos válasza <b>megegyeznek</b>.</p>","null","","","","feedback trial","",""
"html-button-response-esp","109","825898","0.0-11.0-0.49","1069","Te bizony sokat frodlasz. Én is sokat...","1","frodlom","[""frodlok"",""frodlom""]","frodlom","esp trial","6","true"
"html-button-response","110","829406","0.0-11.0-1.49","null","<p>A másik játékos ezt választotta: <b>frodlom</b>.</p><p>&#x2705;</p><p>A te válaszod és a másik játékos válasza <b>megegyeznek</b>.</p>","null","","","","feedback trial","",""
"html-button-response-esp","111","838945","0.0-11.0-0.50","659","Te bizony sokat brubzol. Én is sokat...","1","brubzom","[""brubzok"",""brubzom""]","brubzom","esp trial","6","true"
"html-button-response","112","842458","0.0-11.0-1.50","null","<p>A másik játékos ezt választotta: <b>brubzom</b>.</p><p>&#x2705;</p><p>A te válaszod és a másik játékos válasza <b>megegyeznek</b>.</p>","null","","","","feedback trial","",""
"html-button-response-esp","113","852012","0.0-11.0-0.51","834","Te bizony sokat düjzöl. Én is sokat...","1","düjzöm","[""düjzök"",""düjzöm""]","düjzöm","esp trial","6","true"
"html-button-response","114","855519","0.0-11.0-1.51","null","<p>A másik játékos ezt választotta: <b>düjzöm</b>.</p><p>&#x2705;</p><p>A te válaszod és a másik játékos válasza <b>megegyeznek</b>.</p>","null","","","","feedback trial","",""
"html-button-response-esp","115","865079","0.0-11.0-0.52","1076","Te bizony sokat spáraklasz. Én is sokat...","0","spáraklom","[""spáraklom"",""spáraklok""]","spáraklom","esp trial","6","true"
"html-button-response","116","868589","0.0-11.0-1.52","null","<p>A másik játékos ezt választotta: <b>spáraklom</b>.</p><p>&#x2705;</p><p>A te válaszod és a másik játékos válasza <b>megegyeznek</b>.</p>","null","","","","feedback trial","",""
"html-button-response-esp","117","878135","0.0-11.0-0.53","979","Te bizony sokat jonylasz. Én is sokat...","0","jonylom","[""jonylom"",""jonylok""]","jonylom","esp trial","6","true"
"html-button-response","118","881665","0.0-11.0-1.53","null","<p>A másik játékos ezt választotta: <b>jonylom</b>.</p><p>&#x2705;</p><p>A te válaszod és a másik játékos válasza <b>megegyeznek</b>.</p>","null","","","","feedback trial","",""
"html-button-response","119","898680","0.0-12.0","16512","<p>A közös játék most véget ért.</p><p>Mielőtt eláruljuk a végső pontszámodat, arra kérlek, játszd a szóválasztós játékot néhány percig egyedül is.</p><p>A feladatod ugyanaz lesz, választani két lehetőség közül.</p><p>Most viszont egyedül kell döntened, hogy te melyiket választanád.</p>","0","","","","","",""
"html-button-response-clever","120","912695","0.0-13.0-0.0","13503","Te bizony sokat friszlasz. Én is sokat...","1","friszlok","[""friszlom"",""friszlok""]","","posttest trial","8",""
"html-button-response-clever","121","920151","0.0-13.0-0.1","6940","Te bizony sokat spülöklesz. Én is sokat...","1","spülöklök","[""spülöklöm"",""spülöklök""]","","posttest trial","8",""
"html-button-response-clever","122","931639","0.0-13.0-0.2","10987","Te bizony sokat péleslesz. Én is sokat...","0","péleslek","[""péleslek"",""péleslem""]","","posttest trial","8",""
"html-button-response-clever","123","939040","0.0-13.0-0.3","6885","Te bizony sokat lihadzol. Én is sokat...","0","lihadzom","[""lihadzom"",""lihadzok""]","","posttest trial","8",""
"html-button-response-clever","124","947335","0.0-13.0-0.4","7780","Te bizony sokat spüszlesz. Én is sokat...","0","spüszlök","[""spüszlök"",""spüszlöm""]","","posttest trial","8",""
"html-button-response-clever","125","950391","0.0-13.0-0.5","2546","Te bizony sokat floglasz. Én is sokat...","0","floglok","[""floglok"",""floglom""]","","posttest trial","8",""
"html-button-response-clever","126","952759","0.0-13.0-0.6","1853","Te bizony sokat féjzel. Én is sokat...","0","féjzem","[""féjzem"",""féjzek""]","","posttest trial","8",""
"html-button-response-clever","127","955463","0.0-13.0-0.7","2201","Te bizony sokat flözlesz. Én is sokat...","0","flözlök","[""flözlök"",""flözlöm""]","","posttest trial","8",""
"html-button-response-clever","128","959815","0.0-13.0-0.8","3846","Te bizony sokat spírzol. Én is sokat...","1","spírzok","[""spírzom"",""spírzok""]","","posttest trial","8",""
"html-button-response-clever","129","968039","0.0-13.0-0.9","7721","Te bizony sokat prezlesz. Én is sokat...","1","prezlek","[""prezlem"",""prezlek""]","","posttest trial","8",""
"html-button-response-clever","130","970271","0.0-13.0-0.10","1717","Te bizony sokat mékszel. Én is sokat...","0","mékszem","[""mékszem"",""mékszek""]","","posttest trial","8",""
"html-button-response-clever","131","972607","0.0-13.0-0.11","1826","Te bizony sokat spibádzol. Én is sokat...","1","spibádzom","[""spibádzok"",""spibádzom""]","","posttest trial","8",""
"html-button-response-clever","132","974999","0.0-13.0-0.12","1889","Te bizony sokat plövőrzöl. Én is sokat...","0","plövőrzöm","[""plövőrzöm"",""plövőrzök""]","","posttest trial","8",""
"html-button-response-clever","133","979351","0.0-13.0-0.13","3836","Te bizony sokat spülőrzöl. Én is sokat...","0","spülőrzöm","[""spülőrzöm"",""spülőrzök""]","","posttest trial","8",""
"html-button-response-clever","134","982975","0.0-13.0-0.14","3114","Te bizony sokat csólorzol. Én is sokat...","1","csólorzom","[""csólorzok"",""csólorzom""]","","posttest trial","8",""
"html-button-response-clever","135","984855","0.0-13.0-0.15","1364","Te bizony sokat flérlesz. Én is sokat...","1","flérlek","[""flérlem"",""flérlek""]","","posttest trial","8",""
"html-button-response-clever","136","987183","0.0-13.0-0.16","1814","Te bizony sokat gyivádzol. Én is sokat...","0","gyivádzom","[""gyivádzom"",""gyivádzok""]","","posttest trial","8",""
"html-button-response-clever","137","989807","0.0-13.0-0.17","2112","Te bizony sokat fligzol. Én is sokat...","0","fligzok","[""fligzok"",""fligzom""]","","posttest trial","8",""
"html-button-response-clever","138","992895","0.0-13.0-0.18","2586","Te bizony sokat prohódzol. Én is sokat...","0","prohódzok","[""prohódzok"",""prohódzom""]","","posttest trial","8",""
"html-button-response-clever","139","995134","0.0-13.0-0.19","1730","Te bizony sokat aglasz. Én is sokat...","1","aglok","[""aglom"",""aglok""]","","posttest trial","8",""
"html-button-response-clever","140","997439","0.0-13.0-0.20","1794","Te bizony sokat flibekszel. Én is sokat...","0","flibekszem","[""flibekszem"",""flibekszek""]","","posttest trial","8",""
"html-button-response-clever","141","999512","0.0-13.0-0.21","1570","Te bizony sokat frágapszol. Én is sokat...","1","frágapszom","[""frágapszok"",""frágapszom""]","","posttest trial","8",""
"html-button-response-clever","142","1001703","0.0-13.0-0.22","1683","Te bizony sokat táklasz. Én is sokat...","0","táklok","[""táklok"",""táklom""]","","posttest trial","8",""
"html-button-response-clever","143","1005343","0.0-13.0-0.23","3134","Te bizony sokat zödlesz. Én is sokat...","1","zödlök","[""zödlöm"",""zödlök""]","","posttest trial","8",""
"html-button-response-clever","144","1007456","0.0-13.0-0.24","1608","Te bizony sokat bivejlesz. Én is sokat...","1","bivejlek","[""bivejlem"",""bivejlek""]","","posttest trial","8",""
"html-button-response-clever","145","1010087","0.0-13.0-0.25","2120","Te bizony sokat frivajlasz. Én is sokat...","1","frivajlok","[""frivajlom"",""frivajlok""]","","posttest trial","8",""
"html-button-response-clever","146","1012199","0.0-13.0-0.26","1607","Te bizony sokat klárzol. Én is sokat...","1","klárzom","[""klárzok"",""klárzom""]","","posttest trial","8",""
"html-button-response-clever","147","1014895","0.0-13.0-0.27","2194","Te bizony sokat fliraklasz. Én is sokat...","0","fliraklok","[""fliraklok"",""fliraklom""]","","posttest trial","8",""
"html-button-response-clever","148","1017351","0.0-13.0-0.28","1940","Te bizony sokat sprédlesz. Én is sokat...","0","sprédlek","[""sprédlek"",""sprédlem""]","","posttest trial","8",""
"html-button-response-clever","149","1019751","0.0-13.0-0.29","1892","Te bizony sokat praslasz. Én is sokat...","0","praslok","[""praslok"",""praslom""]","","posttest trial","8",""
"html-button-response-clever","150","1021407","0.0-13.0-0.30","1145","Te bizony sokat spatszol. Én is sokat...","1","spatszom","[""spatszok"",""spatszom""]","","posttest trial","8",""
"html-button-response-clever","151","1024527","0.0-13.0-0.31","2603","Te bizony sokat brarlasz. Én is sokat...","1","brarlok","[""brarlom"",""brarlok""]","","posttest trial","8",""
"html-button-response-clever","152","1027639","0.0-13.0-0.32","2596","Te bizony sokat trihagzol. Én is sokat...","0","trihagzom","[""trihagzom"",""trihagzok""]","","posttest trial","8",""
"html-button-response-clever","153","1029671","0.0-13.0-0.33","1519","Te bizony sokat sprálszol. Én is sokat...","1","sprálszom","[""sprálszok"",""sprálszom""]","","posttest trial","8",""
"html-button-response-clever","154","1031951","0.0-13.0-0.34","1764","Te bizony sokat gilárzol. Én is sokat...","1","gilárzom","[""gilárzok"",""gilárzom""]","","posttest trial","8",""
"html-button-response-clever","155","1033935","0.0-13.0-0.35","1474","Te bizony sokat spélszel. Én is sokat...","0","spélszek","[""spélszek"",""spélszem""]","","posttest trial","8",""
"html-button-response-clever","156","1036199","0.0-13.0-0.36","1757","Te bizony sokat gerénylesz. Én is sokat...","0","gerénylek","[""gerénylek"",""gerénylem""]","","posttest trial","8",""
"html-button-response-clever","157","1038694","0.0-13.0-0.37","1983","Te bizony sokat prihekszel. Én is sokat...","1","prihekszem","[""prihekszek"",""prihekszem""]","","posttest trial","8",""
"html-button-response-clever","158","1040431","0.0-13.0-0.38","1222","Te bizony sokat tuboklasz. Én is sokat...","1","tuboklom","[""tuboklok"",""tuboklom""]","","posttest trial","8",""
"html-button-response-clever","159","1042143","0.0-13.0-0.39","1205","Te bizony sokat huklasz. Én is sokat...","1","huklom","[""huklok"",""huklom""]","","posttest trial","8",""
"html-button-response-clever","160","1044391","0.0-13.0-0.40","1737","Te bizony sokat préleglesz. Én is sokat...","0","préleglek","[""préleglek"",""préleglem""]","","posttest trial","8",""
"html-button-response-clever","161","1046310","0.0-13.0-0.41","1417","Te bizony sokat szűslesz. Én is sokat...","0","szűslök","[""szűslök"",""szűslöm""]","","posttest trial","8",""
"html-button-response-clever","162","1049495","0.0-13.0-0.42","2670","Te bizony sokat drügzöl. Én is sokat...","1","drügzöm","[""drügzök"",""drügzöm""]","","posttest trial","8",""
"html-button-response-clever","163","1052449","0.0-13.0-0.43","2450","Te bizony sokat vűjlesz. Én is sokat...","0","vűjlök","[""vűjlök"",""vűjlöm""]","","posttest trial","8",""
"html-button-response-clever","164","1057047","0.0-13.0-0.44","4094","Te bizony sokat vihepszel. Én is sokat...","0","vihepszem","[""vihepszem"",""vihepszek""]","","posttest trial","8",""
"html-button-response-clever","165","1059615","0.0-13.0-0.45","2056","Te bizony sokat sztruglasz. Én is sokat...","0","sztruglom","[""sztruglom"",""sztruglok""]","","posttest trial","8",""
"html-button-response-clever","166","1061423","0.0-13.0-0.46","1304","Te bizony sokat livaklasz. Én is sokat...","1","livaklom","[""livaklok"",""livaklom""]","","posttest trial","8",""
"html-button-response-clever","167","1063183","0.0-13.0-0.47","1247","Te bizony sokat fivénylesz. Én is sokat...","1","fivénylek","[""fivénylem"",""fivénylek""]","","posttest trial","8",""
"html-button-response-clever","168","1065447","0.0-13.0-0.48","1760","Te bizony sokat gyibakszol. Én is sokat...","0","gyibakszom","[""gyibakszom"",""gyibakszok""]","","posttest trial","8",""
"html-button-response-clever","169","1067192","0.0-13.0-0.49","1233","Te bizony sokat klidlasz. Én is sokat...","0","klidlok","[""klidlok"",""klidlom""]","","posttest trial","8",""
"html-button-response-clever","170","1069375","0.0-13.0-0.50","1681","Te bizony sokat kumlasz. Én is sokat...","1","kumlok","[""kumlom"",""kumlok""]","","posttest trial","8",""
"html-button-response-clever","171","1071023","0.0-13.0-0.51","1140","Te bizony sokat plágadzol. Én is sokat...","0","plágadzom","[""plágadzom"",""plágadzok""]","","posttest trial","8",""
"html-button-response-clever","172","1072558","0.0-13.0-0.52","1032","Te bizony sokat pugoslasz. Én is sokat...","1","pugoslok","[""pugoslom"",""pugoslok""]","","posttest trial","8",""
"html-button-response-clever","173","1074334","0.0-13.0-0.53","1271","Te bizony sokat ibáglasz. Én is sokat...","1","ibáglok","[""ibáglom"",""ibáglok""]","","posttest trial","8",""
"html-button-response","174","1080047","0.0-14.0","5198","<p> Vége a játéknak. A teljes pontszámod 22/54.</p><p> Szép munka! &#128526;&#128526;&#128526;</p><p>A Befejezés gomb megnyomása után bezárhatod a böngészőablakot.</p>","0","","","","","",""
"html-keyboard-response","175","1085562","0.0-15.0","null","<div class=""message"">
         <p>Egy kis türelmet kérünk, amíg elmentjük az adatokat...</p>
         </div>","null","","","","","",""
