"trial_type","trial_index","time_elapsed","internal_node_id","rt","stimulus","response","response_string","choices","esp_response","trial_kind","list_number","esp_match"
"pavlovia","0","842","0.0-0.0","","","","","","","","",""
"html-button-response","1","55301","0.0-1.0","53953","<p>Kedves Résztvevő! A Budapesti Műszaki és Gazdaságtudományi Egyetem Kognitív Tudományi Tanszékének kutatásában való részvételed kérjük. A kutatásban azt vizsgáljuk, hogy a magyar anyanyelvűek hogyan használnak bizonyos szóalakokat, és hogy milyen képük van arról, hogy mások hogyan használják, hogyan képzik a szavakat. Ez hozzásegít bennünket ahhoz, hogy jobban megértsük, hogyan dolgozza fel és tárolja a nyelvet az emberi agy, és hogyan működnek, hogyan változnak egy adott közösség nyelvi konvenciói.</p><p>A vizsgálat egy rövid számítógépes feladatból fog állni. A kutatásban való részvétel önkéntes, a részvételi szándék bármikor visszavonható. A résztvevők eredményeit név nélkül kezeljük, így nem beazonosíthatók az adatok feldolgozása során. Minden személyes adatot az EU általános adatvédelmi rendeletének (GDPR) megfelelően kezelünk és legfeljebb öt éven belül megsemmisítünk. A vizsgálat jellemzően húsz percet vesz igénybe.</p><p>Kutatásvezető:</p><p>Dr. Rácz Péter, tudományos munkatárs, BME KTT</p><p>e-mail: racz.peter.marton@ttk.bme.hu</p>","0","","","","","",""
"html-button-response","2","91713","0.0-2.0","35895","<p>A kísérletben szavakat fogsz látni. Ezek között lesznek olyanok, amelyeket ismersz, de előfordulhatnak olyanok is, amelyeket nem ismersz, sőt, vannak köztük kitalált szavak is. Minden szónál látni fogsz toldalékolt alakokat. A te feladatod az lesz, hogy minden szóhoz kiválaszd azt a toldalékolt alakot, amely a te számodra ismerősebben, természetesebben hangzik. Rossz válaszok nincsenek, mert van olyan, hogy különböző embereknek más és más szó tűnik jobb választásnak. A választ úgy tudod majd kiválasztani, ha rákattintasz.</p><p>Ebben a szóválasztós játékban egy másik játékossal együtt veszel majd részt. A másik játékos is minden esetben azok közül a lehetőségek közül válogathat, mint te. Kettőtök feladata az, hogy ugyanazt a lehetőséget válasszátok minden esetben. Ahhoz, hogy ez sikerüljön, neked figyelned kell arra, hogy a másik játékos milyen válaszokat ad, és ennek alapján meg kell tippelned, hogyan választ legközelebb. Ha eltalálod, akkor pontot kapsz.</p>","0","","","","","",""
"html-button-response","3","119996","0.0-3.0","27774","<p>Kérjük, olvasd el az alábbi nyilatkozatot, és amennyiben egyetértesz vele, nyomj a Beleegyezés gombra!</p><p>Kijelentem, hogy magyar anyanyelvű személyként önként veszek részt a BME KTT kísérletében. A kutatás céljával és folyamatával kapcsolatban elegendő tájékoztatást kaptam, lehetőségem volt kérdések feltételére, és esetleges kérdéseimre megfelelő válaszokat kaptam. A tájékoztatás alapján elegendő mennyiségű információ áll a rendelkezésemre, hogy eldönthessem, részt kívánok-e venni a kutatásban.</p><p>Tisztában vagyok vele, hogy részvételi szándékomat és adataimat bármikor, indoklás nélkül visszavonhatom.</p><p>Értem és tudomásul veszem, hogy a kutatás tudományos célokat szolgál, és az általam szolgáltatott adatokat a BME kizárólag kutatási célból használja fel. Tudomásul veszem, hogy eredményeimet a többi résztvevő eredményeivel együtt kezelik, így egyéni teljesítményemről visszajelzést, szakvéleményt nem kapok.</p><p>Megértettem, hogy adataim kezelését illetően a BME az EU általános adatvédelmi rendelete (GDPR), a hatályos adatvédelmi törvény és a nemzetközi kutatás-etikai alapelvek szerint jár el. Eredményeim anonim módon kerülnek feldolgozásra, és a kutatás résztvevői az azonosításomra alkalmas adataimat harmadik félnek nem szolgáltatják ki. Engedélyezem a BME számára a jelen kutatásban felvett adataim feldolgozását és tárolását, beleértve azok későbbi kutatásokhoz való felhasználását is. Személyes adataim kezelésével kapcsolatban tájékoztatást kérhetek a kutatás résztvevőitől, az adatkezelés ellen tiltakozhatok, kérhetem személyes adataim helyesbítését, törlését vagy zárolását, valamint jogorvoslatért a Nemzeti Adatvédelmi és Információszabadság Hatósághoz fordulhatok.</p><p>Kijelentem, hogy a kutatásban való részvételem körülményeiről részletes tájékoztatást kaptam, és a feltételeket elfogadom.</p>","0","","","","","",""
"survey-text","4","172061","0.0-4.0","51555","","{""Q0"":""ANEKY8"",""Q1"":"""",""Q2"":""1987"",""Q3"":""18""}","","","","","",""
"html-button-response","5","214377","0.0-5.0","41814","<p>Ebben a játékban szavakat kell toldalékolni.</p> <p>Minden körben mutatunk majd egy példamondatot, amiben lesz egy szó.</p> <p>Alatta jön egy második mondat, ezt a mondatot neked kell majd befejezni, ugyanezzel a szóval.</p> <p>Nem biztos, hogy a szó eleve ismerős lesz számodra!</p> <p>Minden mondathoz adunk két lehetőséget, ezeket balra és jobbra látod majd.</p> <p>A játék kb. negyedóráig-húsz percig tart.</p>","0","","","","","",""
"html-button-response","6","230948","0.0-6.0","16058","<p>Nézzünk egy példát!</p> <p>A példamondat: ""Ez itt egy blumbnyeg.""</p><p>Neked ezt a mondatot kell befejezned: ""Ott vagyunk a...""</p><p>A lehetőségek pedig ezek:</p>","0","","","","","",""
"html-button-response","7","238897","0.0-7.0","7438","<p>Nagyon jó.</p><p>Ezt a játékot nem egyedül fogod játszani, hanem egy másik játékossal.</p><p>Mielőtt továbblépünk, összekapcsolunk titeket egymással.</p><p>Ez igénybe vehet néhány másodpercet, amihez szíves türelmed kérjük.</p>","0","","","","","",""
"html-button-response","8","244635","0.0-8.0","null","<p>Csatlakozás a másik játékoshoz...</p>","null","","","","","",""
"html-button-response","9","247156","0.0-9.0","null","<p> Sikeres kapcsolódás!</p>","null","","","","","",""
"html-button-response","10","257671","0.0-10.0","null","<p>A következőkben ketten játsszátok a szóválasztós játékot.</p><p>A feladatotok az lesz, hogy minden körben <b>ugyanazt</b> a szót válasszátok.</p><p>Minden ilyen egyező válaszért pontot kaptok.</p><p>Próbáld meg kitalálni, mit választ a másik játékos!</p><p>Bármikor választhatsz, a körnek akkor van vége, ha mindketten döntöttetek.</p><p>Sok sikert!</p>","null","","","","","",""
"html-button-response-esp","11","263678","0.0-11.0-0.0","5495","Ez itt egy kalhész. Elneveztem a kutyámat...","0","kalhésznek","[""kalhésznek"",""kalhésznak""]","kalhésznak","esp trial","1","false"
"html-button-response","12","267202","0.0-11.0-1.0","null","<p>A másik játékos ezt választotta: <b>kalhésznak</b>.</p><p>&#10060;</p><p>A válaszaitok <b>nem</b> egyeznek meg.</p>","null","","","","feedback trial","",""
"html-button-response-esp","13","272627","0.0-11.0-0.1","3739","Ez itt egy incéj. Elneveztem a kutyámat...","0","incéjnek","[""incéjnek"",""incéjnak""]","incéjnek","esp trial","1","true"
"html-button-response","14","276145","0.0-11.0-1.1","null","<p>A másik játékos ezt választotta: <b>incéjnek</b>.</p><p>&#x2705;</p><p>A te válaszod és a másik játékos válasza <b>megegyeznek</b>.</p>","null","","","","feedback trial","",""
"html-button-response-esp","15","281566","0.0-11.0-0.2","3001","Ez itt egy dorzéj. Elneveztem a kutyámat...","0","dorzéjnek","[""dorzéjnek"",""dorzéjnak""]","dorzéjnak","esp trial","1","false"
"html-button-response","16","285088","0.0-11.0-1.2","null","<p>A másik játékos ezt választotta: <b>dorzéjnak</b>.</p><p>&#10060;</p><p>A válaszaitok <b>nem</b> egyeznek meg.</p>","null","","","","feedback trial","",""
"html-button-response-esp","17","290495","0.0-11.0-0.3","4471","Ez itt egy zsáder. Ott vagyunk a...","0","zsáderben","[""zsáderben"",""zsáderban""]","zsáderban","esp trial","1","false"
"html-button-response","18","294004","0.0-11.0-1.3","null","<p>A másik játékos ezt választotta: <b>zsáderban</b>.</p><p>&#10060;</p><p>A válaszaitok <b>nem</b> egyeznek meg.</p>","null","","","","feedback trial","",""
"html-button-response-esp","19","299412","0.0-11.0-0.4","4282","Ez itt egy pijél. Nincs is jobb egy jó...","0","pijélnél","[""pijélnél"",""pijélnál""]","pijélnél","esp trial","1","true"
"html-button-response","20","302920","0.0-11.0-1.4","null","<p>A másik játékos ezt választotta: <b>pijélnél</b>.</p><p>&#x2705;</p><p>A te válaszod és a másik játékos válasza <b>megegyeznek</b>.</p>","null","","","","feedback trial","",""
"html-button-response-esp","21","308335","0.0-11.0-0.5","4449","Ez itt egy nyítem. Ott vagyunk a...","0","nyítemben","[""nyítemben"",""nyítemban""]","nyítemben","esp trial","1","true"
"html-button-response","22","311847","0.0-11.0-1.5","null","<p>A másik játékos ezt választotta: <b>nyítemben</b>.</p><p>&#x2705;</p><p>A te válaszod és a másik játékos válasza <b>megegyeznek</b>.</p>","null","","","","feedback trial","",""
"html-button-response-esp","23","317262","0.0-11.0-0.6","4415","Ez itt egy spábét. Ott vagyunk a...","0","spábétban","[""spábétban"",""spábétben""]","spábétban","esp trial","1","true"
"html-button-response","24","320781","0.0-11.0-1.6","null","<p>A másik játékos ezt választotta: <b>spábétban</b>.</p><p>&#x2705;</p><p>A te válaszod és a másik játékos válasza <b>megegyeznek</b>.</p>","null","","","","feedback trial","",""
"html-button-response-esp","25","326184","0.0-11.0-0.7","4517","Ez itt egy sortem. Nincs is jobb egy jó...","1","sortemnél","[""sortemnál"",""sortemnél""]","sortemnál","esp trial","1","false"
"html-button-response","26","329712","0.0-11.0-1.7","null","<p>A másik játékos ezt választotta: <b>sortemnál</b>.</p><p>&#10060;</p><p>A válaszaitok <b>nem</b> egyeznek meg.</p>","null","","","","feedback trial","",""
"html-button-response-esp","27","336301","0.0-11.0-0.8","6084","Ez itt egy zopély. Nincs is jobb egy jó...","0","zopélynél","[""zopélynél"",""zopélynál""]","zopélynál","esp trial","1","false"
"html-button-response","28","339812","0.0-11.0-1.8","null","<p>A másik játékos ezt választotta: <b>zopélynál</b>.</p><p>&#10060;</p><p>A válaszaitok <b>nem</b> egyeznek meg.</p>","null","","","","feedback trial","",""
"html-button-response-esp","29","345220","0.0-11.0-0.9","3293","Ez itt egy zsádév. Elneveztem a kutyámat...","1","zsádévnak","[""zsádévnek"",""zsádévnak""]","zsádévnak","esp trial","1","true"
"html-button-response","30","348740","0.0-11.0-1.9","null","<p>A másik játékos ezt választotta: <b>zsádévnak</b>.</p><p>&#x2705;</p><p>A te válaszod és a másik játékos válasza <b>megegyeznek</b>.</p>","null","","","","feedback trial","",""
"html-button-response-esp","31","354161","0.0-11.0-0.10","3827","Ez itt egy bupéz. Ott vagyunk a...","0","bupézban","[""bupézban"",""bupézben""]","bupézban","esp trial","1","true"
"html-button-response","32","357683","0.0-11.0-1.10","null","<p>A másik játékos ezt választotta: <b>bupézban</b>.</p><p>&#x2705;</p><p>A te válaszod és a másik játékos válasza <b>megegyeznek</b>.</p>","null","","","","feedback trial","",""
"html-button-response-esp","33","363105","0.0-11.0-0.11","3736","Ez itt egy ítens. Ott vagyunk a...","0","ítensben","[""ítensben"",""ítensban""]","ítensban","esp trial","1","false"
"html-button-response","34","366621","0.0-11.0-1.11","null","<p>A másik játékos ezt választotta: <b>ítensban</b>.</p><p>&#10060;</p><p>A válaszaitok <b>nem</b> egyeznek meg.</p>","null","","","","feedback trial","",""
"html-button-response-esp","35","372416","0.0-11.0-0.12","5285","Ez itt egy kátel. Elneveztem a kutyámat...","1","kátelnak","[""kátelnek"",""kátelnak""]","kátelnak","esp trial","1","true"
"html-button-response","36","375938","0.0-11.0-1.12","null","<p>A másik játékos ezt választotta: <b>kátelnak</b>.</p><p>&#x2705;</p><p>A te válaszod és a másik játékos válasza <b>megegyeznek</b>.</p>","null","","","","feedback trial","",""
"html-button-response-esp","37","381363","0.0-11.0-0.13","3944","Ez itt egy dihely. Elneveztem a kutyámat...","0","dihelynek","[""dihelynek"",""dihelynak""]","dihelynek","esp trial","1","true"
"html-button-response","38","384878","0.0-11.0-1.13","null","<p>A másik játékos ezt választotta: <b>dihelynek</b>.</p><p>&#x2705;</p><p>A te válaszod és a másik játékos válasza <b>megegyeznek</b>.</p>","null","","","","feedback trial","",""
"html-button-response-esp","39","390298","0.0-11.0-0.14","3419","Ez itt egy gúden. Ott vagyunk a...","0","gúdenben","[""gúdenben"",""gúdenban""]","gúdenben","esp trial","1","true"
"html-button-response","40","393820","0.0-11.0-1.14","null","<p>A másik játékos ezt választotta: <b>gúdenben</b>.</p><p>&#x2705;</p><p>A te válaszod és a másik játékos válasza <b>megegyeznek</b>.</p>","null","","","","feedback trial","",""
"html-button-response-esp","41","399233","0.0-11.0-0.15","4623","Ez itt egy darhén. Ott vagyunk a...","0","darhénban","[""darhénban"",""darhénben""]","darhénban","esp trial","1","true"
"html-button-response","42","402749","0.0-11.0-1.15","null","<p>A másik játékos ezt választotta: <b>darhénban</b>.</p><p>&#x2705;</p><p>A te válaszod és a másik játékos válasza <b>megegyeznek</b>.</p>","null","","","","feedback trial","",""
"html-button-response-esp","43","409408","0.0-11.0-0.16","6158","Ez itt egy vorszen. Nincs is jobb egy jó...","0","vorszennél","[""vorszennél"",""vorszennál""]","vorszennál","esp trial","1","false"
"html-button-response","44","412931","0.0-11.0-1.16","null","<p>A másik játékos ezt választotta: <b>vorszennál</b>.</p><p>&#10060;</p><p>A válaszaitok <b>nem</b> egyeznek meg.</p>","null","","","","feedback trial","",""
"html-button-response-esp","45","419908","0.0-11.0-0.17","6468","Ez itt egy pisély. Ott vagyunk a...","0","pisélyben","[""pisélyben"",""pisélyban""]","pisélyben","esp trial","1","true"
"html-button-response","46","423420","0.0-11.0-1.17","null","<p>A másik játékos ezt választotta: <b>pisélyben</b>.</p><p>&#x2705;</p><p>A te válaszod és a másik játékos válasza <b>megegyeznek</b>.</p>","null","","","","feedback trial","",""
"html-button-response-esp","47","428826","0.0-11.0-0.18","3215","Ez itt egy jóbec. Elneveztem a kutyámat...","1","jóbecnek","[""jóbecnak"",""jóbecnek""]","jóbecnak","esp trial","1","false"
"html-button-response","48","432348","0.0-11.0-1.18","null","<p>A másik játékos ezt választotta: <b>jóbecnak</b>.</p><p>&#10060;</p><p>A válaszaitok <b>nem</b> egyeznek meg.</p>","null","","","","feedback trial","",""
"html-button-response-esp","49","438032","0.0-11.0-0.19","5172","Ez itt egy klingesz. Ott vagyunk a...","1","klingeszben","[""klingeszban"",""klingeszben""]","klingeszben","esp trial","1","true"
"html-button-response","50","441556","0.0-11.0-1.19","null","<p>A másik játékos ezt választotta: <b>klingeszben</b>.</p><p>&#x2705;</p><p>A te válaszod és a másik játékos válasza <b>megegyeznek</b>.</p>","null","","","","feedback trial","",""
"html-button-response-esp","51","448049","0.0-11.0-0.20","5991","Ez itt egy narem. Ott vagyunk a...","1","naremben","[""naremban"",""naremben""]","naremban","esp trial","1","false"
"html-button-response","52","451554","0.0-11.0-1.20","null","<p>A másik játékos ezt választotta: <b>naremban</b>.</p><p>&#10060;</p><p>A válaszaitok <b>nem</b> egyeznek meg.</p>","null","","","","feedback trial","",""
"html-button-response-esp","53","456972","0.0-11.0-0.21","4028","Ez itt egy sprivenc. Nincs is jobb egy jó...","0","sprivencnél","[""sprivencnél"",""sprivencnál""]","sprivencnél","esp trial","1","true"
"html-button-response","54","460497","0.0-11.0-1.21","null","<p>A másik játékos ezt választotta: <b>sprivencnél</b>.</p><p>&#x2705;</p><p>A te válaszod és a másik játékos válasza <b>megegyeznek</b>.</p>","null","","","","feedback trial","",""
"html-button-response-esp","55","465911","0.0-11.0-0.22","4650","Ez itt egy bralkép. Ott vagyunk a...","1","bralképban","[""bralképben"",""bralképban""]","bralképban","esp trial","1","true"
"html-button-response","56","469432","0.0-11.0-1.22","null","<p>A másik játékos ezt választotta: <b>bralképban</b>.</p><p>&#x2705;</p><p>A te válaszod és a másik játékos válasza <b>megegyeznek</b>.</p>","null","","","","feedback trial","",""
"html-button-response-esp","57","475220","0.0-11.0-0.23","5275","Ez itt egy monveg. Nincs is jobb egy jó...","1","monvegnél","[""monvegnál"",""monvegnél""]","monvegnál","esp trial","1","false"
"html-button-response","58","478743","0.0-11.0-1.23","null","<p>A másik játékos ezt választotta: <b>monvegnál</b>.</p><p>&#10060;</p><p>A válaszaitok <b>nem</b> egyeznek meg.</p>","null","","","","feedback trial","",""
"html-button-response-esp","59","484163","0.0-11.0-0.24","2959","Ez itt egy pítend. Ott vagyunk a...","0","pítendban","[""pítendban"",""pítendben""]","pítendben","esp trial","1","false"
"html-button-response","60","487678","0.0-11.0-1.24","null","<p>A másik játékos ezt választotta: <b>pítendben</b>.</p><p>&#10060;</p><p>A válaszaitok <b>nem</b> egyeznek meg.</p>","null","","","","feedback trial","",""
"html-button-response-esp","61","493096","0.0-11.0-0.25","4322","Ez itt egy nyamet. Ott vagyunk a...","0","nyametben","[""nyametben"",""nyametban""]","nyametban","esp trial","1","false"
"html-button-response","62","496617","0.0-11.0-1.25","null","<p>A másik játékos ezt választotta: <b>nyametban</b>.</p><p>&#10060;</p><p>A válaszaitok <b>nem</b> egyeznek meg.</p>","null","","","","feedback trial","",""
"html-button-response-esp","63","502027","0.0-11.0-0.26","3333","Ez itt egy brindez. Elneveztem a kutyámat...","1","brindeznak","[""brindeznek"",""brindeznak""]","brindeznek","esp trial","1","false"
"html-button-response","64","505531","0.0-11.0-1.26","null","<p>A másik játékos ezt választotta: <b>brindeznek</b>.</p><p>&#10060;</p><p>A válaszaitok <b>nem</b> egyeznek meg.</p>","null","","","","feedback trial","",""
"html-button-response-esp","65","510945","0.0-11.0-0.27","4151","Ez itt egy zsigén. Nincs is jobb egy jó...","0","zsigénnél","[""zsigénnél"",""zsigénnál""]","zsigénnél","esp trial","1","true"
"html-button-response","66","514458","0.0-11.0-1.27","null","<p>A másik játékos ezt választotta: <b>zsigénnél</b>.</p><p>&#x2705;</p><p>A te válaszod és a másik játékos válasza <b>megegyeznek</b>.</p>","null","","","","feedback trial","",""
"html-button-response-esp","67","519884","0.0-11.0-0.28","2863","Ez itt egy spicet. Elneveztem a kutyámat...","0","spicetnak","[""spicetnak"",""spicetnek""]","spicetnek","esp trial","1","false"
"html-button-response","68","523392","0.0-11.0-1.28","null","<p>A másik játékos ezt választotta: <b>spicetnek</b>.</p><p>&#10060;</p><p>A válaszaitok <b>nem</b> egyeznek meg.</p>","null","","","","feedback trial","",""
"html-button-response-esp","69","529040","0.0-11.0-0.29","5141","Ez itt egy kaszép. Elneveztem a kutyámat...","1","kaszépnek","[""kaszépnak"",""kaszépnek""]","kaszépnak","esp trial","1","false"
"html-button-response","70","532552","0.0-11.0-1.29","null","<p>A másik játékos ezt választotta: <b>kaszépnak</b>.</p><p>&#10060;</p><p>A válaszaitok <b>nem</b> egyeznek meg.</p>","null","","","","feedback trial","",""
"html-button-response-esp","71","537971","0.0-11.0-0.30","4288","Ez itt egy jukél. Nincs is jobb egy jó...","0","jukélnál","[""jukélnál"",""jukélnél""]","jukélnál","esp trial","1","true"
"html-button-response","72","541489","0.0-11.0-1.30","null","<p>A másik játékos ezt választotta: <b>jukélnál</b>.</p><p>&#x2705;</p><p>A te válaszod és a másik játékos válasza <b>megegyeznek</b>.</p>","null","","","","feedback trial","",""
"html-button-response-esp","73","546892","0.0-11.0-0.31","4417","Ez itt egy lorzens. Nincs is jobb egy jó...","1","lorzensnél","[""lorzensnál"",""lorzensnél""]","lorzensnál","esp trial","1","false"
"html-button-response","74","550403","0.0-11.0-1.31","null","<p>A másik játékos ezt választotta: <b>lorzensnál</b>.</p><p>&#10060;</p><p>A válaszaitok <b>nem</b> egyeznek meg.</p>","null","","","","feedback trial","",""
"html-button-response-esp","75","555813","0.0-11.0-0.32","3583","Ez itt egy dábegy. Ott vagyunk a...","0","dábegyben","[""dábegyben"",""dábegyban""]","dábegyban","esp trial","1","false"
"html-button-response","76","559338","0.0-11.0-1.32","null","<p>A másik játékos ezt választotta: <b>dábegyban</b>.</p><p>&#10060;</p><p>A válaszaitok <b>nem</b> egyeznek meg.</p>","null","","","","feedback trial","",""
"html-button-response-esp","77","564755","0.0-11.0-0.33","3216","Ez itt egy tosély. Ott vagyunk a...","0","tosélyban","[""tosélyban"",""tosélyben""]","tosélyban","esp trial","1","true"
"html-button-response","78","568269","0.0-11.0-1.33","null","<p>A másik játékos ezt választotta: <b>tosélyban</b>.</p><p>&#x2705;</p><p>A te válaszod és a másik játékos válasza <b>megegyeznek</b>.</p>","null","","","","feedback trial","",""
"html-button-response-esp","79","573684","0.0-11.0-0.34","3040","Ez itt egy luméz. Ott vagyunk a...","1","lumézban","[""lumézben"",""lumézban""]","lumézban","esp trial","1","true"
"html-button-response","80","577187","0.0-11.0-1.34","null","<p>A másik játékos ezt választotta: <b>lumézban</b>.</p><p>&#x2705;</p><p>A te válaszod és a másik játékos válasza <b>megegyeznek</b>.</p>","null","","","","feedback trial","",""
"html-button-response-esp","81","584064","0.0-11.0-0.35","6376","Ez itt egy spumény. Elneveztem a kutyámat...","1","spuménynek","[""spuménynak"",""spuménynek""]","spuménynak","esp trial","1","false"
"html-button-response","82","587586","0.0-11.0-1.35","null","<p>A másik játékos ezt választotta: <b>spuménynak</b>.</p><p>&#10060;</p><p>A válaszaitok <b>nem</b> egyeznek meg.</p>","null","","","","feedback trial","",""
"html-button-response-esp","83","593001","0.0-11.0-0.36","3448","Ez itt egy klosét. Elneveztem a kutyámat...","1","klosétnak","[""klosétnek"",""klosétnak""]","klosétnak","esp trial","1","true"
"html-button-response","84","596505","0.0-11.0-1.36","null","<p>A másik játékos ezt választotta: <b>klosétnak</b>.</p><p>&#x2705;</p><p>A te válaszod és a másik játékos válasza <b>megegyeznek</b>.</p>","null","","","","feedback trial","",""
"html-button-response-esp","85","601921","0.0-11.0-0.37","4395","Ez itt egy rapszek. Nincs is jobb egy jó...","0","rapszeknél","[""rapszeknél"",""rapszeknál""]","rapszeknál","esp trial","1","false"
"html-button-response","86","605434","0.0-11.0-1.37","null","<p>A másik játékos ezt választotta: <b>rapszeknál</b>.</p><p>&#10060;</p><p>A válaszaitok <b>nem</b> egyeznek meg.</p>","null","","","","feedback trial","",""
"html-button-response-esp","87","610843","0.0-11.0-0.38","3769","Ez itt egy trájeg. Ott vagyunk a...","1","trájegban","[""trájegben"",""trájegban""]","trájegban","esp trial","1","true"
"html-button-response","88","614361","0.0-11.0-1.38","null","<p>A másik játékos ezt választotta: <b>trájegban</b>.</p><p>&#x2705;</p><p>A te válaszod és a másik játékos válasza <b>megegyeznek</b>.</p>","null","","","","feedback trial","",""
"html-button-response-esp","89","619782","0.0-11.0-0.39","2653","Ez itt egy fájéz. Ott vagyunk a...","1","fájézban","[""fájézben"",""fájézban""]","fájézban","esp trial","1","true"
"html-button-response","90","623298","0.0-11.0-1.39","null","<p>A másik játékos ezt választotta: <b>fájézban</b>.</p><p>&#x2705;</p><p>A te válaszod és a másik játékos válasza <b>megegyeznek</b>.</p>","null","","","","feedback trial","",""
"html-button-response-esp","91","628705","0.0-11.0-0.40","2567","Ez itt egy ronszek. Ott vagyunk a...","1","ronszekban","[""ronszekben"",""ronszekban""]","ronszekban","esp trial","1","true"
"html-button-response","92","632228","0.0-11.0-1.40","null","<p>A másik játékos ezt választotta: <b>ronszekban</b>.</p><p>&#x2705;</p><p>A te válaszod és a másik játékos válasza <b>megegyeznek</b>.</p>","null","","","","feedback trial","",""
"html-button-response-esp","93","637629","0.0-11.0-0.41","3783","Ez itt egy trismél. Elneveztem a kutyámat...","0","trismélnak","[""trismélnak"",""trismélnek""]","trismélnek","esp trial","1","false"
"html-button-response","94","641151","0.0-11.0-1.41","null","<p>A másik játékos ezt választotta: <b>trismélnek</b>.</p><p>&#10060;</p><p>A válaszaitok <b>nem</b> egyeznek meg.</p>","null","","","","feedback trial","",""
"html-button-response-esp","95","646567","0.0-11.0-0.42","4279","Ez itt egy garcép. Nincs is jobb egy jó...","0","garcépnál","[""garcépnál"",""garcépnél""]","garcépnál","esp trial","1","true"
"html-button-response","96","650078","0.0-11.0-1.42","null","<p>A másik játékos ezt választotta: <b>garcépnál</b>.</p><p>&#x2705;</p><p>A te válaszod és a másik játékos válasza <b>megegyeznek</b>.</p>","null","","","","feedback trial","",""
"html-button-response-esp","97","656296","0.0-11.0-0.43","5712","Ez itt egy braszenc. Nincs is jobb egy jó...","0","braszencnél","[""braszencnél"",""braszencnál""]","braszencnál","esp trial","1","false"
"html-button-response","98","659814","0.0-11.0-1.43","null","<p>A másik játékos ezt választotta: <b>braszencnál</b>.</p><p>&#10060;</p><p>A válaszaitok <b>nem</b> egyeznek meg.</p>","null","","","","feedback trial","",""
"html-button-response-esp","99","665225","0.0-11.0-0.44","3384","Ez itt egy danét. Nincs is jobb egy jó...","1","danétnál","[""danétnél"",""danétnál""]","danétnál","esp trial","1","true"
"html-button-response","100","668731","0.0-11.0-1.44","null","<p>A másik játékos ezt választotta: <b>danétnál</b>.</p><p>&#x2705;</p><p>A te válaszod és a másik játékos válasza <b>megegyeznek</b>.</p>","null","","","","feedback trial","",""
"html-button-response-esp","101","674144","0.0-11.0-0.45","1969","Ez itt egy spanél. Nincs is jobb egy jó...","0","spanélnál","[""spanélnál"",""spanélnél""]","spanélnál","esp trial","1","true"
"html-button-response","102","677650","0.0-11.0-1.45","null","<p>A másik játékos ezt választotta: <b>spanélnál</b>.</p><p>&#x2705;</p><p>A te válaszod és a másik játékos válasza <b>megegyeznek</b>.</p>","null","","","","feedback trial","",""
"html-button-response-esp","103","683069","0.0-11.0-0.46","3315","Ez itt egy dalenc. Nincs is jobb egy jó...","1","dalencnál","[""dalencnél"",""dalencnál""]","dalencnál","esp trial","1","true"
"html-button-response","104","686592","0.0-11.0-1.46","null","<p>A másik játékos ezt választotta: <b>dalencnál</b>.</p><p>&#x2705;</p><p>A te válaszod és a másik játékos válasza <b>megegyeznek</b>.</p>","null","","","","feedback trial","",""
"html-button-response-esp","105","692256","0.0-11.0-0.47","5151","Ez itt egy pivéd. Ott vagyunk a...","0","pivédben","[""pivédben"",""pivédban""]","pivédban","esp trial","1","false"
"html-button-response","106","695769","0.0-11.0-1.47","null","<p>A másik játékos ezt választotta: <b>pivédban</b>.</p><p>&#10060;</p><p>A válaszaitok <b>nem</b> egyeznek meg.</p>","null","","","","feedback trial","",""
"html-button-response-esp","107","701198","0.0-11.0-0.48","2729","Ez itt egy hágyét. Elneveztem a kutyámat...","0","hágyétnak","[""hágyétnak"",""hágyétnek""]","hágyétnak","esp trial","1","true"
"html-button-response","108","704721","0.0-11.0-1.48","null","<p>A másik játékos ezt választotta: <b>hágyétnak</b>.</p><p>&#x2705;</p><p>A te válaszod és a másik játékos válasza <b>megegyeznek</b>.</p>","null","","","","feedback trial","",""
"html-button-response-esp","109","710132","0.0-11.0-0.49","3349","Ez itt egy zsúdel. Elneveztem a kutyámat...","0","zsúdelnak","[""zsúdelnak"",""zsúdelnek""]","zsúdelnak","esp trial","1","true"
"html-button-response","110","713662","0.0-11.0-1.49","null","<p>A másik játékos ezt választotta: <b>zsúdelnak</b>.</p><p>&#x2705;</p><p>A te válaszod és a másik játékos válasza <b>megegyeznek</b>.</p>","null","","","","feedback trial","",""
"html-button-response-esp","111","722776","0.0-11.0-0.50","8607","Ez itt egy priszec. Ott vagyunk a...","1","priszecben","[""priszecban"",""priszecben""]","priszecben","esp trial","1","true"
"html-button-response","112","726306","0.0-11.0-1.50","null","<p>A másik játékos ezt választotta: <b>priszecben</b>.</p><p>&#x2705;</p><p>A te válaszod és a másik játékos válasza <b>megegyeznek</b>.</p>","null","","","","feedback trial","",""
"html-button-response-esp","113","731727","0.0-11.0-0.51","3881","Ez itt egy nyupér. Nincs is jobb egy jó...","0","nyupérnél","[""nyupérnél"",""nyupérnál""]","nyupérnál","esp trial","1","false"
"html-button-response","114","735232","0.0-11.0-1.51","null","<p>A másik játékos ezt választotta: <b>nyupérnál</b>.</p><p>&#10060;</p><p>A válaszaitok <b>nem</b> egyeznek meg.</p>","null","","","","feedback trial","",""
"html-button-response-esp","115","741276","0.0-11.0-0.52","5542","Ez itt egy kalréz. Ott vagyunk a...","0","kalrézben","[""kalrézben"",""kalrézban""]","kalrézban","esp trial","1","false"
"html-button-response","116","744779","0.0-11.0-1.52","null","<p>A másik játékos ezt választotta: <b>kalrézban</b>.</p><p>&#10060;</p><p>A válaszaitok <b>nem</b> egyeznek meg.</p>","null","","","","feedback trial","",""
"html-button-response-esp","117","750196","0.0-11.0-0.53","2823","Ez itt egy zihenc. Elneveztem a kutyámat...","1","zihencnek","[""zihencnak"",""zihencnek""]","zihencnek","esp trial","1","true"
"html-button-response","118","753714","0.0-11.0-1.53","null","<p>A másik játékos ezt választotta: <b>zihencnek</b>.</p><p>&#x2705;</p><p>A te válaszod és a másik játékos válasza <b>megegyeznek</b>.</p>","null","","","","feedback trial","",""
"html-button-response","119","766092","0.0-12.0","11870","<p>A közös játék most véget ért.</p><p>Mielőtt eláruljuk a végső pontszámodat, arra kérlek, játszd a szóválasztós játékot néhány percig egyedül is.</p><p>A feladatod ugyanaz lesz, választani két lehetőség közül.</p><p>Most viszont egyedül kell döntened, hogy te melyiket választanád.</p>","0","","","","","",""
"html-button-response-clever","120","771912","0.0-13.0-0.0","5309","Ez itt egy klazér. Ott vagyunk a...","0","klazérban","[""klazérban"",""klazérben""]","","posttest trial","4",""
"html-button-response-clever","121","776820","0.0-13.0-0.1","4401","Ez itt egy nuhét. Nincs is jobb egy jó...","0","nuhétnél","[""nuhétnél"",""nuhétnál""]","","posttest trial","4",""
"html-button-response-clever","122","781548","0.0-13.0-0.2","4214","Ez itt egy tumély. Nincs is jobb egy jó...","1","tumélynél","[""tumélynál"",""tumélynél""]","","posttest trial","4",""
"html-button-response-clever","123","786612","0.0-13.0-0.3","4551","Ez itt egy zarcég. Nincs is jobb egy jó...","1","zarcégnél","[""zarcégnál"",""zarcégnél""]","","posttest trial","4",""
"html-button-response-clever","124","791581","0.0-13.0-0.4","4465","Ez itt egy hijegy. Nincs is jobb egy jó...","0","hijegynél","[""hijegynél"",""hijegynál""]","","posttest trial","4",""
"html-button-response-clever","125","795444","0.0-13.0-0.5","3348","Ez itt egy dóbem. Elneveztem a kutyámat...","0","dóbemnek","[""dóbemnek"",""dóbemnak""]","","posttest trial","4",""
"html-button-response-clever","126","799068","0.0-13.0-0.6","3114","Ez itt egy cságyelt. Ott vagyunk a...","1","cságyeltben","[""cságyeltban"",""cságyeltben""]","","posttest trial","4",""
"html-button-response-clever","127","803356","0.0-13.0-0.7","3781","Ez itt egy mádép. Nincs is jobb egy jó...","0","mádépnél","[""mádépnél"",""mádépnál""]","","posttest trial","4",""
"html-button-response-clever","128","808752","0.0-13.0-0.8","4890","Ez itt egy zined. Elneveztem a kutyámat...","0","zinednek","[""zinednek"",""zinednak""]","","posttest trial","4",""
"html-button-response-clever","129","812785","0.0-13.0-0.9","3519","Ez itt egy dunkész. Ott vagyunk a...","1","dunkészben","[""dunkészban"",""dunkészben""]","","posttest trial","4",""
"html-button-response-clever","130","818332","0.0-13.0-0.10","5037","Ez itt egy fojlegy. Elneveztem a kutyámat...","1","fojlegynek","[""fojlegynak"",""fojlegynek""]","","posttest trial","4",""
"html-button-response-clever","131","823776","0.0-13.0-0.11","4937","Ez itt egy surnegy. Nincs is jobb egy jó...","0","surnegynél","[""surnegynél"",""surnegynál""]","","posttest trial","4",""
"html-button-response-clever","132","827884","0.0-13.0-0.12","3605","Ez itt egy jutély. Nincs is jobb egy jó...","1","jutélynél","[""jutélynál"",""jutélynél""]","","posttest trial","4",""
"html-button-response-clever","133","831293","0.0-13.0-0.13","2907","Ez itt egy spizec. Elneveztem a kutyámat...","1","spizecnek","[""spizecnak"",""spizecnek""]","","posttest trial","4",""
"html-button-response-clever","134","835136","0.0-13.0-0.14","3343","Ez itt egy csodeg. Nincs is jobb egy jó...","0","csodegnél","[""csodegnél"",""csodegnál""]","","posttest trial","4",""
"html-button-response-clever","135","839616","0.0-13.0-0.15","3978","Ez itt egy pristél. Ott vagyunk a...","1","pristélben","[""pristélban"",""pristélben""]","","posttest trial","4",""
"html-button-response-clever","136","843100","0.0-13.0-0.16","2982","Ez itt egy dutec. Nincs is jobb egy jó...","0","dutecnél","[""dutecnél"",""dutecnál""]","","posttest trial","4",""
"html-button-response-clever","137","846793","0.0-13.0-0.17","3191","Ez itt egy jurdent. Nincs is jobb egy jó...","0","jurdentnél","[""jurdentnél"",""jurdentnál""]","","posttest trial","4",""
"html-button-response-clever","138","850840","0.0-13.0-0.18","3543","Ez itt egy humék. Elneveztem a kutyámat...","0","huméknak","[""huméknak"",""huméknek""]","","posttest trial","4",""
"html-button-response-clever","139","856573","0.0-13.0-0.19","5230","Ez itt egy spatel. Elneveztem a kutyámat...","1","spatelnek","[""spatelnak"",""spatelnek""]","","posttest trial","4",""
"html-button-response-clever","140","860204","0.0-13.0-0.20","3130","Ez itt egy fizend. Ott vagyunk a...","0","fizendben","[""fizendben"",""fizendban""]","","posttest trial","4",""
"html-button-response-clever","141","864380","0.0-13.0-0.21","3675","Ez itt egy spivél. Elneveztem a kutyámat...","0","spivélnek","[""spivélnek"",""spivélnak""]","","posttest trial","4",""
"html-button-response-clever","142","868952","0.0-13.0-0.22","4066","Ez itt egy szanéj. Elneveztem a kutyámat...","0","szanéjnak","[""szanéjnak"",""szanéjnek""]","","posttest trial","4",""
"html-button-response-clever","143","872024","0.0-13.0-0.23","2557","Ez itt egy dinelt. Ott vagyunk a...","0","dineltben","[""dineltben"",""dineltban""]","","posttest trial","4",""
"html-button-response-clever","144","875840","0.0-13.0-0.24","3311","Ez itt egy gábéd. Nincs is jobb egy jó...","1","gábédnél","[""gábédnál"",""gábédnél""]","","posttest trial","4",""
"html-button-response-clever","145","880284","0.0-13.0-0.25","3942","Ez itt egy szibed. Ott vagyunk a...","1","szibedben","[""szibedban"",""szibedben""]","","posttest trial","4",""
"html-button-response-clever","146","883988","0.0-13.0-0.26","3196","Ez itt egy klítegy. Nincs is jobb egy jó...","1","klítegynél","[""klítegynál"",""klítegynél""]","","posttest trial","4",""
"html-button-response-clever","147","887297","0.0-13.0-0.27","2802","Ez itt egy dibez. Ott vagyunk a...","1","dibezben","[""dibezban"",""dibezben""]","","posttest trial","4",""
"html-button-response-clever","148","891812","0.0-13.0-0.28","4003","Ez itt egy trodély. Ott vagyunk a...","1","trodélyban","[""trodélyben"",""trodélyban""]","","posttest trial","4",""
"html-button-response-clever","149","895524","0.0-13.0-0.29","3209","Ez itt egy csublény. Ott vagyunk a...","0","csublényben","[""csublényben"",""csublényban""]","","posttest trial","4",""
"html-button-response-clever","150","899944","0.0-13.0-0.30","3919","Ez itt egy pazév. Nincs is jobb egy jó...","0","pazévnél","[""pazévnél"",""pazévnál""]","","posttest trial","4",""
"html-button-response-clever","151","906020","0.0-13.0-0.31","5567","Ez itt egy klajrén. Elneveztem a kutyámat...","1","klajrénnek","[""klajrénnak"",""klajrénnek""]","","posttest trial","4",""
"html-button-response-clever","152","911317","0.0-13.0-0.32","4782","Ez itt egy tivenc. Ott vagyunk a...","1","tivencben","[""tivencban"",""tivencben""]","","posttest trial","4",""
"html-button-response-clever","153","915968","0.0-13.0-0.33","4150","Ez itt egy hosét. Elneveztem a kutyámat...","0","hosétnek","[""hosétnek"",""hosétnak""]","","posttest trial","4",""
"html-button-response-clever","154","922876","0.0-13.0-0.34","6401","Ez itt egy fupét. Nincs is jobb egy jó...","1","fupétnél","[""fupétnál"",""fupétnél""]","","posttest trial","4",""
"html-button-response-clever","155","929084","0.0-13.0-0.35","5699","Ez itt egy zábény. Elneveztem a kutyámat...","0","zábénynek","[""zábénynek"",""zábénynak""]","","posttest trial","4",""
"html-button-response-clever","156","932700","0.0-13.0-0.36","3100","Ez itt egy kátéd. Nincs is jobb egy jó...","1","kátédnél","[""kátédnál"",""kátédnél""]","","posttest trial","4",""
"html-button-response-clever","157","936332","0.0-13.0-0.37","3126","Ez itt egy briskéd. Nincs is jobb egy jó...","1","briskédnél","[""briskédnál"",""briskédnél""]","","posttest trial","4",""
"html-button-response-clever","158","939452","0.0-13.0-0.38","2610","Ez itt egy vismer. Nincs is jobb egy jó...","0","vismernél","[""vismernél"",""vismernál""]","","posttest trial","4",""
"html-button-response-clever","159","944093","0.0-13.0-0.39","4139","Ez itt egy trikép. Ott vagyunk a...","0","triképben","[""triképben"",""triképban""]","","posttest trial","4",""
"html-button-response-clever","160","947836","0.0-13.0-0.40","3243","Ez itt egy zuten. Nincs is jobb egy jó...","0","zutennél","[""zutennél"",""zutennál""]","","posttest trial","4",""
"html-button-response-clever","161","952192","0.0-13.0-0.41","3851","Ez itt egy vodec. Nincs is jobb egy jó...","0","vodecnál","[""vodecnál"",""vodecnél""]","","posttest trial","4",""
"html-button-response-clever","162","957524","0.0-13.0-0.42","4823","Ez itt egy fágyép. Nincs is jobb egy jó...","0","fágyépnél","[""fágyépnél"",""fágyépnál""]","","posttest trial","4",""
"html-button-response-clever","163","960292","0.0-13.0-0.43","2267","Ez itt egy murdes. Nincs is jobb egy jó...","1","murdesnél","[""murdesnál"",""murdesnél""]","","posttest trial","4",""
"html-button-response-clever","164","965773","0.0-13.0-0.44","4978","Ez itt egy sihen. Nincs is jobb egy jó...","0","sihennél","[""sihennél"",""sihennál""]","","posttest trial","4",""
"html-button-response-clever","165","973309","0.0-13.0-0.45","7031","Ez itt egy lingék. Nincs is jobb egy jó...","1","lingéknél","[""lingéknál"",""lingéknél""]","","posttest trial","4",""
"html-button-response-clever","166","977449","0.0-13.0-0.46","3638","Ez itt egy vurnel. Elneveztem a kutyámat...","0","vurnelnek","[""vurnelnek"",""vurnelnak""]","","posttest trial","4",""
"html-button-response-clever","167","981980","0.0-13.0-0.47","4017","Ez itt egy zsalrén. Elneveztem a kutyámat...","0","zsalrénnek","[""zsalrénnek"",""zsalrénnak""]","","posttest trial","4",""
"html-button-response-clever","168","986372","0.0-13.0-0.48","3879","Ez itt egy bingéj. Elneveztem a kutyámat...","0","bingéjnek","[""bingéjnek"",""bingéjnak""]","","posttest trial","4",""
"html-button-response-clever","169","990168","0.0-13.0-0.49","3289","Ez itt egy lijez. Elneveztem a kutyámat...","1","lijeznek","[""lijeznak"",""lijeznek""]","","posttest trial","4",""
"html-button-response-clever","170","998533","0.0-13.0-0.50","7847","Ez itt egy dajrens. Nincs is jobb egy jó...","1","dajrensnál","[""dajrensnél"",""dajrensnál""]","","posttest trial","4",""
"html-button-response-clever","171","1005972","0.0-13.0-0.51","6934","Ez itt egy tarhéz. Ott vagyunk a...","0","tarhézban","[""tarhézban"",""tarhézben""]","","posttest trial","4",""
"html-button-response-clever","172","1009700","0.0-13.0-0.52","3227","Ez itt egy lihény. Elneveztem a kutyámat...","1","lihénynek","[""lihénynak"",""lihénynek""]","","posttest trial","4",""
"html-button-response-clever","173","1013276","0.0-13.0-0.53","3072","Ez itt egy zatéj. Nincs is jobb egy jó...","0","zatéjnél","[""zatéjnél"",""zatéjnál""]","","posttest trial","4",""
"html-button-response","174","1018164","0.0-14.0","4385","<p> Vége a játéknak. A teljes pontszámod 30/54.</p><p> Szép munka! &#128526;&#128526;&#128526;</p><p>A Befejezés gomb megnyomása után bezárhatod a böngészőablakot.</p>","0","","","","","",""
"html-keyboard-response","175","1023674","0.0-15.0","null","<div class=""message"">
         <p>Egy kis türelmet kérünk, amíg elmentjük az adatokat...</p>
         </div>","null","","","","","",""
