"trial_type","trial_index","time_elapsed","internal_node_id","rt","stimulus","response","response_string","choices","esp_response","trial_kind","list_number","esp_match"
"pavlovia","0","1056","0.0-0.0","","","","","","","","",""
"html-button-response","1","39278","0.0-1.0","37721","<p>Kedves Résztvevő! A Budapesti Műszaki és Gazdaságtudományi Egyetem Kognitív Tudományi Tanszékének kutatásában való részvételed kérjük. A kutatásban azt vizsgáljuk, hogy a magyar anyanyelvűek hogyan használnak bizonyos szóalakokat, és hogy milyen képük van arról, hogy mások hogyan használják, hogyan képzik a szavakat. Ez hozzásegít bennünket ahhoz, hogy jobban megértsük, hogyan dolgozza fel és tárolja a nyelvet az emberi agy, és hogyan működnek, hogyan változnak egy adott közösség nyelvi konvenciói.</p><p>A vizsgálat egy rövid számítógépes feladatból fog állni. A kutatásban való részvétel önkéntes, a részvételi szándék bármikor visszavonható. A résztvevők eredményeit név nélkül kezeljük, így nem beazonosíthatók az adatok feldolgozása során. Minden személyes adatot az EU általános adatvédelmi rendeletének (GDPR) megfelelően kezelünk és legfeljebb öt éven belül megsemmisítünk. A vizsgálat jellemzően húsz percet vesz igénybe.</p><p>Kutatásvezető:</p><p>Dr. Rácz Péter, tudományos munkatárs, BME KTT</p><p>e-mail: racz.peter.marton@ttk.bme.hu</p>","0","","","","","",""
"html-button-response","2","85072","0.0-2.0","45268","<p>A kísérletben szavakat fogsz látni. Ezek között lesznek olyanok, amelyeket ismersz, de előfordulhatnak olyanok is, amelyeket nem ismersz, sőt, vannak köztük kitalált szavak is. Minden szónál látni fogsz toldalékolt alakokat. A te feladatod az lesz, hogy minden szóhoz kiválaszd azt a toldalékolt alakot, amely a te számodra ismerősebben, természetesebben hangzik. Rossz válaszok nincsenek, mert van olyan, hogy különböző embereknek más és más szó tűnik jobb választásnak. A választ úgy tudod majd kiválasztani, ha rákattintasz.</p><p>Ebben a szóválasztós játékban egy másik játékossal együtt veszel majd részt. A másik játékos is minden esetben azok közül a lehetőségek közül válogathat, mint te. Kettőtök feladata az, hogy ugyanazt a lehetőséget válasszátok minden esetben. Ahhoz, hogy ez sikerüljön, neked figyelned kell arra, hogy a másik játékos milyen válaszokat ad, és ennek alapján meg kell tippelned, hogyan választ legközelebb. Ha eltalálod, akkor pontot kapsz.</p>","0","","","","","",""
"html-button-response","3","141820","0.0-3.0","56233","<p>Kérjük, olvasd el az alábbi nyilatkozatot, és amennyiben egyetértesz vele, nyomj a Beleegyezés gombra!</p><p>Kijelentem, hogy magyar anyanyelvű személyként önként veszek részt a BME KTT kísérletében. A kutatás céljával és folyamatával kapcsolatban elegendő tájékoztatást kaptam, lehetőségem volt kérdések feltételére, és esetleges kérdéseimre megfelelő válaszokat kaptam. A tájékoztatás alapján elegendő mennyiségű információ áll a rendelkezésemre, hogy eldönthessem, részt kívánok-e venni a kutatásban.</p><p>Tisztában vagyok vele, hogy részvételi szándékomat és adataimat bármikor, indoklás nélkül visszavonhatom.</p><p>Értem és tudomásul veszem, hogy a kutatás tudományos célokat szolgál, és az általam szolgáltatott adatokat a BME kizárólag kutatási célból használja fel. Tudomásul veszem, hogy eredményeimet a többi résztvevő eredményeivel együtt kezelik, így egyéni teljesítményemről visszajelzést, szakvéleményt nem kapok.</p><p>Megértettem, hogy adataim kezelését illetően a BME az EU általános adatvédelmi rendelete (GDPR), a hatályos adatvédelmi törvény és a nemzetközi kutatás-etikai alapelvek szerint jár el. Eredményeim anonim módon kerülnek feldolgozásra, és a kutatás résztvevői az azonosításomra alkalmas adataimat harmadik félnek nem szolgáltatják ki. Engedélyezem a BME számára a jelen kutatásban felvett adataim feldolgozását és tárolását, beleértve azok későbbi kutatásokhoz való felhasználását is. Személyes adataim kezelésével kapcsolatban tájékoztatást kérhetek a kutatás résztvevőitől, az adatkezelés ellen tiltakozhatok, kérhetem személyes adataim helyesbítését, törlését vagy zárolását, valamint jogorvoslatért a Nemzeti Adatvédelmi és Információszabadság Hatósághoz fordulhatok.</p><p>Kijelentem, hogy a kutatásban való részvételem körülményeiről részletes tájékoztatást kaptam, és a feltételeket elfogadom.</p>","0","","","","","",""
"survey-text","4","195431","0.0-4.0","53089","","{""Q0"":""EM561B"",""Q1"":""nő"",""Q2"":""1987"",""Q3"":""21""}","","","","","",""
"html-button-response","5","208327","0.0-5.0","12381","<p>Ebben a játékban szavakat kell toldalékolni.</p> <p>Minden körben mutatunk majd egy példamondatot, amiben lesz egy szó.</p> <p>Alatta jön egy második mondat, ezt a mondatot neked kell majd befejezni, ugyanezzel a szóval.</p> <p>Nem biztos, hogy a szó eleve ismerős lesz számodra!</p> <p>Minden mondathoz adunk két lehetőséget, ezeket balra és jobbra látod majd.</p> <p>A játék kb. negyedóráig-húsz percig tart.</p>","0","","","","","",""
"html-button-response","6","217645","0.0-6.0","8802","<p>Nézzünk egy példát!</p> <p>A példamondat: ""János nagyon szeret rancsúrozni.""</p><p>Neked ezt a mondatot kell befejezned: ""Én is szívesen...""</p><p>A lehetőségek pedig ezek:</p>","1","","","","","",""
"html-button-response","7","224478","0.0-7.0","6330","<p>Nagyon jó.</p><p>Ezt a játékot nem egyedül fogod játszani, hanem egy másik játékossal.</p><p>Mielőtt továbblépünk, összekapcsolunk titeket egymással.</p><p>Ez igénybe vehet néhány másodpercet, amihez szíves türelmed kérjük.</p>","0","","","","","",""
"html-button-response","8","230230","0.0-8.0","null","<p>Csatlakozás a másik játékoshoz...</p>","null","","","","","",""
"html-button-response","9","232789","0.0-9.0","null","<p> Sikeres kapcsolódás!</p>","null","","","","","",""
"html-button-response","10","243335","0.0-10.0","null","<p>A következőkben ketten játsszátok a szóválasztós játékot.</p><p>A feladatotok az lesz, hogy minden körben <b>ugyanazt</b> a szót válasszátok.</p><p>Minden ilyen egyező válaszért pontot kaptok.</p><p>Próbáld meg kitalálni, mit választ a másik játékos!</p><p>Bármikor választhatsz, a körnek akkor van vége, ha mindketten döntöttetek.</p><p>Sok sikert!</p>","null","","","","","",""
"html-button-response-esp","11","276440","0.0-11.0-0.0","32593","Te bizony sokat lihadzol. Én is sokat...","0","lihadzok","[""lihadzok"",""lihadzom""]","lihadzok","esp trial","8","true"
"html-button-response","12","279955","0.0-11.0-1.0","null","<p>A másik játékos ezt választotta: <b>lihadzok</b>.</p><p>&#x2705;</p><p>A te válaszod és a másik játékos válasza <b>megegyeznek</b>.</p>","null","","","","feedback trial","",""
"html-button-response-esp","13","296622","0.0-11.0-0.1","16153","Te bizony sokat sztruglasz. Én is sokat...","1","sztruglom","[""sztruglok"",""sztruglom""]","sztruglok","esp trial","8","false"
"html-button-response","14","300142","0.0-11.0-1.1","null","<p>A másik játékos ezt választotta: <b>sztruglok</b>.</p><p>&#10060;</p><p>A válaszaitok <b>nem</b> egyeznek meg.</p>","null","","","","feedback trial","",""
"html-button-response-esp","15","319707","0.0-11.0-0.2","19062","Te bizony sokat péleslesz. Én is sokat...","0","péleslek","[""péleslek"",""péleslem""]","péleslek","esp trial","8","true"
"html-button-response","16","323216","0.0-11.0-1.2","null","<p>A másik játékos ezt választotta: <b>péleslek</b>.</p><p>&#x2705;</p><p>A te válaszod és a másik játékos válasza <b>megegyeznek</b>.</p>","null","","","","feedback trial","",""
"html-button-response-esp","17","332400","0.0-11.0-0.3","8664","Te bizony sokat zödlesz. Én is sokat...","0","zödlök","[""zödlök"",""zödlöm""]","zödlöm","esp trial","8","false"
"html-button-response","18","335929","0.0-11.0-1.3","null","<p>A másik játékos ezt választotta: <b>zödlöm</b>.</p><p>&#10060;</p><p>A válaszaitok <b>nem</b> egyeznek meg.</p>","null","","","","feedback trial","",""
"html-button-response-esp","19","348403","0.0-11.0-0.4","11970","Te bizony sokat huklasz. Én is sokat...","1","huklom","[""huklok"",""huklom""]","huklok","esp trial","8","false"
"html-button-response","20","351920","0.0-11.0-1.4","null","<p>A másik játékos ezt választotta: <b>huklok</b>.</p><p>&#10060;</p><p>A válaszaitok <b>nem</b> egyeznek meg.</p>","null","","","","feedback trial","",""
"html-button-response-esp","21","357673","0.0-11.0-0.5","5248","Te bizony sokat klidlasz. Én is sokat...","0","klidlok","[""klidlok"",""klidlom""]","klidlom","esp trial","8","false"
"html-button-response","22","361195","0.0-11.0-1.5","null","<p>A másik játékos ezt választotta: <b>klidlom</b>.</p><p>&#10060;</p><p>A válaszaitok <b>nem</b> egyeznek meg.</p>","null","","","","feedback trial","",""
"html-button-response-esp","23","372262","0.0-11.0-0.6","10566","Te bizony sokat fliraklasz. Én is sokat...","1","fliraklok","[""fliraklom"",""fliraklok""]","fliraklok","esp trial","8","true"
"html-button-response","24","375794","0.0-11.0-1.6","null","<p>A másik játékos ezt választotta: <b>fliraklok</b>.</p><p>&#x2705;</p><p>A te válaszod és a másik játékos válasza <b>megegyeznek</b>.</p>","null","","","","feedback trial","",""
"html-button-response-esp","25","386092","0.0-11.0-0.7","9794","Te bizony sokat spélszel. Én is sokat...","1","spélszem","[""spélszek"",""spélszem""]","spélszek","esp trial","8","false"
"html-button-response","26","389614","0.0-11.0-1.7","null","<p>A másik játékos ezt választotta: <b>spélszek</b>.</p><p>&#10060;</p><p>A válaszaitok <b>nem</b> egyeznek meg.</p>","null","","","","feedback trial","",""
"html-button-response-esp","27","394338","0.0-11.0-0.8","4215","Te bizony sokat sprédlesz. Én is sokat...","0","sprédlem","[""sprédlem"",""sprédlek""]","sprédlem","esp trial","8","true"
"html-button-response","28","397851","0.0-11.0-1.8","null","<p>A másik játékos ezt választotta: <b>sprédlem</b>.</p><p>&#x2705;</p><p>A te válaszod és a másik játékos válasza <b>megegyeznek</b>.</p>","null","","","","feedback trial","",""
"html-button-response-esp","29","410421","0.0-11.0-0.9","12067","Te bizony sokat brarlasz. Én is sokat...","1","brarlok","[""brarlom"",""brarlok""]","brarlom","esp trial","8","false"
"html-button-response","30","413941","0.0-11.0-1.9","null","<p>A másik játékos ezt választotta: <b>brarlom</b>.</p><p>&#10060;</p><p>A válaszaitok <b>nem</b> egyeznek meg.</p>","null","","","","feedback trial","",""
"html-button-response-esp","31","420819","0.0-11.0-0.10","6361","Te bizony sokat gyivádzol. Én is sokat...","0","gyivádzom","[""gyivádzom"",""gyivádzok""]","gyivádzok","esp trial","8","false"
"html-button-response","32","424348","0.0-11.0-1.10","null","<p>A másik játékos ezt választotta: <b>gyivádzok</b>.</p><p>&#10060;</p><p>A válaszaitok <b>nem</b> egyeznek meg.</p>","null","","","","feedback trial","",""
"html-button-response-esp","33","431287","0.0-11.0-0.11","6428","Te bizony sokat spülöklesz. Én is sokat...","0","spülöklöm","[""spülöklöm"",""spülöklök""]","spülöklök","esp trial","8","false"
"html-button-response","34","434807","0.0-11.0-1.11","null","<p>A másik játékos ezt választotta: <b>spülöklök</b>.</p><p>&#10060;</p><p>A válaszaitok <b>nem</b> egyeznek meg.</p>","null","","","","feedback trial","",""
"html-button-response-esp","35","444375","0.0-11.0-0.12","9061","Te bizony sokat gilárzol. Én is sokat...","0","gilárzom","[""gilárzom"",""gilárzok""]","gilárzok","esp trial","8","false"
"html-button-response","36","447903","0.0-11.0-1.12","null","<p>A másik játékos ezt választotta: <b>gilárzok</b>.</p><p>&#10060;</p><p>A válaszaitok <b>nem</b> egyeznek meg.</p>","null","","","","feedback trial","",""
"html-button-response-esp","37","453823","0.0-11.0-0.13","5427","Te bizony sokat prezlesz. Én is sokat...","0","prezlek","[""prezlek"",""prezlem""]","prezlem","esp trial","8","false"
"html-button-response","38","457342","0.0-11.0-1.13","null","<p>A másik játékos ezt választotta: <b>prezlem</b>.</p><p>&#10060;</p><p>A válaszaitok <b>nem</b> egyeznek meg.</p>","null","","","","feedback trial","",""
"html-button-response-esp","39","466692","0.0-11.0-0.14","8849","Te bizony sokat sprálszol. Én is sokat...","0","sprálszok","[""sprálszok"",""sprálszom""]","sprálszok","esp trial","8","true"
"html-button-response","40","470212","0.0-11.0-1.14","null","<p>A másik játékos ezt választotta: <b>sprálszok</b>.</p><p>&#x2705;</p><p>A te válaszod és a másik játékos válasza <b>megegyeznek</b>.</p>","null","","","","feedback trial","",""
"html-button-response-esp","41","474930","0.0-11.0-0.15","3854","Te bizony sokat plövőrzöl. Én is sokat...","0","plövőrzök","[""plövőrzök"",""plövőrzöm""]","plövőrzök","esp trial","8","true"
"html-button-response","42","478434","0.0-11.0-1.15","null","<p>A másik játékos ezt választotta: <b>plövőrzök</b>.</p><p>&#x2705;</p><p>A te válaszod és a másik játékos válasza <b>megegyeznek</b>.</p>","null","","","","feedback trial","",""
"html-button-response-esp","43","483157","0.0-11.0-0.16","4023","Te bizony sokat floglasz. Én is sokat...","0","floglom","[""floglom"",""floglok""]","floglok","esp trial","8","false"
"html-button-response","44","486678","0.0-11.0-1.16","null","<p>A másik játékos ezt választotta: <b>floglok</b>.</p><p>&#10060;</p><p>A válaszaitok <b>nem</b> egyeznek meg.</p>","null","","","","feedback trial","",""
"html-button-response-esp","45","493269","0.0-11.0-0.17","6087","Te bizony sokat spibádzol. Én is sokat...","1","spibádzok","[""spibádzom"",""spibádzok""]","spibádzok","esp trial","8","true"
"html-button-response","46","496789","0.0-11.0-1.17","null","<p>A másik játékos ezt választotta: <b>spibádzok</b>.</p><p>&#x2705;</p><p>A te válaszod és a másik játékos válasza <b>megegyeznek</b>.</p>","null","","","","feedback trial","",""
"html-button-response-esp","47","501530","0.0-11.0-0.18","3467","Te bizony sokat fivénylesz. Én is sokat...","1","fivénylek","[""fivénylem"",""fivénylek""]","fivénylek","esp trial","8","true"
"html-button-response","48","505058","0.0-11.0-1.18","null","<p>A másik játékos ezt választotta: <b>fivénylek</b>.</p><p>&#x2705;</p><p>A te válaszod és a másik játékos válasza <b>megegyeznek</b>.</p>","null","","","","feedback trial","",""
"html-button-response-esp","49","509782","0.0-11.0-0.19","3607","Te bizony sokat vűjlesz. Én is sokat...","0","vűjlök","[""vűjlök"",""vűjlöm""]","vűjlöm","esp trial","8","false"
"html-button-response","50","513299","0.0-11.0-1.19","null","<p>A másik játékos ezt választotta: <b>vűjlöm</b>.</p><p>&#10060;</p><p>A válaszaitok <b>nem</b> egyeznek meg.</p>","null","","","","feedback trial","",""
"html-button-response-esp","51","520676","0.0-11.0-0.20","6855","Te bizony sokat spülőrzöl. Én is sokat...","1","spülőrzöm","[""spülőrzök"",""spülőrzöm""]","spülőrzök","esp trial","8","false"
"html-button-response","52","524200","0.0-11.0-1.20","null","<p>A másik játékos ezt választotta: <b>spülőrzök</b>.</p><p>&#10060;</p><p>A válaszaitok <b>nem</b> egyeznek meg.</p>","null","","","","feedback trial","",""
"html-button-response-esp","53","530652","0.0-11.0-0.21","5947","Te bizony sokat prihekszel. Én is sokat...","0","prihekszem","[""prihekszem"",""prihekszek""]","prihekszek","esp trial","8","false"
"html-button-response","54","534169","0.0-11.0-1.21","null","<p>A másik játékos ezt választotta: <b>prihekszek</b>.</p><p>&#10060;</p><p>A válaszaitok <b>nem</b> egyeznek meg.</p>","null","","","","feedback trial","",""
"html-button-response-esp","55","541719","0.0-11.0-0.22","7033","Te bizony sokat praslasz. Én is sokat...","1","praslom","[""praslok"",""praslom""]","praslom","esp trial","8","true"
"html-button-response","56","545245","0.0-11.0-1.22","null","<p>A másik játékos ezt választotta: <b>praslom</b>.</p><p>&#x2705;</p><p>A te válaszod és a másik játékos válasza <b>megegyeznek</b>.</p>","null","","","","feedback trial","",""
"html-button-response-esp","57","555198","0.0-11.0-0.23","9452","Te bizony sokat pugoslasz. Én is sokat...","1","pugoslok","[""pugoslom"",""pugoslok""]","pugoslom","esp trial","8","false"
"html-button-response","58","558715","0.0-11.0-1.23","null","<p>A másik játékos ezt választotta: <b>pugoslom</b>.</p><p>&#10060;</p><p>A válaszaitok <b>nem</b> egyeznek meg.</p>","null","","","","feedback trial","",""
"html-button-response-esp","59","567216","0.0-11.0-0.24","7999","Te bizony sokat klárzol. Én is sokat...","0","klárzok","[""klárzok"",""klárzom""]","klárzok","esp trial","8","true"
"html-button-response","60","570747","0.0-11.0-1.24","null","<p>A másik játékos ezt választotta: <b>klárzok</b>.</p><p>&#x2705;</p><p>A te válaszod és a másik játékos válasza <b>megegyeznek</b>.</p>","null","","","","feedback trial","",""
"html-button-response-esp","61","578348","0.0-11.0-0.25","7099","Te bizony sokat préleglesz. Én is sokat...","1","préleglem","[""préleglek"",""préleglem""]","préleglek","esp trial","8","false"
"html-button-response","62","581867","0.0-11.0-1.25","null","<p>A másik játékos ezt választotta: <b>préleglek</b>.</p><p>&#10060;</p><p>A válaszaitok <b>nem</b> egyeznek meg.</p>","null","","","","feedback trial","",""
"html-button-response-esp","63","589398","0.0-11.0-0.26","7030","Te bizony sokat tuboklasz. Én is sokat...","0","tuboklom","[""tuboklom"",""tuboklok""]","tuboklok","esp trial","8","false"
"html-button-response","64","592921","0.0-11.0-1.26","null","<p>A másik játékos ezt választotta: <b>tuboklok</b>.</p><p>&#10060;</p><p>A válaszaitok <b>nem</b> egyeznek meg.</p>","null","","","","feedback trial","",""
"html-button-response-esp","65","597622","0.0-11.0-0.27","3900","Te bizony sokat plágadzol. Én is sokat...","1","plágadzok","[""plágadzom"",""plágadzok""]","plágadzok","esp trial","8","true"
"html-button-response","66","601136","0.0-11.0-1.27","null","<p>A másik játékos ezt választotta: <b>plágadzok</b>.</p><p>&#x2705;</p><p>A te válaszod és a másik játékos válasza <b>megegyeznek</b>.</p>","null","","","","feedback trial","",""
"html-button-response-esp","67","607014","0.0-11.0-0.28","5365","Te bizony sokat aglasz. Én is sokat...","0","aglom","[""aglom"",""aglok""]","aglok","esp trial","8","false"
"html-button-response","68","610537","0.0-11.0-1.28","null","<p>A másik játékos ezt választotta: <b>aglok</b>.</p><p>&#10060;</p><p>A válaszaitok <b>nem</b> egyeznek meg.</p>","null","","","","feedback trial","",""
"html-button-response-esp","69","626533","0.0-11.0-0.29","15478","Te bizony sokat friszlasz. Én is sokat...","1","friszlok","[""friszlom"",""friszlok""]","friszlok","esp trial","8","true"
"html-button-response","70","630060","0.0-11.0-1.29","null","<p>A másik játékos ezt választotta: <b>friszlok</b>.</p><p>&#x2705;</p><p>A te válaszod és a másik játékos válasza <b>megegyeznek</b>.</p>","null","","","","feedback trial","",""
"html-button-response-esp","71","644016","0.0-11.0-0.30","13446","Te bizony sokat táklasz. Én is sokat...","0","táklok","[""táklok"",""táklom""]","táklok","esp trial","8","true"
"html-button-response","72","647528","0.0-11.0-1.30","null","<p>A másik játékos ezt választotta: <b>táklok</b>.</p><p>&#x2705;</p><p>A te válaszod és a másik játékos válasza <b>megegyeznek</b>.</p>","null","","","","feedback trial","",""
"html-button-response-esp","73","656213","0.0-11.0-0.31","8162","Te bizony sokat féjzel. Én is sokat...","0","féjzek","[""féjzek"",""féjzem""]","féjzek","esp trial","8","true"
"html-button-response","74","659735","0.0-11.0-1.31","null","<p>A másik játékos ezt választotta: <b>féjzek</b>.</p><p>&#x2705;</p><p>A te válaszod és a másik játékos válasza <b>megegyeznek</b>.</p>","null","","","","feedback trial","",""
"html-button-response-esp","75","666622","0.0-11.0-0.32","6370","Te bizony sokat trihagzol. Én is sokat...","0","trihagzom","[""trihagzom"",""trihagzok""]","trihagzok","esp trial","8","false"
"html-button-response","76","670146","0.0-11.0-1.32","null","<p>A másik játékos ezt választotta: <b>trihagzok</b>.</p><p>&#10060;</p><p>A válaszaitok <b>nem</b> egyeznek meg.</p>","null","","","","feedback trial","",""
"html-button-response-esp","77","675580","0.0-11.0-0.33","4929","Te bizony sokat vihepszel. Én is sokat...","1","vihepszem","[""vihepszek"",""vihepszem""]","vihepszek","esp trial","8","false"
"html-button-response","78","679099","0.0-11.0-1.33","null","<p>A másik játékos ezt választotta: <b>vihepszek</b>.</p><p>&#10060;</p><p>A válaszaitok <b>nem</b> egyeznek meg.</p>","null","","","","feedback trial","",""
"html-button-response-esp","79","685372","0.0-11.0-0.34","5770","Te bizony sokat flérlesz. Én is sokat...","1","flérlek","[""flérlem"",""flérlek""]","flérlem","esp trial","8","false"
"html-button-response","80","688893","0.0-11.0-1.34","null","<p>A másik játékos ezt választotta: <b>flérlem</b>.</p><p>&#10060;</p><p>A válaszaitok <b>nem</b> egyeznek meg.</p>","null","","","","feedback trial","",""
"html-button-response-esp","81","693898","0.0-11.0-0.35","4489","Te bizony sokat flibekszel. Én is sokat...","0","flibekszek","[""flibekszek"",""flibekszem""]","flibekszek","esp trial","8","true"
"html-button-response","82","697426","0.0-11.0-1.35","null","<p>A másik játékos ezt választotta: <b>flibekszek</b>.</p><p>&#x2705;</p><p>A te válaszod és a másik játékos válasza <b>megegyeznek</b>.</p>","null","","","","feedback trial","",""
"html-button-response-esp","83","702150","0.0-11.0-0.36","3278","Te bizony sokat livaklasz. Én is sokat...","1","livaklok","[""livaklom"",""livaklok""]","livaklok","esp trial","8","true"
"html-button-response","84","705671","0.0-11.0-1.36","null","<p>A másik játékos ezt választotta: <b>livaklok</b>.</p><p>&#x2705;</p><p>A te válaszod és a másik játékos válasza <b>megegyeznek</b>.</p>","null","","","","feedback trial","",""
"html-button-response-esp","85","710386","0.0-11.0-0.37","3011","Te bizony sokat frágapszol. Én is sokat...","1","frágapszok","[""frágapszom"",""frágapszok""]","frágapszok","esp trial","8","true"
"html-button-response","86","713897","0.0-11.0-1.37","null","<p>A másik játékos ezt választotta: <b>frágapszok</b>.</p><p>&#x2705;</p><p>A te válaszod és a másik játékos válasza <b>megegyeznek</b>.</p>","null","","","","feedback trial","",""
"html-button-response-esp","87","718651","0.0-11.0-0.38","4140","Te bizony sokat spírzol. Én is sokat...","0","spírzom","[""spírzom"",""spírzok""]","spírzok","esp trial","8","false"
"html-button-response","88","722175","0.0-11.0-1.38","null","<p>A másik játékos ezt választotta: <b>spírzok</b>.</p><p>&#10060;</p><p>A válaszaitok <b>nem</b> egyeznek meg.</p>","null","","","","feedback trial","",""
"html-button-response-esp","89","727168","0.0-11.0-0.39","4489","Te bizony sokat frivajlasz. Én is sokat...","0","frivajlok","[""frivajlok"",""frivajlom""]","frivajlom","esp trial","8","false"
"html-button-response","90","730690","0.0-11.0-1.39","null","<p>A másik játékos ezt választotta: <b>frivajlom</b>.</p><p>&#10060;</p><p>A válaszaitok <b>nem</b> egyeznek meg.</p>","null","","","","feedback trial","",""
"html-button-response-esp","91","735704","0.0-11.0-0.40","4498","Te bizony sokat gyibakszol. Én is sokat...","0","gyibakszok","[""gyibakszok"",""gyibakszom""]","gyibakszok","esp trial","8","true"
"html-button-response","92","739224","0.0-11.0-1.40","null","<p>A másik játékos ezt választotta: <b>gyibakszok</b>.</p><p>&#x2705;</p><p>A te válaszod és a másik játékos válasza <b>megegyeznek</b>.</p>","null","","","","feedback trial","",""
"html-button-response-esp","93","743943","0.0-11.0-0.41","4074","Te bizony sokat spatszol. Én is sokat...","0","spatszok","[""spatszok"",""spatszom""]","spatszok","esp trial","8","true"
"html-button-response","94","747462","0.0-11.0-1.41","null","<p>A másik játékos ezt választotta: <b>spatszok</b>.</p><p>&#x2705;</p><p>A te válaszod és a másik játékos válasza <b>megegyeznek</b>.</p>","null","","","","feedback trial","",""
"html-button-response-esp","95","753277","0.0-11.0-0.42","5302","Te bizony sokat mékszel. Én is sokat...","1","mékszem","[""mékszek"",""mékszem""]","mékszek","esp trial","8","false"
"html-button-response","96","756796","0.0-11.0-1.42","null","<p>A másik játékos ezt választotta: <b>mékszek</b>.</p><p>&#10060;</p><p>A válaszaitok <b>nem</b> egyeznek meg.</p>","null","","","","feedback trial","",""
"html-button-response-esp","97","761536","0.0-11.0-0.43","2942","Te bizony sokat prohódzol. Én is sokat...","1","prohódzok","[""prohódzom"",""prohódzok""]","prohódzok","esp trial","8","true"
"html-button-response","98","765050","0.0-11.0-1.43","null","<p>A másik játékos ezt választotta: <b>prohódzok</b>.</p><p>&#x2705;</p><p>A te válaszod és a másik játékos válasza <b>megegyeznek</b>.</p>","null","","","","feedback trial","",""
"html-button-response-esp","99","769788","0.0-11.0-0.44","3173","Te bizony sokat szűslesz. Én is sokat...","0","szűslök","[""szűslök"",""szűslöm""]","szűslöm","esp trial","8","false"
"html-button-response","100","773311","0.0-11.0-1.44","null","<p>A másik játékos ezt választotta: <b>szűslöm</b>.</p><p>&#10060;</p><p>A válaszaitok <b>nem</b> egyeznek meg.</p>","null","","","","feedback trial","",""
"html-button-response-esp","101","787778","0.0-11.0-0.45","13942","Te bizony sokat kumlasz. Én is sokat...","0","kumlok","[""kumlok"",""kumlom""]","kumlom","esp trial","8","false"
"html-button-response","102","791297","0.0-11.0-1.45","null","<p>A másik játékos ezt választotta: <b>kumlom</b>.</p><p>&#10060;</p><p>A válaszaitok <b>nem</b> egyeznek meg.</p>","null","","","","feedback trial","",""
"html-button-response-esp","103","797077","0.0-11.0-0.46","5278","Te bizony sokat fligzol. Én is sokat...","1","fligzok","[""fligzom"",""fligzok""]","fligzok","esp trial","8","true"
"html-button-response","104","800596","0.0-11.0-1.46","null","<p>A másik játékos ezt választotta: <b>fligzok</b>.</p><p>&#x2705;</p><p>A te válaszod és a másik játékos válasza <b>megegyeznek</b>.</p>","null","","","","feedback trial","",""
"html-button-response-esp","105","805315","0.0-11.0-0.47","2641","Te bizony sokat spüszlesz. Én is sokat...","1","spüszlöm","[""spüszlök"",""spüszlöm""]","spüszlök","esp trial","8","false"
"html-button-response","106","808845","0.0-11.0-1.47","null","<p>A másik játékos ezt választotta: <b>spüszlök</b>.</p><p>&#10060;</p><p>A válaszaitok <b>nem</b> egyeznek meg.</p>","null","","","","feedback trial","",""
"html-button-response-esp","107","814280","0.0-11.0-0.48","4896","Te bizony sokat flözlesz. Én is sokat...","0","flözlök","[""flözlök"",""flözlöm""]","flözlöm","esp trial","8","false"
"html-button-response","108","817804","0.0-11.0-1.48","null","<p>A másik játékos ezt választotta: <b>flözlöm</b>.</p><p>&#10060;</p><p>A válaszaitok <b>nem</b> egyeznek meg.</p>","null","","","","feedback trial","",""
"html-button-response-esp","109","822924","0.0-11.0-0.49","4603","Te bizony sokat drügzöl. Én is sokat...","1","drügzöm","[""drügzök"",""drügzöm""]","drügzök","esp trial","8","false"
"html-button-response","110","826443","0.0-11.0-1.49","null","<p>A másik játékos ezt választotta: <b>drügzök</b>.</p><p>&#10060;</p><p>A válaszaitok <b>nem</b> egyeznek meg.</p>","null","","","","feedback trial","",""
"html-button-response-esp","111","831150","0.0-11.0-0.50","2771","Te bizony sokat gerénylesz. Én is sokat...","1","gerénylek","[""gerénylem"",""gerénylek""]","gerénylem","esp trial","8","false"
"html-button-response","112","834703","0.0-11.0-1.50","null","<p>A másik játékos ezt választotta: <b>gerénylem</b>.</p><p>&#10060;</p><p>A válaszaitok <b>nem</b> egyeznek meg.</p>","null","","","","feedback trial","",""
"html-button-response-esp","113","842719","0.0-11.0-0.51","7477","Te bizony sokat csólorzol. Én is sokat...","0","csólorzok","[""csólorzok"",""csólorzom""]","csólorzok","esp trial","8","true"
"html-button-response","114","846247","0.0-11.0-1.51","null","<p>A másik játékos ezt választotta: <b>csólorzok</b>.</p><p>&#x2705;</p><p>A te válaszod és a másik játékos válasza <b>megegyeznek</b>.</p>","null","","","","feedback trial","",""
"html-button-response-esp","115","850963","0.0-11.0-0.52","3227","Te bizony sokat ibáglasz. Én is sokat...","1","ibáglok","[""ibáglom"",""ibáglok""]","ibáglok","esp trial","8","true"
"html-button-response","116","854493","0.0-11.0-1.52","null","<p>A másik játékos ezt választotta: <b>ibáglok</b>.</p><p>&#x2705;</p><p>A te válaszod és a másik játékos válasza <b>megegyeznek</b>.</p>","null","","","","feedback trial","",""
"html-button-response-esp","117","860513","0.0-11.0-0.53","5494","Te bizony sokat bivejlesz. Én is sokat...","0","bivejlek","[""bivejlek"",""bivejlem""]","bivejlem","esp trial","8","false"
"html-button-response","118","864031","0.0-11.0-1.53","null","<p>A másik játékos ezt választotta: <b>bivejlem</b>.</p><p>&#10060;</p><p>A válaszaitok <b>nem</b> egyeznek meg.</p>","null","","","","feedback trial","",""
"html-button-response","119","875063","0.0-12.0","10512","<p>A közös játék most véget ért.</p><p>Mielőtt eláruljuk a végső pontszámodat, arra kérlek, játszd a szóválasztós játékot néhány percig egyedül is.</p><p>A feladatod ugyanaz lesz, választani két lehetőség közül.</p><p>Most viszont egyedül kell döntened, hogy te melyiket választanád.</p>","0","","","","","",""
"html-button-response-clever","120","880802","0.0-13.0-0.0","5220","Te bizony sokat feténylesz. Én is sokat...","1","feténylek","[""feténylem"",""feténylek""]","","posttest trial","1",""
"html-button-response-clever","121","909660","0.0-13.0-0.1","28356","Te bizony sokat jüslesz. Én is sokat...","0","jüslöm","[""jüslöm"",""jüslök""]","","posttest trial","1",""
"html-button-response-clever","122","915061","0.0-13.0-0.2","4879","Te bizony sokat sprogzol. Én is sokat...","1","sprogzok","[""sprogzom"",""sprogzok""]","","posttest trial","1",""
"html-button-response-clever","123","921124","0.0-13.0-0.3","5556","Te bizony sokat juszlasz. Én is sokat...","1","juszlom","[""juszlok"",""juszlom""]","","posttest trial","1",""
"html-button-response-clever","124","926050","0.0-13.0-0.4","4415","Te bizony sokat driládzol. Én is sokat...","0","driládzom","[""driládzom"",""driládzok""]","","posttest trial","1",""
"html-button-response-clever","125","930974","0.0-13.0-0.5","4399","Te bizony sokat vilakszol. Én is sokat...","0","vilakszom","[""vilakszom"",""vilakszok""]","","posttest trial","1",""
"html-button-response-clever","126","935551","0.0-13.0-0.6","4061","Te bizony sokat spilágzol. Én is sokat...","1","spilágzom","[""spilágzok"",""spilágzom""]","","posttest trial","1",""
"html-button-response-clever","127","941970","0.0-13.0-0.7","5894","Te bizony sokat klörlesz. Én is sokat...","0","klörlök","[""klörlök"",""klörlöm""]","","posttest trial","1",""
"html-button-response-clever","128","947697","0.0-13.0-0.8","5212","Te bizony sokat klibamlasz. Én is sokat...","1","klibamlok","[""klibamlom"",""klibamlok""]","","posttest trial","1",""
"html-button-response-clever","129","952199","0.0-13.0-0.9","3985","Te bizony sokat lorjódzol. Én is sokat...","1","lorjódzok","[""lorjódzom"",""lorjódzok""]","","posttest trial","1",""
"html-button-response-clever","130","957506","0.0-13.0-0.10","4772","Te bizony sokat sprökszöl. Én is sokat...","1","sprökszöm","[""sprökszök"",""sprökszöm""]","","posttest trial","1",""
"html-button-response-clever","131","962745","0.0-13.0-0.11","4729","Te bizony sokat ruslasz. Én is sokat...","0","ruslok","[""ruslok"",""ruslom""]","","posttest trial","1",""
"html-button-response-clever","132","966633","0.0-13.0-0.12","3387","Te bizony sokat pebzel. Én is sokat...","0","pebzem","[""pebzem"",""pebzek""]","","posttest trial","1",""
"html-button-response-clever","133","970873","0.0-13.0-0.13","3724","Te bizony sokat herégszel. Én is sokat...","1","herégszem","[""herégszek"",""herégszem""]","","posttest trial","1",""
"html-button-response-clever","134","974010","0.0-13.0-0.14","2622","Te bizony sokat piragszol. Én is sokat...","1","piragszom","[""piragszok"",""piragszom""]","","posttest trial","1",""
"html-button-response-clever","135","977984","0.0-13.0-0.15","3459","Te bizony sokat szirlasz. Én is sokat...","1","szirlom","[""szirlok"",""szirlom""]","","posttest trial","1",""
"html-button-response-clever","136","983423","0.0-13.0-0.16","4923","Te bizony sokat narjárzol. Én is sokat...","1","narjárzok","[""narjárzom"",""narjárzok""]","","posttest trial","1",""
"html-button-response-clever","137","989253","0.0-13.0-0.17","5313","Te bizony sokat ribegzel. Én is sokat...","1","ribegzem","[""ribegzek"",""ribegzem""]","","posttest trial","1",""
"html-button-response-clever","138","993148","0.0-13.0-0.18","3379","Te bizony sokat tomlasz. Én is sokat...","0","tomlok","[""tomlok"",""tomlom""]","","posttest trial","1",""
"html-button-response-clever","139","998956","0.0-13.0-0.19","5302","Te bizony sokat fretszel. Én is sokat...","0","fretszek","[""fretszek"",""fretszem""]","","posttest trial","1",""
"html-button-response-clever","140","1002459","0.0-13.0-0.20","2988","Te bizony sokat bölszöl. Én is sokat...","1","bölszöm","[""bölszök"",""bölszöm""]","","posttest trial","1",""
"html-button-response-clever","141","1006665","0.0-13.0-0.21","3703","Te bizony sokat flagárzol. Én is sokat...","1","flagárzom","[""flagárzok"",""flagárzom""]","","posttest trial","1",""
"html-button-response-clever","142","1013047","0.0-13.0-0.22","5865","Te bizony sokat brágaklasz. Én is sokat...","1","brágaklom","[""brágaklok"",""brágaklom""]","","posttest trial","1",""
"html-button-response-clever","143","1021305","0.0-13.0-0.23","7751","Te bizony sokat prűrlesz. Én is sokat...","0","prűrlök","[""prűrlök"",""prűrlöm""]","","posttest trial","1",""
"html-button-response-clever","144","1031640","0.0-13.0-0.24","9819","Te bizony sokat marzol. Én is sokat...","1","marzok","[""marzom"",""marzok""]","","posttest trial","1",""
"html-button-response-clever","145","1039197","0.0-13.0-0.25","7048","Te bizony sokat pratánylasz. Én is sokat...","0","pratánylok","[""pratánylok"",""pratánylom""]","","posttest trial","1",""
"html-button-response-clever","146","1046532","0.0-13.0-0.26","6832","Te bizony sokat csíszlasz. Én is sokat...","1","csíszlom","[""csíszlok"",""csíszlom""]","","posttest trial","1",""
"html-button-response-clever","147","1051622","0.0-13.0-0.27","4575","Te bizony sokat spatárzol. Én is sokat...","0","spatárzom","[""spatárzom"",""spatárzok""]","","posttest trial","1",""
"html-button-response-clever","148","1057653","0.0-13.0-0.28","5514","Te bizony sokat böjzöl. Én is sokat...","1","böjzök","[""böjzöm"",""böjzök""]","","posttest trial","1",""
"html-button-response-clever","149","1062524","0.0-13.0-0.29","4356","Te bizony sokat nyáslasz. Én is sokat...","1","nyáslok","[""nyáslom"",""nyáslok""]","","posttest trial","1",""
"html-button-response-clever","150","1065634","0.0-13.0-0.30","2572","Te bizony sokat brüjlesz. Én is sokat...","1","brüjlök","[""brüjlöm"",""brüjlök""]","","posttest trial","1",""
"html-button-response-clever","151","1069359","0.0-13.0-0.31","3212","Te bizony sokat sűzlesz. Én is sokat...","1","sűzlök","[""sűzlöm"",""sűzlök""]","","posttest trial","1",""
"html-button-response-clever","152","1073465","0.0-13.0-0.32","3595","Te bizony sokat sojzol. Én is sokat...","1","sojzok","[""sojzom"",""sojzok""]","","posttest trial","1",""
"html-button-response-clever","153","1079902","0.0-13.0-0.33","5917","Te bizony sokat tiregzel. Én is sokat...","1","tiregzek","[""tiregzem"",""tiregzek""]","","posttest trial","1",""
"html-button-response-clever","154","1087298","0.0-13.0-0.34","6880","Te bizony sokat prilegzel. Én is sokat...","0","prilegzem","[""prilegzem"",""prilegzek""]","","posttest trial","1",""
"html-button-response-clever","155","1092793","0.0-13.0-0.35","4988","Te bizony sokat flagánylasz. Én is sokat...","1","flagánylok","[""flagánylom"",""flagánylok""]","","posttest trial","1",""
"html-button-response-clever","156","1098083","0.0-13.0-0.36","4773","Te bizony sokat siladzol. Én is sokat...","0","siladzom","[""siladzom"",""siladzok""]","","posttest trial","1",""
"html-button-response-clever","157","1105081","0.0-13.0-0.37","6485","Te bizony sokat femlesz. Én is sokat...","1","femlek","[""femlem"",""femlek""]","","posttest trial","1",""
"html-button-response-clever","158","1109234","0.0-13.0-0.38","3645","Te bizony sokat tínylasz. Én is sokat...","1","tínylok","[""tínylom"",""tínylok""]","","posttest trial","1",""
"html-button-response-clever","159","1113186","0.0-13.0-0.39","3443","Te bizony sokat spéslesz. Én is sokat...","1","spéslek","[""spéslem"",""spéslek""]","","posttest trial","1",""
"html-button-response-clever","160","1117755","0.0-13.0-0.40","4054","Te bizony sokat flűröklesz. Én is sokat...","0","flűröklöm","[""flűröklöm"",""flűröklök""]","","posttest trial","1",""
"html-button-response-clever","161","1121936","0.0-13.0-0.41","3661","Te bizony sokat málapszol. Én is sokat...","1","málapszom","[""málapszok"",""málapszom""]","","posttest trial","1",""
"html-button-response-clever","162","1127130","0.0-13.0-0.42","4693","Te bizony sokat trilszol. Én is sokat...","0","trilszom","[""trilszom"",""trilszok""]","","posttest trial","1",""
"html-button-response-clever","163","1131640","0.0-13.0-0.43","4008","Te bizony sokat drubódzol. Én is sokat...","0","drubódzom","[""drubódzom"",""drubódzok""]","","posttest trial","1",""
"html-button-response-clever","164","1140760","0.0-13.0-0.44","8573","Te bizony sokat flüröslesz. Én is sokat...","1","flüröslöm","[""flüröslök"",""flüröslöm""]","","posttest trial","1",""
"html-button-response-clever","165","1144981","0.0-13.0-0.45","3704","Te bizony sokat sztremlesz. Én is sokat...","0","sztremlek","[""sztremlek"",""sztremlem""]","","posttest trial","1",""
"html-button-response-clever","166","1150527","0.0-13.0-0.46","5029","Te bizony sokat hilarzol. Én is sokat...","1","hilarzom","[""hilarzok"",""hilarzom""]","","posttest trial","1",""
"html-button-response-clever","167","1153734","0.0-13.0-0.47","2690","Te bizony sokat büglesz. Én is sokat...","1","büglök","[""büglöm"",""büglök""]","","posttest trial","1",""
"html-button-response-clever","168","1159821","0.0-13.0-0.48","5572","Te bizony sokat fibamlasz. Én is sokat...","0","fibamlok","[""fibamlok"",""fibamlom""]","","posttest trial","1",""
"html-button-response-clever","169","1164454","0.0-13.0-0.49","4124","Te bizony sokat ribzol. Én is sokat...","1","ribzom","[""ribzok"",""ribzom""]","","posttest trial","1",""
"html-button-response-clever","170","1168918","0.0-13.0-0.50","3948","Te bizony sokat frilegszel. Én is sokat...","0","frilegszem","[""frilegszem"",""frilegszek""]","","posttest trial","1",""
"html-button-response-clever","171","1175401","0.0-13.0-0.51","5967","Te bizony sokat pivegszel. Én is sokat...","0","pivegszem","[""pivegszem"",""pivegszek""]","","posttest trial","1",""
"html-button-response-clever","172","1181565","0.0-13.0-0.52","5649","Te bizony sokat spűmlesz. Én is sokat...","1","spűmlök","[""spűmlöm"",""spűmlök""]","","posttest trial","1",""
"html-button-response-clever","173","1187443","0.0-13.0-0.53","5373","Te bizony sokat spibaklasz. Én is sokat...","1","spibaklok","[""spibaklom"",""spibaklok""]","","posttest trial","1",""
"html-button-response","174","1193008","0.0-14.0","5041","<p> Vége a játéknak. A teljes pontszámod 23/54.</p><p> Szép munka! &#128526;&#128526;&#128526;</p><p>A Befejezés gomb megnyomása után bezárhatod a böngészőablakot.</p>","0","","","","","",""
"html-keyboard-response","175","1198540","0.0-15.0","null","<div class=""message"">
         <p>Egy kis türelmet kérünk, amíg elmentjük az adatokat...</p>
         </div>","null","","","","","",""
