"trial_type","trial_index","time_elapsed","internal_node_id","rt","stimulus","response","response_string","choices","esp_response","trial_kind","list_number","esp_match"
"pavlovia","0","775","0.0-0.0","","","","","","","","",""
"html-button-response","1","28774","0.0-1.0","27492","<p>Kedves Résztvevő! A Budapesti Műszaki és Gazdaságtudományi Egyetem Kognitív Tudományi Tanszékének kutatásában való részvételed kérjük. A kutatásban azt vizsgáljuk, hogy a magyar anyanyelvűek hogyan használnak bizonyos szóalakokat, és hogy milyen képük van arról, hogy mások hogyan használják, hogyan képzik a szavakat. Ez hozzásegít bennünket ahhoz, hogy jobban megértsük, hogyan dolgozza fel és tárolja a nyelvet az emberi agy, és hogyan működnek, hogyan változnak egy adott közösség nyelvi konvenciói.</p><p>A vizsgálat egy rövid számítógépes feladatból fog állni. A kutatásban való részvétel önkéntes, a részvételi szándék bármikor visszavonható. A résztvevők eredményeit név nélkül kezeljük, így nem beazonosíthatók az adatok feldolgozása során. Minden személyes adatot az EU általános adatvédelmi rendeletének (GDPR) megfelelően kezelünk és legfeljebb öt éven belül megsemmisítünk. A vizsgálat jellemzően húsz percet vesz igénybe.</p><p>Kutatásvezető:</p><p>Dr. Rácz Péter, tudományos munkatárs, BME KTT</p><p>e-mail: racz.peter.marton@ttk.bme.hu</p>","0","","","","","",""
"html-button-response","2","58809","0.0-2.0","29532","<p>A kísérletben szavakat fogsz látni. Ezek között lesznek olyanok, amelyeket ismersz, de előfordulhatnak olyanok is, amelyeket nem ismersz, sőt, vannak köztük kitalált szavak is. Minden szónál látni fogsz toldalékolt alakokat. A te feladatod az lesz, hogy minden szóhoz kiválaszd azt a toldalékolt alakot, amely a te számodra ismerősebben, természetesebben hangzik. Rossz válaszok nincsenek, mert van olyan, hogy különböző embereknek más és más szó tűnik jobb választásnak. A választ úgy tudod majd kiválasztani, ha rákattintasz.</p><p>Ebben a szóválasztós játékban egy másik játékossal együtt veszel majd részt. A másik játékos is minden esetben azok közül a lehetőségek közül válogathat, mint te. Kettőtök feladata az, hogy ugyanazt a lehetőséget válasszátok minden esetben. Ahhoz, hogy ez sikerüljön, neked figyelned kell arra, hogy a másik játékos milyen válaszokat ad, és ennek alapján meg kell tippelned, hogyan választ legközelebb. Ha eltalálod, akkor pontot kapsz.</p>","0","","","","","",""
"html-button-response","3","61821","0.0-3.0","2493","<p>Kérjük, olvasd el az alábbi nyilatkozatot, és amennyiben egyetértesz vele, nyomj a Beleegyezés gombra!</p><p>Kijelentem, hogy magyar anyanyelvű személyként önként veszek részt a BME KTT kísérletében. A kutatás céljával és folyamatával kapcsolatban elegendő tájékoztatást kaptam, lehetőségem volt kérdések feltételére, és esetleges kérdéseimre megfelelő válaszokat kaptam. A tájékoztatás alapján elegendő mennyiségű információ áll a rendelkezésemre, hogy eldönthessem, részt kívánok-e venni a kutatásban.</p><p>Tisztában vagyok vele, hogy részvételi szándékomat és adataimat bármikor, indoklás nélkül visszavonhatom.</p><p>Értem és tudomásul veszem, hogy a kutatás tudományos célokat szolgál, és az általam szolgáltatott adatokat a BME kizárólag kutatási célból használja fel. Tudomásul veszem, hogy eredményeimet a többi résztvevő eredményeivel együtt kezelik, így egyéni teljesítményemről visszajelzést, szakvéleményt nem kapok.</p><p>Megértettem, hogy adataim kezelését illetően a BME az EU általános adatvédelmi rendelete (GDPR), a hatályos adatvédelmi törvény és a nemzetközi kutatás-etikai alapelvek szerint jár el. Eredményeim anonim módon kerülnek feldolgozásra, és a kutatás résztvevői az azonosításomra alkalmas adataimat harmadik félnek nem szolgáltatják ki. Engedélyezem a BME számára a jelen kutatásban felvett adataim feldolgozását és tárolását, beleértve azok későbbi kutatásokhoz való felhasználását is. Személyes adataim kezelésével kapcsolatban tájékoztatást kérhetek a kutatás résztvevőitől, az adatkezelés ellen tiltakozhatok, kérhetem személyes adataim helyesbítését, törlését vagy zárolását, valamint jogorvoslatért a Nemzeti Adatvédelmi és Információszabadság Hatósághoz fordulhatok.</p><p>Kijelentem, hogy a kutatásban való részvételem körülményeiről részletes tájékoztatást kaptam, és a feltételeket elfogadom.</p>","0","","","","","",""
"survey-text","4","92770","0.0-4.0","30431","","{""Q0"":""Q1ASJ5"",""Q1"":"""",""Q2"":""1976.11.02"",""Q3"":""16""}","","","","","",""
"html-button-response","5","105981","0.0-5.0","12707","<p>Ebben a játékban szavakat kell toldalékolni.</p> <p>Minden körben mutatunk majd egy példamondatot, amiben lesz egy szó.</p> <p>Alatta jön egy második mondat, ezt a mondatot neked kell majd befejezni, ugyanezzel a szóval.</p> <p>Nem biztos, hogy a szó eleve ismerős lesz számodra!</p> <p>Minden mondathoz adunk két lehetőséget, ezeket balra és jobbra látod majd.</p> <p>A játék kb. negyedóráig-húsz percig tart.</p>","0","","","","","",""
"html-button-response","6","118793","0.0-6.0","12306","<p>Nézzünk egy példát!</p> <p>A példamondat: ""Ez itt egy blumbnyeg.""</p><p>Neked ezt a mondatot kell befejezned: ""Ott vagyunk a...""</p><p>A lehetőségek pedig ezek:</p>","0","","","","","",""
"html-button-response","7","124772","0.0-7.0","5460","<p>Nagyon jó.</p><p>Ezt a játékot nem egyedül fogod játszani, hanem egy másik játékossal.</p><p>Mielőtt továbblépünk, összekapcsolunk titeket egymással.</p><p>Ez igénybe vehet néhány másodpercet, amihez szíves türelmed kérjük.</p>","0","","","","","",""
"html-button-response","8","130508","0.0-8.0","null","<p>Csatlakozás a másik játékoshoz...</p>","null","","","","","",""
"html-button-response","9","133015","0.0-9.0","null","<p> Sikeres kapcsolódás!</p>","null","","","","","",""
"html-button-response","10","143536","0.0-10.0","null","<p>A következőkben ketten játsszátok a szóválasztós játékot.</p><p>A feladatotok az lesz, hogy minden körben <b>ugyanazt</b> a szót válasszátok.</p><p>Minden ilyen egyező válaszért pontot kaptok.</p><p>Próbáld meg kitalálni, mit választ a másik játékos!</p><p>Bármikor választhatsz, a körnek akkor van vége, ha mindketten döntöttetek.</p><p>Sok sikert!</p>","null","","","","","",""
"html-button-response-esp","11","150129","0.0-11.0-0.0","6086","Ez itt egy gótem. Elneveztem a kutyámat...","1","gótemnek","[""gótemnak"",""gótemnek""]","gótemnak","esp trial","8","false"
"html-button-response","12","153637","0.0-11.0-1.0","null","<p>A másik játékos ezt választotta: <b>gótemnak</b>.</p><p>&#10060;</p><p>A válaszaitok <b>nem</b> egyeznek meg.</p>","null","","","","feedback trial","",""
"html-button-response-esp","13","168532","0.0-11.0-0.1","14377","Ez itt egy trapszegy. Nincs is jobb egy jó...","0","trapszegynál","[""trapszegynál"",""trapszegynél""]","trapszegynál","esp trial","8","true"
"html-button-response","14","172051","0.0-11.0-1.1","null","<p>A másik játékos ezt választotta: <b>trapszegynál</b>.</p><p>&#x2705;</p><p>A te válaszod és a másik játékos válasza <b>megegyeznek</b>.</p>","null","","","","feedback trial","",""
"html-button-response-esp","15","178066","0.0-11.0-0.2","5040","Ez itt egy licegy. Ott vagyunk a...","1","licegyben","[""licegyban"",""licegyben""]","licegyban","esp trial","8","false"
"html-button-response","16","181573","0.0-11.0-1.2","null","<p>A másik játékos ezt választotta: <b>licegyban</b>.</p><p>&#10060;</p><p>A válaszaitok <b>nem</b> egyeznek meg.</p>","null","","","","feedback trial","",""
"html-button-response-esp","17","187580","0.0-11.0-0.3","4428","Ez itt egy prately. Elneveztem a kutyámat...","0","pratelynak","[""pratelynak"",""pratelynek""]","pratelynak","esp trial","8","true"
"html-button-response","18","191109","0.0-11.0-1.3","null","<p>A másik játékos ezt választotta: <b>pratelynak</b>.</p><p>&#x2705;</p><p>A te válaszod és a másik játékos válasza <b>megegyeznek</b>.</p>","null","","","","feedback trial","",""
"html-button-response-esp","19","197123","0.0-11.0-0.4","5504","Ez itt egy nidét. Ott vagyunk a...","0","nidétban","[""nidétban"",""nidétben""]","nidétban","esp trial","8","true"
"html-button-response","20","200652","0.0-11.0-1.4","null","<p>A másik játékos ezt választotta: <b>nidétban</b>.</p><p>&#x2705;</p><p>A te válaszod és a másik játékos válasza <b>megegyeznek</b>.</p>","null","","","","feedback trial","",""
"html-button-response-esp","21","206667","0.0-11.0-0.5","4219","Ez itt egy ronvet. Elneveztem a kutyámat...","1","ronvetnak","[""ronvetnek"",""ronvetnak""]","ronvetnak","esp trial","8","true"
"html-button-response","22","210182","0.0-11.0-1.5","null","<p>A másik játékos ezt választotta: <b>ronvetnak</b>.</p><p>&#x2705;</p><p>A te válaszod és a másik játékos válasza <b>megegyeznek</b>.</p>","null","","","","feedback trial","",""
"html-button-response-esp","23","218435","0.0-11.0-0.6","7742","Ez itt egy gonszék. Nincs is jobb egy jó...","0","gonszéknál","[""gonszéknál"",""gonszéknél""]","gonszéknál","esp trial","8","true"
"html-button-response","24","221950","0.0-11.0-1.6","null","<p>A másik játékos ezt választotta: <b>gonszéknál</b>.</p><p>&#x2705;</p><p>A te válaszod és a másik játékos válasza <b>megegyeznek</b>.</p>","null","","","","feedback trial","",""
"html-button-response-esp","25","227969","0.0-11.0-0.7","3471","Ez itt egy forzéd. Elneveztem a kutyámat...","0","forzédnak","[""forzédnak"",""forzédnek""]","forzédnak","esp trial","8","true"
"html-button-response","26","231505","0.0-11.0-1.7","null","<p>A másik játékos ezt választotta: <b>forzédnak</b>.</p><p>&#x2705;</p><p>A te válaszod és a másik játékos válasza <b>megegyeznek</b>.</p>","null","","","","feedback trial","",""
"html-button-response-esp","27","237517","0.0-11.0-0.8","3898","Ez itt egy sporzem. Elneveztem a kutyámat...","1","sporzemnak","[""sporzemnek"",""sporzemnak""]","sporzemnak","esp trial","8","true"
"html-button-response","28","241044","0.0-11.0-1.8","null","<p>A másik játékos ezt választotta: <b>sporzemnak</b>.</p><p>&#x2705;</p><p>A te válaszod és a másik játékos válasza <b>megegyeznek</b>.</p>","null","","","","feedback trial","",""
"html-button-response-esp","29","247062","0.0-11.0-0.9","3652","Ez itt egy brukész. Nincs is jobb egy jó...","0","brukésznál","[""brukésznál"",""brukésznél""]","brukésznál","esp trial","8","true"
"html-button-response","30","250586","0.0-11.0-1.9","null","<p>A másik játékos ezt választotta: <b>brukésznál</b>.</p><p>&#x2705;</p><p>A te válaszod és a másik játékos válasza <b>megegyeznek</b>.</p>","null","","","","feedback trial","",""
"html-button-response-esp","31","256596","0.0-11.0-0.10","3468","Ez itt egy zsopéd. Ott vagyunk a...","1","zsopédban","[""zsopédben"",""zsopédban""]","zsopédben","esp trial","8","false"
"html-button-response","32","260107","0.0-11.0-1.10","null","<p>A másik játékos ezt választotta: <b>zsopédben</b>.</p><p>&#10060;</p><p>A válaszaitok <b>nem</b> egyeznek meg.</p>","null","","","","feedback trial","",""
"html-button-response-esp","33","266136","0.0-11.0-0.11","3650","Ez itt egy jalrény. Nincs is jobb egy jó...","0","jalrénynél","[""jalrénynél"",""jalrénynál""]","jalrénynél","esp trial","8","true"
"html-button-response","34","269664","0.0-11.0-1.11","null","<p>A másik játékos ezt választotta: <b>jalrénynél</b>.</p><p>&#x2705;</p><p>A te válaszod és a másik játékos válasza <b>megegyeznek</b>.</p>","null","","","","feedback trial","",""
"html-button-response-esp","35","275688","0.0-11.0-0.12","4109","Ez itt egy klordény. Elneveztem a kutyámat...","1","klordénynek","[""klordénynak"",""klordénynek""]","klordénynek","esp trial","8","true"
"html-button-response","36","279203","0.0-11.0-1.12","null","<p>A másik játékos ezt választotta: <b>klordénynek</b>.</p><p>&#x2705;</p><p>A te válaszod és a másik játékos válasza <b>megegyeznek</b>.</p>","null","","","","feedback trial","",""
"html-button-response-esp","37","285216","0.0-11.0-0.13","2987","Ez itt egy lismév. Ott vagyunk a...","1","lismévben","[""lismévban"",""lismévben""]","lismévban","esp trial","8","false"
"html-button-response","38","288743","0.0-11.0-1.13","null","<p>A másik játékos ezt választotta: <b>lismévban</b>.</p><p>&#10060;</p><p>A válaszaitok <b>nem</b> egyeznek meg.</p>","null","","","","feedback trial","",""
"html-button-response-esp","39","294758","0.0-11.0-0.14","2399","Ez itt egy jorzég. Elneveztem a kutyámat...","1","jorzégnek","[""jorzégnak"",""jorzégnek""]","jorzégnak","esp trial","8","false"
"html-button-response","40","298280","0.0-11.0-1.14","null","<p>A másik játékos ezt választotta: <b>jorzégnak</b>.</p><p>&#10060;</p><p>A válaszaitok <b>nem</b> egyeznek meg.</p>","null","","","","feedback trial","",""
"html-button-response-esp","41","304291","0.0-11.0-0.15","3214","Ez itt egy fincek. Nincs is jobb egy jó...","1","finceknál","[""finceknél"",""finceknál""]","finceknál","esp trial","8","true"
"html-button-response","42","307810","0.0-11.0-1.15","null","<p>A másik játékos ezt választotta: <b>finceknál</b>.</p><p>&#x2705;</p><p>A te válaszod és a másik játékos válasza <b>megegyeznek</b>.</p>","null","","","","feedback trial","",""
"html-button-response-esp","43","313826","0.0-11.0-0.16","2800","Ez itt egy brigeszt. Elneveztem a kutyámat...","1","brigesztnak","[""brigesztnek"",""brigesztnak""]","brigesztnak","esp trial","8","true"
"html-button-response","44","317336","0.0-11.0-1.16","null","<p>A másik játékos ezt választotta: <b>brigesztnak</b>.</p><p>&#x2705;</p><p>A te válaszod és a másik játékos válasza <b>megegyeznek</b>.</p>","null","","","","feedback trial","",""
"html-button-response-esp","45","323350","0.0-11.0-0.17","2752","Ez itt egy buhény. Ott vagyunk a...","1","buhényban","[""buhényben"",""buhényban""]","buhényben","esp trial","8","false"
"html-button-response","46","326864","0.0-11.0-1.17","null","<p>A másik játékos ezt választotta: <b>buhényben</b>.</p><p>&#10060;</p><p>A válaszaitok <b>nem</b> egyeznek meg.</p>","null","","","","feedback trial","",""
"html-button-response-esp","47","332885","0.0-11.0-0.18","1785","Ez itt egy trincseg. Ott vagyunk a...","1","trincsegben","[""trincsegban"",""trincsegben""]","trincsegban","esp trial","8","false"
"html-button-response","48","336402","0.0-11.0-1.18","null","<p>A másik játékos ezt választotta: <b>trincsegban</b>.</p><p>&#10060;</p><p>A válaszaitok <b>nem</b> egyeznek meg.</p>","null","","","","feedback trial","",""
"html-button-response-esp","49","342417","0.0-11.0-0.19","3968","Ez itt egy vodép. Elneveztem a kutyámat...","0","vodépnek","[""vodépnek"",""vodépnak""]","vodépnak","esp trial","8","false"
"html-button-response","50","345940","0.0-11.0-1.19","null","<p>A másik játékos ezt választotta: <b>vodépnak</b>.</p><p>&#10060;</p><p>A válaszaitok <b>nem</b> egyeznek meg.</p>","null","","","","feedback trial","",""
"html-button-response-esp","51","351961","0.0-11.0-0.20","4302","Ez itt egy szihét. Elneveztem a kutyámat...","1","szihétnek","[""szihétnak"",""szihétnek""]","szihétnak","esp trial","8","false"
"html-button-response","52","355484","0.0-11.0-1.20","null","<p>A másik játékos ezt választotta: <b>szihétnak</b>.</p><p>&#10060;</p><p>A válaszaitok <b>nem</b> egyeznek meg.</p>","null","","","","feedback trial","",""
"html-button-response-esp","53","361502","0.0-11.0-0.21","2798","Ez itt egy bródesz. Elneveztem a kutyámat...","0","bródesznak","[""bródesznak"",""bródesznek""]","bródesznak","esp trial","8","true"
"html-button-response","54","365009","0.0-11.0-1.21","null","<p>A másik játékos ezt választotta: <b>bródesznak</b>.</p><p>&#x2705;</p><p>A te válaszod és a másik játékos válasza <b>megegyeznek</b>.</p>","null","","","","feedback trial","",""
"html-button-response-esp","55","371012","0.0-11.0-0.22","3129","Ez itt egy giheszt. Elneveztem a kutyámat...","0","gihesztnak","[""gihesztnak"",""gihesztnek""]","gihesztnak","esp trial","8","true"
"html-button-response","56","374533","0.0-11.0-1.22","null","<p>A másik játékos ezt választotta: <b>gihesztnak</b>.</p><p>&#x2705;</p><p>A te válaszod és a másik játékos válasza <b>megegyeznek</b>.</p>","null","","","","feedback trial","",""
"html-button-response-esp","57","380547","0.0-11.0-0.23","1782","Ez itt egy kábesz. Nincs is jobb egy jó...","0","kábesznál","[""kábesznál"",""kábesznél""]","kábesznál","esp trial","8","true"
"html-button-response","58","384056","0.0-11.0-1.23","null","<p>A másik játékos ezt választotta: <b>kábesznál</b>.</p><p>&#x2705;</p><p>A te válaszod és a másik játékos válasza <b>megegyeznek</b>.</p>","null","","","","feedback trial","",""
"html-button-response-esp","59","390069","0.0-11.0-0.24","3433","Ez itt egy nyarcéj. Elneveztem a kutyámat...","1","nyarcéjnak","[""nyarcéjnek"",""nyarcéjnak""]","nyarcéjnek","esp trial","8","false"
"html-button-response","60","393588","0.0-11.0-1.24","null","<p>A másik játékos ezt választotta: <b>nyarcéjnek</b>.</p><p>&#10060;</p><p>A válaszaitok <b>nem</b> egyeznek meg.</p>","null","","","","feedback trial","",""
"html-button-response-esp","61","402497","0.0-11.0-0.25","8401","Ez itt egy sartely. Ott vagyunk a...","1","sartelyban","[""sartelyben"",""sartelyban""]","sartelyban","esp trial","8","true"
"html-button-response","62","406015","0.0-11.0-1.25","null","<p>A másik játékos ezt választotta: <b>sartelyban</b>.</p><p>&#x2705;</p><p>A te válaszod és a másik játékos válasza <b>megegyeznek</b>.</p>","null","","","","feedback trial","",""
"html-button-response-esp","63","412553","0.0-11.0-0.26","6029","Ez itt egy tránély. Elneveztem a kutyámat...","0","tránélynak","[""tránélynak"",""tránélynek""]","tránélynek","esp trial","8","false"
"html-button-response","64","416074","0.0-11.0-1.26","null","<p>A másik játékos ezt választotta: <b>tránélynek</b>.</p><p>&#10060;</p><p>A válaszaitok <b>nem</b> egyeznek meg.</p>","null","","","","feedback trial","",""
"html-button-response-esp","65","422091","0.0-11.0-0.27","3603","Ez itt egy fádens. Elneveztem a kutyámat...","1","fádensnak","[""fádensnek"",""fádensnak""]","fádensnak","esp trial","8","true"
"html-button-response","66","425603","0.0-11.0-1.27","null","<p>A másik játékos ezt választotta: <b>fádensnak</b>.</p><p>&#x2705;</p><p>A te válaszod és a másik játékos válasza <b>megegyeznek</b>.</p>","null","","","","feedback trial","",""
"html-button-response-esp","67","431615","0.0-11.0-0.28","2877","Ez itt egy júder. Elneveztem a kutyámat...","0","júdernak","[""júdernak"",""júdernek""]","júdernak","esp trial","8","true"
"html-button-response","68","435141","0.0-11.0-1.28","null","<p>A másik játékos ezt választotta: <b>júdernak</b>.</p><p>&#x2705;</p><p>A te válaszod és a másik játékos válasza <b>megegyeznek</b>.</p>","null","","","","feedback trial","",""
"html-button-response-esp","69","441149","0.0-11.0-0.29","4049","Ez itt egy csimen. Nincs is jobb egy jó...","1","csimennál","[""csimennél"",""csimennál""]","csimennál","esp trial","8","true"
"html-button-response","70","444658","0.0-11.0-1.29","null","<p>A másik játékos ezt választotta: <b>csimennál</b>.</p><p>&#x2705;</p><p>A te válaszod és a másik játékos válasza <b>megegyeznek</b>.</p>","null","","","","feedback trial","",""
"html-button-response-esp","71","450688","0.0-11.0-0.30","3836","Ez itt egy jábéz. Ott vagyunk a...","0","jábézban","[""jábézban"",""jábézben""]","jábézben","esp trial","8","false"
"html-button-response","72","454209","0.0-11.0-1.30","null","<p>A másik játékos ezt választotta: <b>jábézben</b>.</p><p>&#10060;</p><p>A válaszaitok <b>nem</b> egyeznek meg.</p>","null","","","","feedback trial","",""
"html-button-response-esp","73","460225","0.0-11.0-0.31","2735","Ez itt egy spáten. Elneveztem a kutyámat...","0","spátennak","[""spátennak"",""spátennek""]","spátennak","esp trial","8","true"
"html-button-response","74","463738","0.0-11.0-1.31","null","<p>A másik játékos ezt választotta: <b>spátennak</b>.</p><p>&#x2705;</p><p>A te válaszod és a másik játékos válasza <b>megegyeznek</b>.</p>","null","","","","feedback trial","",""
"html-button-response-esp","75","469754","0.0-11.0-0.32","3144","Ez itt egy brotes. Ott vagyunk a...","0","brotesban","[""brotesban"",""brotesben""]","brotesben","esp trial","8","false"
"html-button-response","76","473262","0.0-11.0-1.32","null","<p>A másik játékos ezt választotta: <b>brotesben</b>.</p><p>&#10060;</p><p>A válaszaitok <b>nem</b> egyeznek meg.</p>","null","","","","feedback trial","",""
"html-button-response-esp","77","479274","0.0-11.0-0.33","2457","Ez itt egy csartény. Elneveztem a kutyámat...","1","csarténynek","[""csarténynak"",""csarténynek""]","csarténynek","esp trial","8","true"
"html-button-response","78","482789","0.0-11.0-1.33","null","<p>A másik játékos ezt választotta: <b>csarténynek</b>.</p><p>&#x2705;</p><p>A te válaszod és a másik játékos válasza <b>megegyeznek</b>.</p>","null","","","","feedback trial","",""
"html-button-response-esp","79","488807","0.0-11.0-0.34","2585","Ez itt egy dingec. Elneveztem a kutyámat...","0","dingecnek","[""dingecnek"",""dingecnak""]","dingecnak","esp trial","8","false"
"html-button-response","80","492315","0.0-11.0-1.34","null","<p>A másik játékos ezt választotta: <b>dingecnak</b>.</p><p>&#10060;</p><p>A válaszaitok <b>nem</b> egyeznek meg.</p>","null","","","","feedback trial","",""
"html-button-response-esp","81","498336","0.0-11.0-0.35","2526","Ez itt egy csinték. Ott vagyunk a...","0","csintékben","[""csintékben"",""csintékban""]","csintékban","esp trial","8","false"
"html-button-response","82","501848","0.0-11.0-1.35","null","<p>A másik játékos ezt választotta: <b>csintékban</b>.</p><p>&#10060;</p><p>A válaszaitok <b>nem</b> egyeznek meg.</p>","null","","","","feedback trial","",""
"html-button-response-esp","83","507864","0.0-11.0-0.36","4024","Ez itt egy gicéj. Nincs is jobb egy jó...","0","gicéjnál","[""gicéjnál"",""gicéjnél""]","gicéjnál","esp trial","8","true"
"html-button-response","84","511384","0.0-11.0-1.36","null","<p>A másik játékos ezt választotta: <b>gicéjnál</b>.</p><p>&#x2705;</p><p>A te válaszod és a másik játékos válasza <b>megegyeznek</b>.</p>","null","","","","feedback trial","",""
"html-button-response-esp","85","517408","0.0-11.0-0.37","2420","Ez itt egy vublet. Nincs is jobb egy jó...","1","vubletnál","[""vubletnél"",""vubletnál""]","vubletnál","esp trial","8","true"
"html-button-response","86","520935","0.0-11.0-1.37","null","<p>A másik játékos ezt választotta: <b>vubletnál</b>.</p><p>&#x2705;</p><p>A te válaszod és a másik játékos válasza <b>megegyeznek</b>.</p>","null","","","","feedback trial","",""
"html-button-response-esp","87","526944","0.0-11.0-0.38","2697","Ez itt egy trigenc. Elneveztem a kutyámat...","1","trigencnak","[""trigencnek"",""trigencnak""]","trigencnak","esp trial","8","true"
"html-button-response","88","530472","0.0-11.0-1.38","null","<p>A másik játékos ezt választotta: <b>trigencnak</b>.</p><p>&#x2705;</p><p>A te válaszod és a másik játékos válasza <b>megegyeznek</b>.</p>","null","","","","feedback trial","",""
"html-button-response-esp","89","536482","0.0-11.0-0.39","4321","Ez itt egy kadér. Nincs is jobb egy jó...","1","kadérnál","[""kadérnél"",""kadérnál""]","kadérnél","esp trial","8","false"
"html-button-response","90","539995","0.0-11.0-1.39","null","<p>A másik játékos ezt választotta: <b>kadérnél</b>.</p><p>&#10060;</p><p>A válaszaitok <b>nem</b> egyeznek meg.</p>","null","","","","feedback trial","",""
"html-button-response-esp","91","546018","0.0-11.0-0.40","2881","Ez itt egy kluhéj. Nincs is jobb egy jó...","0","kluhéjnál","[""kluhéjnál"",""kluhéjnél""]","kluhéjnél","esp trial","8","false"
"html-button-response","92","549533","0.0-11.0-1.40","null","<p>A másik játékos ezt választotta: <b>kluhéjnél</b>.</p><p>&#10060;</p><p>A válaszaitok <b>nem</b> egyeznek meg.</p>","null","","","","feedback trial","",""
"html-button-response-esp","93","555542","0.0-11.0-0.41","3815","Ez itt egy kliszer. Nincs is jobb egy jó...","0","kliszernél","[""kliszernél"",""kliszernál""]","kliszernál","esp trial","8","false"
"html-button-response","94","559058","0.0-11.0-1.41","null","<p>A másik játékos ezt választotta: <b>kliszernál</b>.</p><p>&#10060;</p><p>A válaszaitok <b>nem</b> egyeznek meg.</p>","null","","","","feedback trial","",""
"html-button-response-esp","95","565074","0.0-11.0-0.42","2077","Ez itt egy priszkenc. Elneveztem a kutyámat...","1","priszkencnak","[""priszkencnek"",""priszkencnak""]","priszkencnak","esp trial","8","true"
"html-button-response","96","568590","0.0-11.0-1.42","null","<p>A másik játékos ezt választotta: <b>priszkencnak</b>.</p><p>&#x2705;</p><p>A te válaszod és a másik játékos válasza <b>megegyeznek</b>.</p>","null","","","","feedback trial","",""
"html-button-response-esp","97","574599","0.0-11.0-0.43","2308","Ez itt egy hóbens. Ott vagyunk a...","0","hóbensban","[""hóbensban"",""hóbensben""]","hóbensban","esp trial","8","true"
"html-button-response","98","578112","0.0-11.0-1.43","null","<p>A másik játékos ezt választotta: <b>hóbensban</b>.</p><p>&#x2705;</p><p>A te válaszod és a másik játékos válasza <b>megegyeznek</b>.</p>","null","","","","feedback trial","",""
"html-button-response-esp","99","584121","0.0-11.0-0.44","3386","Ez itt egy nyábét. Ott vagyunk a...","1","nyábétban","[""nyábétben"",""nyábétban""]","nyábétben","esp trial","8","false"
"html-button-response","100","587641","0.0-11.0-1.44","null","<p>A másik játékos ezt választotta: <b>nyábétben</b>.</p><p>&#10060;</p><p>A válaszaitok <b>nem</b> egyeznek meg.</p>","null","","","","feedback trial","",""
"html-button-response-esp","101","593652","0.0-11.0-0.45","2816","Ez itt egy navec. Ott vagyunk a...","1","navecban","[""navecben"",""navecban""]","navecban","esp trial","8","true"
"html-button-response","102","597162","0.0-11.0-1.45","null","<p>A másik játékos ezt választotta: <b>navecban</b>.</p><p>&#x2705;</p><p>A te válaszod és a másik játékos válasza <b>megegyeznek</b>.</p>","null","","","","feedback trial","",""
"html-button-response-esp","103","603171","0.0-11.0-0.46","2672","Ez itt egy hivép. Ott vagyunk a...","0","hivépben","[""hivépben"",""hivépban""]","hivépban","esp trial","8","false"
"html-button-response","104","606690","0.0-11.0-1.46","null","<p>A másik játékos ezt választotta: <b>hivépban</b>.</p><p>&#10060;</p><p>A válaszaitok <b>nem</b> egyeznek meg.</p>","null","","","","feedback trial","",""
"html-button-response-esp","105","612699","0.0-11.0-0.47","3190","Ez itt egy matéz. Ott vagyunk a...","0","matézban","[""matézban"",""matézben""]","matézben","esp trial","8","false"
"html-button-response","106","616217","0.0-11.0-1.47","null","<p>A másik játékos ezt választotta: <b>matézben</b>.</p><p>&#10060;</p><p>A válaszaitok <b>nem</b> egyeznek meg.</p>","null","","","","feedback trial","",""
"html-button-response-esp","107","622237","0.0-11.0-0.48","2742","Ez itt egy szutend. Ott vagyunk a...","0","szutendban","[""szutendban"",""szutendben""]","szutendban","esp trial","8","true"
"html-button-response","108","625746","0.0-11.0-1.48","null","<p>A másik játékos ezt választotta: <b>szutendban</b>.</p><p>&#x2705;</p><p>A te válaszod és a másik játékos válasza <b>megegyeznek</b>.</p>","null","","","","feedback trial","",""
"html-button-response-esp","109","631761","0.0-11.0-0.49","3496","Ez itt egy ikszert. Ott vagyunk a...","1","ikszertben","[""ikszertban"",""ikszertben""]","ikszertban","esp trial","8","false"
"html-button-response","110","635283","0.0-11.0-1.49","null","<p>A másik játékos ezt választotta: <b>ikszertban</b>.</p><p>&#10060;</p><p>A válaszaitok <b>nem</b> egyeznek meg.</p>","null","","","","feedback trial","",""
"html-button-response-esp","111","641291","0.0-11.0-0.50","2197","Ez itt egy bidem. Ott vagyunk a...","0","bidemben","[""bidemben"",""bidemban""]","bidemban","esp trial","8","false"
"html-button-response","112","644819","0.0-11.0-1.50","null","<p>A másik játékos ezt választotta: <b>bidemban</b>.</p><p>&#10060;</p><p>A válaszaitok <b>nem</b> egyeznek meg.</p>","null","","","","feedback trial","",""
"html-button-response-esp","113","650825","0.0-11.0-0.51","2272","Ez itt egy tranék. Ott vagyunk a...","1","tranékban","[""tranékben"",""tranékban""]","tranékben","esp trial","8","false"
"html-button-response","114","654335","0.0-11.0-1.51","null","<p>A másik játékos ezt választotta: <b>tranékben</b>.</p><p>&#10060;</p><p>A válaszaitok <b>nem</b> egyeznek meg.</p>","null","","","","feedback trial","",""
"html-button-response-esp","115","660351","0.0-11.0-0.52","2811","Ez itt egy brágéd. Elneveztem a kutyámat...","1","brágédnak","[""brágédnek"",""brágédnak""]","brágédnek","esp trial","8","false"
"html-button-response","116","663859","0.0-11.0-1.52","null","<p>A másik játékos ezt választotta: <b>brágédnek</b>.</p><p>&#10060;</p><p>A válaszaitok <b>nem</b> egyeznek meg.</p>","null","","","","feedback trial","",""
"html-button-response-esp","117","669894","0.0-11.0-0.53","2991","Ez itt egy sprízem. Nincs is jobb egy jó...","0","sprízemnél","[""sprízemnél"",""sprízemnál""]","sprízemnál","esp trial","8","false"
"html-button-response","118","673427","0.0-11.0-1.53","null","<p>A másik játékos ezt választotta: <b>sprízemnál</b>.</p><p>&#10060;</p><p>A válaszaitok <b>nem</b> egyeznek meg.</p>","null","","","","feedback trial","",""
"html-button-response","119","682783","0.0-12.0","8853","<p>A közös játék most véget ért.</p><p>Mielőtt eláruljuk a végső pontszámodat, arra kérlek, játszd a szóválasztós játékot néhány percig egyedül is.</p><p>A feladatod ugyanaz lesz, választani két lehetőség közül.</p><p>Most viszont egyedül kell döntened, hogy te melyiket választanád.</p>","0","","","","","",""
"html-button-response-clever","120","686676","0.0-13.0-0.0","3375","Ez itt egy fájéz. Ott vagyunk a...","0","fájézben","[""fájézben"",""fájézban""]","","posttest trial","1",""
"html-button-response-clever","121","691188","0.0-13.0-0.1","4005","Ez itt egy kalhész. Elneveztem a kutyámat...","0","kalhésznak","[""kalhésznak"",""kalhésznek""]","","posttest trial","1",""
"html-button-response-clever","122","694115","0.0-13.0-0.2","2423","Ez itt egy pisély. Ott vagyunk a...","0","pisélyben","[""pisélyben"",""pisélyban""]","","posttest trial","1",""
"html-button-response-clever","123","698515","0.0-13.0-0.3","3892","Ez itt egy priszec. Ott vagyunk a...","1","priszecben","[""priszecban"",""priszecben""]","","posttest trial","1",""
"html-button-response-clever","124","701747","0.0-13.0-0.4","2724","Ez itt egy kalréz. Ott vagyunk a...","1","kalrézben","[""kalrézban"",""kalrézben""]","","posttest trial","1",""
"html-button-response-clever","125","704463","0.0-13.0-0.5","2212","Ez itt egy ítens. Ott vagyunk a...","0","ítensben","[""ítensben"",""ítensban""]","","posttest trial","1",""
"html-button-response-clever","126","707604","0.0-13.0-0.6","2638","Ez itt egy sortem. Nincs is jobb egy jó...","0","sortemnél","[""sortemnél"",""sortemnál""]","","posttest trial","1",""
"html-button-response-clever","127","712435","0.0-13.0-0.7","4316","Ez itt egy spanél. Nincs is jobb egy jó...","1","spanélnél","[""spanélnál"",""spanélnél""]","","posttest trial","1",""
"html-button-response-clever","128","720815","0.0-13.0-0.8","7877","Ez itt egy rapszek. Nincs is jobb egy jó...","1","rapszeknél","[""rapszeknál"",""rapszeknél""]","","posttest trial","1",""
"html-button-response-clever","129","724223","0.0-13.0-0.9","2904","Ez itt egy klosét. Elneveztem a kutyámat...","1","klosétnek","[""klosétnak"",""klosétnek""]","","posttest trial","1",""
"html-button-response-clever","130","728879","0.0-13.0-0.10","4143","Ez itt egy garcép. Nincs is jobb egy jó...","1","garcépnél","[""garcépnál"",""garcépnél""]","","posttest trial","1",""
"html-button-response-clever","131","732420","0.0-13.0-0.11","3046","Ez itt egy dábegy. Ott vagyunk a...","1","dábegyben","[""dábegyban"",""dábegyben""]","","posttest trial","1",""
"html-button-response-clever","132","736260","0.0-13.0-0.12","3333","Ez itt egy sprivenc. Nincs is jobb egy jó...","1","sprivencnél","[""sprivencnál"",""sprivencnél""]","","posttest trial","1",""
"html-button-response-clever","133","739464","0.0-13.0-0.13","2700","Ez itt egy darhén. Ott vagyunk a...","0","darhénben","[""darhénben"",""darhénban""]","","posttest trial","1",""
"html-button-response-clever","134","742252","0.0-13.0-0.14","2279","Ez itt egy brindez. Elneveztem a kutyámat...","0","brindeznek","[""brindeznek"",""brindeznak""]","","posttest trial","1",""
"html-button-response-clever","135","745972","0.0-13.0-0.15","3212","Ez itt egy nyupér. Nincs is jobb egy jó...","0","nyupérnél","[""nyupérnél"",""nyupérnál""]","","posttest trial","1",""
"html-button-response-clever","136","748932","0.0-13.0-0.16","2457","Ez itt egy nyamet. Ott vagyunk a...","0","nyametben","[""nyametben"",""nyametban""]","","posttest trial","1",""
"html-button-response-clever","137","752033","0.0-13.0-0.17","2592","Ez itt egy gúden. Ott vagyunk a...","1","gúdenben","[""gúdenban"",""gúdenben""]","","posttest trial","1",""
"html-button-response-clever","138","755821","0.0-13.0-0.18","3284","Ez itt egy pijél. Nincs is jobb egy jó...","0","pijélnél","[""pijélnél"",""pijélnál""]","","posttest trial","1",""
"html-button-response-clever","139","758808","0.0-13.0-0.19","2469","Ez itt egy zsigén. Nincs is jobb egy jó...","0","zsigénnél","[""zsigénnél"",""zsigénnál""]","","posttest trial","1",""
"html-button-response-clever","140","761112","0.0-13.0-0.20","1802","Ez itt egy pivéd. Ott vagyunk a...","0","pivédben","[""pivédben"",""pivédban""]","","posttest trial","1",""
"html-button-response-clever","141","765800","0.0-13.0-0.21","4185","Ez itt egy dorzéj. Elneveztem a kutyámat...","1","dorzéjnak","[""dorzéjnek"",""dorzéjnak""]","","posttest trial","1",""
"html-button-response-clever","142","770624","0.0-13.0-0.22","4323","Ez itt egy klingesz. Ott vagyunk a...","1","klingeszben","[""klingeszban"",""klingeszben""]","","posttest trial","1",""
"html-button-response-clever","143","776060","0.0-13.0-0.23","4935","Ez itt egy monveg. Nincs is jobb egy jó...","1","monvegnél","[""monvegnál"",""monvegnél""]","","posttest trial","1",""
"html-button-response-clever","144","778688","0.0-13.0-0.24","2127","Ez itt egy incéj. Elneveztem a kutyámat...","1","incéjnek","[""incéjnak"",""incéjnek""]","","posttest trial","1",""
"html-button-response-clever","145","786088","0.0-13.0-0.25","6898","Ez itt egy tosély. Ott vagyunk a...","1","tosélyben","[""tosélyban"",""tosélyben""]","","posttest trial","1",""
"html-button-response-clever","146","788972","0.0-13.0-0.26","2380","Ez itt egy pítend. Ott vagyunk a...","0","pítendben","[""pítendben"",""pítendban""]","","posttest trial","1",""
"html-button-response-clever","147","792874","0.0-13.0-0.27","3395","Ez itt egy jukél. Nincs is jobb egy jó...","1","jukélnél","[""jukélnál"",""jukélnél""]","","posttest trial","1",""
"html-button-response-clever","148","797222","0.0-13.0-0.28","3840","Ez itt egy vorszen. Nincs is jobb egy jó...","0","vorszennél","[""vorszennél"",""vorszennál""]","","posttest trial","1",""
"html-button-response-clever","149","801018","0.0-13.0-0.29","3289","Ez itt egy zihenc. Elneveztem a kutyámat...","0","zihencnek","[""zihencnek"",""zihencnak""]","","posttest trial","1",""
"html-button-response-clever","150","804598","0.0-13.0-0.30","3075","Ez itt egy luméz. Ott vagyunk a...","0","lumézben","[""lumézben"",""lumézban""]","","posttest trial","1",""
"html-button-response-clever","151","807658","0.0-13.0-0.31","2553","Ez itt egy lorzens. Nincs is jobb egy jó...","1","lorzensnél","[""lorzensnál"",""lorzensnél""]","","posttest trial","1",""
"html-button-response-clever","152","811930","0.0-13.0-0.32","3766","Ez itt egy braszenc. Nincs is jobb egy jó...","1","braszencnél","[""braszencnál"",""braszencnél""]","","posttest trial","1",""
"html-button-response-clever","153","819322","0.0-13.0-0.33","6887","Ez itt egy kaszép. Elneveztem a kutyámat...","1","kaszépnak","[""kaszépnek"",""kaszépnak""]","","posttest trial","1",""
"html-button-response-clever","154","823162","0.0-13.0-0.34","3335","Ez itt egy kátel. Elneveztem a kutyámat...","1","kátelnek","[""kátelnak"",""kátelnek""]","","posttest trial","1",""
"html-button-response-clever","155","827062","0.0-13.0-0.35","3395","Ez itt egy narem. Ott vagyunk a...","1","naremben","[""naremban"",""naremben""]","","posttest trial","1",""
"html-button-response-clever","156","829786","0.0-13.0-0.36","2223","Ez itt egy trájeg. Ott vagyunk a...","1","trájegben","[""trájegban"",""trájegben""]","","posttest trial","1",""
"html-button-response-clever","157","832306","0.0-13.0-0.37","2014","Ez itt egy dihely. Elneveztem a kutyámat...","1","dihelynek","[""dihelynak"",""dihelynek""]","","posttest trial","1",""
"html-button-response-clever","158","835342","0.0-13.0-0.38","2530","Ez itt egy dalenc. Nincs is jobb egy jó...","0","dalencnél","[""dalencnél"",""dalencnál""]","","posttest trial","1",""
"html-button-response-clever","159","839306","0.0-13.0-0.39","3456","Ez itt egy hágyét. Elneveztem a kutyámat...","0","hágyétnek","[""hágyétnek"",""hágyétnak""]","","posttest trial","1",""
"html-button-response-clever","160","842570","0.0-13.0-0.40","2748","Ez itt egy trismél. Elneveztem a kutyámat...","0","trismélnek","[""trismélnek"",""trismélnak""]","","posttest trial","1",""
"html-button-response-clever","161","846350","0.0-13.0-0.41","3279","Ez itt egy ronszek. Ott vagyunk a...","1","ronszekben","[""ronszekban"",""ronszekben""]","","posttest trial","1",""
"html-button-response-clever","162","849630","0.0-13.0-0.42","2778","Ez itt egy spicet. Elneveztem a kutyámat...","1","spicetnek","[""spicetnak"",""spicetnek""]","","posttest trial","1",""
"html-button-response-clever","163","853028","0.0-13.0-0.43","2896","Ez itt egy spumény. Elneveztem a kutyámat...","1","spuménynak","[""spuménynek"",""spuménynak""]","","posttest trial","1",""
"html-button-response-clever","164","857004","0.0-13.0-0.44","3475","Ez itt egy zsúdel. Elneveztem a kutyámat...","1","zsúdelnek","[""zsúdelnak"",""zsúdelnek""]","","posttest trial","1",""
"html-button-response-clever","165","860284","0.0-13.0-0.45","2775","Ez itt egy bralkép. Ott vagyunk a...","0","bralképben","[""bralképben"",""bralképban""]","","posttest trial","1",""
"html-button-response-clever","166","863608","0.0-13.0-0.46","2819","Ez itt egy jóbec. Elneveztem a kutyámat...","0","jóbecnek","[""jóbecnek"",""jóbecnak""]","","posttest trial","1",""
"html-button-response-clever","167","866696","0.0-13.0-0.47","2581","Ez itt egy nyítem. Ott vagyunk a...","0","nyítemben","[""nyítemben"",""nyítemban""]","","posttest trial","1",""
"html-button-response-clever","168","869992","0.0-13.0-0.48","2789","Ez itt egy zopély. Nincs is jobb egy jó...","0","zopélynél","[""zopélynél"",""zopélynál""]","","posttest trial","1",""
"html-button-response-clever","169","874044","0.0-13.0-0.49","3539","Ez itt egy zsádév. Elneveztem a kutyámat...","1","zsádévnak","[""zsádévnek"",""zsádévnak""]","","posttest trial","1",""
"html-button-response-clever","170","880516","0.0-13.0-0.50","5969","Ez itt egy danét. Nincs is jobb egy jó...","1","danétnál","[""danétnél"",""danétnál""]","","posttest trial","1",""
"html-button-response-clever","171","883656","0.0-13.0-0.51","2639","Ez itt egy zsáder. Ott vagyunk a...","0","zsáderben","[""zsáderben"",""zsáderban""]","","posttest trial","1",""
"html-button-response-clever","172","886860","0.0-13.0-0.52","2699","Ez itt egy spábét. Ott vagyunk a...","1","spábétben","[""spábétban"",""spábétben""]","","posttest trial","1",""
"html-button-response-clever","173","890696","0.0-13.0-0.53","3335","Ez itt egy bupéz. Ott vagyunk a...","0","bupézben","[""bupézben"",""bupézban""]","","posttest trial","1",""
"html-button-response","174","896712","0.0-14.0","5501","<p> Vége a játéknak. A teljes pontszámod 28/54.</p><p> Szép munka! &#128526;&#128526;&#128526;</p><p>A Befejezés gomb megnyomása után bezárhatod a böngészőablakot.</p>","0","","","","","",""
"html-keyboard-response","175","902233","0.0-15.0","null","<div class=""message"">
         <p>Egy kis türelmet kérünk, amíg elmentjük az adatokat...</p>
         </div>","null","","","","","",""
