"trial_type","trial_index","time_elapsed","internal_node_id","rt","stimulus","response","response_string","choices","esp_response","trial_kind","list_number","esp_match"
"pavlovia","0","716","0.0-0.0","","","","","","","","",""
"html-button-response","1","31066","0.0-1.0","29831","<p>Kedves Résztvevő! A Budapesti Műszaki és Gazdaságtudományi Egyetem Kognitív Tudományi Tanszékének kutatásában való részvételed kérjük. A kutatásban azt vizsgáljuk, hogy a magyar anyanyelvűek hogyan használnak bizonyos szóalakokat, és hogy milyen képük van arról, hogy mások hogyan használják, hogyan képzik a szavakat. Ez hozzásegít bennünket ahhoz, hogy jobban megértsük, hogyan dolgozza fel és tárolja a nyelvet az emberi agy, és hogyan működnek, hogyan változnak egy adott közösség nyelvi konvenciói.</p><p>A vizsgálat egy rövid számítógépes feladatból fog állni. A kutatásban való részvétel önkéntes, a részvételi szándék bármikor visszavonható. A résztvevők eredményeit név nélkül kezeljük, így nem beazonosíthatók az adatok feldolgozása során. Minden személyes adatot az EU általános adatvédelmi rendeletének (GDPR) megfelelően kezelünk és legfeljebb öt éven belül megsemmisítünk. A vizsgálat jellemzően húsz percet vesz igénybe.</p><p>Kutatásvezető:</p><p>Dr. Rácz Péter, tudományos munkatárs, BME KTT</p><p>e-mail: racz.peter.marton@ttk.bme.hu</p>","0","","","","","",""
"html-button-response","2","57257","0.0-2.0","25688","<p>A kísérletben szavakat fogsz látni. Ezek között lesznek olyanok, amelyeket ismersz, de előfordulhatnak olyanok is, amelyeket nem ismersz, sőt, vannak köztük kitalált szavak is. Minden szónál látni fogsz toldalékolt alakokat. A te feladatod az lesz, hogy minden szóhoz kiválaszd azt a toldalékolt alakot, amely a te számodra ismerősebben, természetesebben hangzik. Rossz válaszok nincsenek, mert van olyan, hogy különböző embereknek más és más szó tűnik jobb választásnak. A választ úgy tudod majd kiválasztani, ha rákattintasz.</p><p>Ebben a szóválasztós játékban egy másik játékossal együtt veszel majd részt. A másik játékos is minden esetben azok közül a lehetőségek közül válogathat, mint te. Kettőtök feladata az, hogy ugyanazt a lehetőséget válasszátok minden esetben. Ahhoz, hogy ez sikerüljön, neked figyelned kell arra, hogy a másik játékos milyen válaszokat ad, és ennek alapján meg kell tippelned, hogyan választ legközelebb. Ha eltalálod, akkor pontot kapsz.</p>","0","","","","","",""
"html-button-response","3","65282","0.0-3.0","7509","<p>Kérjük, olvasd el az alábbi nyilatkozatot, és amennyiben egyetértesz vele, nyomj a Beleegyezés gombra!</p><p>Kijelentem, hogy magyar anyanyelvű személyként önként veszek részt a BME KTT kísérletében. A kutatás céljával és folyamatával kapcsolatban elegendő tájékoztatást kaptam, lehetőségem volt kérdések feltételére, és esetleges kérdéseimre megfelelő válaszokat kaptam. A tájékoztatás alapján elegendő mennyiségű információ áll a rendelkezésemre, hogy eldönthessem, részt kívánok-e venni a kutatásban.</p><p>Tisztában vagyok vele, hogy részvételi szándékomat és adataimat bármikor, indoklás nélkül visszavonhatom.</p><p>Értem és tudomásul veszem, hogy a kutatás tudományos célokat szolgál, és az általam szolgáltatott adatokat a BME kizárólag kutatási célból használja fel. Tudomásul veszem, hogy eredményeimet a többi résztvevő eredményeivel együtt kezelik, így egyéni teljesítményemről visszajelzést, szakvéleményt nem kapok.</p><p>Megértettem, hogy adataim kezelését illetően a BME az EU általános adatvédelmi rendelete (GDPR), a hatályos adatvédelmi törvény és a nemzetközi kutatás-etikai alapelvek szerint jár el. Eredményeim anonim módon kerülnek feldolgozásra, és a kutatás résztvevői az azonosításomra alkalmas adataimat harmadik félnek nem szolgáltatják ki. Engedélyezem a BME számára a jelen kutatásban felvett adataim feldolgozását és tárolását, beleértve azok későbbi kutatásokhoz való felhasználását is. Személyes adataim kezelésével kapcsolatban tájékoztatást kérhetek a kutatás résztvevőitől, az adatkezelés ellen tiltakozhatok, kérhetem személyes adataim helyesbítését, törlését vagy zárolását, valamint jogorvoslatért a Nemzeti Adatvédelmi és Információszabadság Hatósághoz fordulhatok.</p><p>Kijelentem, hogy a kutatásban való részvételem körülményeiről részletes tájékoztatást kaptam, és a feltételeket elfogadom.</p>","0","","","","","",""
"survey-text","4","115402","0.0-4.0","49600","","{""Q0"":""Z7WNY6"",""Q1"":""nő"",""Q2"":""2001"",""Q3"":""15-15,5""}","","","","","",""
"html-button-response","5","124801","0.0-5.0","8891","<p>Ebben a játékban szavakat kell toldalékolni.</p> <p>Minden körben mutatunk majd egy példamondatot, amiben lesz egy szó.</p> <p>Alatta jön egy második mondat, ezt a mondatot neked kell majd befejezni, ugyanezzel a szóval.</p> <p>Nem biztos, hogy a szó eleve ismerős lesz számodra!</p> <p>Minden mondathoz adunk két lehetőséget, ezeket balra és jobbra látod majd.</p> <p>A játék kb. negyedóráig-húsz percig tart.</p>","0","","","","","",""
"html-button-response","6","144049","0.0-6.0","18743","<p>Nézzünk egy példát!</p> <p>A példamondat: ""János nagyon szeret rancsúrozni.""</p><p>Neked ezt a mondatot kell befejezned: ""Én is szívesen...""</p><p>A lehetőségek pedig ezek:</p>","1","","","","","",""
"html-button-response","7","149593","0.0-7.0","5038","<p>Nagyon jó.</p><p>Ezt a játékot nem egyedül fogod játszani, hanem egy másik játékossal.</p><p>Mielőtt továbblépünk, összekapcsolunk titeket egymással.</p><p>Ez igénybe vehet néhány másodpercet, amihez szíves türelmed kérjük.</p>","0","","","","","",""
"html-button-response","8","155336","0.0-8.0","null","<p>Csatlakozás a másik játékoshoz...</p>","null","","","","","",""
"html-button-response","9","157863","0.0-9.0","null","<p> Sikeres kapcsolódás!</p>","null","","","","","",""
"html-button-response","10","168392","0.0-10.0","null","<p>A következőkben ketten játsszátok a szóválasztós játékot.</p><p>A feladatotok az lesz, hogy minden körben <b>ugyanazt</b> a szót válasszátok.</p><p>Minden ilyen egyező válaszért pontot kaptok.</p><p>Próbáld meg kitalálni, mit választ a másik játékos!</p><p>Bármikor választhatsz, a körnek akkor van vége, ha mindketten döntöttetek.</p><p>Sok sikert!</p>","null","","","","","",""
"html-button-response-esp","11","175281","0.0-11.0-0.0","6382","Te bizony sokat treglesz. Én is sokat...","1","treglek","[""treglem"",""treglek""]","treglek","esp trial","5","true"
"html-button-response","12","178791","0.0-11.0-1.0","null","<p>A másik játékos ezt választotta: <b>treglek</b>.</p><p>&#x2705;</p><p>A te válaszod és a másik játékos válasza <b>megegyeznek</b>.</p>","null","","","","feedback trial","",""
"html-button-response-esp","13","189409","0.0-11.0-0.1","10098","Te bizony sokat lörűdzöl. Én is sokat...","0","lörűdzök","[""lörűdzök"",""lörűdzöm""]","lörűdzök","esp trial","5","true"
"html-button-response","14","192950","0.0-11.0-1.1","null","<p>A másik játékos ezt választotta: <b>lörűdzök</b>.</p><p>&#x2705;</p><p>A te válaszod és a másik játékos válasza <b>megegyeznek</b>.</p>","null","","","","feedback trial","",""
"html-button-response-esp","15","202025","0.0-11.0-0.2","8556","Te bizony sokat trehégszel. Én is sokat...","0","trehégszem","[""trehégszem"",""trehégszek""]","trehégszem","esp trial","5","true"
"html-button-response","16","205536","0.0-11.0-1.2","null","<p>A másik játékos ezt választotta: <b>trehégszem</b>.</p><p>&#x2705;</p><p>A te válaszod és a másik játékos válasza <b>megegyeznek</b>.</p>","null","","","","feedback trial","",""
"html-button-response-esp","17","214033","0.0-11.0-0.3","7982","Te bizony sokat flehékszel. Én is sokat...","0","flehékszek","[""flehékszek"",""flehékszem""]","flehékszem","esp trial","5","false"
"html-button-response","18","217543","0.0-11.0-1.3","null","<p>A másik játékos ezt választotta: <b>flehékszem</b>.</p><p>&#10060;</p><p>A válaszaitok <b>nem</b> egyeznek meg.</p>","null","","","","feedback trial","",""
"html-button-response-esp","19","224415","0.0-11.0-0.4","3927","Te bizony sokat frodlasz. Én is sokat...","0","frodlok","[""frodlok"",""frodlom""]","frodlok","esp trial","5","true"
"html-button-response","20","227928","0.0-11.0-1.4","null","<p>A másik játékos ezt választotta: <b>frodlok</b>.</p><p>&#x2705;</p><p>A te válaszod és a másik játékos válasza <b>megegyeznek</b>.</p>","null","","","","feedback trial","",""
"html-button-response-esp","21","235841","0.0-11.0-0.5","7409","Te bizony sokat flitlasz. Én is sokat...","1","flitlok","[""flitlom"",""flitlok""]","flitlok","esp trial","5","true"
"html-button-response","22","239372","0.0-11.0-1.5","null","<p>A másik játékos ezt választotta: <b>flitlok</b>.</p><p>&#x2705;</p><p>A te válaszod és a másik játékos válasza <b>megegyeznek</b>.</p>","null","","","","feedback trial","",""
"html-button-response-esp","23","252529","0.0-11.0-0.6","12641","Te bizony sokat rájzol. Én is sokat...","1","rájzom","[""rájzok"",""rájzom""]","rájzok","esp trial","5","false"
"html-button-response","24","256056","0.0-11.0-1.6","null","<p>A másik játékos ezt választotta: <b>rájzok</b>.</p><p>&#10060;</p><p>A válaszaitok <b>nem</b> egyeznek meg.</p>","null","","","","feedback trial","",""
"html-button-response-esp","25","262930","0.0-11.0-0.7","5214","Te bizony sokat bihánylasz. Én is sokat...","1","bihánylok","[""bihánylom"",""bihánylok""]","bihánylok","esp trial","5","true"
"html-button-response","26","266464","0.0-11.0-1.7","null","<p>A másik játékos ezt választotta: <b>bihánylok</b>.</p><p>&#x2705;</p><p>A te válaszod és a másik játékos válasza <b>megegyeznek</b>.</p>","null","","","","feedback trial","",""
"html-button-response-esp","27","273857","0.0-11.0-0.8","6878","Te bizony sokat brobódzol. Én is sokat...","0","brobódzok","[""brobódzok"",""brobódzom""]","brobódzom","esp trial","5","false"
"html-button-response","28","277380","0.0-11.0-1.8","null","<p>A másik játékos ezt választotta: <b>brobódzom</b>.</p><p>&#10060;</p><p>A válaszaitok <b>nem</b> egyeznek meg.</p>","null","","","","feedback trial","",""
"html-button-response-esp","29","284261","0.0-11.0-0.9","3991","Te bizony sokat píjlasz. Én is sokat...","1","píjlok","[""píjlom"",""píjlok""]","píjlok","esp trial","5","true"
"html-button-response","30","287782","0.0-11.0-1.9","null","<p>A másik játékos ezt választotta: <b>píjlok</b>.</p><p>&#x2705;</p><p>A te válaszod és a másik játékos válasza <b>megegyeznek</b>.</p>","null","","","","feedback trial","",""
"html-button-response-esp","31","294662","0.0-11.0-0.10","4185","Te bizony sokat huroslasz. Én is sokat...","0","huroslok","[""huroslok"",""huroslom""]","huroslok","esp trial","5","true"
"html-button-response","32","298190","0.0-11.0-1.10","null","<p>A másik játékos ezt választotta: <b>huroslok</b>.</p><p>&#x2705;</p><p>A te válaszod és a másik játékos válasza <b>megegyeznek</b>.</p>","null","","","","feedback trial","",""
"html-button-response-esp","33","305737","0.0-11.0-0.11","7034","Te bizony sokat tragzol. Én is sokat...","0","tragzom","[""tragzom"",""tragzok""]","tragzok","esp trial","5","false"
"html-button-response","34","309246","0.0-11.0-1.11","null","<p>A másik játékos ezt választotta: <b>tragzok</b>.</p><p>&#10060;</p><p>A válaszaitok <b>nem</b> egyeznek meg.</p>","null","","","","feedback trial","",""
"html-button-response-esp","35","316133","0.0-11.0-0.12","6160","Te bizony sokat sztrozlasz. Én is sokat...","1","sztrozlok","[""sztrozlom"",""sztrozlok""]","sztrozlok","esp trial","5","true"
"html-button-response","36","319656","0.0-11.0-1.12","null","<p>A másik játékos ezt választotta: <b>sztrozlok</b>.</p><p>&#x2705;</p><p>A te válaszod és a másik játékos válasza <b>megegyeznek</b>.</p>","null","","","","feedback trial","",""
"html-button-response-esp","37","327145","0.0-11.0-0.13","6974","Te bizony sokat flátszol. Én is sokat...","1","flátszok","[""flátszom"",""flátszok""]","flátszom","esp trial","5","false"
"html-button-response","38","330681","0.0-11.0-1.13","null","<p>A másik játékos ezt választotta: <b>flátszom</b>.</p><p>&#10060;</p><p>A válaszaitok <b>nem</b> egyeznek meg.</p>","null","","","","feedback trial","",""
"html-button-response-esp","39","337550","0.0-11.0-0.14","4916","Te bizony sokat spröbzöl. Én is sokat...","1","spröbzök","[""spröbzöm"",""spröbzök""]","spröbzök","esp trial","5","true"
"html-button-response","40","341085","0.0-11.0-1.14","null","<p>A másik játékos ezt választotta: <b>spröbzök</b>.</p><p>&#x2705;</p><p>A te válaszod és a másik játékos válasza <b>megegyeznek</b>.</p>","null","","","","feedback trial","",""
"html-button-response-esp","41","347952","0.0-11.0-0.15","4187","Te bizony sokat figlasz. Én is sokat...","1","figlok","[""figlom"",""figlok""]","figlok","esp trial","5","true"
"html-button-response","42","351483","0.0-11.0-1.15","null","<p>A másik játékos ezt választotta: <b>figlok</b>.</p><p>&#x2705;</p><p>A te válaszod és a másik játékos válasza <b>megegyeznek</b>.</p>","null","","","","feedback trial","",""
"html-button-response-esp","43","358370","0.0-11.0-0.16","5921","Te bizony sokat brubzol. Én is sokat...","0","brubzok","[""brubzok"",""brubzom""]","brubzok","esp trial","5","true"
"html-button-response","44","361906","0.0-11.0-1.16","null","<p>A másik játékos ezt választotta: <b>brubzok</b>.</p><p>&#x2705;</p><p>A te válaszod és a másik játékos válasza <b>megegyeznek</b>.</p>","null","","","","feedback trial","",""
"html-button-response-esp","45","368787","0.0-11.0-0.17","3885","Te bizony sokat flehénylesz. Én is sokat...","0","flehénylek","[""flehénylek"",""flehénylem""]","flehénylek","esp trial","5","true"
"html-button-response","46","372307","0.0-11.0-1.17","null","<p>A másik játékos ezt választotta: <b>flehénylek</b>.</p><p>&#x2705;</p><p>A te válaszod és a másik játékos válasza <b>megegyeznek</b>.</p>","null","","","","feedback trial","",""
"html-button-response-esp","47","380441","0.0-11.0-0.18","7619","Te bizony sokat spihegzel. Én is sokat...","0","spihegzek","[""spihegzek"",""spihegzem""]","spihegzek","esp trial","5","true"
"html-button-response","48","383952","0.0-11.0-1.18","null","<p>A másik játékos ezt választotta: <b>spihegzek</b>.</p><p>&#x2705;</p><p>A te válaszod és a másik játékos válasza <b>megegyeznek</b>.</p>","null","","","","feedback trial","",""
"html-button-response-esp","49","390823","0.0-11.0-0.19","2702","Te bizony sokat flűmlesz. Én is sokat...","0","flűmlök","[""flűmlök"",""flűmlöm""]","flűmlök","esp trial","5","true"
"html-button-response","50","394345","0.0-11.0-1.19","null","<p>A másik játékos ezt választotta: <b>flűmlök</b>.</p><p>&#x2705;</p><p>A te válaszod és a másik játékos válasza <b>megegyeznek</b>.</p>","null","","","","feedback trial","",""
"html-button-response-esp","51","401214","0.0-11.0-0.20","3954","Te bizony sokat vanylasz. Én is sokat...","0","vanylok","[""vanylok"",""vanylom""]","vanylok","esp trial","5","true"
"html-button-response","52","404728","0.0-11.0-1.20","null","<p>A másik játékos ezt választotta: <b>vanylok</b>.</p><p>&#x2705;</p><p>A te válaszod és a másik játékos válasza <b>megegyeznek</b>.</p>","null","","","","feedback trial","",""
"html-button-response-esp","53","411595","0.0-11.0-0.21","5376","Te bizony sokat spáraklasz. Én is sokat...","1","spáraklok","[""spáraklom"",""spáraklok""]","spáraklok","esp trial","5","true"
"html-button-response","54","415106","0.0-11.0-1.21","null","<p>A másik játékos ezt választotta: <b>spáraklok</b>.</p><p>&#x2705;</p><p>A te válaszod és a másik játékos válasza <b>megegyeznek</b>.</p>","null","","","","feedback trial","",""
"html-button-response-esp","55","421984","0.0-11.0-0.22","3172","Te bizony sokat rokszol. Én is sokat...","1","rokszok","[""rokszom"",""rokszok""]","rokszom","esp trial","5","false"
"html-button-response","56","425515","0.0-11.0-1.22","null","<p>A másik játékos ezt választotta: <b>rokszom</b>.</p><p>&#10060;</p><p>A válaszaitok <b>nem</b> egyeznek meg.</p>","null","","","","feedback trial","",""
"html-button-response-esp","57","432385","0.0-11.0-0.23","5813","Te bizony sokat gyibeslesz. Én is sokat...","1","gyibeslek","[""gyibeslem"",""gyibeslek""]","gyibeslek","esp trial","5","true"
"html-button-response","58","435905","0.0-11.0-1.23","null","<p>A másik játékos ezt választotta: <b>gyibeslek</b>.</p><p>&#x2705;</p><p>A te válaszod és a másik játékos válasza <b>megegyeznek</b>.</p>","null","","","","feedback trial","",""
"html-button-response-esp","59","442761","0.0-11.0-0.24","4146","Te bizony sokat klaráglasz. Én is sokat...","1","klaráglok","[""klaráglom"",""klaráglok""]","klaráglok","esp trial","5","true"
"html-button-response","60","446289","0.0-11.0-1.24","null","<p>A másik játékos ezt választotta: <b>klaráglok</b>.</p><p>&#x2705;</p><p>A te válaszod és a másik játékos válasza <b>megegyeznek</b>.</p>","null","","","","feedback trial","",""
"html-button-response-esp","61","453159","0.0-11.0-0.25","4110","Te bizony sokat vülődzöl. Én is sokat...","1","vülődzöm","[""vülődzök"",""vülődzöm""]","vülődzök","esp trial","5","false"
"html-button-response","62","456678","0.0-11.0-1.25","null","<p>A másik játékos ezt választotta: <b>vülődzök</b>.</p><p>&#10060;</p><p>A válaszaitok <b>nem</b> egyeznek meg.</p>","null","","","","feedback trial","",""
"html-button-response-esp","63","463540","0.0-11.0-0.26","5382","Te bizony sokat trádlasz. Én is sokat...","1","trádlok","[""trádlom"",""trádlok""]","trádlok","esp trial","5","true"
"html-button-response","64","467054","0.0-11.0-1.26","null","<p>A másik játékos ezt választotta: <b>trádlok</b>.</p><p>&#x2705;</p><p>A te válaszod és a másik játékos válasza <b>megegyeznek</b>.</p>","null","","","","feedback trial","",""
"html-button-response-esp","65","473939","0.0-11.0-0.27","4549","Te bizony sokat bűtszöl. Én is sokat...","1","bűtszök","[""bűtszöm"",""bűtszök""]","bűtszök","esp trial","5","true"
"html-button-response","66","477455","0.0-11.0-1.27","null","<p>A másik játékos ezt választotta: <b>bűtszök</b>.</p><p>&#x2705;</p><p>A te válaszod és a másik játékos válasza <b>megegyeznek</b>.</p>","null","","","","feedback trial","",""
"html-button-response-esp","67","484339","0.0-11.0-0.28","3406","Te bizony sokat filágzol. Én is sokat...","1","filágzom","[""filágzok"",""filágzom""]","filágzom","esp trial","5","true"
"html-button-response","68","487857","0.0-11.0-1.28","null","<p>A másik játékos ezt választotta: <b>filágzom</b>.</p><p>&#x2705;</p><p>A te válaszod és a másik játékos válasza <b>megegyeznek</b>.</p>","null","","","","feedback trial","",""
"html-button-response-esp","69","497273","0.0-11.0-0.29","8902","Te bizony sokat klivaslasz. Én is sokat...","1","klivaslok","[""klivaslom"",""klivaslok""]","klivaslok","esp trial","5","true"
"html-button-response","70","500795","0.0-11.0-1.29","null","<p>A másik játékos ezt választotta: <b>klivaslok</b>.</p><p>&#x2705;</p><p>A te válaszod és a másik játékos válasza <b>megegyeznek</b>.</p>","null","","","","feedback trial","",""
"html-button-response-esp","71","507667","0.0-11.0-0.30","4066","Te bizony sokat salárzol. Én is sokat...","1","salárzok","[""salárzom"",""salárzok""]","salárzok","esp trial","5","true"
"html-button-response","72","511183","0.0-11.0-1.30","null","<p>A másik játékos ezt választotta: <b>salárzok</b>.</p><p>&#x2705;</p><p>A te válaszod és a másik játékos válasza <b>megegyeznek</b>.</p>","null","","","","feedback trial","",""
"html-button-response-esp","73","518058","0.0-11.0-0.31","3417","Te bizony sokat prínylasz. Én is sokat...","0","prínylok","[""prínylok"",""prínylom""]","prínylok","esp trial","5","true"
"html-button-response","74","521586","0.0-11.0-1.31","null","<p>A másik játékos ezt választotta: <b>prínylok</b>.</p><p>&#x2705;</p><p>A te válaszod és a másik játékos válasza <b>megegyeznek</b>.</p>","null","","","","feedback trial","",""
"html-button-response-esp","75","528455","0.0-11.0-0.32","3473","Te bizony sokat spubonylasz. Én is sokat...","0","spubonylok","[""spubonylok"",""spubonylom""]","spubonylok","esp trial","5","true"
"html-button-response","76","531974","0.0-11.0-1.32","null","<p>A másik játékos ezt választotta: <b>spubonylok</b>.</p><p>&#x2705;</p><p>A te válaszod és a másik játékos válasza <b>megegyeznek</b>.</p>","null","","","","feedback trial","",""
"html-button-response-esp","77","538847","0.0-11.0-0.33","3239","Te bizony sokat düjzöl. Én is sokat...","0","düjzök","[""düjzök"",""düjzöm""]","düjzök","esp trial","5","true"
"html-button-response","78","542368","0.0-11.0-1.33","null","<p>A másik játékos ezt választotta: <b>düjzök</b>.</p><p>&#x2705;</p><p>A te válaszod és a másik játékos válasza <b>megegyeznek</b>.</p>","null","","","","feedback trial","",""
"html-button-response-esp","79","549241","0.0-11.0-0.34","4551","Te bizony sokat hűgzöl. Én is sokat...","0","hűgzök","[""hűgzök"",""hűgzöm""]","hűgzök","esp trial","5","true"
"html-button-response","80","552770","0.0-11.0-1.34","null","<p>A másik játékos ezt választotta: <b>hűgzök</b>.</p><p>&#x2705;</p><p>A te válaszod és a másik játékos válasza <b>megegyeznek</b>.</p>","null","","","","feedback trial","",""
"html-button-response-esp","81","559639","0.0-11.0-0.35","6028","Te bizony sokat sztrűkszöl. Én is sokat...","1","sztrűkszöm","[""sztrűkszök"",""sztrűkszöm""]","sztrűkszöm","esp trial","5","true"
"html-button-response","82","563165","0.0-11.0-1.35","null","<p>A másik játékos ezt választotta: <b>sztrűkszöm</b>.</p><p>&#x2705;</p><p>A te válaszod és a másik játékos válasza <b>megegyeznek</b>.</p>","null","","","","feedback trial","",""
"html-button-response-esp","83","572425","0.0-11.0-0.36","8741","Te bizony sokat spihemlesz. Én is sokat...","1","spihemlek","[""spihemlem"",""spihemlek""]","spihemlek","esp trial","5","true"
"html-button-response","84","575953","0.0-11.0-1.36","null","<p>A másik játékos ezt választotta: <b>spihemlek</b>.</p><p>&#x2705;</p><p>A te válaszod és a másik játékos válasza <b>megegyeznek</b>.</p>","null","","","","feedback trial","",""
"html-button-response-esp","85","583273","0.0-11.0-0.37","6803","Te bizony sokat jonylasz. Én is sokat...","0","jonylok","[""jonylok"",""jonylom""]","jonylok","esp trial","5","true"
"html-button-response","86","586789","0.0-11.0-1.37","null","<p>A másik játékos ezt választotta: <b>jonylok</b>.</p><p>&#x2705;</p><p>A te válaszod és a másik játékos válasza <b>megegyeznek</b>.</p>","null","","","","feedback trial","",""
"html-button-response-esp","87","593661","0.0-11.0-0.38","3444","Te bizony sokat plugzol. Én is sokat...","1","plugzok","[""plugzom"",""plugzok""]","plugzom","esp trial","5","false"
"html-button-response","88","597177","0.0-11.0-1.38","null","<p>A másik játékos ezt választotta: <b>plugzom</b>.</p><p>&#10060;</p><p>A válaszaitok <b>nem</b> egyeznek meg.</p>","null","","","","feedback trial","",""
"html-button-response-esp","89","604053","0.0-11.0-0.39","4888","Te bizony sokat hurjorzol. Én is sokat...","1","hurjorzok","[""hurjorzom"",""hurjorzok""]","hurjorzok","esp trial","5","true"
"html-button-response","90","607578","0.0-11.0-1.39","null","<p>A másik játékos ezt választotta: <b>hurjorzok</b>.</p><p>&#x2705;</p><p>A te válaszod és a másik játékos válasza <b>megegyeznek</b>.</p>","null","","","","feedback trial","",""
"html-button-response-esp","91","614446","0.0-11.0-0.40","4187","Te bizony sokat bivégszel. Én is sokat...","1","bivégszem","[""bivégszek"",""bivégszem""]","bivégszem","esp trial","5","true"
"html-button-response","92","617963","0.0-11.0-1.40","null","<p>A másik játékos ezt választotta: <b>bivégszem</b>.</p><p>&#x2705;</p><p>A te válaszod és a másik játékos válasza <b>megegyeznek</b>.</p>","null","","","","feedback trial","",""
"html-button-response-esp","93","624847","0.0-11.0-0.41","3109","Te bizony sokat pribemlesz. Én is sokat...","0","pribemlek","[""pribemlek"",""pribemlem""]","pribemlek","esp trial","5","true"
"html-button-response","94","628372","0.0-11.0-1.41","null","<p>A másik játékos ezt választotta: <b>pribemlek</b>.</p><p>&#x2705;</p><p>A te válaszod és a másik játékos válasza <b>megegyeznek</b>.</p>","null","","","","feedback trial","",""
"html-button-response-esp","95","635253","0.0-11.0-0.42","5272","Te bizony sokat nűröklesz. Én is sokat...","0","nűröklök","[""nűröklök"",""nűröklöm""]","nűröklök","esp trial","5","true"
"html-button-response","96","638783","0.0-11.0-1.42","null","<p>A másik játékos ezt választotta: <b>nűröklök</b>.</p><p>&#x2705;</p><p>A te válaszod és a másik játékos válasza <b>megegyeznek</b>.</p>","null","","","","feedback trial","",""
"html-button-response-esp","97","645653","0.0-11.0-0.43","2298","Te bizony sokat pítszol. Én is sokat...","1","pítszom","[""pítszok"",""pítszom""]","pítszom","esp trial","5","true"
"html-button-response","98","649174","0.0-11.0-1.43","null","<p>A másik játékos ezt választotta: <b>pítszom</b>.</p><p>&#x2705;</p><p>A te válaszod és a másik játékos válasza <b>megegyeznek</b>.</p>","null","","","","feedback trial","",""
"html-button-response-esp","99","656054","0.0-11.0-0.44","4543","Te bizony sokat pribagszol. Én is sokat...","0","pribagszom","[""pribagszom"",""pribagszok""]","pribagszom","esp trial","5","true"
"html-button-response","100","659590","0.0-11.0-1.44","null","<p>A másik játékos ezt választotta: <b>pribagszom</b>.</p><p>&#x2705;</p><p>A te válaszod és a másik játékos válasza <b>megegyeznek</b>.</p>","null","","","","feedback trial","",""
"html-button-response-esp","101","666454","0.0-11.0-0.45","2652","Te bizony sokat szibánylasz. Én is sokat...","0","szibánylok","[""szibánylok"",""szibánylom""]","szibánylok","esp trial","5","true"
"html-button-response","102","669962","0.0-11.0-1.45","null","<p>A másik játékos ezt választotta: <b>szibánylok</b>.</p><p>&#x2705;</p><p>A te válaszod és a másik játékos válasza <b>megegyeznek</b>.</p>","null","","","","feedback trial","",""
"html-button-response-esp","103","676839","0.0-11.0-0.46","6188","Te bizony sokat spülűdzöl. Én is sokat...","0","spülűdzöm","[""spülűdzöm"",""spülűdzök""]","spülűdzök","esp trial","5","false"
"html-button-response","104","680373","0.0-11.0-1.46","null","<p>A másik játékos ezt választotta: <b>spülűdzök</b>.</p><p>&#10060;</p><p>A válaszaitok <b>nem</b> egyeznek meg.</p>","null","","","","feedback trial","",""
"html-button-response-esp","105","687252","0.0-11.0-0.47","3012","Te bizony sokat brivegzel. Én is sokat...","1","brivegzem","[""brivegzek"",""brivegzem""]","brivegzem","esp trial","5","true"
"html-button-response","106","690785","0.0-11.0-1.47","null","<p>A másik játékos ezt választotta: <b>brivegzem</b>.</p><p>&#x2705;</p><p>A te válaszod és a másik játékos válasza <b>megegyeznek</b>.</p>","null","","","","feedback trial","",""
"html-button-response-esp","107","697665","0.0-11.0-0.48","2885","Te bizony sokat plűbzöl. Én is sokat...","1","plűbzök","[""plűbzöm"",""plűbzök""]","plűbzök","esp trial","5","true"
"html-button-response","108","701188","0.0-11.0-1.48","null","<p>A másik játékos ezt választotta: <b>plűbzök</b>.</p><p>&#x2705;</p><p>A te válaszod és a másik játékos válasza <b>megegyeznek</b>.</p>","null","","","","feedback trial","",""
"html-button-response-esp","109","708067","0.0-11.0-0.49","3183","Te bizony sokat ibékszel. Én is sokat...","0","ibékszem","[""ibékszem"",""ibékszek""]","ibékszem","esp trial","5","true"
"html-button-response","110","711604","0.0-11.0-1.49","null","<p>A másik játékos ezt választotta: <b>ibékszem</b>.</p><p>&#x2705;</p><p>A te válaszod és a másik játékos válasza <b>megegyeznek</b>.</p>","null","","","","feedback trial","",""
"html-button-response-esp","111","718490","0.0-11.0-0.50","3769","Te bizony sokat klétszel. Én is sokat...","1","klétszek","[""klétszem"",""klétszek""]","klétszem","esp trial","5","false"
"html-button-response","112","722027","0.0-11.0-1.50","null","<p>A másik játékos ezt választotta: <b>klétszem</b>.</p><p>&#10060;</p><p>A válaszaitok <b>nem</b> egyeznek meg.</p>","null","","","","feedback trial","",""
"html-button-response-esp","113","728909","0.0-11.0-0.51","3045","Te bizony sokat sztrijzol. Én is sokat...","1","sztrijzok","[""sztrijzom"",""sztrijzok""]","sztrijzok","esp trial","5","true"
"html-button-response","114","732430","0.0-11.0-1.51","null","<p>A másik játékos ezt választotta: <b>sztrijzok</b>.</p><p>&#x2705;</p><p>A te válaszod és a másik játékos válasza <b>megegyeznek</b>.</p>","null","","","","feedback trial","",""
"html-button-response-esp","115","739318","0.0-11.0-0.52","3889","Te bizony sokat narádzol. Én is sokat...","1","narádzom","[""narádzok"",""narádzom""]","narádzom","esp trial","5","true"
"html-button-response","116","742842","0.0-11.0-1.52","null","<p>A másik játékos ezt választotta: <b>narádzom</b>.</p><p>&#x2705;</p><p>A te válaszod és a másik játékos válasza <b>megegyeznek</b>.</p>","null","","","","feedback trial","",""
"html-button-response-esp","117","749716","0.0-11.0-0.53","4158","Te bizony sokat spüjzöl. Én is sokat...","1","spüjzök","[""spüjzöm"",""spüjzök""]","spüjzök","esp trial","5","true"
"html-button-response","118","753242","0.0-11.0-1.53","null","<p>A másik játékos ezt választotta: <b>spüjzök</b>.</p><p>&#x2705;</p><p>A te válaszod és a másik játékos válasza <b>megegyeznek</b>.</p>","null","","","","feedback trial","",""
"html-button-response","119","765850","0.0-12.0","12091","<p>A közös játék most véget ért.</p><p>Mielőtt eláruljuk a végső pontszámodat, arra kérlek, játszd a szóválasztós játékot néhány percig egyedül is.</p><p>A feladatod ugyanaz lesz, választani két lehetőség közül.</p><p>Most viszont egyedül kell döntened, hogy te melyiket választanád.</p>","0","","","","","",""
"html-button-response-clever","120","771411","0.0-13.0-0.0","5049","Te bizony sokat spatszol. Én is sokat...","1","spatszom","[""spatszok"",""spatszom""]","","posttest trial","8",""
"html-button-response-clever","121","775354","0.0-13.0-0.1","3430","Te bizony sokat drügzöl. Én is sokat...","1","drügzök","[""drügzöm"",""drügzök""]","","posttest trial","8",""
"html-button-response-clever","122","780266","0.0-13.0-0.2","4402","Te bizony sokat gyivádzol. Én is sokat...","0","gyivádzom","[""gyivádzom"",""gyivádzok""]","","posttest trial","8",""
"html-button-response-clever","123","783338","0.0-13.0-0.3","2559","Te bizony sokat prezlesz. Én is sokat...","1","prezlek","[""prezlem"",""prezlek""]","","posttest trial","8",""
"html-button-response-clever","124","786810","0.0-13.0-0.4","2959","Te bizony sokat flibekszel. Én is sokat...","0","flibekszek","[""flibekszek"",""flibekszem""]","","posttest trial","8",""
"html-button-response-clever","125","789906","0.0-13.0-0.5","2586","Te bizony sokat plövőrzöl. Én is sokat...","0","plövőrzök","[""plövőrzök"",""plövőrzöm""]","","posttest trial","8",""
"html-button-response-clever","126","794626","0.0-13.0-0.6","4213","Te bizony sokat friszlasz. Én is sokat...","0","friszlom","[""friszlom"",""friszlok""]","","posttest trial","8",""
"html-button-response-clever","127","798698","0.0-13.0-0.7","3560","Te bizony sokat zödlesz. Én is sokat...","1","zödlök","[""zödlöm"",""zödlök""]","","posttest trial","8",""
"html-button-response-clever","128","807018","0.0-13.0-0.8","7807","Te bizony sokat vűjlesz. Én is sokat...","1","vűjlök","[""vűjlöm"",""vűjlök""]","","posttest trial","8",""
"html-button-response-clever","129","809898","0.0-13.0-0.9","2370","Te bizony sokat spibádzol. Én is sokat...","1","spibádzom","[""spibádzok"",""spibádzom""]","","posttest trial","8",""
"html-button-response-clever","130","814290","0.0-13.0-0.10","3876","Te bizony sokat fligzol. Én is sokat...","1","fligzom","[""fligzok"",""fligzom""]","","posttest trial","8",""
"html-button-response-clever","131","816962","0.0-13.0-0.11","2155","Te bizony sokat vihepszel. Én is sokat...","0","vihepszek","[""vihepszek"",""vihepszem""]","","posttest trial","8",""
"html-button-response-clever","132","819674","0.0-13.0-0.12","2209","Te bizony sokat sprédlesz. Én is sokat...","0","sprédlek","[""sprédlek"",""sprédlem""]","","posttest trial","8",""
"html-button-response-clever","133","823434","0.0-13.0-0.13","3256","Te bizony sokat brarlasz. Én is sokat...","0","brarlok","[""brarlok"",""brarlom""]","","posttest trial","8",""
"html-button-response-clever","134","826650","0.0-13.0-0.14","2703","Te bizony sokat spülöklesz. Én is sokat...","0","spülöklök","[""spülöklök"",""spülöklöm""]","","posttest trial","8",""
"html-button-response-clever","135","832378","0.0-13.0-0.15","5218","Te bizony sokat péleslesz. Én is sokat...","0","péleslek","[""péleslek"",""péleslem""]","","posttest trial","8",""
"html-button-response-clever","136","835978","0.0-13.0-0.16","3083","Te bizony sokat szűslesz. Én is sokat...","0","szűslök","[""szűslök"",""szűslöm""]","","posttest trial","8",""
"html-button-response-clever","137","838530","0.0-13.0-0.17","2036","Te bizony sokat prohódzol. Én is sokat...","1","prohódzom","[""prohódzok"",""prohódzom""]","","posttest trial","8",""
"html-button-response-clever","138","841146","0.0-13.0-0.18","2099","Te bizony sokat huklasz. Én is sokat...","0","huklok","[""huklok"",""huklom""]","","posttest trial","8",""
"html-button-response-clever","139","845050","0.0-13.0-0.19","3388","Te bizony sokat praslasz. Én is sokat...","0","praslok","[""praslok"",""praslom""]","","posttest trial","8",""
"html-button-response-clever","140","848426","0.0-13.0-0.20","2862","Te bizony sokat fivénylesz. Én is sokat...","1","fivénylek","[""fivénylem"",""fivénylek""]","","posttest trial","8",""
"html-button-response-clever","141","851642","0.0-13.0-0.21","2699","Te bizony sokat pugoslasz. Én is sokat...","1","pugoslok","[""pugoslom"",""pugoslok""]","","posttest trial","8",""
"html-button-response-clever","142","854890","0.0-13.0-0.22","2732","Te bizony sokat prihekszel. Én is sokat...","0","prihekszem","[""prihekszem"",""prihekszek""]","","posttest trial","8",""
"html-button-response-clever","143","859282","0.0-13.0-0.23","3888","Te bizony sokat plágadzol. Én is sokat...","1","plágadzom","[""plágadzok"",""plágadzom""]","","posttest trial","8",""
"html-button-response-clever","144","861834","0.0-13.0-0.24","2036","Te bizony sokat gerénylesz. Én is sokat...","0","gerénylek","[""gerénylek"",""gerénylem""]","","posttest trial","8",""
"html-button-response-clever","145","865642","0.0-13.0-0.25","3298","Te bizony sokat frágapszol. Én is sokat...","0","frágapszom","[""frágapszom"",""frágapszok""]","","posttest trial","8",""
"html-button-response-clever","146","868177","0.0-13.0-0.26","2020","Te bizony sokat floglasz. Én is sokat...","1","floglok","[""floglom"",""floglok""]","","posttest trial","8",""
"html-button-response-clever","147","870969","0.0-13.0-0.27","2288","Te bizony sokat táklasz. Én is sokat...","1","táklok","[""táklom"",""táklok""]","","posttest trial","8",""
"html-button-response-clever","148","874369","0.0-13.0-0.28","2897","Te bizony sokat féjzel. Én is sokat...","0","féjzek","[""féjzek"",""féjzem""]","","posttest trial","8",""
"html-button-response-clever","149","877041","0.0-13.0-0.29","2166","Te bizony sokat kumlasz. Én is sokat...","1","kumlok","[""kumlom"",""kumlok""]","","posttest trial","8",""
"html-button-response-clever","150","882185","0.0-13.0-0.30","4638","Te bizony sokat spélszel. Én is sokat...","1","spélszek","[""spélszem"",""spélszek""]","","posttest trial","8",""
"html-button-response-clever","151","887497","0.0-13.0-0.31","4809","Te bizony sokat aglasz. Én is sokat...","1","aglom","[""aglok"",""aglom""]","","posttest trial","8",""
"html-button-response-clever","152","892169","0.0-13.0-0.32","4154","Te bizony sokat flözlesz. Én is sokat...","1","flözlök","[""flözlöm"",""flözlök""]","","posttest trial","8",""
"html-button-response-clever","153","894633","0.0-13.0-0.33","1959","Te bizony sokat lihadzol. Én is sokat...","1","lihadzom","[""lihadzok"",""lihadzom""]","","posttest trial","8",""
"html-button-response-clever","154","898657","0.0-13.0-0.34","3509","Te bizony sokat klidlasz. Én is sokat...","0","klidlok","[""klidlok"",""klidlom""]","","posttest trial","8",""
"html-button-response-clever","155","901393","0.0-13.0-0.35","2220","Te bizony sokat bivejlesz. Én is sokat...","0","bivejlek","[""bivejlek"",""bivejlem""]","","posttest trial","8",""
"html-button-response-clever","156","904601","0.0-13.0-0.36","2704","Te bizony sokat livaklasz. Én is sokat...","0","livaklom","[""livaklom"",""livaklok""]","","posttest trial","8",""
"html-button-response-clever","157","914377","0.0-13.0-0.37","9259","Te bizony sokat préleglesz. Én is sokat...","0","préleglek","[""préleglek"",""préleglem""]","","posttest trial","8",""
"html-button-response-clever","158","917257","0.0-13.0-0.38","2378","Te bizony sokat tuboklasz. Én is sokat...","1","tuboklok","[""tuboklom"",""tuboklok""]","","posttest trial","8",""
"html-button-response-clever","159","919393","0.0-13.0-0.39","1627","Te bizony sokat frivajlasz. Én is sokat...","0","frivajlok","[""frivajlok"",""frivajlom""]","","posttest trial","8",""
"html-button-response-clever","160","922409","0.0-13.0-0.40","2514","Te bizony sokat csólorzol. Én is sokat...","1","csólorzok","[""csólorzom"",""csólorzok""]","","posttest trial","8",""
"html-button-response-clever","161","926377","0.0-13.0-0.41","3451","Te bizony sokat spüszlesz. Én is sokat...","1","spüszlök","[""spüszlöm"",""spüszlök""]","","posttest trial","8",""
"html-button-response-clever","162","929289","0.0-13.0-0.42","2408","Te bizony sokat klárzol. Én is sokat...","1","klárzok","[""klárzom"",""klárzok""]","","posttest trial","8",""
"html-button-response-clever","163","932529","0.0-13.0-0.43","2736","Te bizony sokat spírzol. Én is sokat...","1","spírzok","[""spírzom"",""spírzok""]","","posttest trial","8",""
"html-button-response-clever","164","936513","0.0-13.0-0.44","3471","Te bizony sokat mékszel. Én is sokat...","1","mékszem","[""mékszek"",""mékszem""]","","posttest trial","8",""
"html-button-response-clever","165","939969","0.0-13.0-0.45","2950","Te bizony sokat flérlesz. Én is sokat...","0","flérlek","[""flérlek"",""flérlem""]","","posttest trial","8",""
"html-button-response-clever","166","942745","0.0-13.0-0.46","2261","Te bizony sokat fliraklasz. Én is sokat...","0","fliraklok","[""fliraklok"",""fliraklom""]","","posttest trial","8",""
"html-button-response-clever","167","945865","0.0-13.0-0.47","2617","Te bizony sokat ibáglasz. Én is sokat...","1","ibáglok","[""ibáglom"",""ibáglok""]","","posttest trial","8",""
"html-button-response-clever","168","948481","0.0-13.0-0.48","2104","Te bizony sokat gyibakszol. Én is sokat...","0","gyibakszom","[""gyibakszom"",""gyibakszok""]","","posttest trial","8",""
"html-button-response-clever","169","952249","0.0-13.0-0.49","3252","Te bizony sokat sprálszol. Én is sokat...","0","sprálszom","[""sprálszom"",""sprálszok""]","","posttest trial","8",""
"html-button-response-clever","170","957737","0.0-13.0-0.50","4980","Te bizony sokat sztruglasz. Én is sokat...","1","sztruglok","[""sztruglom"",""sztruglok""]","","posttest trial","8",""
"html-button-response-clever","171","960649","0.0-13.0-0.51","2407","Te bizony sokat gilárzol. Én is sokat...","0","gilárzom","[""gilárzom"",""gilárzok""]","","posttest trial","8",""
"html-button-response-clever","172","962809","0.0-13.0-0.52","1648","Te bizony sokat spülőrzöl. Én is sokat...","1","spülőrzök","[""spülőrzöm"",""spülőrzök""]","","posttest trial","8",""
"html-button-response-clever","173","975681","0.0-13.0-0.53","12369","Te bizony sokat trihagzol. Én is sokat...","0","trihagzom","[""trihagzom"",""trihagzok""]","","posttest trial","8",""
"html-button-response","174","979881","0.0-14.0","3694","<p> Vége a játéknak. A teljes pontszámod 44/54.</p><p> Szép munka! &#128526;&#128526;&#128526;</p><p>A Befejezés gomb megnyomása után bezárhatod a böngészőablakot.</p>","0","","","","","",""
"html-keyboard-response","175","985926","0.0-15.0","null","<div class=""message"">
         <p>Egy kis türelmet kérünk, amíg elmentjük az adatokat...</p>
         </div>","null","","","","","",""
