"trial_type","trial_index","time_elapsed","internal_node_id","rt","stimulus","response","response_string","choices","esp_response","trial_kind","list_number","esp_match"
"pavlovia","0","662","0.0-0.0","","","","","","","","",""
"html-button-response","1","69312","0.0-1.0","68145","<p>Kedves Résztvevő! A Budapesti Műszaki és Gazdaságtudományi Egyetem Kognitív Tudományi Tanszékének kutatásában való részvételed kérjük. A kutatásban azt vizsgáljuk, hogy a magyar anyanyelvűek hogyan használnak bizonyos szóalakokat, és hogy milyen képük van arról, hogy mások hogyan használják, hogyan képzik a szavakat. Ez hozzásegít bennünket ahhoz, hogy jobban megértsük, hogyan dolgozza fel és tárolja a nyelvet az emberi agy, és hogyan működnek, hogyan változnak egy adott közösség nyelvi konvenciói.</p><p>A vizsgálat egy rövid számítógépes feladatból fog állni. A kutatásban való részvétel önkéntes, a részvételi szándék bármikor visszavonható. A résztvevők eredményeit név nélkül kezeljük, így nem beazonosíthatók az adatok feldolgozása során. Minden személyes adatot az EU általános adatvédelmi rendeletének (GDPR) megfelelően kezelünk és legfeljebb öt éven belül megsemmisítünk. A vizsgálat jellemzően húsz percet vesz igénybe.</p><p>Kutatásvezető:</p><p>Dr. Rácz Péter, tudományos munkatárs, BME KTT</p><p>e-mail: racz.peter.marton@ttk.bme.hu</p>","0","","","","","",""
"html-button-response","2","132567","0.0-2.0","62752","<p>A kísérletben szavakat fogsz látni. Ezek között lesznek olyanok, amelyeket ismersz, de előfordulhatnak olyanok is, amelyeket nem ismersz, sőt, vannak köztük kitalált szavak is. Minden szónál látni fogsz toldalékolt alakokat. A te feladatod az lesz, hogy minden szóhoz kiválaszd azt a toldalékolt alakot, amely a te számodra ismerősebben, természetesebben hangzik. Rossz válaszok nincsenek, mert van olyan, hogy különböző embereknek más és más szó tűnik jobb választásnak. A választ úgy tudod majd kiválasztani, ha rákattintasz.</p><p>Ebben a szóválasztós játékban egy másik játékossal együtt veszel majd részt. A másik játékos is minden esetben azok közül a lehetőségek közül válogathat, mint te. Kettőtök feladata az, hogy ugyanazt a lehetőséget válasszátok minden esetben. Ahhoz, hogy ez sikerüljön, neked figyelned kell arra, hogy a másik játékos milyen válaszokat ad, és ennek alapján meg kell tippelned, hogyan választ legközelebb. Ha eltalálod, akkor pontot kapsz.</p>","0","","","","","",""
"html-button-response","3","256567","0.0-3.0","123494","<p>Kérjük, olvasd el az alábbi nyilatkozatot, és amennyiben egyetértesz vele, nyomj a Beleegyezés gombra!</p><p>Kijelentem, hogy magyar anyanyelvű személyként önként veszek részt a BME KTT kísérletében. A kutatás céljával és folyamatával kapcsolatban elegendő tájékoztatást kaptam, lehetőségem volt kérdések feltételére, és esetleges kérdéseimre megfelelő válaszokat kaptam. A tájékoztatás alapján elegendő mennyiségű információ áll a rendelkezésemre, hogy eldönthessem, részt kívánok-e venni a kutatásban.</p><p>Tisztában vagyok vele, hogy részvételi szándékomat és adataimat bármikor, indoklás nélkül visszavonhatom.</p><p>Értem és tudomásul veszem, hogy a kutatás tudományos célokat szolgál, és az általam szolgáltatott adatokat a BME kizárólag kutatási célból használja fel. Tudomásul veszem, hogy eredményeimet a többi résztvevő eredményeivel együtt kezelik, így egyéni teljesítményemről visszajelzést, szakvéleményt nem kapok.</p><p>Megértettem, hogy adataim kezelését illetően a BME az EU általános adatvédelmi rendelete (GDPR), a hatályos adatvédelmi törvény és a nemzetközi kutatás-etikai alapelvek szerint jár el. Eredményeim anonim módon kerülnek feldolgozásra, és a kutatás résztvevői az azonosításomra alkalmas adataimat harmadik félnek nem szolgáltatják ki. Engedélyezem a BME számára a jelen kutatásban felvett adataim feldolgozását és tárolását, beleértve azok későbbi kutatásokhoz való felhasználását is. Személyes adataim kezelésével kapcsolatban tájékoztatást kérhetek a kutatás résztvevőitől, az adatkezelés ellen tiltakozhatok, kérhetem személyes adataim helyesbítését, törlését vagy zárolását, valamint jogorvoslatért a Nemzeti Adatvédelmi és Információszabadság Hatósághoz fordulhatok.</p><p>Kijelentem, hogy a kutatásban való részvételem körülményeiről részletes tájékoztatást kaptam, és a feltételeket elfogadom.</p>","0","","","","","",""
"survey-text","4","313280","0.0-4.0","56192","","{""Q0"":""HGFCTO"",""Q1"":""nő"",""Q2"":""2003"",""Q3"":""13""}","","","","","",""
"html-button-response","5","371230","0.0-5.0","57436","<p>Ebben a játékban szavakat kell toldalékolni.</p> <p>Minden körben mutatunk majd egy példamondatot, amiben lesz egy szó.</p> <p>Alatta jön egy második mondat, ezt a mondatot neked kell majd befejezni, ugyanezzel a szóval.</p> <p>Nem biztos, hogy a szó eleve ismerős lesz számodra!</p> <p>Minden mondathoz adunk két lehetőséget, ezeket balra és jobbra látod majd.</p> <p>A játék kb. negyedóráig-húsz percig tart.</p>","0","","","","","",""
"html-button-response","6","421647","0.0-6.0","49901","<p>Nézzünk egy példát!</p> <p>A példamondat: ""János imád fláramolni, ezért sokat fláramlik. Mi ritkán...""</p><p>Neked ezt a mondatot kell befejezned: ""Ti ritkán...""</p><p>A lehetőségek pedig ezek:</p>","0","","","","","",""
"html-button-response","7","439191","0.0-7.0","17032","<p>Nagyon jó.</p><p>Ezt a játékot nem egyedül fogod játszani, hanem egy másik játékossal.</p><p>Mielőtt továbblépünk, összekapcsolunk titeket egymással.</p><p>Ez igénybe vehet néhány másodpercet, amihez szíves türelmed kérjük.</p>","0","","","","","",""
"html-button-response","8","444926","0.0-8.0","null","<p>Csatlakozás a másik játékoshoz...</p>","null","","","","","",""
"html-button-response","9","447446","0.0-9.0","null","<p> Sikeres kapcsolódás!</p>","null","","","","","",""
"html-button-response","10","457954","0.0-10.0","null","<p>A következőkben ketten játsszátok a szóválasztós játékot.</p><p>A feladatotok az lesz, hogy minden körben <b>ugyanazt</b> a szót válasszátok.</p><p>Minden ilyen egyező válaszért pontot kaptok.</p><p>Próbáld meg kitalálni, mit választ a másik játékos!</p><p>Bármikor választhatsz, a körnek akkor van vége, ha mindketten döntöttetek.</p><p>Sok sikert!</p>","null","","","","","",""
"html-button-response-esp","11","474743","0.0-11.0-0.0","16286","János imád prélemezni, ezért sokat prélemlik. Ők ritkán...","1","prélemeznek","[""prélemlenek"",""prélemeznek""]","prélemlenek","esp trial","5","false"
"html-button-response","12","478259","0.0-11.0-1.0","null","<p>A másik játékos ezt választotta: <b>prélemlenek</b>.</p><p>&#10060;</p><p>A válaszaitok <b>nem</b> egyeznek meg.</p>","null","","","","feedback trial","",""
"html-button-response-esp","13","487175","0.0-11.0-0.1","8406","János imád frálapodni, ezért sokat frálapszik. Ti ritkán...","0","frálapszotok","[""frálapszotok"",""frálapodtok""]","frálapszotok","esp trial","5","true"
"html-button-response","14","490677","0.0-11.0-1.1","null","<p>A másik játékos ezt választotta: <b>frálapszotok</b>.</p><p>&#x2705;</p><p>A te válaszod és a másik játékos válasza <b>megegyeznek</b>.</p>","null","","","","feedback trial","",""
"html-button-response-esp","15","499751","0.0-11.0-0.2","8571","János imád molodni, ezért sokat molszik. Ti ritkán...","0","molodtok","[""molodtok"",""molszotok""]","molszotok","esp trial","5","false"
"html-button-response","16","503264","0.0-11.0-1.2","null","<p>A másik játékos ezt választotta: <b>molszotok</b>.</p><p>&#10060;</p><p>A válaszaitok <b>nem</b> egyeznek meg.</p>","null","","","","feedback trial","",""
"html-button-response-esp","17","514639","0.0-11.0-0.3","10865","János imád brivakozni, ezért sokat brivaklik. Ti ritkán...","1","brivaklotok","[""brivakoztok"",""brivaklotok""]","brivaklotok","esp trial","5","true"
"html-button-response","18","518145","0.0-11.0-1.3","null","<p>A másik játékos ezt választotta: <b>brivaklotok</b>.</p><p>&#x2705;</p><p>A te válaszod és a másik játékos válasza <b>megegyeznek</b>.</p>","null","","","","feedback trial","",""
"html-button-response-esp","19","525512","0.0-11.0-0.4","6852","János imád branyozni, ezért sokat branylik. Ők ritkán...","1","branylanak","[""branyoznak"",""branylanak""]","branylanak","esp trial","5","true"
"html-button-response","20","529029","0.0-11.0-1.4","null","<p>A másik játékos ezt választotta: <b>branylanak</b>.</p><p>&#x2705;</p><p>A te válaszod és a másik játékos válasza <b>megegyeznek</b>.</p>","null","","","","feedback trial","",""
"html-button-response-esp","21","537127","0.0-11.0-0.5","7597","János imád nyivágozni, ezért sokat nyivágzik. Mi ritkán...","1","nyivágozunk","[""nyivágzunk"",""nyivágozunk""]","nyivágzunk","esp trial","5","false"
"html-button-response","22","540641","0.0-11.0-1.5","null","<p>A másik játékos ezt választotta: <b>nyivágzunk</b>.</p><p>&#10060;</p><p>A válaszaitok <b>nem</b> egyeznek meg.</p>","null","","","","feedback trial","",""
"html-button-response-esp","23","549815","0.0-11.0-0.6","8673","János imád dárakodni, ezért sokat dárakszik. Mi ritkán...","0","dárakszunk","[""dárakszunk"",""dárakodunk""]","dárakszunk","esp trial","5","true"
"html-button-response","24","553318","0.0-11.0-1.6","null","<p>A másik játékos ezt választotta: <b>dárakszunk</b>.</p><p>&#x2705;</p><p>A te válaszod és a másik játékos válasza <b>megegyeznek</b>.</p>","null","","","","feedback trial","",""
"html-button-response-esp","25","561047","0.0-11.0-0.7","7223","János imád frálasozni, ezért sokat frálaslik. Ők ritkán...","1","frálaslanak","[""frálasoznak"",""frálaslanak""]","frálaslanak","esp trial","5","true"
"html-button-response","26","564549","0.0-11.0-1.7","null","<p>A másik játékos ezt választotta: <b>frálaslanak</b>.</p><p>&#x2705;</p><p>A te válaszod és a másik játékos válasza <b>megegyeznek</b>.</p>","null","","","","feedback trial","",""
"html-button-response-esp","27","570579","0.0-11.0-0.8","5240","János imád csubozni, ezért sokat csubzik. Mi ritkán...","0","csubzunk","[""csubzunk"",""csubozunk""]","csubzunk","esp trial","5","true"
"html-button-response","28","574086","0.0-11.0-1.8","null","<p>A másik játékos ezt választotta: <b>csubzunk</b>.</p><p>&#x2705;</p><p>A te válaszod és a másik játékos válasza <b>megegyeznek</b>.</p>","null","","","","feedback trial","",""
"html-button-response-esp","29","580111","0.0-11.0-0.9","5524","János imád trikozni, ezért sokat triklik. Ti ritkán...","1","triklotok","[""trikoztok"",""triklotok""]","triklotok","esp trial","5","true"
"html-button-response","30","583614","0.0-11.0-1.9","null","<p>A másik játékos ezt választotta: <b>triklotok</b>.</p><p>&#x2705;</p><p>A te válaszod és a másik játékos válasza <b>megegyeznek</b>.</p>","null","","","","feedback trial","",""
"html-button-response-esp","31","593576","0.0-11.0-0.10","9446","János imád spiharozni, ezért sokat spiharzik. Ti ritkán...","0","spiharzotok","[""spiharzotok"",""spiharoztok""]","spiharoztok","esp trial","5","false"
"html-button-response","32","597081","0.0-11.0-1.10","null","<p>A másik játékos ezt választotta: <b>spiharoztok</b>.</p><p>&#10060;</p><p>A válaszaitok <b>nem</b> egyeznek meg.</p>","null","","","","feedback trial","",""
"html-button-response-esp","33","603527","0.0-11.0-0.11","5945","János imád posozni, ezért sokat poslik. Ti ritkán...","1","poslotok","[""posoztok"",""poslotok""]","poslotok","esp trial","5","true"
"html-button-response","34","607037","0.0-11.0-1.11","null","<p>A másik játékos ezt választotta: <b>poslotok</b>.</p><p>&#x2705;</p><p>A te válaszod és a másik játékos válasza <b>megegyeznek</b>.</p>","null","","","","feedback trial","",""
"html-button-response-esp","35","615159","0.0-11.0-0.12","7612","János imád gyihegezni, ezért sokat gyihegzik. Ti ritkán...","1","gyihegzetek","[""gyihegeztek"",""gyihegzetek""]","gyihegeztek","esp trial","5","false"
"html-button-response","36","618660","0.0-11.0-1.12","null","<p>A másik játékos ezt választotta: <b>gyihegeztek</b>.</p><p>&#10060;</p><p>A válaszaitok <b>nem</b> egyeznek meg.</p>","null","","","","feedback trial","",""
"html-button-response-esp","37","628520","0.0-11.0-0.13","9359","János imád püzözni, ezért sokat püzlik. Ti ritkán...","1","püzlötök","[""püzöztök"",""püzlötök""]","püzlötök","esp trial","5","true"
"html-button-response","38","632021","0.0-11.0-1.13","null","<p>A másik játékos ezt választotta: <b>püzlötök</b>.</p><p>&#x2705;</p><p>A te válaszod és a másik játékos válasza <b>megegyeznek</b>.</p>","null","","","","feedback trial","",""
"html-button-response-esp","39","640712","0.0-11.0-0.14","8179","János imád gihejezni, ezért sokat gihejlik. Mi ritkán...","1","gihejlünk","[""gihejezünk"",""gihejlünk""]","gihejlünk","esp trial","5","true"
"html-button-response","40","644226","0.0-11.0-1.14","null","<p>A másik játékos ezt választotta: <b>gihejlünk</b>.</p><p>&#x2705;</p><p>A te válaszod és a másik játékos válasza <b>megegyeznek</b>.</p>","null","","","","feedback trial","",""
"html-button-response-esp","41","652271","0.0-11.0-0.15","7532","János imád spibegezni, ezért sokat spibeglik. Mi ritkán...","1","spibeglünk","[""spibegezünk"",""spibeglünk""]","spibeglünk","esp trial","5","true"
"html-button-response","42","655784","0.0-11.0-1.15","null","<p>A másik játékos ezt választotta: <b>spibeglünk</b>.</p><p>&#x2705;</p><p>A te válaszod és a másik játékos válasza <b>megegyeznek</b>.</p>","null","","","","feedback trial","",""
"html-button-response-esp","43","670335","0.0-11.0-0.16","14049","János imád spügözni, ezért sokat spügzik. Mi ritkán...","1","spügözünk","[""spügzünk"",""spügözünk""]","spügzünk","esp trial","5","false"
"html-button-response","44","673851","0.0-11.0-1.16","null","<p>A másik játékos ezt választotta: <b>spügzünk</b>.</p><p>&#10060;</p><p>A válaszaitok <b>nem</b> egyeznek meg.</p>","null","","","","feedback trial","",""
"html-button-response-esp","45","687287","0.0-11.0-0.17","12934","János imád föködni, ezért sokat fökszik. Ők ritkán...","1","fökszenek","[""föködnek"",""fökszenek""]","fökszenek","esp trial","5","true"
"html-button-response","46","690788","0.0-11.0-1.17","null","<p>A másik játékos ezt választotta: <b>fökszenek</b>.</p><p>&#x2705;</p><p>A te válaszod és a másik játékos válasza <b>megegyeznek</b>.</p>","null","","","","feedback trial","",""
"html-button-response-esp","47","700047","0.0-11.0-0.18","8758","János imád fröjözni, ezért sokat fröjzik. Ti ritkán...","1","fröjöztök","[""fröjzötök"",""fröjöztök""]","fröjöztök","esp trial","5","true"
"html-button-response","48","703563","0.0-11.0-1.18","null","<p>A másik játékos ezt választotta: <b>fröjöztök</b>.</p><p>&#x2705;</p><p>A te válaszod és a másik játékos válasza <b>megegyeznek</b>.</p>","null","","","","feedback trial","",""
"html-button-response-esp","49","712431","0.0-11.0-0.19","8367","János imád flöközni, ezért sokat flöklik. Ti ritkán...","1","flöklötök","[""flököztök"",""flöklötök""]","flöklötök","esp trial","5","true"
"html-button-response","50","715947","0.0-11.0-1.19","null","<p>A másik játékos ezt választotta: <b>flöklötök</b>.</p><p>&#x2705;</p><p>A te válaszod és a másik játékos válasza <b>megegyeznek</b>.</p>","null","","","","feedback trial","",""
"html-button-response-esp","51","729071","0.0-11.0-0.20","12619","János imád flüröközni, ezért sokat flüröklik. Ti ritkán...","0","flüröklötök","[""flüröklötök"",""flürököztök""]","flüröklötök","esp trial","5","true"
"html-button-response","52","732576","0.0-11.0-1.20","null","<p>A másik játékos ezt választotta: <b>flüröklötök</b>.</p><p>&#x2705;</p><p>A te válaszod és a másik játékos válasza <b>megegyeznek</b>.</p>","null","","","","feedback trial","",""
"html-button-response-esp","53","742863","0.0-11.0-0.21","9779","János imád trivakodni, ezért sokat trivakszik. Mi ritkán...","1","trivakszunk","[""trivakodunk"",""trivakszunk""]","trivakszunk","esp trial","5","true"
"html-button-response","54","746364","0.0-11.0-1.21","null","<p>A másik játékos ezt választotta: <b>trivakszunk</b>.</p><p>&#x2705;</p><p>A te válaszod és a másik játékos válasza <b>megegyeznek</b>.</p>","null","","","","feedback trial","",""
"html-button-response-esp","55","760375","0.0-11.0-0.22","13496","János imád dujozni, ezért sokat dujzik. Ők ritkán...","0","dujzanak","[""dujzanak"",""dujoznak""]","dujzanak","esp trial","5","true"
"html-button-response","56","763877","0.0-11.0-1.22","null","<p>A másik játékos ezt választotta: <b>dujzanak</b>.</p><p>&#x2705;</p><p>A te válaszod és a másik játékos válasza <b>megegyeznek</b>.</p>","null","","","","feedback trial","",""
"html-button-response-esp","57","773303","0.0-11.0-0.23","8925","János imád mülőrözni, ezért sokat mülőrzik. Mi ritkán...","0","mülőrzünk","[""mülőrzünk"",""mülőrözünk""]","mülőrzünk","esp trial","5","true"
"html-button-response","58","776805","0.0-11.0-1.23","null","<p>A másik játékos ezt választotta: <b>mülőrzünk</b>.</p><p>&#x2705;</p><p>A te válaszod és a másik játékos válasza <b>megegyeznek</b>.</p>","null","","","","feedback trial","",""
"html-button-response-esp","59","786655","0.0-11.0-0.24","9334","János imád mágamozni, ezért sokat mágamlik. Mi ritkán...","1","mágamlunk","[""mágamozunk"",""mágamlunk""]","mágamlunk","esp trial","5","true"
"html-button-response","60","790157","0.0-11.0-1.24","null","<p>A másik játékos ezt választotta: <b>mágamlunk</b>.</p><p>&#x2705;</p><p>A te válaszod és a másik játékos válasza <b>megegyeznek</b>.</p>","null","","","","feedback trial","",""
"html-button-response-esp","61","801215","0.0-11.0-0.25","10556","János imád sprűrözni, ezért sokat sprűrlik. Ők ritkán...","0","sprűrlenek","[""sprűrlenek"",""sprűröznek""]","sprűrlenek","esp trial","5","true"
"html-button-response","62","804727","0.0-11.0-1.25","null","<p>A másik játékos ezt választotta: <b>sprűrlenek</b>.</p><p>&#x2705;</p><p>A te válaszod és a másik játékos válasza <b>megegyeznek</b>.</p>","null","","","","feedback trial","",""
"html-button-response-esp","63","813943","0.0-11.0-0.26","8715","János imád csibagozni, ezért sokat csibagzik. Ti ritkán...","0","csibagzotok","[""csibagzotok"",""csibagoztok""]","csibagoztok","esp trial","5","false"
"html-button-response","64","817467","0.0-11.0-1.26","null","<p>A másik játékos ezt választotta: <b>csibagoztok</b>.</p><p>&#10060;</p><p>A válaszaitok <b>nem</b> egyeznek meg.</p>","null","","","","feedback trial","",""
"html-button-response-esp","65","828207","0.0-11.0-0.27","10234","János imád frakozni, ezért sokat fraklik. Mi ritkán...","0","fraklunk","[""fraklunk"",""frakozunk""]","fraklunk","esp trial","5","true"
"html-button-response","66","831710","0.0-11.0-1.27","null","<p>A másik játékos ezt választotta: <b>fraklunk</b>.</p><p>&#x2705;</p><p>A te válaszod és a másik játékos válasza <b>megegyeznek</b>.</p>","null","","","","feedback trial","",""
"html-button-response-esp","67","840463","0.0-11.0-0.28","8251","János imád virozni, ezért sokat virzik. Ők ritkán...","0","virzanak","[""virzanak"",""viroznak""]","virzanak","esp trial","5","true"
"html-button-response","68","843967","0.0-11.0-1.28","null","<p>A másik játékos ezt választotta: <b>virzanak</b>.</p><p>&#x2705;</p><p>A te válaszod és a másik játékos válasza <b>megegyeznek</b>.</p>","null","","","","feedback trial","",""
"html-button-response-esp","69","853463","0.0-11.0-0.29","8985","János imád nyürözni, ezért sokat nyürzik. Ők ritkán...","0","nyürzenek","[""nyürzenek"",""nyüröznek""]","nyürzenek","esp trial","5","true"
"html-button-response","70","856979","0.0-11.0-1.29","null","<p>A másik játékos ezt választotta: <b>nyürzenek</b>.</p><p>&#x2705;</p><p>A te válaszod és a másik játékos válasza <b>megegyeznek</b>.</p>","null","","","","feedback trial","",""
"html-button-response-esp","71","865768","0.0-11.0-0.30","8282","János imád brözözni, ezért sokat brözlik. Ti ritkán...","0","brözlötök","[""brözlötök"",""brözöztök""]","brözlötök","esp trial","5","true"
"html-button-response","72","869280","0.0-11.0-1.30","null","<p>A másik játékos ezt választotta: <b>brözlötök</b>.</p><p>&#x2705;</p><p>A te válaszod és a másik játékos válasza <b>megegyeznek</b>.</p>","null","","","","feedback trial","",""
"html-button-response-esp","73","878584","0.0-11.0-0.31","8802","János imád flűgözni, ezért sokat flűgzik. Mi ritkán...","1","flűgzünk","[""flűgözünk"",""flűgzünk""]","flűgzünk","esp trial","5","true"
"html-button-response","74","882100","0.0-11.0-1.31","null","<p>A másik játékos ezt választotta: <b>flűgzünk</b>.</p><p>&#x2705;</p><p>A te válaszod és a másik játékos válasza <b>megegyeznek</b>.</p>","null","","","","feedback trial","",""
"html-button-response-esp","75","892087","0.0-11.0-0.32","9486","János imád drűrözni, ezért sokat drűrzik. Ők ritkán...","1","drűrzenek","[""drűröznek"",""drűrzenek""]","drűröznek","esp trial","5","false"
"html-button-response","76","895588","0.0-11.0-1.32","null","<p>A másik játékos ezt választotta: <b>drűröznek</b>.</p><p>&#10060;</p><p>A válaszaitok <b>nem</b> egyeznek meg.</p>","null","","","","feedback trial","",""
"html-button-response-esp","77","905183","0.0-11.0-0.33","9094","János imád sprudozni, ezért sokat sprudlik. Mi ritkán...","0","sprudlunk","[""sprudlunk"",""sprudozunk""]","sprudozunk","esp trial","5","false"
"html-button-response","78","908685","0.0-11.0-1.33","null","<p>A másik játékos ezt választotta: <b>sprudozunk</b>.</p><p>&#10060;</p><p>A válaszaitok <b>nem</b> egyeznek meg.</p>","null","","","","feedback trial","",""
"html-button-response-esp","79","921447","0.0-11.0-0.34","12253","János imád drilarozni, ezért sokat drilarzik. Mi ritkán...","1","drilarzunk","[""drilarozunk"",""drilarzunk""]","drilarozunk","esp trial","5","false"
"html-button-response","80","924951","0.0-11.0-1.34","null","<p>A másik játékos ezt választotta: <b>drilarozunk</b>.</p><p>&#10060;</p><p>A válaszaitok <b>nem</b> egyeznek meg.</p>","null","","","","feedback trial","",""
"html-button-response-esp","81","931566","0.0-11.0-0.35","6115","János imád dabozni, ezért sokat dabzik. Ti ritkán...","1","dabzotok","[""daboztok"",""dabzotok""]","dabzotok","esp trial","5","true"
"html-button-response","82","935077","0.0-11.0-1.35","null","<p>A másik játékos ezt választotta: <b>dabzotok</b>.</p><p>&#x2705;</p><p>A te válaszod és a másik játékos válasza <b>megegyeznek</b>.</p>","null","","","","feedback trial","",""
"html-button-response-esp","83","945343","0.0-11.0-0.36","9762","János imád trugokozni, ezért sokat trugoklik. Ők ritkán...","0","trugoklanak","[""trugoklanak"",""trugokoznak""]","trugoklanak","esp trial","5","true"
"html-button-response","84","948850","0.0-11.0-1.36","null","<p>A másik játékos ezt választotta: <b>trugoklanak</b>.</p><p>&#x2705;</p><p>A te válaszod és a másik játékos válasza <b>megegyeznek</b>.</p>","null","","","","feedback trial","",""
"html-button-response-esp","85","962295","0.0-11.0-0.37","12940","János imád dilakozni, ezért sokat dilaklik. Ti ritkán...","1","dilaklotok","[""dilakoztok"",""dilaklotok""]","dilakoztok","esp trial","5","false"
"html-button-response","86","965810","0.0-11.0-1.37","null","<p>A másik játékos ezt választotta: <b>dilakoztok</b>.</p><p>&#10060;</p><p>A válaszaitok <b>nem</b> egyeznek meg.</p>","null","","","","feedback trial","",""
"html-button-response-esp","87","975375","0.0-11.0-0.38","9057","János imád lűközni, ezért sokat lűklik. Ők ritkán...","1","lűklenek","[""lűköznek"",""lűklenek""]","lűköznek","esp trial","5","false"
"html-button-response","88","978894","0.0-11.0-1.38","null","<p>A másik játékos ezt választotta: <b>lűköznek</b>.</p><p>&#10060;</p><p>A válaszaitok <b>nem</b> egyeznek meg.</p>","null","","","","feedback trial","",""
"html-button-response-esp","89","993854","0.0-11.0-0.39","14452","János imád trugozni, ezért sokat trugzik. Ők ritkán...","1","trugzanak","[""trugoznak"",""trugzanak""]","trugoznak","esp trial","5","false"
"html-button-response","90","997379","0.0-11.0-1.39","null","<p>A másik játékos ezt választotta: <b>trugoznak</b>.</p><p>&#10060;</p><p>A válaszaitok <b>nem</b> egyeznek meg.</p>","null","","","","feedback trial","",""
"html-button-response-esp","91","1007143","0.0-11.0-0.40","9253","János imád pilégedni, ezért sokat pilégszik. Ők ritkán...","0","pilégszenek","[""pilégszenek"",""pilégednek""]","pilégszenek","esp trial","5","true"
"html-button-response","92","1010651","0.0-11.0-1.40","null","<p>A másik játékos ezt választotta: <b>pilégszenek</b>.</p><p>&#x2705;</p><p>A te válaszod és a másik játékos válasza <b>megegyeznek</b>.</p>","null","","","","feedback trial","",""
"html-button-response-esp","93","1017502","0.0-11.0-0.41","6340","János imád kűdözni, ezért sokat kűdlik. Ők ritkán...","1","kűdlenek","[""kűdöznek"",""kűdlenek""]","kűdlenek","esp trial","5","true"
"html-button-response","94","1021008","0.0-11.0-1.41","null","<p>A másik játékos ezt választotta: <b>kűdlenek</b>.</p><p>&#x2705;</p><p>A te válaszod és a másik játékos válasza <b>megegyeznek</b>.</p>","null","","","","feedback trial","",""
"html-button-response-esp","95","1027727","0.0-11.0-0.42","6208","János imád pragányozni, ezért sokat pragánylik. Ti ritkán...","1","pragánylotok","[""pragányoztok"",""pragánylotok""]","pragánylotok","esp trial","5","true"
"html-button-response","96","1031251","0.0-11.0-1.42","null","<p>A másik játékos ezt választotta: <b>pragánylotok</b>.</p><p>&#x2705;</p><p>A te válaszod és a másik játékos válasza <b>megegyeznek</b>.</p>","null","","","","feedback trial","",""
"html-button-response-esp","97","1049280","0.0-11.0-0.43","17517","János imád bratározni, ezért sokat bratárzik. Ők ritkán...","0","bratároznak","[""bratároznak"",""bratárzanak""]","bratároznak","esp trial","5","true"
"html-button-response","98","1052785","0.0-11.0-1.43","null","<p>A másik játékos ezt választotta: <b>bratároznak</b>.</p><p>&#x2705;</p><p>A te válaszod és a másik játékos válasza <b>megegyeznek</b>.</p>","null","","","","feedback trial","",""
"html-button-response-esp","99","1066288","0.0-11.0-0.44","12986","János imád spirágozni, ezért sokat spiráglik. Ti ritkán...","1","spiráglotok","[""spirágoztok"",""spiráglotok""]","spirágoztok","esp trial","5","false"
"html-button-response","100","1069797","0.0-11.0-1.44","null","<p>A másik játékos ezt választotta: <b>spirágoztok</b>.</p><p>&#10060;</p><p>A válaszaitok <b>nem</b> egyeznek meg.</p>","null","","","","feedback trial","",""
"html-button-response-esp","101","1077127","0.0-11.0-0.45","6829","János imád köszözni, ezért sokat köszlik. Ti ritkán...","1","köszlötök","[""köszöztök"",""köszlötök""]","köszöztök","esp trial","5","false"
"html-button-response","102","1080644","0.0-11.0-1.45","null","<p>A másik játékos ezt választotta: <b>köszöztök</b>.</p><p>&#10060;</p><p>A válaszaitok <b>nem</b> egyeznek meg.</p>","null","","","","feedback trial","",""
"html-button-response-esp","103","1088511","0.0-11.0-0.46","7366","János imád lájozni, ezért sokat lájzik. Ti ritkán...","1","lájoztok","[""lájzotok"",""lájoztok""]","lájzotok","esp trial","5","false"
"html-button-response","104","1092020","0.0-11.0-1.46","null","<p>A másik játékos ezt választotta: <b>lájzotok</b>.</p><p>&#10060;</p><p>A válaszaitok <b>nem</b> egyeznek meg.</p>","null","","","","feedback trial","",""
"html-button-response-esp","105","1100544","0.0-11.0-0.47","8023","János imád klehényezni, ezért sokat klehénylik. Ti ritkán...","1","klehényletek","[""klehényeztek"",""klehényletek""]","klehényletek","esp trial","5","true"
"html-button-response","106","1104056","0.0-11.0-1.47","null","<p>A másik játékos ezt választotta: <b>klehényletek</b>.</p><p>&#x2705;</p><p>A te válaszod és a másik játékos válasza <b>megegyeznek</b>.</p>","null","","","","feedback trial","",""
"html-button-response-esp","107","1112143","0.0-11.0-0.48","7586","János imád privékedni, ezért sokat privékszik. Ők ritkán...","1","privékednek","[""privékszenek"",""privékednek""]","privékszenek","esp trial","5","false"
"html-button-response","108","1115649","0.0-11.0-1.48","null","<p>A másik játékos ezt választotta: <b>privékszenek</b>.</p><p>&#10060;</p><p>A válaszaitok <b>nem</b> egyeznek meg.</p>","null","","","","feedback trial","",""
"html-button-response-esp","109","1121711","0.0-11.0-0.49","5561","János imád prögözni, ezért sokat prögzik. Ti ritkán...","1","prögöztök","[""prögzötök"",""prögöztök""]","prögöztök","esp trial","5","true"
"html-button-response","110","1125215","0.0-11.0-1.49","null","<p>A másik játékos ezt választotta: <b>prögöztök</b>.</p><p>&#x2705;</p><p>A te válaszod és a másik játékos válasza <b>megegyeznek</b>.</p>","null","","","","feedback trial","",""
"html-button-response-esp","111","1135463","0.0-11.0-0.50","9747","János imád sprozozni, ezért sokat sprozlik. Ők ritkán...","0","sprozlanak","[""sprozlanak"",""sprozoznak""]","sprozlanak","esp trial","5","true"
"html-button-response","112","1138976","0.0-11.0-1.50","null","<p>A másik játékos ezt választotta: <b>sprozlanak</b>.</p><p>&#x2705;</p><p>A te válaszod és a másik játékos válasza <b>megegyeznek</b>.</p>","null","","","","feedback trial","",""
"html-button-response-esp","113","1149928","0.0-11.0-0.51","10444","János imád brülösözni, ezért sokat brülöslik. Mi ritkán...","0","brülöslünk","[""brülöslünk"",""brülösözünk""]","brülöslünk","esp trial","5","true"
"html-button-response","114","1153430","0.0-11.0-1.51","null","<p>A másik játékos ezt választotta: <b>brülöslünk</b>.</p><p>&#x2705;</p><p>A te válaszod és a másik játékos válasza <b>megegyeznek</b>.</p>","null","","","","feedback trial","",""
"html-button-response-esp","115","1163751","0.0-11.0-0.52","9821","János imád flemezni, ezért sokat flemlik. Mi ritkán...","1","flemlünk","[""flemezünk"",""flemlünk""]","flemezünk","esp trial","5","false"
"html-button-response","116","1167263","0.0-11.0-1.52","null","<p>A másik játékos ezt választotta: <b>flemezünk</b>.</p><p>&#10060;</p><p>A válaszaitok <b>nem</b> egyeznek meg.</p>","null","","","","feedback trial","",""
"html-button-response-esp","117","1175591","0.0-11.0-0.53","7818","János imád dirozni, ezért sokat dirlik. Ti ritkán...","0","diroztok","[""diroztok"",""dirlotok""]","dirlotok","esp trial","5","false"
"html-button-response","118","1179102","0.0-11.0-1.53","null","<p>A másik játékos ezt választotta: <b>dirlotok</b>.</p><p>&#10060;</p><p>A válaszaitok <b>nem</b> egyeznek meg.</p>","null","","","","feedback trial","",""
"html-button-response","119","1191904","0.0-12.0","12301","<p>A közös játék most véget ért.</p><p>Mielőtt eláruljuk a végső pontszámodat, arra kérlek, játszd a szóválasztós játékot néhány percig egyedül is.</p><p>A feladatod ugyanaz lesz, választani két lehetőség közül.</p><p>Most viszont egyedül kell döntened, hogy te melyiket választanád.</p>","0","","","","","",""
"html-button-response-clever","120","1207336","0.0-13.0-0.0","14918","János imád fröjözni, ezért sokat fröjlik. Mi ritkán...","1","fröjözünk","[""fröjlünk"",""fröjözünk""]","","posttest trial","8",""
"html-button-response-clever","121","1220151","0.0-13.0-0.1","12314","János imád vobozni, ezért sokat vobzik. Ti ritkán...","1","voboztok","[""vobzotok"",""voboztok""]","","posttest trial","8",""
"html-button-response-clever","122","1235855","0.0-13.0-0.2","15203","János imád galározni, ezért sokat galárzik. Ők ritkán...","0","galároznak","[""galároznak"",""galárzanak""]","","posttest trial","8",""
"html-button-response-clever","123","1243879","0.0-13.0-0.3","7518","János imád frihegezni, ezért sokat friheglik. Mi ritkán...","1","friheglünk","[""frihegezünk"",""friheglünk""]","","posttest trial","8",""
"html-button-response-clever","124","1257199","0.0-13.0-0.4","12817","János imád flubokozni, ezért sokat fluboklik. Ti ritkán...","1","fluboklotok","[""flubokoztok"",""fluboklotok""]","","posttest trial","8",""
"html-button-response-clever","125","1269695","0.0-13.0-0.5","11981","János imád tribejezni, ezért sokat tribejlik. Ti ritkán...","0","tribejletek","[""tribejletek"",""tribejeztek""]","","posttest trial","8",""
"html-button-response-clever","126","1277887","0.0-13.0-0.6","7691","János imád drivegezni, ezért sokat drivegzik. Ti ritkán...","1","drivegeztek","[""drivegzetek"",""drivegeztek""]","","posttest trial","8",""
"html-button-response-clever","127","1295255","0.0-13.0-0.7","16867","János imád prilepedni, ezért sokat prilepszik. Mi ritkán...","1","prilepszünk","[""prilepedünk"",""prilepszünk""]","","posttest trial","8",""
"html-button-response-clever","128","1301119","0.0-13.0-0.8","5363","János imád filányozni, ezért sokat filánylik. Mi ritkán...","1","filánylunk","[""filányozunk"",""filánylunk""]","","posttest trial","8",""
"html-button-response-clever","129","1309719","0.0-13.0-0.9","8098","János imád sponyozni, ezért sokat sponylik. Ők ritkán...","0","sponylanak","[""sponylanak"",""sponyoznak""]","","posttest trial","8",""
"html-button-response-clever","130","1317015","0.0-13.0-0.10","6795","János imád mísozni, ezért sokat míslik. Mi ritkán...","0","mísozunk","[""mísozunk"",""míslunk""]","","posttest trial","8",""
"html-button-response-clever","131","1331191","0.0-13.0-0.11","13674","János imád klarágozni, ezért sokat klarágzik. Ti ritkán...","1","klarágzotok","[""klarágoztok"",""klarágzotok""]","","posttest trial","8",""
"html-button-response-clever","132","1337303","0.0-13.0-0.12","5610","János imád brüszözni, ezért sokat brüszlik. Ti ritkán...","0","brüszlötök","[""brüszlötök"",""brüszöztök""]","","posttest trial","8",""
"html-button-response-clever","133","1353623","0.0-13.0-0.13","15818","János imád brivepedni, ezért sokat brivepszik. Mi ritkán...","1","brivepedünk","[""brivepszünk"",""brivepedünk""]","","posttest trial","8",""
"html-button-response-clever","134","1361560","0.0-13.0-0.14","7431","János imád brálamozni, ezért sokat brálamlik. Ők ritkán...","0","brálamoznak","[""brálamoznak"",""brálamlanak""]","","posttest trial","8",""
"html-button-response-clever","135","1369575","0.0-13.0-0.15","7508","János imád drojozni, ezért sokat drojzik. Mi ritkán...","0","drojzunk","[""drojzunk"",""drojozunk""]","","posttest trial","8",""
"html-button-response-clever","136","1375456","0.0-13.0-0.16","5379","János imád flézezni, ezért sokat flézlik. Ti ritkán...","0","flézletek","[""flézletek"",""flézeztek""]","","posttest trial","8",""
"html-button-response-clever","137","1384672","0.0-13.0-0.17","8714","János imád pehégedni, ezért sokat pehégszik. Ti ritkán...","0","pehégszetek","[""pehégszetek"",""pehégedtek""]","","posttest trial","8",""
"html-button-response-clever","138","1392880","0.0-13.0-0.18","7702","János imád brározni, ezért sokat brárlik. Ők ritkán...","0","brárlanak","[""brárlanak"",""brároznak""]","","posttest trial","8",""
"html-button-response-clever","139","1401272","0.0-13.0-0.19","7891","János imád tágarozni, ezért sokat tágarzik. Mi ritkán...","1","tágarzunk","[""tágarozunk"",""tágarzunk""]","","posttest trial","8",""
"html-button-response-clever","140","1411216","0.0-13.0-0.20","9443","János imád sprigozni, ezért sokat sprigzik. Ti ritkán...","0","sprigzotok","[""sprigzotok"",""sprigoztok""]","","posttest trial","8",""
"html-button-response-clever","141","1422544","0.0-13.0-0.21","10817","János imád pekedni, ezért sokat pekszik. Mi ritkán...","0","pekszünk","[""pekszünk"",""pekedünk""]","","posttest trial","8",""
"html-button-response-clever","142","1431025","0.0-13.0-0.22","7979","János imád kluzozni, ezért sokat kluzlik. Ti ritkán...","1","kluzlotok","[""kluzoztok"",""kluzlotok""]","","posttest trial","8",""
"html-button-response-clever","143","1439832","0.0-13.0-0.23","8305","János imád mihágozni, ezért sokat mihágzik. Ti ritkán...","1","mihágzotok","[""mihágoztok"",""mihágzotok""]","","posttest trial","8",""
"html-button-response-clever","144","1449048","0.0-13.0-0.24","8715","János imád riványozni, ezért sokat riványlik. Ti ritkán...","1","riványlotok","[""riványoztok"",""riványlotok""]","","posttest trial","8",""
"html-button-response-clever","145","1460312","0.0-13.0-0.25","10763","János imád frivamozni, ezért sokat frivamlik. Mi ritkán...","0","frivamlunk","[""frivamlunk"",""frivamozunk""]","","posttest trial","8",""
"html-button-response-clever","146","1469463","0.0-13.0-0.26","8650","János imád gibemezni, ezért sokat gibemlik. Mi ritkán...","0","gibemlünk","[""gibemlünk"",""gibemezünk""]","","posttest trial","8",""
"html-button-response-clever","147","1482839","0.0-13.0-0.27","12875","János imád gatágozni, ezért sokat gatáglik. Mi ritkán...","0","gatágozunk","[""gatágozunk"",""gatáglunk""]","","posttest trial","8",""
"html-button-response-clever","148","1499279","0.0-13.0-0.28","15937","János imád sprimozni, ezért sokat sprimlik. Mi ritkán...","0","sprimlunk","[""sprimlunk"",""sprimozunk""]","","posttest trial","8",""
"html-button-response-clever","149","1508615","0.0-13.0-0.29","8834","János imád trűnyözni, ezért sokat trűnylik. Ők ritkán...","1","trűnylenek","[""trűnyöznek"",""trűnylenek""]","","posttest trial","8",""
"html-button-response-clever","150","1516399","0.0-13.0-0.30","7283","János imád livényezni, ezért sokat livénylik. Mi ritkán...","1","livénylünk","[""livényezünk"",""livénylünk""]","","posttest trial","8",""
"html-button-response-clever","151","1524486","0.0-13.0-0.31","7583","János imád spöközni, ezért sokat spöklik. Mi ritkán...","0","spöklünk","[""spöklünk"",""spöközünk""]","","posttest trial","8",""
"html-button-response-clever","152","1534071","0.0-13.0-0.32","9082","János imád sztritozni, ezért sokat sztritlik. Ők ritkán...","0","sztritlanak","[""sztritlanak"",""sztritoznak""]","","posttest trial","8",""
"html-button-response-clever","153","1543935","0.0-13.0-0.33","9353","János imád hákodni, ezért sokat hákszik. Ők ritkán...","0","hákszanak","[""hákszanak"",""hákodnak""]","","posttest trial","8",""
"html-button-response-clever","154","1553457","0.0-13.0-0.34","9016","János imád nágapodni, ezért sokat nágapszik. Ők ritkán...","1","nágapszanak","[""nágapodnak"",""nágapszanak""]","","posttest trial","8",""
"html-button-response-clever","155","1560655","0.0-13.0-0.35","6698","János imád prazozni, ezért sokat prazlik. Mi ritkán...","1","prazlunk","[""prazozunk"",""prazlunk""]","","posttest trial","8",""
"html-button-response-clever","156","1569240","0.0-13.0-0.36","8084","János imád míjozni, ezért sokat míjzik. Mi ritkán...","0","míjozunk","[""míjozunk"",""míjzunk""]","","posttest trial","8",""
"html-button-response-clever","157","1578543","0.0-13.0-0.37","8802","János imád brivágozni, ezért sokat briváglik. Ők ritkán...","0","briváglanak","[""briváglanak"",""brivágoznak""]","","posttest trial","8",""
"html-button-response-clever","158","1585295","0.0-13.0-0.38","6250","János imád trírozni, ezért sokat trírzik. Mi ritkán...","0","trírzunk","[""trírzunk"",""trírozunk""]","","posttest trial","8",""
"html-button-response-clever","159","1604719","0.0-13.0-0.39","18914","János imád flivegezni, ezért sokat flivegzik. Ők ritkán...","1","flivegzenek","[""flivegeznek"",""flivegzenek""]","","posttest trial","8",""
"html-button-response-clever","160","1612599","0.0-13.0-0.40","7379","János imád tibarozni, ezért sokat tibarzik. Ők ritkán...","1","tibaroznak","[""tibarzanak"",""tibaroznak""]","","posttest trial","8",""
"html-button-response-clever","161","1621904","0.0-13.0-0.41","8801","János imád sztrajozni, ezért sokat sztrajlik. Ők ritkán...","0","sztrajlanak","[""sztrajlanak"",""sztrajoznak""]","","posttest trial","8",""
"html-button-response-clever","162","1631911","0.0-13.0-0.42","9499","János imád lírozni, ezért sokat lírlik. Ők ritkán...","0","líroznak","[""líroznak"",""lírlanak""]","","posttest trial","8",""
"html-button-response-clever","163","1643655","0.0-13.0-0.43","11243","János imád dirányozni, ezért sokat diránylik. Ők ritkán...","0","diránylanak","[""diránylanak"",""dirányoznak""]","","posttest trial","8",""
"html-button-response-clever","164","1651679","0.0-13.0-0.44","7522","János imád bregezni, ezért sokat bregzik. Mi ritkán...","1","bregzünk","[""bregezünk"",""bregzünk""]","","posttest trial","8",""
"html-button-response-clever","165","1666248","0.0-13.0-0.45","14062","János imád spibamozni, ezért sokat spibamlik. Ők ritkán...","0","spibamlanak","[""spibamlanak"",""spibamoznak""]","","posttest trial","8",""
"html-button-response-clever","166","1676631","0.0-13.0-0.46","9882","János imád pörözni, ezért sokat pörzik. Ti ritkán...","1","pöröztök","[""pörzötök"",""pöröztök""]","","posttest trial","8",""
"html-button-response-clever","167","1688432","0.0-13.0-0.47","11299","János imád frésezni, ezért sokat fréslik. Mi ritkán...","1","fréslünk","[""frésezünk"",""fréslünk""]","","posttest trial","8",""
"html-button-response-clever","168","1700975","0.0-13.0-0.48","12038","János imád lumozni, ezért sokat lumlik. Ti ritkán...","0","lumlotok","[""lumlotok"",""lumoztok""]","","posttest trial","8",""
"html-button-response-clever","169","1709064","0.0-13.0-0.49","7587","János imád brilegezni, ezért sokat brilegzik. Mi ritkán...","0","brilegzünk","[""brilegzünk"",""brilegezünk""]","","posttest trial","8",""
"html-button-response-clever","170","1720999","0.0-13.0-0.50","11434","János imád spalározni, ezért sokat spalárzik. Ők ritkán...","1","spalároznak","[""spalárzanak"",""spalároznak""]","","posttest trial","8",""
"html-button-response-clever","171","1731007","0.0-13.0-0.51","9502","János imád gyivepedni, ezért sokat gyivepszik. Ők ritkán...","1","gyivepszenek","[""gyivepednek"",""gyivepszenek""]","","posttest trial","8",""
"html-button-response-clever","172","1740815","0.0-13.0-0.52","9296","János imád tűgözni, ezért sokat tűgzik. Ti ritkán...","1","tűgöztök","[""tűgzötök"",""tűgöztök""]","","posttest trial","8",""
"html-button-response-clever","173","1753623","0.0-13.0-0.53","12296","János imád küsözni, ezért sokat küslik. Mi ritkán...","0","küslünk","[""küslünk"",""küsözünk""]","","posttest trial","8",""
"html-button-response","174","1763855","0.0-14.0","9730","<p> Vége a játéknak. A teljes pontszámod 35/54.</p><p> Szép munka! &#128526;&#128526;&#128526;</p><p>A Befejezés gomb megnyomása után bezárhatod a böngészőablakot.</p>","0","","","","","",""
"html-keyboard-response","175","1769367","0.0-15.0","null","<div class=""message"">
         <p>Egy kis türelmet kérünk, amíg elmentjük az adatokat...</p>
         </div>","null","","","","","",""
