"trial_type","trial_index","time_elapsed","internal_node_id","rt","stimulus","response","response_string","choices","esp_response","trial_kind","list_number","esp_match"
"pavlovia","0","981","0.0-0.0","","","","","","","","",""
"html-button-response","1","5422","0.0-1.0","3925","<p>Kedves Résztvevő! A Budapesti Műszaki és Gazdaságtudományi Egyetem Kognitív Tudományi Tanszékének kutatásában való részvételed kérjük. A kutatásban azt vizsgáljuk, hogy a magyar anyanyelvűek hogyan használnak bizonyos szóalakokat, és hogy milyen képük van arról, hogy mások hogyan használják, hogyan képzik a szavakat. Ez hozzásegít bennünket ahhoz, hogy jobban megértsük, hogyan dolgozza fel és tárolja a nyelvet az emberi agy, és hogyan működnek, hogyan változnak egy adott közösség nyelvi konvenciói.</p><p>A vizsgálat egy rövid számítógépes feladatból fog állni. A kutatásban való részvétel önkéntes, a részvételi szándék bármikor visszavonható. A résztvevők eredményeit név nélkül kezeljük, így nem beazonosíthatók az adatok feldolgozása során. Minden személyes adatot az EU általános adatvédelmi rendeletének (GDPR) megfelelően kezelünk és legfeljebb öt éven belül megsemmisítünk. A vizsgálat jellemzően húsz percet vesz igénybe.</p><p>Kutatásvezető:</p><p>Dr. Rácz Péter, tudományos munkatárs, BME KTT</p><p>e-mail: racz.peter.marton@ttk.bme.hu</p>","0","","","","","",""
"html-button-response","2","40874","0.0-2.0","34943","<p>A kísérletben szavakat fogsz látni. Ezek között lesznek olyanok, amelyeket ismersz, de előfordulhatnak olyanok is, amelyeket nem ismersz, sőt, vannak köztük kitalált szavak is. Minden szónál látni fogsz toldalékolt alakokat. A te feladatod az lesz, hogy minden szóhoz kiválaszd azt a toldalékolt alakot, amely a te számodra ismerősebben, természetesebben hangzik. Rossz válaszok nincsenek, mert van olyan, hogy különböző embereknek más és más szó tűnik jobb választásnak. A választ úgy tudod majd kiválasztani, ha rákattintasz.</p><p>Ebben a szóválasztós játékban egy másik játékossal együtt veszel majd részt. A másik játékos is minden esetben azok közül a lehetőségek közül válogathat, mint te. Kettőtök feladata az, hogy ugyanazt a lehetőséget válasszátok minden esetben. Ahhoz, hogy ez sikerüljön, neked figyelned kell arra, hogy a másik játékos milyen válaszokat ad, és ennek alapján meg kell tippelned, hogyan választ legközelebb. Ha eltalálod, akkor pontot kapsz.</p>","0","","","","","",""
"html-button-response","3","45789","0.0-3.0","4398","<p>Kérjük, olvasd el az alábbi nyilatkozatot, és amennyiben egyetértesz vele, nyomj a Beleegyezés gombra!</p><p>Kijelentem, hogy magyar anyanyelvű személyként önként veszek részt a BME KTT kísérletében. A kutatás céljával és folyamatával kapcsolatban elegendő tájékoztatást kaptam, lehetőségem volt kérdések feltételére, és esetleges kérdéseimre megfelelő válaszokat kaptam. A tájékoztatás alapján elegendő mennyiségű információ áll a rendelkezésemre, hogy eldönthessem, részt kívánok-e venni a kutatásban.</p><p>Tisztában vagyok vele, hogy részvételi szándékomat és adataimat bármikor, indoklás nélkül visszavonhatom.</p><p>Értem és tudomásul veszem, hogy a kutatás tudományos célokat szolgál, és az általam szolgáltatott adatokat a BME kizárólag kutatási célból használja fel. Tudomásul veszem, hogy eredményeimet a többi résztvevő eredményeivel együtt kezelik, így egyéni teljesítményemről visszajelzést, szakvéleményt nem kapok.</p><p>Megértettem, hogy adataim kezelését illetően a BME az EU általános adatvédelmi rendelete (GDPR), a hatályos adatvédelmi törvény és a nemzetközi kutatás-etikai alapelvek szerint jár el. Eredményeim anonim módon kerülnek feldolgozásra, és a kutatás résztvevői az azonosításomra alkalmas adataimat harmadik félnek nem szolgáltatják ki. Engedélyezem a BME számára a jelen kutatásban felvett adataim feldolgozását és tárolását, beleértve azok későbbi kutatásokhoz való felhasználását is. Személyes adataim kezelésével kapcsolatban tájékoztatást kérhetek a kutatás résztvevőitől, az adatkezelés ellen tiltakozhatok, kérhetem személyes adataim helyesbítését, törlését vagy zárolását, valamint jogorvoslatért a Nemzeti Adatvédelmi és Információszabadság Hatósághoz fordulhatok.</p><p>Kijelentem, hogy a kutatásban való részvételem körülményeiről részletes tájékoztatást kaptam, és a feltételeket elfogadom.</p>","0","","","","","",""
"survey-text","4","74980","0.0-4.0","28662","","{""Q0"":""N6Z0GH"",""Q1"":""nő"",""Q2"":""1997"",""Q3"":""13""}","","","","","",""
"html-button-response","5","89853","0.0-5.0","14370","<p>Ebben a játékban szavakat kell toldalékolni.</p> <p>Minden körben mutatunk majd egy példamondatot, amiben lesz egy szó.</p> <p>Alatta jön egy második mondat, ezt a mondatot neked kell majd befejezni, ugyanezzel a szóval.</p> <p>Nem biztos, hogy a szó eleve ismerős lesz számodra!</p> <p>Minden mondathoz adunk két lehetőséget, ezeket balra és jobbra látod majd.</p> <p>A játék kb. negyedóráig-húsz percig tart.</p>","0","","","","","",""
"html-button-response","6","104834","0.0-6.0","14472","<p>Nézzünk egy példát!</p> <p>A példamondat: ""Ez itt egy blumbnyeg.""</p><p>Neked ezt a mondatot kell befejezned: ""Ott vagyunk a...""</p><p>A lehetőségek pedig ezek:</p>","0","","","","","",""
"html-button-response","7","110144","0.0-7.0","4805","<p>Nagyon jó.</p><p>Ezt a játékot nem egyedül fogod játszani, hanem egy másik játékossal.</p><p>Mielőtt továbblépünk, összekapcsolunk titeket egymással.</p><p>Ez igénybe vehet néhány másodpercet, amihez szíves türelmed kérjük.</p>","0","","","","","",""
"html-button-response","8","115871","0.0-8.0","null","<p>Csatlakozás a másik játékoshoz...</p>","null","","","","","",""
"html-button-response","9","118399","0.0-9.0","null","<p> Sikeres kapcsolódás!</p>","null","","","","","",""
"html-button-response","10","128912","0.0-10.0","null","<p>A következőkben ketten játsszátok a szóválasztós játékot.</p><p>A feladatotok az lesz, hogy minden körben <b>ugyanazt</b> a szót válasszátok.</p><p>Minden ilyen egyező válaszért pontot kaptok.</p><p>Próbáld meg kitalálni, mit választ a másik játékos!</p><p>Bármikor választhatsz, a körnek akkor van vége, ha mindketten döntöttetek.</p><p>Sok sikert!</p>","null","","","","","",""
"html-button-response-esp","11","139270","0.0-11.0-0.0","9847","Ez itt egy lingék. Nincs is jobb egy jó...","1","lingéknál","[""lingéknél"",""lingéknál""]","lingéknél","esp trial","7","false"
"html-button-response","12","142790","0.0-11.0-1.0","null","<p>A másik játékos ezt választotta: <b>lingéknél</b>.</p><p>&#10060;</p><p>A válaszaitok <b>nem</b> egyeznek meg.</p>","null","","","","feedback trial","",""
"html-button-response-esp","13","147321","0.0-11.0-0.1","4014","Ez itt egy spizec. Elneveztem a kutyámat...","1","spizecnek","[""spizecnak"",""spizecnek""]","spizecnek","esp trial","7","true"
"html-button-response","14","150841","0.0-11.0-1.1","null","<p>A másik játékos ezt választotta: <b>spizecnek</b>.</p><p>&#x2705;</p><p>A te válaszod és a másik játékos válasza <b>megegyeznek</b>.</p>","null","","","","feedback trial","",""
"html-button-response-esp","15","157103","0.0-11.0-0.2","5751","Ez itt egy kátéd. Nincs is jobb egy jó...","1","kátédnál","[""kátédnél"",""kátédnál""]","kátédnál","esp trial","7","true"
"html-button-response","16","160612","0.0-11.0-1.2","null","<p>A másik játékos ezt választotta: <b>kátédnál</b>.</p><p>&#x2705;</p><p>A te válaszod és a másik játékos válasza <b>megegyeznek</b>.</p>","null","","","","feedback trial","",""
"html-button-response-esp","17","165319","0.0-11.0-0.3","4192","Ez itt egy tivenc. Ott vagyunk a...","1","tivencben","[""tivencban"",""tivencben""]","tivencben","esp trial","7","true"
"html-button-response","18","168841","0.0-11.0-1.3","null","<p>A másik játékos ezt választotta: <b>tivencben</b>.</p><p>&#x2705;</p><p>A te válaszod és a másik játékos válasza <b>megegyeznek</b>.</p>","null","","","","feedback trial","",""
"html-button-response-esp","19","172597","0.0-11.0-0.4","3005","Ez itt egy vismer. Nincs is jobb egy jó...","0","vismernél","[""vismernél"",""vismernál""]","vismernél","esp trial","7","true"
"html-button-response","20","176104","0.0-11.0-1.4","null","<p>A másik játékos ezt választotta: <b>vismernél</b>.</p><p>&#x2705;</p><p>A te válaszod és a másik játékos válasza <b>megegyeznek</b>.</p>","null","","","","feedback trial","",""
"html-button-response-esp","21","179903","0.0-11.0-0.5","3282","Ez itt egy tumély. Nincs is jobb egy jó...","1","tumélynál","[""tumélynél"",""tumélynál""]","tumélynél","esp trial","7","false"
"html-button-response","22","183410","0.0-11.0-1.5","null","<p>A másik játékos ezt választotta: <b>tumélynél</b>.</p><p>&#10060;</p><p>A válaszaitok <b>nem</b> egyeznek meg.</p>","null","","","","feedback trial","",""
"html-button-response-esp","23","187173","0.0-11.0-0.6","2660","Ez itt egy murdes. Nincs is jobb egy jó...","0","murdesnál","[""murdesnál"",""murdesnél""]","murdesnél","esp trial","7","false"
"html-button-response","24","190694","0.0-11.0-1.6","null","<p>A másik játékos ezt választotta: <b>murdesnél</b>.</p><p>&#10060;</p><p>A válaszaitok <b>nem</b> egyeznek meg.</p>","null","","","","feedback trial","",""
"html-button-response-esp","25","194453","0.0-11.0-0.7","2437","Ez itt egy nuhét. Nincs is jobb egy jó...","1","nuhétnál","[""nuhétnél"",""nuhétnál""]","nuhétnél","esp trial","7","false"
"html-button-response","26","197963","0.0-11.0-1.7","null","<p>A másik játékos ezt választotta: <b>nuhétnél</b>.</p><p>&#10060;</p><p>A válaszaitok <b>nem</b> egyeznek meg.</p>","null","","","","feedback trial","",""
"html-button-response-esp","27","201713","0.0-11.0-0.8","2731","Ez itt egy trikép. Ott vagyunk a...","0","triképben","[""triképben"",""triképban""]","triképben","esp trial","7","true"
"html-button-response","28","205235","0.0-11.0-1.8","null","<p>A másik játékos ezt választotta: <b>triképben</b>.</p><p>&#x2705;</p><p>A te válaszod és a másik játékos válasza <b>megegyeznek</b>.</p>","null","","","","feedback trial","",""
"html-button-response-esp","29","208980","0.0-11.0-0.9","2912","Ez itt egy tarhéz. Ott vagyunk a...","0","tarhézban","[""tarhézban"",""tarhézben""]","tarhézban","esp trial","7","true"
"html-button-response","30","212501","0.0-11.0-1.9","null","<p>A másik játékos ezt választotta: <b>tarhézban</b>.</p><p>&#x2705;</p><p>A te válaszod és a másik játékos válasza <b>megegyeznek</b>.</p>","null","","","","feedback trial","",""
"html-button-response-esp","31","216271","0.0-11.0-0.10","2233","Ez itt egy klazér. Ott vagyunk a...","0","klazérben","[""klazérben"",""klazérban""]","klazérban","esp trial","7","false"
"html-button-response","32","219796","0.0-11.0-1.10","null","<p>A másik játékos ezt választotta: <b>klazérban</b>.</p><p>&#10060;</p><p>A válaszaitok <b>nem</b> egyeznek meg.</p>","null","","","","feedback trial","",""
"html-button-response-esp","33","226455","0.0-11.0-0.11","6152","Ez itt egy surnegy. Nincs is jobb egy jó...","0","surnegynél","[""surnegynél"",""surnegynál""]","surnegynél","esp trial","7","true"
"html-button-response","34","229981","0.0-11.0-1.11","null","<p>A másik játékos ezt választotta: <b>surnegynél</b>.</p><p>&#x2705;</p><p>A te válaszod és a másik játékos válasza <b>megegyeznek</b>.</p>","null","","","","feedback trial","",""
"html-button-response-esp","35","237059","0.0-11.0-0.12","6561","Ez itt egy fizend. Ott vagyunk a...","1","fizendban","[""fizendben"",""fizendban""]","fizendben","esp trial","7","false"
"html-button-response","36","240574","0.0-11.0-1.12","null","<p>A másik játékos ezt választotta: <b>fizendben</b>.</p><p>&#10060;</p><p>A válaszaitok <b>nem</b> egyeznek meg.</p>","null","","","","feedback trial","",""
"html-button-response-esp","37","244770","0.0-11.0-0.13","3686","Ez itt egy dunkész. Ott vagyunk a...","1","dunkészban","[""dunkészben"",""dunkészban""]","dunkészban","esp trial","7","true"
"html-button-response","38","248292","0.0-11.0-1.13","null","<p>A másik játékos ezt választotta: <b>dunkészban</b>.</p><p>&#x2705;</p><p>A te válaszod és a másik játékos válasza <b>megegyeznek</b>.</p>","null","","","","feedback trial","",""
"html-button-response-esp","39","252051","0.0-11.0-0.14","2904","Ez itt egy zsalrén. Elneveztem a kutyámat...","0","zsalrénnek","[""zsalrénnek"",""zsalrénnak""]","zsalrénnek","esp trial","7","true"
"html-button-response","40","255565","0.0-11.0-1.14","null","<p>A másik játékos ezt választotta: <b>zsalrénnek</b>.</p><p>&#x2705;</p><p>A te válaszod és a másik játékos válasza <b>megegyeznek</b>.</p>","null","","","","feedback trial","",""
"html-button-response-esp","41","259638","0.0-11.0-0.15","3562","Ez itt egy zarcég. Nincs is jobb egy jó...","1","zarcégnél","[""zarcégnál"",""zarcégnél""]","zarcégnél","esp trial","7","true"
"html-button-response","42","263161","0.0-11.0-1.15","null","<p>A másik játékos ezt választotta: <b>zarcégnél</b>.</p><p>&#x2705;</p><p>A te válaszod és a másik játékos válasza <b>megegyeznek</b>.</p>","null","","","","feedback trial","",""
"html-button-response-esp","43","266912","0.0-11.0-0.16","3228","Ez itt egy zábény. Elneveztem a kutyámat...","1","zábénynek","[""zábénynak"",""zábénynek""]","zábénynek","esp trial","7","true"
"html-button-response","44","270430","0.0-11.0-1.16","null","<p>A másik játékos ezt választotta: <b>zábénynek</b>.</p><p>&#x2705;</p><p>A te válaszod és a másik játékos válasza <b>megegyeznek</b>.</p>","null","","","","feedback trial","",""
"html-button-response-esp","45","274174","0.0-11.0-0.17","2887","Ez itt egy spatel. Elneveztem a kutyámat...","0","spatelnek","[""spatelnek"",""spatelnak""]","spatelnek","esp trial","7","true"
"html-button-response","46","277694","0.0-11.0-1.17","null","<p>A másik játékos ezt választotta: <b>spatelnek</b>.</p><p>&#x2705;</p><p>A te válaszod és a másik játékos válasza <b>megegyeznek</b>.</p>","null","","","","feedback trial","",""
"html-button-response-esp","47","288348","0.0-11.0-0.18","10138","Ez itt egy sihen. Nincs is jobb egy jó...","0","sihennél","[""sihennél"",""sihennál""]","sihennél","esp trial","7","true"
"html-button-response","48","291875","0.0-11.0-1.18","null","<p>A másik játékos ezt választotta: <b>sihennél</b>.</p><p>&#x2705;</p><p>A te válaszod és a másik játékos válasza <b>megegyeznek</b>.</p>","null","","","","feedback trial","",""
"html-button-response-esp","49","295634","0.0-11.0-0.19","3132","Ez itt egy zined. Elneveztem a kutyámat...","0","zinednek","[""zinednek"",""zinednak""]","zinednek","esp trial","7","true"
"html-button-response","50","299153","0.0-11.0-1.19","null","<p>A másik játékos ezt választotta: <b>zinednek</b>.</p><p>&#x2705;</p><p>A te válaszod és a másik játékos válasza <b>megegyeznek</b>.</p>","null","","","","feedback trial","",""
"html-button-response-esp","51","302897","0.0-11.0-0.20","2975","Ez itt egy fojlegy. Elneveztem a kutyámat...","0","fojlegynak","[""fojlegynak"",""fojlegynek""]","fojlegynek","esp trial","7","false"
"html-button-response","52","306409","0.0-11.0-1.20","null","<p>A másik játékos ezt választotta: <b>fojlegynek</b>.</p><p>&#10060;</p><p>A válaszaitok <b>nem</b> egyeznek meg.</p>","null","","","","feedback trial","",""
"html-button-response-esp","53","310169","0.0-11.0-0.21","3155","Ez itt egy mádép. Nincs is jobb egy jó...","1","mádépnál","[""mádépnél"",""mádépnál""]","mádépnál","esp trial","7","true"
"html-button-response","54","313684","0.0-11.0-1.21","null","<p>A másik játékos ezt választotta: <b>mádépnál</b>.</p><p>&#x2705;</p><p>A te válaszod és a másik játékos válasza <b>megegyeznek</b>.</p>","null","","","","feedback trial","",""
"html-button-response-esp","55","317433","0.0-11.0-0.22","2698","Ez itt egy dajrens. Nincs is jobb egy jó...","0","dajrensnél","[""dajrensnél"",""dajrensnál""]","dajrensnél","esp trial","7","true"
"html-button-response","56","320948","0.0-11.0-1.22","null","<p>A másik játékos ezt választotta: <b>dajrensnél</b>.</p><p>&#x2705;</p><p>A te válaszod és a másik játékos válasza <b>megegyeznek</b>.</p>","null","","","","feedback trial","",""
"html-button-response-esp","57","324705","0.0-11.0-0.23","2829","Ez itt egy lihény. Elneveztem a kutyámat...","1","lihénynek","[""lihénynak"",""lihénynek""]","lihénynek","esp trial","7","true"
"html-button-response","58","328236","0.0-11.0-1.23","null","<p>A másik játékos ezt választotta: <b>lihénynek</b>.</p><p>&#x2705;</p><p>A te válaszod és a másik játékos válasza <b>megegyeznek</b>.</p>","null","","","","feedback trial","",""
"html-button-response-esp","59","331999","0.0-11.0-0.24","2586","Ez itt egy jutély. Nincs is jobb egy jó...","0","jutélynál","[""jutélynál"",""jutélynél""]","jutélynál","esp trial","7","true"
"html-button-response","60","335523","0.0-11.0-1.24","null","<p>A másik játékos ezt választotta: <b>jutélynál</b>.</p><p>&#x2705;</p><p>A te válaszod és a másik játékos válasza <b>megegyeznek</b>.</p>","null","","","","feedback trial","",""
"html-button-response-esp","61","339281","0.0-11.0-0.25","2420","Ez itt egy szibed. Ott vagyunk a...","1","szibedban","[""szibedben"",""szibedban""]","szibedben","esp trial","7","false"
"html-button-response","62","342794","0.0-11.0-1.25","null","<p>A másik játékos ezt választotta: <b>szibedben</b>.</p><p>&#10060;</p><p>A válaszaitok <b>nem</b> egyeznek meg.</p>","null","","","","feedback trial","",""
"html-button-response-esp","63","347825","0.0-11.0-0.26","4517","Ez itt egy dinelt. Ott vagyunk a...","1","dineltban","[""dineltben"",""dineltban""]","dineltben","esp trial","7","false"
"html-button-response","64","351351","0.0-11.0-1.26","null","<p>A másik játékos ezt választotta: <b>dineltben</b>.</p><p>&#10060;</p><p>A válaszaitok <b>nem</b> egyeznek meg.</p>","null","","","","feedback trial","",""
"html-button-response-esp","65","356035","0.0-11.0-0.27","4174","Ez itt egy cságyelt. Ott vagyunk a...","1","cságyeltban","[""cságyeltben"",""cságyeltban""]","cságyeltben","esp trial","7","false"
"html-button-response","66","359556","0.0-11.0-1.27","null","<p>A másik játékos ezt választotta: <b>cságyeltben</b>.</p><p>&#10060;</p><p>A válaszaitok <b>nem</b> egyeznek meg.</p>","null","","","","feedback trial","",""
"html-button-response-esp","67","364455","0.0-11.0-0.28","4398","Ez itt egy spivél. Elneveztem a kutyámat...","0","spivélnek","[""spivélnek"",""spivélnak""]","spivélnek","esp trial","7","true"
"html-button-response","68","367974","0.0-11.0-1.28","null","<p>A másik játékos ezt választotta: <b>spivélnek</b>.</p><p>&#x2705;</p><p>A te válaszod és a másik játékos válasza <b>megegyeznek</b>.</p>","null","","","","feedback trial","",""
"html-button-response-esp","69","372567","0.0-11.0-0.29","4080","Ez itt egy szanéj. Elneveztem a kutyámat...","0","szanéjnek","[""szanéjnek"",""szanéjnak""]","szanéjnak","esp trial","7","false"
"html-button-response","70","376078","0.0-11.0-1.29","null","<p>A másik játékos ezt választotta: <b>szanéjnak</b>.</p><p>&#10060;</p><p>A válaszaitok <b>nem</b> egyeznek meg.</p>","null","","","","feedback trial","",""
"html-button-response-esp","71","379838","0.0-11.0-0.30","3139","Ez itt egy fupét. Nincs is jobb egy jó...","0","fupétnél","[""fupétnél"",""fupétnál""]","fupétnél","esp trial","7","true"
"html-button-response","72","383342","0.0-11.0-1.30","null","<p>A másik játékos ezt választotta: <b>fupétnél</b>.</p><p>&#x2705;</p><p>A te válaszod és a másik játékos válasza <b>megegyeznek</b>.</p>","null","","","","feedback trial","",""
"html-button-response-esp","73","387107","0.0-11.0-0.31","2610","Ez itt egy csublény. Ott vagyunk a...","1","csublényban","[""csublényben"",""csublényban""]","csublényban","esp trial","7","true"
"html-button-response","74","390626","0.0-11.0-1.31","null","<p>A másik játékos ezt választotta: <b>csublényban</b>.</p><p>&#x2705;</p><p>A te válaszod és a másik játékos válasza <b>megegyeznek</b>.</p>","null","","","","feedback trial","",""
"html-button-response-esp","75","394382","0.0-11.0-0.32","2837","Ez itt egy briskéd. Nincs is jobb egy jó...","0","briskédnél","[""briskédnél"",""briskédnál""]","briskédnél","esp trial","7","true"
"html-button-response","76","397905","0.0-11.0-1.32","null","<p>A másik játékos ezt választotta: <b>briskédnél</b>.</p><p>&#x2705;</p><p>A te válaszod és a másik játékos válasza <b>megegyeznek</b>.</p>","null","","","","feedback trial","",""
"html-button-response-esp","77","401669","0.0-11.0-0.33","2751","Ez itt egy humék. Elneveztem a kutyámat...","1","huméknek","[""huméknak"",""huméknek""]","huméknak","esp trial","7","false"
"html-button-response","78","405181","0.0-11.0-1.33","null","<p>A másik játékos ezt választotta: <b>huméknak</b>.</p><p>&#10060;</p><p>A válaszaitok <b>nem</b> egyeznek meg.</p>","null","","","","feedback trial","",""
"html-button-response-esp","79","408941","0.0-11.0-0.34","2680","Ez itt egy klítegy. Nincs is jobb egy jó...","0","klítegynél","[""klítegynél"",""klítegynál""]","klítegynél","esp trial","7","true"
"html-button-response","80","412450","0.0-11.0-1.34","null","<p>A másik játékos ezt választotta: <b>klítegynél</b>.</p><p>&#x2705;</p><p>A te válaszod és a másik játékos válasza <b>megegyeznek</b>.</p>","null","","","","feedback trial","",""
"html-button-response-esp","81","416205","0.0-11.0-0.35","2095","Ez itt egy hijegy. Nincs is jobb egy jó...","0","hijegynél","[""hijegynél"",""hijegynál""]","hijegynél","esp trial","7","true"
"html-button-response","82","419735","0.0-11.0-1.35","null","<p>A másik játékos ezt választotta: <b>hijegynél</b>.</p><p>&#x2705;</p><p>A te válaszod és a másik játékos válasza <b>megegyeznek</b>.</p>","null","","","","feedback trial","",""
"html-button-response-esp","83","423487","0.0-11.0-0.36","2343","Ez itt egy gábéd. Nincs is jobb egy jó...","0","gábédnél","[""gábédnél"",""gábédnál""]","gábédnál","esp trial","7","false"
"html-button-response","84","427012","0.0-11.0-1.36","null","<p>A másik játékos ezt választotta: <b>gábédnál</b>.</p><p>&#10060;</p><p>A válaszaitok <b>nem</b> egyeznek meg.</p>","null","","","","feedback trial","",""
"html-button-response-esp","85","430760","0.0-11.0-0.37","3245","Ez itt egy pristél. Ott vagyunk a...","0","pristélben","[""pristélben"",""pristélban""]","pristélben","esp trial","7","true"
"html-button-response","86","434273","0.0-11.0-1.37","null","<p>A másik játékos ezt választotta: <b>pristélben</b>.</p><p>&#x2705;</p><p>A te válaszod és a másik játékos válasza <b>megegyeznek</b>.</p>","null","","","","feedback trial","",""
"html-button-response-esp","87","438268","0.0-11.0-0.38","3483","Ez itt egy csodeg. Nincs is jobb egy jó...","1","csodegnél","[""csodegnál"",""csodegnél""]","csodegnél","esp trial","7","true"
"html-button-response","88","441780","0.0-11.0-1.38","null","<p>A másik játékos ezt választotta: <b>csodegnél</b>.</p><p>&#x2705;</p><p>A te válaszod és a másik játékos válasza <b>megegyeznek</b>.</p>","null","","","","feedback trial","",""
"html-button-response-esp","89","473257","0.0-11.0-0.39","30970","Ez itt egy pazév. Nincs is jobb egy jó...","1","pazévnál","[""pazévnél"",""pazévnál""]","pazévnál","esp trial","7","true"
"html-button-response","90","476779","0.0-11.0-1.39","null","<p>A másik játékos ezt választotta: <b>pazévnál</b>.</p><p>&#x2705;</p><p>A te válaszod és a másik játékos válasza <b>megegyeznek</b>.</p>","null","","","","feedback trial","",""
"html-button-response-esp","91","494217","0.0-11.0-0.40","16933","Ez itt egy dibez. Ott vagyunk a...","1","dibezben","[""dibezban"",""dibezben""]","dibezben","esp trial","7","true"
"html-button-response","92","497741","0.0-11.0-1.40","null","<p>A másik játékos ezt választotta: <b>dibezben</b>.</p><p>&#x2705;</p><p>A te válaszod és a másik játékos válasza <b>megegyeznek</b>.</p>","null","","","","feedback trial","",""
"html-button-response-esp","93","501495","0.0-11.0-0.41","2283","Ez itt egy hosét. Elneveztem a kutyámat...","0","hosétnak","[""hosétnak"",""hosétnek""]","hosétnak","esp trial","7","true"
"html-button-response","94","505014","0.0-11.0-1.41","null","<p>A másik játékos ezt választotta: <b>hosétnak</b>.</p><p>&#x2705;</p><p>A te válaszod és a másik játékos válasza <b>megegyeznek</b>.</p>","null","","","","feedback trial","",""
"html-button-response-esp","95","508768","0.0-11.0-0.42","2297","Ez itt egy fágyép. Nincs is jobb egy jó...","1","fágyépnél","[""fágyépnál"",""fágyépnél""]","fágyépnál","esp trial","7","false"
"html-button-response","96","512283","0.0-11.0-1.42","null","<p>A másik játékos ezt választotta: <b>fágyépnál</b>.</p><p>&#10060;</p><p>A válaszaitok <b>nem</b> egyeznek meg.</p>","null","","","","feedback trial","",""
"html-button-response-esp","97","516054","0.0-11.0-0.43","3050","Ez itt egy zuten. Nincs is jobb egy jó...","1","zutennél","[""zutennál"",""zutennél""]","zutennél","esp trial","7","true"
"html-button-response","98","519578","0.0-11.0-1.43","null","<p>A másik játékos ezt választotta: <b>zutennél</b>.</p><p>&#x2705;</p><p>A te válaszod és a másik játékos válasza <b>megegyeznek</b>.</p>","null","","","","feedback trial","",""
"html-button-response-esp","99","523327","0.0-11.0-0.44","3036","Ez itt egy zatéj. Nincs is jobb egy jó...","0","zatéjnál","[""zatéjnál"",""zatéjnél""]","zatéjnél","esp trial","7","false"
"html-button-response","100","526851","0.0-11.0-1.44","null","<p>A másik játékos ezt választotta: <b>zatéjnél</b>.</p><p>&#10060;</p><p>A válaszaitok <b>nem</b> egyeznek meg.</p>","null","","","","feedback trial","",""
"html-button-response-esp","101","530616","0.0-11.0-0.45","2341","Ez itt egy klajrén. Elneveztem a kutyámat...","0","klajrénnek","[""klajrénnek"",""klajrénnak""]","klajrénnak","esp trial","7","false"
"html-button-response","102","534142","0.0-11.0-1.45","null","<p>A másik játékos ezt választotta: <b>klajrénnak</b>.</p><p>&#10060;</p><p>A válaszaitok <b>nem</b> egyeznek meg.</p>","null","","","","feedback trial","",""
"html-button-response-esp","103","537897","0.0-11.0-0.46","2749","Ez itt egy dóbem. Elneveztem a kutyámat...","1","dóbemnek","[""dóbemnak"",""dóbemnek""]","dóbemnek","esp trial","7","true"
"html-button-response","104","541406","0.0-11.0-1.46","null","<p>A másik játékos ezt választotta: <b>dóbemnek</b>.</p><p>&#x2705;</p><p>A te válaszod és a másik játékos válasza <b>megegyeznek</b>.</p>","null","","","","feedback trial","",""
"html-button-response-esp","105","548381","0.0-11.0-0.47","6471","Ez itt egy trodély. Ott vagyunk a...","1","trodélyban","[""trodélyben"",""trodélyban""]","trodélyban","esp trial","7","true"
"html-button-response","106","551905","0.0-11.0-1.47","null","<p>A másik játékos ezt választotta: <b>trodélyban</b>.</p><p>&#x2705;</p><p>A te válaszod és a másik játékos válasza <b>megegyeznek</b>.</p>","null","","","","feedback trial","",""
"html-button-response-esp","107","555925","0.0-11.0-0.48","3515","Ez itt egy dutec. Nincs is jobb egy jó...","0","dutecnél","[""dutecnél"",""dutecnál""]","dutecnél","esp trial","7","true"
"html-button-response","108","559440","0.0-11.0-1.48","null","<p>A másik játékos ezt választotta: <b>dutecnél</b>.</p><p>&#x2705;</p><p>A te válaszod és a másik játékos válasza <b>megegyeznek</b>.</p>","null","","","","feedback trial","",""
"html-button-response-esp","109","563828","0.0-11.0-0.49","3875","Ez itt egy jurdent. Nincs is jobb egy jó...","1","jurdentnél","[""jurdentnál"",""jurdentnél""]","jurdentnél","esp trial","7","true"
"html-button-response","110","567345","0.0-11.0-1.49","null","<p>A másik játékos ezt választotta: <b>jurdentnél</b>.</p><p>&#x2705;</p><p>A te válaszod és a másik játékos válasza <b>megegyeznek</b>.</p>","null","","","","feedback trial","",""
"html-button-response-esp","111","571536","0.0-11.0-0.50","3677","Ez itt egy vurnel. Elneveztem a kutyámat...","0","vurnelnek","[""vurnelnek"",""vurnelnak""]","vurnelnek","esp trial","7","true"
"html-button-response","112","575051","0.0-11.0-1.50","null","<p>A másik játékos ezt választotta: <b>vurnelnek</b>.</p><p>&#x2705;</p><p>A te válaszod és a másik játékos válasza <b>megegyeznek</b>.</p>","null","","","","feedback trial","",""
"html-button-response-esp","113","578798","0.0-11.0-0.51","2568","Ez itt egy vodec. Nincs is jobb egy jó...","1","vodecnál","[""vodecnél"",""vodecnál""]","vodecnél","esp trial","7","false"
"html-button-response","114","582319","0.0-11.0-1.51","null","<p>A másik játékos ezt választotta: <b>vodecnél</b>.</p><p>&#10060;</p><p>A válaszaitok <b>nem</b> egyeznek meg.</p>","null","","","","feedback trial","",""
"html-button-response-esp","115","586075","0.0-11.0-0.52","2542","Ez itt egy bingéj. Elneveztem a kutyámat...","1","bingéjnek","[""bingéjnak"",""bingéjnek""]","bingéjnek","esp trial","7","true"
"html-button-response","116","589604","0.0-11.0-1.52","null","<p>A másik játékos ezt választotta: <b>bingéjnek</b>.</p><p>&#x2705;</p><p>A te válaszod és a másik játékos válasza <b>megegyeznek</b>.</p>","null","","","","feedback trial","",""
"html-button-response-esp","117","593357","0.0-11.0-0.53","2582","Ez itt egy lijez. Elneveztem a kutyámat...","1","lijeznek","[""lijeznak"",""lijeznek""]","lijeznek","esp trial","7","true"
"html-button-response","118","596864","0.0-11.0-1.53","null","<p>A másik játékos ezt választotta: <b>lijeznek</b>.</p><p>&#x2705;</p><p>A te válaszod és a másik játékos válasza <b>megegyeznek</b>.</p>","null","","","","feedback trial","",""
"html-button-response","119","605391","0.0-12.0","8014","<p>A közös játék most véget ért.</p><p>Mielőtt eláruljuk a végső pontszámodat, arra kérlek, játszd a szóválasztós játékot néhány percig egyedül is.</p><p>A feladatod ugyanaz lesz, választani két lehetőség közül.</p><p>Most viszont egyedül kell döntened, hogy te melyiket választanád.</p>","0","","","","","",""
"html-button-response-clever","120","609702","0.0-13.0-0.0","3798","Ez itt egy gicéj. Nincs is jobb egy jó...","0","gicéjnél","[""gicéjnél"",""gicéjnál""]","","posttest trial","8",""
"html-button-response-clever","121","617140","0.0-13.0-0.1","6925","Ez itt egy licegy. Ott vagyunk a...","1","licegyban","[""licegyben"",""licegyban""]","","posttest trial","8",""
"html-button-response-clever","122","624637","0.0-13.0-0.2","6992","Ez itt egy jábéz. Ott vagyunk a...","1","jábézban","[""jábézben"",""jábézban""]","","posttest trial","8",""
"html-button-response-clever","123","627261","0.0-13.0-0.3","2118","Ez itt egy hóbens. Ott vagyunk a...","1","hóbensben","[""hóbensban"",""hóbensben""]","","posttest trial","8",""
"html-button-response-clever","124","630039","0.0-13.0-0.4","2262","Ez itt egy prately. Elneveztem a kutyámat...","1","pratelynek","[""pratelynak"",""pratelynek""]","","posttest trial","8",""
"html-button-response-clever","125","633562","0.0-13.0-0.5","3019","Ez itt egy jalrény. Nincs is jobb egy jó...","0","jalrénynél","[""jalrénynél"",""jalrénynál""]","","posttest trial","8",""
"html-button-response-clever","126","636608","0.0-13.0-0.6","2539","Ez itt egy trigenc. Elneveztem a kutyámat...","1","trigencnek","[""trigencnak"",""trigencnek""]","","posttest trial","8",""
"html-button-response-clever","127","639006","0.0-13.0-0.7","1885","Ez itt egy bidem. Ott vagyunk a...","1","bidemben","[""bidemban"",""bidemben""]","","posttest trial","8",""
"html-button-response-clever","128","641857","0.0-13.0-0.8","2337","Ez itt egy nyarcéj. Elneveztem a kutyámat...","1","nyarcéjnek","[""nyarcéjnak"",""nyarcéjnek""]","","posttest trial","8",""
"html-button-response-clever","129","644420","0.0-13.0-0.9","2056","Ez itt egy dingec. Elneveztem a kutyámat...","0","dingecnek","[""dingecnek"",""dingecnak""]","","posttest trial","8",""
"html-button-response-clever","130","647518","0.0-13.0-0.10","2594","Ez itt egy hivép. Ott vagyunk a...","1","hivépban","[""hivépben"",""hivépban""]","","posttest trial","8",""
"html-button-response-clever","131","653154","0.0-13.0-0.11","5130","Ez itt egy vodép. Elneveztem a kutyámat...","0","vodépnak","[""vodépnak"",""vodépnek""]","","posttest trial","8",""
"html-button-response-clever","132","658688","0.0-13.0-0.12","5030","Ez itt egy kluhéj. Nincs is jobb egy jó...","0","kluhéjnél","[""kluhéjnél"",""kluhéjnál""]","","posttest trial","8",""
"html-button-response-clever","133","661420","0.0-13.0-0.13","2226","Ez itt egy szutend. Ott vagyunk a...","1","szutendban","[""szutendben"",""szutendban""]","","posttest trial","8",""
"html-button-response-clever","134","665057","0.0-13.0-0.14","3130","Ez itt egy nidét. Ott vagyunk a...","0","nidétben","[""nidétben"",""nidétban""]","","posttest trial","8",""
"html-button-response-clever","135","667890","0.0-13.0-0.15","2322","Ez itt egy csartény. Elneveztem a kutyámat...","1","csarténynek","[""csarténynak"",""csarténynek""]","","posttest trial","8",""
"html-button-response-clever","136","670534","0.0-13.0-0.16","2133","Ez itt egy szihét. Elneveztem a kutyámat...","0","szihétnek","[""szihétnek"",""szihétnak""]","","posttest trial","8",""
"html-button-response-clever","137","672922","0.0-13.0-0.17","1887","Ez itt egy csimen. Nincs is jobb egy jó...","1","csimennél","[""csimennál"",""csimennél""]","","posttest trial","8",""
"html-button-response-clever","138","675910","0.0-13.0-0.18","2475","Ez itt egy vublet. Nincs is jobb egy jó...","1","vubletnál","[""vubletnél"",""vubletnál""]","","posttest trial","8",""
"html-button-response-clever","139","678513","0.0-13.0-0.19","2091","Ez itt egy júder. Elneveztem a kutyámat...","0","júdernek","[""júdernek"",""júdernak""]","","posttest trial","8",""
"html-button-response-clever","140","680979","0.0-13.0-0.20","1959","Ez itt egy lismév. Ott vagyunk a...","1","lismévben","[""lismévban"",""lismévben""]","","posttest trial","8",""
"html-button-response-clever","141","683695","0.0-13.0-0.21","2210","Ez itt egy kadér. Nincs is jobb egy jó...","1","kadérnél","[""kadérnál"",""kadérnél""]","","posttest trial","8",""
"html-button-response-clever","142","686781","0.0-13.0-0.22","2579","Ez itt egy sprízem. Nincs is jobb egy jó...","1","sprízemnál","[""sprízemnél"",""sprízemnál""]","","posttest trial","8",""
"html-button-response-clever","143","693338","0.0-13.0-0.23","6048","Ez itt egy tránély. Elneveztem a kutyámat...","1","tránélynek","[""tránélynak"",""tránélynek""]","","posttest trial","8",""
"html-button-response-clever","144","695904","0.0-13.0-0.24","2055","Ez itt egy spáten. Elneveztem a kutyámat...","0","spátennek","[""spátennek"",""spátennak""]","","posttest trial","8",""
"html-button-response-clever","145","698292","0.0-13.0-0.25","1875","Ez itt egy ronvet. Elneveztem a kutyámat...","1","ronvetnak","[""ronvetnek"",""ronvetnak""]","","posttest trial","8",""
"html-button-response-clever","146","705077","0.0-13.0-0.26","6274","Ez itt egy matéz. Ott vagyunk a...","0","matézban","[""matézban"",""matézben""]","","posttest trial","8",""
"html-button-response-clever","147","707965","0.0-13.0-0.27","2373","Ez itt egy giheszt. Elneveztem a kutyámat...","0","gihesztnek","[""gihesztnek"",""gihesztnak""]","","posttest trial","8",""
"html-button-response-clever","148","712128","0.0-13.0-0.28","3655","Ez itt egy klordény. Elneveztem a kutyámat...","0","klordénynek","[""klordénynek"",""klordénynak""]","","posttest trial","8",""
"html-button-response-clever","149","714761","0.0-13.0-0.29","2131","Ez itt egy zsopéd. Ott vagyunk a...","1","zsopédban","[""zsopédben"",""zsopédban""]","","posttest trial","8",""
"html-button-response-clever","150","717306","0.0-13.0-0.30","2039","Ez itt egy trapszegy. Nincs is jobb egy jó...","1","trapszegynél","[""trapszegynál"",""trapszegynél""]","","posttest trial","8",""
"html-button-response-clever","151","719929","0.0-13.0-0.31","2110","Ez itt egy brotes. Ott vagyunk a...","1","brotesben","[""brotesban"",""brotesben""]","","posttest trial","8",""
"html-button-response-clever","152","721950","0.0-13.0-0.32","1506","Ez itt egy buhény. Ott vagyunk a...","1","buhényben","[""buhényban"",""buhényben""]","","posttest trial","8",""
"html-button-response-clever","153","725055","0.0-13.0-0.33","2601","Ez itt egy brágéd. Elneveztem a kutyámat...","1","brágédnek","[""brágédnak"",""brágédnek""]","","posttest trial","8",""
"html-button-response-clever","154","727910","0.0-13.0-0.34","2351","Ez itt egy brigeszt. Elneveztem a kutyámat...","0","brigesztnek","[""brigesztnek"",""brigesztnak""]","","posttest trial","8",""
"html-button-response-clever","155","731036","0.0-13.0-0.35","2609","Ez itt egy gótem. Elneveztem a kutyámat...","0","gótemnek","[""gótemnek"",""gótemnak""]","","posttest trial","8",""
"html-button-response-clever","156","733957","0.0-13.0-0.36","2410","Ez itt egy trincseg. Ott vagyunk a...","0","trincsegben","[""trincsegben"",""trincsegban""]","","posttest trial","8",""
"html-button-response-clever","157","736532","0.0-13.0-0.37","2068","Ez itt egy jorzég. Elneveztem a kutyámat...","1","jorzégnek","[""jorzégnak"",""jorzégnek""]","","posttest trial","8",""
"html-button-response-clever","158","739118","0.0-13.0-0.38","2077","Ez itt egy kábesz. Nincs is jobb egy jó...","1","kábesznél","[""kábesznál"",""kábesznél""]","","posttest trial","8",""
"html-button-response-clever","159","741582","0.0-13.0-0.39","1959","Ez itt egy csinték. Ott vagyunk a...","1","csintékben","[""csintékban"",""csintékben""]","","posttest trial","8",""
"html-button-response-clever","160","744433","0.0-13.0-0.40","2344","Ez itt egy forzéd. Elneveztem a kutyámat...","0","forzédnek","[""forzédnek"",""forzédnak""]","","posttest trial","8",""
"html-button-response-clever","161","748355","0.0-13.0-0.41","3415","Ez itt egy sartely. Ott vagyunk a...","1","sartelyben","[""sartelyban"",""sartelyben""]","","posttest trial","8",""
"html-button-response-clever","162","752005","0.0-13.0-0.42","3145","Ez itt egy fincek. Nincs is jobb egy jó...","0","finceknél","[""finceknél"",""finceknál""]","","posttest trial","8",""
"html-button-response-clever","163","755283","0.0-13.0-0.43","2772","Ez itt egy brukész. Nincs is jobb egy jó...","1","brukésznál","[""brukésznél"",""brukésznál""]","","posttest trial","8",""
"html-button-response-clever","164","757876","0.0-13.0-0.44","2087","Ez itt egy nyábét. Ott vagyunk a...","1","nyábétben","[""nyábétban"",""nyábétben""]","","posttest trial","8",""
"html-button-response-clever","165","760068","0.0-13.0-0.45","1688","Ez itt egy navec. Ott vagyunk a...","1","navecben","[""navecban"",""navecben""]","","posttest trial","8",""
"html-button-response-clever","166","763414","0.0-13.0-0.46","2839","Ez itt egy gonszék. Nincs is jobb egy jó...","0","gonszéknál","[""gonszéknál"",""gonszéknél""]","","posttest trial","8",""
"html-button-response-clever","167","766009","0.0-13.0-0.47","2087","Ez itt egy bródesz. Elneveztem a kutyámat...","0","bródesznek","[""bródesznek"",""bródesznak""]","","posttest trial","8",""
"html-button-response-clever","168","768435","0.0-13.0-0.48","1917","Ez itt egy fádens. Elneveztem a kutyámat...","1","fádensnek","[""fádensnak"",""fádensnek""]","","posttest trial","8",""
"html-button-response-clever","169","771444","0.0-13.0-0.49","2492","Ez itt egy priszkenc. Elneveztem a kutyámat...","1","priszkencnek","[""priszkencnak"",""priszkencnek""]","","posttest trial","8",""
"html-button-response-clever","170","774054","0.0-13.0-0.50","2098","Ez itt egy kliszer. Nincs is jobb egy jó...","1","kliszernél","[""kliszernál"",""kliszernél""]","","posttest trial","8",""
"html-button-response-clever","171","779464","0.0-13.0-0.51","4906","Ez itt egy ikszert. Ott vagyunk a...","0","ikszertben","[""ikszertben"",""ikszertban""]","","posttest trial","8",""
"html-button-response-clever","172","782584","0.0-13.0-0.52","2614","Ez itt egy tranék. Ott vagyunk a...","1","tranékban","[""tranékben"",""tranékban""]","","posttest trial","8",""
"html-button-response-clever","173","785500","0.0-13.0-0.53","2410","Ez itt egy sporzem. Elneveztem a kutyámat...","1","sporzemnek","[""sporzemnak"",""sporzemnek""]","","posttest trial","8",""
"html-button-response","174","789446","0.0-14.0","3431","<p> Vége a játéknak. A teljes pontszámod 37/54.</p><p> Szép munka! &#128526;&#128526;&#128526;</p><p>A Befejezés gomb megnyomása után bezárhatod a böngészőablakot.</p>","0","","","","","",""
"html-keyboard-response","175","794956","0.0-15.0","null","<div class=""message"">
         <p>Egy kis türelmet kérünk, amíg elmentjük az adatokat...</p>
         </div>","null","","","","","",""
