"trial_type","trial_index","time_elapsed","internal_node_id","rt","stimulus","response","response_string","choices","esp_response","trial_kind","list_number","esp_match"
"pavlovia","0","863","0.0-0.0","","","","","","","","",""
"html-button-response","1","5964","0.0-1.0","4596","<p>Kedves Résztvevő! A Budapesti Műszaki és Gazdaságtudományi Egyetem Kognitív Tudományi Tanszékének kutatásában való részvételed kérjük. A kutatásban azt vizsgáljuk, hogy a magyar anyanyelvűek hogyan használnak bizonyos szóalakokat, és hogy milyen képük van arról, hogy mások hogyan használják, hogyan képzik a szavakat. Ez hozzásegít bennünket ahhoz, hogy jobban megértsük, hogyan dolgozza fel és tárolja a nyelvet az emberi agy, és hogyan működnek, hogyan változnak egy adott közösség nyelvi konvenciói.</p><p>A vizsgálat egy rövid számítógépes feladatból fog állni. A kutatásban való részvétel önkéntes, a részvételi szándék bármikor visszavonható. A résztvevők eredményeit név nélkül kezeljük, így nem beazonosíthatók az adatok feldolgozása során. Minden személyes adatot az EU általános adatvédelmi rendeletének (GDPR) megfelelően kezelünk és legfeljebb öt éven belül megsemmisítünk. A vizsgálat jellemzően húsz percet vesz igénybe.</p><p>Kutatásvezető:</p><p>Dr. Rácz Péter, tudományos munkatárs, BME KTT</p><p>e-mail: racz.peter.marton@ttk.bme.hu</p>","0","","","","","",""
"html-button-response","2","78244","0.0-2.0","71773","<p>A kísérletben szavakat fogsz látni. Ezek között lesznek olyanok, amelyeket ismersz, de előfordulhatnak olyanok is, amelyeket nem ismersz, sőt, vannak köztük kitalált szavak is. Minden szónál látni fogsz toldalékolt alakokat. A te feladatod az lesz, hogy minden szóhoz kiválaszd azt a toldalékolt alakot, amely a te számodra ismerősebben, természetesebben hangzik. Rossz válaszok nincsenek, mert van olyan, hogy különböző embereknek más és más szó tűnik jobb választásnak. A választ úgy tudod majd kiválasztani, ha rákattintasz.</p><p>Ebben a szóválasztós játékban egy másik játékossal együtt veszel majd részt. A másik játékos is minden esetben azok közül a lehetőségek közül válogathat, mint te. Kettőtök feladata az, hogy ugyanazt a lehetőséget válasszátok minden esetben. Ahhoz, hogy ez sikerüljön, neked figyelned kell arra, hogy a másik játékos milyen válaszokat ad, és ennek alapján meg kell tippelned, hogyan választ legközelebb. Ha eltalálod, akkor pontot kapsz.</p>","0","","","","","",""
"html-button-response","3","85623","0.0-3.0","6874","<p>Kérjük, olvasd el az alábbi nyilatkozatot, és amennyiben egyetértesz vele, nyomj a Beleegyezés gombra!</p><p>Kijelentem, hogy magyar anyanyelvű személyként önként veszek részt a BME KTT kísérletében. A kutatás céljával és folyamatával kapcsolatban elegendő tájékoztatást kaptam, lehetőségem volt kérdések feltételére, és esetleges kérdéseimre megfelelő válaszokat kaptam. A tájékoztatás alapján elegendő mennyiségű információ áll a rendelkezésemre, hogy eldönthessem, részt kívánok-e venni a kutatásban.</p><p>Tisztában vagyok vele, hogy részvételi szándékomat és adataimat bármikor, indoklás nélkül visszavonhatom.</p><p>Értem és tudomásul veszem, hogy a kutatás tudományos célokat szolgál, és az általam szolgáltatott adatokat a BME kizárólag kutatási célból használja fel. Tudomásul veszem, hogy eredményeimet a többi résztvevő eredményeivel együtt kezelik, így egyéni teljesítményemről visszajelzést, szakvéleményt nem kapok.</p><p>Megértettem, hogy adataim kezelését illetően a BME az EU általános adatvédelmi rendelete (GDPR), a hatályos adatvédelmi törvény és a nemzetközi kutatás-etikai alapelvek szerint jár el. Eredményeim anonim módon kerülnek feldolgozásra, és a kutatás résztvevői az azonosításomra alkalmas adataimat harmadik félnek nem szolgáltatják ki. Engedélyezem a BME számára a jelen kutatásban felvett adataim feldolgozását és tárolását, beleértve azok későbbi kutatásokhoz való felhasználását is. Személyes adataim kezelésével kapcsolatban tájékoztatást kérhetek a kutatás résztvevőitől, az adatkezelés ellen tiltakozhatok, kérhetem személyes adataim helyesbítését, törlését vagy zárolását, valamint jogorvoslatért a Nemzeti Adatvédelmi és Információszabadság Hatósághoz fordulhatok.</p><p>Kijelentem, hogy a kutatásban való részvételem körülményeiről részletes tájékoztatást kaptam, és a feltételeket elfogadom.</p>","0","","","","","",""
"survey-text","4","121462","0.0-4.0","35325","","{""Q0"":""LRIH41"",""Q1"":""férfi"",""Q2"":""2000"",""Q3"":""15""}","","","","","",""
"html-button-response","5","148181","0.0-5.0","26217","<p>Ebben a játékban szavakat kell toldalékolni.</p> <p>Minden körben mutatunk majd egy példamondatot, amiben lesz egy szó.</p> <p>Alatta jön egy második mondat, ezt a mondatot neked kell majd befejezni, ugyanezzel a szóval.</p> <p>Nem biztos, hogy a szó eleve ismerős lesz számodra!</p> <p>Minden mondathoz adunk két lehetőséget, ezeket balra és jobbra látod majd.</p> <p>A játék kb. negyedóráig-húsz percig tart.</p>","0","","","","","",""
"html-button-response","6","183058","0.0-6.0","34374","<p>Nézzünk egy példát!</p> <p>A példamondat: ""János imád fláramolni, ezért sokat fláramlik. Mi ritkán...""</p><p>Neked ezt a mondatot kell befejezned: ""Ti ritkán...""</p><p>A lehetőségek pedig ezek:</p>","1","","","","","",""
"html-button-response","7","191415","0.0-7.0","7854","<p>Nagyon jó.</p><p>Ezt a játékot nem egyedül fogod játszani, hanem egy másik játékossal.</p><p>Mielőtt továbblépünk, összekapcsolunk titeket egymással.</p><p>Ez igénybe vehet néhány másodpercet, amihez szíves türelmed kérjük.</p>","0","","","","","",""
"html-button-response","8","197143","0.0-8.0","null","<p>Csatlakozás a másik játékoshoz...</p>","null","","","","","",""
"html-button-response","9","199647","0.0-9.0","null","<p> Sikeres kapcsolódás!</p>","null","","","","","",""
"html-button-response","10","207826","0.0-10.0","7677","<p>A következőkben ketten játsszátok a szóválasztós játékot.</p><p>A feladatotok az lesz, hogy minden körben <b>ugyanazt</b> a szót válasszátok.</p><p>Minden ilyen egyező válaszért pontot kaptok.</p><p>Próbáld meg kitalálni, mit választ a másik játékos!</p><p>Bármikor választhatsz, a körnek akkor van vége, ha mindketten döntöttetek.</p><p>Sok sikert!</p>","0","","","","","",""
"html-button-response-esp","11","218349","0.0-11.0-0.0","10013","János imád sprűrözni, ezért sokat sprűrlik. Ők ritkán...","0","sprűrlenek","[""sprűrlenek"",""sprűröznek""]","sprűrlenek","esp trial","5","true"
"html-button-response","12","221855","0.0-11.0-1.0","null","<p>A másik játékos ezt választotta: <b>sprűrlenek</b>.</p><p>&#x2705;</p><p>A te válaszod és a másik játékos válasza <b>megegyeznek</b>.</p>","null","","","","feedback trial","",""
"html-button-response-esp","13","240882","0.0-11.0-0.1","18522","János imád mülőrözni, ezért sokat mülőrzik. Mi ritkán...","1","mülőrzünk","[""mülőrözünk"",""mülőrzünk""]","mülőrzünk","esp trial","5","true"
"html-button-response","14","244387","0.0-11.0-1.1","null","<p>A másik játékos ezt választotta: <b>mülőrzünk</b>.</p><p>&#x2705;</p><p>A te válaszod és a másik játékos válasza <b>megegyeznek</b>.</p>","null","","","","feedback trial","",""
"html-button-response-esp","15","262033","0.0-11.0-0.2","17142","János imád dujozni, ezért sokat dujzik. Ők ritkán...","0","dujzanak","[""dujzanak"",""dujoznak""]","dujzanak","esp trial","5","true"
"html-button-response","16","265538","0.0-11.0-1.2","null","<p>A másik játékos ezt választotta: <b>dujzanak</b>.</p><p>&#x2705;</p><p>A te válaszod és a másik játékos válasza <b>megegyeznek</b>.</p>","null","","","","feedback trial","",""
"html-button-response-esp","17","289977","0.0-11.0-0.3","23935","János imád flemezni, ezért sokat flemlik. Mi ritkán...","1","flemlünk","[""flemezünk"",""flemlünk""]","flemezünk","esp trial","5","false"
"html-button-response","18","293481","0.0-11.0-1.3","null","<p>A másik játékos ezt választotta: <b>flemezünk</b>.</p><p>&#10060;</p><p>A válaszaitok <b>nem</b> egyeznek meg.</p>","null","","","","feedback trial","",""
"html-button-response-esp","19","306926","0.0-11.0-0.4","12941","János imád lájozni, ezért sokat lájzik. Ti ritkán...","0","lájzotok","[""lájzotok"",""lájoztok""]","lájzotok","esp trial","5","true"
"html-button-response","20","310430","0.0-11.0-1.4","null","<p>A másik játékos ezt választotta: <b>lájzotok</b>.</p><p>&#x2705;</p><p>A te válaszod és a másik játékos válasza <b>megegyeznek</b>.</p>","null","","","","feedback trial","",""
"html-button-response-esp","21","320299","0.0-11.0-0.5","9365","János imád virozni, ezért sokat virzik. Ők ritkán...","1","viroznak","[""virzanak"",""viroznak""]","virzanak","esp trial","5","false"
"html-button-response","22","323804","0.0-11.0-1.5","null","<p>A másik játékos ezt választotta: <b>virzanak</b>.</p><p>&#10060;</p><p>A válaszaitok <b>nem</b> egyeznek meg.</p>","null","","","","feedback trial","",""
"html-button-response-esp","23","334340","0.0-11.0-0.6","10033","János imád brülösözni, ezért sokat brülöslik. Mi ritkán...","0","brülöslünk","[""brülöslünk"",""brülösözünk""]","brülöslünk","esp trial","5","true"
"html-button-response","24","337845","0.0-11.0-1.6","null","<p>A másik játékos ezt választotta: <b>brülöslünk</b>.</p><p>&#x2705;</p><p>A te válaszod és a másik játékos válasza <b>megegyeznek</b>.</p>","null","","","","feedback trial","",""
"html-button-response-esp","25","348082","0.0-11.0-0.7","9735","János imád spügözni, ezért sokat spügzik. Mi ritkán...","0","spügözünk","[""spügözünk"",""spügzünk""]","spügzünk","esp trial","5","false"
"html-button-response","26","351587","0.0-11.0-1.7","null","<p>A másik játékos ezt választotta: <b>spügzünk</b>.</p><p>&#10060;</p><p>A válaszaitok <b>nem</b> egyeznek meg.</p>","null","","","","feedback trial","",""
"html-button-response-esp","27","363030","0.0-11.0-0.8","10940","János imád trivakodni, ezért sokat trivakszik. Mi ritkán...","0","trivakszunk","[""trivakszunk"",""trivakodunk""]","trivakszunk","esp trial","5","true"
"html-button-response","28","366535","0.0-11.0-1.8","null","<p>A másik játékos ezt választotta: <b>trivakszunk</b>.</p><p>&#x2705;</p><p>A te válaszod és a másik játékos válasza <b>megegyeznek</b>.</p>","null","","","","feedback trial","",""
"html-button-response-esp","29","382220","0.0-11.0-0.9","15182","János imád dárakodni, ezért sokat dárakszik. Mi ritkán...","0","dárakodunk","[""dárakodunk"",""dárakszunk""]","dárakszunk","esp trial","5","false"
"html-button-response","30","385724","0.0-11.0-1.9","null","<p>A másik játékos ezt választotta: <b>dárakszunk</b>.</p><p>&#10060;</p><p>A válaszaitok <b>nem</b> egyeznek meg.</p>","null","","","","feedback trial","",""
"html-button-response-esp","31","400282","0.0-11.0-0.10","14056","János imád püzözni, ezért sokat püzlik. Ti ritkán...","1","püzlötök","[""püzöztök"",""püzlötök""]","püzlötök","esp trial","5","true"
"html-button-response","32","403786","0.0-11.0-1.10","null","<p>A másik játékos ezt választotta: <b>püzlötök</b>.</p><p>&#x2705;</p><p>A te válaszod és a másik játékos válasza <b>megegyeznek</b>.</p>","null","","","","feedback trial","",""
"html-button-response-esp","33","412180","0.0-11.0-0.11","7682","János imád spirágozni, ezért sokat spiráglik. Ti ritkán...","1","spiráglotok","[""spirágoztok"",""spiráglotok""]","spirágoztok","esp trial","5","false"
"html-button-response","34","415684","0.0-11.0-1.11","null","<p>A másik játékos ezt választotta: <b>spirágoztok</b>.</p><p>&#10060;</p><p>A válaszaitok <b>nem</b> egyeznek meg.</p>","null","","","","feedback trial","",""
"html-button-response-esp","35","426461","0.0-11.0-0.12","10275","János imád gihejezni, ezért sokat gihejlik. Mi ritkán...","1","gihejlünk","[""gihejezünk"",""gihejlünk""]","gihejlünk","esp trial","5","true"
"html-button-response","36","429965","0.0-11.0-1.12","null","<p>A másik játékos ezt választotta: <b>gihejlünk</b>.</p><p>&#x2705;</p><p>A te válaszod és a másik játékos válasza <b>megegyeznek</b>.</p>","null","","","","feedback trial","",""
"html-button-response-esp","37","438359","0.0-11.0-0.13","4962","János imád dilakozni, ezért sokat dilaklik. Ti ritkán...","0","dilakoztok","[""dilakoztok"",""dilaklotok""]","dilakoztok","esp trial","5","true"
"html-button-response","38","441863","0.0-11.0-1.13","null","<p>A másik játékos ezt választotta: <b>dilakoztok</b>.</p><p>&#x2705;</p><p>A te válaszod és a másik játékos válasza <b>megegyeznek</b>.</p>","null","","","","feedback trial","",""
"html-button-response-esp","39","450686","0.0-11.0-0.14","8320","János imád pragányozni, ezért sokat pragánylik. Ti ritkán...","0","pragánylotok","[""pragánylotok"",""pragányoztok""]","pragánylotok","esp trial","5","true"
"html-button-response","40","454190","0.0-11.0-1.14","null","<p>A másik játékos ezt választotta: <b>pragánylotok</b>.</p><p>&#x2705;</p><p>A te válaszod és a másik játékos válasza <b>megegyeznek</b>.</p>","null","","","","feedback trial","",""
"html-button-response-esp","41","462584","0.0-11.0-0.15","5956","János imád köszözni, ezért sokat köszlik. Ti ritkán...","1","köszlötök","[""köszöztök"",""köszlötök""]","köszöztök","esp trial","5","false"
"html-button-response","42","466088","0.0-11.0-1.15","null","<p>A másik játékos ezt választotta: <b>köszöztök</b>.</p><p>&#10060;</p><p>A válaszaitok <b>nem</b> egyeznek meg.</p>","null","","","","feedback trial","",""
"html-button-response-esp","43","474484","0.0-11.0-0.16","7321","János imád nyürözni, ezért sokat nyürzik. Ők ritkán...","1","nyüröznek","[""nyürzenek"",""nyüröznek""]","nyürzenek","esp trial","5","false"
"html-button-response","44","477988","0.0-11.0-1.16","null","<p>A másik játékos ezt választotta: <b>nyürzenek</b>.</p><p>&#10060;</p><p>A válaszaitok <b>nem</b> egyeznek meg.</p>","null","","","","feedback trial","",""
"html-button-response-esp","45","487192","0.0-11.0-0.17","8700","János imád bratározni, ezért sokat bratárzik. Ők ritkán...","1","bratárzanak","[""bratároznak"",""bratárzanak""]","bratároznak","esp trial","5","false"
"html-button-response","46","490696","0.0-11.0-1.17","null","<p>A másik játékos ezt választotta: <b>bratároznak</b>.</p><p>&#10060;</p><p>A válaszaitok <b>nem</b> egyeznek meg.</p>","null","","","","feedback trial","",""
"html-button-response-esp","47","499090","0.0-11.0-0.18","7017","János imád prélemezni, ezért sokat prélemlik. Ők ritkán...","0","prélemlenek","[""prélemlenek"",""prélemeznek""]","prélemlenek","esp trial","5","true"
"html-button-response","48","502594","0.0-11.0-1.18","null","<p>A másik játékos ezt választotta: <b>prélemlenek</b>.</p><p>&#x2705;</p><p>A te válaszod és a másik játékos válasza <b>megegyeznek</b>.</p>","null","","","","feedback trial","",""
"html-button-response-esp","49","516104","0.0-11.0-0.19","13007","János imád pilégedni, ezért sokat pilégszik. Ők ritkán...","0","pilégednek","[""pilégednek"",""pilégszenek""]","pilégszenek","esp trial","5","false"
"html-button-response","50","519608","0.0-11.0-1.19","null","<p>A másik játékos ezt választotta: <b>pilégszenek</b>.</p><p>&#10060;</p><p>A válaszaitok <b>nem</b> egyeznek meg.</p>","null","","","","feedback trial","",""
"html-button-response-esp","51","528001","0.0-11.0-0.20","7160","János imád branyozni, ezért sokat branylik. Ők ritkán...","1","branylanak","[""branyoznak"",""branylanak""]","branylanak","esp trial","5","true"
"html-button-response","52","531503","0.0-11.0-1.20","null","<p>A másik játékos ezt választotta: <b>branylanak</b>.</p><p>&#x2705;</p><p>A te válaszod és a másik játékos válasza <b>megegyeznek</b>.</p>","null","","","","feedback trial","",""
"html-button-response-esp","53","539897","0.0-11.0-0.21","4752","János imád frakozni, ezért sokat fraklik. Mi ritkán...","0","fraklunk","[""fraklunk"",""frakozunk""]","fraklunk","esp trial","5","true"
"html-button-response","54","543400","0.0-11.0-1.21","null","<p>A másik játékos ezt választotta: <b>fraklunk</b>.</p><p>&#x2705;</p><p>A te válaszod és a másik játékos válasza <b>megegyeznek</b>.</p>","null","","","","feedback trial","",""
"html-button-response-esp","55","551794","0.0-11.0-0.22","6250","János imád brözözni, ezért sokat brözlik. Ti ritkán...","0","brözöztök","[""brözöztök"",""brözlötök""]","brözlötök","esp trial","5","false"
"html-button-response","56","555299","0.0-11.0-1.22","null","<p>A másik játékos ezt választotta: <b>brözlötök</b>.</p><p>&#10060;</p><p>A válaszaitok <b>nem</b> egyeznek meg.</p>","null","","","","feedback trial","",""
"html-button-response-esp","57","570032","0.0-11.0-0.23","14230","János imád spiharozni, ezért sokat spiharzik. Ti ritkán...","0","spiharoztok","[""spiharoztok"",""spiharzotok""]","spiharoztok","esp trial","5","true"
"html-button-response","58","573536","0.0-11.0-1.23","null","<p>A másik játékos ezt választotta: <b>spiharoztok</b>.</p><p>&#x2705;</p><p>A te válaszod és a másik játékos válasza <b>megegyeznek</b>.</p>","null","","","","feedback trial","",""
"html-button-response-esp","59","583200","0.0-11.0-0.24","9161","János imád molodni, ezért sokat molszik. Ti ritkán...","1","molszotok","[""molodtok"",""molszotok""]","molszotok","esp trial","5","true"
"html-button-response","60","586704","0.0-11.0-1.24","null","<p>A másik játékos ezt választotta: <b>molszotok</b>.</p><p>&#x2705;</p><p>A te válaszod és a másik játékos válasza <b>megegyeznek</b>.</p>","null","","","","feedback trial","",""
"html-button-response-esp","61","606000","0.0-11.0-0.25","18794","János imád dabozni, ezért sokat dabzik. Ti ritkán...","1","daboztok","[""dabzotok"",""daboztok""]","dabzotok","esp trial","5","false"
"html-button-response","62","609504","0.0-11.0-1.25","null","<p>A másik játékos ezt választotta: <b>dabzotok</b>.</p><p>&#10060;</p><p>A válaszaitok <b>nem</b> egyeznek meg.</p>","null","","","","feedback trial","",""
"html-button-response-esp","63","618449","0.0-11.0-0.26","8443","János imád klehényezni, ezért sokat klehénylik. Ti ritkán...","0","klehényletek","[""klehényletek"",""klehényeztek""]","klehényletek","esp trial","5","true"
"html-button-response","64","621953","0.0-11.0-1.26","null","<p>A másik játékos ezt választotta: <b>klehényletek</b>.</p><p>&#x2705;</p><p>A te válaszod és a másik játékos válasza <b>megegyeznek</b>.</p>","null","","","","feedback trial","",""
"html-button-response-esp","65","631909","0.0-11.0-0.27","9453","János imád fröjözni, ezért sokat fröjzik. Ti ritkán...","1","fröjöztök","[""fröjzötök"",""fröjöztök""]","fröjöztök","esp trial","5","true"
"html-button-response","66","635412","0.0-11.0-1.27","null","<p>A másik játékos ezt választotta: <b>fröjöztök</b>.</p><p>&#x2705;</p><p>A te válaszod és a másik játékos válasza <b>megegyeznek</b>.</p>","null","","","","feedback trial","",""
"html-button-response-esp","67","643806","0.0-11.0-0.28","5453","János imád trugokozni, ezért sokat trugoklik. Ők ritkán...","1","trugokoznak","[""trugoklanak"",""trugokoznak""]","trugoklanak","esp trial","5","false"
"html-button-response","68","647310","0.0-11.0-1.28","null","<p>A másik játékos ezt választotta: <b>trugoklanak</b>.</p><p>&#10060;</p><p>A válaszaitok <b>nem</b> egyeznek meg.</p>","null","","","","feedback trial","",""
"html-button-response-esp","69","655704","0.0-11.0-0.29","6666","János imád csubozni, ezért sokat csubzik. Mi ritkán...","0","csubozunk","[""csubozunk"",""csubzunk""]","csubzunk","esp trial","5","false"
"html-button-response","70","659208","0.0-11.0-1.29","null","<p>A másik játékos ezt választotta: <b>csubzunk</b>.</p><p>&#10060;</p><p>A válaszaitok <b>nem</b> egyeznek meg.</p>","null","","","","feedback trial","",""
"html-button-response-esp","71","667602","0.0-11.0-0.30","7417","János imád nyivágozni, ezért sokat nyivágzik. Mi ritkán...","0","nyivágzunk","[""nyivágzunk"",""nyivágozunk""]","nyivágzunk","esp trial","5","true"
"html-button-response","72","671106","0.0-11.0-1.30","null","<p>A másik játékos ezt választotta: <b>nyivágzunk</b>.</p><p>&#x2705;</p><p>A te válaszod és a másik játékos válasza <b>megegyeznek</b>.</p>","null","","","","feedback trial","",""
"html-button-response-esp","73","679499","0.0-11.0-0.31","4490","János imád sprozozni, ezért sokat sprozlik. Ők ritkán...","0","sprozoznak","[""sprozoznak"",""sprozlanak""]","sprozlanak","esp trial","5","false"
"html-button-response","74","683003","0.0-11.0-1.31","null","<p>A másik játékos ezt választotta: <b>sprozlanak</b>.</p><p>&#10060;</p><p>A válaszaitok <b>nem</b> egyeznek meg.</p>","null","","","","feedback trial","",""
"html-button-response-esp","75","691397","0.0-11.0-0.32","5621","János imád frálasozni, ezért sokat frálaslik. Ők ritkán...","1","frálasoznak","[""frálaslanak"",""frálasoznak""]","frálaslanak","esp trial","5","false"
"html-button-response","76","694901","0.0-11.0-1.32","null","<p>A másik játékos ezt választotta: <b>frálaslanak</b>.</p><p>&#10060;</p><p>A válaszaitok <b>nem</b> egyeznek meg.</p>","null","","","","feedback trial","",""
"html-button-response-esp","77","703296","0.0-11.0-0.33","5237","János imád privékedni, ezért sokat privékszik. Ők ritkán...","1","privékszenek","[""privékednek"",""privékszenek""]","privékszenek","esp trial","5","true"
"html-button-response","78","706800","0.0-11.0-1.33","null","<p>A másik játékos ezt választotta: <b>privékszenek</b>.</p><p>&#x2705;</p><p>A te válaszod és a másik játékos válasza <b>megegyeznek</b>.</p>","null","","","","feedback trial","",""
"html-button-response-esp","79","715193","0.0-11.0-0.34","4225","János imád spibegezni, ezért sokat spibeglik. Mi ritkán...","0","spibegezünk","[""spibegezünk"",""spibeglünk""]","spibeglünk","esp trial","5","false"
"html-button-response","80","718697","0.0-11.0-1.34","null","<p>A másik játékos ezt választotta: <b>spibeglünk</b>.</p><p>&#10060;</p><p>A válaszaitok <b>nem</b> egyeznek meg.</p>","null","","","","feedback trial","",""
"html-button-response-esp","81","727094","0.0-11.0-0.35","7688","János imád drűrözni, ezért sokat drűrzik. Ők ritkán...","0","drűröznek","[""drűröznek"",""drűrzenek""]","drűröznek","esp trial","5","true"
"html-button-response","82","730598","0.0-11.0-1.35","null","<p>A másik játékos ezt választotta: <b>drűröznek</b>.</p><p>&#x2705;</p><p>A te válaszod és a másik játékos válasza <b>megegyeznek</b>.</p>","null","","","","feedback trial","",""
"html-button-response-esp","83","738993","0.0-11.0-0.36","3767","János imád kűdözni, ezért sokat kűdlik. Ők ritkán...","0","kűdöznek","[""kűdöznek"",""kűdlenek""]","kűdlenek","esp trial","5","false"
"html-button-response","84","742496","0.0-11.0-1.36","null","<p>A másik játékos ezt választotta: <b>kűdlenek</b>.</p><p>&#10060;</p><p>A válaszaitok <b>nem</b> egyeznek meg.</p>","null","","","","feedback trial","",""
"html-button-response-esp","85","750944","0.0-11.0-0.37","7945","János imád posozni, ezért sokat poslik. Ti ritkán...","1","posoztok","[""poslotok"",""posoztok""]","poslotok","esp trial","5","false"
"html-button-response","86","754448","0.0-11.0-1.37","null","<p>A másik játékos ezt választotta: <b>poslotok</b>.</p><p>&#10060;</p><p>A válaszaitok <b>nem</b> egyeznek meg.</p>","null","","","","feedback trial","",""
"html-button-response-esp","87","762842","0.0-11.0-0.38","5535","János imád flöközni, ezért sokat flöklik. Ti ritkán...","0","flöklötök","[""flöklötök"",""flököztök""]","flöklötök","esp trial","5","true"
"html-button-response","88","766345","0.0-11.0-1.38","null","<p>A másik játékos ezt választotta: <b>flöklötök</b>.</p><p>&#x2705;</p><p>A te válaszod és a másik játékos válasza <b>megegyeznek</b>.</p>","null","","","","feedback trial","",""
"html-button-response-esp","89","774740","0.0-11.0-0.39","6181","János imád lűközni, ezért sokat lűklik. Ők ritkán...","1","lűklenek","[""lűköznek"",""lűklenek""]","lűköznek","esp trial","5","false"
"html-button-response","90","778243","0.0-11.0-1.39","null","<p>A másik játékos ezt választotta: <b>lűköznek</b>.</p><p>&#10060;</p><p>A válaszaitok <b>nem</b> egyeznek meg.</p>","null","","","","feedback trial","",""
"html-button-response-esp","91","786637","0.0-11.0-0.40","6161","János imád trikozni, ezért sokat triklik. Ti ritkán...","1","triklotok","[""trikoztok"",""triklotok""]","triklotok","esp trial","5","true"
"html-button-response","92","790139","0.0-11.0-1.40","null","<p>A másik játékos ezt választotta: <b>triklotok</b>.</p><p>&#x2705;</p><p>A te válaszod és a másik játékos válasza <b>megegyeznek</b>.</p>","null","","","","feedback trial","",""
"html-button-response-esp","93","798533","0.0-11.0-0.41","5656","János imád sprudozni, ezért sokat sprudlik. Mi ritkán...","0","sprudlunk","[""sprudlunk"",""sprudozunk""]","sprudozunk","esp trial","5","false"
"html-button-response","94","802037","0.0-11.0-1.41","null","<p>A másik játékos ezt választotta: <b>sprudozunk</b>.</p><p>&#10060;</p><p>A válaszaitok <b>nem</b> egyeznek meg.</p>","null","","","","feedback trial","",""
"html-button-response-esp","95","815033","0.0-11.0-0.42","12493","János imád gyihegezni, ezért sokat gyihegzik. Ti ritkán...","0","gyihegzetek","[""gyihegzetek"",""gyihegeztek""]","gyihegeztek","esp trial","5","false"
"html-button-response","96","818537","0.0-11.0-1.42","null","<p>A másik játékos ezt választotta: <b>gyihegeztek</b>.</p><p>&#10060;</p><p>A válaszaitok <b>nem</b> egyeznek meg.</p>","null","","","","feedback trial","",""
"html-button-response-esp","97","826931","0.0-11.0-0.43","7125","János imád mágamozni, ezért sokat mágamlik. Mi ritkán...","1","mágamozunk","[""mágamlunk"",""mágamozunk""]","mágamlunk","esp trial","5","false"
"html-button-response","98","830435","0.0-11.0-1.43","null","<p>A másik játékos ezt választotta: <b>mágamlunk</b>.</p><p>&#10060;</p><p>A válaszaitok <b>nem</b> egyeznek meg.</p>","null","","","","feedback trial","",""
"html-button-response-esp","99","839523","0.0-11.0-0.44","8586","János imád frálapodni, ezért sokat frálapszik. Ti ritkán...","1","frálapodtok","[""frálapszotok"",""frálapodtok""]","frálapszotok","esp trial","5","false"
"html-button-response","100","843028","0.0-11.0-1.44","null","<p>A másik játékos ezt választotta: <b>frálapszotok</b>.</p><p>&#10060;</p><p>A válaszaitok <b>nem</b> egyeznek meg.</p>","null","","","","feedback trial","",""
"html-button-response-esp","101","851422","0.0-11.0-0.45","5617","János imád brivakozni, ezért sokat brivaklik. Ti ritkán...","0","brivaklotok","[""brivaklotok"",""brivakoztok""]","brivaklotok","esp trial","5","true"
"html-button-response","102","854926","0.0-11.0-1.45","null","<p>A másik játékos ezt választotta: <b>brivaklotok</b>.</p><p>&#x2705;</p><p>A te válaszod és a másik játékos válasza <b>megegyeznek</b>.</p>","null","","","","feedback trial","",""
"html-button-response-esp","103","863320","0.0-11.0-0.46","4011","János imád csibagozni, ezért sokat csibagzik. Ti ritkán...","0","csibagzotok","[""csibagzotok"",""csibagoztok""]","csibagoztok","esp trial","5","false"
"html-button-response","104","866824","0.0-11.0-1.46","null","<p>A másik játékos ezt választotta: <b>csibagoztok</b>.</p><p>&#10060;</p><p>A válaszaitok <b>nem</b> egyeznek meg.</p>","null","","","","feedback trial","",""
"html-button-response-esp","105","875407","0.0-11.0-0.47","8080","János imád drilarozni, ezért sokat drilarzik. Mi ritkán...","1","drilarozunk","[""drilarzunk"",""drilarozunk""]","drilarozunk","esp trial","5","true"
"html-button-response","106","878911","0.0-11.0-1.47","null","<p>A másik játékos ezt választotta: <b>drilarozunk</b>.</p><p>&#x2705;</p><p>A te válaszod és a másik játékos válasza <b>megegyeznek</b>.</p>","null","","","","feedback trial","",""
"html-button-response-esp","107","887306","0.0-11.0-0.48","4629","János imád flűgözni, ezért sokat flűgzik. Mi ritkán...","1","flűgözünk","[""flűgzünk"",""flűgözünk""]","flűgzünk","esp trial","5","false"
"html-button-response","108","890809","0.0-11.0-1.48","null","<p>A másik játékos ezt választotta: <b>flűgzünk</b>.</p><p>&#10060;</p><p>A válaszaitok <b>nem</b> egyeznek meg.</p>","null","","","","feedback trial","",""
"html-button-response-esp","109","899203","0.0-11.0-0.49","7808","János imád prögözni, ezért sokat prögzik. Ti ritkán...","1","prögzötök","[""prögöztök"",""prögzötök""]","prögöztök","esp trial","5","false"
"html-button-response","110","902707","0.0-11.0-1.49","null","<p>A másik játékos ezt választotta: <b>prögöztök</b>.</p><p>&#10060;</p><p>A válaszaitok <b>nem</b> egyeznek meg.</p>","null","","","","feedback trial","",""
"html-button-response-esp","111","911752","0.0-11.0-0.50","8542","János imád föködni, ezért sokat fökszik. Ők ritkán...","0","fökszenek","[""fökszenek"",""föködnek""]","fökszenek","esp trial","5","true"
"html-button-response","112","915256","0.0-11.0-1.50","null","<p>A másik játékos ezt választotta: <b>fökszenek</b>.</p><p>&#x2705;</p><p>A te válaszod és a másik játékos válasza <b>megegyeznek</b>.</p>","null","","","","feedback trial","",""
"html-button-response-esp","113","923650","0.0-11.0-0.51","2550","János imád flüröközni, ezért sokat flüröklik. Ti ritkán...","1","flüröklötök","[""flürököztök"",""flüröklötök""]","flüröklötök","esp trial","5","true"
"html-button-response","114","927154","0.0-11.0-1.51","null","<p>A másik játékos ezt választotta: <b>flüröklötök</b>.</p><p>&#x2705;</p><p>A te válaszod és a másik játékos válasza <b>megegyeznek</b>.</p>","null","","","","feedback trial","",""
"html-button-response-esp","115","935548","0.0-11.0-0.52","6634","János imád trugozni, ezért sokat trugzik. Ők ritkán...","1","trugoznak","[""trugzanak"",""trugoznak""]","trugoznak","esp trial","5","true"
"html-button-response","116","939052","0.0-11.0-1.52","null","<p>A másik játékos ezt választotta: <b>trugoznak</b>.</p><p>&#x2705;</p><p>A te válaszod és a másik játékos válasza <b>megegyeznek</b>.</p>","null","","","","feedback trial","",""
"html-button-response-esp","117","947446","0.0-11.0-0.53","6827","János imád dirozni, ezért sokat dirlik. Ti ritkán...","1","dirlotok","[""diroztok"",""dirlotok""]","dirlotok","esp trial","5","true"
"html-button-response","118","950949","0.0-11.0-1.53","null","<p>A másik játékos ezt választotta: <b>dirlotok</b>.</p><p>&#x2705;</p><p>A te válaszod és a másik játékos válasza <b>megegyeznek</b>.</p>","null","","","","feedback trial","",""
"html-button-response","119","978667","0.0-12.0","27216","<p>A közös játék most véget ért.</p><p>Mielőtt eláruljuk a végső pontszámodat, arra kérlek, játszd a szóválasztós játékot néhány percig egyedül is.</p><p>A feladatod ugyanaz lesz, választani két lehetőség közül.</p><p>Most viszont egyedül kell döntened, hogy te melyiket választanád.</p>","0","","","","","",""
"html-button-response-clever","120","998863","0.0-13.0-0.0","19692","János imád spalározni, ezért sokat spalárzik. Ők ritkán...","0","spalároznak","[""spalároznak"",""spalárzanak""]","","posttest trial","8",""
"html-button-response-clever","121","1011089","0.0-13.0-0.1","11723","János imád tibarozni, ezért sokat tibarzik. Ők ritkán...","1","tibaroznak","[""tibarzanak"",""tibaroznak""]","","posttest trial","8",""
"html-button-response-clever","122","1014962","0.0-13.0-0.2","3369","János imád klarágozni, ezért sokat klarágzik. Ti ritkán...","1","klarágoztok","[""klarágzotok"",""klarágoztok""]","","posttest trial","8",""
"html-button-response-clever","123","1018462","0.0-13.0-0.3","2997","János imád riványozni, ezért sokat riványlik. Ti ritkán...","0","riványoztok","[""riványoztok"",""riványlotok""]","","posttest trial","8",""
"html-button-response-clever","124","1024675","0.0-13.0-0.4","5711","János imád gyivepedni, ezért sokat gyivepszik. Ők ritkán...","1","gyivepednek","[""gyivepszenek"",""gyivepednek""]","","posttest trial","8",""
"html-button-response-clever","125","1029209","0.0-13.0-0.5","4031","János imád filányozni, ezért sokat filánylik. Mi ritkán...","0","filányozunk","[""filányozunk"",""filánylunk""]","","posttest trial","8",""
"html-button-response-clever","126","1032335","0.0-13.0-0.6","2622","János imád sponyozni, ezért sokat sponylik. Ők ritkán...","1","sponyoznak","[""sponylanak"",""sponyoznak""]","","posttest trial","8",""
"html-button-response-clever","127","1035139","0.0-13.0-0.7","2301","János imád trírozni, ezért sokat trírzik. Mi ritkán...","0","trírozunk","[""trírozunk"",""trírzunk""]","","posttest trial","8",""
"html-button-response-clever","128","1037955","0.0-13.0-0.8","2313","János imád brározni, ezért sokat brárlik. Ők ritkán...","1","brároznak","[""brárlanak"",""brároznak""]","","posttest trial","8",""
"html-button-response-clever","129","1040696","0.0-13.0-0.9","2238","János imád brivágozni, ezért sokat briváglik. Ők ritkán...","0","brivágoznak","[""brivágoznak"",""briváglanak""]","","posttest trial","8",""
"html-button-response-clever","130","1044585","0.0-13.0-0.10","3387","János imád fröjözni, ezért sokat fröjlik. Mi ritkán...","1","fröjözünk","[""fröjlünk"",""fröjözünk""]","","posttest trial","8",""
"html-button-response-clever","131","1046899","0.0-13.0-0.11","1811","János imád dirányozni, ezért sokat diránylik. Ők ritkán...","0","dirányoznak","[""dirányoznak"",""diránylanak""]","","posttest trial","8",""
"html-button-response-clever","132","1051859","0.0-13.0-0.12","4457","János imád gibemezni, ezért sokat gibemlik. Mi ritkán...","0","gibemezünk","[""gibemezünk"",""gibemlünk""]","","posttest trial","8",""
"html-button-response-clever","133","1057394","0.0-13.0-0.13","5033","János imád flézezni, ezért sokat flézlik. Ti ritkán...","0","flézeztek","[""flézeztek"",""flézletek""]","","posttest trial","8",""
"html-button-response-clever","134","1060718","0.0-13.0-0.14","2821","János imád frihegezni, ezért sokat friheglik. Mi ritkán...","1","frihegezünk","[""friheglünk"",""frihegezünk""]","","posttest trial","8",""
"html-button-response-clever","135","1063183","0.0-13.0-0.15","1963","János imád sztritozni, ezért sokat sztritlik. Ők ritkán...","1","sztritoznak","[""sztritlanak"",""sztritoznak""]","","posttest trial","8",""
"html-button-response-clever","136","1066437","0.0-13.0-0.16","2751","János imád pehégedni, ezért sokat pehégszik. Ti ritkán...","1","pehégedtek","[""pehégszetek"",""pehégedtek""]","","posttest trial","8",""
"html-button-response-clever","137","1069675","0.0-13.0-0.17","2735","János imád galározni, ezért sokat galárzik. Ők ritkán...","0","galároznak","[""galároznak"",""galárzanak""]","","posttest trial","8",""
"html-button-response-clever","138","1073948","0.0-13.0-0.18","3770","János imád lírozni, ezért sokat lírlik. Ők ritkán...","1","líroznak","[""lírlanak"",""líroznak""]","","posttest trial","8",""
"html-button-response-clever","139","1076990","0.0-13.0-0.19","2539","János imád tágarozni, ezért sokat tágarzik. Mi ritkán...","1","tágarozunk","[""tágarzunk"",""tágarozunk""]","","posttest trial","8",""
"html-button-response-clever","140","1080357","0.0-13.0-0.20","2864","János imád brilegezni, ezért sokat brilegzik. Mi ritkán...","0","brilegezünk","[""brilegezünk"",""brilegzünk""]","","posttest trial","8",""
"html-button-response-clever","141","1084476","0.0-13.0-0.21","3617","János imád frésezni, ezért sokat fréslik. Mi ritkán...","1","frésezünk","[""fréslünk"",""frésezünk""]","","posttest trial","8",""
"html-button-response-clever","142","1090025","0.0-13.0-0.22","5045","János imád tűgözni, ezért sokat tűgzik. Ti ritkán...","0","tűgöztök","[""tűgöztök"",""tűgzötök""]","","posttest trial","8",""
"html-button-response-clever","143","1093096","0.0-13.0-0.23","2568","János imád sprigozni, ezért sokat sprigzik. Ti ritkán...","0","sprigoztok","[""sprigoztok"",""sprigzotok""]","","posttest trial","8",""
"html-button-response-clever","144","1097415","0.0-13.0-0.24","3817","János imád nágapodni, ezért sokat nágapszik. Ők ritkán...","1","nágapodnak","[""nágapszanak"",""nágapodnak""]","","posttest trial","8",""
"html-button-response-clever","145","1101452","0.0-13.0-0.25","3535","János imád lumozni, ezért sokat lumlik. Ti ritkán...","1","lumoztok","[""lumlotok"",""lumoztok""]","","posttest trial","8",""
"html-button-response-clever","146","1104144","0.0-13.0-0.26","2189","János imád drivegezni, ezért sokat drivegzik. Ti ritkán...","0","drivegeztek","[""drivegeztek"",""drivegzetek""]","","posttest trial","8",""
"html-button-response-clever","147","1107215","0.0-13.0-0.27","2568","János imád sprimozni, ezért sokat sprimlik. Mi ritkán...","1","sprimozunk","[""sprimlunk"",""sprimozunk""]","","posttest trial","8",""
"html-button-response-clever","148","1109736","0.0-13.0-0.28","2018","János imád küsözni, ezért sokat küslik. Mi ritkán...","0","küsözünk","[""küsözünk"",""küslünk""]","","posttest trial","8",""
"html-button-response-clever","149","1113592","0.0-13.0-0.29","3353","János imád brivepedni, ezért sokat brivepszik. Mi ritkán...","1","brivepedünk","[""brivepszünk"",""brivepedünk""]","","posttest trial","8",""
"html-button-response-clever","150","1116590","0.0-13.0-0.30","2495","János imád pörözni, ezért sokat pörzik. Ti ritkán...","0","pöröztök","[""pöröztök"",""pörzötök""]","","posttest trial","8",""
"html-button-response-clever","151","1119078","0.0-13.0-0.31","1984","János imád vobozni, ezért sokat vobzik. Ti ritkán...","0","voboztok","[""voboztok"",""vobzotok""]","","posttest trial","8",""
"html-button-response-clever","152","1123204","0.0-13.0-0.32","3624","János imád prilepedni, ezért sokat prilepszik. Mi ritkán...","1","prilepedünk","[""prilepszünk"",""prilepedünk""]","","posttest trial","8",""
"html-button-response-clever","153","1126256","0.0-13.0-0.33","2549","János imád spibamozni, ezért sokat spibamlik. Ők ritkán...","1","spibamoznak","[""spibamlanak"",""spibamoznak""]","","posttest trial","8",""
"html-button-response-clever","154","1129065","0.0-13.0-0.34","2305","János imád spöközni, ezért sokat spöklik. Mi ritkán...","0","spöközünk","[""spöközünk"",""spöklünk""]","","posttest trial","8",""
"html-button-response-clever","155","1131199","0.0-13.0-0.35","1632","János imád mísozni, ezért sokat míslik. Mi ritkán...","1","mísozunk","[""míslunk"",""mísozunk""]","","posttest trial","8",""
"html-button-response-clever","156","1133923","0.0-13.0-0.36","2220","János imád kluzozni, ezért sokat kluzlik. Ti ritkán...","1","kluzoztok","[""kluzlotok"",""kluzoztok""]","","posttest trial","8",""
"html-button-response-clever","157","1136270","0.0-13.0-0.37","1844","János imád míjozni, ezért sokat míjzik. Mi ritkán...","0","míjozunk","[""míjozunk"",""míjzunk""]","","posttest trial","8",""
"html-button-response-clever","158","1138538","0.0-13.0-0.38","1766","János imád brüszözni, ezért sokat brüszlik. Ti ritkán...","1","brüszöztök","[""brüszlötök"",""brüszöztök""]","","posttest trial","8",""
"html-button-response-clever","159","1140624","0.0-13.0-0.39","1583","János imád flubokozni, ezért sokat fluboklik. Ti ritkán...","0","flubokoztok","[""flubokoztok"",""fluboklotok""]","","posttest trial","8",""
"html-button-response-clever","160","1142709","0.0-13.0-0.40","1582","János imád frivamozni, ezért sokat frivamlik. Mi ritkán...","0","frivamozunk","[""frivamozunk"",""frivamlunk""]","","posttest trial","8",""
"html-button-response-clever","161","1145265","0.0-13.0-0.41","2053","János imád tribejezni, ezért sokat tribejlik. Ti ritkán...","1","tribejeztek","[""tribejletek"",""tribejeztek""]","","posttest trial","8",""
"html-button-response-clever","162","1147336","0.0-13.0-0.42","1567","János imád drojozni, ezért sokat drojzik. Mi ritkán...","0","drojozunk","[""drojozunk"",""drojzunk""]","","posttest trial","8",""
"html-button-response-clever","163","1150172","0.0-13.0-0.43","2333","János imád livényezni, ezért sokat livénylik. Mi ritkán...","0","livényezünk","[""livényezünk"",""livénylünk""]","","posttest trial","8",""
"html-button-response-clever","164","1152340","0.0-13.0-0.44","1666","János imád trűnyözni, ezért sokat trűnylik. Ők ritkán...","1","trűnyöznek","[""trűnylenek"",""trűnyöznek""]","","posttest trial","8",""
"html-button-response-clever","165","1154426","0.0-13.0-0.45","1584","János imád prazozni, ezért sokat prazlik. Mi ritkán...","0","prazozunk","[""prazozunk"",""prazlunk""]","","posttest trial","8",""
"html-button-response-clever","166","1156807","0.0-13.0-0.46","1877","János imád bregezni, ezért sokat bregzik. Mi ritkán...","1","bregezünk","[""bregzünk"",""bregezünk""]","","posttest trial","8",""
"html-button-response-clever","167","1159427","0.0-13.0-0.47","2118","János imád pekedni, ezért sokat pekszik. Mi ritkán...","1","pekedünk","[""pekszünk"",""pekedünk""]","","posttest trial","8",""
"html-button-response-clever","168","1162186","0.0-13.0-0.48","2256","János imád flivegezni, ezért sokat flivegzik. Ők ritkán...","1","flivegeznek","[""flivegzenek"",""flivegeznek""]","","posttest trial","8",""
"html-button-response-clever","169","1164788","0.0-13.0-0.49","2099","János imád sztrajozni, ezért sokat sztrajlik. Ők ritkán...","1","sztrajoznak","[""sztrajlanak"",""sztrajoznak""]","","posttest trial","8",""
"html-button-response-clever","170","1166507","0.0-13.0-0.50","1216","János imád gatágozni, ezért sokat gatáglik. Mi ritkán...","1","gatágozunk","[""gatáglunk"",""gatágozunk""]","","posttest trial","8",""
"html-button-response-clever","171","1169554","0.0-13.0-0.51","2544","János imád hákodni, ezért sokat hákszik. Ők ritkán...","1","hákodnak","[""hákszanak"",""hákodnak""]","","posttest trial","8",""
"html-button-response-clever","172","1172375","0.0-13.0-0.52","2318","János imád mihágozni, ezért sokat mihágzik. Ti ritkán...","0","mihágoztok","[""mihágoztok"",""mihágzotok""]","","posttest trial","8",""
"html-button-response-clever","173","1174615","0.0-13.0-0.53","1737","János imád brálamozni, ezért sokat brálamlik. Ők ritkán...","1","brálamoznak","[""brálamlanak"",""brálamoznak""]","","posttest trial","8",""
"html-button-response","174","1177464","0.0-14.0","2345","<p> Vége a játéknak. A teljes pontszámod 28/54.</p><p> Szép munka! &#128526;&#128526;&#128526;</p><p>A Befejezés gomb megnyomása után bezárhatod a böngészőablakot.</p>","0","","","","","",""
"html-keyboard-response","175","1182969","0.0-15.0","null","<div class=""message"">
         <p>Egy kis türelmet kérünk, amíg elmentjük az adatokat...</p>
         </div>","null","","","","","",""
