"trial_type","trial_index","time_elapsed","internal_node_id","rt","stimulus","response","response_string","choices","esp_response","trial_kind","list_number","esp_match"
"pavlovia","0","753","0.0-0.0","","","","","","","","",""
"html-button-response","1","54112","0.0-1.0","52844","<p>Kedves Résztvevő! A Budapesti Műszaki és Gazdaságtudományi Egyetem Kognitív Tudományi Tanszékének kutatásában való részvételed kérjük. A kutatásban azt vizsgáljuk, hogy a magyar anyanyelvűek hogyan használnak bizonyos szóalakokat, és hogy milyen képük van arról, hogy mások hogyan használják, hogyan képzik a szavakat. Ez hozzásegít bennünket ahhoz, hogy jobban megértsük, hogyan dolgozza fel és tárolja a nyelvet az emberi agy, és hogyan működnek, hogyan változnak egy adott közösség nyelvi konvenciói.</p><p>A vizsgálat egy rövid számítógépes feladatból fog állni. A kutatásban való részvétel önkéntes, a részvételi szándék bármikor visszavonható. A résztvevők eredményeit név nélkül kezeljük, így nem beazonosíthatók az adatok feldolgozása során. Minden személyes adatot az EU általános adatvédelmi rendeletének (GDPR) megfelelően kezelünk és legfeljebb öt éven belül megsemmisítünk. A vizsgálat jellemzően húsz percet vesz igénybe.</p><p>Kutatásvezető:</p><p>Dr. Rácz Péter, tudományos munkatárs, BME KTT</p><p>e-mail: racz.peter.marton@ttk.bme.hu</p>","0","","","","","",""
"html-button-response","2","106480","0.0-2.0","51864","<p>A kísérletben szavakat fogsz látni. Ezek között lesznek olyanok, amelyeket ismersz, de előfordulhatnak olyanok is, amelyeket nem ismersz, sőt, vannak köztük kitalált szavak is. Minden szónál látni fogsz toldalékolt alakokat. A te feladatod az lesz, hogy minden szóhoz kiválaszd azt a toldalékolt alakot, amely a te számodra ismerősebben, természetesebben hangzik. Rossz válaszok nincsenek, mert van olyan, hogy különböző embereknek más és más szó tűnik jobb választásnak. A választ úgy tudod majd kiválasztani, ha rákattintasz.</p><p>Ebben a szóválasztós játékban egy másik játékossal együtt veszel majd részt. A másik játékos is minden esetben azok közül a lehetőségek közül válogathat, mint te. Kettőtök feladata az, hogy ugyanazt a lehetőséget válasszátok minden esetben. Ahhoz, hogy ez sikerüljön, neked figyelned kell arra, hogy a másik játékos milyen válaszokat ad, és ennek alapján meg kell tippelned, hogyan választ legközelebb. Ha eltalálod, akkor pontot kapsz.</p>","0","","","","","",""
"html-button-response","3","173685","0.0-3.0","66701","<p>Kérjük, olvasd el az alábbi nyilatkozatot, és amennyiben egyetértesz vele, nyomj a Beleegyezés gombra!</p><p>Kijelentem, hogy magyar anyanyelvű személyként önként veszek részt a BME KTT kísérletében. A kutatás céljával és folyamatával kapcsolatban elegendő tájékoztatást kaptam, lehetőségem volt kérdések feltételére, és esetleges kérdéseimre megfelelő válaszokat kaptam. A tájékoztatás alapján elegendő mennyiségű információ áll a rendelkezésemre, hogy eldönthessem, részt kívánok-e venni a kutatásban.</p><p>Tisztában vagyok vele, hogy részvételi szándékomat és adataimat bármikor, indoklás nélkül visszavonhatom.</p><p>Értem és tudomásul veszem, hogy a kutatás tudományos célokat szolgál, és az általam szolgáltatott adatokat a BME kizárólag kutatási célból használja fel. Tudomásul veszem, hogy eredményeimet a többi résztvevő eredményeivel együtt kezelik, így egyéni teljesítményemről visszajelzést, szakvéleményt nem kapok.</p><p>Megértettem, hogy adataim kezelését illetően a BME az EU általános adatvédelmi rendelete (GDPR), a hatályos adatvédelmi törvény és a nemzetközi kutatás-etikai alapelvek szerint jár el. Eredményeim anonim módon kerülnek feldolgozásra, és a kutatás résztvevői az azonosításomra alkalmas adataimat harmadik félnek nem szolgáltatják ki. Engedélyezem a BME számára a jelen kutatásban felvett adataim feldolgozását és tárolását, beleértve azok későbbi kutatásokhoz való felhasználását is. Személyes adataim kezelésével kapcsolatban tájékoztatást kérhetek a kutatás résztvevőitől, az adatkezelés ellen tiltakozhatok, kérhetem személyes adataim helyesbítését, törlését vagy zárolását, valamint jogorvoslatért a Nemzeti Adatvédelmi és Információszabadság Hatósághoz fordulhatok.</p><p>Kijelentem, hogy a kutatásban való részvételem körülményeiről részletes tájékoztatást kaptam, és a feltételeket elfogadom.</p>","0","","","","","",""
"survey-text","4","216674","0.0-4.0","42476","","{""Q0"":""KZVP5R"",""Q1"":""nő"",""Q2"":""1985"",""Q3"":""18""}","","","","","",""
"html-button-response","5","261810","0.0-5.0","44632","<p>Ebben a játékban szavakat kell toldalékolni.</p> <p>Minden körben mutatunk majd egy példamondatot, amiben lesz egy szó.</p> <p>Alatta jön egy második mondat, ezt a mondatot neked kell majd befejezni, ugyanezzel a szóval.</p> <p>Nem biztos, hogy a szó eleve ismerős lesz számodra!</p> <p>Minden mondathoz adunk két lehetőséget, ezeket balra és jobbra látod majd.</p> <p>A játék kb. negyedóráig-húsz percig tart.</p>","0","","","","","",""
"html-button-response","6","272209","0.0-6.0","9897","<p>Nézzünk egy példát!</p> <p>A példamondat: ""Ez itt egy blumbnyeg.""</p><p>Neked ezt a mondatot kell befejezned: ""Ott vagyunk a...""</p><p>A lehetőségek pedig ezek:</p>","0","","","","","",""
"html-button-response","7","280430","0.0-7.0","7700","<p>Nagyon jó.</p><p>Ezt a játékot nem egyedül fogod játszani, hanem egy másik játékossal.</p><p>Mielőtt továbblépünk, összekapcsolunk titeket egymással.</p><p>Ez igénybe vehet néhány másodpercet, amihez szíves türelmed kérjük.</p>","0","","","","","",""
"html-button-response","8","286173","0.0-8.0","null","<p>Csatlakozás a másik játékoshoz...</p>","null","","","","","",""
"html-button-response","9","288705","0.0-9.0","null","<p> Sikeres kapcsolódás!</p>","null","","","","","",""
"html-button-response","10","299210","0.0-10.0","null","<p>A következőkben ketten játsszátok a szóválasztós játékot.</p><p>A feladatotok az lesz, hogy minden körben <b>ugyanazt</b> a szót válasszátok.</p><p>Minden ilyen egyező válaszért pontot kaptok.</p><p>Próbáld meg kitalálni, mit választ a másik játékos!</p><p>Bármikor választhatsz, a körnek akkor van vége, ha mindketten döntöttetek.</p><p>Sok sikert!</p>","null","","","","","",""
"html-button-response-esp","11","308729","0.0-11.0-0.0","9003","Ez itt egy hosét. Elneveztem a kutyámat...","1","hosétnak","[""hosétnek"",""hosétnak""]","hosétnak","esp trial","7","true"
"html-button-response","12","312253","0.0-11.0-1.0","null","<p>A másik játékos ezt választotta: <b>hosétnak</b>.</p><p>&#x2705;</p><p>A te válaszod és a másik játékos válasza <b>megegyeznek</b>.</p>","null","","","","feedback trial","",""
"html-button-response-esp","13","317298","0.0-11.0-0.1","4539","Ez itt egy fupét. Nincs is jobb egy jó...","1","fupétnál","[""fupétnél"",""fupétnál""]","fupétnél","esp trial","7","false"
"html-button-response","14","320814","0.0-11.0-1.1","null","<p>A másik játékos ezt választotta: <b>fupétnél</b>.</p><p>&#10060;</p><p>A válaszaitok <b>nem</b> egyeznek meg.</p>","null","","","","feedback trial","",""
"html-button-response-esp","15","326264","0.0-11.0-0.2","4945","Ez itt egy tivenc. Ott vagyunk a...","1","tivencban","[""tivencben"",""tivencban""]","tivencben","esp trial","7","false"
"html-button-response","16","329788","0.0-11.0-1.2","null","<p>A másik játékos ezt választotta: <b>tivencben</b>.</p><p>&#10060;</p><p>A válaszaitok <b>nem</b> egyeznek meg.</p>","null","","","","feedback trial","",""
"html-button-response-esp","17","335240","0.0-11.0-0.3","4938","Ez itt egy nuhét. Nincs is jobb egy jó...","0","nuhétnál","[""nuhétnál"",""nuhétnél""]","nuhétnél","esp trial","7","false"
"html-button-response","18","338752","0.0-11.0-1.3","null","<p>A másik játékos ezt választotta: <b>nuhétnél</b>.</p><p>&#10060;</p><p>A válaszaitok <b>nem</b> egyeznek meg.</p>","null","","","","feedback trial","",""
"html-button-response-esp","19","344242","0.0-11.0-0.4","4985","Ez itt egy szanéj. Elneveztem a kutyámat...","1","szanéjnak","[""szanéjnek"",""szanéjnak""]","szanéjnak","esp trial","7","true"
"html-button-response","20","347760","0.0-11.0-1.4","null","<p>A másik játékos ezt választotta: <b>szanéjnak</b>.</p><p>&#x2705;</p><p>A te válaszod és a másik játékos válasza <b>megegyeznek</b>.</p>","null","","","","feedback trial","",""
"html-button-response-esp","21","353828","0.0-11.0-0.5","5555","Ez itt egy spatel. Elneveztem a kutyámat...","1","spatelnak","[""spatelnek"",""spatelnak""]","spatelnek","esp trial","7","false"
"html-button-response","22","357349","0.0-11.0-1.5","null","<p>A másik játékos ezt választotta: <b>spatelnek</b>.</p><p>&#10060;</p><p>A válaszaitok <b>nem</b> egyeznek meg.</p>","null","","","","feedback trial","",""
"html-button-response-esp","23","367115","0.0-11.0-0.6","9262","Ez itt egy szibed. Ott vagyunk a...","0","szibedban","[""szibedban"",""szibedben""]","szibedben","esp trial","7","false"
"html-button-response","24","370639","0.0-11.0-1.6","null","<p>A másik játékos ezt választotta: <b>szibedben</b>.</p><p>&#10060;</p><p>A válaszaitok <b>nem</b> egyeznek meg.</p>","null","","","","feedback trial","",""
"html-button-response-esp","25","376748","0.0-11.0-0.7","5605","Ez itt egy tarhéz. Ott vagyunk a...","0","tarhézban","[""tarhézban"",""tarhézben""]","tarhézban","esp trial","7","true"
"html-button-response","26","380267","0.0-11.0-1.7","null","<p>A másik játékos ezt választotta: <b>tarhézban</b>.</p><p>&#x2705;</p><p>A te válaszod és a másik játékos válasza <b>megegyeznek</b>.</p>","null","","","","feedback trial","",""
"html-button-response-esp","27","386533","0.0-11.0-0.8","5762","Ez itt egy zábény. Elneveztem a kutyámat...","1","zábénynek","[""zábénynak"",""zábénynek""]","zábénynek","esp trial","7","true"
"html-button-response","28","390061","0.0-11.0-1.8","null","<p>A másik játékos ezt választotta: <b>zábénynek</b>.</p><p>&#x2705;</p><p>A te válaszod és a másik játékos válasza <b>megegyeznek</b>.</p>","null","","","","feedback trial","",""
"html-button-response-esp","29","399476","0.0-11.0-0.9","8911","Ez itt egy pazév. Nincs is jobb egy jó...","1","pazévnál","[""pazévnél"",""pazévnál""]","pazévnál","esp trial","7","true"
"html-button-response","30","402982","0.0-11.0-1.9","null","<p>A másik játékos ezt választotta: <b>pazévnál</b>.</p><p>&#x2705;</p><p>A te válaszod és a másik játékos válasza <b>megegyeznek</b>.</p>","null","","","","feedback trial","",""
"html-button-response-esp","31","408187","0.0-11.0-0.10","4699","Ez itt egy lihény. Elneveztem a kutyámat...","0","lihénynek","[""lihénynek"",""lihénynak""]","lihénynek","esp trial","7","true"
"html-button-response","32","411706","0.0-11.0-1.10","null","<p>A másik játékos ezt választotta: <b>lihénynek</b>.</p><p>&#x2705;</p><p>A te válaszod és a másik játékos válasza <b>megegyeznek</b>.</p>","null","","","","feedback trial","",""
"html-button-response-esp","33","416891","0.0-11.0-0.11","4677","Ez itt egy bingéj. Elneveztem a kutyámat...","1","bingéjnek","[""bingéjnak"",""bingéjnek""]","bingéjnek","esp trial","7","true"
"html-button-response","34","420421","0.0-11.0-1.11","null","<p>A másik játékos ezt választotta: <b>bingéjnek</b>.</p><p>&#x2705;</p><p>A te válaszod és a másik játékos válasza <b>megegyeznek</b>.</p>","null","","","","feedback trial","",""
"html-button-response-esp","35","425869","0.0-11.0-0.12","4944","Ez itt egy briskéd. Nincs is jobb egy jó...","1","briskédnél","[""briskédnál"",""briskédnél""]","briskédnél","esp trial","7","true"
"html-button-response","36","429381","0.0-11.0-1.12","null","<p>A másik játékos ezt választotta: <b>briskédnél</b>.</p><p>&#x2705;</p><p>A te válaszod és a másik játékos válasza <b>megegyeznek</b>.</p>","null","","","","feedback trial","",""
"html-button-response-esp","37","434742","0.0-11.0-0.13","4858","Ez itt egy klazér. Ott vagyunk a...","1","klazérben","[""klazérban"",""klazérben""]","klazérban","esp trial","7","false"
"html-button-response","38","438265","0.0-11.0-1.13","null","<p>A másik játékos ezt választotta: <b>klazérban</b>.</p><p>&#10060;</p><p>A válaszaitok <b>nem</b> egyeznek meg.</p>","null","","","","feedback trial","",""
"html-button-response-esp","39","444148","0.0-11.0-0.14","5379","Ez itt egy zuten. Nincs is jobb egy jó...","0","zutennél","[""zutennél"",""zutennál""]","zutennél","esp trial","7","true"
"html-button-response","40","447662","0.0-11.0-1.14","null","<p>A másik játékos ezt választotta: <b>zutennél</b>.</p><p>&#x2705;</p><p>A te válaszod és a másik játékos válasza <b>megegyeznek</b>.</p>","null","","","","feedback trial","",""
"html-button-response-esp","41","453842","0.0-11.0-0.15","5676","Ez itt egy dutec. Nincs is jobb egy jó...","1","dutecnál","[""dutecnél"",""dutecnál""]","dutecnél","esp trial","7","false"
"html-button-response","42","457350","0.0-11.0-1.15","null","<p>A másik játékos ezt választotta: <b>dutecnél</b>.</p><p>&#10060;</p><p>A válaszaitok <b>nem</b> egyeznek meg.</p>","null","","","","feedback trial","",""
"html-button-response-esp","43","461974","0.0-11.0-0.16","3028","Ez itt egy vodec. Nincs is jobb egy jó...","0","vodecnál","[""vodecnál"",""vodecnél""]","vodecnél","esp trial","7","false"
"html-button-response","44","465495","0.0-11.0-1.16","null","<p>A másik játékos ezt választotta: <b>vodecnél</b>.</p><p>&#10060;</p><p>A válaszaitok <b>nem</b> egyeznek meg.</p>","null","","","","feedback trial","",""
"html-button-response-esp","45","470110","0.0-11.0-0.17","3393","Ez itt egy humék. Elneveztem a kutyámat...","1","huméknak","[""huméknek"",""huméknak""]","huméknak","esp trial","7","true"
"html-button-response","46","473641","0.0-11.0-1.17","null","<p>A másik játékos ezt választotta: <b>huméknak</b>.</p><p>&#x2705;</p><p>A te válaszod és a másik játékos válasza <b>megegyeznek</b>.</p>","null","","","","feedback trial","",""
"html-button-response-esp","47","479354","0.0-11.0-0.18","5209","Ez itt egy trikép. Ott vagyunk a...","0","triképben","[""triképben"",""triképban""]","triképben","esp trial","7","true"
"html-button-response","48","482857","0.0-11.0-1.18","null","<p>A másik játékos ezt választotta: <b>triképben</b>.</p><p>&#x2705;</p><p>A te válaszod és a másik játékos válasza <b>megegyeznek</b>.</p>","null","","","","feedback trial","",""
"html-button-response-esp","49","489515","0.0-11.0-0.19","6143","Ez itt egy spivél. Elneveztem a kutyámat...","0","spivélnek","[""spivélnek"",""spivélnak""]","spivélnek","esp trial","7","true"
"html-button-response","50","493026","0.0-11.0-1.19","null","<p>A másik játékos ezt választotta: <b>spivélnek</b>.</p><p>&#x2705;</p><p>A te válaszod és a másik játékos válasza <b>megegyeznek</b>.</p>","null","","","","feedback trial","",""
"html-button-response-esp","51","498855","0.0-11.0-0.20","5319","Ez itt egy klítegy. Nincs is jobb egy jó...","1","klítegynél","[""klítegynál"",""klítegynél""]","klítegynél","esp trial","7","true"
"html-button-response","52","502375","0.0-11.0-1.20","null","<p>A másik játékos ezt választotta: <b>klítegynél</b>.</p><p>&#x2705;</p><p>A te válaszod és a másik játékos válasza <b>megegyeznek</b>.</p>","null","","","","feedback trial","",""
"html-button-response-esp","53","506997","0.0-11.0-0.21","3836","Ez itt egy dajrens. Nincs is jobb egy jó...","1","dajrensnál","[""dajrensnél"",""dajrensnál""]","dajrensnél","esp trial","7","false"
"html-button-response","54","510508","0.0-11.0-1.21","null","<p>A másik játékos ezt választotta: <b>dajrensnél</b>.</p><p>&#10060;</p><p>A válaszaitok <b>nem</b> egyeznek meg.</p>","null","","","","feedback trial","",""
"html-button-response-esp","55","517004","0.0-11.0-0.22","5981","Ez itt egy surnegy. Nincs is jobb egy jó...","0","surnegynál","[""surnegynál"",""surnegynél""]","surnegynél","esp trial","7","false"
"html-button-response","56","520531","0.0-11.0-1.22","null","<p>A másik játékos ezt választotta: <b>surnegynél</b>.</p><p>&#10060;</p><p>A válaszaitok <b>nem</b> egyeznek meg.</p>","null","","","","feedback trial","",""
"html-button-response-esp","57","525154","0.0-11.0-0.23","2782","Ez itt egy spizec. Elneveztem a kutyámat...","1","spizecnek","[""spizecnak"",""spizecnek""]","spizecnek","esp trial","7","true"
"html-button-response","58","528674","0.0-11.0-1.23","null","<p>A másik játékos ezt választotta: <b>spizecnek</b>.</p><p>&#x2705;</p><p>A te válaszod és a másik játékos válasza <b>megegyeznek</b>.</p>","null","","","","feedback trial","",""
"html-button-response-esp","59","533683","0.0-11.0-0.24","4504","Ez itt egy dibez. Ott vagyunk a...","0","dibezben","[""dibezben"",""dibezban""]","dibezben","esp trial","7","true"
"html-button-response","60","537193","0.0-11.0-1.24","null","<p>A másik játékos ezt választotta: <b>dibezben</b>.</p><p>&#x2705;</p><p>A te válaszod és a másik játékos válasza <b>megegyeznek</b>.</p>","null","","","","feedback trial","",""
"html-button-response-esp","61","543347","0.0-11.0-0.25","5650","Ez itt egy fojlegy. Elneveztem a kutyámat...","1","fojlegynek","[""fojlegynak"",""fojlegynek""]","fojlegynek","esp trial","7","true"
"html-button-response","62","546878","0.0-11.0-1.25","null","<p>A másik játékos ezt választotta: <b>fojlegynek</b>.</p><p>&#x2705;</p><p>A te válaszod és a másik játékos válasza <b>megegyeznek</b>.</p>","null","","","","feedback trial","",""
"html-button-response-esp","63","551719","0.0-11.0-0.26","4336","Ez itt egy pristél. Ott vagyunk a...","0","pristélben","[""pristélben"",""pristélban""]","pristélben","esp trial","7","true"
"html-button-response","64","555224","0.0-11.0-1.26","null","<p>A másik játékos ezt választotta: <b>pristélben</b>.</p><p>&#x2705;</p><p>A te válaszod és a másik játékos válasza <b>megegyeznek</b>.</p>","null","","","","feedback trial","",""
"html-button-response-esp","65","561029","0.0-11.0-0.27","5303","Ez itt egy murdes. Nincs is jobb egy jó...","0","murdesnél","[""murdesnél"",""murdesnál""]","murdesnél","esp trial","7","true"
"html-button-response","66","564545","0.0-11.0-1.27","null","<p>A másik játékos ezt választotta: <b>murdesnél</b>.</p><p>&#x2705;</p><p>A te válaszod és a másik játékos válasza <b>megegyeznek</b>.</p>","null","","","","feedback trial","",""
"html-button-response-esp","67","571491","0.0-11.0-0.28","6441","Ez itt egy gábéd. Nincs is jobb egy jó...","1","gábédnál","[""gábédnél"",""gábédnál""]","gábédnál","esp trial","7","true"
"html-button-response","68","575021","0.0-11.0-1.28","null","<p>A másik játékos ezt választotta: <b>gábédnál</b>.</p><p>&#x2705;</p><p>A te válaszod és a másik játékos válasza <b>megegyeznek</b>.</p>","null","","","","feedback trial","",""
"html-button-response-esp","69","579646","0.0-11.0-0.29","3354","Ez itt egy zatéj. Nincs is jobb egy jó...","0","zatéjnál","[""zatéjnál"",""zatéjnél""]","zatéjnél","esp trial","7","false"
"html-button-response","70","583151","0.0-11.0-1.29","null","<p>A másik játékos ezt választotta: <b>zatéjnél</b>.</p><p>&#10060;</p><p>A válaszaitok <b>nem</b> egyeznek meg.</p>","null","","","","feedback trial","",""
"html-button-response-esp","71","590095","0.0-11.0-0.30","6441","Ez itt egy klajrén. Elneveztem a kutyámat...","1","klajrénnek","[""klajrénnak"",""klajrénnek""]","klajrénnak","esp trial","7","false"
"html-button-response","72","593619","0.0-11.0-1.30","null","<p>A másik játékos ezt választotta: <b>klajrénnak</b>.</p><p>&#10060;</p><p>A válaszaitok <b>nem</b> egyeznek meg.</p>","null","","","","feedback trial","",""
"html-button-response-esp","73","598233","0.0-11.0-0.31","2948","Ez itt egy fizend. Ott vagyunk a...","1","fizendben","[""fizendban"",""fizendben""]","fizendben","esp trial","7","true"
"html-button-response","74","601758","0.0-11.0-1.31","null","<p>A másik játékos ezt választotta: <b>fizendben</b>.</p><p>&#x2705;</p><p>A te válaszod és a másik játékos válasza <b>megegyeznek</b>.</p>","null","","","","feedback trial","",""
"html-button-response-esp","75","606380","0.0-11.0-0.32","2794","Ez itt egy jurdent. Nincs is jobb egy jó...","0","jurdentnél","[""jurdentnél"",""jurdentnál""]","jurdentnél","esp trial","7","true"
"html-button-response","76","609905","0.0-11.0-1.32","null","<p>A másik játékos ezt választotta: <b>jurdentnél</b>.</p><p>&#x2705;</p><p>A te válaszod és a másik játékos válasza <b>megegyeznek</b>.</p>","null","","","","feedback trial","",""
"html-button-response-esp","77","614533","0.0-11.0-0.33","3065","Ez itt egy lijez. Elneveztem a kutyámat...","1","lijeznek","[""lijeznak"",""lijeznek""]","lijeznek","esp trial","7","true"
"html-button-response","78","618047","0.0-11.0-1.33","null","<p>A másik játékos ezt választotta: <b>lijeznek</b>.</p><p>&#x2705;</p><p>A te válaszod és a másik játékos válasza <b>megegyeznek</b>.</p>","null","","","","feedback trial","",""
"html-button-response-esp","79","622680","0.0-11.0-0.34","2456","Ez itt egy mádép. Nincs is jobb egy jó...","0","mádépnél","[""mádépnél"",""mádépnál""]","mádépnál","esp trial","7","false"
"html-button-response","80","626189","0.0-11.0-1.34","null","<p>A másik játékos ezt választotta: <b>mádépnál</b>.</p><p>&#10060;</p><p>A válaszaitok <b>nem</b> egyeznek meg.</p>","null","","","","feedback trial","",""
"html-button-response-esp","81","630812","0.0-11.0-0.35","2844","Ez itt egy dinelt. Ott vagyunk a...","0","dineltben","[""dineltben"",""dineltban""]","dineltben","esp trial","7","true"
"html-button-response","82","634343","0.0-11.0-1.35","null","<p>A másik játékos ezt választotta: <b>dineltben</b>.</p><p>&#x2705;</p><p>A te válaszod és a másik játékos válasza <b>megegyeznek</b>.</p>","null","","","","feedback trial","",""
"html-button-response-esp","83","638971","0.0-11.0-0.36","3677","Ez itt egy trodély. Ott vagyunk a...","0","trodélyban","[""trodélyban"",""trodélyben""]","trodélyban","esp trial","7","true"
"html-button-response","84","642476","0.0-11.0-1.36","null","<p>A másik játékos ezt választotta: <b>trodélyban</b>.</p><p>&#x2705;</p><p>A te válaszod és a másik játékos válasza <b>megegyeznek</b>.</p>","null","","","","feedback trial","",""
"html-button-response-esp","85","647095","0.0-11.0-0.37","3160","Ez itt egy csublény. Ott vagyunk a...","1","csublényben","[""csublényban"",""csublényben""]","csublényban","esp trial","7","false"
"html-button-response","86","650603","0.0-11.0-1.37","null","<p>A másik játékos ezt választotta: <b>csublényban</b>.</p><p>&#10060;</p><p>A válaszaitok <b>nem</b> egyeznek meg.</p>","null","","","","feedback trial","",""
"html-button-response-esp","87","655221","0.0-11.0-0.38","3348","Ez itt egy hijegy. Nincs is jobb egy jó...","0","hijegynél","[""hijegynél"",""hijegynál""]","hijegynél","esp trial","7","true"
"html-button-response","88","658737","0.0-11.0-1.38","null","<p>A másik játékos ezt választotta: <b>hijegynél</b>.</p><p>&#x2705;</p><p>A te válaszod és a másik játékos válasza <b>megegyeznek</b>.</p>","null","","","","feedback trial","",""
"html-button-response-esp","89","663362","0.0-11.0-0.39","2209","Ez itt egy lingék. Nincs is jobb egy jó...","0","lingéknél","[""lingéknél"",""lingéknál""]","lingéknél","esp trial","7","true"
"html-button-response","90","666867","0.0-11.0-1.39","null","<p>A másik játékos ezt választotta: <b>lingéknél</b>.</p><p>&#x2705;</p><p>A te válaszod és a másik játékos válasza <b>megegyeznek</b>.</p>","null","","","","feedback trial","",""
"html-button-response-esp","91","671494","0.0-11.0-0.40","2794","Ez itt egy zarcég. Nincs is jobb egy jó...","1","zarcégnál","[""zarcégnél"",""zarcégnál""]","zarcégnél","esp trial","7","false"
"html-button-response","92","675001","0.0-11.0-1.40","null","<p>A másik játékos ezt választotta: <b>zarcégnél</b>.</p><p>&#10060;</p><p>A válaszaitok <b>nem</b> egyeznek meg.</p>","null","","","","feedback trial","",""
"html-button-response-esp","93","679626","0.0-11.0-0.41","2769","Ez itt egy zined. Elneveztem a kutyámat...","1","zinednek","[""zinednak"",""zinednek""]","zinednek","esp trial","7","true"
"html-button-response","94","683140","0.0-11.0-1.41","null","<p>A másik játékos ezt választotta: <b>zinednek</b>.</p><p>&#x2705;</p><p>A te válaszod és a másik játékos válasza <b>megegyeznek</b>.</p>","null","","","","feedback trial","",""
"html-button-response-esp","95","687764","0.0-11.0-0.42","1873","Ez itt egy sihen. Nincs is jobb egy jó...","1","sihennél","[""sihennál"",""sihennél""]","sihennél","esp trial","7","true"
"html-button-response","96","691280","0.0-11.0-1.42","null","<p>A másik játékos ezt választotta: <b>sihennél</b>.</p><p>&#x2705;</p><p>A te válaszod és a másik játékos válasza <b>megegyeznek</b>.</p>","null","","","","feedback trial","",""
"html-button-response-esp","97","695907","0.0-11.0-0.43","2650","Ez itt egy cságyelt. Ott vagyunk a...","1","cságyeltben","[""cságyeltban"",""cságyeltben""]","cságyeltben","esp trial","7","true"
"html-button-response","98","699429","0.0-11.0-1.43","null","<p>A másik játékos ezt választotta: <b>cságyeltben</b>.</p><p>&#x2705;</p><p>A te válaszod és a másik játékos válasza <b>megegyeznek</b>.</p>","null","","","","feedback trial","",""
"html-button-response-esp","99","704755","0.0-11.0-0.44","4822","Ez itt egy tumély. Nincs is jobb egy jó...","0","tumélynál","[""tumélynál"",""tumélynél""]","tumélynél","esp trial","7","false"
"html-button-response","100","708274","0.0-11.0-1.44","null","<p>A másik játékos ezt választotta: <b>tumélynél</b>.</p><p>&#10060;</p><p>A válaszaitok <b>nem</b> egyeznek meg.</p>","null","","","","feedback trial","",""
"html-button-response-esp","101","712901","0.0-11.0-0.45","3268","Ez itt egy csodeg. Nincs is jobb egy jó...","1","csodegnál","[""csodegnél"",""csodegnál""]","csodegnél","esp trial","7","false"
"html-button-response","102","716412","0.0-11.0-1.45","null","<p>A másik játékos ezt választotta: <b>csodegnél</b>.</p><p>&#10060;</p><p>A válaszaitok <b>nem</b> egyeznek meg.</p>","null","","","","feedback trial","",""
"html-button-response-esp","103","721026","0.0-11.0-0.46","2869","Ez itt egy vismer. Nincs is jobb egy jó...","0","vismernél","[""vismernél"",""vismernál""]","vismernél","esp trial","7","true"
"html-button-response","104","724532","0.0-11.0-1.46","null","<p>A másik játékos ezt választotta: <b>vismernél</b>.</p><p>&#x2705;</p><p>A te válaszod és a másik játékos válasza <b>megegyeznek</b>.</p>","null","","","","feedback trial","",""
"html-button-response-esp","105","729158","0.0-11.0-0.47","3705","Ez itt egy dóbem. Elneveztem a kutyámat...","0","dóbemnek","[""dóbemnek"",""dóbemnak""]","dóbemnek","esp trial","7","true"
"html-button-response","106","732688","0.0-11.0-1.47","null","<p>A másik játékos ezt választotta: <b>dóbemnek</b>.</p><p>&#x2705;</p><p>A te válaszod és a másik játékos válasza <b>megegyeznek</b>.</p>","null","","","","feedback trial","",""
"html-button-response-esp","107","737517","0.0-11.0-0.48","4324","Ez itt egy zsalrén. Elneveztem a kutyámat...","1","zsalrénnek","[""zsalrénnak"",""zsalrénnek""]","zsalrénnek","esp trial","7","true"
"html-button-response","108","741031","0.0-11.0-1.48","null","<p>A másik játékos ezt választotta: <b>zsalrénnek</b>.</p><p>&#x2705;</p><p>A te válaszod és a másik játékos válasza <b>megegyeznek</b>.</p>","null","","","","feedback trial","",""
"html-button-response-esp","109","748649","0.0-11.0-0.49","7114","Ez itt egy kátéd. Nincs is jobb egy jó...","0","kátédnél","[""kátédnél"",""kátédnál""]","kátédnál","esp trial","7","false"
"html-button-response","110","752168","0.0-11.0-1.49","null","<p>A másik játékos ezt választotta: <b>kátédnál</b>.</p><p>&#10060;</p><p>A válaszaitok <b>nem</b> egyeznek meg.</p>","null","","","","feedback trial","",""
"html-button-response-esp","111","756793","0.0-11.0-0.50","3058","Ez itt egy dunkész. Ott vagyunk a...","1","dunkészben","[""dunkészban"",""dunkészben""]","dunkészban","esp trial","7","false"
"html-button-response","112","760313","0.0-11.0-1.50","null","<p>A másik játékos ezt választotta: <b>dunkészban</b>.</p><p>&#10060;</p><p>A válaszaitok <b>nem</b> egyeznek meg.</p>","null","","","","feedback trial","",""
"html-button-response-esp","113","765834","0.0-11.0-0.51","5019","Ez itt egy fágyép. Nincs is jobb egy jó...","1","fágyépnél","[""fágyépnál"",""fágyépnél""]","fágyépnál","esp trial","7","false"
"html-button-response","114","769355","0.0-11.0-1.51","null","<p>A másik játékos ezt választotta: <b>fágyépnál</b>.</p><p>&#10060;</p><p>A válaszaitok <b>nem</b> egyeznek meg.</p>","null","","","","feedback trial","",""
"html-button-response-esp","115","774875","0.0-11.0-0.52","5010","Ez itt egy jutély. Nincs is jobb egy jó...","0","jutélynél","[""jutélynél"",""jutélynál""]","jutélynál","esp trial","7","false"
"html-button-response","116","778422","0.0-11.0-1.52","null","<p>A másik játékos ezt választotta: <b>jutélynál</b>.</p><p>&#10060;</p><p>A válaszaitok <b>nem</b> egyeznek meg.</p>","null","","","","feedback trial","",""
"html-button-response-esp","117","784555","0.0-11.0-0.53","5630","Ez itt egy vurnel. Elneveztem a kutyámat...","0","vurnelnek","[""vurnelnek"",""vurnelnak""]","vurnelnek","esp trial","7","true"
"html-button-response","118","788072","0.0-11.0-1.53","null","<p>A másik játékos ezt választotta: <b>vurnelnek</b>.</p><p>&#x2705;</p><p>A te válaszod és a másik játékos válasza <b>megegyeznek</b>.</p>","null","","","","feedback trial","",""
"html-button-response","119","797632","0.0-12.0","9049","<p>A közös játék most véget ért.</p><p>Mielőtt eláruljuk a végső pontszámodat, arra kérlek, játszd a szóválasztós játékot néhány percig egyedül is.</p><p>A feladatod ugyanaz lesz, választani két lehetőség közül.</p><p>Most viszont egyedül kell döntened, hogy te melyiket választanád.</p>","0","","","","","",""
"html-button-response-clever","120","802481","0.0-13.0-0.0","4344","Ez itt egy tranék. Ott vagyunk a...","1","tranékban","[""tranékben"",""tranékban""]","","posttest trial","8",""
"html-button-response-clever","121","808325","0.0-13.0-0.1","5341","Ez itt egy ronvet. Elneveztem a kutyámat...","1","ronvetnek","[""ronvetnak"",""ronvetnek""]","","posttest trial","8",""
"html-button-response-clever","122","812339","0.0-13.0-0.2","3504","Ez itt egy fádens. Elneveztem a kutyámat...","0","fádensnek","[""fádensnek"",""fádensnak""]","","posttest trial","8",""
"html-button-response-clever","123","815828","0.0-13.0-0.3","2985","Ez itt egy licegy. Ott vagyunk a...","0","licegyben","[""licegyben"",""licegyban""]","","posttest trial","8",""
"html-button-response-clever","124","819776","0.0-13.0-0.4","3445","Ez itt egy bródesz. Elneveztem a kutyámat...","1","bródesznek","[""bródesznak"",""bródesznek""]","","posttest trial","8",""
"html-button-response-clever","125","824532","0.0-13.0-0.5","4250","Ez itt egy kluhéj. Nincs is jobb egy jó...","1","kluhéjnél","[""kluhéjnál"",""kluhéjnél""]","","posttest trial","8",""
"html-button-response-clever","126","829121","0.0-13.0-0.6","4075","Ez itt egy jalrény. Nincs is jobb egy jó...","0","jalrénynél","[""jalrénynél"",""jalrénynál""]","","posttest trial","8",""
"html-button-response-clever","127","832962","0.0-13.0-0.7","3329","Ez itt egy sartely. Ott vagyunk a...","1","sartelyben","[""sartelyban"",""sartelyben""]","","posttest trial","8",""
"html-button-response-clever","128","837847","0.0-13.0-0.8","4382","Ez itt egy tránély. Elneveztem a kutyámat...","1","tránélynek","[""tránélynak"",""tránélynek""]","","posttest trial","8",""
"html-button-response-clever","129","841963","0.0-13.0-0.9","3613","Ez itt egy priszkenc. Elneveztem a kutyámat...","1","priszkencnek","[""priszkencnak"",""priszkencnek""]","","posttest trial","8",""
"html-button-response-clever","130","847092","0.0-13.0-0.10","4615","Ez itt egy zsopéd. Ott vagyunk a...","0","zsopédben","[""zsopédben"",""zsopédban""]","","posttest trial","8",""
"html-button-response-clever","131","849824","0.0-13.0-0.11","2218","Ez itt egy hivép. Ott vagyunk a...","0","hivépben","[""hivépben"",""hivépban""]","","posttest trial","8",""
"html-button-response-clever","132","856234","0.0-13.0-0.12","5908","Ez itt egy csinték. Ott vagyunk a...","0","csintékben","[""csintékben"",""csintékban""]","","posttest trial","8",""
"html-button-response-clever","133","862474","0.0-13.0-0.13","5737","Ez itt egy forzéd. Elneveztem a kutyámat...","0","forzédnak","[""forzédnak"",""forzédnek""]","","posttest trial","8",""
"html-button-response-clever","134","866422","0.0-13.0-0.14","3432","Ez itt egy klordény. Elneveztem a kutyámat...","0","klordénynek","[""klordénynek"",""klordénynak""]","","posttest trial","8",""
"html-button-response-clever","135","870831","0.0-13.0-0.15","3896","Ez itt egy sprízem. Nincs is jobb egy jó...","1","sprízemnél","[""sprízemnál"",""sprízemnél""]","","posttest trial","8",""
"html-button-response-clever","136","876152","0.0-13.0-0.16","4805","Ez itt egy sporzem. Elneveztem a kutyámat...","1","sporzemnek","[""sporzemnak"",""sporzemnek""]","","posttest trial","8",""
"html-button-response-clever","137","882058","0.0-13.0-0.17","5401","Ez itt egy nyábét. Ott vagyunk a...","0","nyábétban","[""nyábétban"",""nyábétben""]","","posttest trial","8",""
"html-button-response-clever","138","889034","0.0-13.0-0.18","6469","Ez itt egy gonszék. Nincs is jobb egy jó...","0","gonszéknál","[""gonszéknál"",""gonszéknél""]","","posttest trial","8",""
"html-button-response-clever","139","892180","0.0-13.0-0.19","2630","Ez itt egy gótem. Elneveztem a kutyámat...","0","gótemnek","[""gótemnek"",""gótemnak""]","","posttest trial","8",""
"html-button-response-clever","140","897488","0.0-13.0-0.20","4805","Ez itt egy jábéz. Ott vagyunk a...","0","jábézban","[""jábézban"",""jábézben""]","","posttest trial","8",""
"html-button-response-clever","141","901654","0.0-13.0-0.21","3664","Ez itt egy gicéj. Nincs is jobb egy jó...","1","gicéjnál","[""gicéjnél"",""gicéjnál""]","","posttest trial","8",""
"html-button-response-clever","142","908936","0.0-13.0-0.22","6778","Ez itt egy szihét. Elneveztem a kutyámat...","0","szihétnek","[""szihétnek"",""szihétnak""]","","posttest trial","8",""
"html-button-response-clever","143","913764","0.0-13.0-0.23","4315","Ez itt egy buhény. Ott vagyunk a...","0","buhényban","[""buhényban"",""buhényben""]","","posttest trial","8",""
"html-button-response-clever","144","917894","0.0-13.0-0.24","3627","Ez itt egy lismév. Ott vagyunk a...","1","lismévben","[""lismévban"",""lismévben""]","","posttest trial","8",""
"html-button-response-clever","145","923812","0.0-13.0-0.25","5400","Ez itt egy brágéd. Elneveztem a kutyámat...","0","brágédnak","[""brágédnak"",""brágédnek""]","","posttest trial","8",""
"html-button-response-clever","146","928304","0.0-13.0-0.26","3975","Ez itt egy giheszt. Elneveztem a kutyámat...","1","gihesztnek","[""gihesztnak"",""gihesztnek""]","","posttest trial","8",""
"html-button-response-clever","147","934114","0.0-13.0-0.27","5303","Ez itt egy hóbens. Ott vagyunk a...","0","hóbensben","[""hóbensben"",""hóbensban""]","","posttest trial","8",""
"html-button-response-clever","148","939702","0.0-13.0-0.28","5069","Ez itt egy trincseg. Ott vagyunk a...","0","trincsegben","[""trincsegben"",""trincsegban""]","","posttest trial","8",""
"html-button-response-clever","149","943020","0.0-13.0-0.29","2805","Ez itt egy kábesz. Nincs is jobb egy jó...","1","kábesznél","[""kábesznál"",""kábesznél""]","","posttest trial","8",""
"html-button-response-clever","150","947102","0.0-13.0-0.30","3568","Ez itt egy prately. Elneveztem a kutyámat...","0","pratelynek","[""pratelynek"",""pratelynak""]","","posttest trial","8",""
"html-button-response-clever","151","951141","0.0-13.0-0.31","3527","Ez itt egy júder. Elneveztem a kutyámat...","0","júdernek","[""júdernek"",""júdernak""]","","posttest trial","8",""
"html-button-response-clever","152","954874","0.0-13.0-0.32","3214","Ez itt egy vodép. Elneveztem a kutyámat...","1","vodépnek","[""vodépnak"",""vodépnek""]","","posttest trial","8",""
"html-button-response-clever","153","960134","0.0-13.0-0.33","4757","Ez itt egy brotes. Ott vagyunk a...","1","brotesben","[""brotesban"",""brotesben""]","","posttest trial","8",""
"html-button-response-clever","154","965172","0.0-13.0-0.34","4535","Ez itt egy fincek. Nincs is jobb egy jó...","0","finceknél","[""finceknél"",""finceknál""]","","posttest trial","8",""
"html-button-response-clever","155","969548","0.0-13.0-0.35","3866","Ez itt egy trapszegy. Nincs is jobb egy jó...","1","trapszegynél","[""trapszegynál"",""trapszegynél""]","","posttest trial","8",""
"html-button-response-clever","156","973782","0.0-13.0-0.36","3717","Ez itt egy jorzég. Elneveztem a kutyámat...","0","jorzégnek","[""jorzégnek"",""jorzégnak""]","","posttest trial","8",""
"html-button-response-clever","157","976409","0.0-13.0-0.37","2111","Ez itt egy nidét. Ott vagyunk a...","0","nidétben","[""nidétben"",""nidétban""]","","posttest trial","8",""
"html-button-response-clever","158","978917","0.0-13.0-0.38","2005","Ez itt egy ikszert. Ott vagyunk a...","1","ikszertben","[""ikszertban"",""ikszertben""]","","posttest trial","8",""
"html-button-response-clever","159","982813","0.0-13.0-0.39","3390","Ez itt egy matéz. Ott vagyunk a...","0","matézben","[""matézben"",""matézban""]","","posttest trial","8",""
"html-button-response-clever","160","987627","0.0-13.0-0.40","4305","Ez itt egy kadér. Nincs is jobb egy jó...","1","kadérnél","[""kadérnál"",""kadérnél""]","","posttest trial","8",""
"html-button-response-clever","161","991193","0.0-13.0-0.41","3054","Ez itt egy bidem. Ott vagyunk a...","0","bidemben","[""bidemben"",""bidemban""]","","posttest trial","8",""
"html-button-response-clever","162","994907","0.0-13.0-0.42","3211","Ez itt egy kliszer. Nincs is jobb egy jó...","0","kliszernél","[""kliszernél"",""kliszernál""]","","posttest trial","8",""
"html-button-response-clever","163","998790","0.0-13.0-0.43","3375","Ez itt egy trigenc. Elneveztem a kutyámat...","0","trigencnek","[""trigencnek"",""trigencnak""]","","posttest trial","8",""
"html-button-response-clever","164","1002657","0.0-13.0-0.44","3356","Ez itt egy navec. Ott vagyunk a...","0","navecben","[""navecben"",""navecban""]","","posttest trial","8",""
"html-button-response-clever","165","1010032","0.0-13.0-0.45","6858","Ez itt egy nyarcéj. Elneveztem a kutyámat...","0","nyarcéjnek","[""nyarcéjnek"",""nyarcéjnak""]","","posttest trial","8",""
"html-button-response-clever","166","1013115","0.0-13.0-0.46","2565","Ez itt egy brigeszt. Elneveztem a kutyámat...","0","brigesztnek","[""brigesztnek"",""brigesztnak""]","","posttest trial","8",""
"html-button-response-clever","167","1016709","0.0-13.0-0.47","3072","Ez itt egy spáten. Elneveztem a kutyámat...","1","spátennek","[""spátennak"",""spátennek""]","","posttest trial","8",""
"html-button-response-clever","168","1019817","0.0-13.0-0.48","2602","Ez itt egy vublet. Nincs is jobb egy jó...","0","vubletnél","[""vubletnél"",""vubletnál""]","","posttest trial","8",""
"html-button-response-clever","169","1023897","0.0-13.0-0.49","3569","Ez itt egy csartény. Elneveztem a kutyámat...","0","csarténynek","[""csarténynek"",""csarténynak""]","","posttest trial","8",""
"html-button-response-clever","170","1029531","0.0-13.0-0.50","5122","Ez itt egy szutend. Ott vagyunk a...","1","szutendben","[""szutendban"",""szutendben""]","","posttest trial","8",""
"html-button-response-clever","171","1033510","0.0-13.0-0.51","3478","Ez itt egy dingec. Elneveztem a kutyámat...","1","dingecnek","[""dingecnak"",""dingecnek""]","","posttest trial","8",""
"html-button-response-clever","172","1036649","0.0-13.0-0.52","2633","Ez itt egy brukész. Nincs is jobb egy jó...","1","brukésznél","[""brukésznál"",""brukésznél""]","","posttest trial","8",""
"html-button-response-clever","173","1040350","0.0-13.0-0.53","3195","Ez itt egy csimen. Nincs is jobb egy jó...","0","csimennél","[""csimennél"",""csimennál""]","","posttest trial","8",""
"html-button-response","174","1046179","0.0-14.0","5313","<p> Vége a játéknak. A teljes pontszámod 33/54.</p><p> Szép munka! &#128526;&#128526;&#128526;</p><p>A Befejezés gomb megnyomása után bezárhatod a böngészőablakot.</p>","0","","","","","",""
"html-keyboard-response","175","1051699","0.0-15.0","null","<div class=""message"">
         <p>Egy kis türelmet kérünk, amíg elmentjük az adatokat...</p>
         </div>","null","","","","","",""
