"trial_type","trial_index","time_elapsed","internal_node_id","rt","stimulus","response","response_string","choices","esp_response","trial_kind","list_number","esp_match"
"pavlovia","0","899","0.0-0.0","","","","","","","","",""
"html-button-response","1","35948","0.0-1.0","34540","<p>Kedves Résztvevő! A Budapesti Műszaki és Gazdaságtudományi Egyetem Kognitív Tudományi Tanszékének kutatásában való részvételed kérjük. A kutatásban azt vizsgáljuk, hogy a magyar anyanyelvűek hogyan használnak bizonyos szóalakokat, és hogy milyen képük van arról, hogy mások hogyan használják, hogyan képzik a szavakat. Ez hozzásegít bennünket ahhoz, hogy jobban megértsük, hogyan dolgozza fel és tárolja a nyelvet az emberi agy, és hogyan működnek, hogyan változnak egy adott közösség nyelvi konvenciói.</p><p>A vizsgálat egy rövid számítógépes feladatból fog állni. A kutatásban való részvétel önkéntes, a részvételi szándék bármikor visszavonható. A résztvevők eredményeit név nélkül kezeljük, így nem beazonosíthatók az adatok feldolgozása során. Minden személyes adatot az EU általános adatvédelmi rendeletének (GDPR) megfelelően kezelünk és legfeljebb öt éven belül megsemmisítünk. A vizsgálat jellemzően húsz percet vesz igénybe.</p><p>Kutatásvezető:</p><p>Dr. Rácz Péter, tudományos munkatárs, BME KTT</p><p>e-mail: racz.peter.marton@ttk.bme.hu</p>","0","","","","","",""
"html-button-response","2","89635","0.0-2.0","53175","<p>A kísérletben szavakat fogsz látni. Ezek között lesznek olyanok, amelyeket ismersz, de előfordulhatnak olyanok is, amelyeket nem ismersz, sőt, vannak köztük kitalált szavak is. Minden szónál látni fogsz toldalékolt alakokat. A te feladatod az lesz, hogy minden szóhoz kiválaszd azt a toldalékolt alakot, amely a te számodra ismerősebben, természetesebben hangzik. Rossz válaszok nincsenek, mert van olyan, hogy különböző embereknek más és más szó tűnik jobb választásnak. A választ úgy tudod majd kiválasztani, ha rákattintasz.</p><p>Ebben a szóválasztós játékban egy másik játékossal együtt veszel majd részt. A másik játékos is minden esetben azok közül a lehetőségek közül válogathat, mint te. Kettőtök feladata az, hogy ugyanazt a lehetőséget válasszátok minden esetben. Ahhoz, hogy ez sikerüljön, neked figyelned kell arra, hogy a másik játékos milyen válaszokat ad, és ennek alapján meg kell tippelned, hogyan választ legközelebb. Ha eltalálod, akkor pontot kapsz.</p>","0","","","","","",""
"html-button-response","3","110642","0.0-3.0","20503","<p>Kérjük, olvasd el az alábbi nyilatkozatot, és amennyiben egyetértesz vele, nyomj a Beleegyezés gombra!</p><p>Kijelentem, hogy magyar anyanyelvű személyként önként veszek részt a BME KTT kísérletében. A kutatás céljával és folyamatával kapcsolatban elegendő tájékoztatást kaptam, lehetőségem volt kérdések feltételére, és esetleges kérdéseimre megfelelő válaszokat kaptam. A tájékoztatás alapján elegendő mennyiségű információ áll a rendelkezésemre, hogy eldönthessem, részt kívánok-e venni a kutatásban.</p><p>Tisztában vagyok vele, hogy részvételi szándékomat és adataimat bármikor, indoklás nélkül visszavonhatom.</p><p>Értem és tudomásul veszem, hogy a kutatás tudományos célokat szolgál, és az általam szolgáltatott adatokat a BME kizárólag kutatási célból használja fel. Tudomásul veszem, hogy eredményeimet a többi résztvevő eredményeivel együtt kezelik, így egyéni teljesítményemről visszajelzést, szakvéleményt nem kapok.</p><p>Megértettem, hogy adataim kezelését illetően a BME az EU általános adatvédelmi rendelete (GDPR), a hatályos adatvédelmi törvény és a nemzetközi kutatás-etikai alapelvek szerint jár el. Eredményeim anonim módon kerülnek feldolgozásra, és a kutatás résztvevői az azonosításomra alkalmas adataimat harmadik félnek nem szolgáltatják ki. Engedélyezem a BME számára a jelen kutatásban felvett adataim feldolgozását és tárolását, beleértve azok későbbi kutatásokhoz való felhasználását is. Személyes adataim kezelésével kapcsolatban tájékoztatást kérhetek a kutatás résztvevőitől, az adatkezelés ellen tiltakozhatok, kérhetem személyes adataim helyesbítését, törlését vagy zárolását, valamint jogorvoslatért a Nemzeti Adatvédelmi és Információszabadság Hatósághoz fordulhatok.</p><p>Kijelentem, hogy a kutatásban való részvételem körülményeiről részletes tájékoztatást kaptam, és a feltételeket elfogadom.</p>","0","","","","","",""
"survey-text","4","151887","0.0-4.0","40730","","{""Q0"":""APBJ28"",""Q1"":""férfi"",""Q2"":""1999"",""Q3"":""16""}","","","","","",""
"html-button-response","5","176450","0.0-5.0","24042","<p>Ebben a játékban szavakat kell toldalékolni.</p> <p>Minden körben mutatunk majd egy példamondatot, amiben lesz egy szó.</p> <p>Alatta jön egy második mondat, ezt a mondatot neked kell majd befejezni, ugyanezzel a szóval.</p> <p>Nem biztos, hogy a szó eleve ismerős lesz számodra!</p> <p>Minden mondathoz adunk két lehetőséget, ezeket balra és jobbra látod majd.</p> <p>A játék kb. negyedóráig-húsz percig tart.</p>","0","","","","","",""
"html-button-response","6","199522","0.0-6.0","22552","<p>Nézzünk egy példát!</p> <p>A példamondat: ""János nagyon szeret rancsúrozni.""</p><p>Neked ezt a mondatot kell befejezned: ""Én is szívesen...""</p><p>A lehetőségek pedig ezek:</p>","1","","","","","",""
"html-button-response","7","256258","0.0-7.0","56229","<p>Nagyon jó.</p><p>Ezt a játékot nem egyedül fogod játszani, hanem egy másik játékossal.</p><p>Mielőtt továbblépünk, összekapcsolunk titeket egymással.</p><p>Ez igénybe vehet néhány másodpercet, amihez szíves türelmed kérjük.</p>","0","","","","","",""
"html-button-response","8","262016","0.0-8.0","null","<p>Csatlakozás a másik játékoshoz...</p>","null","","","","","",""
"html-button-response","9","264550","0.0-9.0","null","<p> Sikeres kapcsolódás!</p>","null","","","","","",""
"html-button-response","10","275079","0.0-10.0","null","<p>A következőkben ketten játsszátok a szóválasztós játékot.</p><p>A feladatotok az lesz, hogy minden körben <b>ugyanazt</b> a szót válasszátok.</p><p>Minden ilyen egyező válaszért pontot kaptok.</p><p>Próbáld meg kitalálni, mit választ a másik játékos!</p><p>Bármikor választhatsz, a körnek akkor van vége, ha mindketten döntöttetek.</p><p>Sok sikert!</p>","null","","","","","",""
"html-button-response-esp","11","284902","0.0-11.0-0.0","9313","Te bizony sokat flátszol. Én is sokat...","1","flátszom","[""flátszok"",""flátszom""]","flátszom","esp trial","7","true"
"html-button-response","12","288425","0.0-11.0-1.0","null","<p>A másik játékos ezt választotta: <b>flátszom</b>.</p><p>&#x2705;</p><p>A te válaszod és a másik játékos válasza <b>megegyeznek</b>.</p>","null","","","","feedback trial","",""
"html-button-response-esp","13","296846","0.0-11.0-0.1","4875","Te bizony sokat gyibeslesz. Én is sokat...","1","gyibeslek","[""gyibeslem"",""gyibeslek""]","gyibeslem","esp trial","7","false"
"html-button-response","14","300374","0.0-11.0-1.1","null","<p>A másik játékos ezt választotta: <b>gyibeslem</b>.</p><p>&#10060;</p><p>A válaszaitok <b>nem</b> egyeznek meg.</p>","null","","","","feedback trial","",""
"html-button-response-esp","15","308796","0.0-11.0-0.2","7771","Te bizony sokat lörűdzöl. Én is sokat...","0","lörűdzöm","[""lörűdzöm"",""lörűdzök""]","lörűdzöm","esp trial","7","true"
"html-button-response","16","312311","0.0-11.0-1.2","null","<p>A másik játékos ezt választotta: <b>lörűdzöm</b>.</p><p>&#x2705;</p><p>A te válaszod és a másik játékos válasza <b>megegyeznek</b>.</p>","null","","","","feedback trial","",""
"html-button-response-esp","17","321898","0.0-11.0-0.3","9080","Te bizony sokat spüjzöl. Én is sokat...","0","spüjzök","[""spüjzök"",""spüjzöm""]","spüjzök","esp trial","7","true"
"html-button-response","18","325420","0.0-11.0-1.3","null","<p>A másik játékos ezt választotta: <b>spüjzök</b>.</p><p>&#x2705;</p><p>A te válaszod és a másik játékos válasza <b>megegyeznek</b>.</p>","null","","","","feedback trial","",""
"html-button-response-esp","19","334898","0.0-11.0-0.4","8975","Te bizony sokat szibánylasz. Én is sokat...","1","szibánylok","[""szibánylom"",""szibánylok""]","szibánylok","esp trial","7","true"
"html-button-response","20","338430","0.0-11.0-1.4","null","<p>A másik játékos ezt választotta: <b>szibánylok</b>.</p><p>&#x2705;</p><p>A te válaszod és a másik játékos válasza <b>megegyeznek</b>.</p>","null","","","","feedback trial","",""
"html-button-response-esp","21","346847","0.0-11.0-0.5","5588","Te bizony sokat spubonylasz. Én is sokat...","1","spubonylok","[""spubonylom"",""spubonylok""]","spubonylok","esp trial","7","true"
"html-button-response","22","350376","0.0-11.0-1.5","null","<p>A másik játékos ezt választotta: <b>spubonylok</b>.</p><p>&#x2705;</p><p>A te válaszod és a másik játékos válasza <b>megegyeznek</b>.</p>","null","","","","feedback trial","",""
"html-button-response-esp","23","358801","0.0-11.0-0.6","3288","Te bizony sokat tragzol. Én is sokat...","1","tragzom","[""tragzok"",""tragzom""]","tragzom","esp trial","7","true"
"html-button-response","24","362317","0.0-11.0-1.6","null","<p>A másik játékos ezt választotta: <b>tragzom</b>.</p><p>&#x2705;</p><p>A te válaszod és a másik játékos válasza <b>megegyeznek</b>.</p>","null","","","","feedback trial","",""
"html-button-response-esp","25","370737","0.0-11.0-0.7","5770","Te bizony sokat spröbzöl. Én is sokat...","0","spröbzöm","[""spröbzöm"",""spröbzök""]","spröbzöm","esp trial","7","true"
"html-button-response","26","374263","0.0-11.0-1.7","null","<p>A másik játékos ezt választotta: <b>spröbzöm</b>.</p><p>&#x2705;</p><p>A te válaszod és a másik játékos válasza <b>megegyeznek</b>.</p>","null","","","","feedback trial","",""
"html-button-response-esp","27","382672","0.0-11.0-0.8","2641","Te bizony sokat hűgzöl. Én is sokat...","1","hűgzöm","[""hűgzök"",""hűgzöm""]","hűgzöm","esp trial","7","true"
"html-button-response","28","386198","0.0-11.0-1.8","null","<p>A másik játékos ezt választotta: <b>hűgzöm</b>.</p><p>&#x2705;</p><p>A te válaszod és a másik játékos válasza <b>megegyeznek</b>.</p>","null","","","","feedback trial","",""
"html-button-response-esp","29","394615","0.0-11.0-0.9","3526","Te bizony sokat narádzol. Én is sokat...","1","narádzom","[""narádzok"",""narádzom""]","narádzom","esp trial","7","true"
"html-button-response","30","398152","0.0-11.0-1.9","null","<p>A másik játékos ezt választotta: <b>narádzom</b>.</p><p>&#x2705;</p><p>A te válaszod és a másik játékos válasza <b>megegyeznek</b>.</p>","null","","","","feedback trial","",""
"html-button-response-esp","31","406564","0.0-11.0-0.10","2848","Te bizony sokat ibékszel. Én is sokat...","1","ibékszem","[""ibékszek"",""ibékszem""]","ibékszem","esp trial","7","true"
"html-button-response","32","410092","0.0-11.0-1.10","null","<p>A másik játékos ezt választotta: <b>ibékszem</b>.</p><p>&#x2705;</p><p>A te válaszod és a másik játékos válasza <b>megegyeznek</b>.</p>","null","","","","feedback trial","",""
"html-button-response-esp","33","418505","0.0-11.0-0.11","3625","Te bizony sokat bivégszel. Én is sokat...","1","bivégszem","[""bivégszek"",""bivégszem""]","bivégszem","esp trial","7","true"
"html-button-response","34","422031","0.0-11.0-1.11","null","<p>A másik játékos ezt választotta: <b>bivégszem</b>.</p><p>&#x2705;</p><p>A te válaszod és a másik játékos válasza <b>megegyeznek</b>.</p>","null","","","","feedback trial","",""
"html-button-response-esp","35","430442","0.0-11.0-0.12","3123","Te bizony sokat düjzöl. Én is sokat...","1","düjzök","[""düjzöm"",""düjzök""]","düjzöm","esp trial","7","false"
"html-button-response","36","433957","0.0-11.0-1.12","null","<p>A másik játékos ezt választotta: <b>düjzöm</b>.</p><p>&#10060;</p><p>A válaszaitok <b>nem</b> egyeznek meg.</p>","null","","","","feedback trial","",""
"html-button-response-esp","37","442393","0.0-11.0-0.13","3454","Te bizony sokat trádlasz. Én is sokat...","1","trádlom","[""trádlok"",""trádlom""]","trádlom","esp trial","7","true"
"html-button-response","38","445927","0.0-11.0-1.13","null","<p>A másik játékos ezt választotta: <b>trádlom</b>.</p><p>&#x2705;</p><p>A te válaszod és a másik játékos válasza <b>megegyeznek</b>.</p>","null","","","","feedback trial","",""
"html-button-response-esp","39","454331","0.0-11.0-0.14","3058","Te bizony sokat brivegzel. Én is sokat...","1","brivegzem","[""brivegzek"",""brivegzem""]","brivegzem","esp trial","7","true"
"html-button-response","40","457858","0.0-11.0-1.14","null","<p>A másik játékos ezt választotta: <b>brivegzem</b>.</p><p>&#x2705;</p><p>A te válaszod és a másik játékos válasza <b>megegyeznek</b>.</p>","null","","","","feedback trial","",""
"html-button-response-esp","41","466276","0.0-11.0-0.15","4168","Te bizony sokat flehékszel. Én is sokat...","1","flehékszem","[""flehékszek"",""flehékszem""]","flehékszem","esp trial","7","true"
"html-button-response","42","470732","0.0-11.0-1.15","null","<p>A másik játékos ezt választotta: <b>flehékszem</b>.</p><p>&#x2705;</p><p>A te válaszod és a másik játékos válasza <b>megegyeznek</b>.</p>","null","","","","feedback trial","",""
"html-button-response-esp","43","482966","0.0-11.0-0.16","11238","Te bizony sokat jonylasz. Én is sokat...","0","jonylok","[""jonylok"",""jonylom""]","jonylok","esp trial","7","true"
"html-button-response","44","486488","0.0-11.0-1.16","null","<p>A másik játékos ezt választotta: <b>jonylok</b>.</p><p>&#x2705;</p><p>A te válaszod és a másik játékos válasza <b>megegyeznek</b>.</p>","null","","","","feedback trial","",""
"html-button-response-esp","45","494899","0.0-11.0-0.17","2206","Te bizony sokat treglesz. Én is sokat...","1","treglem","[""treglek"",""treglem""]","treglek","esp trial","7","false"
"html-button-response","46","498417","0.0-11.0-1.17","null","<p>A másik játékos ezt választotta: <b>treglek</b>.</p><p>&#10060;</p><p>A válaszaitok <b>nem</b> egyeznek meg.</p>","null","","","","feedback trial","",""
"html-button-response-esp","47","506830","0.0-11.0-0.18","5282","Te bizony sokat frodlasz. Én is sokat...","1","frodlok","[""frodlom"",""frodlok""]","frodlom","esp trial","7","false"
"html-button-response","48","510358","0.0-11.0-1.18","null","<p>A másik játékos ezt választotta: <b>frodlom</b>.</p><p>&#10060;</p><p>A válaszaitok <b>nem</b> egyeznek meg.</p>","null","","","","feedback trial","",""
"html-button-response-esp","49","518774","0.0-11.0-0.19","3567","Te bizony sokat bihánylasz. Én is sokat...","1","bihánylok","[""bihánylom"",""bihánylok""]","bihánylok","esp trial","7","true"
"html-button-response","50","522290","0.0-11.0-1.19","null","<p>A másik játékos ezt választotta: <b>bihánylok</b>.</p><p>&#x2705;</p><p>A te válaszod és a másik játékos válasza <b>megegyeznek</b>.</p>","null","","","","feedback trial","",""
"html-button-response-esp","51","530706","0.0-11.0-0.20","2297","Te bizony sokat bűtszöl. Én is sokat...","0","bűtszöm","[""bűtszöm"",""bűtszök""]","bűtszöm","esp trial","7","true"
"html-button-response","52","534239","0.0-11.0-1.20","null","<p>A másik játékos ezt választotta: <b>bűtszöm</b>.</p><p>&#x2705;</p><p>A te válaszod és a másik játékos válasza <b>megegyeznek</b>.</p>","null","","","","feedback trial","",""
"html-button-response-esp","53","542732","0.0-11.0-0.21","3692","Te bizony sokat filágzol. Én is sokat...","0","filágzom","[""filágzom"",""filágzok""]","filágzom","esp trial","7","true"
"html-button-response","54","546751","0.0-11.0-1.21","null","<p>A másik játékos ezt választotta: <b>filágzom</b>.</p><p>&#x2705;</p><p>A te válaszod és a másik játékos válasza <b>megegyeznek</b>.</p>","null","","","","feedback trial","",""
"html-button-response-esp","55","555722","0.0-11.0-0.22","2921","Te bizony sokat sztrijzol. Én is sokat...","0","sztrijzom","[""sztrijzom"",""sztrijzok""]","sztrijzom","esp trial","7","true"
"html-button-response","56","560732","0.0-11.0-1.22","null","<p>A másik játékos ezt választotta: <b>sztrijzom</b>.</p><p>&#x2705;</p><p>A te válaszod és a másik játékos válasza <b>megegyeznek</b>.</p>","null","","","","feedback trial","",""
"html-button-response-esp","57","576422","0.0-11.0-0.23","14698","Te bizony sokat plűbzöl. Én is sokat...","1","plűbzöm","[""plűbzök"",""plűbzöm""]","plűbzöm","esp trial","7","true"
"html-button-response","58","579943","0.0-11.0-1.23","null","<p>A másik játékos ezt választotta: <b>plűbzöm</b>.</p><p>&#x2705;</p><p>A te válaszod és a másik játékos válasza <b>megegyeznek</b>.</p>","null","","","","feedback trial","",""
"html-button-response-esp","59","590370","0.0-11.0-0.24","9916","Te bizony sokat flehénylesz. Én is sokat...","0","flehénylek","[""flehénylek"",""flehénylem""]","flehénylek","esp trial","7","true"
"html-button-response","60","593892","0.0-11.0-1.24","null","<p>A másik játékos ezt választotta: <b>flehénylek</b>.</p><p>&#x2705;</p><p>A te válaszod és a másik játékos válasza <b>megegyeznek</b>.</p>","null","","","","feedback trial","",""
"html-button-response-esp","61","602300","0.0-11.0-0.25","2263","Te bizony sokat sztrozlasz. Én is sokat...","1","sztrozlom","[""sztrozlok"",""sztrozlom""]","sztrozlom","esp trial","7","true"
"html-button-response","62","605826","0.0-11.0-1.25","null","<p>A másik játékos ezt választotta: <b>sztrozlom</b>.</p><p>&#x2705;</p><p>A te válaszod és a másik játékos válasza <b>megegyeznek</b>.</p>","null","","","","feedback trial","",""
"html-button-response-esp","63","614244","0.0-11.0-0.26","2327","Te bizony sokat prínylasz. Én is sokat...","1","prínylok","[""prínylom"",""prínylok""]","prínylom","esp trial","7","false"
"html-button-response","64","618732","0.0-11.0-1.26","null","<p>A másik játékos ezt választotta: <b>prínylom</b>.</p><p>&#10060;</p><p>A válaszaitok <b>nem</b> egyeznek meg.</p>","null","","","","feedback trial","",""
"html-button-response-esp","65","640474","0.0-11.0-0.27","20749","Te bizony sokat vülődzöl. Én is sokat...","1","vülődzök","[""vülődzöm"",""vülődzök""]","vülődzöm","esp trial","7","false"
"html-button-response","66","643997","0.0-11.0-1.27","null","<p>A másik játékos ezt választotta: <b>vülődzöm</b>.</p><p>&#10060;</p><p>A válaszaitok <b>nem</b> egyeznek meg.</p>","null","","","","feedback trial","",""
"html-button-response-esp","67","652402","0.0-11.0-0.28","2075","Te bizony sokat klivaslasz. Én is sokat...","1","klivaslom","[""klivaslok"",""klivaslom""]","klivaslok","esp trial","7","false"
"html-button-response","68","655914","0.0-11.0-1.28","null","<p>A másik játékos ezt választotta: <b>klivaslok</b>.</p><p>&#10060;</p><p>A válaszaitok <b>nem</b> egyeznek meg.</p>","null","","","","feedback trial","",""
"html-button-response-esp","69","664331","0.0-11.0-0.29","2774","Te bizony sokat rokszol. Én is sokat...","0","rokszom","[""rokszom"",""rokszok""]","rokszom","esp trial","7","true"
"html-button-response","70","667857","0.0-11.0-1.29","null","<p>A másik játékos ezt választotta: <b>rokszom</b>.</p><p>&#x2705;</p><p>A te válaszod és a másik játékos válasza <b>megegyeznek</b>.</p>","null","","","","feedback trial","",""
"html-button-response-esp","71","678534","0.0-11.0-0.30","10166","Te bizony sokat nűröklesz. Én is sokat...","0","nűröklöm","[""nűröklöm"",""nűröklök""]","nűröklöm","esp trial","7","true"
"html-button-response","72","682732","0.0-11.0-1.30","null","<p>A másik játékos ezt választotta: <b>nűröklöm</b>.</p><p>&#x2705;</p><p>A te válaszod és a másik játékos válasza <b>megegyeznek</b>.</p>","null","","","","feedback trial","",""
"html-button-response-esp","73","691449","0.0-11.0-0.31","3308","Te bizony sokat pítszol. Én is sokat...","0","pítszom","[""pítszom"",""pítszok""]","pítszom","esp trial","7","true"
"html-button-response","74","694975","0.0-11.0-1.31","null","<p>A másik játékos ezt választotta: <b>pítszom</b>.</p><p>&#x2705;</p><p>A te válaszod és a másik játékos válasza <b>megegyeznek</b>.</p>","null","","","","feedback trial","",""
"html-button-response-esp","75","703400","0.0-11.0-0.32","4926","Te bizony sokat flűmlesz. Én is sokat...","0","flűmlök","[""flűmlök"",""flűmlöm""]","flűmlök","esp trial","7","true"
"html-button-response","76","706928","0.0-11.0-1.32","null","<p>A másik játékos ezt választotta: <b>flűmlök</b>.</p><p>&#x2705;</p><p>A te válaszod és a másik játékos válasza <b>megegyeznek</b>.</p>","null","","","","feedback trial","",""
"html-button-response-esp","77","715351","0.0-11.0-0.33","2312","Te bizony sokat salárzol. Én is sokat...","0","salárzom","[""salárzom"",""salárzok""]","salárzom","esp trial","7","true"
"html-button-response","78","718868","0.0-11.0-1.33","null","<p>A másik játékos ezt választotta: <b>salárzom</b>.</p><p>&#x2705;</p><p>A te válaszod és a másik játékos válasza <b>megegyeznek</b>.</p>","null","","","","feedback trial","",""
"html-button-response-esp","79","727277","0.0-11.0-0.34","3262","Te bizony sokat rájzol. Én is sokat...","1","rájzom","[""rájzok"",""rájzom""]","rájzom","esp trial","7","true"
"html-button-response","80","731736","0.0-11.0-1.34","null","<p>A másik játékos ezt választotta: <b>rájzom</b>.</p><p>&#x2705;</p><p>A te válaszod és a másik játékos válasza <b>megegyeznek</b>.</p>","null","","","","feedback trial","",""
"html-button-response-esp","81","740621","0.0-11.0-0.35","5156","Te bizony sokat klétszel. Én is sokat...","1","klétszem","[""klétszek"",""klétszem""]","klétszem","esp trial","7","true"
"html-button-response","82","744139","0.0-11.0-1.35","null","<p>A másik játékos ezt választotta: <b>klétszem</b>.</p><p>&#x2705;</p><p>A te válaszod és a másik játékos válasza <b>megegyeznek</b>.</p>","null","","","","feedback trial","",""
"html-button-response-esp","83","755254","0.0-11.0-0.36","10602","Te bizony sokat brubzol. Én is sokat...","1","brubzom","[""brubzok"",""brubzom""]","brubzom","esp trial","7","true"
"html-button-response","84","758775","0.0-11.0-1.36","null","<p>A másik játékos ezt választotta: <b>brubzom</b>.</p><p>&#x2705;</p><p>A te válaszod és a másik játékos válasza <b>megegyeznek</b>.</p>","null","","","","feedback trial","",""
"html-button-response-esp","85","767725","0.0-11.0-0.37","2498","Te bizony sokat píjlasz. Én is sokat...","0","píjlom","[""píjlom"",""píjlok""]","píjlom","esp trial","7","true"
"html-button-response","86","772726","0.0-11.0-1.37","null","<p>A másik játékos ezt választotta: <b>píjlom</b>.</p><p>&#x2705;</p><p>A te válaszod és a másik játékos válasza <b>megegyeznek</b>.</p>","null","","","","feedback trial","",""
"html-button-response-esp","87","784494","0.0-11.0-0.38","10758","Te bizony sokat vanylasz. Én is sokat...","1","vanylok","[""vanylom"",""vanylok""]","vanylok","esp trial","7","true"
"html-button-response","88","788026","0.0-11.0-1.38","null","<p>A másik játékos ezt választotta: <b>vanylok</b>.</p><p>&#x2705;</p><p>A te válaszod és a másik játékos válasza <b>megegyeznek</b>.</p>","null","","","","feedback trial","",""
"html-button-response-esp","89","796426","0.0-11.0-0.39","2327","Te bizony sokat klaráglasz. Én is sokat...","1","klaráglom","[""klaráglok"",""klaráglom""]","klaráglok","esp trial","7","false"
"html-button-response","90","799944","0.0-11.0-1.39","null","<p>A másik játékos ezt választotta: <b>klaráglok</b>.</p><p>&#10060;</p><p>A válaszaitok <b>nem</b> egyeznek meg.</p>","null","","","","feedback trial","",""
"html-button-response-esp","91","808356","0.0-11.0-0.40","3554","Te bizony sokat spihemlesz. Én is sokat...","1","spihemlek","[""spihemlem"",""spihemlek""]","spihemlek","esp trial","7","true"
"html-button-response","92","811881","0.0-11.0-1.40","null","<p>A másik játékos ezt választotta: <b>spihemlek</b>.</p><p>&#x2705;</p><p>A te válaszod és a másik játékos válasza <b>megegyeznek</b>.</p>","null","","","","feedback trial","",""
"html-button-response-esp","93","820295","0.0-11.0-0.41","2981","Te bizony sokat plugzol. Én is sokat...","0","plugzom","[""plugzom"",""plugzok""]","plugzom","esp trial","7","true"
"html-button-response","94","823818","0.0-11.0-1.41","null","<p>A másik játékos ezt választotta: <b>plugzom</b>.</p><p>&#x2705;</p><p>A te válaszod és a másik játékos válasza <b>megegyeznek</b>.</p>","null","","","","feedback trial","",""
"html-button-response-esp","95","832229","0.0-11.0-0.42","2362","Te bizony sokat huroslasz. Én is sokat...","1","huroslom","[""huroslok"",""huroslom""]","huroslok","esp trial","7","false"
"html-button-response","96","835747","0.0-11.0-1.42","null","<p>A másik játékos ezt választotta: <b>huroslok</b>.</p><p>&#10060;</p><p>A válaszaitok <b>nem</b> egyeznek meg.</p>","null","","","","feedback trial","",""
"html-button-response-esp","97","844166","0.0-11.0-0.43","4200","Te bizony sokat pribemlesz. Én is sokat...","1","pribemlek","[""pribemlem"",""pribemlek""]","pribemlek","esp trial","7","true"
"html-button-response","98","847681","0.0-11.0-1.43","null","<p>A másik játékos ezt választotta: <b>pribemlek</b>.</p><p>&#x2705;</p><p>A te válaszod és a másik játékos válasza <b>megegyeznek</b>.</p>","null","","","","feedback trial","",""
"html-button-response-esp","99","856091","0.0-11.0-0.44","3389","Te bizony sokat figlasz. Én is sokat...","1","figlok","[""figlom"",""figlok""]","figlom","esp trial","7","false"
"html-button-response","100","859624","0.0-11.0-1.44","null","<p>A másik játékos ezt választotta: <b>figlom</b>.</p><p>&#10060;</p><p>A válaszaitok <b>nem</b> egyeznek meg.</p>","null","","","","feedback trial","",""
"html-button-response-esp","101","868038","0.0-11.0-0.45","2136","Te bizony sokat trehégszel. Én is sokat...","1","trehégszem","[""trehégszek"",""trehégszem""]","trehégszem","esp trial","7","true"
"html-button-response","102","871555","0.0-11.0-1.45","null","<p>A másik játékos ezt választotta: <b>trehégszem</b>.</p><p>&#x2705;</p><p>A te válaszod és a másik játékos válasza <b>megegyeznek</b>.</p>","null","","","","feedback trial","",""
"html-button-response-esp","103","881174","0.0-11.0-0.46","9104","Te bizony sokat flitlasz. Én is sokat...","1","flitlom","[""flitlok"",""flitlom""]","flitlok","esp trial","7","false"
"html-button-response","104","884703","0.0-11.0-1.46","null","<p>A másik játékos ezt választotta: <b>flitlok</b>.</p><p>&#10060;</p><p>A válaszaitok <b>nem</b> egyeznek meg.</p>","null","","","","feedback trial","",""
"html-button-response-esp","105","893123","0.0-11.0-0.47","6257","Te bizony sokat sztrűkszöl. Én is sokat...","1","sztrűkszöm","[""sztrűkszök"",""sztrűkszöm""]","sztrűkszöm","esp trial","7","true"
"html-button-response","106","896647","0.0-11.0-1.47","null","<p>A másik játékos ezt választotta: <b>sztrűkszöm</b>.</p><p>&#x2705;</p><p>A te válaszod és a másik játékos válasza <b>megegyeznek</b>.</p>","null","","","","feedback trial","",""
"html-button-response-esp","107","905064","0.0-11.0-0.48","1695","Te bizony sokat brobódzol. Én is sokat...","1","brobódzom","[""brobódzok"",""brobódzom""]","brobódzom","esp trial","7","true"
"html-button-response","108","908587","0.0-11.0-1.48","null","<p>A másik játékos ezt választotta: <b>brobódzom</b>.</p><p>&#x2705;</p><p>A te válaszod és a másik játékos válasza <b>megegyeznek</b>.</p>","null","","","","feedback trial","",""
"html-button-response-esp","109","916993","0.0-11.0-0.49","2892","Te bizony sokat hurjorzol. Én is sokat...","0","hurjorzom","[""hurjorzom"",""hurjorzok""]","hurjorzom","esp trial","7","true"
"html-button-response","110","920515","0.0-11.0-1.49","null","<p>A másik játékos ezt választotta: <b>hurjorzom</b>.</p><p>&#x2705;</p><p>A te válaszod és a másik játékos válasza <b>megegyeznek</b>.</p>","null","","","","feedback trial","",""
"html-button-response-esp","111","939318","0.0-11.0-0.50","18289","Te bizony sokat spülűdzöl. Én is sokat...","1","spülűdzöm","[""spülűdzök"",""spülűdzöm""]","spülűdzöm","esp trial","7","true"
"html-button-response","112","942849","0.0-11.0-1.50","null","<p>A másik játékos ezt választotta: <b>spülűdzöm</b>.</p><p>&#x2705;</p><p>A te válaszod és a másik játékos válasza <b>megegyeznek</b>.</p>","null","","","","feedback trial","",""
"html-button-response-esp","113","964070","0.0-11.0-0.51","20707","Te bizony sokat spáraklasz. Én is sokat...","0","spáraklom","[""spáraklom"",""spáraklok""]","spáraklom","esp trial","7","true"
"html-button-response","114","967608","0.0-11.0-1.51","null","<p>A másik játékos ezt választotta: <b>spáraklom</b>.</p><p>&#x2705;</p><p>A te válaszod és a másik játékos válasza <b>megegyeznek</b>.</p>","null","","","","feedback trial","",""
"html-button-response-esp","115","976023","0.0-11.0-0.52","2326","Te bizony sokat pribagszol. Én is sokat...","1","pribagszom","[""pribagszok"",""pribagszom""]","pribagszom","esp trial","7","true"
"html-button-response","116","979545","0.0-11.0-1.52","null","<p>A másik játékos ezt választotta: <b>pribagszom</b>.</p><p>&#x2705;</p><p>A te válaszod és a másik játékos válasza <b>megegyeznek</b>.</p>","null","","","","feedback trial","",""
"html-button-response-esp","117","987957","0.0-11.0-0.53","2282","Te bizony sokat spihegzel. Én is sokat...","1","spihegzem","[""spihegzek"",""spihegzem""]","spihegzem","esp trial","7","true"
"html-button-response","118","991474","0.0-11.0-1.53","null","<p>A másik játékos ezt választotta: <b>spihegzem</b>.</p><p>&#x2705;</p><p>A te válaszod és a másik játékos válasza <b>megegyeznek</b>.</p>","null","","","","feedback trial","",""
"html-button-response","119","1104446","0.0-12.0","112455","<p>A közös játék most véget ért.</p><p>Mielőtt eláruljuk a végső pontszámodat, arra kérlek, játszd a szóválasztós játékot néhány percig egyedül is.</p><p>A feladatod ugyanaz lesz, választani két lehetőség közül.</p><p>Most viszont egyedül kell döntened, hogy te melyiket választanád.</p>","0","","","","","",""
"html-button-response-clever","120","1109698","0.0-13.0-0.0","4740","Te bizony sokat sprálszol. Én is sokat...","0","sprálszom","[""sprálszom"",""sprálszok""]","","posttest trial","8",""
"html-button-response-clever","121","1114805","0.0-13.0-0.1","4591","Te bizony sokat praslasz. Én is sokat...","1","praslok","[""praslom"",""praslok""]","","posttest trial","8",""
"html-button-response-clever","122","1118742","0.0-13.0-0.2","3426","Te bizony sokat spüszlesz. Én is sokat...","0","spüszlöm","[""spüszlöm"",""spüszlök""]","","posttest trial","8",""
"html-button-response-clever","123","1121386","0.0-13.0-0.3","2126","Te bizony sokat lihadzol. Én is sokat...","0","lihadzom","[""lihadzom"",""lihadzok""]","","posttest trial","8",""
"html-button-response-clever","124","1124826","0.0-13.0-0.4","2927","Te bizony sokat sprédlesz. Én is sokat...","1","sprédlek","[""sprédlem"",""sprédlek""]","","posttest trial","8",""
"html-button-response-clever","125","1129710","0.0-13.0-0.5","4374","Te bizony sokat gilárzol. Én is sokat...","1","gilárzom","[""gilárzok"",""gilárzom""]","","posttest trial","8",""
"html-button-response-clever","126","1137134","0.0-13.0-0.6","6915","Te bizony sokat pugoslasz. Én is sokat...","1","pugoslok","[""pugoslom"",""pugoslok""]","","posttest trial","8",""
"html-button-response-clever","127","1142058","0.0-13.0-0.7","4405","Te bizony sokat drügzöl. Én is sokat...","0","drügzök","[""drügzök"",""drügzöm""]","","posttest trial","8",""
"html-button-response-clever","128","1144030","0.0-13.0-0.8","1465","Te bizony sokat spibádzol. Én is sokat...","0","spibádzom","[""spibádzom"",""spibádzok""]","","posttest trial","8",""
"html-button-response-clever","129","1145954","0.0-13.0-0.9","1404","Te bizony sokat prezlesz. Én is sokat...","1","prezlem","[""prezlek"",""prezlem""]","","posttest trial","8",""
"html-button-response-clever","130","1147485","0.0-13.0-0.10","1014","Te bizony sokat prihekszel. Én is sokat...","1","prihekszem","[""prihekszek"",""prihekszem""]","","posttest trial","8",""
"html-button-response-clever","131","1150770","0.0-13.0-0.11","2779","Te bizony sokat zödlesz. Én is sokat...","1","zödlöm","[""zödlök"",""zödlöm""]","","posttest trial","8",""
"html-button-response-clever","132","1152910","0.0-13.0-0.12","1621","Te bizony sokat flözlesz. Én is sokat...","0","flözlöm","[""flözlöm"",""flözlök""]","","posttest trial","8",""
"html-button-response-clever","133","1156742","0.0-13.0-0.13","3314","Te bizony sokat frivajlasz. Én is sokat...","1","frivajlom","[""frivajlok"",""frivajlom""]","","posttest trial","8",""
"html-button-response-clever","134","1158926","0.0-13.0-0.14","1671","Te bizony sokat vűjlesz. Én is sokat...","1","vűjlök","[""vűjlöm"",""vűjlök""]","","posttest trial","8",""
"html-button-response-clever","135","1163550","0.0-13.0-0.15","4107","Te bizony sokat féjzel. Én is sokat...","0","féjzem","[""féjzem"",""féjzek""]","","posttest trial","8",""
"html-button-response-clever","136","1165642","0.0-13.0-0.16","1583","Te bizony sokat kumlasz. Én is sokat...","0","kumlok","[""kumlok"",""kumlom""]","","posttest trial","8",""
"html-button-response-clever","137","1167550","0.0-13.0-0.17","1401","Te bizony sokat tuboklasz. Én is sokat...","0","tuboklom","[""tuboklom"",""tuboklok""]","","posttest trial","8",""
"html-button-response-clever","138","1169866","0.0-13.0-0.18","1808","Te bizony sokat friszlasz. Én is sokat...","0","friszlom","[""friszlom"",""friszlok""]","","posttest trial","8",""
"html-button-response-clever","139","1172830","0.0-13.0-0.19","2450","Te bizony sokat frágapszol. Én is sokat...","1","frágapszom","[""frágapszok"",""frágapszom""]","","posttest trial","8",""
"html-button-response-clever","140","1175482","0.0-13.0-0.20","2137","Te bizony sokat fivénylesz. Én is sokat...","1","fivénylek","[""fivénylem"",""fivénylek""]","","posttest trial","8",""
"html-button-response-clever","141","1177054","0.0-13.0-0.21","1062","Te bizony sokat trihagzol. Én is sokat...","1","trihagzom","[""trihagzok"",""trihagzom""]","","posttest trial","8",""
"html-button-response-clever","142","1178994","0.0-13.0-0.22","1419","Te bizony sokat huklasz. Én is sokat...","0","huklom","[""huklom"",""huklok""]","","posttest trial","8",""
"html-button-response-clever","143","1181350","0.0-13.0-0.23","1852","Te bizony sokat bivejlesz. Én is sokat...","0","bivejlek","[""bivejlek"",""bivejlem""]","","posttest trial","8",""
"html-button-response-clever","144","1183658","0.0-13.0-0.24","1799","Te bizony sokat sztruglasz. Én is sokat...","0","sztruglom","[""sztruglom"",""sztruglok""]","","posttest trial","8",""
"html-button-response-clever","145","1187714","0.0-13.0-0.25","3550","Te bizony sokat ibáglasz. Én is sokat...","0","ibáglom","[""ibáglom"",""ibáglok""]","","posttest trial","8",""
"html-button-response-clever","146","1189870","0.0-13.0-0.26","1647","Te bizony sokat klidlasz. Én is sokat...","0","klidlom","[""klidlom"",""klidlok""]","","posttest trial","8",""
"html-button-response-clever","147","1193198","0.0-13.0-0.27","2815","Te bizony sokat vihepszel. Én is sokat...","0","vihepszem","[""vihepszem"",""vihepszek""]","","posttest trial","8",""
"html-button-response-clever","148","1194882","0.0-13.0-0.28","1172","Te bizony sokat fligzol. Én is sokat...","0","fligzom","[""fligzom"",""fligzok""]","","posttest trial","8",""
"html-button-response-clever","149","1197338","0.0-13.0-0.29","1947","Te bizony sokat klárzol. Én is sokat...","0","klárzom","[""klárzom"",""klárzok""]","","posttest trial","8",""
"html-button-response-clever","150","1199343","0.0-13.0-0.30","1487","Te bizony sokat prohódzol. Én is sokat...","1","prohódzom","[""prohódzok"",""prohódzom""]","","posttest trial","8",""
"html-button-response-clever","151","1201714","0.0-13.0-0.31","1854","Te bizony sokat plövőrzöl. Én is sokat...","1","plövőrzöm","[""plövőrzök"",""plövőrzöm""]","","posttest trial","8",""
"html-button-response-clever","152","1204198","0.0-13.0-0.32","1975","Te bizony sokat gyivádzol. Én is sokat...","1","gyivádzom","[""gyivádzok"",""gyivádzom""]","","posttest trial","8",""
"html-button-response-clever","153","1208690","0.0-13.0-0.33","3970","Te bizony sokat floglasz. Én is sokat...","0","floglok","[""floglok"",""floglom""]","","posttest trial","8",""
"html-button-response-clever","154","1213354","0.0-13.0-0.34","4155","Te bizony sokat aglasz. Én is sokat...","1","aglom","[""aglok"",""aglom""]","","posttest trial","8",""
"html-button-response-clever","155","1215054","0.0-13.0-0.35","1184","Te bizony sokat préleglesz. Én is sokat...","1","préleglem","[""préleglek"",""préleglem""]","","posttest trial","8",""
"html-button-response-clever","156","1216866","0.0-13.0-0.36","1289","Te bizony sokat gerénylesz. Én is sokat...","0","gerénylem","[""gerénylem"",""gerénylek""]","","posttest trial","8",""
"html-button-response-clever","157","1229945","0.0-13.0-0.37","12575","Te bizony sokat spülőrzöl. Én is sokat...","0","spülőrzöm","[""spülőrzöm"",""spülőrzök""]","","posttest trial","8",""
"html-button-response-clever","158","1239550","0.0-13.0-0.38","9092","Te bizony sokat plágadzol. Én is sokat...","0","plágadzom","[""plágadzom"",""plágadzok""]","","posttest trial","8",""
"html-button-response-clever","159","1326186","0.0-13.0-0.39","86124","Te bizony sokat spatszol. Én is sokat...","0","spatszom","[""spatszom"",""spatszok""]","","posttest trial","8",""
"html-button-response-clever","160","1328873","0.0-13.0-0.40","2173","Te bizony sokat fliraklasz. Én is sokat...","1","fliraklom","[""fliraklok"",""fliraklom""]","","posttest trial","8",""
"html-button-response-clever","161","1330818","0.0-13.0-0.41","1433","Te bizony sokat szűslesz. Én is sokat...","0","szűslöm","[""szűslöm"",""szűslök""]","","posttest trial","8",""
"html-button-response-clever","162","1332686","0.0-13.0-0.42","1355","Te bizony sokat spírzol. Én is sokat...","0","spírzom","[""spírzom"",""spírzok""]","","posttest trial","8",""
"html-button-response-clever","163","1334242","0.0-13.0-0.43","1046","Te bizony sokat spülöklesz. Én is sokat...","0","spülöklöm","[""spülöklöm"",""spülöklök""]","","posttest trial","8",""
"html-button-response-clever","164","1337430","0.0-13.0-0.44","2671","Te bizony sokat brarlasz. Én is sokat...","1","brarlom","[""brarlok"",""brarlom""]","","posttest trial","8",""
"html-button-response-clever","165","1341946","0.0-13.0-0.45","4001","Te bizony sokat csólorzol. Én is sokat...","1","csólorzok","[""csólorzom"",""csólorzok""]","","posttest trial","8",""
"html-button-response-clever","166","1345370","0.0-13.0-0.46","2907","Te bizony sokat péleslesz. Én is sokat...","1","péleslem","[""péleslek"",""péleslem""]","","posttest trial","8",""
"html-button-response-clever","167","1348213","0.0-13.0-0.47","2327","Te bizony sokat mékszel. Én is sokat...","0","mékszem","[""mékszem"",""mékszek""]","","posttest trial","8",""
"html-button-response-clever","168","1349642","0.0-13.0-0.48","924","Te bizony sokat spélszel. Én is sokat...","0","spélszem","[""spélszem"",""spélszek""]","","posttest trial","8",""
"html-button-response-clever","169","1351326","0.0-13.0-0.49","1167","Te bizony sokat gyibakszol. Én is sokat...","1","gyibakszom","[""gyibakszok"",""gyibakszom""]","","posttest trial","8",""
"html-button-response-clever","170","1354354","0.0-13.0-0.50","2511","Te bizony sokat livaklasz. Én is sokat...","1","livaklok","[""livaklom"",""livaklok""]","","posttest trial","8",""
"html-button-response-clever","171","1355838","0.0-13.0-0.51","975","Te bizony sokat táklasz. Én is sokat...","1","táklom","[""táklok"",""táklom""]","","posttest trial","8",""
"html-button-response-clever","172","1357274","0.0-13.0-0.52","924","Te bizony sokat flibekszel. Én is sokat...","1","flibekszem","[""flibekszek"",""flibekszem""]","","posttest trial","8",""
"html-button-response-clever","173","1359878","0.0-13.0-0.53","2098","Te bizony sokat flérlesz. Én is sokat...","0","flérlem","[""flérlem"",""flérlek""]","","posttest trial","8",""
"html-button-response","174","1366110","0.0-14.0","5708","<p> Vége a játéknak. A teljes pontszámod 43/54.</p><p> Szép munka! &#128526;&#128526;&#128526;</p><p>A Befejezés gomb megnyomása után bezárhatod a böngészőablakot.</p>","0","","","","","",""
"html-keyboard-response","175","1371647","0.0-15.0","null","<div class=""message"">
         <p>Egy kis türelmet kérünk, amíg elmentjük az adatokat...</p>
         </div>","null","","","","","",""
