"trial_type","trial_index","time_elapsed","internal_node_id","rt","stimulus","response","response_string","choices","esp_response","trial_kind","list_number","esp_match"
"pavlovia","0","943","0.0-0.0","","","","","","","","",""
"html-button-response","1","29191","0.0-1.0","27741","<p>Kedves Résztvevő! A Budapesti Műszaki és Gazdaságtudományi Egyetem Kognitív Tudományi Tanszékének kutatásában való részvételed kérjük. A kutatásban azt vizsgáljuk, hogy a magyar anyanyelvűek hogyan használnak bizonyos szóalakokat, és hogy milyen képük van arról, hogy mások hogyan használják, hogyan képzik a szavakat. Ez hozzásegít bennünket ahhoz, hogy jobban megértsük, hogyan dolgozza fel és tárolja a nyelvet az emberi agy, és hogyan működnek, hogyan változnak egy adott közösség nyelvi konvenciói.</p><p>A vizsgálat egy rövid számítógépes feladatból fog állni. A kutatásban való részvétel önkéntes, a részvételi szándék bármikor visszavonható. A résztvevők eredményeit név nélkül kezeljük, így nem beazonosíthatók az adatok feldolgozása során. Minden személyes adatot az EU általános adatvédelmi rendeletének (GDPR) megfelelően kezelünk és legfeljebb öt éven belül megsemmisítünk. A vizsgálat jellemzően húsz percet vesz igénybe.</p><p>Kutatásvezető:</p><p>Dr. Rácz Péter, tudományos munkatárs, BME KTT</p><p>e-mail: racz.peter.marton@ttk.bme.hu</p>","0","","","","","",""
"html-button-response","2","65357","0.0-2.0","35652","<p>A kísérletben szavakat fogsz látni. Ezek között lesznek olyanok, amelyeket ismersz, de előfordulhatnak olyanok is, amelyeket nem ismersz, sőt, vannak köztük kitalált szavak is. Minden szónál látni fogsz toldalékolt alakokat. A te feladatod az lesz, hogy minden szóhoz kiválaszd azt a toldalékolt alakot, amely a te számodra ismerősebben, természetesebben hangzik. Rossz válaszok nincsenek, mert van olyan, hogy különböző embereknek más és más szó tűnik jobb választásnak. A választ úgy tudod majd kiválasztani, ha rákattintasz.</p><p>Ebben a szóválasztós játékban egy másik játékossal együtt veszel majd részt. A másik játékos is minden esetben azok közül a lehetőségek közül válogathat, mint te. Kettőtök feladata az, hogy ugyanazt a lehetőséget válasszátok minden esetben. Ahhoz, hogy ez sikerüljön, neked figyelned kell arra, hogy a másik játékos milyen válaszokat ad, és ennek alapján meg kell tippelned, hogyan választ legközelebb. Ha eltalálod, akkor pontot kapsz.</p>","0","","","","","",""
"html-button-response","3","80428","0.0-3.0","14558","<p>Kérjük, olvasd el az alábbi nyilatkozatot, és amennyiben egyetértesz vele, nyomj a Beleegyezés gombra!</p><p>Kijelentem, hogy magyar anyanyelvű személyként önként veszek részt a BME KTT kísérletében. A kutatás céljával és folyamatával kapcsolatban elegendő tájékoztatást kaptam, lehetőségem volt kérdések feltételére, és esetleges kérdéseimre megfelelő válaszokat kaptam. A tájékoztatás alapján elegendő mennyiségű információ áll a rendelkezésemre, hogy eldönthessem, részt kívánok-e venni a kutatásban.</p><p>Tisztában vagyok vele, hogy részvételi szándékomat és adataimat bármikor, indoklás nélkül visszavonhatom.</p><p>Értem és tudomásul veszem, hogy a kutatás tudományos célokat szolgál, és az általam szolgáltatott adatokat a BME kizárólag kutatási célból használja fel. Tudomásul veszem, hogy eredményeimet a többi résztvevő eredményeivel együtt kezelik, így egyéni teljesítményemről visszajelzést, szakvéleményt nem kapok.</p><p>Megértettem, hogy adataim kezelését illetően a BME az EU általános adatvédelmi rendelete (GDPR), a hatályos adatvédelmi törvény és a nemzetközi kutatás-etikai alapelvek szerint jár el. Eredményeim anonim módon kerülnek feldolgozásra, és a kutatás résztvevői az azonosításomra alkalmas adataimat harmadik félnek nem szolgáltatják ki. Engedélyezem a BME számára a jelen kutatásban felvett adataim feldolgozását és tárolását, beleértve azok későbbi kutatásokhoz való felhasználását is. Személyes adataim kezelésével kapcsolatban tájékoztatást kérhetek a kutatás résztvevőitől, az adatkezelés ellen tiltakozhatok, kérhetem személyes adataim helyesbítését, törlését vagy zárolását, valamint jogorvoslatért a Nemzeti Adatvédelmi és Információszabadság Hatósághoz fordulhatok.</p><p>Kijelentem, hogy a kutatásban való részvételem körülményeiről részletes tájékoztatást kaptam, és a feltételeket elfogadom.</p>","0","","","","","",""
"survey-text","4","118955","0.0-4.0","37981","","{""Q0"":""IP085H"",""Q1"":"""",""Q2"":""1974"",""Q3"":""12""}","","","","","",""
"html-button-response","5","138110","0.0-5.0","18624","<p>Ebben a játékban szavakat kell toldalékolni.</p> <p>Minden körben mutatunk majd egy példamondatot, amiben lesz egy szó.</p> <p>Alatta jön egy második mondat, ezt a mondatot neked kell majd befejezni, ugyanezzel a szóval.</p> <p>Nem biztos, hogy a szó eleve ismerős lesz számodra!</p> <p>Minden mondathoz adunk két lehetőséget, ezeket balra és jobbra látod majd.</p> <p>A játék kb. negyedóráig-húsz percig tart.</p>","0","","","","","",""
"html-button-response","6","177037","0.0-6.0","38411","<p>Nézzünk egy példát!</p> <p>A példamondat: ""Ez itt egy blumbnyeg.""</p><p>Neked ezt a mondatot kell befejezned: ""Ott vagyunk a...""</p><p>A lehetőségek pedig ezek:</p>","0","","","","","",""
"html-button-response","7","185311","0.0-7.0","7758","<p>Nagyon jó.</p><p>Ezt a játékot nem egyedül fogod játszani, hanem egy másik játékossal.</p><p>Mielőtt továbblépünk, összekapcsolunk titeket egymással.</p><p>Ez igénybe vehet néhány másodpercet, amihez szíves türelmed kérjük.</p>","0","","","","","",""
"html-button-response","8","191056","0.0-8.0","null","<p>Csatlakozás a másik játékoshoz...</p>","null","","","","","",""
"html-button-response","9","193568","0.0-9.0","null","<p> Sikeres kapcsolódás!</p>","null","","","","","",""
"html-button-response","10","204081","0.0-10.0","null","<p>A következőkben ketten játsszátok a szóválasztós játékot.</p><p>A feladatotok az lesz, hogy minden körben <b>ugyanazt</b> a szót válasszátok.</p><p>Minden ilyen egyező válaszért pontot kaptok.</p><p>Próbáld meg kitalálni, mit választ a másik játékos!</p><p>Bármikor választhatsz, a körnek akkor van vége, ha mindketten döntöttetek.</p><p>Sok sikert!</p>","null","","","","","",""
"html-button-response-esp","11","209664","0.0-11.0-0.0","5061","Ez itt egy fádens. Elneveztem a kutyámat...","1","fádensnek","[""fádensnak"",""fádensnek""]","fádensnek","esp trial","11","true"
"html-button-response","12","213185","0.0-11.0-1.0","null","<p>A másik játékos ezt választotta: <b>fádensnek</b>.</p><p>&#x2705;</p><p>A te válaszod és a másik játékos válasza <b>megegyeznek</b>.</p>","null","","","","feedback trial","",""
"html-button-response-esp","13","219314","0.0-11.0-0.1","5611","Ez itt egy jábéz. Ott vagyunk a...","0","jábézben","[""jábézben"",""jábézban""]","jábézban","esp trial","11","false"
"html-button-response","14","222824","0.0-11.0-1.1","null","<p>A másik játékos ezt választotta: <b>jábézban</b>.</p><p>&#10060;</p><p>A válaszaitok <b>nem</b> egyeznek meg.</p>","null","","","","feedback trial","",""
"html-button-response-esp","15","228865","0.0-11.0-0.2","5534","Ez itt egy kadér. Nincs is jobb egy jó...","0","kadérnél","[""kadérnél"",""kadérnál""]","kadérnál","esp trial","11","false"
"html-button-response","16","232386","0.0-11.0-1.2","null","<p>A másik játékos ezt választotta: <b>kadérnál</b>.</p><p>&#10060;</p><p>A válaszaitok <b>nem</b> egyeznek meg.</p>","null","","","","feedback trial","",""
"html-button-response-esp","17","236765","0.0-11.0-0.3","3866","Ez itt egy zsopéd. Ott vagyunk a...","0","zsopédban","[""zsopédban"",""zsopédben""]","zsopédban","esp trial","11","true"
"html-button-response","18","240287","0.0-11.0-1.3","null","<p>A másik játékos ezt választotta: <b>zsopédban</b>.</p><p>&#x2705;</p><p>A te válaszod és a másik játékos válasza <b>megegyeznek</b>.</p>","null","","","","feedback trial","",""
"html-button-response-esp","19","244348","0.0-11.0-0.4","3551","Ez itt egy bidem. Ott vagyunk a...","0","bidemben","[""bidemben"",""bidemban""]","bidemben","esp trial","11","true"
"html-button-response","20","247875","0.0-11.0-1.4","null","<p>A másik játékos ezt választotta: <b>bidemben</b>.</p><p>&#x2705;</p><p>A te válaszod és a másik játékos válasza <b>megegyeznek</b>.</p>","null","","","","feedback trial","",""
"html-button-response-esp","21","251993","0.0-11.0-0.5","3594","Ez itt egy szihét. Elneveztem a kutyámat...","1","szihétnek","[""szihétnak"",""szihétnek""]","szihétnek","esp trial","11","true"
"html-button-response","22","255514","0.0-11.0-1.5","null","<p>A másik játékos ezt választotta: <b>szihétnek</b>.</p><p>&#x2705;</p><p>A te válaszod és a másik játékos válasza <b>megegyeznek</b>.</p>","null","","","","feedback trial","",""
"html-button-response-esp","23","260248","0.0-11.0-0.6","4221","Ez itt egy sprízem. Nincs is jobb egy jó...","1","sprízemnél","[""sprízemnál"",""sprízemnél""]","sprízemnél","esp trial","11","true"
"html-button-response","24","263763","0.0-11.0-1.6","null","<p>A másik játékos ezt választotta: <b>sprízemnél</b>.</p><p>&#x2705;</p><p>A te válaszod és a másik játékos válasza <b>megegyeznek</b>.</p>","null","","","","feedback trial","",""
"html-button-response-esp","25","267932","0.0-11.0-0.7","3659","Ez itt egy trincseg. Ott vagyunk a...","0","trincsegben","[""trincsegben"",""trincsegban""]","trincsegben","esp trial","11","true"
"html-button-response","26","271451","0.0-11.0-1.7","null","<p>A másik játékos ezt választotta: <b>trincsegben</b>.</p><p>&#x2705;</p><p>A te válaszod és a másik játékos válasza <b>megegyeznek</b>.</p>","null","","","","feedback trial","",""
"html-button-response-esp","27","275208","0.0-11.0-0.8","2908","Ez itt egy buhény. Ott vagyunk a...","0","buhényban","[""buhényban"",""buhényben""]","buhényban","esp trial","11","true"
"html-button-response","28","278731","0.0-11.0-1.8","null","<p>A másik játékos ezt választotta: <b>buhényban</b>.</p><p>&#x2705;</p><p>A te válaszod és a másik játékos válasza <b>megegyeznek</b>.</p>","null","","","","feedback trial","",""
"html-button-response-esp","29","282554","0.0-11.0-0.9","3313","Ez itt egy hivép. Ott vagyunk a...","1","hivépben","[""hivépban"",""hivépben""]","hivépben","esp trial","11","true"
"html-button-response","30","286075","0.0-11.0-1.9","null","<p>A másik játékos ezt választotta: <b>hivépben</b>.</p><p>&#x2705;</p><p>A te válaszod és a másik játékos válasza <b>megegyeznek</b>.</p>","null","","","","feedback trial","",""
"html-button-response-esp","31","289986","0.0-11.0-0.10","3399","Ez itt egy brigeszt. Elneveztem a kutyámat...","1","brigesztnek","[""brigesztnak"",""brigesztnek""]","brigesztnek","esp trial","11","true"
"html-button-response","32","293507","0.0-11.0-1.10","null","<p>A másik játékos ezt választotta: <b>brigesztnek</b>.</p><p>&#x2705;</p><p>A te válaszod és a másik játékos válasza <b>megegyeznek</b>.</p>","null","","","","feedback trial","",""
"html-button-response-esp","33","297260","0.0-11.0-0.11","3200","Ez itt egy klordény. Elneveztem a kutyámat...","1","klordénynek","[""klordénynak"",""klordénynek""]","klordénynak","esp trial","11","false"
"html-button-response","34","300785","0.0-11.0-1.11","null","<p>A másik játékos ezt választotta: <b>klordénynak</b>.</p><p>&#10060;</p><p>A válaszaitok <b>nem</b> egyeznek meg.</p>","null","","","","feedback trial","",""
"html-button-response-esp","35","305818","0.0-11.0-0.12","4527","Ez itt egy licegy. Ott vagyunk a...","0","licegyben","[""licegyben"",""licegyban""]","licegyben","esp trial","11","true"
"html-button-response","36","309331","0.0-11.0-1.12","null","<p>A másik játékos ezt választotta: <b>licegyben</b>.</p><p>&#x2705;</p><p>A te válaszod és a másik játékos válasza <b>megegyeznek</b>.</p>","null","","","","feedback trial","",""
"html-button-response-esp","37","313088","0.0-11.0-0.13","3101","Ez itt egy dingec. Elneveztem a kutyámat...","1","dingecnek","[""dingecnak"",""dingecnek""]","dingecnek","esp trial","11","true"
"html-button-response","38","316607","0.0-11.0-1.13","null","<p>A másik játékos ezt választotta: <b>dingecnek</b>.</p><p>&#x2705;</p><p>A te válaszod és a másik játékos válasza <b>megegyeznek</b>.</p>","null","","","","feedback trial","",""
"html-button-response-esp","39","320360","0.0-11.0-0.14","2849","Ez itt egy navec. Ott vagyunk a...","0","navecben","[""navecben"",""navecban""]","navecben","esp trial","11","true"
"html-button-response","40","323882","0.0-11.0-1.14","null","<p>A másik játékos ezt választotta: <b>navecben</b>.</p><p>&#x2705;</p><p>A te válaszod és a másik játékos válasza <b>megegyeznek</b>.</p>","null","","","","feedback trial","",""
"html-button-response-esp","41","328005","0.0-11.0-0.15","3610","Ez itt egy kluhéj. Nincs is jobb egy jó...","1","kluhéjnál","[""kluhéjnél"",""kluhéjnál""]","kluhéjnál","esp trial","11","true"
"html-button-response","42","331522","0.0-11.0-1.15","null","<p>A másik játékos ezt választotta: <b>kluhéjnál</b>.</p><p>&#x2705;</p><p>A te válaszod és a másik játékos válasza <b>megegyeznek</b>.</p>","null","","","","feedback trial","",""
"html-button-response-esp","43","335279","0.0-11.0-0.16","2945","Ez itt egy lismév. Ott vagyunk a...","1","lismévben","[""lismévban"",""lismévben""]","lismévben","esp trial","11","true"
"html-button-response","44","338800","0.0-11.0-1.16","null","<p>A másik játékos ezt választotta: <b>lismévben</b>.</p><p>&#x2705;</p><p>A te válaszod és a másik játékos válasza <b>megegyeznek</b>.</p>","null","","","","feedback trial","",""
"html-button-response-esp","45","342738","0.0-11.0-0.17","3422","Ez itt egy ikszert. Ott vagyunk a...","1","ikszertben","[""ikszertban"",""ikszertben""]","ikszertben","esp trial","11","true"
"html-button-response","46","346258","0.0-11.0-1.17","null","<p>A másik játékos ezt választotta: <b>ikszertben</b>.</p><p>&#x2705;</p><p>A te válaszod és a másik játékos válasza <b>megegyeznek</b>.</p>","null","","","","feedback trial","",""
"html-button-response-esp","47","350799","0.0-11.0-0.18","4026","Ez itt egy szutend. Ott vagyunk a...","1","szutendban","[""szutendben"",""szutendban""]","szutendben","esp trial","11","false"
"html-button-response","48","354313","0.0-11.0-1.18","null","<p>A másik játékos ezt választotta: <b>szutendben</b>.</p><p>&#10060;</p><p>A válaszaitok <b>nem</b> egyeznek meg.</p>","null","","","","feedback trial","",""
"html-button-response-esp","49","358997","0.0-11.0-0.19","4168","Ez itt egy brágéd. Elneveztem a kutyámat...","0","brágédnek","[""brágédnek"",""brágédnak""]","brágédnak","esp trial","11","false"
"html-button-response","50","362515","0.0-11.0-1.19","null","<p>A másik játékos ezt választotta: <b>brágédnak</b>.</p><p>&#10060;</p><p>A válaszaitok <b>nem</b> egyeznek meg.</p>","null","","","","feedback trial","",""
"html-button-response-esp","51","366539","0.0-11.0-0.20","3512","Ez itt egy sporzem. Elneveztem a kutyámat...","0","sporzemnek","[""sporzemnek"",""sporzemnak""]","sporzemnek","esp trial","11","true"
"html-button-response","52","370058","0.0-11.0-1.20","null","<p>A másik játékos ezt választotta: <b>sporzemnek</b>.</p><p>&#x2705;</p><p>A te válaszod és a másik játékos válasza <b>megegyeznek</b>.</p>","null","","","","feedback trial","",""
"html-button-response-esp","53","374444","0.0-11.0-0.21","3874","Ez itt egy trapszegy. Nincs is jobb egy jó...","0","trapszegynél","[""trapszegynél"",""trapszegynál""]","trapszegynél","esp trial","11","true"
"html-button-response","54","377970","0.0-11.0-1.21","null","<p>A másik játékos ezt választotta: <b>trapszegynél</b>.</p><p>&#x2705;</p><p>A te válaszod és a másik játékos válasza <b>megegyeznek</b>.</p>","null","","","","feedback trial","",""
"html-button-response-esp","55","382071","0.0-11.0-0.22","3586","Ez itt egy forzéd. Elneveztem a kutyámat...","0","forzédnek","[""forzédnek"",""forzédnak""]","forzédnek","esp trial","11","true"
"html-button-response","56","385585","0.0-11.0-1.22","null","<p>A másik játékos ezt választotta: <b>forzédnek</b>.</p><p>&#x2705;</p><p>A te válaszod és a másik játékos válasza <b>megegyeznek</b>.</p>","null","","","","feedback trial","",""
"html-button-response-esp","57","390458","0.0-11.0-0.23","4361","Ez itt egy csartény. Elneveztem a kutyámat...","1","csarténynek","[""csarténynak"",""csarténynek""]","csarténynak","esp trial","11","false"
"html-button-response","58","393975","0.0-11.0-1.23","null","<p>A másik játékos ezt választotta: <b>csarténynak</b>.</p><p>&#10060;</p><p>A válaszaitok <b>nem</b> egyeznek meg.</p>","null","","","","feedback trial","",""
"html-button-response-esp","59","400421","0.0-11.0-0.24","5934","Ez itt egy tránély. Elneveztem a kutyámat...","1","tránélynak","[""tránélynek"",""tránélynak""]","tránélynak","esp trial","11","true"
"html-button-response","60","403937","0.0-11.0-1.24","null","<p>A másik játékos ezt választotta: <b>tránélynak</b>.</p><p>&#x2705;</p><p>A te válaszod és a másik játékos válasza <b>megegyeznek</b>.</p>","null","","","","feedback trial","",""
"html-button-response-esp","61","409640","0.0-11.0-0.25","5188","Ez itt egy brotes. Ott vagyunk a...","0","brotesben","[""brotesben"",""brotesban""]","brotesban","esp trial","11","false"
"html-button-response","62","413162","0.0-11.0-1.25","null","<p>A másik játékos ezt választotta: <b>brotesban</b>.</p><p>&#10060;</p><p>A válaszaitok <b>nem</b> egyeznek meg.</p>","null","","","","feedback trial","",""
"html-button-response-esp","63","416920","0.0-11.0-0.26","2609","Ez itt egy tranék. Ott vagyunk a...","1","tranékban","[""tranékben"",""tranékban""]","tranékban","esp trial","11","true"
"html-button-response","64","420443","0.0-11.0-1.26","null","<p>A másik játékos ezt választotta: <b>tranékban</b>.</p><p>&#x2705;</p><p>A te válaszod és a másik játékos válasza <b>megegyeznek</b>.</p>","null","","","","feedback trial","",""
"html-button-response-esp","65","424556","0.0-11.0-0.27","3601","Ez itt egy gonszék. Nincs is jobb egy jó...","0","gonszéknél","[""gonszéknél"",""gonszéknál""]","gonszéknél","esp trial","11","true"
"html-button-response","66","428076","0.0-11.0-1.27","null","<p>A másik játékos ezt választotta: <b>gonszéknél</b>.</p><p>&#x2705;</p><p>A te válaszod és a másik játékos válasza <b>megegyeznek</b>.</p>","null","","","","feedback trial","",""
"html-button-response-esp","67","432606","0.0-11.0-0.28","4016","Ez itt egy fincek. Nincs is jobb egy jó...","1","finceknél","[""finceknál"",""finceknél""]","finceknél","esp trial","11","true"
"html-button-response","68","436122","0.0-11.0-1.28","null","<p>A másik játékos ezt választotta: <b>finceknél</b>.</p><p>&#x2705;</p><p>A te válaszod és a másik játékos válasza <b>megegyeznek</b>.</p>","null","","","","feedback trial","",""
"html-button-response-esp","69","441372","0.0-11.0-0.29","4737","Ez itt egy hóbens. Ott vagyunk a...","1","hóbensban","[""hóbensben"",""hóbensban""]","hóbensben","esp trial","11","false"
"html-button-response","70","444888","0.0-11.0-1.29","null","<p>A másik játékos ezt választotta: <b>hóbensben</b>.</p><p>&#10060;</p><p>A válaszaitok <b>nem</b> egyeznek meg.</p>","null","","","","feedback trial","",""
"html-button-response-esp","71","449382","0.0-11.0-0.30","3986","Ez itt egy kábesz. Nincs is jobb egy jó...","1","kábesznél","[""kábesznál"",""kábesznél""]","kábesznél","esp trial","11","true"
"html-button-response","72","452908","0.0-11.0-1.30","null","<p>A másik játékos ezt választotta: <b>kábesznél</b>.</p><p>&#x2705;</p><p>A te válaszod és a másik játékos válasza <b>megegyeznek</b>.</p>","null","","","","feedback trial","",""
"html-button-response-esp","73","457885","0.0-11.0-0.31","4467","Ez itt egy brukész. Nincs is jobb egy jó...","0","brukésznél","[""brukésznél"",""brukésznál""]","brukésznél","esp trial","11","true"
"html-button-response","74","461403","0.0-11.0-1.31","null","<p>A másik játékos ezt választotta: <b>brukésznél</b>.</p><p>&#x2705;</p><p>A te válaszod és a másik játékos válasza <b>megegyeznek</b>.</p>","null","","","","feedback trial","",""
"html-button-response-esp","75","465159","0.0-11.0-0.32","3104","Ez itt egy giheszt. Elneveztem a kutyámat...","1","gihesztnak","[""gihesztnek"",""gihesztnak""]","gihesztnek","esp trial","11","false"
"html-button-response","76","468674","0.0-11.0-1.32","null","<p>A másik játékos ezt választotta: <b>gihesztnek</b>.</p><p>&#10060;</p><p>A válaszaitok <b>nem</b> egyeznek meg.</p>","null","","","","feedback trial","",""
"html-button-response-esp","77","474987","0.0-11.0-0.33","5801","Ez itt egy nyábét. Ott vagyunk a...","0","nyábétban","[""nyábétban"",""nyábétben""]","nyábétban","esp trial","11","true"
"html-button-response","78","478512","0.0-11.0-1.33","null","<p>A másik játékos ezt választotta: <b>nyábétban</b>.</p><p>&#x2705;</p><p>A te válaszod és a másik játékos válasza <b>megegyeznek</b>.</p>","null","","","","feedback trial","",""
"html-button-response-esp","79","483029","0.0-11.0-0.34","4010","Ez itt egy matéz. Ott vagyunk a...","0","matézban","[""matézban"",""matézben""]","matézban","esp trial","11","true"
"html-button-response","80","486547","0.0-11.0-1.34","null","<p>A másik játékos ezt választotta: <b>matézban</b>.</p><p>&#x2705;</p><p>A te válaszod és a másik játékos válasza <b>megegyeznek</b>.</p>","null","","","","feedback trial","",""
"html-button-response-esp","81","490577","0.0-11.0-0.35","3518","Ez itt egy csimen. Nincs is jobb egy jó...","0","csimennél","[""csimennél"",""csimennál""]","csimennél","esp trial","11","true"
"html-button-response","82","494097","0.0-11.0-1.35","null","<p>A másik játékos ezt választotta: <b>csimennél</b>.</p><p>&#x2705;</p><p>A te válaszod és a másik játékos válasza <b>megegyeznek</b>.</p>","null","","","","feedback trial","",""
"html-button-response-esp","83","498724","0.0-11.0-0.36","4120","Ez itt egy priszkenc. Elneveztem a kutyámat...","1","priszkencnek","[""priszkencnak"",""priszkencnek""]","priszkencnek","esp trial","11","true"
"html-button-response","84","502250","0.0-11.0-1.36","null","<p>A másik játékos ezt választotta: <b>priszkencnek</b>.</p><p>&#x2705;</p><p>A te válaszod és a másik játékos válasza <b>megegyeznek</b>.</p>","null","","","","feedback trial","",""
"html-button-response-esp","85","506996","0.0-11.0-0.37","4234","Ez itt egy júder. Elneveztem a kutyámat...","0","júdernek","[""júdernek"",""júdernak""]","júdernek","esp trial","11","true"
"html-button-response","86","510522","0.0-11.0-1.37","null","<p>A másik játékos ezt választotta: <b>júdernek</b>.</p><p>&#x2705;</p><p>A te válaszod és a másik játékos válasza <b>megegyeznek</b>.</p>","null","","","","feedback trial","",""
"html-button-response-esp","87","515420","0.0-11.0-0.38","4384","Ez itt egy ronvet. Elneveztem a kutyámat...","0","ronvetnek","[""ronvetnek"",""ronvetnak""]","ronvetnek","esp trial","11","true"
"html-button-response","88","518937","0.0-11.0-1.38","null","<p>A másik játékos ezt választotta: <b>ronvetnek</b>.</p><p>&#x2705;</p><p>A te válaszod és a másik játékos válasza <b>megegyeznek</b>.</p>","null","","","","feedback trial","",""
"html-button-response-esp","89","523414","0.0-11.0-0.39","3962","Ez itt egy prately. Elneveztem a kutyámat...","1","pratelynek","[""pratelynak"",""pratelynek""]","pratelynek","esp trial","11","true"
"html-button-response","90","526940","0.0-11.0-1.39","null","<p>A másik játékos ezt választotta: <b>pratelynek</b>.</p><p>&#x2705;</p><p>A te válaszod és a másik játékos válasza <b>megegyeznek</b>.</p>","null","","","","feedback trial","",""
"html-button-response-esp","91","530935","0.0-11.0-0.40","3484","Ez itt egy kliszer. Nincs is jobb egy jó...","0","kliszernél","[""kliszernél"",""kliszernál""]","kliszernél","esp trial","11","true"
"html-button-response","92","534458","0.0-11.0-1.40","null","<p>A másik játékos ezt választotta: <b>kliszernél</b>.</p><p>&#x2705;</p><p>A te válaszod és a másik játékos válasza <b>megegyeznek</b>.</p>","null","","","","feedback trial","",""
"html-button-response-esp","93","538771","0.0-11.0-0.41","3798","Ez itt egy gótem. Elneveztem a kutyámat...","0","gótemnek","[""gótemnek"",""gótemnak""]","gótemnek","esp trial","11","true"
"html-button-response","94","542300","0.0-11.0-1.41","null","<p>A másik játékos ezt választotta: <b>gótemnek</b>.</p><p>&#x2705;</p><p>A te válaszod és a másik játékos válasza <b>megegyeznek</b>.</p>","null","","","","feedback trial","",""
"html-button-response-esp","95","546051","0.0-11.0-0.42","3061","Ez itt egy trigenc. Elneveztem a kutyámat...","0","trigencnek","[""trigencnek"",""trigencnak""]","trigencnek","esp trial","11","true"
"html-button-response","96","549577","0.0-11.0-1.42","null","<p>A másik játékos ezt választotta: <b>trigencnek</b>.</p><p>&#x2705;</p><p>A te válaszod és a másik játékos válasza <b>megegyeznek</b>.</p>","null","","","","feedback trial","",""
"html-button-response-esp","97","555864","0.0-11.0-0.43","5772","Ez itt egy csinték. Ott vagyunk a...","0","csintékban","[""csintékban"",""csintékben""]","csintékben","esp trial","11","false"
"html-button-response","98","559387","0.0-11.0-1.43","null","<p>A másik játékos ezt választotta: <b>csintékben</b>.</p><p>&#10060;</p><p>A válaszaitok <b>nem</b> egyeznek meg.</p>","null","","","","feedback trial","",""
"html-button-response-esp","99","563525","0.0-11.0-0.44","3623","Ez itt egy bródesz. Elneveztem a kutyámat...","1","bródesznek","[""bródesznak"",""bródesznek""]","bródesznek","esp trial","11","true"
"html-button-response","100","567042","0.0-11.0-1.44","null","<p>A másik játékos ezt választotta: <b>bródesznek</b>.</p><p>&#x2705;</p><p>A te válaszod és a másik játékos válasza <b>megegyeznek</b>.</p>","null","","","","feedback trial","",""
"html-button-response-esp","101","571822","0.0-11.0-0.45","4266","Ez itt egy nyarcéj. Elneveztem a kutyámat...","0","nyarcéjnak","[""nyarcéjnak"",""nyarcéjnek""]","nyarcéjnak","esp trial","11","true"
"html-button-response","102","575340","0.0-11.0-1.45","null","<p>A másik játékos ezt választotta: <b>nyarcéjnak</b>.</p><p>&#x2705;</p><p>A te válaszod és a másik játékos válasza <b>megegyeznek</b>.</p>","null","","","","feedback trial","",""
"html-button-response-esp","103","580318","0.0-11.0-0.46","4464","Ez itt egy vublet. Nincs is jobb egy jó...","1","vubletnél","[""vubletnál"",""vubletnél""]","vubletnél","esp trial","11","true"
"html-button-response","104","583834","0.0-11.0-1.46","null","<p>A másik játékos ezt választotta: <b>vubletnél</b>.</p><p>&#x2705;</p><p>A te válaszod és a másik játékos válasza <b>megegyeznek</b>.</p>","null","","","","feedback trial","",""
"html-button-response-esp","105","589210","0.0-11.0-0.47","4864","Ez itt egy nidét. Ott vagyunk a...","1","nidétben","[""nidétban"",""nidétben""]","nidétben","esp trial","11","true"
"html-button-response","106","592731","0.0-11.0-1.47","null","<p>A másik játékos ezt választotta: <b>nidétben</b>.</p><p>&#x2705;</p><p>A te válaszod és a másik játékos válasza <b>megegyeznek</b>.</p>","null","","","","feedback trial","",""
"html-button-response-esp","107","597576","0.0-11.0-0.48","4333","Ez itt egy jorzég. Elneveztem a kutyámat...","0","jorzégnek","[""jorzégnek"",""jorzégnak""]","jorzégnek","esp trial","11","true"
"html-button-response","108","601098","0.0-11.0-1.48","null","<p>A másik játékos ezt választotta: <b>jorzégnek</b>.</p><p>&#x2705;</p><p>A te válaszod és a másik játékos válasza <b>megegyeznek</b>.</p>","null","","","","feedback trial","",""
"html-button-response-esp","109","605812","0.0-11.0-0.49","4198","Ez itt egy sartely. Ott vagyunk a...","1","sartelyban","[""sartelyben"",""sartelyban""]","sartelyben","esp trial","11","false"
"html-button-response","110","609332","0.0-11.0-1.49","null","<p>A másik játékos ezt választotta: <b>sartelyben</b>.</p><p>&#10060;</p><p>A válaszaitok <b>nem</b> egyeznek meg.</p>","null","","","","feedback trial","",""
"html-button-response-esp","111","614581","0.0-11.0-0.50","4737","Ez itt egy jalrény. Nincs is jobb egy jó...","0","jalrénynél","[""jalrénynél"",""jalrénynál""]","jalrénynál","esp trial","11","false"
"html-button-response","112","618098","0.0-11.0-1.50","null","<p>A másik játékos ezt választotta: <b>jalrénynál</b>.</p><p>&#10060;</p><p>A válaszaitok <b>nem</b> egyeznek meg.</p>","null","","","","feedback trial","",""
"html-button-response-esp","113","623053","0.0-11.0-0.51","4444","Ez itt egy gicéj. Nincs is jobb egy jó...","0","gicéjnél","[""gicéjnél"",""gicéjnál""]","gicéjnél","esp trial","11","true"
"html-button-response","114","626578","0.0-11.0-1.51","null","<p>A másik játékos ezt választotta: <b>gicéjnél</b>.</p><p>&#x2705;</p><p>A te válaszod és a másik játékos válasza <b>megegyeznek</b>.</p>","null","","","","feedback trial","",""
"html-button-response-esp","115","630440","0.0-11.0-0.52","3349","Ez itt egy vodép. Elneveztem a kutyámat...","0","vodépnek","[""vodépnek"",""vodépnak""]","vodépnek","esp trial","11","true"
"html-button-response","116","633962","0.0-11.0-1.52","null","<p>A másik játékos ezt választotta: <b>vodépnek</b>.</p><p>&#x2705;</p><p>A te válaszod és a másik játékos válasza <b>megegyeznek</b>.</p>","null","","","","feedback trial","",""
"html-button-response-esp","117","638900","0.0-11.0-0.53","4424","Ez itt egy spáten. Elneveztem a kutyámat...","1","spátennek","[""spátennak"",""spátennek""]","spátennek","esp trial","11","true"
"html-button-response","118","642426","0.0-11.0-1.53","null","<p>A másik játékos ezt választotta: <b>spátennek</b>.</p><p>&#x2705;</p><p>A te válaszod és a másik játékos válasza <b>megegyeznek</b>.</p>","null","","","","feedback trial","",""
"html-button-response","119","653369","0.0-12.0","10430","<p>A közös játék most véget ért.</p><p>Mielőtt eláruljuk a végső pontszámodat, arra kérlek, játszd a szóválasztós játékot néhány percig egyedül is.</p><p>A feladatod ugyanaz lesz, választani két lehetőség közül.</p><p>Most viszont egyedül kell döntened, hogy te melyiket választanád.</p>","0","","","","","",""
"html-button-response-clever","120","657419","0.0-13.0-0.0","3538","Ez itt egy jóbec. Elneveztem a kutyámat...","0","jóbecnek","[""jóbecnek"",""jóbecnak""]","","posttest trial","1",""
"html-button-response-clever","121","661959","0.0-13.0-0.1","4025","Ez itt egy trájeg. Ott vagyunk a...","1","trájegben","[""trájegban"",""trájegben""]","","posttest trial","1",""
"html-button-response-clever","122","674523","0.0-13.0-0.2","12050","Ez itt egy nyupér. Nincs is jobb egy jó...","1","nyupérnél","[""nyupérnál"",""nyupérnél""]","","posttest trial","1",""
"html-button-response-clever","123","678345","0.0-13.0-0.3","3312","Ez itt egy ronszek. Ott vagyunk a...","0","ronszekben","[""ronszekben"",""ronszekban""]","","posttest trial","1",""
"html-button-response-clever","124","682894","0.0-13.0-0.4","4038","Ez itt egy hágyét. Elneveztem a kutyámat...","0","hágyétnek","[""hágyétnek"",""hágyétnak""]","","posttest trial","1",""
"html-button-response-clever","125","687920","0.0-13.0-0.5","4514","Ez itt egy pivéd. Ott vagyunk a...","0","pivédben","[""pivédben"",""pivédban""]","","posttest trial","1",""
"html-button-response-clever","126","691462","0.0-13.0-0.6","3031","Ez itt egy kátel. Elneveztem a kutyámat...","1","kátelnek","[""kátelnak"",""kátelnek""]","","posttest trial","1",""
"html-button-response-clever","127","696765","0.0-13.0-0.7","4787","Ez itt egy vorszen. Nincs is jobb egy jó...","1","vorszennél","[""vorszennál"",""vorszennél""]","","posttest trial","1",""
"html-button-response-clever","128","706884","0.0-13.0-0.8","9606","Ez itt egy bupéz. Ott vagyunk a...","1","bupézban","[""bupézben"",""bupézban""]","","posttest trial","1",""
"html-button-response-clever","129","710189","0.0-13.0-0.9","2794","Ez itt egy nyamet. Ott vagyunk a...","1","nyametben","[""nyametban"",""nyametben""]","","posttest trial","1",""
"html-button-response-clever","130","714002","0.0-13.0-0.10","3300","Ez itt egy zsúdel. Elneveztem a kutyámat...","1","zsúdelnek","[""zsúdelnak"",""zsúdelnek""]","","posttest trial","1",""
"html-button-response-clever","131","717597","0.0-13.0-0.11","3083","Ez itt egy spicet. Elneveztem a kutyámat...","0","spicetnek","[""spicetnek"",""spicetnak""]","","posttest trial","1",""
"html-button-response-clever","132","725949","0.0-13.0-0.12","7839","Ez itt egy zopély. Nincs is jobb egy jó...","1","zopélynál","[""zopélynél"",""zopélynál""]","","posttest trial","1",""
"html-button-response-clever","133","729520","0.0-13.0-0.13","3057","Ez itt egy gúden. Ott vagyunk a...","0","gúdenben","[""gúdenben"",""gúdenban""]","","posttest trial","1",""
"html-button-response-clever","134","733943","0.0-13.0-0.14","3910","Ez itt egy zsádév. Elneveztem a kutyámat...","0","zsádévnak","[""zsádévnak"",""zsádévnek""]","","posttest trial","1",""
"html-button-response-clever","135","737713","0.0-13.0-0.15","3259","Ez itt egy brindez. Elneveztem a kutyámat...","1","brindeznek","[""brindeznak"",""brindeznek""]","","posttest trial","1",""
"html-button-response-clever","136","743045","0.0-13.0-0.16","4820","Ez itt egy danét. Nincs is jobb egy jó...","1","danétnál","[""danétnél"",""danétnál""]","","posttest trial","1",""
"html-button-response-clever","137","748225","0.0-13.0-0.17","4666","Ez itt egy klingesz. Ott vagyunk a...","0","klingeszben","[""klingeszben"",""klingeszban""]","","posttest trial","1",""
"html-button-response-clever","138","752604","0.0-13.0-0.18","3866","Ez itt egy kalréz. Ott vagyunk a...","0","kalrézban","[""kalrézban"",""kalrézben""]","","posttest trial","1",""
"html-button-response-clever","139","757047","0.0-13.0-0.19","3926","Ez itt egy luméz. Ott vagyunk a...","1","lumézban","[""lumézben"",""lumézban""]","","posttest trial","1",""
"html-button-response-clever","140","763012","0.0-13.0-0.20","5454","Ez itt egy trismél. Elneveztem a kutyámat...","1","trismélnek","[""trismélnak"",""trismélnek""]","","posttest trial","1",""
"html-button-response-clever","141","775203","0.0-13.0-0.21","11677","Ez itt egy bralkép. Ott vagyunk a...","0","bralképban","[""bralképban"",""bralképben""]","","posttest trial","1",""
"html-button-response-clever","142","779224","0.0-13.0-0.22","3506","Ez itt egy jukél. Nincs is jobb egy jó...","0","jukélnél","[""jukélnél"",""jukélnál""]","","posttest trial","1",""
"html-button-response-clever","143","784174","0.0-13.0-0.23","4437","Ez itt egy monveg. Nincs is jobb egy jó...","1","monvegnél","[""monvegnál"",""monvegnél""]","","posttest trial","1",""
"html-button-response-clever","144","790092","0.0-13.0-0.24","5409","Ez itt egy spanél. Nincs is jobb egy jó...","1","spanélnél","[""spanélnál"",""spanélnél""]","","posttest trial","1",""
"html-button-response-clever","145","796392","0.0-13.0-0.25","5786","Ez itt egy dalenc. Nincs is jobb egy jó...","0","dalencnél","[""dalencnél"",""dalencnál""]","","posttest trial","1",""
"html-button-response-clever","146","801353","0.0-13.0-0.26","4450","Ez itt egy tosély. Ott vagyunk a...","0","tosélyban","[""tosélyban"",""tosélyben""]","","posttest trial","1",""
"html-button-response-clever","147","811969","0.0-13.0-0.27","10106","Ez itt egy garcép. Nincs is jobb egy jó...","1","garcépnál","[""garcépnél"",""garcépnál""]","","posttest trial","1",""
"html-button-response-clever","148","820053","0.0-13.0-0.28","7574","Ez itt egy pítend. Ott vagyunk a...","0","pítendben","[""pítendben"",""pítendban""]","","posttest trial","1",""
"html-button-response-clever","149","824707","0.0-13.0-0.29","4144","Ez itt egy klosét. Elneveztem a kutyámat...","0","klosétnek","[""klosétnek"",""klosétnak""]","","posttest trial","1",""
"html-button-response-clever","150","829025","0.0-13.0-0.30","3808","Ez itt egy rapszek. Nincs is jobb egy jó...","0","rapszeknél","[""rapszeknél"",""rapszeknál""]","","posttest trial","1",""
"html-button-response-clever","151","834149","0.0-13.0-0.31","4614","Ez itt egy pijél. Nincs is jobb egy jó...","0","pijélnél","[""pijélnél"",""pijélnál""]","","posttest trial","1",""
"html-button-response-clever","152","839421","0.0-13.0-0.32","4762","Ez itt egy priszec. Ott vagyunk a...","1","priszecben","[""priszecban"",""priszecben""]","","posttest trial","1",""
"html-button-response-clever","153","844740","0.0-13.0-0.33","4805","Ez itt egy sprivenc. Nincs is jobb egy jó...","1","sprivencnél","[""sprivencnál"",""sprivencnél""]","","posttest trial","1",""
"html-button-response-clever","154","848500","0.0-13.0-0.34","3248","Ez itt egy incéj. Elneveztem a kutyámat...","0","incéjnek","[""incéjnek"",""incéjnak""]","","posttest trial","1",""
"html-button-response-clever","155","852430","0.0-13.0-0.35","3413","Ez itt egy dorzéj. Elneveztem a kutyámat...","1","dorzéjnek","[""dorzéjnak"",""dorzéjnek""]","","posttest trial","1",""
"html-button-response-clever","156","858063","0.0-13.0-0.36","5120","Ez itt egy dihely. Elneveztem a kutyámat...","1","dihelynek","[""dihelynak"",""dihelynek""]","","posttest trial","1",""
"html-button-response-clever","157","863589","0.0-13.0-0.37","5014","Ez itt egy fájéz. Ott vagyunk a...","1","fájézban","[""fájézben"",""fájézban""]","","posttest trial","1",""
"html-button-response-clever","158","867078","0.0-13.0-0.38","2976","Ez itt egy nyítem. Ott vagyunk a...","0","nyítemben","[""nyítemben"",""nyítemban""]","","posttest trial","1",""
"html-button-response-clever","159","872260","0.0-13.0-0.39","4670","Ez itt egy kaszép. Elneveztem a kutyámat...","0","kaszépnek","[""kaszépnek"",""kaszépnak""]","","posttest trial","1",""
"html-button-response-clever","160","877070","0.0-13.0-0.40","4296","Ez itt egy narem. Ott vagyunk a...","1","naremben","[""naremban"",""naremben""]","","posttest trial","1",""
"html-button-response-clever","161","882985","0.0-13.0-0.41","5401","Ez itt egy zsáder. Ott vagyunk a...","0","zsáderben","[""zsáderben"",""zsáderban""]","","posttest trial","1",""
"html-button-response-clever","162","886605","0.0-13.0-0.42","3112","Ez itt egy dábegy. Ott vagyunk a...","0","dábegyben","[""dábegyben"",""dábegyban""]","","posttest trial","1",""
"html-button-response-clever","163","891037","0.0-13.0-0.43","3919","Ez itt egy lorzens. Nincs is jobb egy jó...","0","lorzensnél","[""lorzensnél"",""lorzensnál""]","","posttest trial","1",""
"html-button-response-clever","164","904572","0.0-13.0-0.44","13023","Ez itt egy spábét. Ott vagyunk a...","1","spábétban","[""spábétben"",""spábétban""]","","posttest trial","1",""
"html-button-response-clever","165","908930","0.0-13.0-0.45","3841","Ez itt egy zsigén. Nincs is jobb egy jó...","1","zsigénnél","[""zsigénnál"",""zsigénnél""]","","posttest trial","1",""
"html-button-response-clever","166","912317","0.0-13.0-0.46","2877","Ez itt egy sortem. Nincs is jobb egy jó...","0","sortemnél","[""sortemnél"",""sortemnál""]","","posttest trial","1",""
"html-button-response-clever","167","918761","0.0-13.0-0.47","5931","Ez itt egy braszenc. Nincs is jobb egy jó...","0","braszencnél","[""braszencnél"",""braszencnál""]","","posttest trial","1",""
"html-button-response-clever","168","922636","0.0-13.0-0.48","3364","Ez itt egy spumény. Elneveztem a kutyámat...","1","spuménynek","[""spuménynak"",""spuménynek""]","","posttest trial","1",""
"html-button-response-clever","169","928540","0.0-13.0-0.49","5394","Ez itt egy ítens. Ott vagyunk a...","0","ítensben","[""ítensben"",""ítensban""]","","posttest trial","1",""
"html-button-response-clever","170","932315","0.0-13.0-0.50","3261","Ez itt egy kalhész. Elneveztem a kutyámat...","0","kalhésznek","[""kalhésznek"",""kalhésznak""]","","posttest trial","1",""
"html-button-response-clever","171","936839","0.0-13.0-0.51","4016","Ez itt egy darhén. Ott vagyunk a...","1","darhénben","[""darhénban"",""darhénben""]","","posttest trial","1",""
"html-button-response-clever","172","940194","0.0-13.0-0.52","2844","Ez itt egy zihenc. Elneveztem a kutyámat...","0","zihencnek","[""zihencnek"",""zihencnak""]","","posttest trial","1",""
"html-button-response-clever","173","943832","0.0-13.0-0.53","3124","Ez itt egy pisély. Ott vagyunk a...","1","pisélyben","[""pisélyban"",""pisélyben""]","","posttest trial","1",""
"html-button-response","174","960034","0.0-14.0","15694","<p> Vége a játéknak. A teljes pontszámod 42/54.</p><p> Szép munka! &#128526;&#128526;&#128526;</p><p>A Befejezés gomb megnyomása után bezárhatod a böngészőablakot.</p>","0","","","","","",""
"html-keyboard-response","175","965554","0.0-15.0","null","<div class=""message"">
         <p>Egy kis türelmet kérünk, amíg elmentjük az adatokat...</p>
         </div>","null","","","","","",""
