"trial_type","trial_index","time_elapsed","internal_node_id","rt","stimulus","response","response_string","choices","esp_response","trial_kind","list_number","esp_match"
"pavlovia","0","1215","0.0-0.0","","","","","","","","",""
"html-button-response","1","2315417","0.0-1.0","2314757","<p>Kedves Résztvevő! A Budapesti Műszaki és Gazdaságtudományi Egyetem Kognitív Tudományi Tanszékének kutatásában való részvételed kérjük. A kutatásban azt vizsgáljuk, hogy a magyar anyanyelvűek hogyan használnak bizonyos szóalakokat, és hogy milyen képük van arról, hogy mások hogyan használják, hogyan képzik a szavakat. Ez hozzásegít bennünket ahhoz, hogy jobban megértsük, hogyan dolgozza fel és tárolja a nyelvet az emberi agy, és hogyan működnek, hogyan változnak egy adott közösség nyelvi konvenciói.</p><p>A vizsgálat egy rövid számítógépes feladatból fog állni. A kutatásban való részvétel önkéntes, a részvételi szándék bármikor visszavonható. A résztvevők eredményeit név nélkül kezeljük, így nem beazonosíthatók az adatok feldolgozása során. Minden személyes adatot az EU általános adatvédelmi rendeletének (GDPR) megfelelően kezelünk és legfeljebb öt éven belül megsemmisítünk. A vizsgálat jellemzően húsz percet vesz igénybe.</p><p>Kutatásvezető:</p><p>Dr. Rácz Péter, tudományos munkatárs, BME KTT</p><p>e-mail: racz.peter.marton@ttk.bme.hu</p>","0","","","","","",""
"html-button-response","2","2380020","0.0-2.0","64099","<p>A kísérletben szavakat fogsz látni. Ezek között lesznek olyanok, amelyeket ismersz, de előfordulhatnak olyanok is, amelyeket nem ismersz, sőt, vannak köztük kitalált szavak is. Minden szónál látni fogsz toldalékolt alakokat. A te feladatod az lesz, hogy minden szóhoz kiválaszd azt a toldalékolt alakot, amely a te számodra ismerősebben, természetesebben hangzik. Rossz válaszok nincsenek, mert van olyan, hogy különböző embereknek más és más szó tűnik jobb választásnak. A választ úgy tudod majd kiválasztani, ha rákattintasz.</p><p>Ebben a szóválasztós játékban egy másik játékossal együtt veszel majd részt. A másik játékos is minden esetben azok közül a lehetőségek közül válogathat, mint te. Kettőtök feladata az, hogy ugyanazt a lehetőséget válasszátok minden esetben. Ahhoz, hogy ez sikerüljön, neked figyelned kell arra, hogy a másik játékos milyen válaszokat ad, és ennek alapján meg kell tippelned, hogyan választ legközelebb. Ha eltalálod, akkor pontot kapsz.</p>","0","","","","","",""
"html-button-response","3","2384291","0.0-3.0","3749","<p>Kérjük, olvasd el az alábbi nyilatkozatot, és amennyiben egyetértesz vele, nyomj a Beleegyezés gombra!</p><p>Kijelentem, hogy magyar anyanyelvű személyként önként veszek részt a BME KTT kísérletében. A kutatás céljával és folyamatával kapcsolatban elegendő tájékoztatást kaptam, lehetőségem volt kérdések feltételére, és esetleges kérdéseimre megfelelő válaszokat kaptam. A tájékoztatás alapján elegendő mennyiségű információ áll a rendelkezésemre, hogy eldönthessem, részt kívánok-e venni a kutatásban.</p><p>Tisztában vagyok vele, hogy részvételi szándékomat és adataimat bármikor, indoklás nélkül visszavonhatom.</p><p>Értem és tudomásul veszem, hogy a kutatás tudományos célokat szolgál, és az általam szolgáltatott adatokat a BME kizárólag kutatási célból használja fel. Tudomásul veszem, hogy eredményeimet a többi résztvevő eredményeivel együtt kezelik, így egyéni teljesítményemről visszajelzést, szakvéleményt nem kapok.</p><p>Megértettem, hogy adataim kezelését illetően a BME az EU általános adatvédelmi rendelete (GDPR), a hatályos adatvédelmi törvény és a nemzetközi kutatás-etikai alapelvek szerint jár el. Eredményeim anonim módon kerülnek feldolgozásra, és a kutatás résztvevői az azonosításomra alkalmas adataimat harmadik félnek nem szolgáltatják ki. Engedélyezem a BME számára a jelen kutatásban felvett adataim feldolgozását és tárolását, beleértve azok későbbi kutatásokhoz való felhasználását is. Személyes adataim kezelésével kapcsolatban tájékoztatást kérhetek a kutatás résztvevőitől, az adatkezelés ellen tiltakozhatok, kérhetem személyes adataim helyesbítését, törlését vagy zárolását, valamint jogorvoslatért a Nemzeti Adatvédelmi és Információszabadság Hatósághoz fordulhatok.</p><p>Kijelentem, hogy a kutatásban való részvételem körülményeiről részletes tájékoztatást kaptam, és a feltételeket elfogadom.</p>","0","","","","","",""
"survey-text","4","2411593","0.0-4.0","26780","","{""Q0"":""X21QLK"",""Q1"":""nő"",""Q2"":""1999"",""Q3"":""16""}","","","","","",""
"html-button-response","5","2432431","0.0-5.0","20330","<p>Ebben a játékban szavakat kell toldalékolni.</p> <p>Minden körben mutatunk majd egy példamondatot, amiben lesz egy szó.</p> <p>Alatta jön egy második mondat, ezt a mondatot neked kell majd befejezni, ugyanezzel a szóval.</p> <p>Nem biztos, hogy a szó eleve ismerős lesz számodra!</p> <p>Minden mondathoz adunk két lehetőséget, ezeket balra és jobbra látod majd.</p> <p>A játék kb. negyedóráig-húsz percig tart.</p>","0","","","","","",""
"html-button-response","6","2464765","0.0-6.0","31827","<p>Nézzünk egy példát!</p> <p>A példamondat: ""János nagyon szeret rancsúrozni.""</p><p>Neked ezt a mondatot kell befejezned: ""Én is szívesen...""</p><p>A lehetőségek pedig ezek:</p>","0","","","","","",""
"html-button-response","7","2472545","0.0-7.0","7271","<p>Nagyon jó.</p><p>Ezt a játékot nem egyedül fogod játszani, hanem egy másik játékossal.</p><p>Mielőtt továbblépünk, összekapcsolunk titeket egymással.</p><p>Ez igénybe vehet néhány másodpercet, amihez szíves türelmed kérjük.</p>","0","","","","","",""
"html-button-response","8","2478302","0.0-8.0","null","<p>Csatlakozás a másik játékoshoz...</p>","null","","","","","",""
"html-button-response","9","2480835","0.0-9.0","null","<p> Sikeres kapcsolódás!</p>","null","","","","","",""
"html-button-response","10","2488527","0.0-10.0","7182","<p>A következőkben ketten játsszátok a szóválasztós játékot.</p><p>A feladatotok az lesz, hogy minden körben <b>ugyanazt</b> a szót válasszátok.</p><p>Minden ilyen egyező válaszért pontot kaptok.</p><p>Próbáld meg kitalálni, mit választ a másik játékos!</p><p>Bármikor választhatsz, a körnek akkor van vége, ha mindketten döntöttetek.</p><p>Sok sikert!</p>","0","","","","","",""
"html-button-response-esp","11","2502445","0.0-11.0-0.0","13408","Te bizony sokat píjlasz. Én is sokat...","0","píjlom","[""píjlom"",""píjlok""]","píjlom","esp trial","7","true"
"html-button-response","12","2505970","0.0-11.0-1.0","null","<p>A másik játékos ezt választotta: <b>píjlom</b>.</p><p>&#x2705;</p><p>A te válaszod és a másik játékos válasza <b>megegyeznek</b>.</p>","null","","","","feedback trial","",""
"html-button-response-esp","13","2514004","0.0-11.0-0.1","7530","Te bizony sokat gyibeslesz. Én is sokat...","0","gyibeslek","[""gyibeslek"",""gyibeslem""]","gyibeslem","esp trial","7","false"
"html-button-response","14","2517536","0.0-11.0-1.1","null","<p>A másik játékos ezt választotta: <b>gyibeslem</b>.</p><p>&#10060;</p><p>A válaszaitok <b>nem</b> egyeznek meg.</p>","null","","","","feedback trial","",""
"html-button-response-esp","15","2524364","0.0-11.0-0.2","6315","Te bizony sokat treglesz. Én is sokat...","1","treglek","[""treglem"",""treglek""]","treglek","esp trial","7","true"
"html-button-response","16","2527892","0.0-11.0-1.2","null","<p>A másik játékos ezt választotta: <b>treglek</b>.</p><p>&#x2705;</p><p>A te válaszod és a másik játékos válasza <b>megegyeznek</b>.</p>","null","","","","feedback trial","",""
"html-button-response-esp","17","2535159","0.0-11.0-0.3","6754","Te bizony sokat nűröklesz. Én is sokat...","1","nűröklöm","[""nűröklök"",""nűröklöm""]","nűröklöm","esp trial","7","true"
"html-button-response","18","2538685","0.0-11.0-1.3","null","<p>A másik játékos ezt választotta: <b>nűröklöm</b>.</p><p>&#x2705;</p><p>A te válaszod és a másik játékos válasza <b>megegyeznek</b>.</p>","null","","","","feedback trial","",""
"html-button-response-esp","19","2546220","0.0-11.0-0.4","7016","Te bizony sokat vülődzöl. Én is sokat...","1","vülődzöm","[""vülődzök"",""vülődzöm""]","vülődzöm","esp trial","7","true"
"html-button-response","20","2549745","0.0-11.0-1.4","null","<p>A másik játékos ezt választotta: <b>vülődzöm</b>.</p><p>&#x2705;</p><p>A te válaszod és a másik játékos válasza <b>megegyeznek</b>.</p>","null","","","","feedback trial","",""
"html-button-response-esp","21","2558706","0.0-11.0-0.5","8448","Te bizony sokat spubonylasz. Én is sokat...","0","spubonylom","[""spubonylom"",""spubonylok""]","spubonylok","esp trial","7","false"
"html-button-response","22","2562223","0.0-11.0-1.5","null","<p>A másik játékos ezt választotta: <b>spubonylok</b>.</p><p>&#10060;</p><p>A válaszaitok <b>nem</b> egyeznek meg.</p>","null","","","","feedback trial","",""
"html-button-response-esp","23","2567593","0.0-11.0-0.6","4857","Te bizony sokat plugzol. Én is sokat...","0","plugzom","[""plugzom"",""plugzok""]","plugzom","esp trial","7","true"
"html-button-response","24","2571119","0.0-11.0-1.6","null","<p>A másik játékos ezt választotta: <b>plugzom</b>.</p><p>&#x2705;</p><p>A te válaszod és a másik játékos válasza <b>megegyeznek</b>.</p>","null","","","","feedback trial","",""
"html-button-response-esp","25","2577731","0.0-11.0-0.7","6094","Te bizony sokat trehégszel. Én is sokat...","0","trehégszem","[""trehégszem"",""trehégszek""]","trehégszem","esp trial","7","true"
"html-button-response","26","2581262","0.0-11.0-1.7","null","<p>A másik játékos ezt választotta: <b>trehégszem</b>.</p><p>&#x2705;</p><p>A te válaszod és a másik játékos válasza <b>megegyeznek</b>.</p>","null","","","","feedback trial","",""
"html-button-response-esp","27","2586828","0.0-11.0-0.8","5055","Te bizony sokat bivégszel. Én is sokat...","0","bivégszek","[""bivégszek"",""bivégszem""]","bivégszem","esp trial","7","false"
"html-button-response","28","2590359","0.0-11.0-1.8","null","<p>A másik játékos ezt választotta: <b>bivégszem</b>.</p><p>&#10060;</p><p>A válaszaitok <b>nem</b> egyeznek meg.</p>","null","","","","feedback trial","",""
"html-button-response-esp","29","2596210","0.0-11.0-0.9","5335","Te bizony sokat huroslasz. Én is sokat...","1","huroslom","[""huroslok"",""huroslom""]","huroslok","esp trial","7","false"
"html-button-response","30","2599736","0.0-11.0-1.9","null","<p>A másik játékos ezt választotta: <b>huroslok</b>.</p><p>&#10060;</p><p>A válaszaitok <b>nem</b> egyeznek meg.</p>","null","","","","feedback trial","",""
"html-button-response-esp","31","2607416","0.0-11.0-0.10","7164","Te bizony sokat flehénylesz. Én is sokat...","1","flehénylem","[""flehénylek"",""flehénylem""]","flehénylek","esp trial","7","false"
"html-button-response","32","2610940","0.0-11.0-1.10","null","<p>A másik játékos ezt választotta: <b>flehénylek</b>.</p><p>&#10060;</p><p>A válaszaitok <b>nem</b> egyeznek meg.</p>","null","","","","feedback trial","",""
"html-button-response-esp","33","2617154","0.0-11.0-0.11","5701","Te bizony sokat hurjorzol. Én is sokat...","1","hurjorzom","[""hurjorzok"",""hurjorzom""]","hurjorzom","esp trial","7","true"
"html-button-response","34","2620677","0.0-11.0-1.11","null","<p>A másik játékos ezt választotta: <b>hurjorzom</b>.</p><p>&#x2705;</p><p>A te válaszod és a másik játékos válasza <b>megegyeznek</b>.</p>","null","","","","feedback trial","",""
"html-button-response-esp","35","2625398","0.0-11.0-0.12","3824","Te bizony sokat trádlasz. Én is sokat...","1","trádlom","[""trádlok"",""trádlom""]","trádlom","esp trial","7","true"
"html-button-response","36","2628922","0.0-11.0-1.12","null","<p>A másik játékos ezt választotta: <b>trádlom</b>.</p><p>&#x2705;</p><p>A te válaszod és a másik játékos válasza <b>megegyeznek</b>.</p>","null","","","","feedback trial","",""
"html-button-response-esp","37","2633674","0.0-11.0-0.13","3133","Te bizony sokat flitlasz. Én is sokat...","1","flitlom","[""flitlok"",""flitlom""]","flitlok","esp trial","7","false"
"html-button-response","38","2637198","0.0-11.0-1.13","null","<p>A másik játékos ezt választotta: <b>flitlok</b>.</p><p>&#10060;</p><p>A válaszaitok <b>nem</b> egyeznek meg.</p>","null","","","","feedback trial","",""
"html-button-response-esp","39","2644560","0.0-11.0-0.14","6842","Te bizony sokat pítszol. Én is sokat...","0","pítszom","[""pítszom"",""pítszok""]","pítszom","esp trial","7","true"
"html-button-response","40","2648077","0.0-11.0-1.14","null","<p>A másik játékos ezt választotta: <b>pítszom</b>.</p><p>&#x2705;</p><p>A te válaszod és a másik játékos válasza <b>megegyeznek</b>.</p>","null","","","","feedback trial","",""
"html-button-response-esp","41","2659375","0.0-11.0-0.15","10780","Te bizony sokat pribemlesz. Én is sokat...","1","pribemlem","[""pribemlek"",""pribemlem""]","pribemlek","esp trial","7","false"
"html-button-response","42","2662902","0.0-11.0-1.15","null","<p>A másik játékos ezt választotta: <b>pribemlek</b>.</p><p>&#10060;</p><p>A válaszaitok <b>nem</b> egyeznek meg.</p>","null","","","","feedback trial","",""
"html-button-response-esp","43","2670153","0.0-11.0-0.16","6734","Te bizony sokat vanylasz. Én is sokat...","0","vanylom","[""vanylom"",""vanylok""]","vanylok","esp trial","7","false"
"html-button-response","44","2673690","0.0-11.0-1.16","null","<p>A másik játékos ezt választotta: <b>vanylok</b>.</p><p>&#10060;</p><p>A válaszaitok <b>nem</b> egyeznek meg.</p>","null","","","","feedback trial","",""
"html-button-response-esp","45","2680855","0.0-11.0-0.17","6640","Te bizony sokat spáraklasz. Én is sokat...","1","spáraklom","[""spáraklok"",""spáraklom""]","spáraklom","esp trial","7","true"
"html-button-response","46","2684374","0.0-11.0-1.17","null","<p>A másik játékos ezt választotta: <b>spáraklom</b>.</p><p>&#x2705;</p><p>A te válaszod és a másik játékos válasza <b>megegyeznek</b>.</p>","null","","","","feedback trial","",""
"html-button-response-esp","47","2692657","0.0-11.0-0.18","7765","Te bizony sokat brobódzol. Én is sokat...","1","brobódzom","[""brobódzok"",""brobódzom""]","brobódzom","esp trial","7","true"
"html-button-response","48","2696176","0.0-11.0-1.18","null","<p>A másik játékos ezt választotta: <b>brobódzom</b>.</p><p>&#x2705;</p><p>A te válaszod és a másik játékos válasza <b>megegyeznek</b>.</p>","null","","","","feedback trial","",""
"html-button-response-esp","49","2701652","0.0-11.0-0.19","4969","Te bizony sokat salárzol. Én is sokat...","1","salárzom","[""salárzok"",""salárzom""]","salárzom","esp trial","7","true"
"html-button-response","50","2705180","0.0-11.0-1.19","null","<p>A másik játékos ezt választotta: <b>salárzom</b>.</p><p>&#x2705;</p><p>A te válaszod és a másik játékos válasza <b>megegyeznek</b>.</p>","null","","","","feedback trial","",""
"html-button-response-esp","51","2711855","0.0-11.0-0.20","6164","Te bizony sokat sztrozlasz. Én is sokat...","0","sztrozlom","[""sztrozlom"",""sztrozlok""]","sztrozlom","esp trial","7","true"
"html-button-response","52","2715406","0.0-11.0-1.20","null","<p>A másik játékos ezt választotta: <b>sztrozlom</b>.</p><p>&#x2705;</p><p>A te válaszod és a másik játékos válasza <b>megegyeznek</b>.</p>","null","","","","feedback trial","",""
"html-button-response-esp","53","2723373","0.0-11.0-0.21","7455","Te bizony sokat prínylasz. Én is sokat...","0","prínylom","[""prínylom"",""prínylok""]","prínylom","esp trial","7","true"
"html-button-response","54","2726900","0.0-11.0-1.21","null","<p>A másik játékos ezt választotta: <b>prínylom</b>.</p><p>&#x2705;</p><p>A te válaszod és a másik játékos válasza <b>megegyeznek</b>.</p>","null","","","","feedback trial","",""
"html-button-response-esp","55","2731632","0.0-11.0-0.22","3784","Te bizony sokat spihemlesz. Én is sokat...","0","spihemlem","[""spihemlem"",""spihemlek""]","spihemlek","esp trial","7","false"
"html-button-response","56","2735153","0.0-11.0-1.22","null","<p>A másik játékos ezt választotta: <b>spihemlek</b>.</p><p>&#10060;</p><p>A válaszaitok <b>nem</b> egyeznek meg.</p>","null","","","","feedback trial","",""
"html-button-response-esp","57","2739894","0.0-11.0-0.23","3509","Te bizony sokat tragzol. Én is sokat...","0","tragzom","[""tragzom"",""tragzok""]","tragzom","esp trial","7","true"
"html-button-response","58","2743408","0.0-11.0-1.23","null","<p>A másik játékos ezt választotta: <b>tragzom</b>.</p><p>&#x2705;</p><p>A te válaszod és a másik játékos válasza <b>megegyeznek</b>.</p>","null","","","","feedback trial","",""
"html-button-response-esp","59","2752075","0.0-11.0-0.24","8150","Te bizony sokat sztrűkszöl. Én is sokat...","0","sztrűkszöm","[""sztrűkszöm"",""sztrűkszök""]","sztrűkszöm","esp trial","7","true"
"html-button-response","60","2755595","0.0-11.0-1.24","null","<p>A másik játékos ezt választotta: <b>sztrűkszöm</b>.</p><p>&#x2705;</p><p>A te válaszod és a másik játékos válasza <b>megegyeznek</b>.</p>","null","","","","feedback trial","",""
"html-button-response-esp","61","2762299","0.0-11.0-0.25","6187","Te bizony sokat spröbzöl. Én is sokat...","0","spröbzök","[""spröbzök"",""spröbzöm""]","spröbzöm","esp trial","7","false"
"html-button-response","62","2765843","0.0-11.0-1.25","null","<p>A másik játékos ezt választotta: <b>spröbzöm</b>.</p><p>&#10060;</p><p>A válaszaitok <b>nem</b> egyeznek meg.</p>","null","","","","feedback trial","",""
"html-button-response-esp","63","2771298","0.0-11.0-0.26","4935","Te bizony sokat klaráglasz. Én is sokat...","0","klaráglok","[""klaráglok"",""klaráglom""]","klaráglok","esp trial","7","true"
"html-button-response","64","2774818","0.0-11.0-1.26","null","<p>A másik játékos ezt választotta: <b>klaráglok</b>.</p><p>&#x2705;</p><p>A te válaszod és a másik játékos válasza <b>megegyeznek</b>.</p>","null","","","","feedback trial","",""
"html-button-response-esp","65","2781925","0.0-11.0-0.27","6583","Te bizony sokat bihánylasz. Én is sokat...","0","bihánylom","[""bihánylom"",""bihánylok""]","bihánylok","esp trial","7","false"
"html-button-response","66","2785468","0.0-11.0-1.27","null","<p>A másik játékos ezt választotta: <b>bihánylok</b>.</p><p>&#10060;</p><p>A válaszaitok <b>nem</b> egyeznek meg.</p>","null","","","","feedback trial","",""
"html-button-response-esp","67","2791811","0.0-11.0-0.28","5826","Te bizony sokat rokszol. Én is sokat...","1","rokszom","[""rokszok"",""rokszom""]","rokszom","esp trial","7","true"
"html-button-response","68","2795339","0.0-11.0-1.28","null","<p>A másik játékos ezt választotta: <b>rokszom</b>.</p><p>&#x2705;</p><p>A te válaszod és a másik játékos válasza <b>megegyeznek</b>.</p>","null","","","","feedback trial","",""
"html-button-response-esp","69","2803063","0.0-11.0-0.29","7206","Te bizony sokat klivaslasz. Én is sokat...","0","klivaslom","[""klivaslom"",""klivaslok""]","klivaslok","esp trial","7","false"
"html-button-response","70","2806591","0.0-11.0-1.29","null","<p>A másik játékos ezt választotta: <b>klivaslok</b>.</p><p>&#10060;</p><p>A válaszaitok <b>nem</b> egyeznek meg.</p>","null","","","","feedback trial","",""
"html-button-response-esp","71","2812357","0.0-11.0-0.30","5252","Te bizony sokat spüjzöl. Én is sokat...","0","spüjzöm","[""spüjzöm"",""spüjzök""]","spüjzök","esp trial","7","false"
"html-button-response","72","2815885","0.0-11.0-1.30","null","<p>A másik játékos ezt választotta: <b>spüjzök</b>.</p><p>&#10060;</p><p>A válaszaitok <b>nem</b> egyeznek meg.</p>","null","","","","feedback trial","",""
"html-button-response-esp","73","2829957","0.0-11.0-0.31","13554","Te bizony sokat filágzol. Én is sokat...","0","filágzok","[""filágzok"",""filágzom""]","filágzom","esp trial","7","false"
"html-button-response","74","2833485","0.0-11.0-1.31","null","<p>A másik játékos ezt választotta: <b>filágzom</b>.</p><p>&#10060;</p><p>A válaszaitok <b>nem</b> egyeznek meg.</p>","null","","","","feedback trial","",""
"html-button-response-esp","75","2839710","0.0-11.0-0.32","5716","Te bizony sokat düjzöl. Én is sokat...","1","düjzök","[""düjzöm"",""düjzök""]","düjzöm","esp trial","7","false"
"html-button-response","76","2843238","0.0-11.0-1.32","null","<p>A másik játékos ezt választotta: <b>düjzöm</b>.</p><p>&#10060;</p><p>A válaszaitok <b>nem</b> egyeznek meg.</p>","null","","","","feedback trial","",""
"html-button-response-esp","77","2853945","0.0-11.0-0.33","10190","Te bizony sokat pribagszol. Én is sokat...","0","pribagszok","[""pribagszok"",""pribagszom""]","pribagszom","esp trial","7","false"
"html-button-response","78","2857463","0.0-11.0-1.33","null","<p>A másik játékos ezt választotta: <b>pribagszom</b>.</p><p>&#10060;</p><p>A válaszaitok <b>nem</b> egyeznek meg.</p>","null","","","","feedback trial","",""
"html-button-response-esp","79","2868348","0.0-11.0-0.34","10375","Te bizony sokat narádzol. Én is sokat...","1","narádzom","[""narádzok"",""narádzom""]","narádzom","esp trial","7","true"
"html-button-response","80","2871888","0.0-11.0-1.34","null","<p>A másik játékos ezt választotta: <b>narádzom</b>.</p><p>&#x2705;</p><p>A te válaszod és a másik játékos válasza <b>megegyeznek</b>.</p>","null","","","","feedback trial","",""
"html-button-response-esp","81","2876973","0.0-11.0-0.35","4566","Te bizony sokat rájzol. Én is sokat...","1","rájzok","[""rájzom"",""rájzok""]","rájzom","esp trial","7","false"
"html-button-response","82","2880500","0.0-11.0-1.35","null","<p>A másik játékos ezt választotta: <b>rájzom</b>.</p><p>&#10060;</p><p>A válaszaitok <b>nem</b> egyeznek meg.</p>","null","","","","feedback trial","",""
"html-button-response-esp","83","2885960","0.0-11.0-0.36","4944","Te bizony sokat plűbzöl. Én is sokat...","1","plűbzök","[""plűbzöm"",""plűbzök""]","plűbzöm","esp trial","7","false"
"html-button-response","84","2889487","0.0-11.0-1.36","null","<p>A másik játékos ezt választotta: <b>plűbzöm</b>.</p><p>&#10060;</p><p>A válaszaitok <b>nem</b> egyeznek meg.</p>","null","","","","feedback trial","",""
"html-button-response-esp","85","2899860","0.0-11.0-0.37","9862","Te bizony sokat klétszel. Én is sokat...","0","klétszem","[""klétszem"",""klétszek""]","klétszem","esp trial","7","true"
"html-button-response","86","2903387","0.0-11.0-1.37","null","<p>A másik játékos ezt választotta: <b>klétszem</b>.</p><p>&#x2705;</p><p>A te válaszod és a másik játékos válasza <b>megegyeznek</b>.</p>","null","","","","feedback trial","",""
"html-button-response-esp","87","2912817","0.0-11.0-0.38","8912","Te bizony sokat szibánylasz. Én is sokat...","0","szibánylok","[""szibánylok"",""szibánylom""]","szibánylok","esp trial","7","true"
"html-button-response","88","2916328","0.0-11.0-1.38","null","<p>A másik játékos ezt választotta: <b>szibánylok</b>.</p><p>&#x2705;</p><p>A te válaszod és a másik játékos válasza <b>megegyeznek</b>.</p>","null","","","","feedback trial","",""
"html-button-response-esp","89","2921840","0.0-11.0-0.39","5003","Te bizony sokat lörűdzöl. Én is sokat...","0","lörűdzöm","[""lörűdzöm"",""lörűdzök""]","lörűdzöm","esp trial","7","true"
"html-button-response","90","2925366","0.0-11.0-1.39","null","<p>A másik játékos ezt választotta: <b>lörűdzöm</b>.</p><p>&#x2705;</p><p>A te válaszod és a másik játékos válasza <b>megegyeznek</b>.</p>","null","","","","feedback trial","",""
"html-button-response-esp","91","2930106","0.0-11.0-0.40","1860","Te bizony sokat spülűdzöl. Én is sokat...","0","spülűdzöm","[""spülűdzöm"",""spülűdzök""]","spülűdzöm","esp trial","7","true"
"html-button-response","92","2933654","0.0-11.0-1.40","null","<p>A másik játékos ezt választotta: <b>spülűdzöm</b>.</p><p>&#x2705;</p><p>A te válaszod és a másik játékos válasza <b>megegyeznek</b>.</p>","null","","","","feedback trial","",""
"html-button-response-esp","93","2938383","0.0-11.0-0.41","2936","Te bizony sokat jonylasz. Én is sokat...","1","jonylok","[""jonylom"",""jonylok""]","jonylok","esp trial","7","true"
"html-button-response","94","2941899","0.0-11.0-1.41","null","<p>A másik játékos ezt választotta: <b>jonylok</b>.</p><p>&#x2705;</p><p>A te válaszod és a másik játékos válasza <b>megegyeznek</b>.</p>","null","","","","feedback trial","",""
"html-button-response-esp","95","2946630","0.0-11.0-0.42","2385","Te bizony sokat flehékszel. Én is sokat...","0","flehékszem","[""flehékszem"",""flehékszek""]","flehékszem","esp trial","7","true"
"html-button-response","96","2950154","0.0-11.0-1.42","null","<p>A másik játékos ezt választotta: <b>flehékszem</b>.</p><p>&#x2705;</p><p>A te válaszod és a másik játékos válasza <b>megegyeznek</b>.</p>","null","","","","feedback trial","",""
"html-button-response-esp","97","2954893","0.0-11.0-0.43","2202","Te bizony sokat flűmlesz. Én is sokat...","1","flűmlöm","[""flűmlök"",""flűmlöm""]","flűmlök","esp trial","7","false"
"html-button-response","98","2958417","0.0-11.0-1.43","null","<p>A másik játékos ezt választotta: <b>flűmlök</b>.</p><p>&#10060;</p><p>A válaszaitok <b>nem</b> egyeznek meg.</p>","null","","","","feedback trial","",""
"html-button-response-esp","99","2963154","0.0-11.0-0.44","3900","Te bizony sokat hűgzöl. Én is sokat...","0","hűgzöm","[""hűgzöm"",""hűgzök""]","hűgzöm","esp trial","7","true"
"html-button-response","100","2966686","0.0-11.0-1.44","null","<p>A másik játékos ezt választotta: <b>hűgzöm</b>.</p><p>&#x2705;</p><p>A te válaszod és a másik játékos válasza <b>megegyeznek</b>.</p>","null","","","","feedback trial","",""
"html-button-response-esp","101","2971417","0.0-11.0-0.45","2143","Te bizony sokat brubzol. Én is sokat...","0","brubzom","[""brubzom"",""brubzok""]","brubzom","esp trial","7","true"
"html-button-response","102","2974948","0.0-11.0-1.45","null","<p>A másik játékos ezt választotta: <b>brubzom</b>.</p><p>&#x2705;</p><p>A te válaszod és a másik játékos válasza <b>megegyeznek</b>.</p>","null","","","","feedback trial","",""
"html-button-response-esp","103","2979678","0.0-11.0-0.46","2502","Te bizony sokat spihegzel. Én is sokat...","1","spihegzem","[""spihegzek"",""spihegzem""]","spihegzem","esp trial","7","true"
"html-button-response","104","2983204","0.0-11.0-1.46","null","<p>A másik játékos ezt választotta: <b>spihegzem</b>.</p><p>&#x2705;</p><p>A te válaszod és a másik játékos válasza <b>megegyeznek</b>.</p>","null","","","","feedback trial","",""
"html-button-response-esp","105","2987924","0.0-11.0-0.47","3186","Te bizony sokat ibékszel. Én is sokat...","1","ibékszem","[""ibékszek"",""ibékszem""]","ibékszem","esp trial","7","true"
"html-button-response","106","2991454","0.0-11.0-1.47","null","<p>A másik játékos ezt választotta: <b>ibékszem</b>.</p><p>&#x2705;</p><p>A te válaszod és a másik játékos válasza <b>megegyeznek</b>.</p>","null","","","","feedback trial","",""
"html-button-response-esp","107","2996306","0.0-11.0-0.48","4346","Te bizony sokat sztrijzol. Én is sokat...","1","sztrijzom","[""sztrijzok"",""sztrijzom""]","sztrijzom","esp trial","7","true"
"html-button-response","108","2999829","0.0-11.0-1.48","null","<p>A másik játékos ezt választotta: <b>sztrijzom</b>.</p><p>&#x2705;</p><p>A te válaszod és a másik játékos válasza <b>megegyeznek</b>.</p>","null","","","","feedback trial","",""
"html-button-response-esp","109","3004549","0.0-11.0-0.49","2976","Te bizony sokat bűtszöl. Én is sokat...","0","bűtszöm","[""bűtszöm"",""bűtszök""]","bűtszöm","esp trial","7","true"
"html-button-response","110","3008080","0.0-11.0-1.49","null","<p>A másik játékos ezt választotta: <b>bűtszöm</b>.</p><p>&#x2705;</p><p>A te válaszod és a másik játékos válasza <b>megegyeznek</b>.</p>","null","","","","feedback trial","",""
"html-button-response-esp","111","3012811","0.0-11.0-0.50","3679","Te bizony sokat frodlasz. Én is sokat...","1","frodlok","[""frodlom"",""frodlok""]","frodlom","esp trial","7","false"
"html-button-response","112","3016337","0.0-11.0-1.50","null","<p>A másik játékos ezt választotta: <b>frodlom</b>.</p><p>&#10060;</p><p>A válaszaitok <b>nem</b> egyeznek meg.</p>","null","","","","feedback trial","",""
"html-button-response-esp","113","3021065","0.0-11.0-0.51","1618","Te bizony sokat brivegzel. Én is sokat...","0","brivegzem","[""brivegzem"",""brivegzek""]","brivegzem","esp trial","7","true"
"html-button-response","114","3024602","0.0-11.0-1.51","null","<p>A másik játékos ezt választotta: <b>brivegzem</b>.</p><p>&#x2705;</p><p>A te válaszod és a másik játékos válasza <b>megegyeznek</b>.</p>","null","","","","feedback trial","",""
"html-button-response-esp","115","3029318","0.0-11.0-0.52","2768","Te bizony sokat figlasz. Én is sokat...","0","figlok","[""figlok"",""figlom""]","figlom","esp trial","7","false"
"html-button-response","116","3032849","0.0-11.0-1.52","null","<p>A másik játékos ezt választotta: <b>figlom</b>.</p><p>&#10060;</p><p>A válaszaitok <b>nem</b> egyeznek meg.</p>","null","","","","feedback trial","",""
"html-button-response-esp","117","3037580","0.0-11.0-0.53","2352","Te bizony sokat flátszol. Én is sokat...","0","flátszom","[""flátszom"",""flátszok""]","flátszom","esp trial","7","true"
"html-button-response","118","3041111","0.0-11.0-1.53","null","<p>A másik játékos ezt választotta: <b>flátszom</b>.</p><p>&#x2705;</p><p>A te válaszod és a másik játékos válasza <b>megegyeznek</b>.</p>","null","","","","feedback trial","",""
"html-button-response","119","3057990","0.0-12.0","16361","<p>A közös játék most véget ért.</p><p>Mielőtt eláruljuk a végső pontszámodat, arra kérlek, játszd a szóválasztós játékot néhány percig egyedül is.</p><p>A feladatod ugyanaz lesz, választani két lehetőség közül.</p><p>Most viszont egyedül kell döntened, hogy te melyiket választanád.</p>","0","","","","","",""
"html-button-response-clever","120","3063721","0.0-13.0-0.0","5215","Te bizony sokat lihadzol. Én is sokat...","0","lihadzom","[""lihadzom"",""lihadzok""]","","posttest trial","8",""
"html-button-response-clever","121","3067768","0.0-13.0-0.1","3535","Te bizony sokat spírzol. Én is sokat...","1","spírzom","[""spírzok"",""spírzom""]","","posttest trial","8",""
"html-button-response-clever","122","3071747","0.0-13.0-0.2","3466","Te bizony sokat préleglesz. Én is sokat...","1","préleglek","[""préleglem"",""préleglek""]","","posttest trial","8",""
"html-button-response-clever","123","3076796","0.0-13.0-0.3","4533","Te bizony sokat vihepszel. Én is sokat...","1","vihepszem","[""vihepszek"",""vihepszem""]","","posttest trial","8",""
"html-button-response-clever","124","3083185","0.0-13.0-0.4","5875","Te bizony sokat prezlesz. Én is sokat...","1","prezlek","[""prezlem"",""prezlek""]","","posttest trial","8",""
"html-button-response-clever","125","3086791","0.0-13.0-0.5","3100","Te bizony sokat spüszlesz. Én is sokat...","1","spüszlök","[""spüszlöm"",""spüszlök""]","","posttest trial","8",""
"html-button-response-clever","126","3090245","0.0-13.0-0.6","2939","Te bizony sokat frágapszol. Én is sokat...","0","frágapszom","[""frágapszom"",""frágapszok""]","","posttest trial","8",""
"html-button-response-clever","127","3094071","0.0-13.0-0.7","3317","Te bizony sokat gyibakszol. Én is sokat...","1","gyibakszom","[""gyibakszok"",""gyibakszom""]","","posttest trial","8",""
"html-button-response-clever","128","3096986","0.0-13.0-0.8","2401","Te bizony sokat flözlesz. Én is sokat...","1","flözlök","[""flözlöm"",""flözlök""]","","posttest trial","8",""
"html-button-response-clever","129","3099531","0.0-13.0-0.9","2030","Te bizony sokat fliraklasz. Én is sokat...","1","fliraklok","[""fliraklom"",""fliraklok""]","","posttest trial","8",""
"html-button-response-clever","130","3102183","0.0-13.0-0.10","2134","Te bizony sokat pugoslasz. Én is sokat...","1","pugoslok","[""pugoslom"",""pugoslok""]","","posttest trial","8",""
"html-button-response-clever","131","3107813","0.0-13.0-0.11","5116","Te bizony sokat fivénylesz. Én is sokat...","0","fivénylek","[""fivénylek"",""fivénylem""]","","posttest trial","8",""
"html-button-response-clever","132","3113989","0.0-13.0-0.12","5662","Te bizony sokat mékszel. Én is sokat...","1","mékszem","[""mékszek"",""mékszem""]","","posttest trial","8",""
"html-button-response-clever","133","3116791","0.0-13.0-0.13","2291","Te bizony sokat féjzel. Én is sokat...","0","féjzem","[""féjzem"",""féjzek""]","","posttest trial","8",""
"html-button-response-clever","134","3120421","0.0-13.0-0.14","3122","Te bizony sokat gilárzol. Én is sokat...","0","gilárzom","[""gilárzom"",""gilárzok""]","","posttest trial","8",""
"html-button-response-clever","135","3122872","0.0-13.0-0.15","1939","Te bizony sokat zödlesz. Én is sokat...","0","zödlök","[""zödlök"",""zödlöm""]","","posttest trial","8",""
"html-button-response-clever","136","3130851","0.0-13.0-0.16","7466","Te bizony sokat gyivádzol. Én is sokat...","1","gyivádzom","[""gyivádzok"",""gyivádzom""]","","posttest trial","8",""
"html-button-response-clever","137","3134732","0.0-13.0-0.17","3361","Te bizony sokat táklasz. Én is sokat...","0","táklok","[""táklok"",""táklom""]","","posttest trial","8",""
"html-button-response-clever","138","3137146","0.0-13.0-0.18","1904","Te bizony sokat praslasz. Én is sokat...","1","praslok","[""praslom"",""praslok""]","","posttest trial","8",""
"html-button-response-clever","139","3139795","0.0-13.0-0.19","2134","Te bizony sokat prihekszel. Én is sokat...","0","prihekszem","[""prihekszem"",""prihekszek""]","","posttest trial","8",""
"html-button-response-clever","140","3144160","0.0-13.0-0.20","3850","Te bizony sokat floglasz. Én is sokat...","1","floglok","[""floglom"",""floglok""]","","posttest trial","8",""
"html-button-response-clever","141","3151736","0.0-13.0-0.21","7064","Te bizony sokat plövőrzöl. Én is sokat...","0","plövőrzöm","[""plövőrzöm"",""plövőrzök""]","","posttest trial","8",""
"html-button-response-clever","142","3154654","0.0-13.0-0.22","2404","Te bizony sokat drügzöl. Én is sokat...","0","drügzöm","[""drügzöm"",""drügzök""]","","posttest trial","8",""
"html-button-response-clever","143","3158385","0.0-13.0-0.23","3211","Te bizony sokat spülöklesz. Én is sokat...","1","spülöklök","[""spülöklöm"",""spülöklök""]","","posttest trial","8",""
"html-button-response-clever","144","3160584","0.0-13.0-0.24","1686","Te bizony sokat spülőrzöl. Én is sokat...","0","spülőrzöm","[""spülőrzöm"",""spülőrzök""]","","posttest trial","8",""
"html-button-response-clever","145","3164424","0.0-13.0-0.25","3334","Te bizony sokat bivejlesz. Én is sokat...","1","bivejlek","[""bivejlem"",""bivejlek""]","","posttest trial","8",""
"html-button-response-clever","146","3169943","0.0-13.0-0.26","5015","Te bizony sokat klárzol. Én is sokat...","1","klárzom","[""klárzok"",""klárzom""]","","posttest trial","8",""
"html-button-response-clever","147","3172944","0.0-13.0-0.27","2485","Te bizony sokat sztruglasz. Én is sokat...","1","sztruglok","[""sztruglom"",""sztruglok""]","","posttest trial","8",""
"html-button-response-clever","148","3176026","0.0-13.0-0.28","2568","Te bizony sokat vűjlesz. Én is sokat...","1","vűjlök","[""vűjlöm"",""vűjlök""]","","posttest trial","8",""
"html-button-response-clever","149","3181365","0.0-13.0-0.29","4825","Te bizony sokat brarlasz. Én is sokat...","1","brarlok","[""brarlom"",""brarlok""]","","posttest trial","8",""
"html-button-response-clever","150","3184363","0.0-13.0-0.30","2482","Te bizony sokat tuboklasz. Én is sokat...","1","tuboklok","[""tuboklom"",""tuboklok""]","","posttest trial","8",""
"html-button-response-clever","151","3186866","0.0-13.0-0.31","1988","Te bizony sokat prohódzol. Én is sokat...","1","prohódzom","[""prohódzok"",""prohódzom""]","","posttest trial","8",""
"html-button-response-clever","152","3189817","0.0-13.0-0.32","2434","Te bizony sokat klidlasz. Én is sokat...","1","klidlok","[""klidlom"",""klidlok""]","","posttest trial","8",""
"html-button-response-clever","153","3195066","0.0-13.0-0.33","4736","Te bizony sokat flérlesz. Én is sokat...","0","flérlek","[""flérlek"",""flérlem""]","","posttest trial","8",""
"html-button-response-clever","154","3197230","0.0-13.0-0.34","1653","Te bizony sokat huklasz. Én is sokat...","0","huklok","[""huklok"",""huklom""]","","posttest trial","8",""
"html-button-response-clever","155","3199629","0.0-13.0-0.35","1887","Te bizony sokat trihagzol. Én is sokat...","0","trihagzom","[""trihagzom"",""trihagzok""]","","posttest trial","8",""
"html-button-response-clever","156","3202326","0.0-13.0-0.36","2186","Te bizony sokat spélszel. Én is sokat...","0","spélszem","[""spélszem"",""spélszek""]","","posttest trial","8",""
"html-button-response-clever","157","3204527","0.0-13.0-0.37","1683","Te bizony sokat friszlasz. Én is sokat...","0","friszlok","[""friszlok"",""friszlom""]","","posttest trial","8",""
"html-button-response-clever","158","3207753","0.0-13.0-0.38","2721","Te bizony sokat livaklasz. Én is sokat...","0","livaklok","[""livaklok"",""livaklom""]","","posttest trial","8",""
"html-button-response-clever","159","3210287","0.0-13.0-0.39","2015","Te bizony sokat flibekszel. Én is sokat...","0","flibekszem","[""flibekszem"",""flibekszek""]","","posttest trial","8",""
"html-button-response-clever","160","3213105","0.0-13.0-0.40","2308","Te bizony sokat spibádzol. Én is sokat...","1","spibádzom","[""spibádzok"",""spibádzom""]","","posttest trial","8",""
"html-button-response-clever","161","3215183","0.0-13.0-0.41","1564","Te bizony sokat spatszol. Én is sokat...","1","spatszom","[""spatszok"",""spatszom""]","","posttest trial","8",""
"html-button-response-clever","162","3217636","0.0-13.0-0.42","1943","Te bizony sokat kumlasz. Én is sokat...","0","kumlok","[""kumlok"",""kumlom""]","","posttest trial","8",""
"html-button-response-clever","163","3219616","0.0-13.0-0.43","1459","Te bizony sokat péleslesz. Én is sokat...","0","péleslek","[""péleslek"",""péleslem""]","","posttest trial","8",""
"html-button-response-clever","164","3221497","0.0-13.0-0.44","1373","Te bizony sokat sprédlesz. Én is sokat...","0","sprédlek","[""sprédlek"",""sprédlem""]","","posttest trial","8",""
"html-button-response-clever","165","3223867","0.0-13.0-0.45","1848","Te bizony sokat gerénylesz. Én is sokat...","0","gerénylek","[""gerénylek"",""gerénylem""]","","posttest trial","8",""
"html-button-response-clever","166","3226391","0.0-13.0-0.46","2010","Te bizony sokat aglasz. Én is sokat...","1","aglok","[""aglom"",""aglok""]","","posttest trial","8",""
"html-button-response-clever","167","3228980","0.0-13.0-0.47","2068","Te bizony sokat csólorzol. Én is sokat...","1","csólorzom","[""csólorzok"",""csólorzom""]","","posttest trial","8",""
"html-button-response-clever","168","3232095","0.0-13.0-0.48","2592","Te bizony sokat frivajlasz. Én is sokat...","0","frivajlok","[""frivajlok"",""frivajlom""]","","posttest trial","8",""
"html-button-response-clever","169","3234011","0.0-13.0-0.49","1402","Te bizony sokat sprálszol. Én is sokat...","1","sprálszom","[""sprálszok"",""sprálszom""]","","posttest trial","8",""
"html-button-response-clever","170","3236176","0.0-13.0-0.50","1653","Te bizony sokat fligzol. Én is sokat...","0","fligzom","[""fligzom"",""fligzok""]","","posttest trial","8",""
"html-button-response-clever","171","3238508","0.0-13.0-0.51","1826","Te bizony sokat ibáglasz. Én is sokat...","1","ibáglok","[""ibáglom"",""ibáglok""]","","posttest trial","8",""
"html-button-response-clever","172","3240848","0.0-13.0-0.52","1827","Te bizony sokat szűslesz. Én is sokat...","0","szűslök","[""szűslök"",""szűslöm""]","","posttest trial","8",""
"html-button-response-clever","173","3243544","0.0-13.0-0.53","2191","Te bizony sokat plágadzol. Én is sokat...","1","plágadzom","[""plágadzok"",""plágadzom""]","","posttest trial","8",""
"html-button-response","174","3256654","0.0-14.0","12601","<p> Vége a játéknak. A teljes pontszámod 33/54.</p><p> Szép munka! &#128526;&#128526;&#128526;</p><p>A Befejezés gomb megnyomása után bezárhatod a böngészőablakot.</p>","0","","","","","",""
"html-keyboard-response","175","3262174","0.0-15.0","null","<div class=""message"">
         <p>Egy kis türelmet kérünk, amíg elmentjük az adatokat...</p>
         </div>","null","","","","","",""
