"trial_type","trial_index","time_elapsed","internal_node_id","rt","stimulus","response","response_string","choices","esp_response","trial_kind","list_number","esp_match"
"pavlovia","0","892","0.0-0.0","","","","","","","","",""
"html-button-response","1","5710","0.0-1.0","4316","<p>Kedves Résztvevő! A Budapesti Műszaki és Gazdaságtudományi Egyetem Kognitív Tudományi Tanszékének kutatásában való részvételed kérjük. A kutatásban azt vizsgáljuk, hogy a magyar anyanyelvűek hogyan használnak bizonyos szóalakokat, és hogy milyen képük van arról, hogy mások hogyan használják, hogyan képzik a szavakat. Ez hozzásegít bennünket ahhoz, hogy jobban megértsük, hogyan dolgozza fel és tárolja a nyelvet az emberi agy, és hogyan működnek, hogyan változnak egy adott közösség nyelvi konvenciói.</p><p>A vizsgálat egy rövid számítógépes feladatból fog állni. A kutatásban való részvétel önkéntes, a részvételi szándék bármikor visszavonható. A résztvevők eredményeit név nélkül kezeljük, így nem beazonosíthatók az adatok feldolgozása során. Minden személyes adatot az EU általános adatvédelmi rendeletének (GDPR) megfelelően kezelünk és legfeljebb öt éven belül megsemmisítünk. A vizsgálat jellemzően húsz percet vesz igénybe.</p><p>Kutatásvezető:</p><p>Dr. Rácz Péter, tudományos munkatárs, BME KTT</p><p>e-mail: racz.peter.marton@ttk.bme.hu</p>","0","","","","","",""
"html-button-response","2","21117","0.0-2.0","14903","<p>A kísérletben szavakat fogsz látni. Ezek között lesznek olyanok, amelyeket ismersz, de előfordulhatnak olyanok is, amelyeket nem ismersz, sőt, vannak köztük kitalált szavak is. Minden szónál látni fogsz toldalékolt alakokat. A te feladatod az lesz, hogy minden szóhoz kiválaszd azt a toldalékolt alakot, amely a te számodra ismerősebben, természetesebben hangzik. Rossz válaszok nincsenek, mert van olyan, hogy különböző embereknek más és más szó tűnik jobb választásnak. A választ úgy tudod majd kiválasztani, ha rákattintasz.</p><p>Ebben a szóválasztós játékban egy másik játékossal együtt veszel majd részt. A másik játékos is minden esetben azok közül a lehetőségek közül válogathat, mint te. Kettőtök feladata az, hogy ugyanazt a lehetőséget válasszátok minden esetben. Ahhoz, hogy ez sikerüljön, neked figyelned kell arra, hogy a másik játékos milyen válaszokat ad, és ennek alapján meg kell tippelned, hogyan választ legközelebb. Ha eltalálod, akkor pontot kapsz.</p>","0","","","","","",""
"html-button-response","3","27810","0.0-3.0","6190","<p>Kérjük, olvasd el az alábbi nyilatkozatot, és amennyiben egyetértesz vele, nyomj a Beleegyezés gombra!</p><p>Kijelentem, hogy magyar anyanyelvű személyként önként veszek részt a BME KTT kísérletében. A kutatás céljával és folyamatával kapcsolatban elegendő tájékoztatást kaptam, lehetőségem volt kérdések feltételére, és esetleges kérdéseimre megfelelő válaszokat kaptam. A tájékoztatás alapján elegendő mennyiségű információ áll a rendelkezésemre, hogy eldönthessem, részt kívánok-e venni a kutatásban.</p><p>Tisztában vagyok vele, hogy részvételi szándékomat és adataimat bármikor, indoklás nélkül visszavonhatom.</p><p>Értem és tudomásul veszem, hogy a kutatás tudományos célokat szolgál, és az általam szolgáltatott adatokat a BME kizárólag kutatási célból használja fel. Tudomásul veszem, hogy eredményeimet a többi résztvevő eredményeivel együtt kezelik, így egyéni teljesítményemről visszajelzést, szakvéleményt nem kapok.</p><p>Megértettem, hogy adataim kezelését illetően a BME az EU általános adatvédelmi rendelete (GDPR), a hatályos adatvédelmi törvény és a nemzetközi kutatás-etikai alapelvek szerint jár el. Eredményeim anonim módon kerülnek feldolgozásra, és a kutatás résztvevői az azonosításomra alkalmas adataimat harmadik félnek nem szolgáltatják ki. Engedélyezem a BME számára a jelen kutatásban felvett adataim feldolgozását és tárolását, beleértve azok későbbi kutatásokhoz való felhasználását is. Személyes adataim kezelésével kapcsolatban tájékoztatást kérhetek a kutatás résztvevőitől, az adatkezelés ellen tiltakozhatok, kérhetem személyes adataim helyesbítését, törlését vagy zárolását, valamint jogorvoslatért a Nemzeti Adatvédelmi és Információszabadság Hatósághoz fordulhatok.</p><p>Kijelentem, hogy a kutatásban való részvételem körülményeiről részletes tájékoztatást kaptam, és a feltételeket elfogadom.</p>","0","","","","","",""
"survey-text","4","76902","0.0-4.0","48584","","{""Q0"":""3841398"",""Q1"":""nő"",""Q2"":""1999"",""Q3"":""18""}","","","","","",""
"html-button-response","5","79977","0.0-5.0","2570","<p>Ebben a játékban szavakat kell toldalékolni.</p> <p>Minden körben mutatunk majd egy példamondatot, amiben lesz egy szó.</p> <p>Alatta jön egy második mondat, ezt a mondatot neked kell majd befejezni, ugyanezzel a szóval.</p> <p>Nem biztos, hogy a szó eleve ismerős lesz számodra!</p> <p>Minden mondathoz adunk két lehetőséget, ezeket balra és jobbra látod majd.</p> <p>A játék kb. negyedóráig-húsz percig tart.</p>","0","","","","","",""
"html-button-response","6","97274","0.0-6.0","16794","<p>Nézzünk egy példát!</p> <p>A példamondat: ""János imád fláramolni, ezért sokat fláramlik. Mi ritkán...""</p><p>Neked ezt a mondatot kell befejezned: ""Ti ritkán...""</p><p>A lehetőségek pedig ezek:</p>","0","","","","","",""
"html-button-response","7","106644","0.0-7.0","8868","<p>Nagyon jó.</p><p>Ezt a játékot nem egyedül fogod játszani, hanem egy másik játékossal.</p><p>Mielőtt továbblépünk, összekapcsolunk titeket egymással.</p><p>Ez igénybe vehet néhány másodpercet, amihez szíves türelmed kérjük.</p>","0","","","","","",""
"html-button-response","8","112366","0.0-8.0","null","<p>Csatlakozás a másik játékoshoz...</p>","null","","","","","",""
"html-button-response","9","114868","0.0-9.0","null","<p> Sikeres kapcsolódás!</p>","null","","","","","",""
"html-button-response","10","125371","0.0-10.0","null","<p>A következőkben ketten játsszátok a szóválasztós játékot.</p><p>A feladatotok az lesz, hogy minden körben <b>ugyanazt</b> a szót válasszátok.</p><p>Minden ilyen egyező válaszért pontot kaptok.</p><p>Próbáld meg kitalálni, mit választ a másik játékos!</p><p>Bármikor választhatsz, a körnek akkor van vége, ha mindketten döntöttetek.</p><p>Sok sikert!</p>","null","","","","","",""
"html-button-response-esp","11","131000","0.0-11.0-0.0","5127","János imád flivegezni, ezért sokat flivegzik. Ők ritkán...","0","flivegzenek","[""flivegzenek"",""flivegeznek""]","flivegzenek","esp trial","10","true"
"html-button-response","12","134503","0.0-11.0-1.0","null","<p>A másik játékos ezt választotta: <b>flivegzenek</b>.</p><p>&#x2705;</p><p>A te válaszod és a másik játékos válasza <b>megegyeznek</b>.</p>","null","","","","feedback trial","",""
"html-button-response-esp","13","139206","0.0-11.0-0.1","2939","János imád spalározni, ezért sokat spalárzik. Ők ritkán...","1","spalárzanak","[""spalároznak"",""spalárzanak""]","spalároznak","esp trial","10","false"
"html-button-response","14","142709","0.0-11.0-1.1","null","<p>A másik játékos ezt választotta: <b>spalároznak</b>.</p><p>&#10060;</p><p>A válaszaitok <b>nem</b> egyeznek meg.</p>","null","","","","feedback trial","",""
"html-button-response-esp","15","148342","0.0-11.0-0.2","5131","János imád bregezni, ezért sokat bregzik. Mi ritkán...","0","bregzünk","[""bregzünk"",""bregezünk""]","bregezünk","esp trial","10","false"
"html-button-response","16","151845","0.0-11.0-1.2","null","<p>A másik játékos ezt választotta: <b>bregezünk</b>.</p><p>&#10060;</p><p>A válaszaitok <b>nem</b> egyeznek meg.</p>","null","","","","feedback trial","",""
"html-button-response-esp","17","159510","0.0-11.0-0.3","7162","János imád fröjözni, ezért sokat fröjlik. Mi ritkán...","1","fröjözünk","[""fröjlünk"",""fröjözünk""]","fröjözünk","esp trial","10","true"
"html-button-response","18","163012","0.0-11.0-1.3","null","<p>A másik játékos ezt választotta: <b>fröjözünk</b>.</p><p>&#x2705;</p><p>A te válaszod és a másik játékos válasza <b>megegyeznek</b>.</p>","null","","","","feedback trial","",""
"html-button-response-esp","19","168550","0.0-11.0-0.4","5036","János imád mísozni, ezért sokat míslik. Mi ritkán...","1","mísozunk","[""míslunk"",""mísozunk""]","mísozunk","esp trial","10","true"
"html-button-response","20","172052","0.0-11.0-1.4","null","<p>A másik játékos ezt választotta: <b>mísozunk</b>.</p><p>&#x2705;</p><p>A te válaszod és a másik játékos válasza <b>megegyeznek</b>.</p>","null","","","","feedback trial","",""
"html-button-response-esp","21","177380","0.0-11.0-0.5","4826","János imád sztritozni, ezért sokat sztritlik. Ők ritkán...","1","sztritoznak","[""sztritlanak"",""sztritoznak""]","sztritoznak","esp trial","10","true"
"html-button-response","22","180883","0.0-11.0-1.5","null","<p>A másik játékos ezt választotta: <b>sztritoznak</b>.</p><p>&#x2705;</p><p>A te válaszod és a másik játékos válasza <b>megegyeznek</b>.</p>","null","","","","feedback trial","",""
"html-button-response-esp","23","187951","0.0-11.0-0.6","6566","János imád trűnyözni, ezért sokat trűnylik. Ők ritkán...","1","trűnyöznek","[""trűnylenek"",""trűnyöznek""]","trűnyöznek","esp trial","10","true"
"html-button-response","24","191452","0.0-11.0-1.6","null","<p>A másik játékos ezt választotta: <b>trűnyöznek</b>.</p><p>&#x2705;</p><p>A te válaszod és a másik játékos válasza <b>megegyeznek</b>.</p>","null","","","","feedback trial","",""
"html-button-response-esp","25","196966","0.0-11.0-0.7","5011","János imád sztrajozni, ezért sokat sztrajlik. Ők ritkán...","0","sztrajoznak","[""sztrajoznak"",""sztrajlanak""]","sztrajoznak","esp trial","10","true"
"html-button-response","26","200468","0.0-11.0-1.7","null","<p>A másik játékos ezt választotta: <b>sztrajoznak</b>.</p><p>&#x2705;</p><p>A te válaszod és a másik játékos válasza <b>megegyeznek</b>.</p>","null","","","","feedback trial","",""
"html-button-response-esp","27","206258","0.0-11.0-0.8","5288","János imád frivamozni, ezért sokat frivamlik. Mi ritkán...","0","frivamozunk","[""frivamozunk"",""frivamlunk""]","frivamozunk","esp trial","10","true"
"html-button-response","28","209759","0.0-11.0-1.8","null","<p>A másik játékos ezt választotta: <b>frivamozunk</b>.</p><p>&#x2705;</p><p>A te válaszod és a másik játékos válasza <b>megegyeznek</b>.</p>","null","","","","feedback trial","",""
"html-button-response-esp","29","216122","0.0-11.0-0.9","5860","János imád sprigozni, ezért sokat sprigzik. Ti ritkán...","1","sprigoztok","[""sprigzotok"",""sprigoztok""]","sprigzotok","esp trial","10","false"
"html-button-response","30","219624","0.0-11.0-1.9","null","<p>A másik játékos ezt választotta: <b>sprigzotok</b>.</p><p>&#10060;</p><p>A válaszaitok <b>nem</b> egyeznek meg.</p>","null","","","","feedback trial","",""
"html-button-response-esp","31","227500","0.0-11.0-0.10","7375","János imád flézezni, ezért sokat flézlik. Ti ritkán...","0","flézletek","[""flézletek"",""flézeztek""]","flézletek","esp trial","10","true"
"html-button-response","32","231002","0.0-11.0-1.10","null","<p>A másik játékos ezt választotta: <b>flézletek</b>.</p><p>&#x2705;</p><p>A te válaszod és a másik játékos válasza <b>megegyeznek</b>.</p>","null","","","","feedback trial","",""
"html-button-response-esp","33","235998","0.0-11.0-0.11","4494","János imád pekedni, ezért sokat pekszik. Mi ritkán...","1","pekedünk","[""pekszünk"",""pekedünk""]","pekedünk","esp trial","10","true"
"html-button-response","34","239500","0.0-11.0-1.11","null","<p>A másik játékos ezt választotta: <b>pekedünk</b>.</p><p>&#x2705;</p><p>A te válaszod és a másik játékos válasza <b>megegyeznek</b>.</p>","null","","","","feedback trial","",""
"html-button-response-esp","35","246592","0.0-11.0-0.12","6591","János imád brivepedni, ezért sokat brivepszik. Mi ritkán...","1","brivepszünk","[""brivepedünk"",""brivepszünk""]","brivepedünk","esp trial","10","false"
"html-button-response","36","250094","0.0-11.0-1.12","null","<p>A másik játékos ezt választotta: <b>brivepedünk</b>.</p><p>&#10060;</p><p>A válaszaitok <b>nem</b> egyeznek meg.</p>","null","","","","feedback trial","",""
"html-button-response-esp","37","254796","0.0-11.0-0.13","3767","János imád lírozni, ezért sokat lírlik. Ők ritkán...","1","líroznak","[""lírlanak"",""líroznak""]","líroznak","esp trial","10","true"
"html-button-response","38","258298","0.0-11.0-1.13","null","<p>A másik játékos ezt választotta: <b>líroznak</b>.</p><p>&#x2705;</p><p>A te válaszod és a másik játékos válasza <b>megegyeznek</b>.</p>","null","","","","feedback trial","",""
"html-button-response-esp","39","264444","0.0-11.0-0.14","5645","János imád spöközni, ezért sokat spöklik. Mi ritkán...","1","spöklünk","[""spöközünk"",""spöklünk""]","spöközünk","esp trial","10","false"
"html-button-response","40","267945","0.0-11.0-1.14","null","<p>A másik játékos ezt választotta: <b>spöközünk</b>.</p><p>&#10060;</p><p>A válaszaitok <b>nem</b> egyeznek meg.</p>","null","","","","feedback trial","",""
"html-button-response-esp","41","275062","0.0-11.0-0.15","6615","János imád flubokozni, ezért sokat fluboklik. Ti ritkán...","1","flubokoztok","[""fluboklotok"",""flubokoztok""]","fluboklotok","esp trial","10","false"
"html-button-response","42","278564","0.0-11.0-1.15","null","<p>A másik játékos ezt választotta: <b>fluboklotok</b>.</p><p>&#10060;</p><p>A válaszaitok <b>nem</b> egyeznek meg.</p>","null","","","","feedback trial","",""
"html-button-response-esp","43","283266","0.0-11.0-0.16","3429","János imád tibarozni, ezért sokat tibarzik. Ők ritkán...","0","tibarzanak","[""tibarzanak"",""tibaroznak""]","tibaroznak","esp trial","10","false"
"html-button-response","44","286768","0.0-11.0-1.16","null","<p>A másik játékos ezt választotta: <b>tibaroznak</b>.</p><p>&#10060;</p><p>A válaszaitok <b>nem</b> egyeznek meg.</p>","null","","","","feedback trial","",""
"html-button-response-esp","45","291470","0.0-11.0-0.17","3880","János imád frésezni, ezért sokat fréslik. Mi ritkán...","0","frésezünk","[""frésezünk"",""fréslünk""]","frésezünk","esp trial","10","true"
"html-button-response","46","294973","0.0-11.0-1.17","null","<p>A másik játékos ezt választotta: <b>frésezünk</b>.</p><p>&#x2705;</p><p>A te válaszod és a másik játékos válasza <b>megegyeznek</b>.</p>","null","","","","feedback trial","",""
"html-button-response-esp","47","303258","0.0-11.0-0.18","7783","János imád tágarozni, ezért sokat tágarzik. Mi ritkán...","1","tágarozunk","[""tágarzunk"",""tágarozunk""]","tágarozunk","esp trial","10","true"
"html-button-response","48","306760","0.0-11.0-1.18","null","<p>A másik játékos ezt választotta: <b>tágarozunk</b>.</p><p>&#x2705;</p><p>A te válaszod és a másik játékos válasza <b>megegyeznek</b>.</p>","null","","","","feedback trial","",""
"html-button-response-esp","49","313420","0.0-11.0-0.19","6158","János imád mihágozni, ezért sokat mihágzik. Ti ritkán...","0","mihágoztok","[""mihágoztok"",""mihágzotok""]","mihágzotok","esp trial","10","false"
"html-button-response","50","316922","0.0-11.0-1.19","null","<p>A másik játékos ezt választotta: <b>mihágzotok</b>.</p><p>&#10060;</p><p>A válaszaitok <b>nem</b> egyeznek meg.</p>","null","","","","feedback trial","",""
"html-button-response-esp","51","322137","0.0-11.0-0.20","4716","János imád livényezni, ezért sokat livénylik. Mi ritkán...","0","livényezünk","[""livényezünk"",""livénylünk""]","livényezünk","esp trial","10","true"
"html-button-response","52","325640","0.0-11.0-1.20","null","<p>A másik játékos ezt választotta: <b>livényezünk</b>.</p><p>&#x2705;</p><p>A te válaszod és a másik játékos válasza <b>megegyeznek</b>.</p>","null","","","","feedback trial","",""
"html-button-response-esp","53","331116","0.0-11.0-0.21","4975","János imád pörözni, ezért sokat pörzik. Ti ritkán...","0","pöröztök","[""pöröztök"",""pörzötök""]","pörzötök","esp trial","10","false"
"html-button-response","54","334618","0.0-11.0-1.21","null","<p>A másik játékos ezt választotta: <b>pörzötök</b>.</p><p>&#10060;</p><p>A válaszaitok <b>nem</b> egyeznek meg.</p>","null","","","","feedback trial","",""
"html-button-response-esp","55","340564","0.0-11.0-0.22","5445","János imád trírozni, ezért sokat trírzik. Mi ritkán...","1","trírozunk","[""trírzunk"",""trírozunk""]","trírozunk","esp trial","10","true"
"html-button-response","56","344066","0.0-11.0-1.22","null","<p>A másik játékos ezt választotta: <b>trírozunk</b>.</p><p>&#x2705;</p><p>A te válaszod és a másik játékos válasza <b>megegyeznek</b>.</p>","null","","","","feedback trial","",""
"html-button-response-esp","57","348976","0.0-11.0-0.23","4408","János imád kluzozni, ezért sokat kluzlik. Ti ritkán...","1","kluzoztok","[""kluzlotok"",""kluzoztok""]","kluzlotok","esp trial","10","false"
"html-button-response","58","352477","0.0-11.0-1.23","null","<p>A másik játékos ezt választotta: <b>kluzlotok</b>.</p><p>&#10060;</p><p>A válaszaitok <b>nem</b> egyeznek meg.</p>","null","","","","feedback trial","",""
"html-button-response-esp","59","357179","0.0-11.0-0.24","3603","János imád spibamozni, ezért sokat spibamlik. Ők ritkán...","0","spibamlanak","[""spibamlanak"",""spibamoznak""]","spibamoznak","esp trial","10","false"
"html-button-response","60","360681","0.0-11.0-1.24","null","<p>A másik játékos ezt választotta: <b>spibamoznak</b>.</p><p>&#10060;</p><p>A válaszaitok <b>nem</b> egyeznek meg.</p>","null","","","","feedback trial","",""
"html-button-response-esp","61","367006","0.0-11.0-0.25","5823","János imád frihegezni, ezért sokat friheglik. Mi ritkán...","1","friheglünk","[""frihegezünk"",""friheglünk""]","frihegezünk","esp trial","10","false"
"html-button-response","62","370507","0.0-11.0-1.25","null","<p>A másik játékos ezt választotta: <b>frihegezünk</b>.</p><p>&#10060;</p><p>A válaszaitok <b>nem</b> egyeznek meg.</p>","null","","","","feedback trial","",""
"html-button-response-esp","63","375210","0.0-11.0-0.26","1317","János imád prazozni, ezért sokat prazlik. Mi ritkán...","0","prazlunk","[""prazlunk"",""prazozunk""]","prazozunk","esp trial","10","false"
"html-button-response","64","378712","0.0-11.0-1.26","null","<p>A másik játékos ezt választotta: <b>prazozunk</b>.</p><p>&#10060;</p><p>A válaszaitok <b>nem</b> egyeznek meg.</p>","null","","","","feedback trial","",""
"html-button-response-esp","65","389862","0.0-11.0-0.27","10649","János imád hákodni, ezért sokat hákszik. Ők ritkán...","0","hákodnak","[""hákodnak"",""hákszanak""]","hákodnak","esp trial","10","true"
"html-button-response","66","393364","0.0-11.0-1.27","null","<p>A másik játékos ezt választotta: <b>hákodnak</b>.</p><p>&#x2705;</p><p>A te válaszod és a másik játékos válasza <b>megegyeznek</b>.</p>","null","","","","feedback trial","",""
"html-button-response-esp","67","401074","0.0-11.0-0.28","7208","János imád gyivepedni, ezért sokat gyivepszik. Ők ritkán...","1","gyivepednek","[""gyivepszenek"",""gyivepednek""]","gyivepednek","esp trial","10","true"
"html-button-response","68","404576","0.0-11.0-1.28","null","<p>A másik játékos ezt választotta: <b>gyivepednek</b>.</p><p>&#x2705;</p><p>A te válaszod és a másik játékos válasza <b>megegyeznek</b>.</p>","null","","","","feedback trial","",""
"html-button-response-esp","69","412522","0.0-11.0-0.29","7444","János imád brálamozni, ezért sokat brálamlik. Ők ritkán...","0","brálamoznak","[""brálamoznak"",""brálamlanak""]","brálamoznak","esp trial","10","true"
"html-button-response","70","416024","0.0-11.0-1.29","null","<p>A másik játékos ezt választotta: <b>brálamoznak</b>.</p><p>&#x2705;</p><p>A te válaszod és a másik játékos válasza <b>megegyeznek</b>.</p>","null","","","","feedback trial","",""
"html-button-response-esp","71","421930","0.0-11.0-0.30","5405","János imád gibemezni, ezért sokat gibemlik. Mi ritkán...","1","gibemezünk","[""gibemlünk"",""gibemezünk""]","gibemezünk","esp trial","10","true"
"html-button-response","72","425432","0.0-11.0-1.30","null","<p>A másik játékos ezt választotta: <b>gibemezünk</b>.</p><p>&#x2705;</p><p>A te válaszod és a másik játékos válasza <b>megegyeznek</b>.</p>","null","","","","feedback trial","",""
"html-button-response-esp","73","434599","0.0-11.0-0.31","8665","János imád dirányozni, ezért sokat diránylik. Ők ritkán...","1","dirányoznak","[""diránylanak"",""dirányoznak""]","dirányoznak","esp trial","10","true"
"html-button-response","74","438102","0.0-11.0-1.31","null","<p>A másik játékos ezt választotta: <b>dirányoznak</b>.</p><p>&#x2705;</p><p>A te válaszod és a másik játékos válasza <b>megegyeznek</b>.</p>","null","","","","feedback trial","",""
"html-button-response-esp","75","444506","0.0-11.0-0.32","5901","János imád galározni, ezért sokat galárzik. Ők ritkán...","0","galároznak","[""galároznak"",""galárzanak""]","galárzanak","esp trial","10","false"
"html-button-response","76","448008","0.0-11.0-1.32","null","<p>A másik játékos ezt választotta: <b>galárzanak</b>.</p><p>&#10060;</p><p>A válaszaitok <b>nem</b> egyeznek meg.</p>","null","","","","feedback trial","",""
"html-button-response-esp","77","452710","0.0-11.0-0.33","3276","János imád pehégedni, ezért sokat pehégszik. Ti ritkán...","1","pehégedtek","[""pehégszetek"",""pehégedtek""]","pehégedtek","esp trial","10","true"
"html-button-response","78","456212","0.0-11.0-1.33","null","<p>A másik játékos ezt választotta: <b>pehégedtek</b>.</p><p>&#x2705;</p><p>A te válaszod és a másik játékos válasza <b>megegyeznek</b>.</p>","null","","","","feedback trial","",""
"html-button-response-esp","79","461830","0.0-11.0-0.34","5116","János imád vobozni, ezért sokat vobzik. Ti ritkán...","0","voboztok","[""voboztok"",""vobzotok""]","vobzotok","esp trial","10","false"
"html-button-response","80","465332","0.0-11.0-1.34","null","<p>A másik játékos ezt választotta: <b>vobzotok</b>.</p><p>&#10060;</p><p>A válaszaitok <b>nem</b> egyeznek meg.</p>","null","","","","feedback trial","",""
"html-button-response-esp","81","470034","0.0-11.0-0.35","1049","János imád lumozni, ezért sokat lumlik. Ti ritkán...","1","lumoztok","[""lumlotok"",""lumoztok""]","lumlotok","esp trial","10","false"
"html-button-response","82","473536","0.0-11.0-1.35","null","<p>A másik játékos ezt választotta: <b>lumlotok</b>.</p><p>&#10060;</p><p>A válaszaitok <b>nem</b> egyeznek meg.</p>","null","","","","feedback trial","",""
"html-button-response-esp","83","478238","0.0-11.0-0.36","1011","János imád sponyozni, ezért sokat sponylik. Ők ritkán...","0","sponylanak","[""sponylanak"",""sponyoznak""]","sponyoznak","esp trial","10","false"
"html-button-response","84","481740","0.0-11.0-1.36","null","<p>A másik játékos ezt választotta: <b>sponyoznak</b>.</p><p>&#10060;</p><p>A válaszaitok <b>nem</b> egyeznek meg.</p>","null","","","","feedback trial","",""
"html-button-response-esp","85","486443","0.0-11.0-0.37","3539","János imád riványozni, ezért sokat riványlik. Ti ritkán...","0","riványoztok","[""riványoztok"",""riványlotok""]","riványoztok","esp trial","10","true"
"html-button-response","86","489944","0.0-11.0-1.37","null","<p>A másik játékos ezt választotta: <b>riványoztok</b>.</p><p>&#x2705;</p><p>A te válaszod és a másik játékos válasza <b>megegyeznek</b>.</p>","null","","","","feedback trial","",""
"html-button-response-esp","87","494647","0.0-11.0-0.38","3086","János imád küsözni, ezért sokat küslik. Mi ritkán...","1","küsözünk","[""küslünk"",""küsözünk""]","küsözünk","esp trial","10","true"
"html-button-response","88","498149","0.0-11.0-1.38","null","<p>A másik játékos ezt választotta: <b>küsözünk</b>.</p><p>&#x2705;</p><p>A te válaszod és a másik játékos válasza <b>megegyeznek</b>.</p>","null","","","","feedback trial","",""
"html-button-response-esp","89","503620","0.0-11.0-0.39","4970","János imád brározni, ezért sokat brárlik. Ők ritkán...","1","brároznak","[""brárlanak"",""brároznak""]","brároznak","esp trial","10","true"
"html-button-response","90","507121","0.0-11.0-1.39","null","<p>A másik játékos ezt választotta: <b>brároznak</b>.</p><p>&#x2705;</p><p>A te válaszod és a másik játékos válasza <b>megegyeznek</b>.</p>","null","","","","feedback trial","",""
"html-button-response-esp","91","513844","0.0-11.0-0.40","6221","János imád sprimozni, ezért sokat sprimlik. Mi ritkán...","1","sprimozunk","[""sprimlunk"",""sprimozunk""]","sprimozunk","esp trial","10","true"
"html-button-response","92","517346","0.0-11.0-1.40","null","<p>A másik játékos ezt választotta: <b>sprimozunk</b>.</p><p>&#x2705;</p><p>A te válaszod és a másik játékos válasza <b>megegyeznek</b>.</p>","null","","","","feedback trial","",""
"html-button-response-esp","93","523156","0.0-11.0-0.41","5309","János imád drivegezni, ezért sokat drivegzik. Ti ritkán...","1","drivegeztek","[""drivegzetek"",""drivegeztek""]","drivegzetek","esp trial","10","false"
"html-button-response","94","526658","0.0-11.0-1.41","null","<p>A másik játékos ezt választotta: <b>drivegzetek</b>.</p><p>&#10060;</p><p>A válaszaitok <b>nem</b> egyeznek meg.</p>","null","","","","feedback trial","",""
"html-button-response-esp","95","531359","0.0-11.0-0.42","1379","János imád brivágozni, ezért sokat briváglik. Ők ritkán...","0","brivágoznak","[""brivágoznak"",""briváglanak""]","briváglanak","esp trial","10","false"
"html-button-response","96","534862","0.0-11.0-1.42","null","<p>A másik játékos ezt választotta: <b>briváglanak</b>.</p><p>&#10060;</p><p>A válaszaitok <b>nem</b> egyeznek meg.</p>","null","","","","feedback trial","",""
"html-button-response-esp","97","539564","0.0-11.0-0.43","1649","János imád klarágozni, ezért sokat klarágzik. Ti ritkán...","0","klarágoztok","[""klarágoztok"",""klarágzotok""]","klarágzotok","esp trial","10","false"
"html-button-response","98","543067","0.0-11.0-1.43","null","<p>A másik játékos ezt választotta: <b>klarágzotok</b>.</p><p>&#10060;</p><p>A válaszaitok <b>nem</b> egyeznek meg.</p>","null","","","","feedback trial","",""
"html-button-response-esp","99","547768","0.0-11.0-0.44","1282","János imád prilepedni, ezért sokat prilepszik. Mi ritkán...","0","prilepszünk","[""prilepszünk"",""prilepedünk""]","prilepedünk","esp trial","10","false"
"html-button-response","100","551269","0.0-11.0-1.44","null","<p>A másik játékos ezt választotta: <b>prilepedünk</b>.</p><p>&#10060;</p><p>A válaszaitok <b>nem</b> egyeznek meg.</p>","null","","","","feedback trial","",""
"html-button-response-esp","101","558457","0.0-11.0-0.45","6686","János imád brüszözni, ezért sokat brüszlik. Ti ritkán...","1","brüszöztök","[""brüszlötök"",""brüszöztök""]","brüszöztök","esp trial","10","true"
"html-button-response","102","561960","0.0-11.0-1.45","null","<p>A másik játékos ezt választotta: <b>brüszöztök</b>.</p><p>&#x2705;</p><p>A te válaszod és a másik játékos válasza <b>megegyeznek</b>.</p>","null","","","","feedback trial","",""
"html-button-response-esp","103","567394","0.0-11.0-0.46","4932","János imád gatágozni, ezért sokat gatáglik. Mi ritkán...","1","gatágozunk","[""gatáglunk"",""gatágozunk""]","gatáglunk","esp trial","10","false"
"html-button-response","104","570897","0.0-11.0-1.46","null","<p>A másik játékos ezt választotta: <b>gatáglunk</b>.</p><p>&#10060;</p><p>A válaszaitok <b>nem</b> egyeznek meg.</p>","null","","","","feedback trial","",""
"html-button-response-esp","105","575599","0.0-11.0-0.47","3369","János imád míjozni, ezért sokat míjzik. Mi ritkán...","1","míjozunk","[""míjzunk"",""míjozunk""]","míjozunk","esp trial","10","true"
"html-button-response","106","579102","0.0-11.0-1.47","null","<p>A másik játékos ezt választotta: <b>míjozunk</b>.</p><p>&#x2705;</p><p>A te válaszod és a másik játékos válasza <b>megegyeznek</b>.</p>","null","","","","feedback trial","",""
"html-button-response-esp","107","583804","0.0-11.0-0.48","1457","János imád brilegezni, ezért sokat brilegzik. Mi ritkán...","0","brilegzünk","[""brilegzünk"",""brilegezünk""]","brilegezünk","esp trial","10","false"
"html-button-response","108","587307","0.0-11.0-1.48","null","<p>A másik játékos ezt választotta: <b>brilegezünk</b>.</p><p>&#10060;</p><p>A válaszaitok <b>nem</b> egyeznek meg.</p>","null","","","","feedback trial","",""
"html-button-response-esp","109","592010","0.0-11.0-0.49","2439","János imád tribejezni, ezért sokat tribejlik. Ti ritkán...","1","tribejeztek","[""tribejletek"",""tribejeztek""]","tribejletek","esp trial","10","false"
"html-button-response","110","595511","0.0-11.0-1.49","null","<p>A másik játékos ezt választotta: <b>tribejletek</b>.</p><p>&#10060;</p><p>A válaszaitok <b>nem</b> egyeznek meg.</p>","null","","","","feedback trial","",""
"html-button-response-esp","111","600214","0.0-11.0-0.50","780","János imád filányozni, ezért sokat filánylik. Mi ritkán...","0","filányozunk","[""filányozunk"",""filánylunk""]","filányozunk","esp trial","10","true"
"html-button-response","112","603716","0.0-11.0-1.50","null","<p>A másik játékos ezt választotta: <b>filányozunk</b>.</p><p>&#x2705;</p><p>A te válaszod és a másik játékos válasza <b>megegyeznek</b>.</p>","null","","","","feedback trial","",""
"html-button-response-esp","113","608417","0.0-11.0-0.51","820","János imád tűgözni, ezért sokat tűgzik. Ti ritkán...","1","tűgzötök","[""tűgöztök"",""tűgzötök""]","tűgöztök","esp trial","10","false"
"html-button-response","114","611919","0.0-11.0-1.51","null","<p>A másik játékos ezt választotta: <b>tűgöztök</b>.</p><p>&#10060;</p><p>A válaszaitok <b>nem</b> egyeznek meg.</p>","null","","","","feedback trial","",""
"html-button-response-esp","115","616621","0.0-11.0-0.52","1209","János imád drojozni, ezért sokat drojzik. Mi ritkán...","0","drojzunk","[""drojzunk"",""drojozunk""]","drojozunk","esp trial","10","false"
"html-button-response","116","620124","0.0-11.0-1.52","null","<p>A másik játékos ezt választotta: <b>drojozunk</b>.</p><p>&#10060;</p><p>A válaszaitok <b>nem</b> egyeznek meg.</p>","null","","","","feedback trial","",""
"html-button-response-esp","117","624826","0.0-11.0-0.53","1311","János imád nágapodni, ezért sokat nágapszik. Ők ritkán...","1","nágapszanak","[""nágapodnak"",""nágapszanak""]","nágapodnak","esp trial","10","false"
"html-button-response","118","628328","0.0-11.0-1.53","null","<p>A másik játékos ezt választotta: <b>nágapodnak</b>.</p><p>&#10060;</p><p>A válaszaitok <b>nem</b> egyeznek meg.</p>","null","","","","feedback trial","",""
"html-button-response","119","639652","0.0-12.0","10821","<p>A közös játék most véget ért.</p><p>Mielőtt eláruljuk a végső pontszámodat, arra kérlek, játszd a szóválasztós játékot néhány percig egyedül is.</p><p>A feladatod ugyanaz lesz, választani két lehetőség közül.</p><p>Most viszont egyedül kell döntened, hogy te melyiket választanád.</p>","0","","","","","",""
"html-button-response-clever","120","647780","0.0-13.0-0.0","7626","János imád bribékedni, ezért sokat bribékszik. Ti ritkán...","1","bribékedtek","[""bribékszetek"",""bribékedtek""]","","posttest trial","1",""
"html-button-response-clever","121","653044","0.0-13.0-0.1","4762","János imád flátozni, ezért sokat flátlik. Ti ritkán...","0","flátoztok","[""flátoztok"",""flátlotok""]","","posttest trial","1",""
"html-button-response-clever","122","657720","0.0-13.0-0.2","4173","János imád bribasozni, ezért sokat bribaslik. Ők ritkán...","1","bribasoznak","[""bribaslanak"",""bribasoznak""]","","posttest trial","1",""
"html-button-response-clever","123","663072","0.0-13.0-0.3","4851","János imád játozni, ezért sokat játlik. Mi ritkán...","0","játozunk","[""játozunk"",""játlunk""]","","posttest trial","1",""
"html-button-response-clever","124","670086","0.0-13.0-0.4","6512","János imád géregezni, ezért sokat géreglik. Ti ritkán...","1","géregeztek","[""géregletek"",""géregeztek""]","","posttest trial","1",""
"html-button-response-clever","125","674998","0.0-13.0-0.5","4410","János imád flugonyozni, ezért sokat flugonylik. Ők ritkán...","1","flugonyoznak","[""flugonylanak"",""flugonyoznak""]","","posttest trial","1",""
"html-button-response-clever","126","678238","0.0-13.0-0.6","2738","János imád döjözni, ezért sokat döjlik. Ők ritkán...","1","döjöznek","[""döjlenek"",""döjöznek""]","","posttest trial","1",""
"html-button-response-clever","127","679642","0.0-13.0-0.7","902","János imád sűjözni, ezért sokat sűjlik. Mi ritkán...","1","sűjlünk","[""sűjözünk"",""sűjlünk""]","","posttest trial","1",""
"html-button-response-clever","128","680724","0.0-13.0-0.8","582","János imád pibegezni, ezért sokat pibegzik. Ők ritkán...","0","pibegeznek","[""pibegeznek"",""pibegzenek""]","","posttest trial","1",""
"html-button-response-clever","129","681902","0.0-13.0-0.9","676","János imád dralágozni, ezért sokat dralágzik. Mi ritkán...","1","dralágzunk","[""dralágozunk"",""dralágzunk""]","","posttest trial","1",""
"html-button-response-clever","130","682882","0.0-13.0-0.10","478","János imád sztredezni, ezért sokat sztredlik. Ti ritkán...","0","sztredeztek","[""sztredeztek"",""sztredletek""]","","posttest trial","1",""
"html-button-response-clever","131","683918","0.0-13.0-0.11","534","János imád klűmözni, ezért sokat klűmlik. Ti ritkán...","1","klűmöztök","[""klűmlötök"",""klűmöztök""]","","posttest trial","1",""
"html-button-response-clever","132","684930","0.0-13.0-0.12","510","János imád nyádozni, ezért sokat nyádlik. Ők ritkán...","0","nyádoznak","[""nyádoznak"",""nyádlanak""]","","posttest trial","1",""
"html-button-response-clever","133","685958","0.0-13.0-0.13","526","János imád vihapodni, ezért sokat vihapszik. Mi ritkán...","1","vihapodunk","[""vihapszunk"",""vihapodunk""]","","posttest trial","1",""
"html-button-response-clever","134","686908","0.0-13.0-0.14","448","János imád flodozni, ezért sokat flodlik. Ti ritkán...","1","flodoztok","[""flodlotok"",""flodoztok""]","","posttest trial","1",""
"html-button-response-clever","135","688202","0.0-13.0-0.15","792","János imád trálodni, ezért sokat trálszik. Mi ritkán...","0","trálszunk","[""trálszunk"",""trálodunk""]","","posttest trial","1",""
"html-button-response-clever","136","689182","0.0-13.0-0.16","479","János imád hubonyozni, ezért sokat hubonylik. Ti ritkán...","0","hubonylotok","[""hubonylotok"",""hubonyoztok""]","","posttest trial","1",""
"html-button-response-clever","137","690932","0.0-13.0-0.17","1248","János imád bejezni, ezért sokat bejzik. Mi ritkán...","1","bejezünk","[""bejzünk"",""bejezünk""]","","posttest trial","1",""
"html-button-response-clever","138","691968","0.0-13.0-0.18","534","János imád tögözni, ezért sokat töglik. Ők ritkán...","1","töglenek","[""tögöznek"",""töglenek""]","","posttest trial","1",""
"html-button-response-clever","139","693175","0.0-13.0-0.19","707","János imád sprebezni, ezért sokat sprebzik. Ők ritkán...","0","sprebzenek","[""sprebzenek"",""sprebeznek""]","","posttest trial","1",""
"html-button-response-clever","140","694172","0.0-13.0-0.20","495","János imád bötőrözni, ezért sokat bötőrzik. Mi ritkán...","0","bötőrözünk","[""bötőrözünk"",""bötőrzünk""]","","posttest trial","1",""
"html-button-response-clever","141","695232","0.0-13.0-0.21","559","János imád frélegezni, ezért sokat frélegzik. Mi ritkán...","1","frélegzünk","[""frélegezünk"",""frélegzünk""]","","posttest trial","1",""
"html-button-response-clever","142","696392","0.0-13.0-0.22","659","János imád nivározni, ezért sokat nivárzik. Ti ritkán...","1","nivároztok","[""nivárzotok"",""nivároztok""]","","posttest trial","1",""
"html-button-response-clever","143","697381","0.0-13.0-0.23","488","János imád prihegedni, ezért sokat prihegszik. Ők ritkán...","1","prihegszenek","[""prihegednek"",""prihegszenek""]","","posttest trial","1",""
"html-button-response-clever","144","698354","0.0-13.0-0.24","470","János imád hiragozni, ezért sokat hiragzik. Ők ritkán...","1","hiragoznak","[""hiragzanak"",""hiragoznak""]","","posttest trial","1",""
"html-button-response-clever","145","699374","0.0-13.0-0.25","518","János imád brürözni, ezért sokat brürzik. Ők ritkán...","0","brüröznek","[""brüröznek"",""brürzenek""]","","posttest trial","1",""
"html-button-response-clever","146","700528","0.0-13.0-0.26","653","János imád gihamozni, ezért sokat gihamlik. Ők ritkán...","0","gihamlanak","[""gihamlanak"",""gihamoznak""]","","posttest trial","1",""
"html-button-response-clever","147","701508","0.0-13.0-0.27","478","János imád metégedni, ezért sokat metégszik. Ők ritkán...","0","metégednek","[""metégednek"",""metégszenek""]","","posttest trial","1",""
"html-button-response-clever","148","702512","0.0-13.0-0.28","503","János imád prugorozni, ezért sokat prugorzik. Ti ritkán...","0","prugoroztok","[""prugoroztok"",""prugorzotok""]","","posttest trial","1",""
"html-button-response-clever","149","703344","0.0-13.0-0.29","330","János imád frinyozni, ezért sokat frinylik. Mi ritkán...","1","frinyozunk","[""frinylunk"",""frinyozunk""]","","posttest trial","1",""
"html-button-response-clever","150","704528","0.0-13.0-0.30","681","János imád nyülöközni, ezért sokat nyülöklik. Ők ritkán...","0","nyülöklenek","[""nyülöklenek"",""nyülököznek""]","","posttest trial","1",""
"html-button-response-clever","151","705454","0.0-13.0-0.31","423","János imád trukodni, ezért sokat trukszik. Ti ritkán...","1","trukodtok","[""trukszotok"",""trukodtok""]","","posttest trial","1",""
"html-button-response-clever","152","706380","0.0-13.0-0.32","424","János imád trilekedni, ezért sokat trilekszik. Ti ritkán...","1","trilekszetek","[""trilekedtek"",""trilekszetek""]","","posttest trial","1",""
"html-button-response-clever","153","707344","0.0-13.0-0.33","462","János imád klégezni, ezért sokat kléglik. Mi ritkán...","0","klégezünk","[""klégezünk"",""kléglünk""]","","posttest trial","1",""
"html-button-response-clever","154","708294","0.0-13.0-0.34","448","János imád frirozni, ezért sokat frirzik. Mi ritkán...","0","frirozunk","[""frirozunk"",""frirzunk""]","","posttest trial","1",""
"html-button-response-clever","155","709274","0.0-13.0-0.35","479","János imád trálakozni, ezért sokat trálaklik. Ők ritkán...","0","trálakoznak","[""trálakoznak"",""trálaklanak""]","","posttest trial","1",""
"html-button-response-clever","156","710270","0.0-13.0-0.36","495","János imád bresezni, ezért sokat breslik. Ők ritkán...","1","breseznek","[""breslenek"",""breseznek""]","","posttest trial","1",""
"html-button-response-clever","157","711242","0.0-13.0-0.37","470","János imád vilesezni, ezért sokat vileslik. Mi ritkán...","1","vileslünk","[""vilesezünk"",""vileslünk""]","","posttest trial","1",""
"html-button-response-clever","158","712372","0.0-13.0-0.38","628","János imád nyöbözni, ezért sokat nyöbzik. Ők ritkán...","1","nyöbzenek","[""nyöböznek"",""nyöbzenek""]","","posttest trial","1",""
"html-button-response-clever","159","713384","0.0-13.0-0.39","511","János imád plibozni, ezért sokat plibzik. Ti ritkán...","0","pliboztok","[""pliboztok"",""plibzotok""]","","posttest trial","1",""
"html-button-response-clever","160","714380","0.0-13.0-0.40","494","János imád dibágozni, ezért sokat dibáglik. Ti ritkán...","1","dibáglotok","[""dibágoztok"",""dibáglotok""]","","posttest trial","1",""
"html-button-response-clever","161","715440","0.0-13.0-0.41","559","János imád nurokozni, ezért sokat nuroklik. Mi ritkán...","1","nuroklunk","[""nurokozunk"",""nuroklunk""]","","posttest trial","1",""
"html-button-response-clever","162","716468","0.0-13.0-0.42","526","János imád brűközni, ezért sokat brűklik. Ti ritkán...","1","brűköztök","[""brűklötök"",""brűköztök""]","","posttest trial","1",""
"html-button-response-clever","163","717432","0.0-13.0-0.43","462","János imád klihasozni, ezért sokat klihaslik. Ti ritkán...","0","klihaslotok","[""klihaslotok"",""klihasoztok""]","","posttest trial","1",""
"html-button-response-clever","164","718334","0.0-13.0-0.44","399","János imád spivejezni, ezért sokat spivejlik. Ők ritkán...","0","spivejeznek","[""spivejeznek"",""spivejlenek""]","","posttest trial","1",""
"html-button-response-clever","165","719244","0.0-13.0-0.45","409","János imád jurozni, ezért sokat jurlik. Mi ritkán...","0","jurlunk","[""jurlunk"",""jurozunk""]","","posttest trial","1",""
"html-button-response-clever","166","720028","0.0-13.0-0.46","282","János imád nyizozni, ezért sokat nyizlik. Mi ritkán...","0","nyizlunk","[""nyizlunk"",""nyizozunk""]","","posttest trial","1",""
"html-button-response-clever","167","721166","0.0-13.0-0.47","636","János imád kláragodni, ezért sokat kláragszik. Ti ritkán...","0","kláragodtok","[""kláragodtok"",""kláragszotok""]","","posttest trial","1",""
"html-button-response-clever","168","722218","0.0-13.0-0.48","551","János imád flerékedni, ezért sokat flerékszik. Mi ritkán...","0","flerékedünk","[""flerékedünk"",""flerékszünk""]","","posttest trial","1",""
"html-button-response-clever","169","723235","0.0-13.0-0.49","517","János imád ribegedni, ezért sokat ribegszik. Ti ritkán...","0","ribegedtek","[""ribegedtek"",""ribegszetek""]","","posttest trial","1",""
"html-button-response-clever","170","724148","0.0-13.0-0.50","409","János imád vehékedni, ezért sokat vehékszik. Mi ritkán...","0","vehékedünk","[""vehékedünk"",""vehékszünk""]","","posttest trial","1",""
"html-button-response-clever","171","725260","0.0-13.0-0.51","609","János imád frorozni, ezért sokat frorlik. Ők ritkán...","1","froroznak","[""frorlanak"",""froroznak""]","","posttest trial","1",""
"html-button-response-clever","172","726242","0.0-13.0-0.52","480","János imád bügözni, ezért sokat bügzik. Ők ritkán...","1","bügöznek","[""bügzenek"",""bügöznek""]","","posttest trial","1",""
"html-button-response-clever","173","727182","0.0-13.0-0.53","437","János imád spuborozni, ezért sokat spuborzik. Ők ritkán...","0","spuboroznak","[""spuboroznak"",""spuborzanak""]","","posttest trial","1",""
"html-button-response","174","735246","0.0-14.0","7562","<p> Vége a játéknak. A teljes pontszámod 27/54.</p><p> Szép munka! &#128526;&#128526;&#128526;</p><p>A Befejezés gomb megnyomása után bezárhatod a böngészőablakot.</p>","0","","","","","",""
"html-keyboard-response","175","740749","0.0-15.0","null","<div class=""message"">
         <p>Egy kis türelmet kérünk, amíg elmentjük az adatokat...</p>
         </div>","null","","","","","",""
