"trial_type","trial_index","time_elapsed","internal_node_id","rt","stimulus","response","response_string","choices","esp_response","trial_kind","list_number","esp_match"
"pavlovia","0","1202","0.0-0.0","","","","","","","","",""
"html-button-response","1","14659","0.0-1.0","12946","<p>Kedves Résztvevő! A Budapesti Műszaki és Gazdaságtudományi Egyetem Kognitív Tudományi Tanszékének kutatásában való részvételed kérjük. A kutatásban azt vizsgáljuk, hogy a magyar anyanyelvűek hogyan használnak bizonyos szóalakokat, és hogy milyen képük van arról, hogy mások hogyan használják, hogyan képzik a szavakat. Ez hozzásegít bennünket ahhoz, hogy jobban megértsük, hogyan dolgozza fel és tárolja a nyelvet az emberi agy, és hogyan működnek, hogyan változnak egy adott közösség nyelvi konvenciói.</p><p>A vizsgálat egy rövid számítógépes feladatból fog állni. A kutatásban való részvétel önkéntes, a részvételi szándék bármikor visszavonható. A résztvevők eredményeit név nélkül kezeljük, így nem beazonosíthatók az adatok feldolgozása során. Minden személyes adatot az EU általános adatvédelmi rendeletének (GDPR) megfelelően kezelünk és legfeljebb öt éven belül megsemmisítünk. A vizsgálat jellemzően húsz percet vesz igénybe.</p><p>Kutatásvezető:</p><p>Dr. Rácz Péter, tudományos munkatárs, BME KTT</p><p>e-mail: racz.peter.marton@ttk.bme.hu</p>","0","","","","","",""
"html-button-response","2","39065","0.0-2.0","23900","<p>A kísérletben szavakat fogsz látni. Ezek között lesznek olyanok, amelyeket ismersz, de előfordulhatnak olyanok is, amelyeket nem ismersz, sőt, vannak köztük kitalált szavak is. Minden szónál látni fogsz toldalékolt alakokat. A te feladatod az lesz, hogy minden szóhoz kiválaszd azt a toldalékolt alakot, amely a te számodra ismerősebben, természetesebben hangzik. Rossz válaszok nincsenek, mert van olyan, hogy különböző embereknek más és más szó tűnik jobb választásnak. A választ úgy tudod majd kiválasztani, ha rákattintasz.</p><p>Ebben a szóválasztós játékban egy másik játékossal együtt veszel majd részt. A másik játékos is minden esetben azok közül a lehetőségek közül válogathat, mint te. Kettőtök feladata az, hogy ugyanazt a lehetőséget válasszátok minden esetben. Ahhoz, hogy ez sikerüljön, neked figyelned kell arra, hogy a másik játékos milyen válaszokat ad, és ennek alapján meg kell tippelned, hogyan választ legközelebb. Ha eltalálod, akkor pontot kapsz.</p>","0","","","","","",""
"html-button-response","3","42193","0.0-3.0","2612","<p>Kérjük, olvasd el az alábbi nyilatkozatot, és amennyiben egyetértesz vele, nyomj a Beleegyezés gombra!</p><p>Kijelentem, hogy magyar anyanyelvű személyként önként veszek részt a BME KTT kísérletében. A kutatás céljával és folyamatával kapcsolatban elegendő tájékoztatást kaptam, lehetőségem volt kérdések feltételére, és esetleges kérdéseimre megfelelő válaszokat kaptam. A tájékoztatás alapján elegendő mennyiségű információ áll a rendelkezésemre, hogy eldönthessem, részt kívánok-e venni a kutatásban.</p><p>Tisztában vagyok vele, hogy részvételi szándékomat és adataimat bármikor, indoklás nélkül visszavonhatom.</p><p>Értem és tudomásul veszem, hogy a kutatás tudományos célokat szolgál, és az általam szolgáltatott adatokat a BME kizárólag kutatási célból használja fel. Tudomásul veszem, hogy eredményeimet a többi résztvevő eredményeivel együtt kezelik, így egyéni teljesítményemről visszajelzést, szakvéleményt nem kapok.</p><p>Megértettem, hogy adataim kezelését illetően a BME az EU általános adatvédelmi rendelete (GDPR), a hatályos adatvédelmi törvény és a nemzetközi kutatás-etikai alapelvek szerint jár el. Eredményeim anonim módon kerülnek feldolgozásra, és a kutatás résztvevői az azonosításomra alkalmas adataimat harmadik félnek nem szolgáltatják ki. Engedélyezem a BME számára a jelen kutatásban felvett adataim feldolgozását és tárolását, beleértve azok későbbi kutatásokhoz való felhasználását is. Személyes adataim kezelésével kapcsolatban tájékoztatást kérhetek a kutatás résztvevőitől, az adatkezelés ellen tiltakozhatok, kérhetem személyes adataim helyesbítését, törlését vagy zárolását, valamint jogorvoslatért a Nemzeti Adatvédelmi és Információszabadság Hatósághoz fordulhatok.</p><p>Kijelentem, hogy a kutatásban való részvételem körülményeiről részletes tájékoztatást kaptam, és a feltételeket elfogadom.</p>","0","","","","","",""
"survey-text","4","83169","0.0-4.0","40443","","{""Q0"":""E11KCP"",""Q1"":""nő"",""Q2"":""1997"",""Q3"":""17""}","","","","","",""
"html-button-response","5","102003","0.0-5.0","18326","<p>Ebben a játékban szavakat kell toldalékolni.</p> <p>Minden körben mutatunk majd egy példamondatot, amiben lesz egy szó.</p> <p>Alatta jön egy második mondat, ezt a mondatot neked kell majd befejezni, ugyanezzel a szóval.</p> <p>Nem biztos, hogy a szó eleve ismerős lesz számodra!</p> <p>Minden mondathoz adunk két lehetőséget, ezeket balra és jobbra látod majd.</p> <p>A játék kb. negyedóráig-húsz percig tart.</p>","0","","","","","",""
"html-button-response","6","143706","0.0-6.0","41185","<p>Nézzünk egy példát!</p> <p>A példamondat: ""János imád fláramolni, ezért sokat fláramlik. Mi ritkán...""</p><p>Neked ezt a mondatot kell befejezned: ""Ti ritkán...""</p><p>A lehetőségek pedig ezek:</p>","1","","","","","",""
"html-button-response","7","147854","0.0-7.0","3631","<p>Nagyon jó.</p><p>Ezt a játékot nem egyedül fogod játszani, hanem egy másik játékossal.</p><p>Mielőtt továbblépünk, összekapcsolunk titeket egymással.</p><p>Ez igénybe vehet néhány másodpercet, amihez szíves türelmed kérjük.</p>","0","","","","","",""
"html-button-response","8","153590","0.0-8.0","null","<p>Csatlakozás a másik játékoshoz...</p>","null","","","","","",""
"html-button-response","9","156119","0.0-9.0","null","<p> Sikeres kapcsolódás!</p>","null","","","","","",""
"html-button-response","10","166645","0.0-10.0","null","<p>A következőkben ketten játsszátok a szóválasztós játékot.</p><p>A feladatotok az lesz, hogy minden körben <b>ugyanazt</b> a szót válasszátok.</p><p>Minden ilyen egyező válaszért pontot kaptok.</p><p>Próbáld meg kitalálni, mit választ a másik játékos!</p><p>Bármikor választhatsz, a körnek akkor van vége, ha mindketten döntöttetek.</p><p>Sok sikert!</p>","null","","","","","",""
"html-button-response-esp","11","182303","0.0-11.0-0.0","15136","János imád flátozni, ezért sokat flátlik. Ti ritkán...","0","flátoztok","[""flátoztok"",""flátlotok""]","flátlotok","esp trial","0","false"
"html-button-response","12","185831","0.0-11.0-1.0","null","<p>A másik játékos ezt választotta: <b>flátlotok</b>.</p><p>&#10060;</p><p>A válaszaitok <b>nem</b> egyeznek meg.</p>","null","","","","feedback trial","",""
"html-button-response-esp","13","192706","0.0-11.0-0.1","6232","János imád sprebezni, ezért sokat sprebzik. Ők ritkán...","1","sprebzenek","[""sprebeznek"",""sprebzenek""]","sprebzenek","esp trial","0","true"
"html-button-response","14","196243","0.0-11.0-1.1","null","<p>A másik játékos ezt választotta: <b>sprebzenek</b>.</p><p>&#x2705;</p><p>A te válaszod és a másik játékos válasza <b>megegyeznek</b>.</p>","null","","","","feedback trial","",""
"html-button-response-esp","15","203825","0.0-11.0-0.2","7075","János imád dibágozni, ezért sokat dibáglik. Ti ritkán...","0","dibáglotok","[""dibáglotok"",""dibágoztok""]","dibáglotok","esp trial","0","true"
"html-button-response","16","207345","0.0-11.0-1.2","null","<p>A másik játékos ezt választotta: <b>dibáglotok</b>.</p><p>&#x2705;</p><p>A te válaszod és a másik játékos válasza <b>megegyeznek</b>.</p>","null","","","","feedback trial","",""
"html-button-response-esp","17","214233","0.0-11.0-0.3","5893","János imád frirozni, ezért sokat frirzik. Mi ritkán...","0","frirzunk","[""frirzunk"",""frirozunk""]","frirzunk","esp trial","0","true"
"html-button-response","18","217748","0.0-11.0-1.3","null","<p>A másik játékos ezt választotta: <b>frirzunk</b>.</p><p>&#x2705;</p><p>A te válaszod és a másik játékos válasza <b>megegyeznek</b>.</p>","null","","","","feedback trial","",""
"html-button-response-esp","19","224623","0.0-11.0-0.4","5642","János imád bügözni, ezért sokat bügzik. Ők ritkán...","1","bügzenek","[""bügöznek"",""bügzenek""]","bügöznek","esp trial","0","false"
"html-button-response","20","228160","0.0-11.0-1.4","null","<p>A másik játékos ezt választotta: <b>bügöznek</b>.</p><p>&#10060;</p><p>A válaszaitok <b>nem</b> egyeznek meg.</p>","null","","","","feedback trial","",""
"html-button-response-esp","21","235114","0.0-11.0-0.5","6432","János imád nurokozni, ezért sokat nuroklik. Mi ritkán...","1","nuroklunk","[""nurokozunk"",""nuroklunk""]","nurokozunk","esp trial","0","false"
"html-button-response","22","238656","0.0-11.0-1.5","null","<p>A másik játékos ezt választotta: <b>nurokozunk</b>.</p><p>&#10060;</p><p>A válaszaitok <b>nem</b> egyeznek meg.</p>","null","","","","feedback trial","",""
"html-button-response-esp","23","245535","0.0-11.0-0.6","4083","János imád brürözni, ezért sokat brürzik. Ők ritkán...","0","brüröznek","[""brüröznek"",""brürzenek""]","brürzenek","esp trial","0","false"
"html-button-response","24","249063","0.0-11.0-1.6","null","<p>A másik játékos ezt választotta: <b>brürzenek</b>.</p><p>&#10060;</p><p>A válaszaitok <b>nem</b> egyeznek meg.</p>","null","","","","feedback trial","",""
"html-button-response-esp","25","255951","0.0-11.0-0.7","5207","János imád flerékedni, ezért sokat flerékszik. Mi ritkán...","1","flerékszünk","[""flerékedünk"",""flerékszünk""]","flerékszünk","esp trial","0","true"
"html-button-response","26","259476","0.0-11.0-1.7","null","<p>A másik játékos ezt választotta: <b>flerékszünk</b>.</p><p>&#x2705;</p><p>A te válaszod és a másik játékos válasza <b>megegyeznek</b>.</p>","null","","","","feedback trial","",""
"html-button-response-esp","27","266353","0.0-11.0-0.8","6026","János imád bötőrözni, ezért sokat bötőrzik. Mi ritkán...","1","bötőrzünk","[""bötőrözünk"",""bötőrzünk""]","bötőrzünk","esp trial","0","true"
"html-button-response","28","269891","0.0-11.0-1.8","null","<p>A másik játékos ezt választotta: <b>bötőrzünk</b>.</p><p>&#x2705;</p><p>A te válaszod és a másik játékos válasza <b>megegyeznek</b>.</p>","null","","","","feedback trial","",""
"html-button-response-esp","29","276775","0.0-11.0-0.9","4764","János imád sűjözni, ezért sokat sűjlik. Mi ritkán...","0","sűjözünk","[""sűjözünk"",""sűjlünk""]","sűjözünk","esp trial","0","true"
"html-button-response","30","280298","0.0-11.0-1.9","null","<p>A másik játékos ezt választotta: <b>sűjözünk</b>.</p><p>&#x2705;</p><p>A te válaszod és a másik játékos válasza <b>megegyeznek</b>.</p>","null","","","","feedback trial","",""
"html-button-response-esp","31","287169","0.0-11.0-0.10","5936","János imád bribasozni, ezért sokat bribaslik. Ők ritkán...","0","bribasoznak","[""bribasoznak"",""bribaslanak""]","bribaslanak","esp trial","0","false"
"html-button-response","32","290705","0.0-11.0-1.10","null","<p>A másik játékos ezt választotta: <b>bribaslanak</b>.</p><p>&#10060;</p><p>A válaszaitok <b>nem</b> egyeznek meg.</p>","null","","","","feedback trial","",""
"html-button-response-esp","33","298494","0.0-11.0-0.11","7275","János imád nyülöközni, ezért sokat nyülöklik. Ők ritkán...","1","nyülököznek","[""nyülöklenek"",""nyülököznek""]","nyülöklenek","esp trial","0","false"
"html-button-response","34","302028","0.0-11.0-1.11","null","<p>A másik játékos ezt választotta: <b>nyülöklenek</b>.</p><p>&#10060;</p><p>A válaszaitok <b>nem</b> egyeznek meg.</p>","null","","","","feedback trial","",""
"html-button-response-esp","35","309975","0.0-11.0-0.12","7429","János imád pibegezni, ezért sokat pibegzik. Ők ritkán...","0","pibegzenek","[""pibegzenek"",""pibegeznek""]","pibegzenek","esp trial","0","true"
"html-button-response","36","313499","0.0-11.0-1.12","null","<p>A másik játékos ezt választotta: <b>pibegzenek</b>.</p><p>&#x2705;</p><p>A te válaszod és a másik játékos válasza <b>megegyeznek</b>.</p>","null","","","","feedback trial","",""
"html-button-response-esp","37","320370","0.0-11.0-0.13","5997","János imád trálakozni, ezért sokat trálaklik. Ők ritkán...","0","trálaklanak","[""trálaklanak"",""trálakoznak""]","trálaklanak","esp trial","0","true"
"html-button-response","38","323893","0.0-11.0-1.13","null","<p>A másik játékos ezt választotta: <b>trálaklanak</b>.</p><p>&#x2705;</p><p>A te válaszod és a másik játékos válasza <b>megegyeznek</b>.</p>","null","","","","feedback trial","",""
"html-button-response-esp","39","330773","0.0-11.0-0.14","4644","János imád nyádozni, ezért sokat nyádlik. Ők ritkán...","1","nyádlanak","[""nyádoznak"",""nyádlanak""]","nyádoznak","esp trial","0","false"
"html-button-response","40","334291","0.0-11.0-1.14","null","<p>A másik játékos ezt választotta: <b>nyádoznak</b>.</p><p>&#10060;</p><p>A válaszaitok <b>nem</b> egyeznek meg.</p>","null","","","","feedback trial","",""
"html-button-response-esp","41","346393","0.0-11.0-0.15","11595","János imád hubonyozni, ezért sokat hubonylik. Ti ritkán...","0","hubonylotok","[""hubonylotok"",""hubonyoztok""]","hubonylotok","esp trial","0","true"
"html-button-response","42","349927","0.0-11.0-1.15","null","<p>A másik játékos ezt választotta: <b>hubonylotok</b>.</p><p>&#x2705;</p><p>A te válaszod és a másik játékos válasza <b>megegyeznek</b>.</p>","null","","","","feedback trial","",""
"html-button-response-esp","43","356810","0.0-11.0-0.16","3242","János imád brűközni, ezért sokat brűklik. Ti ritkán...","0","brűklötök","[""brűklötök"",""brűköztök""]","brűklötök","esp trial","0","true"
"html-button-response","44","360334","0.0-11.0-1.16","null","<p>A másik játékos ezt választotta: <b>brűklötök</b>.</p><p>&#x2705;</p><p>A te válaszod és a másik játékos válasza <b>megegyeznek</b>.</p>","null","","","","feedback trial","",""
"html-button-response-esp","45","367213","0.0-11.0-0.17","4587","János imád prugorozni, ezért sokat prugorzik. Ti ritkán...","1","prugorzotok","[""prugoroztok"",""prugorzotok""]","prugorzotok","esp trial","0","true"
"html-button-response","46","370736","0.0-11.0-1.17","null","<p>A másik játékos ezt választotta: <b>prugorzotok</b>.</p><p>&#x2705;</p><p>A te válaszod és a másik játékos válasza <b>megegyeznek</b>.</p>","null","","","","feedback trial","",""
"html-button-response-esp","47","377604","0.0-11.0-0.18","3834","János imád vehékedni, ezért sokat vehékszik. Mi ritkán...","1","vehékszünk","[""vehékedünk"",""vehékszünk""]","vehékedünk","esp trial","0","false"
"html-button-response","48","381120","0.0-11.0-1.18","null","<p>A másik játékos ezt választotta: <b>vehékedünk</b>.</p><p>&#10060;</p><p>A válaszaitok <b>nem</b> egyeznek meg.</p>","null","","","","feedback trial","",""
"html-button-response-esp","49","388015","0.0-11.0-0.19","3840","János imád trilekedni, ezért sokat trilekszik. Ti ritkán...","0","trilekedtek","[""trilekedtek"",""trilekszetek""]","trilekszetek","esp trial","0","false"
"html-button-response","50","391543","0.0-11.0-1.19","null","<p>A másik játékos ezt választotta: <b>trilekszetek</b>.</p><p>&#10060;</p><p>A válaszaitok <b>nem</b> egyeznek meg.</p>","null","","","","feedback trial","",""
"html-button-response-esp","51","399275","0.0-11.0-0.20","7213","János imád sztredezni, ezért sokat sztredlik. Ti ritkán...","1","sztredletek","[""sztredeztek"",""sztredletek""]","sztredletek","esp trial","0","true"
"html-button-response","52","402808","0.0-11.0-1.20","null","<p>A másik játékos ezt választotta: <b>sztredletek</b>.</p><p>&#x2705;</p><p>A te válaszod és a másik játékos válasza <b>megegyeznek</b>.</p>","null","","","","feedback trial","",""
"html-button-response-esp","53","409689","0.0-11.0-0.21","5071","János imád hiragozni, ezért sokat hiragzik. Ők ritkán...","1","hiragzanak","[""hiragoznak"",""hiragzanak""]","hiragzanak","esp trial","0","true"
"html-button-response","54","413206","0.0-11.0-1.21","null","<p>A másik játékos ezt választotta: <b>hiragzanak</b>.</p><p>&#x2705;</p><p>A te válaszod és a másik játékos válasza <b>megegyeznek</b>.</p>","null","","","","feedback trial","",""
"html-button-response-esp","55","420634","0.0-11.0-0.22","6920","János imád plibozni, ezért sokat plibzik. Ti ritkán...","0","pliboztok","[""pliboztok"",""plibzotok""]","plibzotok","esp trial","0","false"
"html-button-response","56","424161","0.0-11.0-1.22","null","<p>A másik játékos ezt választotta: <b>plibzotok</b>.</p><p>&#10060;</p><p>A válaszaitok <b>nem</b> egyeznek meg.</p>","null","","","","feedback trial","",""
"html-button-response-esp","57","431038","0.0-11.0-0.23","4649","János imád jurozni, ezért sokat jurlik. Mi ritkán...","1","jurlunk","[""jurozunk"",""jurlunk""]","jurlunk","esp trial","0","true"
"html-button-response","58","434577","0.0-11.0-1.23","null","<p>A másik játékos ezt választotta: <b>jurlunk</b>.</p><p>&#x2705;</p><p>A te válaszod és a másik játékos válasza <b>megegyeznek</b>.</p>","null","","","","feedback trial","",""
"html-button-response-esp","59","441453","0.0-11.0-0.24","5310","János imád flugonyozni, ezért sokat flugonylik. Ők ritkán...","1","flugonylanak","[""flugonyoznak"",""flugonylanak""]","flugonylanak","esp trial","0","true"
"html-button-response","60","444984","0.0-11.0-1.24","null","<p>A másik játékos ezt választotta: <b>flugonylanak</b>.</p><p>&#x2705;</p><p>A te válaszod és a másik játékos válasza <b>megegyeznek</b>.</p>","null","","","","feedback trial","",""
"html-button-response-esp","61","451859","0.0-11.0-0.25","5108","János imád klihasozni, ezért sokat klihaslik. Ti ritkán...","1","klihaslotok","[""klihasoztok"",""klihaslotok""]","klihaslotok","esp trial","0","true"
"html-button-response","62","455395","0.0-11.0-1.25","null","<p>A másik játékos ezt választotta: <b>klihaslotok</b>.</p><p>&#x2705;</p><p>A te válaszod és a másik játékos válasza <b>megegyeznek</b>.</p>","null","","","","feedback trial","",""
"html-button-response-esp","63","462278","0.0-11.0-0.26","3932","János imád nivározni, ezért sokat nivárzik. Ti ritkán...","1","nivárzotok","[""nivároztok"",""nivárzotok""]","nivárzotok","esp trial","0","true"
"html-button-response","64","465803","0.0-11.0-1.26","null","<p>A másik játékos ezt választotta: <b>nivárzotok</b>.</p><p>&#x2705;</p><p>A te válaszod és a másik játékos válasza <b>megegyeznek</b>.</p>","null","","","","feedback trial","",""
"html-button-response-esp","65","472683","0.0-11.0-0.27","4422","János imád kláragodni, ezért sokat kláragszik. Ti ritkán...","1","kláragszotok","[""kláragodtok"",""kláragszotok""]","kláragszotok","esp trial","0","true"
"html-button-response","66","476225","0.0-11.0-1.27","null","<p>A másik játékos ezt választotta: <b>kláragszotok</b>.</p><p>&#x2705;</p><p>A te válaszod és a másik játékos válasza <b>megegyeznek</b>.</p>","null","","","","feedback trial","",""
"html-button-response-esp","67","483101","0.0-11.0-0.28","4069","János imád nyizozni, ezért sokat nyizlik. Mi ritkán...","1","nyizozunk","[""nyizlunk"",""nyizozunk""]","nyizozunk","esp trial","0","true"
"html-button-response","68","486621","0.0-11.0-1.28","null","<p>A másik játékos ezt választotta: <b>nyizozunk</b>.</p><p>&#x2705;</p><p>A te válaszod és a másik játékos válasza <b>megegyeznek</b>.</p>","null","","","","feedback trial","",""
"html-button-response-esp","69","493518","0.0-11.0-0.29","4736","János imád nyöbözni, ezért sokat nyöbzik. Ők ritkán...","1","nyöböznek","[""nyöbzenek"",""nyöböznek""]","nyöbzenek","esp trial","0","false"
"html-button-response","70","497046","0.0-11.0-1.29","null","<p>A másik játékos ezt választotta: <b>nyöbzenek</b>.</p><p>&#10060;</p><p>A válaszaitok <b>nem</b> egyeznek meg.</p>","null","","","","feedback trial","",""
"html-button-response-esp","71","503920","0.0-11.0-0.30","4726","János imád bresezni, ezért sokat breslik. Ők ritkán...","1","breslenek","[""breseznek"",""breslenek""]","breslenek","esp trial","0","true"
"html-button-response","72","507447","0.0-11.0-1.30","null","<p>A másik játékos ezt választotta: <b>breslenek</b>.</p><p>&#x2705;</p><p>A te válaszod és a másik játékos válasza <b>megegyeznek</b>.</p>","null","","","","feedback trial","",""
"html-button-response-esp","73","514332","0.0-11.0-0.31","3563","János imád klégezni, ezért sokat kléglik. Mi ritkán...","0","kléglünk","[""kléglünk"",""klégezünk""]","klégezünk","esp trial","0","false"
"html-button-response","74","517860","0.0-11.0-1.31","null","<p>A másik játékos ezt választotta: <b>klégezünk</b>.</p><p>&#10060;</p><p>A válaszaitok <b>nem</b> egyeznek meg.</p>","null","","","","feedback trial","",""
"html-button-response-esp","75","525144","0.0-11.0-0.32","6764","János imád metégedni, ezért sokat metégszik. Ők ritkán...","1","metégszenek","[""metégednek"",""metégszenek""]","metégszenek","esp trial","0","true"
"html-button-response","76","528661","0.0-11.0-1.32","null","<p>A másik játékos ezt választotta: <b>metégszenek</b>.</p><p>&#x2705;</p><p>A te válaszod és a másik játékos válasza <b>megegyeznek</b>.</p>","null","","","","feedback trial","",""
"html-button-response-esp","77","535541","0.0-11.0-0.33","4931","János imád klűmözni, ezért sokat klűmlik. Ti ritkán...","1","klűmlötök","[""klűmöztök"",""klűmlötök""]","klűmlötök","esp trial","0","true"
"html-button-response","78","539056","0.0-11.0-1.33","null","<p>A másik játékos ezt választotta: <b>klűmlötök</b>.</p><p>&#x2705;</p><p>A te válaszod és a másik játékos válasza <b>megegyeznek</b>.</p>","null","","","","feedback trial","",""
"html-button-response-esp","79","545987","0.0-11.0-0.34","6407","János imád spuborozni, ezért sokat spuborzik. Ők ritkán...","1","spuborzanak","[""spuboroznak"",""spuborzanak""]","spuborzanak","esp trial","0","true"
"html-button-response","80","549506","0.0-11.0-1.34","null","<p>A másik játékos ezt választotta: <b>spuborzanak</b>.</p><p>&#x2705;</p><p>A te válaszod és a másik játékos válasza <b>megegyeznek</b>.</p>","null","","","","feedback trial","",""
"html-button-response-esp","81","556381","0.0-11.0-0.35","4886","János imád ribegedni, ezért sokat ribegszik. Ti ritkán...","0","ribegszetek","[""ribegszetek"",""ribegedtek""]","ribegszetek","esp trial","0","true"
"html-button-response","82","559917","0.0-11.0-1.35","null","<p>A másik játékos ezt választotta: <b>ribegszetek</b>.</p><p>&#x2705;</p><p>A te válaszod és a másik játékos válasza <b>megegyeznek</b>.</p>","null","","","","feedback trial","",""
"html-button-response-esp","83","566780","0.0-11.0-0.36","5207","János imád prihegedni, ezért sokat prihegszik. Ők ritkán...","1","prihegszenek","[""prihegednek"",""prihegszenek""]","prihegszenek","esp trial","0","true"
"html-button-response","84","570316","0.0-11.0-1.36","null","<p>A másik játékos ezt választotta: <b>prihegszenek</b>.</p><p>&#x2705;</p><p>A te válaszod és a másik játékos válasza <b>megegyeznek</b>.</p>","null","","","","feedback trial","",""
"html-button-response-esp","85","577721","0.0-11.0-0.37","6897","János imád dralágozni, ezért sokat dralágzik. Mi ritkán...","0","dralágzunk","[""dralágzunk"",""dralágozunk""]","dralágozunk","esp trial","0","false"
"html-button-response","86","581250","0.0-11.0-1.37","null","<p>A másik játékos ezt választotta: <b>dralágozunk</b>.</p><p>&#10060;</p><p>A válaszaitok <b>nem</b> egyeznek meg.</p>","null","","","","feedback trial","",""
"html-button-response-esp","87","588139","0.0-11.0-0.38","5059","János imád vilesezni, ezért sokat vileslik. Mi ritkán...","1","vileslünk","[""vilesezünk"",""vileslünk""]","vileslünk","esp trial","0","true"
"html-button-response","88","591661","0.0-11.0-1.38","null","<p>A másik játékos ezt választotta: <b>vileslünk</b>.</p><p>&#x2705;</p><p>A te válaszod és a másik játékos válasza <b>megegyeznek</b>.</p>","null","","","","feedback trial","",""
"html-button-response-esp","89","598520","0.0-11.0-0.39","4221","János imád flodozni, ezért sokat flodlik. Ti ritkán...","1","flodlotok","[""flodoztok"",""flodlotok""]","flodlotok","esp trial","0","true"
"html-button-response","90","602051","0.0-11.0-1.39","null","<p>A másik játékos ezt választotta: <b>flodlotok</b>.</p><p>&#x2705;</p><p>A te válaszod és a másik játékos válasza <b>megegyeznek</b>.</p>","null","","","","feedback trial","",""
"html-button-response-esp","91","608953","0.0-11.0-0.40","4577","János imád trukodni, ezért sokat trukszik. Ti ritkán...","1","trukszotok","[""trukodtok"",""trukszotok""]","trukszotok","esp trial","0","true"
"html-button-response","92","612467","0.0-11.0-1.40","null","<p>A másik játékos ezt választotta: <b>trukszotok</b>.</p><p>&#x2705;</p><p>A te válaszod és a másik játékos válasza <b>megegyeznek</b>.</p>","null","","","","feedback trial","",""
"html-button-response-esp","93","619353","0.0-11.0-0.41","5273","János imád frélegezni, ezért sokat frélegzik. Mi ritkán...","0","frélegzünk","[""frélegzünk"",""frélegezünk""]","frélegezünk","esp trial","0","false"
"html-button-response","94","622891","0.0-11.0-1.41","null","<p>A másik játékos ezt választotta: <b>frélegezünk</b>.</p><p>&#10060;</p><p>A válaszaitok <b>nem</b> egyeznek meg.</p>","null","","","","feedback trial","",""
"html-button-response-esp","95","629772","0.0-11.0-0.42","5371","János imád tögözni, ezért sokat töglik. Ők ritkán...","0","töglenek","[""töglenek"",""tögöznek""]","tögöznek","esp trial","0","false"
"html-button-response","96","633298","0.0-11.0-1.42","null","<p>A másik játékos ezt választotta: <b>tögöznek</b>.</p><p>&#10060;</p><p>A válaszaitok <b>nem</b> egyeznek meg.</p>","null","","","","feedback trial","",""
"html-button-response-esp","97","640183","0.0-11.0-0.43","5756","János imád gihamozni, ezért sokat gihamlik. Ők ritkán...","1","gihamoznak","[""gihamlanak"",""gihamoznak""]","gihamlanak","esp trial","0","false"
"html-button-response","98","643705","0.0-11.0-1.43","null","<p>A másik játékos ezt választotta: <b>gihamlanak</b>.</p><p>&#10060;</p><p>A válaszaitok <b>nem</b> egyeznek meg.</p>","null","","","","feedback trial","",""
"html-button-response-esp","99","650587","0.0-11.0-0.44","5617","János imád géregezni, ezért sokat géreglik. Ti ritkán...","1","géregeztek","[""géregletek"",""géregeztek""]","géregletek","esp trial","0","false"
"html-button-response","100","654114","0.0-11.0-1.44","null","<p>A másik játékos ezt választotta: <b>géregletek</b>.</p><p>&#10060;</p><p>A válaszaitok <b>nem</b> egyeznek meg.</p>","null","","","","feedback trial","",""
"html-button-response-esp","101","661287","0.0-11.0-0.45","6657","János imád bribékedni, ezért sokat bribékszik. Ti ritkán...","0","bribékszetek","[""bribékszetek"",""bribékedtek""]","bribékszetek","esp trial","0","true"
"html-button-response","102","664824","0.0-11.0-1.45","null","<p>A másik játékos ezt választotta: <b>bribékszetek</b>.</p><p>&#x2705;</p><p>A te válaszod és a másik játékos válasza <b>megegyeznek</b>.</p>","null","","","","feedback trial","",""
"html-button-response-esp","103","671717","0.0-11.0-0.46","3631","János imád bejezni, ezért sokat bejzik. Mi ritkán...","0","bejezünk","[""bejezünk"",""bejzünk""]","bejzünk","esp trial","0","false"
"html-button-response","104","675234","0.0-11.0-1.46","null","<p>A másik játékos ezt választotta: <b>bejzünk</b>.</p><p>&#10060;</p><p>A válaszaitok <b>nem</b> egyeznek meg.</p>","null","","","","feedback trial","",""
"html-button-response-esp","105","682112","0.0-11.0-0.47","2900","János imád frorozni, ezért sokat frorlik. Ők ritkán...","0","frorlanak","[""frorlanak"",""froroznak""]","froroznak","esp trial","0","false"
"html-button-response","106","685636","0.0-11.0-1.47","null","<p>A másik játékos ezt választotta: <b>froroznak</b>.</p><p>&#10060;</p><p>A válaszaitok <b>nem</b> egyeznek meg.</p>","null","","","","feedback trial","",""
"html-button-response-esp","107","692499","0.0-11.0-0.48","5838","János imád frinyozni, ezért sokat frinylik. Mi ritkán...","1","frinyozunk","[""frinylunk"",""frinyozunk""]","frinylunk","esp trial","0","false"
"html-button-response","108","696017","0.0-11.0-1.48","null","<p>A másik játékos ezt választotta: <b>frinylunk</b>.</p><p>&#10060;</p><p>A válaszaitok <b>nem</b> egyeznek meg.</p>","null","","","","feedback trial","",""
"html-button-response-esp","109","702891","0.0-11.0-0.49","6123","János imád döjözni, ezért sokat döjlik. Ők ritkán...","1","döjöznek","[""döjlenek"",""döjöznek""]","döjöznek","esp trial","0","true"
"html-button-response","110","706432","0.0-11.0-1.49","null","<p>A másik játékos ezt választotta: <b>döjöznek</b>.</p><p>&#x2705;</p><p>A te válaszod és a másik játékos válasza <b>megegyeznek</b>.</p>","null","","","","feedback trial","",""
"html-button-response-esp","111","713309","0.0-11.0-0.50","3457","János imád játozni, ezért sokat játlik. Mi ritkán...","1","játlunk","[""játozunk"",""játlunk""]","játozunk","esp trial","0","false"
"html-button-response","112","716841","0.0-11.0-1.50","null","<p>A másik játékos ezt választotta: <b>játozunk</b>.</p><p>&#10060;</p><p>A válaszaitok <b>nem</b> egyeznek meg.</p>","null","","","","feedback trial","",""
"html-button-response-esp","113","723715","0.0-11.0-0.51","4822","János imád vihapodni, ezért sokat vihapszik. Mi ritkán...","0","vihapszunk","[""vihapszunk"",""vihapodunk""]","vihapodunk","esp trial","0","false"
"html-button-response","114","727233","0.0-11.0-1.51","null","<p>A másik játékos ezt választotta: <b>vihapodunk</b>.</p><p>&#10060;</p><p>A válaszaitok <b>nem</b> egyeznek meg.</p>","null","","","","feedback trial","",""
"html-button-response-esp","115","734100","0.0-11.0-0.52","6326","János imád spivejezni, ezért sokat spivejlik. Ők ritkán...","0","spivejlenek","[""spivejlenek"",""spivejeznek""]","spivejlenek","esp trial","0","true"
"html-button-response","116","737611","0.0-11.0-1.52","null","<p>A másik játékos ezt választotta: <b>spivejlenek</b>.</p><p>&#x2705;</p><p>A te válaszod és a másik játékos válasza <b>megegyeznek</b>.</p>","null","","","","feedback trial","",""
"html-button-response-esp","117","744486","0.0-11.0-0.53","4285","János imád trálodni, ezért sokat trálszik. Mi ritkán...","0","trálszunk","[""trálszunk"",""trálodunk""]","trálodunk","esp trial","0","false"
"html-button-response","118","748019","0.0-11.0-1.53","null","<p>A másik játékos ezt választotta: <b>trálodunk</b>.</p><p>&#10060;</p><p>A válaszaitok <b>nem</b> egyeznek meg.</p>","null","","","","feedback trial","",""
"html-button-response","119","755325","0.0-12.0","6786","<p>A közös játék most véget ért.</p><p>Mielőtt eláruljuk a végső pontszámodat, arra kérlek, játszd a szóválasztós játékot néhány percig egyedül is.</p><p>A feladatod ugyanaz lesz, választani két lehetőség közül.</p><p>Most viszont egyedül kell döntened, hogy te melyiket választanád.</p>","0","","","","","",""
"html-button-response-clever","120","765663","0.0-13.0-0.0","9825","János imád spiharozni, ezért sokat spiharzik. Ti ritkán...","0","spiharzotok","[""spiharzotok"",""spiharoztok""]","","posttest trial","4",""
"html-button-response-clever","121","770871","0.0-13.0-0.1","4692","János imád lájozni, ezért sokat lájzik. Ti ritkán...","1","lájzotok","[""lájoztok"",""lájzotok""]","","posttest trial","4",""
"html-button-response-clever","122","775809","0.0-13.0-0.2","4432","János imád spügözni, ezért sokat spügzik. Mi ritkán...","1","spügzünk","[""spügözünk"",""spügzünk""]","","posttest trial","4",""
"html-button-response-clever","123","783131","0.0-13.0-0.3","6799","János imád sprozozni, ezért sokat sprozlik. Ők ritkán...","0","sprozlanak","[""sprozlanak"",""sprozoznak""]","","posttest trial","4",""
"html-button-response-clever","124","791495","0.0-13.0-0.4","7848","János imád gyihegezni, ezért sokat gyihegzik. Ti ritkán...","0","gyihegeztek","[""gyihegeztek"",""gyihegzetek""]","","posttest trial","4",""
"html-button-response-clever","125","796026","0.0-13.0-0.5","4016","János imád trugozni, ezért sokat trugzik. Ők ritkán...","1","trugzanak","[""trugoznak"",""trugzanak""]","","posttest trial","4",""
"html-button-response-clever","126","801271","0.0-13.0-0.6","4738","János imád spibegezni, ezért sokat spibeglik. Mi ritkán...","0","spibeglünk","[""spibeglünk"",""spibegezünk""]","","posttest trial","4",""
"html-button-response-clever","127","806535","0.0-13.0-0.7","4754","János imád flüröközni, ezért sokat flüröklik. Ti ritkán...","0","flüröklötök","[""flüröklötök"",""flürököztök""]","","posttest trial","4",""
"html-button-response-clever","128","812960","0.0-13.0-0.8","5909","János imád prögözni, ezért sokat prögzik. Ti ritkán...","1","prögzötök","[""prögöztök"",""prögzötök""]","","posttest trial","4",""
"html-button-response-clever","129","818137","0.0-13.0-0.9","4661","János imád privékedni, ezért sokat privékszik. Ők ritkán...","0","privékszenek","[""privékszenek"",""privékednek""]","","posttest trial","4",""
"html-button-response-clever","130","823696","0.0-13.0-0.10","5052","János imád köszözni, ezért sokat köszlik. Ti ritkán...","1","köszlötök","[""köszöztök"",""köszlötök""]","","posttest trial","4",""
"html-button-response-clever","131","831015","0.0-13.0-0.11","6812","János imád klehényezni, ezért sokat klehénylik. Ti ritkán...","1","klehényletek","[""klehényeztek"",""klehényletek""]","","posttest trial","4",""
"html-button-response-clever","132","837629","0.0-13.0-0.12","6097","János imád nyürözni, ezért sokat nyürzik. Ők ritkán...","0","nyürzenek","[""nyürzenek"",""nyüröznek""]","","posttest trial","4",""
"html-button-response-clever","133","842554","0.0-13.0-0.13","4409","János imád dárakodni, ezért sokat dárakszik. Mi ritkán...","1","dárakszunk","[""dárakodunk"",""dárakszunk""]","","posttest trial","4",""
"html-button-response-clever","134","848799","0.0-13.0-0.14","5733","János imád trikozni, ezért sokat triklik. Ti ritkán...","0","triklotok","[""triklotok"",""trikoztok""]","","posttest trial","4",""
"html-button-response-clever","135","854589","0.0-13.0-0.15","5274","János imád sprűrözni, ezért sokat sprűrlik. Ők ritkán...","1","sprűrlenek","[""sprűröznek"",""sprűrlenek""]","","posttest trial","4",""
"html-button-response-clever","136","860833","0.0-13.0-0.16","5730","János imád bratározni, ezért sokat bratárzik. Ők ritkán...","1","bratárzanak","[""bratároznak"",""bratárzanak""]","","posttest trial","4",""
"html-button-response-clever","137","867973","0.0-13.0-0.17","6621","János imád föködni, ezért sokat fökszik. Ők ritkán...","1","föködnek","[""fökszenek"",""föködnek""]","","posttest trial","4",""
"html-button-response-clever","138","874148","0.0-13.0-0.18","5659","János imád pragányozni, ezért sokat pragánylik. Ti ritkán...","1","pragánylotok","[""pragányoztok"",""pragánylotok""]","","posttest trial","4",""
"html-button-response-clever","139","880429","0.0-13.0-0.19","5759","János imád drűrözni, ezért sokat drűrzik. Ők ritkán...","1","drűrzenek","[""drűröznek"",""drűrzenek""]","","posttest trial","4",""
"html-button-response-clever","140","885057","0.0-13.0-0.20","4107","János imád brivakozni, ezért sokat brivaklik. Ti ritkán...","1","brivaklotok","[""brivakoztok"",""brivaklotok""]","","posttest trial","4",""
"html-button-response-clever","141","890534","0.0-13.0-0.21","4971","János imád gihejezni, ezért sokat gihejlik. Mi ritkán...","0","gihejlünk","[""gihejlünk"",""gihejezünk""]","","posttest trial","4",""
"html-button-response-clever","142","895681","0.0-13.0-0.22","4624","János imád mülőrözni, ezért sokat mülőrzik. Mi ritkán...","1","mülőrzünk","[""mülőrözünk"",""mülőrzünk""]","","posttest trial","4",""
"html-button-response-clever","143","900006","0.0-13.0-0.23","3798","János imád csubozni, ezért sokat csubzik. Mi ritkán...","0","csubzunk","[""csubzunk"",""csubozunk""]","","posttest trial","4",""
"html-button-response-clever","144","906612","0.0-13.0-0.24","6083","János imád frálapodni, ezért sokat frálapszik. Ti ritkán...","1","frálapszotok","[""frálapodtok"",""frálapszotok""]","","posttest trial","4",""
"html-button-response-clever","145","911840","0.0-13.0-0.25","4719","János imád csibagozni, ezért sokat csibagzik. Ti ritkán...","1","csibagzotok","[""csibagoztok"",""csibagzotok""]","","posttest trial","4",""
"html-button-response-clever","146","916269","0.0-13.0-0.26","3912","János imád flűgözni, ezért sokat flűgzik. Mi ritkán...","1","flűgzünk","[""flűgözünk"",""flűgzünk""]","","posttest trial","4",""
"html-button-response-clever","147","923166","0.0-13.0-0.27","6379","János imád dabozni, ezért sokat dabzik. Ti ritkán...","0","dabzotok","[""dabzotok"",""daboztok""]","","posttest trial","4",""
"html-button-response-clever","148","929277","0.0-13.0-0.28","5589","János imád kűdözni, ezért sokat kűdlik. Ők ritkán...","0","kűdlenek","[""kűdlenek"",""kűdöznek""]","","posttest trial","4",""
"html-button-response-clever","149","936424","0.0-13.0-0.29","6634","János imád prélemezni, ezért sokat prélemlik. Ők ritkán...","1","prélemeznek","[""prélemlenek"",""prélemeznek""]","","posttest trial","4",""
"html-button-response-clever","150","942669","0.0-13.0-0.30","5724","János imád brülösözni, ezért sokat brülöslik. Mi ritkán...","1","brülösözünk","[""brülöslünk"",""brülösözünk""]","","posttest trial","4",""
"html-button-response-clever","151","947285","0.0-13.0-0.31","4100","János imád trivakodni, ezért sokat trivakszik. Mi ritkán...","1","trivakszunk","[""trivakodunk"",""trivakszunk""]","","posttest trial","4",""
"html-button-response-clever","152","951192","0.0-13.0-0.32","3387","János imád flöközni, ezért sokat flöklik. Ti ritkán...","1","flöklötök","[""flököztök"",""flöklötök""]","","posttest trial","4",""
"html-button-response-clever","153","956486","0.0-13.0-0.33","4788","János imád püzözni, ezért sokat püzlik. Ti ritkán...","1","püzlötök","[""püzöztök"",""püzlötök""]","","posttest trial","4",""
"html-button-response-clever","154","960896","0.0-13.0-0.34","3885","János imád dirozni, ezért sokat dirlik. Ti ritkán...","0","dirlotok","[""dirlotok"",""diroztok""]","","posttest trial","4",""
"html-button-response-clever","155","966369","0.0-13.0-0.35","4968","János imád trugokozni, ezért sokat trugoklik. Ők ritkán...","0","trugoklanak","[""trugoklanak"",""trugokoznak""]","","posttest trial","4",""
"html-button-response-clever","156","971939","0.0-13.0-0.36","5051","János imád lűközni, ezért sokat lűklik. Ők ritkán...","0","lűklenek","[""lűklenek"",""lűköznek""]","","posttest trial","4",""
"html-button-response-clever","157","978376","0.0-13.0-0.37","5914","János imád frálasozni, ezért sokat frálaslik. Ők ritkán...","1","frálaslanak","[""frálasoznak"",""frálaslanak""]","","posttest trial","4",""
"html-button-response-clever","158","984882","0.0-13.0-0.38","6000","János imád fröjözni, ezért sokat fröjzik. Ti ritkán...","1","fröjzötök","[""fröjöztök"",""fröjzötök""]","","posttest trial","4",""
"html-button-response-clever","159","990177","0.0-13.0-0.39","4778","János imád mágamozni, ezért sokat mágamlik. Mi ritkán...","1","mágamlunk","[""mágamozunk"",""mágamlunk""]","","posttest trial","4",""
"html-button-response-clever","160","1027861","0.0-13.0-0.40","37154","János imád molodni, ezért sokat molszik. Ti ritkán...","1","molszotok","[""molodtok"",""molszotok""]","","posttest trial","4",""
"html-button-response-clever","161","1033509","0.0-13.0-0.41","5132","János imád flemezni, ezért sokat flemlik. Mi ritkán...","0","flemezünk","[""flemezünk"",""flemlünk""]","","posttest trial","4",""
"html-button-response-clever","162","1039403","0.0-13.0-0.42","5376","János imád spirágozni, ezért sokat spiráglik. Ti ritkán...","1","spiráglotok","[""spirágoztok"",""spiráglotok""]","","posttest trial","4",""
"html-button-response-clever","163","1044995","0.0-13.0-0.43","5069","János imád dujozni, ezért sokat dujzik. Ők ritkán...","0","dujzanak","[""dujzanak"",""dujoznak""]","","posttest trial","4",""
"html-button-response-clever","164","1051066","0.0-13.0-0.44","5553","János imád brözözni, ezért sokat brözlik. Ti ritkán...","0","brözlötök","[""brözlötök"",""brözöztök""]","","posttest trial","4",""
"html-button-response-clever","165","1055183","0.0-13.0-0.45","3595","János imád virozni, ezért sokat virzik. Ők ritkán...","1","virzanak","[""viroznak"",""virzanak""]","","posttest trial","4",""
"html-button-response-clever","166","1062419","0.0-13.0-0.46","6719","János imád drilarozni, ezért sokat drilarzik. Mi ritkán...","0","drilarzunk","[""drilarzunk"",""drilarozunk""]","","posttest trial","4",""
"html-button-response-clever","167","1068340","0.0-13.0-0.47","5405","János imád branyozni, ezért sokat branylik. Ők ritkán...","0","branylanak","[""branylanak"",""branyoznak""]","","posttest trial","4",""
"html-button-response-clever","168","1076407","0.0-13.0-0.48","7551","János imád sprudozni, ezért sokat sprudlik. Mi ritkán...","1","sprudlunk","[""sprudozunk"",""sprudlunk""]","","posttest trial","4",""
"html-button-response-clever","169","1081232","0.0-13.0-0.49","4303","János imád nyivágozni, ezért sokat nyivágzik. Mi ritkán...","1","nyivágzunk","[""nyivágozunk"",""nyivágzunk""]","","posttest trial","4",""
"html-button-response-clever","170","1085426","0.0-13.0-0.50","3676","János imád posozni, ezért sokat poslik. Ti ritkán...","0","poslotok","[""poslotok"",""posoztok""]","","posttest trial","4",""
"html-button-response-clever","171","1089727","0.0-13.0-0.51","3773","János imád frakozni, ezért sokat fraklik. Mi ritkán...","1","fraklunk","[""frakozunk"",""fraklunk""]","","posttest trial","4",""
"html-button-response-clever","172","1095897","0.0-13.0-0.52","5647","János imád pilégedni, ezért sokat pilégszik. Ők ritkán...","1","pilégszenek","[""pilégednek"",""pilégszenek""]","","posttest trial","4",""
"html-button-response-clever","173","1102349","0.0-13.0-0.53","5948","János imád dilakozni, ezért sokat dilaklik. Ti ritkán...","1","dilaklotok","[""dilakoztok"",""dilaklotok""]","","posttest trial","4",""
"html-button-response","174","1111645","0.0-14.0","8778","<p> Vége a játéknak. A teljes pontszámod 31/54.</p><p> Szép munka! &#128526;&#128526;&#128526;</p><p>A Befejezés gomb megnyomása után bezárhatod a böngészőablakot.</p>","0","","","","","",""
"html-keyboard-response","175","1117177","0.0-15.0","null","<div class=""message"">
         <p>Egy kis türelmet kérünk, amíg elmentjük az adatokat...</p>
         </div>","null","","","","","",""
