"trial_type","trial_index","time_elapsed","internal_node_id","rt","stimulus","response","response_string","choices","esp_response","trial_kind","list_number","esp_match"
"pavlovia","0","683","0.0-0.0","","","","","","","","",""
"html-button-response","1","41954","0.0-1.0","40763","<p>Kedves Résztvevő! A Budapesti Műszaki és Gazdaságtudományi Egyetem Kognitív Tudományi Tanszékének kutatásában való részvételed kérjük. A kutatásban azt vizsgáljuk, hogy a magyar anyanyelvűek hogyan használnak bizonyos szóalakokat, és hogy milyen képük van arról, hogy mások hogyan használják, hogyan képzik a szavakat. Ez hozzásegít bennünket ahhoz, hogy jobban megértsük, hogyan dolgozza fel és tárolja a nyelvet az emberi agy, és hogyan működnek, hogyan változnak egy adott közösség nyelvi konvenciói.</p><p>A vizsgálat egy rövid számítógépes feladatból fog állni. A kutatásban való részvétel önkéntes, a részvételi szándék bármikor visszavonható. A résztvevők eredményeit név nélkül kezeljük, így nem beazonosíthatók az adatok feldolgozása során. Minden személyes adatot az EU általános adatvédelmi rendeletének (GDPR) megfelelően kezelünk és legfeljebb öt éven belül megsemmisítünk. A vizsgálat jellemzően húsz percet vesz igénybe.</p><p>Kutatásvezető:</p><p>Dr. Rácz Péter, tudományos munkatárs, BME KTT</p><p>e-mail: racz.peter.marton@ttk.bme.hu</p>","0","","","","","",""
"html-button-response","2","132541","0.0-2.0","90084","<p>A kísérletben szavakat fogsz látni. Ezek között lesznek olyanok, amelyeket ismersz, de előfordulhatnak olyanok is, amelyeket nem ismersz, sőt, vannak köztük kitalált szavak is. Minden szónál látni fogsz toldalékolt alakokat. A te feladatod az lesz, hogy minden szóhoz kiválaszd azt a toldalékolt alakot, amely a te számodra ismerősebben, természetesebben hangzik. Rossz válaszok nincsenek, mert van olyan, hogy különböző embereknek más és más szó tűnik jobb választásnak. A választ úgy tudod majd kiválasztani, ha rákattintasz.</p><p>Ebben a szóválasztós játékban egy másik játékossal együtt veszel majd részt. A másik játékos is minden esetben azok közül a lehetőségek közül válogathat, mint te. Kettőtök feladata az, hogy ugyanazt a lehetőséget válasszátok minden esetben. Ahhoz, hogy ez sikerüljön, neked figyelned kell arra, hogy a másik játékos milyen válaszokat ad, és ennek alapján meg kell tippelned, hogyan választ legközelebb. Ha eltalálod, akkor pontot kapsz.</p>","0","","","","","",""
"html-button-response","3","221647","0.0-3.0","88602","<p>Kérjük, olvasd el az alábbi nyilatkozatot, és amennyiben egyetértesz vele, nyomj a Beleegyezés gombra!</p><p>Kijelentem, hogy magyar anyanyelvű személyként önként veszek részt a BME KTT kísérletében. A kutatás céljával és folyamatával kapcsolatban elegendő tájékoztatást kaptam, lehetőségem volt kérdések feltételére, és esetleges kérdéseimre megfelelő válaszokat kaptam. A tájékoztatás alapján elegendő mennyiségű információ áll a rendelkezésemre, hogy eldönthessem, részt kívánok-e venni a kutatásban.</p><p>Tisztában vagyok vele, hogy részvételi szándékomat és adataimat bármikor, indoklás nélkül visszavonhatom.</p><p>Értem és tudomásul veszem, hogy a kutatás tudományos célokat szolgál, és az általam szolgáltatott adatokat a BME kizárólag kutatási célból használja fel. Tudomásul veszem, hogy eredményeimet a többi résztvevő eredményeivel együtt kezelik, így egyéni teljesítményemről visszajelzést, szakvéleményt nem kapok.</p><p>Megértettem, hogy adataim kezelését illetően a BME az EU általános adatvédelmi rendelete (GDPR), a hatályos adatvédelmi törvény és a nemzetközi kutatás-etikai alapelvek szerint jár el. Eredményeim anonim módon kerülnek feldolgozásra, és a kutatás résztvevői az azonosításomra alkalmas adataimat harmadik félnek nem szolgáltatják ki. Engedélyezem a BME számára a jelen kutatásban felvett adataim feldolgozását és tárolását, beleértve azok későbbi kutatásokhoz való felhasználását is. Személyes adataim kezelésével kapcsolatban tájékoztatást kérhetek a kutatás résztvevőitől, az adatkezelés ellen tiltakozhatok, kérhetem személyes adataim helyesbítését, törlését vagy zárolását, valamint jogorvoslatért a Nemzeti Adatvédelmi és Információszabadság Hatósághoz fordulhatok.</p><p>Kijelentem, hogy a kutatásban való részvételem körülményeiről részletes tájékoztatást kaptam, és a feltételeket elfogadom.</p>","0","","","","","",""
"survey-text","4","272875","0.0-4.0","50721","","{""Q0"":""NLESE8"",""Q1"":""férfi"",""Q2"":""1999"",""Q3"":""17""}","","","","","",""
"html-button-response","5","286791","0.0-5.0","13399","<p>Ebben a játékban szavakat kell toldalékolni.</p> <p>Minden körben mutatunk majd egy példamondatot, amiben lesz egy szó.</p> <p>Alatta jön egy második mondat, ezt a mondatot neked kell majd befejezni, ugyanezzel a szóval.</p> <p>Nem biztos, hogy a szó eleve ismerős lesz számodra!</p> <p>Minden mondathoz adunk két lehetőséget, ezeket balra és jobbra látod majd.</p> <p>A játék kb. negyedóráig-húsz percig tart.</p>","0","","","","","",""
"html-button-response","6","304592","0.0-6.0","17298","<p>Nézzünk egy példát!</p> <p>A példamondat: ""János nagyon szeret rancsúrozni.""</p><p>Neked ezt a mondatot kell befejezned: ""Én is szívesen...""</p><p>A lehetőségek pedig ezek:</p>","0","","","","","",""
"html-button-response","7","310321","0.0-7.0","5227","<p>Nagyon jó.</p><p>Ezt a játékot nem egyedül fogod játszani, hanem egy másik játékossal.</p><p>Mielőtt továbblépünk, összekapcsolunk titeket egymással.</p><p>Ez igénybe vehet néhány másodpercet, amihez szíves türelmed kérjük.</p>","0","","","","","",""
"html-button-response","8","316051","0.0-8.0","null","<p>Csatlakozás a másik játékoshoz...</p>","null","","","","","",""
"html-button-response","9","318568","0.0-9.0","null","<p> Sikeres kapcsolódás!</p>","null","","","","","",""
"html-button-response","10","329085","0.0-10.0","null","<p>A következőkben ketten játsszátok a szóválasztós játékot.</p><p>A feladatotok az lesz, hogy minden körben <b>ugyanazt</b> a szót válasszátok.</p><p>Minden ilyen egyező válaszért pontot kaptok.</p><p>Próbáld meg kitalálni, mit választ a másik játékos!</p><p>Bármikor választhatsz, a körnek akkor van vége, ha mindketten döntöttetek.</p><p>Sok sikert!</p>","null","","","","","",""
"html-button-response-esp","11","335481","0.0-11.0-0.0","5890","Te bizony sokat treglesz. Én is sokat...","0","treglem","[""treglem"",""treglek""]","treglem","esp trial","4","true"
"html-button-response","12","338985","0.0-11.0-1.0","null","<p>A másik játékos ezt választotta: <b>treglem</b>.</p><p>&#x2705;</p><p>A te válaszod és a másik játékos válasza <b>megegyeznek</b>.</p>","null","","","","feedback trial","",""
"html-button-response-esp","13","346491","0.0-11.0-0.1","6998","Te bizony sokat flehékszel. Én is sokat...","0","flehékszem","[""flehékszem"",""flehékszek""]","flehékszek","esp trial","4","false"
"html-button-response","14","350005","0.0-11.0-1.1","null","<p>A másik játékos ezt választotta: <b>flehékszek</b>.</p><p>&#10060;</p><p>A válaszaitok <b>nem</b> egyeznek meg.</p>","null","","","","feedback trial","",""
"html-button-response-esp","15","360768","0.0-11.0-0.2","10249","Te bizony sokat hűgzöl. Én is sokat...","1","hűgzök","[""hűgzöm"",""hűgzök""]","hűgzök","esp trial","4","true"
"html-button-response","16","364277","0.0-11.0-1.2","null","<p>A másik játékos ezt választotta: <b>hűgzök</b>.</p><p>&#x2705;</p><p>A te válaszod és a másik játékos válasza <b>megegyeznek</b>.</p>","null","","","","feedback trial","",""
"html-button-response-esp","17","373561","0.0-11.0-0.3","8764","Te bizony sokat lörűdzöl. Én is sokat...","1","lörűdzöm","[""lörűdzök"",""lörűdzöm""]","lörűdzök","esp trial","4","false"
"html-button-response","18","377067","0.0-11.0-1.3","null","<p>A másik játékos ezt választotta: <b>lörűdzök</b>.</p><p>&#10060;</p><p>A válaszaitok <b>nem</b> egyeznek meg.</p>","null","","","","feedback trial","",""
"html-button-response-esp","19","383078","0.0-11.0-0.4","3637","Te bizony sokat sztrozlasz. Én is sokat...","1","sztrozlok","[""sztrozlom"",""sztrozlok""]","sztrozlok","esp trial","4","true"
"html-button-response","20","386589","0.0-11.0-1.4","null","<p>A másik játékos ezt választotta: <b>sztrozlok</b>.</p><p>&#x2705;</p><p>A te válaszod és a másik játékos válasza <b>megegyeznek</b>.</p>","null","","","","feedback trial","",""
"html-button-response-esp","21","393434","0.0-11.0-0.5","6340","Te bizony sokat hurjorzol. Én is sokat...","0","hurjorzok","[""hurjorzok"",""hurjorzom""]","hurjorzok","esp trial","4","true"
"html-button-response","22","396959","0.0-11.0-1.5","null","<p>A másik játékos ezt választotta: <b>hurjorzok</b>.</p><p>&#x2705;</p><p>A te válaszod és a másik játékos válasza <b>megegyeznek</b>.</p>","null","","","","feedback trial","",""
"html-button-response-esp","23","406297","0.0-11.0-0.6","8829","Te bizony sokat szibánylasz. Én is sokat...","1","szibánylok","[""szibánylom"",""szibánylok""]","szibánylom","esp trial","4","false"
"html-button-response","24","409829","0.0-11.0-1.6","null","<p>A másik játékos ezt választotta: <b>szibánylom</b>.</p><p>&#10060;</p><p>A válaszaitok <b>nem</b> egyeznek meg.</p>","null","","","","feedback trial","",""
"html-button-response-esp","25","415838","0.0-11.0-0.7","4855","Te bizony sokat figlasz. Én is sokat...","1","figlok","[""figlom"",""figlok""]","figlok","esp trial","4","true"
"html-button-response","26","419369","0.0-11.0-1.7","null","<p>A másik játékos ezt választotta: <b>figlok</b>.</p><p>&#x2705;</p><p>A te válaszod és a másik játékos válasza <b>megegyeznek</b>.</p>","null","","","","feedback trial","",""
"html-button-response-esp","27","428198","0.0-11.0-0.8","8315","Te bizony sokat spüjzöl. Én is sokat...","1","spüjzöm","[""spüjzök"",""spüjzöm""]","spüjzöm","esp trial","4","true"
"html-button-response","28","431708","0.0-11.0-1.8","null","<p>A másik játékos ezt választotta: <b>spüjzöm</b>.</p><p>&#x2705;</p><p>A te válaszod és a másik játékos válasza <b>megegyeznek</b>.</p>","null","","","","feedback trial","",""
"html-button-response-esp","29","437723","0.0-11.0-0.9","5053","Te bizony sokat spülűdzöl. Én is sokat...","1","spülűdzöm","[""spülűdzök"",""spülűdzöm""]","spülűdzök","esp trial","4","false"
"html-button-response","30","441253","0.0-11.0-1.9","null","<p>A másik játékos ezt választotta: <b>spülűdzök</b>.</p><p>&#10060;</p><p>A válaszaitok <b>nem</b> egyeznek meg.</p>","null","","","","feedback trial","",""
"html-button-response-esp","31","451236","0.0-11.0-0.10","9469","Te bizony sokat prínylasz. Én is sokat...","1","prínylok","[""prínylom"",""prínylok""]","prínylok","esp trial","4","true"
"html-button-response","32","454749","0.0-11.0-1.10","null","<p>A másik játékos ezt választotta: <b>prínylok</b>.</p><p>&#x2705;</p><p>A te válaszod és a másik játékos válasza <b>megegyeznek</b>.</p>","null","","","","feedback trial","",""
"html-button-response-esp","33","461177","0.0-11.0-0.11","5908","Te bizony sokat rokszol. Én is sokat...","1","rokszom","[""rokszok"",""rokszom""]","rokszok","esp trial","4","false"
"html-button-response","34","464707","0.0-11.0-1.11","null","<p>A másik játékos ezt választotta: <b>rokszok</b>.</p><p>&#10060;</p><p>A válaszaitok <b>nem</b> egyeznek meg.</p>","null","","","","feedback trial","",""
"html-button-response-esp","35","471236","0.0-11.0-0.12","6016","Te bizony sokat tragzol. Én is sokat...","0","tragzok","[""tragzok"",""tragzom""]","tragzok","esp trial","4","true"
"html-button-response","36","474741","0.0-11.0-1.12","null","<p>A másik játékos ezt választotta: <b>tragzok</b>.</p><p>&#x2705;</p><p>A te válaszod és a másik játékos válasza <b>megegyeznek</b>.</p>","null","","","","feedback trial","",""
"html-button-response-esp","37","482900","0.0-11.0-0.13","7651","Te bizony sokat bivégszel. Én is sokat...","0","bivégszem","[""bivégszem"",""bivégszek""]","bivégszek","esp trial","4","false"
"html-button-response","38","486417","0.0-11.0-1.13","null","<p>A másik játékos ezt választotta: <b>bivégszek</b>.</p><p>&#10060;</p><p>A válaszaitok <b>nem</b> egyeznek meg.</p>","null","","","","feedback trial","",""
"html-button-response-esp","39","492452","0.0-11.0-0.14","3142","Te bizony sokat düjzöl. Én is sokat...","0","düjzök","[""düjzök"",""düjzöm""]","düjzök","esp trial","4","true"
"html-button-response","40","495979","0.0-11.0-1.14","null","<p>A másik játékos ezt választotta: <b>düjzök</b>.</p><p>&#x2705;</p><p>A te válaszod és a másik játékos válasza <b>megegyeznek</b>.</p>","null","","","","feedback trial","",""
"html-button-response-esp","41","502393","0.0-11.0-0.15","5898","Te bizony sokat rájzol. Én is sokat...","1","rájzok","[""rájzom"",""rájzok""]","rájzok","esp trial","4","true"
"html-button-response","42","505905","0.0-11.0-1.15","null","<p>A másik játékos ezt választotta: <b>rájzok</b>.</p><p>&#x2705;</p><p>A te válaszod és a másik játékos válasza <b>megegyeznek</b>.</p>","null","","","","feedback trial","",""
"html-button-response-esp","43","514072","0.0-11.0-0.16","7647","Te bizony sokat narádzol. Én is sokat...","1","narádzok","[""narádzom"",""narádzok""]","narádzok","esp trial","4","true"
"html-button-response","44","517589","0.0-11.0-1.16","null","<p>A másik játékos ezt választotta: <b>narádzok</b>.</p><p>&#x2705;</p><p>A te válaszod és a másik játékos válasza <b>megegyeznek</b>.</p>","null","","","","feedback trial","",""
"html-button-response-esp","45","526113","0.0-11.0-0.17","8013","Te bizony sokat brivegzel. Én is sokat...","0","brivegzek","[""brivegzek"",""brivegzem""]","brivegzek","esp trial","4","true"
"html-button-response","46","529649","0.0-11.0-1.17","null","<p>A másik játékos ezt választotta: <b>brivegzek</b>.</p><p>&#x2705;</p><p>A te válaszod és a másik játékos válasza <b>megegyeznek</b>.</p>","null","","","","feedback trial","",""
"html-button-response-esp","47","535677","0.0-11.0-0.18","3367","Te bizony sokat pribagszol. Én is sokat...","1","pribagszok","[""pribagszom"",""pribagszok""]","pribagszok","esp trial","4","true"
"html-button-response","48","539210","0.0-11.0-1.18","null","<p>A másik játékos ezt választotta: <b>pribagszok</b>.</p><p>&#x2705;</p><p>A te válaszod és a másik játékos válasza <b>megegyeznek</b>.</p>","null","","","","feedback trial","",""
"html-button-response-esp","49","545243","0.0-11.0-0.19","3282","Te bizony sokat spubonylasz. Én is sokat...","1","spubonylok","[""spubonylom"",""spubonylok""]","spubonylom","esp trial","4","false"
"html-button-response","50","548769","0.0-11.0-1.19","null","<p>A másik játékos ezt választotta: <b>spubonylom</b>.</p><p>&#10060;</p><p>A válaszaitok <b>nem</b> egyeznek meg.</p>","null","","","","feedback trial","",""
"html-button-response-esp","51","554794","0.0-11.0-0.20","3979","Te bizony sokat klivaslasz. Én is sokat...","0","klivaslok","[""klivaslok"",""klivaslom""]","klivaslom","esp trial","4","false"
"html-button-response","52","558324","0.0-11.0-1.20","null","<p>A másik játékos ezt választotta: <b>klivaslom</b>.</p><p>&#10060;</p><p>A válaszaitok <b>nem</b> egyeznek meg.</p>","null","","","","feedback trial","",""
"html-button-response-esp","53","564339","0.0-11.0-0.21","4956","Te bizony sokat brubzol. Én is sokat...","0","brubzok","[""brubzok"",""brubzom""]","brubzok","esp trial","4","true"
"html-button-response","54","567845","0.0-11.0-1.21","null","<p>A másik játékos ezt választotta: <b>brubzok</b>.</p><p>&#x2705;</p><p>A te válaszod és a másik játékos válasza <b>megegyeznek</b>.</p>","null","","","","feedback trial","",""
"html-button-response-esp","55","573850","0.0-11.0-0.22","4959","Te bizony sokat flátszol. Én is sokat...","0","flátszok","[""flátszok"",""flátszom""]","flátszok","esp trial","4","true"
"html-button-response","56","577366","0.0-11.0-1.22","null","<p>A másik játékos ezt választotta: <b>flátszok</b>.</p><p>&#x2705;</p><p>A te válaszod és a másik játékos válasza <b>megegyeznek</b>.</p>","null","","","","feedback trial","",""
"html-button-response-esp","57","583389","0.0-11.0-0.23","3282","Te bizony sokat brobódzol. Én is sokat...","0","brobódzok","[""brobódzok"",""brobódzom""]","brobódzok","esp trial","4","true"
"html-button-response","58","586914","0.0-11.0-1.23","null","<p>A másik játékos ezt választotta: <b>brobódzok</b>.</p><p>&#x2705;</p><p>A te válaszod és a másik játékos válasza <b>megegyeznek</b>.</p>","null","","","","feedback trial","",""
"html-button-response-esp","59","592933","0.0-11.0-0.24","3063","Te bizony sokat jonylasz. Én is sokat...","0","jonylok","[""jonylok"",""jonylom""]","jonylom","esp trial","4","false"
"html-button-response","60","596445","0.0-11.0-1.24","null","<p>A másik játékos ezt választotta: <b>jonylom</b>.</p><p>&#10060;</p><p>A válaszaitok <b>nem</b> egyeznek meg.</p>","null","","","","feedback trial","",""
"html-button-response-esp","61","602453","0.0-11.0-0.25","2810","Te bizony sokat plugzol. Én is sokat...","1","plugzok","[""plugzom"",""plugzok""]","plugzok","esp trial","4","true"
"html-button-response","62","605983","0.0-11.0-1.25","null","<p>A másik játékos ezt választotta: <b>plugzok</b>.</p><p>&#x2705;</p><p>A te válaszod és a másik játékos válasza <b>megegyeznek</b>.</p>","null","","","","feedback trial","",""
"html-button-response-esp","63","612009","0.0-11.0-0.26","4822","Te bizony sokat spihemlesz. Én is sokat...","0","spihemlek","[""spihemlek"",""spihemlem""]","spihemlem","esp trial","4","false"
"html-button-response","64","615526","0.0-11.0-1.26","null","<p>A másik játékos ezt választotta: <b>spihemlem</b>.</p><p>&#10060;</p><p>A válaszaitok <b>nem</b> egyeznek meg.</p>","null","","","","feedback trial","",""
"html-button-response-esp","65","621543","0.0-11.0-0.27","1714","Te bizony sokat gyibeslesz. Én is sokat...","0","gyibeslek","[""gyibeslek"",""gyibeslem""]","gyibeslek","esp trial","4","true"
"html-button-response","66","625071","0.0-11.0-1.27","null","<p>A másik játékos ezt választotta: <b>gyibeslek</b>.</p><p>&#x2705;</p><p>A te válaszod és a másik játékos válasza <b>megegyeznek</b>.</p>","null","","","","feedback trial","",""
"html-button-response-esp","67","631091","0.0-11.0-0.28","3746","Te bizony sokat spáraklasz. Én is sokat...","0","spáraklok","[""spáraklok"",""spáraklom""]","spáraklok","esp trial","4","true"
"html-button-response","68","634614","0.0-11.0-1.28","null","<p>A másik játékos ezt választotta: <b>spáraklok</b>.</p><p>&#x2705;</p><p>A te válaszod és a másik játékos válasza <b>megegyeznek</b>.</p>","null","","","","feedback trial","",""
"html-button-response-esp","69","640622","0.0-11.0-0.29","2936","Te bizony sokat nűröklesz. Én is sokat...","0","nűröklök","[""nűröklök"",""nűröklöm""]","nűröklök","esp trial","4","true"
"html-button-response","70","644134","0.0-11.0-1.29","null","<p>A másik játékos ezt választotta: <b>nűröklök</b>.</p><p>&#x2705;</p><p>A te válaszod és a másik játékos válasza <b>megegyeznek</b>.</p>","null","","","","feedback trial","",""
"html-button-response-esp","71","650158","0.0-11.0-0.30","1867","Te bizony sokat bűtszöl. Én is sokat...","0","bűtszök","[""bűtszök"",""bűtszöm""]","bűtszök","esp trial","4","true"
"html-button-response","72","653681","0.0-11.0-1.30","null","<p>A másik játékos ezt választotta: <b>bűtszök</b>.</p><p>&#x2705;</p><p>A te válaszod és a másik játékos válasza <b>megegyeznek</b>.</p>","null","","","","feedback trial","",""
"html-button-response-esp","73","659698","0.0-11.0-0.31","3771","Te bizony sokat sztrijzol. Én is sokat...","1","sztrijzok","[""sztrijzom"",""sztrijzok""]","sztrijzok","esp trial","4","true"
"html-button-response","74","663232","0.0-11.0-1.31","null","<p>A másik játékos ezt választotta: <b>sztrijzok</b>.</p><p>&#x2705;</p><p>A te válaszod és a másik játékos válasza <b>megegyeznek</b>.</p>","null","","","","feedback trial","",""
"html-button-response-esp","75","669254","0.0-11.0-0.32","1923","Te bizony sokat frodlasz. Én is sokat...","0","frodlok","[""frodlok"",""frodlom""]","frodlok","esp trial","4","true"
"html-button-response","76","672766","0.0-11.0-1.32","null","<p>A másik játékos ezt választotta: <b>frodlok</b>.</p><p>&#x2705;</p><p>A te válaszod és a másik játékos válasza <b>megegyeznek</b>.</p>","null","","","","feedback trial","",""
"html-button-response-esp","77","678785","0.0-11.0-0.33","3253","Te bizony sokat píjlasz. Én is sokat...","1","píjlok","[""píjlom"",""píjlok""]","píjlok","esp trial","4","true"
"html-button-response","78","682316","0.0-11.0-1.33","null","<p>A másik játékos ezt választotta: <b>píjlok</b>.</p><p>&#x2705;</p><p>A te válaszod és a másik játékos válasza <b>megegyeznek</b>.</p>","null","","","","feedback trial","",""
"html-button-response-esp","79","688335","0.0-11.0-0.34","2308","Te bizony sokat sztrűkszöl. Én is sokat...","1","sztrűkszök","[""sztrűkszöm"",""sztrűkszök""]","sztrűkszök","esp trial","4","true"
"html-button-response","80","691854","0.0-11.0-1.34","null","<p>A másik játékos ezt választotta: <b>sztrűkszök</b>.</p><p>&#x2705;</p><p>A te válaszod és a másik játékos válasza <b>megegyeznek</b>.</p>","null","","","","feedback trial","",""
"html-button-response-esp","81","697877","0.0-11.0-0.35","3186","Te bizony sokat huroslasz. Én is sokat...","0","huroslok","[""huroslok"",""huroslom""]","huroslom","esp trial","4","false"
"html-button-response","82","701391","0.0-11.0-1.35","null","<p>A másik játékos ezt választotta: <b>huroslom</b>.</p><p>&#10060;</p><p>A válaszaitok <b>nem</b> egyeznek meg.</p>","null","","","","feedback trial","",""
"html-button-response-esp","83","707418","0.0-11.0-0.36","2842","Te bizony sokat vanylasz. Én is sokat...","0","vanylok","[""vanylok"",""vanylom""]","vanylom","esp trial","4","false"
"html-button-response","84","710950","0.0-11.0-1.36","null","<p>A másik játékos ezt választotta: <b>vanylom</b>.</p><p>&#10060;</p><p>A válaszaitok <b>nem</b> egyeznek meg.</p>","null","","","","feedback trial","",""
"html-button-response-esp","85","716973","0.0-11.0-0.37","2821","Te bizony sokat flitlasz. Én is sokat...","0","flitlok","[""flitlok"",""flitlom""]","flitlom","esp trial","4","false"
"html-button-response","86","720507","0.0-11.0-1.37","null","<p>A másik játékos ezt választotta: <b>flitlom</b>.</p><p>&#10060;</p><p>A válaszaitok <b>nem</b> egyeznek meg.</p>","null","","","","feedback trial","",""
"html-button-response-esp","87","726518","0.0-11.0-0.38","1771","Te bizony sokat trehégszel. Én is sokat...","0","trehégszem","[""trehégszem"",""trehégszek""]","trehégszek","esp trial","4","false"
"html-button-response","88","730030","0.0-11.0-1.38","null","<p>A másik játékos ezt választotta: <b>trehégszek</b>.</p><p>&#10060;</p><p>A válaszaitok <b>nem</b> egyeznek meg.</p>","null","","","","feedback trial","",""
"html-button-response-esp","89","736045","0.0-11.0-0.39","1951","Te bizony sokat vülődzöl. Én is sokat...","1","vülődzök","[""vülődzöm"",""vülődzök""]","vülődzök","esp trial","4","true"
"html-button-response","90","739567","0.0-11.0-1.39","null","<p>A másik játékos ezt választotta: <b>vülődzök</b>.</p><p>&#x2705;</p><p>A te válaszod és a másik játékos válasza <b>megegyeznek</b>.</p>","null","","","","feedback trial","",""
"html-button-response-esp","91","745582","0.0-11.0-0.40","2083","Te bizony sokat spihegzel. Én is sokat...","1","spihegzek","[""spihegzem"",""spihegzek""]","spihegzek","esp trial","4","true"
"html-button-response","92","749100","0.0-11.0-1.40","null","<p>A másik játékos ezt választotta: <b>spihegzek</b>.</p><p>&#x2705;</p><p>A te válaszod és a másik játékos válasza <b>megegyeznek</b>.</p>","null","","","","feedback trial","",""
"html-button-response-esp","93","755118","0.0-11.0-0.41","2472","Te bizony sokat filágzol. Én is sokat...","1","filágzok","[""filágzom"",""filágzok""]","filágzok","esp trial","4","true"
"html-button-response","94","758638","0.0-11.0-1.41","null","<p>A másik játékos ezt választotta: <b>filágzok</b>.</p><p>&#x2705;</p><p>A te válaszod és a másik játékos válasza <b>megegyeznek</b>.</p>","null","","","","feedback trial","",""
"html-button-response-esp","95","764654","0.0-11.0-0.42","2741","Te bizony sokat ibékszel. Én is sokat...","0","ibékszek","[""ibékszek"",""ibékszem""]","ibékszek","esp trial","4","true"
"html-button-response","96","768174","0.0-11.0-1.42","null","<p>A másik játékos ezt választotta: <b>ibékszek</b>.</p><p>&#x2705;</p><p>A te válaszod és a másik játékos válasza <b>megegyeznek</b>.</p>","null","","","","feedback trial","",""
"html-button-response-esp","97","774195","0.0-11.0-0.43","2340","Te bizony sokat pítszol. Én is sokat...","1","pítszok","[""pítszom"",""pítszok""]","pítszok","esp trial","4","true"
"html-button-response","98","777719","0.0-11.0-1.43","null","<p>A másik játékos ezt választotta: <b>pítszok</b>.</p><p>&#x2705;</p><p>A te válaszod és a másik játékos válasza <b>megegyeznek</b>.</p>","null","","","","feedback trial","",""
"html-button-response-esp","99","783746","0.0-11.0-0.44","1771","Te bizony sokat bihánylasz. Én is sokat...","1","bihánylok","[""bihánylom"",""bihánylok""]","bihánylom","esp trial","4","false"
"html-button-response","100","787262","0.0-11.0-1.44","null","<p>A másik játékos ezt választotta: <b>bihánylom</b>.</p><p>&#10060;</p><p>A válaszaitok <b>nem</b> egyeznek meg.</p>","null","","","","feedback trial","",""
"html-button-response-esp","101","793292","0.0-11.0-0.45","3122","Te bizony sokat trádlasz. Én is sokat...","1","trádlok","[""trádlom"",""trádlok""]","trádlok","esp trial","4","true"
"html-button-response","102","796820","0.0-11.0-1.45","null","<p>A másik játékos ezt választotta: <b>trádlok</b>.</p><p>&#x2705;</p><p>A te válaszod és a másik játékos válasza <b>megegyeznek</b>.</p>","null","","","","feedback trial","",""
"html-button-response-esp","103","802845","0.0-11.0-0.46","1926","Te bizony sokat plűbzöl. Én is sokat...","0","plűbzök","[""plűbzök"",""plűbzöm""]","plűbzök","esp trial","4","true"
"html-button-response","104","806371","0.0-11.0-1.46","null","<p>A másik játékos ezt választotta: <b>plűbzök</b>.</p><p>&#x2705;</p><p>A te válaszod és a másik játékos válasza <b>megegyeznek</b>.</p>","null","","","","feedback trial","",""
"html-button-response-esp","105","813023","0.0-11.0-0.47","6140","Te bizony sokat pribemlesz. Én is sokat...","0","pribemlek","[""pribemlek"",""pribemlem""]","pribemlem","esp trial","4","false"
"html-button-response","106","816534","0.0-11.0-1.47","null","<p>A másik játékos ezt választotta: <b>pribemlem</b>.</p><p>&#10060;</p><p>A válaszaitok <b>nem</b> egyeznek meg.</p>","null","","","","feedback trial","",""
"html-button-response-esp","107","822542","0.0-11.0-0.48","1984","Te bizony sokat spröbzöl. Én is sokat...","1","spröbzök","[""spröbzöm"",""spröbzök""]","spröbzök","esp trial","4","true"
"html-button-response","108","826062","0.0-11.0-1.48","null","<p>A másik játékos ezt választotta: <b>spröbzök</b>.</p><p>&#x2705;</p><p>A te válaszod és a másik játékos válasza <b>megegyeznek</b>.</p>","null","","","","feedback trial","",""
"html-button-response-esp","109","832081","0.0-11.0-0.49","1045","Te bizony sokat salárzol. Én is sokat...","1","salárzok","[""salárzom"",""salárzok""]","salárzok","esp trial","4","true"
"html-button-response","110","835590","0.0-11.0-1.49","null","<p>A másik játékos ezt választotta: <b>salárzok</b>.</p><p>&#x2705;</p><p>A te válaszod és a másik játékos válasza <b>megegyeznek</b>.</p>","null","","","","feedback trial","",""
"html-button-response-esp","111","841730","0.0-11.0-0.50","2946","Te bizony sokat klétszel. Én is sokat...","1","klétszek","[""klétszem"",""klétszek""]","klétszek","esp trial","4","true"
"html-button-response","112","845265","0.0-11.0-1.50","null","<p>A másik játékos ezt választotta: <b>klétszek</b>.</p><p>&#x2705;</p><p>A te válaszod és a másik játékos válasza <b>megegyeznek</b>.</p>","null","","","","feedback trial","",""
"html-button-response-esp","113","851294","0.0-11.0-0.51","2002","Te bizony sokat klaráglasz. Én is sokat...","0","klaráglok","[""klaráglok"",""klaráglom""]","klaráglom","esp trial","4","false"
"html-button-response","114","854816","0.0-11.0-1.51","null","<p>A másik játékos ezt választotta: <b>klaráglom</b>.</p><p>&#10060;</p><p>A válaszaitok <b>nem</b> egyeznek meg.</p>","null","","","","feedback trial","",""
"html-button-response-esp","115","860834","0.0-11.0-0.52","1970","Te bizony sokat flűmlesz. Én is sokat...","0","flűmlök","[""flűmlök"",""flűmlöm""]","flűmlöm","esp trial","4","false"
"html-button-response","116","864350","0.0-11.0-1.52","null","<p>A másik játékos ezt választotta: <b>flűmlöm</b>.</p><p>&#10060;</p><p>A válaszaitok <b>nem</b> egyeznek meg.</p>","null","","","","feedback trial","",""
"html-button-response-esp","117","870364","0.0-11.0-0.53","1303","Te bizony sokat flehénylesz. Én is sokat...","1","flehénylek","[""flehénylem"",""flehénylek""]","flehénylem","esp trial","4","false"
"html-button-response","118","873877","0.0-11.0-1.53","null","<p>A másik játékos ezt választotta: <b>flehénylem</b>.</p><p>&#10060;</p><p>A válaszaitok <b>nem</b> egyeznek meg.</p>","null","","","","feedback trial","",""
"html-button-response","119","883953","0.0-12.0","9566","<p>A közös játék most véget ért.</p><p>Mielőtt eláruljuk a végső pontszámodat, arra kérlek, játszd a szóválasztós játékot néhány percig egyedül is.</p><p>A feladatod ugyanaz lesz, választani két lehetőség közül.</p><p>Most viszont egyedül kell döntened, hogy te melyiket választanád.</p>","0","","","","","",""
"html-button-response-clever","120","897372","0.0-13.0-0.0","12909","Te bizony sokat spélszel. Én is sokat...","1","spélszem","[""spélszek"",""spélszem""]","","posttest trial","8",""
"html-button-response-clever","121","902766","0.0-13.0-0.1","4891","Te bizony sokat pugoslasz. Én is sokat...","0","pugoslok","[""pugoslok"",""pugoslom""]","","posttest trial","8",""
"html-button-response-clever","122","910997","0.0-13.0-0.2","7728","Te bizony sokat drügzöl. Én is sokat...","0","drügzöm","[""drügzöm"",""drügzök""]","","posttest trial","8",""
"html-button-response-clever","123","914879","0.0-13.0-0.3","3378","Te bizony sokat bivejlesz. Én is sokat...","1","bivejlek","[""bivejlem"",""bivejlek""]","","posttest trial","8",""
"html-button-response-clever","124","925330","0.0-13.0-0.4","9949","Te bizony sokat prihekszel. Én is sokat...","1","prihekszem","[""prihekszek"",""prihekszem""]","","posttest trial","8",""
"html-button-response-clever","125","934238","0.0-13.0-0.5","8386","Te bizony sokat fligzol. Én is sokat...","0","fligzom","[""fligzom"",""fligzok""]","","posttest trial","8",""
"html-button-response-clever","126","940469","0.0-13.0-0.6","5728","Te bizony sokat gilárzol. Én is sokat...","1","gilárzok","[""gilárzom"",""gilárzok""]","","posttest trial","8",""
"html-button-response-clever","127","948911","0.0-13.0-0.7","7936","Te bizony sokat sprálszol. Én is sokat...","1","sprálszok","[""sprálszom"",""sprálszok""]","","posttest trial","8",""
"html-button-response-clever","128","952958","0.0-13.0-0.8","3544","Te bizony sokat lihadzol. Én is sokat...","0","lihadzok","[""lihadzok"",""lihadzom""]","","posttest trial","8",""
"html-button-response-clever","129","958043","0.0-13.0-0.9","4584","Te bizony sokat spibádzol. Én is sokat...","1","spibádzok","[""spibádzom"",""spibádzok""]","","posttest trial","8",""
"html-button-response-clever","130","961685","0.0-13.0-0.10","3138","Te bizony sokat tuboklasz. Én is sokat...","1","tuboklom","[""tuboklok"",""tuboklom""]","","posttest trial","8",""
"html-button-response-clever","131","966877","0.0-13.0-0.11","4688","Te bizony sokat mékszel. Én is sokat...","1","mékszem","[""mékszek"",""mékszem""]","","posttest trial","8",""
"html-button-response-clever","132","972995","0.0-13.0-0.12","5602","Te bizony sokat spatszol. Én is sokat...","1","spatszom","[""spatszok"",""spatszom""]","","posttest trial","8",""
"html-button-response-clever","133","977506","0.0-13.0-0.13","4004","Te bizony sokat gyibakszol. Én is sokat...","0","gyibakszom","[""gyibakszom"",""gyibakszok""]","","posttest trial","8",""
"html-button-response-clever","134","982911","0.0-13.0-0.14","4904","Te bizony sokat floglasz. Én is sokat...","0","floglok","[""floglok"",""floglom""]","","posttest trial","8",""
"html-button-response-clever","135","991106","0.0-13.0-0.15","7691","Te bizony sokat frivajlasz. Én is sokat...","0","frivajlok","[""frivajlok"",""frivajlom""]","","posttest trial","8",""
"html-button-response-clever","136","998198","0.0-13.0-0.16","6586","Te bizony sokat fliraklasz. Én is sokat...","0","fliraklom","[""fliraklom"",""fliraklok""]","","posttest trial","8",""
"html-button-response-clever","137","1003551","0.0-13.0-0.17","4850","Te bizony sokat vihepszel. Én is sokat...","0","vihepszem","[""vihepszem"",""vihepszek""]","","posttest trial","8",""
"html-button-response-clever","138","1009165","0.0-13.0-0.18","5112","Te bizony sokat huklasz. Én is sokat...","0","huklok","[""huklok"",""huklom""]","","posttest trial","8",""
"html-button-response-clever","139","1014678","0.0-13.0-0.19","5008","Te bizony sokat brarlasz. Én is sokat...","0","brarlok","[""brarlok"",""brarlom""]","","posttest trial","8",""
"html-button-response-clever","140","1018208","0.0-13.0-0.20","3025","Te bizony sokat klidlasz. Én is sokat...","0","klidlom","[""klidlom"",""klidlok""]","","posttest trial","8",""
"html-button-response-clever","141","1022239","0.0-13.0-0.21","3529","Te bizony sokat kumlasz. Én is sokat...","1","kumlok","[""kumlom"",""kumlok""]","","posttest trial","8",""
"html-button-response-clever","142","1030087","0.0-13.0-0.22","7343","Te bizony sokat préleglesz. Én is sokat...","1","préleglek","[""préleglem"",""préleglek""]","","posttest trial","8",""
"html-button-response-clever","143","1033736","0.0-13.0-0.23","3146","Te bizony sokat táklasz. Én is sokat...","0","táklok","[""táklok"",""táklom""]","","posttest trial","8",""
"html-button-response-clever","144","1043869","0.0-13.0-0.24","9631","Te bizony sokat plövőrzöl. Én is sokat...","0","plövőrzök","[""plövőrzök"",""plövőrzöm""]","","posttest trial","8",""
"html-button-response-clever","145","1048694","0.0-13.0-0.25","4321","Te bizony sokat livaklasz. Én is sokat...","0","livaklok","[""livaklok"",""livaklom""]","","posttest trial","8",""
"html-button-response-clever","146","1054049","0.0-13.0-0.26","4839","Te bizony sokat spírzol. Én is sokat...","1","spírzom","[""spírzok"",""spírzom""]","","posttest trial","8",""
"html-button-response-clever","147","1058692","0.0-13.0-0.27","4138","Te bizony sokat sprédlesz. Én is sokat...","1","sprédlek","[""sprédlem"",""sprédlek""]","","posttest trial","8",""
"html-button-response-clever","148","1061978","0.0-13.0-0.28","2777","Te bizony sokat aglasz. Én is sokat...","1","aglok","[""aglom"",""aglok""]","","posttest trial","8",""
"html-button-response-clever","149","1065816","0.0-13.0-0.29","3336","Te bizony sokat fivénylesz. Én is sokat...","0","fivénylek","[""fivénylek"",""fivénylem""]","","posttest trial","8",""
"html-button-response-clever","150","1071061","0.0-13.0-0.30","4742","Te bizony sokat szűslesz. Én is sokat...","0","szűslök","[""szűslök"",""szűslöm""]","","posttest trial","8",""
"html-button-response-clever","151","1076719","0.0-13.0-0.31","5140","Te bizony sokat flözlesz. Én is sokat...","0","flözlök","[""flözlök"",""flözlöm""]","","posttest trial","8",""
"html-button-response-clever","152","1081565","0.0-13.0-0.32","4342","Te bizony sokat spülőrzöl. Én is sokat...","0","spülőrzöm","[""spülőrzöm"",""spülőrzök""]","","posttest trial","8",""
"html-button-response-clever","153","1085306","0.0-13.0-0.33","3228","Te bizony sokat spülöklesz. Én is sokat...","0","spülöklök","[""spülöklök"",""spülöklöm""]","","posttest trial","8",""
"html-button-response-clever","154","1090795","0.0-13.0-0.34","4967","Te bizony sokat sztruglasz. Én is sokat...","1","sztruglok","[""sztruglom"",""sztruglok""]","","posttest trial","8",""
"html-button-response-clever","155","1093643","0.0-13.0-0.35","2327","Te bizony sokat prezlesz. Én is sokat...","1","prezlek","[""prezlem"",""prezlek""]","","posttest trial","8",""
"html-button-response-clever","156","1101481","0.0-13.0-0.36","7318","Te bizony sokat plágadzol. Én is sokat...","1","plágadzom","[""plágadzok"",""plágadzom""]","","posttest trial","8",""
"html-button-response-clever","157","1108656","0.0-13.0-0.37","6673","Te bizony sokat trihagzol. Én is sokat...","1","trihagzok","[""trihagzom"",""trihagzok""]","","posttest trial","8",""
"html-button-response-clever","158","1112784","0.0-13.0-0.38","3626","Te bizony sokat frágapszol. Én is sokat...","1","frágapszok","[""frágapszom"",""frágapszok""]","","posttest trial","8",""
"html-button-response-clever","159","1119630","0.0-13.0-0.39","6336","Te bizony sokat praslasz. Én is sokat...","0","praslok","[""praslok"",""praslom""]","","posttest trial","8",""
"html-button-response-clever","160","1124073","0.0-13.0-0.40","3929","Te bizony sokat flibekszel. Én is sokat...","1","flibekszem","[""flibekszek"",""flibekszem""]","","posttest trial","8",""
"html-button-response-clever","161","1129995","0.0-13.0-0.41","5406","Te bizony sokat gerénylesz. Én is sokat...","0","gerénylek","[""gerénylek"",""gerénylem""]","","posttest trial","8",""
"html-button-response-clever","162","1134397","0.0-13.0-0.42","3887","Te bizony sokat klárzol. Én is sokat...","1","klárzok","[""klárzom"",""klárzok""]","","posttest trial","8",""
"html-button-response-clever","163","1138848","0.0-13.0-0.43","3946","Te bizony sokat prohódzol. Én is sokat...","0","prohódzok","[""prohódzok"",""prohódzom""]","","posttest trial","8",""
"html-button-response-clever","164","1144475","0.0-13.0-0.44","5125","Te bizony sokat zödlesz. Én is sokat...","1","zödlök","[""zödlöm"",""zödlök""]","","posttest trial","8",""
"html-button-response-clever","165","1148181","0.0-13.0-0.45","3202","Te bizony sokat ibáglasz. Én is sokat...","1","ibáglok","[""ibáglom"",""ibáglok""]","","posttest trial","8",""
"html-button-response-clever","166","1153176","0.0-13.0-0.46","4490","Te bizony sokat friszlasz. Én is sokat...","1","friszlok","[""friszlom"",""friszlok""]","","posttest trial","8",""
"html-button-response-clever","167","1158651","0.0-13.0-0.47","4973","Te bizony sokat péleslesz. Én is sokat...","1","péleslek","[""péleslem"",""péleslek""]","","posttest trial","8",""
"html-button-response-clever","168","1166621","0.0-13.0-0.48","7463","Te bizony sokat spüszlesz. Én is sokat...","1","spüszlök","[""spüszlöm"",""spüszlök""]","","posttest trial","8",""
"html-button-response-clever","169","1173879","0.0-13.0-0.49","6753","Te bizony sokat flérlesz. Én is sokat...","1","flérlek","[""flérlem"",""flérlek""]","","posttest trial","8",""
"html-button-response-clever","170","1179311","0.0-13.0-0.50","4929","Te bizony sokat csólorzol. Én is sokat...","1","csólorzok","[""csólorzom"",""csólorzok""]","","posttest trial","8",""
"html-button-response-clever","171","1183182","0.0-13.0-0.51","3363","Te bizony sokat vűjlesz. Én is sokat...","1","vűjlök","[""vűjlöm"",""vűjlök""]","","posttest trial","8",""
"html-button-response-clever","172","1187613","0.0-13.0-0.52","3926","Te bizony sokat féjzel. Én is sokat...","1","féjzem","[""féjzek"",""féjzem""]","","posttest trial","8",""
"html-button-response-clever","173","1194501","0.0-13.0-0.53","6383","Te bizony sokat gyivádzol. Én is sokat...","0","gyivádzom","[""gyivádzom"",""gyivádzok""]","","posttest trial","8",""
"html-button-response","174","1201669","0.0-14.0","6663","<p> Vége a játéknak. A teljes pontszámod 35/54.</p><p> Szép munka! &#128526;&#128526;&#128526;</p><p>A Befejezés gomb megnyomása után bezárhatod a böngészőablakot.</p>","0","","","","","",""
"html-keyboard-response","175","1207182","0.0-15.0","null","<div class=""message"">
         <p>Egy kis türelmet kérünk, amíg elmentjük az adatokat...</p>
         </div>","null","","","","","",""
