"trial_type","trial_index","time_elapsed","internal_node_id","rt","stimulus","response","response_string","choices","esp_response","trial_kind","list_number","esp_match"
"pavlovia","0","764","0.0-0.0","","","","","","","","",""
"html-button-response","1","5382","0.0-1.0","3226","<p>Kedves Résztvevő! A Budapesti Műszaki és Gazdaságtudományi Egyetem Kognitív Tudományi Tanszékének kutatásában való részvételed kérjük. A kutatásban azt vizsgáljuk, hogy a magyar anyanyelvűek hogyan használnak bizonyos szóalakokat, és hogy milyen képük van arról, hogy mások hogyan használják, hogyan képzik a szavakat. Ez hozzásegít bennünket ahhoz, hogy jobban megértsük, hogyan dolgozza fel és tárolja a nyelvet az emberi agy, és hogyan működnek, hogyan változnak egy adott közösség nyelvi konvenciói.</p><p>A vizsgálat egy rövid számítógépes feladatból fog állni. A kutatásban való részvétel önkéntes, a részvételi szándék bármikor visszavonható. A résztvevők eredményeit név nélkül kezeljük, így nem beazonosíthatók az adatok feldolgozása során. Minden személyes adatot az EU általános adatvédelmi rendeletének (GDPR) megfelelően kezelünk és legfeljebb öt éven belül megsemmisítünk. A vizsgálat jellemzően húsz percet vesz igénybe.</p><p>Kutatásvezető:</p><p>Dr. Rácz Péter, tudományos munkatárs, BME KTT</p><p>e-mail: racz.peter.marton@ttk.bme.hu</p>","0","","","","","",""
"html-button-response","2","7540","0.0-2.0","1647","<p>A kísérletben szavakat fogsz látni. Ezek között lesznek olyanok, amelyeket ismersz, de előfordulhatnak olyanok is, amelyeket nem ismersz, sőt, vannak köztük kitalált szavak is. Minden szónál látni fogsz toldalékolt alakokat. A te feladatod az lesz, hogy minden szóhoz kiválaszd azt a toldalékolt alakot, amely a te számodra ismerősebben, természetesebben hangzik. Rossz válaszok nincsenek, mert van olyan, hogy különböző embereknek más és más szó tűnik jobb választásnak. A választ úgy tudod majd kiválasztani, ha rákattintasz.</p><p>Ebben a szóválasztós játékban egy másik játékossal együtt veszel majd részt. A másik játékos is minden esetben azok közül a lehetőségek közül válogathat, mint te. Kettőtök feladata az, hogy ugyanazt a lehetőséget válasszátok minden esetben. Ahhoz, hogy ez sikerüljön, neked figyelned kell arra, hogy a másik játékos milyen válaszokat ad, és ennek alapján meg kell tippelned, hogyan választ legközelebb. Ha eltalálod, akkor pontot kapsz.</p>","0","","","","","",""
"html-button-response","3","11418","0.0-3.0","3362","<p>Kérjük, olvasd el az alábbi nyilatkozatot, és amennyiben egyetértesz vele, nyomj a Beleegyezés gombra!</p><p>Kijelentem, hogy magyar anyanyelvű személyként önként veszek részt a BME KTT kísérletében. A kutatás céljával és folyamatával kapcsolatban elegendő tájékoztatást kaptam, lehetőségem volt kérdések feltételére, és esetleges kérdéseimre megfelelő válaszokat kaptam. A tájékoztatás alapján elegendő mennyiségű információ áll a rendelkezésemre, hogy eldönthessem, részt kívánok-e venni a kutatásban.</p><p>Tisztában vagyok vele, hogy részvételi szándékomat és adataimat bármikor, indoklás nélkül visszavonhatom.</p><p>Értem és tudomásul veszem, hogy a kutatás tudományos célokat szolgál, és az általam szolgáltatott adatokat a BME kizárólag kutatási célból használja fel. Tudomásul veszem, hogy eredményeimet a többi résztvevő eredményeivel együtt kezelik, így egyéni teljesítményemről visszajelzést, szakvéleményt nem kapok.</p><p>Megértettem, hogy adataim kezelését illetően a BME az EU általános adatvédelmi rendelete (GDPR), a hatályos adatvédelmi törvény és a nemzetközi kutatás-etikai alapelvek szerint jár el. Eredményeim anonim módon kerülnek feldolgozásra, és a kutatás résztvevői az azonosításomra alkalmas adataimat harmadik félnek nem szolgáltatják ki. Engedélyezem a BME számára a jelen kutatásban felvett adataim feldolgozását és tárolását, beleértve azok későbbi kutatásokhoz való felhasználását is. Személyes adataim kezelésével kapcsolatban tájékoztatást kérhetek a kutatás résztvevőitől, az adatkezelés ellen tiltakozhatok, kérhetem személyes adataim helyesbítését, törlését vagy zárolását, valamint jogorvoslatért a Nemzeti Adatvédelmi és Információszabadság Hatósághoz fordulhatok.</p><p>Kijelentem, hogy a kutatásban való részvételem körülményeiről részletes tájékoztatást kaptam, és a feltételeket elfogadom.</p>","0","","","","","",""
"survey-text","4","63237","0.0-4.0","51296","","{""Q0"":""EIDCA8"",""Q1"":""férfi"",""Q2"":""1998"",""Q3"":""17""}","","","","","",""
"html-button-response","5","78724","0.0-5.0","14977","<p>Ebben a játékban szavakat kell toldalékolni.</p> <p>Minden körben mutatunk majd egy példamondatot, amiben lesz egy szó.</p> <p>Alatta jön egy második mondat, ezt a mondatot neked kell majd befejezni, ugyanezzel a szóval.</p> <p>Nem biztos, hogy a szó eleve ismerős lesz számodra!</p> <p>Minden mondathoz adunk két lehetőséget, ezeket balra és jobbra látod majd.</p> <p>A játék kb. negyedóráig-húsz percig tart.</p>","0","","","","","",""
"html-button-response","6","88275","0.0-6.0","9031","<p>Nézzünk egy példát!</p> <p>A példamondat: ""János nagyon szeret rancsúrozni.""</p><p>Neked ezt a mondatot kell befejezned: ""Én is szívesen...""</p><p>A lehetőségek pedig ezek:</p>","1","","","","","",""
"html-button-response","7","90717","0.0-7.0","1934","<p>Nagyon jó.</p><p>Ezt a játékot nem egyedül fogod játszani, hanem egy másik játékossal.</p><p>Mielőtt továbblépünk, összekapcsolunk titeket egymással.</p><p>Ez igénybe vehet néhány másodpercet, amihez szíves türelmed kérjük.</p>","0","","","","","",""
"html-button-response","8","96453","0.0-8.0","null","<p>Csatlakozás a másik játékoshoz...</p>","null","","","","","",""
"html-button-response","9","98979","0.0-9.0","null","<p> Sikeres kapcsolódás!</p>","null","","","","","",""
"html-button-response","10","109347","0.0-10.0","9853","<p>A következőkben ketten játsszátok a szóválasztós játékot.</p><p>A feladatotok az lesz, hogy minden körben <b>ugyanazt</b> a szót válasszátok.</p><p>Minden ilyen egyező válaszért pontot kaptok.</p><p>Próbáld meg kitalálni, mit választ a másik játékos!</p><p>Bármikor választhatsz, a körnek akkor van vége, ha mindketten döntöttetek.</p><p>Sok sikert!</p>","0","","","","","",""
"html-button-response-esp","11","116226","0.0-11.0-0.0","6363","Te bizony sokat plugzol. Én is sokat...","0","plugzom","[""plugzom"",""plugzok""]","plugzom","esp trial","7","true"
"html-button-response","12","119743","0.0-11.0-1.0","null","<p>A másik játékos ezt választotta: <b>plugzom</b>.</p><p>&#x2705;</p><p>A te válaszod és a másik játékos válasza <b>megegyeznek</b>.</p>","null","","","","feedback trial","",""
"html-button-response-esp","13","127546","0.0-11.0-0.1","7295","Te bizony sokat trádlasz. Én is sokat...","0","trádlok","[""trádlok"",""trádlom""]","trádlom","esp trial","7","false"
"html-button-response","14","131090","0.0-11.0-1.1","null","<p>A másik játékos ezt választotta: <b>trádlom</b>.</p><p>&#10060;</p><p>A válaszaitok <b>nem</b> egyeznek meg.</p>","null","","","","feedback trial","",""
"html-button-response-esp","15","137967","0.0-11.0-0.2","5891","Te bizony sokat sztrozlasz. Én is sokat...","0","sztrozlom","[""sztrozlom"",""sztrozlok""]","sztrozlom","esp trial","7","true"
"html-button-response","16","141480","0.0-11.0-1.2","null","<p>A másik játékos ezt választotta: <b>sztrozlom</b>.</p><p>&#x2705;</p><p>A te válaszod és a másik játékos válasza <b>megegyeznek</b>.</p>","null","","","","feedback trial","",""
"html-button-response-esp","17","148350","0.0-11.0-0.3","3885","Te bizony sokat bűtszöl. Én is sokat...","1","bűtszöm","[""bűtszök"",""bűtszöm""]","bűtszöm","esp trial","7","true"
"html-button-response","18","151870","0.0-11.0-1.3","null","<p>A másik játékos ezt választotta: <b>bűtszöm</b>.</p><p>&#x2705;</p><p>A te válaszod és a másik játékos válasza <b>megegyeznek</b>.</p>","null","","","","feedback trial","",""
"html-button-response-esp","19","158734","0.0-11.0-0.4","3929","Te bizony sokat rájzol. Én is sokat...","1","rájzom","[""rájzok"",""rájzom""]","rájzom","esp trial","7","true"
"html-button-response","20","162246","0.0-11.0-1.4","null","<p>A másik játékos ezt választotta: <b>rájzom</b>.</p><p>&#x2705;</p><p>A te válaszod és a másik játékos válasza <b>megegyeznek</b>.</p>","null","","","","feedback trial","",""
"html-button-response-esp","21","171349","0.0-11.0-0.5","8599","Te bizony sokat nűröklesz. Én is sokat...","0","nűröklöm","[""nűröklöm"",""nűröklök""]","nűröklöm","esp trial","7","true"
"html-button-response","22","174871","0.0-11.0-1.5","null","<p>A másik játékos ezt választotta: <b>nűröklöm</b>.</p><p>&#x2705;</p><p>A te válaszod és a másik játékos válasza <b>megegyeznek</b>.</p>","null","","","","feedback trial","",""
"html-button-response-esp","23","181726","0.0-11.0-0.6","3649","Te bizony sokat ibékszel. Én is sokat...","0","ibékszem","[""ibékszem"",""ibékszek""]","ibékszem","esp trial","7","true"
"html-button-response","24","185241","0.0-11.0-1.6","null","<p>A másik játékos ezt választotta: <b>ibékszem</b>.</p><p>&#x2705;</p><p>A te válaszod és a másik játékos válasza <b>megegyeznek</b>.</p>","null","","","","feedback trial","",""
"html-button-response-esp","25","192101","0.0-11.0-0.7","4420","Te bizony sokat sztrűkszöl. Én is sokat...","0","sztrűkszöm","[""sztrűkszöm"",""sztrűkszök""]","sztrűkszöm","esp trial","7","true"
"html-button-response","26","195625","0.0-11.0-1.7","null","<p>A másik játékos ezt választotta: <b>sztrűkszöm</b>.</p><p>&#x2705;</p><p>A te válaszod és a másik játékos válasza <b>megegyeznek</b>.</p>","null","","","","feedback trial","",""
"html-button-response-esp","27","202487","0.0-11.0-0.8","5214","Te bizony sokat flitlasz. Én is sokat...","0","flitlok","[""flitlok"",""flitlom""]","flitlok","esp trial","7","true"
"html-button-response","28","206007","0.0-11.0-1.8","null","<p>A másik játékos ezt választotta: <b>flitlok</b>.</p><p>&#x2705;</p><p>A te válaszod és a másik játékos válasza <b>megegyeznek</b>.</p>","null","","","","feedback trial","",""
"html-button-response-esp","29","212887","0.0-11.0-0.9","5374","Te bizony sokat hűgzöl. Én is sokat...","1","hűgzöm","[""hűgzök"",""hűgzöm""]","hűgzöm","esp trial","7","true"
"html-button-response","30","216402","0.0-11.0-1.9","null","<p>A másik játékos ezt választotta: <b>hűgzöm</b>.</p><p>&#x2705;</p><p>A te válaszod és a másik játékos válasza <b>megegyeznek</b>.</p>","null","","","","feedback trial","",""
"html-button-response-esp","31","223282","0.0-11.0-0.10","5171","Te bizony sokat rokszol. Én is sokat...","0","rokszom","[""rokszom"",""rokszok""]","rokszom","esp trial","7","true"
"html-button-response","32","226807","0.0-11.0-1.10","null","<p>A másik játékos ezt választotta: <b>rokszom</b>.</p><p>&#x2705;</p><p>A te válaszod és a másik játékos válasza <b>megegyeznek</b>.</p>","null","","","","feedback trial","",""
"html-button-response-esp","33","233669","0.0-11.0-0.11","3323","Te bizony sokat figlasz. Én is sokat...","0","figlok","[""figlok"",""figlom""]","figlom","esp trial","7","false"
"html-button-response","34","237192","0.0-11.0-1.11","null","<p>A másik játékos ezt választotta: <b>figlom</b>.</p><p>&#10060;</p><p>A válaszaitok <b>nem</b> egyeznek meg.</p>","null","","","","feedback trial","",""
"html-button-response-esp","35","244613","0.0-11.0-0.12","6900","Te bizony sokat pribagszol. Én is sokat...","1","pribagszom","[""pribagszok"",""pribagszom""]","pribagszom","esp trial","7","true"
"html-button-response","36","248126","0.0-11.0-1.12","null","<p>A másik játékos ezt választotta: <b>pribagszom</b>.</p><p>&#x2705;</p><p>A te válaszod és a másik játékos válasza <b>megegyeznek</b>.</p>","null","","","","feedback trial","",""
"html-button-response-esp","37","254994","0.0-11.0-0.13","5587","Te bizony sokat klétszel. Én is sokat...","1","klétszem","[""klétszek"",""klétszem""]","klétszem","esp trial","7","true"
"html-button-response","38","258517","0.0-11.0-1.13","null","<p>A másik játékos ezt választotta: <b>klétszem</b>.</p><p>&#x2705;</p><p>A te válaszod és a másik játékos válasza <b>megegyeznek</b>.</p>","null","","","","feedback trial","",""
"html-button-response-esp","39","265374","0.0-11.0-0.14","3815","Te bizony sokat brivegzel. Én is sokat...","1","brivegzem","[""brivegzek"",""brivegzem""]","brivegzem","esp trial","7","true"
"html-button-response","40","268894","0.0-11.0-1.14","null","<p>A másik játékos ezt választotta: <b>brivegzem</b>.</p><p>&#x2705;</p><p>A te válaszod és a másik játékos válasza <b>megegyeznek</b>.</p>","null","","","","feedback trial","",""
"html-button-response-esp","41","280422","0.0-11.0-0.15","11023","Te bizony sokat klaráglasz. Én is sokat...","1","klaráglok","[""klaráglom"",""klaráglok""]","klaráglok","esp trial","7","true"
"html-button-response","42","283942","0.0-11.0-1.15","null","<p>A másik játékos ezt választotta: <b>klaráglok</b>.</p><p>&#x2705;</p><p>A te válaszod és a másik játékos válasza <b>megegyeznek</b>.</p>","null","","","","feedback trial","",""
"html-button-response-esp","43","290806","0.0-11.0-0.16","5142","Te bizony sokat spubonylasz. Én is sokat...","1","spubonylok","[""spubonylom"",""spubonylok""]","spubonylok","esp trial","7","true"
"html-button-response","44","294318","0.0-11.0-1.16","null","<p>A másik játékos ezt választotta: <b>spubonylok</b>.</p><p>&#x2705;</p><p>A te válaszod és a másik játékos válasza <b>megegyeznek</b>.</p>","null","","","","feedback trial","",""
"html-button-response-esp","45","301196","0.0-11.0-0.17","5457","Te bizony sokat brubzol. Én is sokat...","1","brubzok","[""brubzom"",""brubzok""]","brubzom","esp trial","7","false"
"html-button-response","46","304709","0.0-11.0-1.17","null","<p>A másik játékos ezt választotta: <b>brubzom</b>.</p><p>&#10060;</p><p>A válaszaitok <b>nem</b> egyeznek meg.</p>","null","","","","feedback trial","",""
"html-button-response-esp","47","312876","0.0-11.0-0.18","7651","Te bizony sokat spihemlesz. Én is sokat...","1","spihemlek","[""spihemlem"",""spihemlek""]","spihemlek","esp trial","7","true"
"html-button-response","48","316389","0.0-11.0-1.18","null","<p>A másik játékos ezt választotta: <b>spihemlek</b>.</p><p>&#x2705;</p><p>A te válaszod és a másik játékos válasza <b>megegyeznek</b>.</p>","null","","","","feedback trial","",""
"html-button-response-esp","49","327412","0.0-11.0-0.19","10518","Te bizony sokat bihánylasz. Én is sokat...","0","bihánylok","[""bihánylok"",""bihánylom""]","bihánylok","esp trial","7","true"
"html-button-response","50","330933","0.0-11.0-1.19","null","<p>A másik játékos ezt választotta: <b>bihánylok</b>.</p><p>&#x2705;</p><p>A te válaszod és a másik játékos válasza <b>megegyeznek</b>.</p>","null","","","","feedback trial","",""
"html-button-response-esp","51","339851","0.0-11.0-0.20","8404","Te bizony sokat bivégszel. Én is sokat...","1","bivégszem","[""bivégszek"",""bivégszem""]","bivégszem","esp trial","7","true"
"html-button-response","52","343373","0.0-11.0-1.20","null","<p>A másik játékos ezt választotta: <b>bivégszem</b>.</p><p>&#x2705;</p><p>A te válaszod és a másik játékos válasza <b>megegyeznek</b>.</p>","null","","","","feedback trial","",""
"html-button-response-esp","53","350241","0.0-11.0-0.21","5031","Te bizony sokat salárzol. Én is sokat...","1","salárzok","[""salárzom"",""salárzok""]","salárzom","esp trial","7","false"
"html-button-response","54","353765","0.0-11.0-1.21","null","<p>A másik játékos ezt választotta: <b>salárzom</b>.</p><p>&#10060;</p><p>A válaszaitok <b>nem</b> egyeznek meg.</p>","null","","","","feedback trial","",""
"html-button-response-esp","55","364107","0.0-11.0-0.22","9803","Te bizony sokat flehénylesz. Én is sokat...","1","flehénylek","[""flehénylem"",""flehénylek""]","flehénylek","esp trial","7","true"
"html-button-response","56","367627","0.0-11.0-1.22","null","<p>A másik játékos ezt választotta: <b>flehénylek</b>.</p><p>&#x2705;</p><p>A te válaszod és a másik játékos válasza <b>megegyeznek</b>.</p>","null","","","","feedback trial","",""
"html-button-response-esp","57","374491","0.0-11.0-0.23","4740","Te bizony sokat düjzöl. Én is sokat...","1","düjzök","[""düjzöm"",""düjzök""]","düjzöm","esp trial","7","false"
"html-button-response","58","378023","0.0-11.0-1.23","null","<p>A másik játékos ezt választotta: <b>düjzöm</b>.</p><p>&#10060;</p><p>A válaszaitok <b>nem</b> egyeznek meg.</p>","null","","","","feedback trial","",""
"html-button-response-esp","59","384889","0.0-11.0-0.24","6098","Te bizony sokat trehégszel. Én is sokat...","1","trehégszem","[""trehégszek"",""trehégszem""]","trehégszem","esp trial","7","true"
"html-button-response","60","388412","0.0-11.0-1.24","null","<p>A másik játékos ezt választotta: <b>trehégszem</b>.</p><p>&#x2705;</p><p>A te válaszod és a másik játékos válasza <b>megegyeznek</b>.</p>","null","","","","feedback trial","",""
"html-button-response-esp","61","395279","0.0-11.0-0.25","3385","Te bizony sokat vanylasz. Én is sokat...","1","vanylom","[""vanylok"",""vanylom""]","vanylok","esp trial","7","false"
"html-button-response","62","398798","0.0-11.0-1.25","null","<p>A másik játékos ezt választotta: <b>vanylok</b>.</p><p>&#10060;</p><p>A válaszaitok <b>nem</b> egyeznek meg.</p>","null","","","","feedback trial","",""
"html-button-response-esp","63","405669","0.0-11.0-0.26","3349","Te bizony sokat pribemlesz. Én is sokat...","0","pribemlek","[""pribemlek"",""pribemlem""]","pribemlek","esp trial","7","true"
"html-button-response","64","409183","0.0-11.0-1.26","null","<p>A másik játékos ezt választotta: <b>pribemlek</b>.</p><p>&#x2705;</p><p>A te válaszod és a másik játékos válasza <b>megegyeznek</b>.</p>","null","","","","feedback trial","",""
"html-button-response-esp","65","416569","0.0-11.0-0.27","6883","Te bizony sokat gyibeslesz. Én is sokat...","0","gyibeslek","[""gyibeslek"",""gyibeslem""]","gyibeslem","esp trial","7","false"
"html-button-response","66","420090","0.0-11.0-1.27","null","<p>A másik játékos ezt választotta: <b>gyibeslem</b>.</p><p>&#10060;</p><p>A válaszaitok <b>nem</b> egyeznek meg.</p>","null","","","","feedback trial","",""
"html-button-response-esp","67","426961","0.0-11.0-0.28","4050","Te bizony sokat spáraklasz. Én is sokat...","0","spáraklom","[""spáraklom"",""spáraklok""]","spáraklom","esp trial","7","true"
"html-button-response","68","430500","0.0-11.0-1.28","null","<p>A másik játékos ezt választotta: <b>spáraklom</b>.</p><p>&#x2705;</p><p>A te válaszod és a másik játékos válasza <b>megegyeznek</b>.</p>","null","","","","feedback trial","",""
"html-button-response-esp","69","437366","0.0-11.0-0.29","5631","Te bizony sokat flátszol. Én is sokat...","1","flátszok","[""flátszom"",""flátszok""]","flátszom","esp trial","7","false"
"html-button-response","70","440896","0.0-11.0-1.29","null","<p>A másik játékos ezt választotta: <b>flátszom</b>.</p><p>&#10060;</p><p>A válaszaitok <b>nem</b> egyeznek meg.</p>","null","","","","feedback trial","",""
"html-button-response-esp","71","447758","0.0-11.0-0.30","4535","Te bizony sokat píjlasz. Én is sokat...","0","píjlok","[""píjlok"",""píjlom""]","píjlom","esp trial","7","false"
"html-button-response","72","451270","0.0-11.0-1.30","null","<p>A másik játékos ezt választotta: <b>píjlom</b>.</p><p>&#10060;</p><p>A válaszaitok <b>nem</b> egyeznek meg.</p>","null","","","","feedback trial","",""
"html-button-response-esp","73","458148","0.0-11.0-0.31","2510","Te bizony sokat sztrijzol. Én is sokat...","0","sztrijzom","[""sztrijzom"",""sztrijzok""]","sztrijzom","esp trial","7","true"
"html-button-response","74","461664","0.0-11.0-1.31","null","<p>A másik játékos ezt választotta: <b>sztrijzom</b>.</p><p>&#x2705;</p><p>A te válaszod és a másik játékos válasza <b>megegyeznek</b>.</p>","null","","","","feedback trial","",""
"html-button-response-esp","75","468531","0.0-11.0-0.32","5711","Te bizony sokat tragzol. Én is sokat...","0","tragzom","[""tragzom"",""tragzok""]","tragzom","esp trial","7","true"
"html-button-response","76","472060","0.0-11.0-1.32","null","<p>A másik játékos ezt választotta: <b>tragzom</b>.</p><p>&#x2705;</p><p>A te válaszod és a másik játékos válasza <b>megegyeznek</b>.</p>","null","","","","feedback trial","",""
"html-button-response-esp","77","478917","0.0-11.0-0.33","3379","Te bizony sokat spihegzel. Én is sokat...","1","spihegzem","[""spihegzek"",""spihegzem""]","spihegzem","esp trial","7","true"
"html-button-response","78","482437","0.0-11.0-1.33","null","<p>A másik játékos ezt választotta: <b>spihegzem</b>.</p><p>&#x2705;</p><p>A te válaszod és a másik játékos válasza <b>megegyeznek</b>.</p>","null","","","","feedback trial","",""
"html-button-response-esp","79","489315","0.0-11.0-0.34","5437","Te bizony sokat narádzol. Én is sokat...","1","narádzom","[""narádzok"",""narádzom""]","narádzom","esp trial","7","true"
"html-button-response","80","492837","0.0-11.0-1.34","null","<p>A másik játékos ezt választotta: <b>narádzom</b>.</p><p>&#x2705;</p><p>A te válaszod és a másik játékos válasza <b>megegyeznek</b>.</p>","null","","","","feedback trial","",""
"html-button-response-esp","81","499725","0.0-11.0-0.35","5204","Te bizony sokat treglesz. Én is sokat...","0","treglek","[""treglek"",""treglem""]","treglek","esp trial","7","true"
"html-button-response","82","503245","0.0-11.0-1.35","null","<p>A másik játékos ezt választotta: <b>treglek</b>.</p><p>&#x2705;</p><p>A te válaszod és a másik játékos válasza <b>megegyeznek</b>.</p>","null","","","","feedback trial","",""
"html-button-response-esp","83","510107","0.0-11.0-0.36","5788","Te bizony sokat flehékszel. Én is sokat...","0","flehékszem","[""flehékszem"",""flehékszek""]","flehékszem","esp trial","7","true"
"html-button-response","84","513613","0.0-11.0-1.36","null","<p>A másik játékos ezt választotta: <b>flehékszem</b>.</p><p>&#x2705;</p><p>A te válaszod és a másik játékos válasza <b>megegyeznek</b>.</p>","null","","","","feedback trial","",""
"html-button-response-esp","85","524987","0.0-11.0-0.37","10869","Te bizony sokat hurjorzol. Én is sokat...","1","hurjorzok","[""hurjorzom"",""hurjorzok""]","hurjorzom","esp trial","7","false"
"html-button-response","86","528509","0.0-11.0-1.37","null","<p>A másik játékos ezt választotta: <b>hurjorzom</b>.</p><p>&#10060;</p><p>A válaszaitok <b>nem</b> egyeznek meg.</p>","null","","","","feedback trial","",""
"html-button-response-esp","87","536149","0.0-11.0-0.38","7135","Te bizony sokat huroslasz. Én is sokat...","0","huroslok","[""huroslok"",""huroslom""]","huroslok","esp trial","7","true"
"html-button-response","88","539669","0.0-11.0-1.38","null","<p>A másik játékos ezt választotta: <b>huroslok</b>.</p><p>&#x2705;</p><p>A te válaszod és a másik játékos válasza <b>megegyeznek</b>.</p>","null","","","","feedback trial","",""
"html-button-response-esp","89","546526","0.0-11.0-0.39","3689","Te bizony sokat jonylasz. Én is sokat...","1","jonylok","[""jonylom"",""jonylok""]","jonylok","esp trial","7","true"
"html-button-response","90","550045","0.0-11.0-1.39","null","<p>A másik játékos ezt választotta: <b>jonylok</b>.</p><p>&#x2705;</p><p>A te válaszod és a másik játékos válasza <b>megegyeznek</b>.</p>","null","","","","feedback trial","",""
"html-button-response-esp","91","559172","0.0-11.0-0.40","8621","Te bizony sokat lörűdzöl. Én is sokat...","1","lörűdzöm","[""lörűdzök"",""lörűdzöm""]","lörűdzöm","esp trial","7","true"
"html-button-response","92","562705","0.0-11.0-1.40","null","<p>A másik játékos ezt választotta: <b>lörűdzöm</b>.</p><p>&#x2705;</p><p>A te válaszod és a másik játékos válasza <b>megegyeznek</b>.</p>","null","","","","feedback trial","",""
"html-button-response-esp","93","569565","0.0-11.0-0.41","4038","Te bizony sokat spüjzöl. Én is sokat...","1","spüjzök","[""spüjzöm"",""spüjzök""]","spüjzök","esp trial","7","true"
"html-button-response","94","573093","0.0-11.0-1.41","null","<p>A másik játékos ezt választotta: <b>spüjzök</b>.</p><p>&#x2705;</p><p>A te válaszod és a másik játékos válasza <b>megegyeznek</b>.</p>","null","","","","feedback trial","",""
"html-button-response-esp","95","579964","0.0-11.0-0.42","5945","Te bizony sokat prínylasz. Én is sokat...","1","prínylok","[""prínylom"",""prínylok""]","prínylom","esp trial","7","false"
"html-button-response","96","583478","0.0-11.0-1.42","null","<p>A másik játékos ezt választotta: <b>prínylom</b>.</p><p>&#10060;</p><p>A válaszaitok <b>nem</b> egyeznek meg.</p>","null","","","","feedback trial","",""
"html-button-response-esp","97","590333","0.0-11.0-0.43","4096","Te bizony sokat filágzol. Én is sokat...","1","filágzom","[""filágzok"",""filágzom""]","filágzom","esp trial","7","true"
"html-button-response","98","593853","0.0-11.0-1.43","null","<p>A másik játékos ezt választotta: <b>filágzom</b>.</p><p>&#x2705;</p><p>A te válaszod és a másik játékos válasza <b>megegyeznek</b>.</p>","null","","","","feedback trial","",""
"html-button-response-esp","99","614701","0.0-11.0-0.44","20343","Te bizony sokat klivaslasz. Én is sokat...","0","klivaslom","[""klivaslom"",""klivaslok""]","klivaslok","esp trial","7","false"
"html-button-response","100","618221","0.0-11.0-1.44","null","<p>A másik játékos ezt választotta: <b>klivaslok</b>.</p><p>&#10060;</p><p>A válaszaitok <b>nem</b> egyeznek meg.</p>","null","","","","feedback trial","",""
"html-button-response-esp","101","629759","0.0-11.0-0.45","11021","Te bizony sokat brobódzol. Én is sokat...","1","brobódzok","[""brobódzom"",""brobódzok""]","brobódzom","esp trial","7","false"
"html-button-response","102","633269","0.0-11.0-1.45","null","<p>A másik játékos ezt választotta: <b>brobódzom</b>.</p><p>&#10060;</p><p>A válaszaitok <b>nem</b> egyeznek meg.</p>","null","","","","feedback trial","",""
"html-button-response-esp","103","651390","0.0-11.0-0.46","17610","Te bizony sokat pítszol. Én is sokat...","1","pítszom","[""pítszok"",""pítszom""]","pítszom","esp trial","7","true"
"html-button-response","104","654911","0.0-11.0-1.46","null","<p>A másik játékos ezt választotta: <b>pítszom</b>.</p><p>&#x2705;</p><p>A te válaszod és a másik játékos válasza <b>megegyeznek</b>.</p>","null","","","","feedback trial","",""
"html-button-response-esp","105","661765","0.0-11.0-0.47","3237","Te bizony sokat flűmlesz. Én is sokat...","1","flűmlök","[""flűmlöm"",""flűmlök""]","flűmlök","esp trial","7","true"
"html-button-response","106","665276","0.0-11.0-1.47","null","<p>A másik játékos ezt választotta: <b>flűmlök</b>.</p><p>&#x2705;</p><p>A te válaszod és a másik játékos válasza <b>megegyeznek</b>.</p>","null","","","","feedback trial","",""
"html-button-response-esp","107","672148","0.0-11.0-0.48","5150","Te bizony sokat plűbzöl. Én is sokat...","0","plűbzök","[""plűbzök"",""plűbzöm""]","plűbzöm","esp trial","7","false"
"html-button-response","108","675662","0.0-11.0-1.48","null","<p>A másik játékos ezt választotta: <b>plűbzöm</b>.</p><p>&#10060;</p><p>A válaszaitok <b>nem</b> egyeznek meg.</p>","null","","","","feedback trial","",""
"html-button-response-esp","109","682535","0.0-11.0-0.49","3427","Te bizony sokat szibánylasz. Én is sokat...","1","szibánylok","[""szibánylom"",""szibánylok""]","szibánylok","esp trial","7","true"
"html-button-response","110","686061","0.0-11.0-1.49","null","<p>A másik játékos ezt választotta: <b>szibánylok</b>.</p><p>&#x2705;</p><p>A te válaszod és a másik játékos válasza <b>megegyeznek</b>.</p>","null","","","","feedback trial","",""
"html-button-response-esp","111","692932","0.0-11.0-0.50","6321","Te bizony sokat spülűdzöl. Én is sokat...","1","spülűdzök","[""spülűdzöm"",""spülűdzök""]","spülűdzöm","esp trial","7","false"
"html-button-response","112","696445","0.0-11.0-1.50","null","<p>A másik játékos ezt választotta: <b>spülűdzöm</b>.</p><p>&#10060;</p><p>A válaszaitok <b>nem</b> egyeznek meg.</p>","null","","","","feedback trial","",""
"html-button-response-esp","113","703302","0.0-11.0-0.51","4717","Te bizony sokat vülődzöl. Én is sokat...","0","vülődzök","[""vülődzök"",""vülődzöm""]","vülődzöm","esp trial","7","false"
"html-button-response","114","706806","0.0-11.0-1.51","null","<p>A másik játékos ezt választotta: <b>vülődzöm</b>.</p><p>&#10060;</p><p>A válaszaitok <b>nem</b> egyeznek meg.</p>","null","","","","feedback trial","",""
"html-button-response-esp","115","713887","0.0-11.0-0.52","6564","Te bizony sokat frodlasz. Én is sokat...","1","frodlok","[""frodlom"",""frodlok""]","frodlom","esp trial","7","false"
"html-button-response","116","717408","0.0-11.0-1.52","null","<p>A másik játékos ezt választotta: <b>frodlom</b>.</p><p>&#10060;</p><p>A válaszaitok <b>nem</b> egyeznek meg.</p>","null","","","","feedback trial","",""
"html-button-response-esp","117","724270","0.0-11.0-0.53","3495","Te bizony sokat spröbzöl. Én is sokat...","0","spröbzöm","[""spröbzöm"",""spröbzök""]","spröbzöm","esp trial","7","true"
"html-button-response","118","727788","0.0-11.0-1.53","null","<p>A másik játékos ezt választotta: <b>spröbzöm</b>.</p><p>&#x2705;</p><p>A te válaszod és a másik játékos válasza <b>megegyeznek</b>.</p>","null","","","","feedback trial","",""
"html-button-response","119","737184","0.0-12.0","8877","<p>A közös játék most véget ért.</p><p>Mielőtt eláruljuk a végső pontszámodat, arra kérlek, játszd a szóválasztós játékot néhány percig egyedül is.</p><p>A feladatod ugyanaz lesz, választani két lehetőség közül.</p><p>Most viszont egyedül kell döntened, hogy te melyiket választanád.</p>","0","","","","","",""
"html-button-response-clever","120","741679","0.0-13.0-0.0","3978","Te bizony sokat fivénylesz. Én is sokat...","1","fivénylek","[""fivénylem"",""fivénylek""]","","posttest trial","8",""
"html-button-response-clever","121","745893","0.0-13.0-0.1","3698","Te bizony sokat spírzol. Én is sokat...","1","spírzom","[""spírzok"",""spírzom""]","","posttest trial","8",""
"html-button-response-clever","122","748751","0.0-13.0-0.2","2342","Te bizony sokat trihagzol. Én is sokat...","0","trihagzom","[""trihagzom"",""trihagzok""]","","posttest trial","8",""
"html-button-response-clever","123","753856","0.0-13.0-0.3","4596","Te bizony sokat sztruglasz. Én is sokat...","1","sztruglok","[""sztruglom"",""sztruglok""]","","posttest trial","8",""
"html-button-response-clever","124","757661","0.0-13.0-0.4","3303","Te bizony sokat spélszel. Én is sokat...","0","spélszem","[""spélszem"",""spélszek""]","","posttest trial","8",""
"html-button-response-clever","125","763044","0.0-13.0-0.5","4865","Te bizony sokat kumlasz. Én is sokat...","0","kumlok","[""kumlok"",""kumlom""]","","posttest trial","8",""
"html-button-response-clever","126","771822","0.0-13.0-0.6","8272","Te bizony sokat sprálszol. Én is sokat...","0","sprálszok","[""sprálszok"",""sprálszom""]","","posttest trial","8",""
"html-button-response-clever","127","775897","0.0-13.0-0.7","3571","Te bizony sokat spülöklesz. Én is sokat...","0","spülöklöm","[""spülöklöm"",""spülöklök""]","","posttest trial","8",""
"html-button-response-clever","128","780205","0.0-13.0-0.8","3796","Te bizony sokat klidlasz. Én is sokat...","0","klidlok","[""klidlok"",""klidlom""]","","posttest trial","8",""
"html-button-response-clever","129","785411","0.0-13.0-0.9","4700","Te bizony sokat csólorzol. Én is sokat...","1","csólorzok","[""csólorzom"",""csólorzok""]","","posttest trial","8",""
"html-button-response-clever","130","792045","0.0-13.0-0.10","6122","Te bizony sokat mékszel. Én is sokat...","1","mékszem","[""mékszek"",""mékszem""]","","posttest trial","8",""
"html-button-response-clever","131","795463","0.0-13.0-0.11","2903","Te bizony sokat prohódzol. Én is sokat...","1","prohódzok","[""prohódzom"",""prohódzok""]","","posttest trial","8",""
"html-button-response-clever","132","800754","0.0-13.0-0.12","4789","Te bizony sokat drügzöl. Én is sokat...","0","drügzök","[""drügzök"",""drügzöm""]","","posttest trial","8",""
"html-button-response-clever","133","805466","0.0-13.0-0.13","4190","Te bizony sokat spibádzol. Én is sokat...","1","spibádzok","[""spibádzom"",""spibádzok""]","","posttest trial","8",""
"html-button-response-clever","134","824189","0.0-13.0-0.14","18206","Te bizony sokat spülőrzöl. Én is sokat...","1","spülőrzök","[""spülőrzöm"",""spülőrzök""]","","posttest trial","8",""
"html-button-response-clever","135","828247","0.0-13.0-0.15","3545","Te bizony sokat plövőrzöl. Én is sokat...","0","plövőrzök","[""plövőrzök"",""plövőrzöm""]","","posttest trial","8",""
"html-button-response-clever","136","832050","0.0-13.0-0.16","3292","Te bizony sokat pugoslasz. Én is sokat...","0","pugoslok","[""pugoslok"",""pugoslom""]","","posttest trial","8",""
"html-button-response-clever","137","834832","0.0-13.0-0.17","2276","Te bizony sokat prihekszel. Én is sokat...","1","prihekszem","[""prihekszek"",""prihekszem""]","","posttest trial","8",""
"html-button-response-clever","138","838438","0.0-13.0-0.18","3093","Te bizony sokat bivejlesz. Én is sokat...","0","bivejlek","[""bivejlek"",""bivejlem""]","","posttest trial","8",""
"html-button-response-clever","139","842937","0.0-13.0-0.19","3990","Te bizony sokat sprédlesz. Én is sokat...","0","sprédlek","[""sprédlek"",""sprédlem""]","","posttest trial","8",""
"html-button-response-clever","140","847462","0.0-13.0-0.20","4009","Te bizony sokat klárzol. Én is sokat...","0","klárzok","[""klárzok"",""klárzom""]","","posttest trial","8",""
"html-button-response-clever","141","852709","0.0-13.0-0.21","4735","Te bizony sokat flérlesz. Én is sokat...","0","flérlek","[""flérlek"",""flérlem""]","","posttest trial","8",""
"html-button-response-clever","142","858163","0.0-13.0-0.22","4942","Te bizony sokat szűslesz. Én is sokat...","1","szűslök","[""szűslöm"",""szűslök""]","","posttest trial","8",""
"html-button-response-clever","143","862937","0.0-13.0-0.23","4267","Te bizony sokat táklasz. Én is sokat...","0","táklok","[""táklok"",""táklom""]","","posttest trial","8",""
"html-button-response-clever","144","871773","0.0-13.0-0.24","8323","Te bizony sokat zödlesz. Én is sokat...","0","zödlöm","[""zödlöm"",""zödlök""]","","posttest trial","8",""
"html-button-response-clever","145","876060","0.0-13.0-0.25","3769","Te bizony sokat livaklasz. Én is sokat...","1","livaklom","[""livaklok"",""livaklom""]","","posttest trial","8",""
"html-button-response-clever","146","885135","0.0-13.0-0.26","8561","Te bizony sokat gyibakszol. Én is sokat...","1","gyibakszom","[""gyibakszok"",""gyibakszom""]","","posttest trial","8",""
"html-button-response-clever","147","889612","0.0-13.0-0.27","3961","Te bizony sokat péleslesz. Én is sokat...","0","péleslek","[""péleslek"",""péleslem""]","","posttest trial","8",""
"html-button-response-clever","148","895990","0.0-13.0-0.28","5862","Te bizony sokat aglasz. Én is sokat...","0","aglok","[""aglok"",""aglom""]","","posttest trial","8",""
"html-button-response-clever","149","900117","0.0-13.0-0.29","3609","Te bizony sokat brarlasz. Én is sokat...","0","brarlok","[""brarlok"",""brarlom""]","","posttest trial","8",""
"html-button-response-clever","150","905277","0.0-13.0-0.30","4655","Te bizony sokat préleglesz. Én is sokat...","0","préleglek","[""préleglek"",""préleglem""]","","posttest trial","8",""
"html-button-response-clever","151","912366","0.0-13.0-0.31","6579","Te bizony sokat gyivádzol. Én is sokat...","0","gyivádzok","[""gyivádzok"",""gyivádzom""]","","posttest trial","8",""
"html-button-response-clever","152","917255","0.0-13.0-0.32","4385","Te bizony sokat lihadzol. Én is sokat...","0","lihadzok","[""lihadzok"",""lihadzom""]","","posttest trial","8",""
"html-button-response-clever","153","923646","0.0-13.0-0.33","5876","Te bizony sokat vihepszel. Én is sokat...","1","vihepszem","[""vihepszek"",""vihepszem""]","","posttest trial","8",""
"html-button-response-clever","154","927479","0.0-13.0-0.34","3318","Te bizony sokat prezlesz. Én is sokat...","0","prezlek","[""prezlek"",""prezlem""]","","posttest trial","8",""
"html-button-response-clever","155","931178","0.0-13.0-0.35","3183","Te bizony sokat floglasz. Én is sokat...","0","floglok","[""floglok"",""floglom""]","","posttest trial","8",""
"html-button-response-clever","156","936234","0.0-13.0-0.36","4541","Te bizony sokat plágadzol. Én is sokat...","0","plágadzom","[""plágadzom"",""plágadzok""]","","posttest trial","8",""
"html-button-response-clever","157","940135","0.0-13.0-0.37","3384","Te bizony sokat spüszlesz. Én is sokat...","0","spüszlök","[""spüszlök"",""spüszlöm""]","","posttest trial","8",""
"html-button-response-clever","158","944929","0.0-13.0-0.38","4287","Te bizony sokat ibáglasz. Én is sokat...","0","ibáglok","[""ibáglok"",""ibáglom""]","","posttest trial","8",""
"html-button-response-clever","159","957086","0.0-13.0-0.39","11635","Te bizony sokat gilárzol. Én is sokat...","0","gilárzok","[""gilárzok"",""gilárzom""]","","posttest trial","8",""
"html-button-response-clever","160","961156","0.0-13.0-0.40","3557","Te bizony sokat gerénylesz. Én is sokat...","1","gerénylek","[""gerénylem"",""gerénylek""]","","posttest trial","8",""
"html-button-response-clever","161","965894","0.0-13.0-0.41","4221","Te bizony sokat friszlasz. Én is sokat...","0","friszlok","[""friszlok"",""friszlom""]","","posttest trial","8",""
"html-button-response-clever","162","978249","0.0-13.0-0.42","11835","Te bizony sokat tuboklasz. Én is sokat...","0","tuboklok","[""tuboklok"",""tuboklom""]","","posttest trial","8",""
"html-button-response-clever","163","991160","0.0-13.0-0.43","12399","Te bizony sokat frágapszol. Én is sokat...","0","frágapszom","[""frágapszom"",""frágapszok""]","","posttest trial","8",""
"html-button-response-clever","164","1000267","0.0-13.0-0.44","8592","Te bizony sokat huklasz. Én is sokat...","0","huklok","[""huklok"",""huklom""]","","posttest trial","8",""
"html-button-response-clever","165","1004977","0.0-13.0-0.45","4195","Te bizony sokat spatszol. Én is sokat...","1","spatszom","[""spatszok"",""spatszom""]","","posttest trial","8",""
"html-button-response-clever","166","1011362","0.0-13.0-0.46","5868","Te bizony sokat praslasz. Én is sokat...","0","praslok","[""praslok"",""praslom""]","","posttest trial","8",""
"html-button-response-clever","167","1015397","0.0-13.0-0.47","3522","Te bizony sokat flözlesz. Én is sokat...","1","flözlök","[""flözlöm"",""flözlök""]","","posttest trial","8",""
"html-button-response-clever","168","1018576","0.0-13.0-0.48","2662","Te bizony sokat fligzol. Én is sokat...","0","fligzok","[""fligzok"",""fligzom""]","","posttest trial","8",""
"html-button-response-clever","169","1024332","0.0-13.0-0.49","5242","Te bizony sokat frivajlasz. Én is sokat...","1","frivajlok","[""frivajlom"",""frivajlok""]","","posttest trial","8",""
"html-button-response-clever","170","1027651","0.0-13.0-0.50","2814","Te bizony sokat fliraklasz. Én is sokat...","0","fliraklom","[""fliraklom"",""fliraklok""]","","posttest trial","8",""
"html-button-response-clever","171","1031295","0.0-13.0-0.51","3127","Te bizony sokat flibekszel. Én is sokat...","1","flibekszem","[""flibekszek"",""flibekszem""]","","posttest trial","8",""
"html-button-response-clever","172","1048438","0.0-13.0-0.52","16638","Te bizony sokat féjzel. Én is sokat...","1","féjzek","[""féjzem"",""féjzek""]","","posttest trial","8",""
"html-button-response-clever","173","1052297","0.0-13.0-0.53","3346","Te bizony sokat vűjlesz. Én is sokat...","0","vűjlök","[""vűjlök"",""vűjlöm""]","","posttest trial","8",""
"html-button-response","174","1060653","0.0-14.0","7841","<p> Vége a játéknak. A teljes pontszámod 37/54.</p><p> Szép munka! &#128526;&#128526;&#128526;</p><p>A Befejezés gomb megnyomása után bezárhatod a böngészőablakot.</p>","0","","","","","",""
"html-keyboard-response","175","1066181","0.0-15.0","null","<div class=""message"">
         <p>Egy kis türelmet kérünk, amíg elmentjük az adatokat...</p>
         </div>","null","","","","","",""
