"trial_type","trial_index","time_elapsed","internal_node_id","rt","stimulus","response","response_string","choices","esp_response","trial_kind","list_number","esp_match"
"pavlovia","0","954","0.0-0.0","","","","","","","","",""
"html-button-response","1","29022","0.0-1.0","27556","<p>Kedves Résztvevő! A Budapesti Műszaki és Gazdaságtudományi Egyetem Kognitív Tudományi Tanszékének kutatásában való részvételed kérjük. A kutatásban azt vizsgáljuk, hogy a magyar anyanyelvűek hogyan használnak bizonyos szóalakokat, és hogy milyen képük van arról, hogy mások hogyan használják, hogyan képzik a szavakat. Ez hozzásegít bennünket ahhoz, hogy jobban megértsük, hogyan dolgozza fel és tárolja a nyelvet az emberi agy, és hogyan működnek, hogyan változnak egy adott közösség nyelvi konvenciói.</p><p>A vizsgálat egy rövid számítógépes feladatból fog állni. A kutatásban való részvétel önkéntes, a részvételi szándék bármikor visszavonható. A résztvevők eredményeit név nélkül kezeljük, így nem beazonosíthatók az adatok feldolgozása során. Minden személyes adatot az EU általános adatvédelmi rendeletének (GDPR) megfelelően kezelünk és legfeljebb öt éven belül megsemmisítünk. A vizsgálat jellemzően húsz percet vesz igénybe.</p><p>Kutatásvezető:</p><p>Dr. Rácz Péter, tudományos munkatárs, BME KTT</p><p>e-mail: racz.peter.marton@ttk.bme.hu</p>","0","","","","","",""
"html-button-response","2","49235","0.0-2.0","19706","<p>A kísérletben szavakat fogsz látni. Ezek között lesznek olyanok, amelyeket ismersz, de előfordulhatnak olyanok is, amelyeket nem ismersz, sőt, vannak köztük kitalált szavak is. Minden szónál látni fogsz toldalékolt alakokat. A te feladatod az lesz, hogy minden szóhoz kiválaszd azt a toldalékolt alakot, amely a te számodra ismerősebben, természetesebben hangzik. Rossz válaszok nincsenek, mert van olyan, hogy különböző embereknek más és más szó tűnik jobb választásnak. A választ úgy tudod majd kiválasztani, ha rákattintasz.</p><p>Ebben a szóválasztós játékban egy másik játékossal együtt veszel majd részt. A másik játékos is minden esetben azok közül a lehetőségek közül válogathat, mint te. Kettőtök feladata az, hogy ugyanazt a lehetőséget válasszátok minden esetben. Ahhoz, hogy ez sikerüljön, neked figyelned kell arra, hogy a másik játékos milyen válaszokat ad, és ennek alapján meg kell tippelned, hogyan választ legközelebb. Ha eltalálod, akkor pontot kapsz.</p>","0","","","","","",""
"html-button-response","3","67817","0.0-3.0","18072","<p>Kérjük, olvasd el az alábbi nyilatkozatot, és amennyiben egyetértesz vele, nyomj a Beleegyezés gombra!</p><p>Kijelentem, hogy magyar anyanyelvű személyként önként veszek részt a BME KTT kísérletében. A kutatás céljával és folyamatával kapcsolatban elegendő tájékoztatást kaptam, lehetőségem volt kérdések feltételére, és esetleges kérdéseimre megfelelő válaszokat kaptam. A tájékoztatás alapján elegendő mennyiségű információ áll a rendelkezésemre, hogy eldönthessem, részt kívánok-e venni a kutatásban.</p><p>Tisztában vagyok vele, hogy részvételi szándékomat és adataimat bármikor, indoklás nélkül visszavonhatom.</p><p>Értem és tudomásul veszem, hogy a kutatás tudományos célokat szolgál, és az általam szolgáltatott adatokat a BME kizárólag kutatási célból használja fel. Tudomásul veszem, hogy eredményeimet a többi résztvevő eredményeivel együtt kezelik, így egyéni teljesítményemről visszajelzést, szakvéleményt nem kapok.</p><p>Megértettem, hogy adataim kezelését illetően a BME az EU általános adatvédelmi rendelete (GDPR), a hatályos adatvédelmi törvény és a nemzetközi kutatás-etikai alapelvek szerint jár el. Eredményeim anonim módon kerülnek feldolgozásra, és a kutatás résztvevői az azonosításomra alkalmas adataimat harmadik félnek nem szolgáltatják ki. Engedélyezem a BME számára a jelen kutatásban felvett adataim feldolgozását és tárolását, beleértve azok későbbi kutatásokhoz való felhasználását is. Személyes adataim kezelésével kapcsolatban tájékoztatást kérhetek a kutatás résztvevőitől, az adatkezelés ellen tiltakozhatok, kérhetem személyes adataim helyesbítését, törlését vagy zárolását, valamint jogorvoslatért a Nemzeti Adatvédelmi és Információszabadság Hatósághoz fordulhatok.</p><p>Kijelentem, hogy a kutatásban való részvételem körülményeiről részletes tájékoztatást kaptam, és a feltételeket elfogadom.</p>","0","","","","","",""
"survey-text","4","104538","0.0-4.0","36200","","{""Q0"":""R4EK2O"",""Q1"":""nő"",""Q2"":""1978"",""Q3"":""19""}","","","","","",""
"html-button-response","5","119359","0.0-5.0","14298","<p>Ebben a játékban szavakat kell toldalékolni.</p> <p>Minden körben mutatunk majd egy példamondatot, amiben lesz egy szó.</p> <p>Alatta jön egy második mondat, ezt a mondatot neked kell majd befejezni, ugyanezzel a szóval.</p> <p>Nem biztos, hogy a szó eleve ismerős lesz számodra!</p> <p>Minden mondathoz adunk két lehetőséget, ezeket balra és jobbra látod majd.</p> <p>A játék kb. negyedóráig-húsz percig tart.</p>","0","","","","","",""
"html-button-response","6","136895","0.0-6.0","17022","<p>Nézzünk egy példát!</p> <p>A példamondat: ""Ez itt egy blumbnyeg.""</p><p>Neked ezt a mondatot kell befejezned: ""Ott vagyunk a...""</p><p>A lehetőségek pedig ezek:</p>","1","","","","","",""
"html-button-response","7","143049","0.0-7.0","5647","<p>Nagyon jó.</p><p>Ezt a játékot nem egyedül fogod játszani, hanem egy másik játékossal.</p><p>Mielőtt továbblépünk, összekapcsolunk titeket egymással.</p><p>Ez igénybe vehet néhány másodpercet, amihez szíves türelmed kérjük.</p>","0","","","","","",""
"html-button-response","8","148793","0.0-8.0","null","<p>Csatlakozás a másik játékoshoz...</p>","null","","","","","",""
"html-button-response","9","151315","0.0-9.0","null","<p> Sikeres kapcsolódás!</p>","null","","","","","",""
"html-button-response","10","159713","0.0-10.0","7897","<p>A következőkben ketten játsszátok a szóválasztós játékot.</p><p>A feladatotok az lesz, hogy minden körben <b>ugyanazt</b> a szót válasszátok.</p><p>Minden ilyen egyező válaszért pontot kaptok.</p><p>Próbáld meg kitalálni, mit választ a másik játékos!</p><p>Bármikor választhatsz, a körnek akkor van vége, ha mindketten döntöttetek.</p><p>Sok sikert!</p>","0","","","","","",""
"html-button-response-esp","11","167467","0.0-11.0-0.0","7248","Ez itt egy pivéd. Ott vagyunk a...","1","pivédben","[""pivédban"",""pivédben""]","pivédban","esp trial","1","false"
"html-button-response","12","170992","0.0-11.0-1.0","null","<p>A másik játékos ezt választotta: <b>pivédban</b>.</p><p>&#10060;</p><p>A válaszaitok <b>nem</b> egyeznek meg.</p>","null","","","","feedback trial","",""
"html-button-response-esp","13","177848","0.0-11.0-0.1","5210","Ez itt egy dalenc. Nincs is jobb egy jó...","1","dalencnál","[""dalencnél"",""dalencnál""]","dalencnál","esp trial","1","true"
"html-button-response","14","181368","0.0-11.0-1.1","null","<p>A másik játékos ezt választotta: <b>dalencnál</b>.</p><p>&#x2705;</p><p>A te válaszod és a másik játékos válasza <b>megegyeznek</b>.</p>","null","","","","feedback trial","",""
"html-button-response-esp","15","188236","0.0-11.0-0.2","5100","Ez itt egy zsigén. Nincs is jobb egy jó...","0","zsigénnél","[""zsigénnél"",""zsigénnál""]","zsigénnél","esp trial","1","true"
"html-button-response","16","191749","0.0-11.0-1.2","null","<p>A másik játékos ezt választotta: <b>zsigénnél</b>.</p><p>&#x2705;</p><p>A te válaszod és a másik játékos válasza <b>megegyeznek</b>.</p>","null","","","","feedback trial","",""
"html-button-response-esp","17","198622","0.0-11.0-0.3","3712","Ez itt egy zopély. Nincs is jobb egy jó...","1","zopélynél","[""zopélynál"",""zopélynél""]","zopélynál","esp trial","1","false"
"html-button-response","18","202134","0.0-11.0-1.3","null","<p>A másik játékos ezt választotta: <b>zopélynál</b>.</p><p>&#10060;</p><p>A válaszaitok <b>nem</b> egyeznek meg.</p>","null","","","","feedback trial","",""
"html-button-response-esp","19","212389","0.0-11.0-0.4","9754","Ez itt egy kaszép. Elneveztem a kutyámat...","1","kaszépnak","[""kaszépnek"",""kaszépnak""]","kaszépnak","esp trial","1","true"
"html-button-response","20","215915","0.0-11.0-1.4","null","<p>A másik játékos ezt választotta: <b>kaszépnak</b>.</p><p>&#x2705;</p><p>A te válaszod és a másik játékos válasza <b>megegyeznek</b>.</p>","null","","","","feedback trial","",""
"html-button-response-esp","21","223399","0.0-11.0-0.5","6980","Ez itt egy monveg. Nincs is jobb egy jó...","1","monvegnál","[""monvegnél"",""monvegnál""]","monvegnál","esp trial","1","true"
"html-button-response","22","226923","0.0-11.0-1.5","null","<p>A másik játékos ezt választotta: <b>monvegnál</b>.</p><p>&#x2705;</p><p>A te válaszod és a másik játékos válasza <b>megegyeznek</b>.</p>","null","","","","feedback trial","",""
"html-button-response-esp","23","233803","0.0-11.0-0.6","3960","Ez itt egy trismél. Elneveztem a kutyámat...","1","trismélnek","[""trismélnak"",""trismélnek""]","trismélnek","esp trial","1","true"
"html-button-response","24","237325","0.0-11.0-1.6","null","<p>A másik játékos ezt választotta: <b>trismélnek</b>.</p><p>&#x2705;</p><p>A te válaszod és a másik játékos válasza <b>megegyeznek</b>.</p>","null","","","","feedback trial","",""
"html-button-response-esp","25","244178","0.0-11.0-0.7","4864","Ez itt egy incéj. Elneveztem a kutyámat...","1","incéjnak","[""incéjnek"",""incéjnak""]","incéjnek","esp trial","1","false"
"html-button-response","26","247688","0.0-11.0-1.7","null","<p>A másik játékos ezt választotta: <b>incéjnek</b>.</p><p>&#10060;</p><p>A válaszaitok <b>nem</b> egyeznek meg.</p>","null","","","","feedback trial","",""
"html-button-response-esp","27","254546","0.0-11.0-0.8","3908","Ez itt egy kalhész. Elneveztem a kutyámat...","1","kalhésznek","[""kalhésznak"",""kalhésznek""]","kalhésznak","esp trial","1","false"
"html-button-response","28","258062","0.0-11.0-1.8","null","<p>A másik játékos ezt választotta: <b>kalhésznak</b>.</p><p>&#10060;</p><p>A válaszaitok <b>nem</b> egyeznek meg.</p>","null","","","","feedback trial","",""
"html-button-response-esp","29","264942","0.0-11.0-0.9","4271","Ez itt egy ítens. Ott vagyunk a...","1","ítensben","[""ítensban"",""ítensben""]","ítensban","esp trial","1","false"
"html-button-response","30","268459","0.0-11.0-1.9","null","<p>A másik játékos ezt választotta: <b>ítensban</b>.</p><p>&#10060;</p><p>A válaszaitok <b>nem</b> egyeznek meg.</p>","null","","","","feedback trial","",""
"html-button-response-esp","31","275324","0.0-11.0-0.10","4416","Ez itt egy zsúdel. Elneveztem a kutyámat...","1","zsúdelnak","[""zsúdelnek"",""zsúdelnak""]","zsúdelnak","esp trial","1","true"
"html-button-response","32","278851","0.0-11.0-1.10","null","<p>A másik játékos ezt választotta: <b>zsúdelnak</b>.</p><p>&#x2705;</p><p>A te válaszod és a másik játékos válasza <b>megegyeznek</b>.</p>","null","","","","feedback trial","",""
"html-button-response-esp","33","285715","0.0-11.0-0.11","4232","Ez itt egy kalréz. Ott vagyunk a...","0","kalrézben","[""kalrézben"",""kalrézban""]","kalrézban","esp trial","1","false"
"html-button-response","34","289226","0.0-11.0-1.11","null","<p>A másik játékos ezt választotta: <b>kalrézban</b>.</p><p>&#10060;</p><p>A válaszaitok <b>nem</b> egyeznek meg.</p>","null","","","","feedback trial","",""
"html-button-response-esp","35","296083","0.0-11.0-0.12","3939","Ez itt egy rapszek. Nincs is jobb egy jó...","1","rapszeknál","[""rapszeknél"",""rapszeknál""]","rapszeknál","esp trial","1","true"
"html-button-response","36","299610","0.0-11.0-1.12","null","<p>A másik játékos ezt választotta: <b>rapszeknál</b>.</p><p>&#x2705;</p><p>A te válaszod és a másik játékos válasza <b>megegyeznek</b>.</p>","null","","","","feedback trial","",""
"html-button-response-esp","37","306493","0.0-11.0-0.13","3966","Ez itt egy dábegy. Ott vagyunk a...","1","dábegyben","[""dábegyban"",""dábegyben""]","dábegyban","esp trial","1","false"
"html-button-response","38","310022","0.0-11.0-1.13","null","<p>A másik játékos ezt választotta: <b>dábegyban</b>.</p><p>&#10060;</p><p>A válaszaitok <b>nem</b> egyeznek meg.</p>","null","","","","feedback trial","",""
"html-button-response-esp","39","316884","0.0-11.0-0.14","3938","Ez itt egy nyamet. Ott vagyunk a...","1","nyametben","[""nyametban"",""nyametben""]","nyametban","esp trial","1","false"
"html-button-response","40","320400","0.0-11.0-1.14","null","<p>A másik játékos ezt választotta: <b>nyametban</b>.</p><p>&#10060;</p><p>A válaszaitok <b>nem</b> egyeznek meg.</p>","null","","","","feedback trial","",""
"html-button-response-esp","41","327260","0.0-11.0-0.15","5561","Ez itt egy vorszen. Nincs is jobb egy jó...","0","vorszennél","[""vorszennél"",""vorszennál""]","vorszennál","esp trial","1","false"
"html-button-response","42","330782","0.0-11.0-1.15","null","<p>A másik játékos ezt választotta: <b>vorszennál</b>.</p><p>&#10060;</p><p>A válaszaitok <b>nem</b> egyeznek meg.</p>","null","","","","feedback trial","",""
"html-button-response-esp","43","337646","0.0-11.0-0.16","3412","Ez itt egy jóbec. Elneveztem a kutyámat...","1","jóbecnek","[""jóbecnak"",""jóbecnek""]","jóbecnak","esp trial","1","false"
"html-button-response","44","341173","0.0-11.0-1.16","null","<p>A másik játékos ezt választotta: <b>jóbecnak</b>.</p><p>&#10060;</p><p>A válaszaitok <b>nem</b> egyeznek meg.</p>","null","","","","feedback trial","",""
"html-button-response-esp","45","351167","0.0-11.0-0.17","9485","Ez itt egy spanél. Nincs is jobb egy jó...","1","spanélnél","[""spanélnál"",""spanélnél""]","spanélnál","esp trial","1","false"
"html-button-response","46","354685","0.0-11.0-1.17","null","<p>A másik játékos ezt választotta: <b>spanélnál</b>.</p><p>&#10060;</p><p>A válaszaitok <b>nem</b> egyeznek meg.</p>","null","","","","feedback trial","",""
"html-button-response-esp","47","361558","0.0-11.0-0.18","3017","Ez itt egy trájeg. Ott vagyunk a...","1","trájegban","[""trájegben"",""trájegban""]","trájegban","esp trial","1","true"
"html-button-response","48","365071","0.0-11.0-1.18","null","<p>A másik játékos ezt választotta: <b>trájegban</b>.</p><p>&#x2705;</p><p>A te válaszod és a másik játékos válasza <b>megegyeznek</b>.</p>","null","","","","feedback trial","",""
"html-button-response-esp","49","371935","0.0-11.0-0.19","4259","Ez itt egy priszec. Ott vagyunk a...","1","priszecban","[""priszecben"",""priszecban""]","priszecben","esp trial","1","false"
"html-button-response","50","375467","0.0-11.0-1.19","null","<p>A másik játékos ezt választotta: <b>priszecben</b>.</p><p>&#10060;</p><p>A válaszaitok <b>nem</b> egyeznek meg.</p>","null","","","","feedback trial","",""
"html-button-response-esp","51","382334","0.0-11.0-0.20","5894","Ez itt egy garcép. Nincs is jobb egy jó...","1","garcépnél","[""garcépnál"",""garcépnél""]","garcépnál","esp trial","1","false"
"html-button-response","52","385861","0.0-11.0-1.20","null","<p>A másik játékos ezt választotta: <b>garcépnál</b>.</p><p>&#10060;</p><p>A válaszaitok <b>nem</b> egyeznek meg.</p>","null","","","","feedback trial","",""
"html-button-response-esp","53","392726","0.0-11.0-0.21","4540","Ez itt egy klingesz. Ott vagyunk a...","1","klingeszban","[""klingeszben"",""klingeszban""]","klingeszben","esp trial","1","false"
"html-button-response","54","396234","0.0-11.0-1.21","null","<p>A másik játékos ezt választotta: <b>klingeszben</b>.</p><p>&#10060;</p><p>A válaszaitok <b>nem</b> egyeznek meg.</p>","null","","","","feedback trial","",""
"html-button-response-esp","55","403099","0.0-11.0-0.22","2968","Ez itt egy dihely. Elneveztem a kutyámat...","1","dihelynek","[""dihelynak"",""dihelynek""]","dihelynek","esp trial","1","true"
"html-button-response","56","406614","0.0-11.0-1.22","null","<p>A másik játékos ezt választotta: <b>dihelynek</b>.</p><p>&#x2705;</p><p>A te válaszod és a másik játékos válasza <b>megegyeznek</b>.</p>","null","","","","feedback trial","",""
"html-button-response-esp","57","413483","0.0-11.0-0.23","2759","Ez itt egy braszenc. Nincs is jobb egy jó...","1","braszencnél","[""braszencnál"",""braszencnél""]","braszencnál","esp trial","1","false"
"html-button-response","58","416999","0.0-11.0-1.23","null","<p>A másik játékos ezt választotta: <b>braszencnál</b>.</p><p>&#10060;</p><p>A válaszaitok <b>nem</b> egyeznek meg.</p>","null","","","","feedback trial","",""
"html-button-response-esp","59","423858","0.0-11.0-0.24","3229","Ez itt egy fájéz. Ott vagyunk a...","1","fájézben","[""fájézban"",""fájézben""]","fájézban","esp trial","1","false"
"html-button-response","60","427377","0.0-11.0-1.24","null","<p>A másik játékos ezt választotta: <b>fájézban</b>.</p><p>&#10060;</p><p>A válaszaitok <b>nem</b> egyeznek meg.</p>","null","","","","feedback trial","",""
"html-button-response-esp","61","434257","0.0-11.0-0.25","4237","Ez itt egy zsádév. Elneveztem a kutyámat...","1","zsádévnak","[""zsádévnek"",""zsádévnak""]","zsádévnak","esp trial","1","true"
"html-button-response","62","437773","0.0-11.0-1.25","null","<p>A másik játékos ezt választotta: <b>zsádévnak</b>.</p><p>&#x2705;</p><p>A te válaszod és a másik játékos válasza <b>megegyeznek</b>.</p>","null","","","","feedback trial","",""
"html-button-response-esp","63","444635","0.0-11.0-0.26","4434","Ez itt egy hágyét. Elneveztem a kutyámat...","1","hágyétnak","[""hágyétnek"",""hágyétnak""]","hágyétnak","esp trial","1","true"
"html-button-response","64","448156","0.0-11.0-1.26","null","<p>A másik játékos ezt választotta: <b>hágyétnak</b>.</p><p>&#x2705;</p><p>A te válaszod és a másik játékos válasza <b>megegyeznek</b>.</p>","null","","","","feedback trial","",""
"html-button-response-esp","65","455023","0.0-11.0-0.27","3580","Ez itt egy danét. Nincs is jobb egy jó...","1","danétnál","[""danétnél"",""danétnál""]","danétnál","esp trial","1","true"
"html-button-response","66","458542","0.0-11.0-1.27","null","<p>A másik játékos ezt választotta: <b>danétnál</b>.</p><p>&#x2705;</p><p>A te válaszod és a másik játékos válasza <b>megegyeznek</b>.</p>","null","","","","feedback trial","",""
"html-button-response-esp","67","465402","0.0-11.0-0.28","2319","Ez itt egy pijél. Nincs is jobb egy jó...","1","pijélnál","[""pijélnél"",""pijélnál""]","pijélnél","esp trial","1","false"
"html-button-response","68","468912","0.0-11.0-1.28","null","<p>A másik játékos ezt választotta: <b>pijélnél</b>.</p><p>&#10060;</p><p>A válaszaitok <b>nem</b> egyeznek meg.</p>","null","","","","feedback trial","",""
"html-button-response-esp","69","475778","0.0-11.0-0.29","3985","Ez itt egy ronszek. Ott vagyunk a...","1","ronszekben","[""ronszekban"",""ronszekben""]","ronszekban","esp trial","1","false"
"html-button-response","70","479295","0.0-11.0-1.29","null","<p>A másik játékos ezt választotta: <b>ronszekban</b>.</p><p>&#10060;</p><p>A válaszaitok <b>nem</b> egyeznek meg.</p>","null","","","","feedback trial","",""
"html-button-response-esp","71","486158","0.0-11.0-0.30","3290","Ez itt egy darhén. Ott vagyunk a...","1","darhénben","[""darhénban"",""darhénben""]","darhénban","esp trial","1","false"
"html-button-response","72","489689","0.0-11.0-1.30","null","<p>A másik játékos ezt választotta: <b>darhénban</b>.</p><p>&#10060;</p><p>A válaszaitok <b>nem</b> egyeznek meg.</p>","null","","","","feedback trial","",""
"html-button-response-esp","73","496551","0.0-11.0-0.31","3029","Ez itt egy pítend. Ott vagyunk a...","1","pítendben","[""pítendban"",""pítendben""]","pítendben","esp trial","1","true"
"html-button-response","74","500080","0.0-11.0-1.31","null","<p>A másik játékos ezt választotta: <b>pítendben</b>.</p><p>&#x2705;</p><p>A te válaszod és a másik játékos válasza <b>megegyeznek</b>.</p>","null","","","","feedback trial","",""
"html-button-response-esp","75","506938","0.0-11.0-0.32","4087","Ez itt egy tosély. Ott vagyunk a...","1","tosélyban","[""tosélyben"",""tosélyban""]","tosélyban","esp trial","1","true"
"html-button-response","76","510448","0.0-11.0-1.32","null","<p>A másik játékos ezt választotta: <b>tosélyban</b>.</p><p>&#x2705;</p><p>A te válaszod és a másik játékos válasza <b>megegyeznek</b>.</p>","null","","","","feedback trial","",""
"html-button-response-esp","77","517308","0.0-11.0-0.33","4080","Ez itt egy luméz. Ott vagyunk a...","0","lumézben","[""lumézben"",""lumézban""]","lumézban","esp trial","1","false"
"html-button-response","78","520821","0.0-11.0-1.33","null","<p>A másik játékos ezt választotta: <b>lumézban</b>.</p><p>&#10060;</p><p>A válaszaitok <b>nem</b> egyeznek meg.</p>","null","","","","feedback trial","",""
"html-button-response-esp","79","527686","0.0-11.0-0.34","3188","Ez itt egy zsáder. Ott vagyunk a...","1","zsáderben","[""zsáderban"",""zsáderben""]","zsáderban","esp trial","1","false"
"html-button-response","80","531200","0.0-11.0-1.34","null","<p>A másik játékos ezt választotta: <b>zsáderban</b>.</p><p>&#10060;</p><p>A válaszaitok <b>nem</b> egyeznek meg.</p>","null","","","","feedback trial","",""
"html-button-response-esp","81","538053","0.0-11.0-0.35","3960","Ez itt egy bupéz. Ott vagyunk a...","1","bupézban","[""bupézben"",""bupézban""]","bupézban","esp trial","1","true"
"html-button-response","82","541564","0.0-11.0-1.35","null","<p>A másik játékos ezt választotta: <b>bupézban</b>.</p><p>&#x2705;</p><p>A te válaszod és a másik játékos válasza <b>megegyeznek</b>.</p>","null","","","","feedback trial","",""
"html-button-response-esp","83","548434","0.0-11.0-0.36","4585","Ez itt egy sprivenc. Nincs is jobb egy jó...","1","sprivencnél","[""sprivencnál"",""sprivencnél""]","sprivencnél","esp trial","1","true"
"html-button-response","84","551940","0.0-11.0-1.36","null","<p>A másik játékos ezt választotta: <b>sprivencnél</b>.</p><p>&#x2705;</p><p>A te válaszod és a másik játékos válasza <b>megegyeznek</b>.</p>","null","","","","feedback trial","",""
"html-button-response-esp","85","558819","0.0-11.0-0.37","3352","Ez itt egy sortem. Nincs is jobb egy jó...","1","sortemnél","[""sortemnál"",""sortemnél""]","sortemnál","esp trial","1","false"
"html-button-response","86","562337","0.0-11.0-1.37","null","<p>A másik játékos ezt választotta: <b>sortemnál</b>.</p><p>&#10060;</p><p>A válaszaitok <b>nem</b> egyeznek meg.</p>","null","","","","feedback trial","",""
"html-button-response-esp","87","569207","0.0-11.0-0.38","3472","Ez itt egy gúden. Ott vagyunk a...","1","gúdenban","[""gúdenben"",""gúdenban""]","gúdenben","esp trial","1","false"
"html-button-response","88","572718","0.0-11.0-1.38","null","<p>A másik játékos ezt választotta: <b>gúdenben</b>.</p><p>&#10060;</p><p>A válaszaitok <b>nem</b> egyeznek meg.</p>","null","","","","feedback trial","",""
"html-button-response-esp","89","579579","0.0-11.0-0.39","4477","Ez itt egy pisély. Ott vagyunk a...","0","pisélyben","[""pisélyben"",""pisélyban""]","pisélyben","esp trial","1","true"
"html-button-response","90","583086","0.0-11.0-1.39","null","<p>A másik játékos ezt választotta: <b>pisélyben</b>.</p><p>&#x2705;</p><p>A te válaszod és a másik játékos válasza <b>megegyeznek</b>.</p>","null","","","","feedback trial","",""
"html-button-response-esp","91","589949","0.0-11.0-0.40","3465","Ez itt egy brindez. Elneveztem a kutyámat...","0","brindeznek","[""brindeznek"",""brindeznak""]","brindeznek","esp trial","1","true"
"html-button-response","92","593468","0.0-11.0-1.40","null","<p>A másik játékos ezt választotta: <b>brindeznek</b>.</p><p>&#x2705;</p><p>A te válaszod és a másik játékos válasza <b>megegyeznek</b>.</p>","null","","","","feedback trial","",""
"html-button-response-esp","93","600338","0.0-11.0-0.41","3189","Ez itt egy jukél. Nincs is jobb egy jó...","0","jukélnél","[""jukélnél"",""jukélnál""]","jukélnál","esp trial","1","false"
"html-button-response","94","603856","0.0-11.0-1.41","null","<p>A másik játékos ezt választotta: <b>jukélnál</b>.</p><p>&#10060;</p><p>A válaszaitok <b>nem</b> egyeznek meg.</p>","null","","","","feedback trial","",""
"html-button-response-esp","95","610731","0.0-11.0-0.42","4162","Ez itt egy lorzens. Nincs is jobb egy jó...","1","lorzensnál","[""lorzensnél"",""lorzensnál""]","lorzensnál","esp trial","1","true"
"html-button-response","96","614258","0.0-11.0-1.42","null","<p>A másik játékos ezt választotta: <b>lorzensnál</b>.</p><p>&#x2705;</p><p>A te válaszod és a másik játékos válasza <b>megegyeznek</b>.</p>","null","","","","feedback trial","",""
"html-button-response-esp","97","621131","0.0-11.0-0.43","5790","Ez itt egy dorzéj. Elneveztem a kutyámat...","1","dorzéjnak","[""dorzéjnek"",""dorzéjnak""]","dorzéjnak","esp trial","1","true"
"html-button-response","98","624652","0.0-11.0-1.43","null","<p>A másik játékos ezt választotta: <b>dorzéjnak</b>.</p><p>&#x2705;</p><p>A te válaszod és a másik játékos válasza <b>megegyeznek</b>.</p>","null","","","","feedback trial","",""
"html-button-response-esp","99","631517","0.0-11.0-0.44","3942","Ez itt egy kátel. Elneveztem a kutyámat...","1","kátelnak","[""kátelnek"",""kátelnak""]","kátelnak","esp trial","1","true"
"html-button-response","100","635028","0.0-11.0-1.44","null","<p>A másik játékos ezt választotta: <b>kátelnak</b>.</p><p>&#x2705;</p><p>A te válaszod és a másik játékos válasza <b>megegyeznek</b>.</p>","null","","","","feedback trial","",""
"html-button-response-esp","101","641885","0.0-11.0-0.45","3047","Ez itt egy spábét. Ott vagyunk a...","1","spábétben","[""spábétban"",""spábétben""]","spábétban","esp trial","1","false"
"html-button-response","102","645418","0.0-11.0-1.45","null","<p>A másik játékos ezt választotta: <b>spábétban</b>.</p><p>&#10060;</p><p>A válaszaitok <b>nem</b> egyeznek meg.</p>","null","","","","feedback trial","",""
"html-button-response-esp","103","652285","0.0-11.0-0.46","3717","Ez itt egy spumény. Elneveztem a kutyámat...","1","spuménynek","[""spuménynak"",""spuménynek""]","spuménynak","esp trial","1","false"
"html-button-response","104","655796","0.0-11.0-1.46","null","<p>A másik játékos ezt választotta: <b>spuménynak</b>.</p><p>&#10060;</p><p>A válaszaitok <b>nem</b> egyeznek meg.</p>","null","","","","feedback trial","",""
"html-button-response-esp","105","662661","0.0-11.0-0.47","3475","Ez itt egy klosét. Elneveztem a kutyámat...","1","klosétnak","[""klosétnek"",""klosétnak""]","klosétnak","esp trial","1","true"
"html-button-response","106","666175","0.0-11.0-1.47","null","<p>A másik játékos ezt választotta: <b>klosétnak</b>.</p><p>&#x2705;</p><p>A te válaszod és a másik játékos válasza <b>megegyeznek</b>.</p>","null","","","","feedback trial","",""
"html-button-response-esp","107","673056","0.0-11.0-0.48","2767","Ez itt egy nyupér. Nincs is jobb egy jó...","1","nyupérnél","[""nyupérnál"",""nyupérnél""]","nyupérnál","esp trial","1","false"
"html-button-response","108","676578","0.0-11.0-1.48","null","<p>A másik játékos ezt választotta: <b>nyupérnál</b>.</p><p>&#10060;</p><p>A válaszaitok <b>nem</b> egyeznek meg.</p>","null","","","","feedback trial","",""
"html-button-response-esp","109","683438","0.0-11.0-0.49","3196","Ez itt egy narem. Ott vagyunk a...","0","naremben","[""naremben"",""naremban""]","naremban","esp trial","1","false"
"html-button-response","110","686944","0.0-11.0-1.49","null","<p>A másik játékos ezt választotta: <b>naremban</b>.</p><p>&#10060;</p><p>A válaszaitok <b>nem</b> egyeznek meg.</p>","null","","","","feedback trial","",""
"html-button-response-esp","111","693804","0.0-11.0-0.50","4055","Ez itt egy bralkép. Ott vagyunk a...","1","bralképban","[""bralképben"",""bralképban""]","bralképban","esp trial","1","true"
"html-button-response","112","697315","0.0-11.0-1.50","null","<p>A másik játékos ezt választotta: <b>bralképban</b>.</p><p>&#x2705;</p><p>A te válaszod és a másik játékos válasza <b>megegyeznek</b>.</p>","null","","","","feedback trial","",""
"html-button-response-esp","113","704180","0.0-11.0-0.51","2192","Ez itt egy zihenc. Elneveztem a kutyámat...","1","zihencnek","[""zihencnak"",""zihencnek""]","zihencnek","esp trial","1","true"
"html-button-response","114","707690","0.0-11.0-1.51","null","<p>A másik játékos ezt választotta: <b>zihencnek</b>.</p><p>&#x2705;</p><p>A te válaszod és a másik játékos válasza <b>megegyeznek</b>.</p>","null","","","","feedback trial","",""
"html-button-response-esp","115","714551","0.0-11.0-0.52","2406","Ez itt egy nyítem. Ott vagyunk a...","1","nyítemben","[""nyítemban"",""nyítemben""]","nyítemben","esp trial","1","true"
"html-button-response","116","718058","0.0-11.0-1.52","null","<p>A másik játékos ezt választotta: <b>nyítemben</b>.</p><p>&#x2705;</p><p>A te válaszod és a másik játékos válasza <b>megegyeznek</b>.</p>","null","","","","feedback trial","",""
"html-button-response-esp","117","724928","0.0-11.0-0.53","3939","Ez itt egy spicet. Elneveztem a kutyámat...","0","spicetnek","[""spicetnek"",""spicetnak""]","spicetnek","esp trial","1","true"
"html-button-response","118","728466","0.0-11.0-1.53","null","<p>A másik játékos ezt választotta: <b>spicetnek</b>.</p><p>&#x2705;</p><p>A te válaszod és a másik játékos válasza <b>megegyeznek</b>.</p>","null","","","","feedback trial","",""
"html-button-response","119","816974","0.0-12.0","88006","<p>A közös játék most véget ért.</p><p>Mielőtt eláruljuk a végső pontszámodat, arra kérlek, játszd a szóválasztós játékot néhány percig egyedül is.</p><p>A feladatod ugyanaz lesz, választani két lehetőség közül.</p><p>Most viszont egyedül kell döntened, hogy te melyiket választanád.</p>","0","","","","","",""
"html-button-response-clever","120","821349","0.0-13.0-0.0","3857","Ez itt egy pazév. Nincs is jobb egy jó...","0","pazévnél","[""pazévnél"",""pazévnál""]","","posttest trial","4",""
"html-button-response-clever","121","825498","0.0-13.0-0.1","3641","Ez itt egy vurnel. Elneveztem a kutyámat...","1","vurnelnek","[""vurnelnak"",""vurnelnek""]","","posttest trial","4",""
"html-button-response-clever","122","830686","0.0-13.0-0.2","4671","Ez itt egy bingéj. Elneveztem a kutyámat...","0","bingéjnek","[""bingéjnek"",""bingéjnak""]","","posttest trial","4",""
"html-button-response-clever","123","835514","0.0-13.0-0.3","4322","Ez itt egy dajrens. Nincs is jobb egy jó...","1","dajrensnál","[""dajrensnél"",""dajrensnál""]","","posttest trial","4",""
"html-button-response-clever","124","841699","0.0-13.0-0.4","5670","Ez itt egy dibez. Ott vagyunk a...","0","dibezban","[""dibezban"",""dibezben""]","","posttest trial","4",""
"html-button-response-clever","125","849029","0.0-13.0-0.5","6825","Ez itt egy dóbem. Elneveztem a kutyámat...","1","dóbemnak","[""dóbemnek"",""dóbemnak""]","","posttest trial","4",""
"html-button-response-clever","126","857651","0.0-13.0-0.6","8106","Ez itt egy briskéd. Nincs is jobb egy jó...","0","briskédnél","[""briskédnél"",""briskédnál""]","","posttest trial","4",""
"html-button-response-clever","127","862363","0.0-13.0-0.7","4202","Ez itt egy dinelt. Ott vagyunk a...","1","dineltben","[""dineltban"",""dineltben""]","","posttest trial","4",""
"html-button-response-clever","128","865950","0.0-13.0-0.8","3070","Ez itt egy hosét. Elneveztem a kutyámat...","1","hosétnek","[""hosétnak"",""hosétnek""]","","posttest trial","4",""
"html-button-response-clever","129","869973","0.0-13.0-0.9","3519","Ez itt egy spivél. Elneveztem a kutyámat...","0","spivélnek","[""spivélnek"",""spivélnak""]","","posttest trial","4",""
"html-button-response-clever","130","875770","0.0-13.0-0.10","5281","Ez itt egy klazér. Ott vagyunk a...","0","klazérban","[""klazérban"",""klazérben""]","","posttest trial","4",""
"html-button-response-clever","131","881694","0.0-13.0-0.11","5412","Ez itt egy surnegy. Nincs is jobb egy jó...","1","surnegynál","[""surnegynél"",""surnegynál""]","","posttest trial","4",""
"html-button-response-clever","132","886066","0.0-13.0-0.12","3854","Ez itt egy spizec. Elneveztem a kutyámat...","0","spizecnek","[""spizecnek"",""spizecnak""]","","posttest trial","4",""
"html-button-response-clever","133","889643","0.0-13.0-0.13","3062","Ez itt egy kátéd. Nincs is jobb egy jó...","1","kátédnél","[""kátédnál"",""kátédnél""]","","posttest trial","4",""
"html-button-response-clever","134","895121","0.0-13.0-0.14","4961","Ez itt egy klítegy. Nincs is jobb egy jó...","1","klítegynél","[""klítegynál"",""klítegynél""]","","posttest trial","4",""
"html-button-response-clever","135","899474","0.0-13.0-0.15","3849","Ez itt egy szanéj. Elneveztem a kutyámat...","0","szanéjnek","[""szanéjnek"",""szanéjnak""]","","posttest trial","4",""
"html-button-response-clever","136","903351","0.0-13.0-0.16","3371","Ez itt egy vodec. Nincs is jobb egy jó...","1","vodecnél","[""vodecnál"",""vodecnél""]","","posttest trial","4",""
"html-button-response-clever","137","909682","0.0-13.0-0.17","5822","Ez itt egy tarhéz. Ott vagyunk a...","0","tarhézben","[""tarhézben"",""tarhézban""]","","posttest trial","4",""
"html-button-response-clever","138","914036","0.0-13.0-0.18","3832","Ez itt egy pristél. Ott vagyunk a...","0","pristélben","[""pristélben"",""pristélban""]","","posttest trial","4",""
"html-button-response-clever","139","917836","0.0-13.0-0.19","3288","Ez itt egy tumély. Nincs is jobb egy jó...","1","tumélynél","[""tumélynál"",""tumélynél""]","","posttest trial","4",""
"html-button-response-clever","140","925517","0.0-13.0-0.20","7164","Ez itt egy dutec. Nincs is jobb egy jó...","1","dutecnál","[""dutecnél"",""dutecnál""]","","posttest trial","4",""
"html-button-response-clever","141","929288","0.0-13.0-0.21","3267","Ez itt egy hijegy. Nincs is jobb egy jó...","0","hijegynél","[""hijegynél"",""hijegynál""]","","posttest trial","4",""
"html-button-response-clever","142","936185","0.0-13.0-0.22","6390","Ez itt egy spatel. Elneveztem a kutyámat...","0","spatelnak","[""spatelnak"",""spatelnek""]","","posttest trial","4",""
"html-button-response-clever","143","941411","0.0-13.0-0.23","4701","Ez itt egy gábéd. Nincs is jobb egy jó...","1","gábédnél","[""gábédnál"",""gábédnél""]","","posttest trial","4",""
"html-button-response-clever","144","945852","0.0-13.0-0.24","3927","Ez itt egy vismer. Nincs is jobb egy jó...","0","vismernél","[""vismernél"",""vismernál""]","","posttest trial","4",""
"html-button-response-clever","145","949536","0.0-13.0-0.25","3161","Ez itt egy murdes. Nincs is jobb egy jó...","0","murdesnél","[""murdesnél"",""murdesnál""]","","posttest trial","4",""
"html-button-response-clever","146","953530","0.0-13.0-0.26","3483","Ez itt egy mádép. Nincs is jobb egy jó...","1","mádépnál","[""mádépnél"",""mádépnál""]","","posttest trial","4",""
"html-button-response-clever","147","958115","0.0-13.0-0.27","4075","Ez itt egy fupét. Nincs is jobb egy jó...","1","fupétnél","[""fupétnál"",""fupétnél""]","","posttest trial","4",""
"html-button-response-clever","148","961936","0.0-13.0-0.28","3312","Ez itt egy szibed. Ott vagyunk a...","1","szibedban","[""szibedben"",""szibedban""]","","posttest trial","4",""
"html-button-response-clever","149","966366","0.0-13.0-0.29","3914","Ez itt egy cságyelt. Ott vagyunk a...","1","cságyeltben","[""cságyeltban"",""cságyeltben""]","","posttest trial","4",""
"html-button-response-clever","150","969934","0.0-13.0-0.30","3049","Ez itt egy trodély. Ott vagyunk a...","1","trodélyban","[""trodélyben"",""trodélyban""]","","posttest trial","4",""
"html-button-response-clever","151","975625","0.0-13.0-0.31","5176","Ez itt egy zábény. Elneveztem a kutyámat...","0","zábénynek","[""zábénynek"",""zábénynak""]","","posttest trial","4",""
"html-button-response-clever","152","979474","0.0-13.0-0.32","3338","Ez itt egy dunkész. Ott vagyunk a...","1","dunkészban","[""dunkészben"",""dunkészban""]","","posttest trial","4",""
"html-button-response-clever","153","985886","0.0-13.0-0.33","5907","Ez itt egy lijez. Elneveztem a kutyámat...","1","lijeznek","[""lijeznak"",""lijeznek""]","","posttest trial","4",""
"html-button-response-clever","154","991257","0.0-13.0-0.34","4865","Ez itt egy fojlegy. Elneveztem a kutyámat...","1","fojlegynek","[""fojlegynak"",""fojlegynek""]","","posttest trial","4",""
"html-button-response-clever","155","994854","0.0-13.0-0.35","3087","Ez itt egy fizend. Ott vagyunk a...","1","fizendban","[""fizendben"",""fizendban""]","","posttest trial","4",""
"html-button-response-clever","156","998441","0.0-13.0-0.36","3084","Ez itt egy zatéj. Nincs is jobb egy jó...","1","zatéjnél","[""zatéjnál"",""zatéjnél""]","","posttest trial","4",""
"html-button-response-clever","157","1002659","0.0-13.0-0.37","3711","Ez itt egy sihen. Nincs is jobb egy jó...","1","sihennél","[""sihennál"",""sihennél""]","","posttest trial","4",""
"html-button-response-clever","158","1008321","0.0-13.0-0.38","5157","Ez itt egy zuten. Nincs is jobb egy jó...","1","zutennél","[""zutennál"",""zutennél""]","","posttest trial","4",""
"html-button-response-clever","159","1012549","0.0-13.0-0.39","3712","Ez itt egy zined. Elneveztem a kutyámat...","1","zinednak","[""zinednek"",""zinednak""]","","posttest trial","4",""
"html-button-response-clever","160","1020017","0.0-13.0-0.40","6966","Ez itt egy tivenc. Ott vagyunk a...","0","tivencben","[""tivencben"",""tivencban""]","","posttest trial","4",""
"html-button-response-clever","161","1026893","0.0-13.0-0.41","6363","Ez itt egy klajrén. Elneveztem a kutyámat...","1","klajrénnak","[""klajrénnek"",""klajrénnak""]","","posttest trial","4",""
"html-button-response-clever","162","1032157","0.0-13.0-0.42","4749","Ez itt egy trikép. Ott vagyunk a...","0","triképben","[""triképben"",""triképban""]","","posttest trial","4",""
"html-button-response-clever","163","1036694","0.0-13.0-0.43","4028","Ez itt egy zarcég. Nincs is jobb egy jó...","0","zarcégnél","[""zarcégnél"",""zarcégnál""]","","posttest trial","4",""
"html-button-response-clever","164","1041474","0.0-13.0-0.44","4266","Ez itt egy jutély. Nincs is jobb egy jó...","1","jutélynél","[""jutélynál"",""jutélynél""]","","posttest trial","4",""
"html-button-response-clever","165","1047611","0.0-13.0-0.45","5628","Ez itt egy jurdent. Nincs is jobb egy jó...","0","jurdentnél","[""jurdentnél"",""jurdentnál""]","","posttest trial","4",""
"html-button-response-clever","166","1054060","0.0-13.0-0.46","5941","Ez itt egy lihény. Elneveztem a kutyámat...","1","lihénynek","[""lihénynak"",""lihénynek""]","","posttest trial","4",""
"html-button-response-clever","167","1059092","0.0-13.0-0.47","4518","Ez itt egy csodeg. Nincs is jobb egy jó...","0","csodegnél","[""csodegnél"",""csodegnál""]","","posttest trial","4",""
"html-button-response-clever","168","1063193","0.0-13.0-0.48","3586","Ez itt egy zsalrén. Elneveztem a kutyámat...","1","zsalrénnak","[""zsalrénnek"",""zsalrénnak""]","","posttest trial","4",""
"html-button-response-clever","169","1067257","0.0-13.0-0.49","3554","Ez itt egy csublény. Ott vagyunk a...","1","csublényban","[""csublényben"",""csublényban""]","","posttest trial","4",""
"html-button-response-clever","170","1070631","0.0-13.0-0.50","2868","Ez itt egy lingék. Nincs is jobb egy jó...","1","lingéknál","[""lingéknél"",""lingéknál""]","","posttest trial","4",""
"html-button-response-clever","171","1075479","0.0-13.0-0.51","4331","Ez itt egy humék. Elneveztem a kutyámat...","0","huméknak","[""huméknak"",""huméknek""]","","posttest trial","4",""
"html-button-response-clever","172","1081442","0.0-13.0-0.52","5445","Ez itt egy fágyép. Nincs is jobb egy jó...","1","fágyépnál","[""fágyépnél"",""fágyépnál""]","","posttest trial","4",""
"html-button-response-clever","173","1089306","0.0-13.0-0.53","7340","Ez itt egy nuhét. Nincs is jobb egy jó...","0","nuhétnél","[""nuhétnél"",""nuhétnál""]","","posttest trial","4",""
"html-button-response","174","1093882","0.0-14.0","4068","<p> Vége a játéknak. A teljes pontszámod 26/54.</p><p> Szép munka! &#128526;&#128526;&#128526;</p><p>A Befejezés gomb megnyomása után bezárhatod a böngészőablakot.</p>","0","","","","","",""
"html-keyboard-response","175","1099392","0.0-15.0","null","<div class=""message"">
         <p>Egy kis türelmet kérünk, amíg elmentjük az adatokat...</p>
         </div>","null","","","","","",""
