"trial_type","trial_index","time_elapsed","internal_node_id","rt","stimulus","response","response_string","choices","esp_response","trial_kind","list_number","esp_match"
"pavlovia","0","2549","0.0-0.0","","","","","","","","",""
"html-button-response","1","6341","0.0-1.0","3277","<p>Kedves Résztvevő! A Budapesti Műszaki és Gazdaságtudományi Egyetem Kognitív Tudományi Tanszékének kutatásában való részvételed kérjük. A kutatásban azt vizsgáljuk, hogy a magyar anyanyelvűek hogyan használnak bizonyos szóalakokat, és hogy milyen képük van arról, hogy mások hogyan használják, hogyan képzik a szavakat. Ez hozzásegít bennünket ahhoz, hogy jobban megértsük, hogyan dolgozza fel és tárolja a nyelvet az emberi agy, és hogyan működnek, hogyan változnak egy adott közösség nyelvi konvenciói.</p><p>A vizsgálat egy rövid számítógépes feladatból fog állni. A kutatásban való részvétel önkéntes, a részvételi szándék bármikor visszavonható. A résztvevők eredményeit név nélkül kezeljük, így nem beazonosíthatók az adatok feldolgozása során. Minden személyes adatot az EU általános adatvédelmi rendeletének (GDPR) megfelelően kezelünk és legfeljebb öt éven belül megsemmisítünk. A vizsgálat jellemzően húsz percet vesz igénybe.</p><p>Kutatásvezető:</p><p>Dr. Rácz Péter, tudományos munkatárs, BME KTT</p><p>e-mail: racz.peter.marton@ttk.bme.hu</p>","0","","","","","",""
"html-button-response","2","27976","0.0-2.0","21118","<p>A kísérletben szavakat fogsz látni. Ezek között lesznek olyanok, amelyeket ismersz, de előfordulhatnak olyanok is, amelyeket nem ismersz, sőt, vannak köztük kitalált szavak is. Minden szónál látni fogsz toldalékolt alakokat. A te feladatod az lesz, hogy minden szóhoz kiválaszd azt a toldalékolt alakot, amely a te számodra ismerősebben, természetesebben hangzik. Rossz válaszok nincsenek, mert van olyan, hogy különböző embereknek más és más szó tűnik jobb választásnak. A választ úgy tudod majd kiválasztani, ha rákattintasz.</p><p>Ebben a szóválasztós játékban egy másik játékossal együtt veszel majd részt. A másik játékos is minden esetben azok közül a lehetőségek közül válogathat, mint te. Kettőtök feladata az, hogy ugyanazt a lehetőséget válasszátok minden esetben. Ahhoz, hogy ez sikerüljön, neked figyelned kell arra, hogy a másik játékos milyen válaszokat ad, és ennek alapján meg kell tippelned, hogyan választ legközelebb. Ha eltalálod, akkor pontot kapsz.</p>","0","","","","","",""
"html-button-response","3","31177","0.0-3.0","2692","<p>Kérjük, olvasd el az alábbi nyilatkozatot, és amennyiben egyetértesz vele, nyomj a Beleegyezés gombra!</p><p>Kijelentem, hogy magyar anyanyelvű személyként önként veszek részt a BME KTT kísérletében. A kutatás céljával és folyamatával kapcsolatban elegendő tájékoztatást kaptam, lehetőségem volt kérdések feltételére, és esetleges kérdéseimre megfelelő válaszokat kaptam. A tájékoztatás alapján elegendő mennyiségű információ áll a rendelkezésemre, hogy eldönthessem, részt kívánok-e venni a kutatásban.</p><p>Tisztában vagyok vele, hogy részvételi szándékomat és adataimat bármikor, indoklás nélkül visszavonhatom.</p><p>Értem és tudomásul veszem, hogy a kutatás tudományos célokat szolgál, és az általam szolgáltatott adatokat a BME kizárólag kutatási célból használja fel. Tudomásul veszem, hogy eredményeimet a többi résztvevő eredményeivel együtt kezelik, így egyéni teljesítményemről visszajelzést, szakvéleményt nem kapok.</p><p>Megértettem, hogy adataim kezelését illetően a BME az EU általános adatvédelmi rendelete (GDPR), a hatályos adatvédelmi törvény és a nemzetközi kutatás-etikai alapelvek szerint jár el. Eredményeim anonim módon kerülnek feldolgozásra, és a kutatás résztvevői az azonosításomra alkalmas adataimat harmadik félnek nem szolgáltatják ki. Engedélyezem a BME számára a jelen kutatásban felvett adataim feldolgozását és tárolását, beleértve azok későbbi kutatásokhoz való felhasználását is. Személyes adataim kezelésével kapcsolatban tájékoztatást kérhetek a kutatás résztvevőitől, az adatkezelés ellen tiltakozhatok, kérhetem személyes adataim helyesbítését, törlését vagy zárolását, valamint jogorvoslatért a Nemzeti Adatvédelmi és Információszabadság Hatósághoz fordulhatok.</p><p>Kijelentem, hogy a kutatásban való részvételem körülményeiről részletes tájékoztatást kaptam, és a feltételeket elfogadom.</p>","0","","","","","",""
"survey-text","4","64565","0.0-4.0","32864","","{""Q0"":""NY7GN9"",""Q1"":""nő"",""Q2"":""1999"",""Q3"":""23""}","","","","","",""
"html-button-response","5","69757","0.0-5.0","4681","<p>Ebben a játékban szavakat kell toldalékolni.</p> <p>Minden körben mutatunk majd egy példamondatot, amiben lesz egy szó.</p> <p>Alatta jön egy második mondat, ezt a mondatot neked kell majd befejezni, ugyanezzel a szóval.</p> <p>Nem biztos, hogy a szó eleve ismerős lesz számodra!</p> <p>Minden mondathoz adunk két lehetőséget, ezeket balra és jobbra látod majd.</p> <p>A játék kb. negyedóráig-húsz percig tart.</p>","0","","","","","",""
"html-button-response","6","100804","0.0-6.0","30530","<p>Nézzünk egy példát!</p> <p>A példamondat: ""János imád fláramolni, ezért sokat fláramlik. Mi ritkán...""</p><p>Neked ezt a mondatot kell befejezned: ""Ti ritkán...""</p><p>A lehetőségek pedig ezek:</p>","0","","","","","",""
"html-button-response","7","112423","0.0-7.0","11101","<p>Nagyon jó.</p><p>Ezt a játékot nem egyedül fogod játszani, hanem egy másik játékossal.</p><p>Mielőtt továbblépünk, összekapcsolunk titeket egymással.</p><p>Ez igénybe vehet néhány másodpercet, amihez szíves türelmed kérjük.</p>","0","","","","","",""
"html-button-response","8","118167","0.0-8.0","null","<p>Csatlakozás a másik játékoshoz...</p>","null","","","","","",""
"html-button-response","9","120695","0.0-9.0","null","<p> Sikeres kapcsolódás!</p>","null","","","","","",""
"html-button-response","10","131204","0.0-10.0","null","<p>A következőkben ketten játsszátok a szóválasztós játékot.</p><p>A feladatotok az lesz, hogy minden körben <b>ugyanazt</b> a szót válasszátok.</p><p>Minden ilyen egyező válaszért pontot kaptok.</p><p>Próbáld meg kitalálni, mit választ a másik játékos!</p><p>Bármikor választhatsz, a körnek akkor van vége, ha mindketten döntöttetek.</p><p>Sok sikert!</p>","null","","","","","",""
"html-button-response-esp","11","140552","0.0-11.0-0.0","8838","János imád csubozni, ezért sokat csubzik. Mi ritkán...","1","csubozunk","[""csubzunk"",""csubozunk""]","csubozunk","esp trial","6","true"
"html-button-response","12","144072","0.0-11.0-1.0","null","<p>A másik játékos ezt választotta: <b>csubozunk</b>.</p><p>&#x2705;</p><p>A te válaszod és a másik játékos válasza <b>megegyeznek</b>.</p>","null","","","","feedback trial","",""
"html-button-response-esp","13","152480","0.0-11.0-0.1","7635","János imád trugokozni, ezért sokat trugoklik. Ők ritkán...","1","trugokoznak","[""trugoklanak"",""trugokoznak""]","trugokoznak","esp trial","6","true"
"html-button-response","14","156006","0.0-11.0-1.1","null","<p>A másik játékos ezt választotta: <b>trugokoznak</b>.</p><p>&#x2705;</p><p>A te válaszod és a másik játékos válasza <b>megegyeznek</b>.</p>","null","","","","feedback trial","",""
"html-button-response-esp","15","167519","0.0-11.0-0.2","11009","János imád drűrözni, ezért sokat drűrzik. Ők ritkán...","0","drűröznek","[""drűröznek"",""drűrzenek""]","drűrzenek","esp trial","6","false"
"html-button-response","16","171030","0.0-11.0-1.2","null","<p>A másik játékos ezt választotta: <b>drűrzenek</b>.</p><p>&#10060;</p><p>A válaszaitok <b>nem</b> egyeznek meg.</p>","null","","","","feedback trial","",""
"html-button-response-esp","17","180850","0.0-11.0-0.3","9316","János imád prélemezni, ezért sokat prélemlik. Ők ritkán...","1","prélemeznek","[""prélemlenek"",""prélemeznek""]","prélemeznek","esp trial","6","true"
"html-button-response","18","184366","0.0-11.0-1.3","null","<p>A másik játékos ezt választotta: <b>prélemeznek</b>.</p><p>&#x2705;</p><p>A te válaszod és a másik játékos válasza <b>megegyeznek</b>.</p>","null","","","","feedback trial","",""
"html-button-response-esp","19","192773","0.0-11.0-0.4","6676","János imád trikozni, ezért sokat triklik. Ti ritkán...","0","triklotok","[""triklotok"",""trikoztok""]","trikoztok","esp trial","6","false"
"html-button-response","20","196283","0.0-11.0-1.4","null","<p>A másik játékos ezt választotta: <b>trikoztok</b>.</p><p>&#10060;</p><p>A válaszaitok <b>nem</b> egyeznek meg.</p>","null","","","","feedback trial","",""
"html-button-response-esp","21","205755","0.0-11.0-0.5","8952","János imád flemezni, ezért sokat flemlik. Mi ritkán...","1","flemezünk","[""flemlünk"",""flemezünk""]","flemlünk","esp trial","6","false"
"html-button-response","22","209268","0.0-11.0-1.5","null","<p>A másik játékos ezt választotta: <b>flemlünk</b>.</p><p>&#10060;</p><p>A válaszaitok <b>nem</b> egyeznek meg.</p>","null","","","","feedback trial","",""
"html-button-response-esp","23","224794","0.0-11.0-0.6","15023","János imád drilarozni, ezért sokat drilarzik. Mi ritkán...","1","drilarozunk","[""drilarzunk"",""drilarozunk""]","drilarzunk","esp trial","6","false"
"html-button-response","24","228319","0.0-11.0-1.6","null","<p>A másik játékos ezt választotta: <b>drilarzunk</b>.</p><p>&#10060;</p><p>A válaszaitok <b>nem</b> egyeznek meg.</p>","null","","","","feedback trial","",""
"html-button-response-esp","25","237736","0.0-11.0-0.7","8914","János imád gyihegezni, ezért sokat gyihegzik. Ti ritkán...","0","gyihegeztek","[""gyihegeztek"",""gyihegzetek""]","gyihegzetek","esp trial","6","false"
"html-button-response","26","241258","0.0-11.0-1.7","null","<p>A másik játékos ezt választotta: <b>gyihegzetek</b>.</p><p>&#10060;</p><p>A válaszaitok <b>nem</b> egyeznek meg.</p>","null","","","","feedback trial","",""
"html-button-response-esp","27","249678","0.0-11.0-0.8","6117","János imád frakozni, ezért sokat fraklik. Mi ritkán...","1","frakozunk","[""fraklunk"",""frakozunk""]","frakozunk","esp trial","6","true"
"html-button-response","28","253188","0.0-11.0-1.8","null","<p>A másik játékos ezt választotta: <b>frakozunk</b>.</p><p>&#x2705;</p><p>A te válaszod és a másik játékos válasza <b>megegyeznek</b>.</p>","null","","","","feedback trial","",""
"html-button-response-esp","29","261594","0.0-11.0-0.9","7455","János imád mágamozni, ezért sokat mágamlik. Mi ritkán...","1","mágamlunk","[""mágamozunk"",""mágamlunk""]","mágamozunk","esp trial","6","false"
"html-button-response","30","265104","0.0-11.0-1.9","null","<p>A másik játékos ezt választotta: <b>mágamozunk</b>.</p><p>&#10060;</p><p>A válaszaitok <b>nem</b> egyeznek meg.</p>","null","","","","feedback trial","",""
"html-button-response-esp","31","273515","0.0-11.0-0.10","7711","János imád flűgözni, ezért sokat flűgzik. Mi ritkán...","0","flűgözünk","[""flűgözünk"",""flűgzünk""]","flűgözünk","esp trial","6","true"
"html-button-response","32","277036","0.0-11.0-1.10","null","<p>A másik játékos ezt választotta: <b>flűgözünk</b>.</p><p>&#x2705;</p><p>A te válaszod és a másik játékos válasza <b>megegyeznek</b>.</p>","null","","","","feedback trial","",""
"html-button-response-esp","33","285456","0.0-11.0-0.11","7413","János imád mülőrözni, ezért sokat mülőrzik. Mi ritkán...","0","mülőrözünk","[""mülőrözünk"",""mülőrzünk""]","mülőrözünk","esp trial","6","true"
"html-button-response","34","288967","0.0-11.0-1.11","null","<p>A másik játékos ezt választotta: <b>mülőrözünk</b>.</p><p>&#x2705;</p><p>A te válaszod és a másik játékos válasza <b>megegyeznek</b>.</p>","null","","","","feedback trial","",""
"html-button-response-esp","35","297374","0.0-11.0-0.12","7428","János imád csibagozni, ezért sokat csibagzik. Ti ritkán...","1","csibagzotok","[""csibagoztok"",""csibagzotok""]","csibagzotok","esp trial","6","true"
"html-button-response","36","300891","0.0-11.0-1.12","null","<p>A másik játékos ezt választotta: <b>csibagzotok</b>.</p><p>&#x2705;</p><p>A te válaszod és a másik játékos válasza <b>megegyeznek</b>.</p>","null","","","","feedback trial","",""
"html-button-response-esp","37","310289","0.0-11.0-0.13","8895","János imád spibegezni, ezért sokat spibeglik. Mi ritkán...","1","spibeglünk","[""spibegezünk"",""spibeglünk""]","spibegezünk","esp trial","6","false"
"html-button-response","38","313808","0.0-11.0-1.13","null","<p>A másik játékos ezt választotta: <b>spibegezünk</b>.</p><p>&#10060;</p><p>A válaszaitok <b>nem</b> egyeznek meg.</p>","null","","","","feedback trial","",""
"html-button-response-esp","39","322210","0.0-11.0-0.14","7326","János imád virozni, ezért sokat virzik. Ők ritkán...","0","viroznak","[""viroznak"",""virzanak""]","viroznak","esp trial","6","true"
"html-button-response","40","325724","0.0-11.0-1.14","null","<p>A másik játékos ezt választotta: <b>viroznak</b>.</p><p>&#x2705;</p><p>A te válaszod és a másik játékos válasza <b>megegyeznek</b>.</p>","null","","","","feedback trial","",""
"html-button-response-esp","41","336449","0.0-11.0-0.15","10222","János imád brözözni, ezért sokat brözlik. Ti ritkán...","1","brözöztök","[""brözlötök"",""brözöztök""]","brözöztök","esp trial","6","true"
"html-button-response","42","339963","0.0-11.0-1.15","null","<p>A másik játékos ezt választotta: <b>brözöztök</b>.</p><p>&#x2705;</p><p>A te válaszod és a másik játékos válasza <b>megegyeznek</b>.</p>","null","","","","feedback trial","",""
"html-button-response-esp","43","348362","0.0-11.0-0.16","6828","János imád pragányozni, ezért sokat pragánylik. Ti ritkán...","1","pragánylotok","[""pragányoztok"",""pragánylotok""]","pragányoztok","esp trial","6","false"
"html-button-response","44","351877","0.0-11.0-1.16","null","<p>A másik játékos ezt választotta: <b>pragányoztok</b>.</p><p>&#10060;</p><p>A válaszaitok <b>nem</b> egyeznek meg.</p>","null","","","","feedback trial","",""
"html-button-response-esp","45","360947","0.0-11.0-0.17","8571","János imád dilakozni, ezért sokat dilaklik. Ti ritkán...","0","dilakoztok","[""dilakoztok"",""dilaklotok""]","dilaklotok","esp trial","6","false"
"html-button-response","46","364457","0.0-11.0-1.17","null","<p>A másik játékos ezt választotta: <b>dilaklotok</b>.</p><p>&#10060;</p><p>A válaszaitok <b>nem</b> egyeznek meg.</p>","null","","","","feedback trial","",""
"html-button-response-esp","47","372856","0.0-11.0-0.18","6015","János imád privékedni, ezért sokat privékszik. Ők ritkán...","0","privékszenek","[""privékszenek"",""privékednek""]","privékednek","esp trial","6","false"
"html-button-response","48","376373","0.0-11.0-1.18","null","<p>A másik játékos ezt választotta: <b>privékednek</b>.</p><p>&#10060;</p><p>A válaszaitok <b>nem</b> egyeznek meg.</p>","null","","","","feedback trial","",""
"html-button-response-esp","49","386512","0.0-11.0-0.19","9636","János imád fröjözni, ezért sokat fröjzik. Ti ritkán...","0","fröjöztök","[""fröjöztök"",""fröjzötök""]","fröjzötök","esp trial","6","false"
"html-button-response","50","390027","0.0-11.0-1.19","null","<p>A másik játékos ezt választotta: <b>fröjzötök</b>.</p><p>&#10060;</p><p>A válaszaitok <b>nem</b> egyeznek meg.</p>","null","","","","feedback trial","",""
"html-button-response-esp","51","398448","0.0-11.0-0.20","5278","János imád trivakodni, ezért sokat trivakszik. Mi ritkán...","1","trivakszunk","[""trivakodunk"",""trivakszunk""]","trivakodunk","esp trial","6","false"
"html-button-response","52","401958","0.0-11.0-1.20","null","<p>A másik játékos ezt választotta: <b>trivakodunk</b>.</p><p>&#10060;</p><p>A válaszaitok <b>nem</b> egyeznek meg.</p>","null","","","","feedback trial","",""
"html-button-response-esp","53","410355","0.0-11.0-0.21","6186","János imád pilégedni, ezért sokat pilégszik. Ők ritkán...","1","pilégszenek","[""pilégednek"",""pilégszenek""]","pilégednek","esp trial","6","false"
"html-button-response","54","413874","0.0-11.0-1.21","null","<p>A másik játékos ezt választotta: <b>pilégednek</b>.</p><p>&#10060;</p><p>A válaszaitok <b>nem</b> egyeznek meg.</p>","null","","","","feedback trial","",""
"html-button-response-esp","55","422302","0.0-11.0-0.22","6622","János imád lájozni, ezért sokat lájzik. Ti ritkán...","1","lájoztok","[""lájzotok"",""lájoztok""]","lájoztok","esp trial","6","true"
"html-button-response","56","425828","0.0-11.0-1.22","null","<p>A másik játékos ezt választotta: <b>lájoztok</b>.</p><p>&#x2705;</p><p>A te válaszod és a másik játékos válasza <b>megegyeznek</b>.</p>","null","","","","feedback trial","",""
"html-button-response-esp","57","434243","0.0-11.0-0.23","7820","János imád spirágozni, ezért sokat spiráglik. Ti ritkán...","0","spiráglotok","[""spiráglotok"",""spirágoztok""]","spiráglotok","esp trial","6","true"
"html-button-response","58","437760","0.0-11.0-1.23","null","<p>A másik játékos ezt választotta: <b>spiráglotok</b>.</p><p>&#x2705;</p><p>A te válaszod és a másik játékos válasza <b>megegyeznek</b>.</p>","null","","","","feedback trial","",""
"html-button-response-esp","59","446166","0.0-11.0-0.24","6678","János imád dujozni, ezért sokat dujzik. Ők ritkán...","1","dujoznak","[""dujzanak"",""dujoznak""]","dujoznak","esp trial","6","true"
"html-button-response","60","449692","0.0-11.0-1.24","null","<p>A másik játékos ezt választotta: <b>dujoznak</b>.</p><p>&#x2705;</p><p>A te válaszod és a másik játékos válasza <b>megegyeznek</b>.</p>","null","","","","feedback trial","",""
"html-button-response-esp","61","458098","0.0-11.0-0.25","6942","János imád flüröközni, ezért sokat flüröklik. Ti ritkán...","1","flüröklötök","[""flürököztök"",""flüröklötök""]","flürököztök","esp trial","6","false"
"html-button-response","62","461623","0.0-11.0-1.25","null","<p>A másik játékos ezt választotta: <b>flürököztök</b>.</p><p>&#10060;</p><p>A válaszaitok <b>nem</b> egyeznek meg.</p>","null","","","","feedback trial","",""
"html-button-response-esp","63","470029","0.0-11.0-0.26","6141","János imád branyozni, ezért sokat branylik. Ők ritkán...","0","branylanak","[""branylanak"",""branyoznak""]","branyoznak","esp trial","6","false"
"html-button-response","64","473539","0.0-11.0-1.26","null","<p>A másik játékos ezt választotta: <b>branyoznak</b>.</p><p>&#10060;</p><p>A válaszaitok <b>nem</b> egyeznek meg.</p>","null","","","","feedback trial","",""
"html-button-response-esp","65","481943","0.0-11.0-0.27","6054","János imád prögözni, ezért sokat prögzik. Ti ritkán...","0","prögöztök","[""prögöztök"",""prögzötök""]","prögzötök","esp trial","6","false"
"html-button-response","66","485452","0.0-11.0-1.27","null","<p>A másik játékos ezt választotta: <b>prögzötök</b>.</p><p>&#10060;</p><p>A válaszaitok <b>nem</b> egyeznek meg.</p>","null","","","","feedback trial","",""
"html-button-response-esp","67","493848","0.0-11.0-0.28","6764","János imád kűdözni, ezért sokat kűdlik. Ők ritkán...","0","kűdöznek","[""kűdöznek"",""kűdlenek""]","kűdöznek","esp trial","6","true"
"html-button-response","68","497368","0.0-11.0-1.28","null","<p>A másik játékos ezt választotta: <b>kűdöznek</b>.</p><p>&#x2705;</p><p>A te válaszod és a másik játékos válasza <b>megegyeznek</b>.</p>","null","","","","feedback trial","",""
"html-button-response-esp","69","505774","0.0-11.0-0.29","6865","János imád molodni, ezért sokat molszik. Ti ritkán...","0","molodtok","[""molodtok"",""molszotok""]","molodtok","esp trial","6","true"
"html-button-response","70","509300","0.0-11.0-1.29","null","<p>A másik játékos ezt választotta: <b>molodtok</b>.</p><p>&#x2705;</p><p>A te válaszod és a másik játékos válasza <b>megegyeznek</b>.</p>","null","","","","feedback trial","",""
"html-button-response-esp","71","517706","0.0-11.0-0.30","5468","János imád sprozozni, ezért sokat sprozlik. Ők ritkán...","1","sprozoznak","[""sprozlanak"",""sprozoznak""]","sprozoznak","esp trial","6","true"
"html-button-response","72","521232","0.0-11.0-1.30","null","<p>A másik játékos ezt választotta: <b>sprozoznak</b>.</p><p>&#x2705;</p><p>A te válaszod és a másik játékos válasza <b>megegyeznek</b>.</p>","null","","","","feedback trial","",""
"html-button-response-esp","73","529652","0.0-11.0-0.31","7376","János imád sprudozni, ezért sokat sprudlik. Mi ritkán...","0","sprudlunk","[""sprudlunk"",""sprudozunk""]","sprudlunk","esp trial","6","true"
"html-button-response","74","533164","0.0-11.0-1.31","null","<p>A másik játékos ezt választotta: <b>sprudlunk</b>.</p><p>&#x2705;</p><p>A te válaszod és a másik játékos válasza <b>megegyeznek</b>.</p>","null","","","","feedback trial","",""
"html-button-response-esp","75","541584","0.0-11.0-0.32","5988","János imád nyürözni, ezért sokat nyürzik. Ők ritkán...","1","nyüröznek","[""nyürzenek"",""nyüröznek""]","nyüröznek","esp trial","6","true"
"html-button-response","76","545110","0.0-11.0-1.32","null","<p>A másik játékos ezt választotta: <b>nyüröznek</b>.</p><p>&#x2705;</p><p>A te válaszod és a másik játékos válasza <b>megegyeznek</b>.</p>","null","","","","feedback trial","",""
"html-button-response-esp","77","553516","0.0-11.0-0.33","5943","János imád lűközni, ezért sokat lűklik. Ők ritkán...","1","lűklenek","[""lűköznek"",""lűklenek""]","lűklenek","esp trial","6","true"
"html-button-response","78","557025","0.0-11.0-1.33","null","<p>A másik játékos ezt választotta: <b>lűklenek</b>.</p><p>&#x2705;</p><p>A te válaszod és a másik játékos válasza <b>megegyeznek</b>.</p>","null","","","","feedback trial","",""
"html-button-response-esp","79","565421","0.0-11.0-0.34","5897","János imád föködni, ezért sokat fökszik. Ők ritkán...","1","fökszenek","[""föködnek"",""fökszenek""]","föködnek","esp trial","6","false"
"html-button-response","80","568941","0.0-11.0-1.34","null","<p>A másik játékos ezt választotta: <b>föködnek</b>.</p><p>&#10060;</p><p>A válaszaitok <b>nem</b> egyeznek meg.</p>","null","","","","feedback trial","",""
"html-button-response-esp","81","577363","0.0-11.0-0.35","6987","János imád spügözni, ezért sokat spügzik. Mi ritkán...","1","spügözünk","[""spügzünk"",""spügözünk""]","spügözünk","esp trial","6","true"
"html-button-response","82","580872","0.0-11.0-1.35","null","<p>A másik játékos ezt választotta: <b>spügözünk</b>.</p><p>&#x2705;</p><p>A te válaszod és a másik játékos válasza <b>megegyeznek</b>.</p>","null","","","","feedback trial","",""
"html-button-response-esp","83","589280","0.0-11.0-0.36","6945","János imád püzözni, ezért sokat püzlik. Ti ritkán...","1","püzöztök","[""püzlötök"",""püzöztök""]","püzöztök","esp trial","6","true"
"html-button-response","84","592804","0.0-11.0-1.36","null","<p>A másik játékos ezt választotta: <b>püzöztök</b>.</p><p>&#x2705;</p><p>A te válaszod és a másik játékos válasza <b>megegyeznek</b>.</p>","null","","","","feedback trial","",""
"html-button-response-esp","85","601221","0.0-11.0-0.37","6189","János imád brivakozni, ezért sokat brivaklik. Ti ritkán...","1","brivakoztok","[""brivaklotok"",""brivakoztok""]","brivakoztok","esp trial","6","true"
"html-button-response","86","604747","0.0-11.0-1.37","null","<p>A másik játékos ezt választotta: <b>brivakoztok</b>.</p><p>&#x2705;</p><p>A te válaszod és a másik játékos válasza <b>megegyeznek</b>.</p>","null","","","","feedback trial","",""
"html-button-response-esp","87","613167","0.0-11.0-0.38","7879","János imád dárakodni, ezért sokat dárakszik. Mi ritkán...","0","dárakodunk","[""dárakodunk"",""dárakszunk""]","dárakodunk","esp trial","6","true"
"html-button-response","88","616679","0.0-11.0-1.38","null","<p>A másik játékos ezt választotta: <b>dárakodunk</b>.</p><p>&#x2705;</p><p>A te válaszod és a másik játékos válasza <b>megegyeznek</b>.</p>","null","","","","feedback trial","",""
"html-button-response-esp","89","625101","0.0-11.0-0.39","6763","János imád flöközni, ezért sokat flöklik. Ti ritkán...","1","flököztök","[""flöklötök"",""flököztök""]","flököztök","esp trial","6","true"
"html-button-response","90","628610","0.0-11.0-1.39","null","<p>A másik játékos ezt választotta: <b>flököztök</b>.</p><p>&#x2705;</p><p>A te válaszod és a másik játékos válasza <b>megegyeznek</b>.</p>","null","","","","feedback trial","",""
"html-button-response-esp","91","637027","0.0-11.0-0.40","6530","János imád posozni, ezért sokat poslik. Ti ritkán...","0","posoztok","[""posoztok"",""poslotok""]","posoztok","esp trial","6","true"
"html-button-response","92","640543","0.0-11.0-1.40","null","<p>A másik játékos ezt választotta: <b>posoztok</b>.</p><p>&#x2705;</p><p>A te válaszod és a másik játékos válasza <b>megegyeznek</b>.</p>","null","","","","feedback trial","",""
"html-button-response-esp","93","648949","0.0-11.0-0.41","5615","János imád brülösözni, ezért sokat brülöslik. Mi ritkán...","0","brülösözünk","[""brülösözünk"",""brülöslünk""]","brülösözünk","esp trial","6","true"
"html-button-response","94","652475","0.0-11.0-1.41","null","<p>A másik játékos ezt választotta: <b>brülösözünk</b>.</p><p>&#x2705;</p><p>A te válaszod és a másik játékos válasza <b>megegyeznek</b>.</p>","null","","","","feedback trial","",""
"html-button-response-esp","95","660892","0.0-11.0-0.42","6331","János imád spiharozni, ezért sokat spiharzik. Ti ritkán...","0","spiharoztok","[""spiharoztok"",""spiharzotok""]","spiharzotok","esp trial","6","false"
"html-button-response","96","664409","0.0-11.0-1.42","null","<p>A másik játékos ezt választotta: <b>spiharzotok</b>.</p><p>&#10060;</p><p>A válaszaitok <b>nem</b> egyeznek meg.</p>","null","","","","feedback trial","",""
"html-button-response-esp","97","673472","0.0-11.0-0.43","8560","János imád bratározni, ezért sokat bratárzik. Ők ritkán...","1","bratárzanak","[""bratároznak"",""bratárzanak""]","bratárzanak","esp trial","6","true"
"html-button-response","98","676993","0.0-11.0-1.43","null","<p>A másik játékos ezt választotta: <b>bratárzanak</b>.</p><p>&#x2705;</p><p>A te válaszod és a másik játékos válasza <b>megegyeznek</b>.</p>","null","","","","feedback trial","",""
"html-button-response-esp","99","685416","0.0-11.0-0.44","6025","János imád klehényezni, ezért sokat klehénylik. Ti ritkán...","1","klehényeztek","[""klehényletek"",""klehényeztek""]","klehényeztek","esp trial","6","true"
"html-button-response","100","688942","0.0-11.0-1.44","null","<p>A másik játékos ezt választotta: <b>klehényeztek</b>.</p><p>&#x2705;</p><p>A te válaszod és a másik játékos válasza <b>megegyeznek</b>.</p>","null","","","","feedback trial","",""
"html-button-response-esp","101","697359","0.0-11.0-0.45","6376","János imád sprűrözni, ezért sokat sprűrlik. Ők ritkán...","0","sprűrlenek","[""sprűrlenek"",""sprűröznek""]","sprűröznek","esp trial","6","false"
"html-button-response","102","700874","0.0-11.0-1.45","null","<p>A másik játékos ezt választotta: <b>sprűröznek</b>.</p><p>&#10060;</p><p>A válaszaitok <b>nem</b> egyeznek meg.</p>","null","","","","feedback trial","",""
"html-button-response-esp","103","709281","0.0-11.0-0.46","6156","János imád dabozni, ezért sokat dabzik. Ti ritkán...","1","daboztok","[""dabzotok"",""daboztok""]","daboztok","esp trial","6","true"
"html-button-response","104","712806","0.0-11.0-1.46","null","<p>A másik játékos ezt választotta: <b>daboztok</b>.</p><p>&#x2705;</p><p>A te válaszod és a másik játékos válasza <b>megegyeznek</b>.</p>","null","","","","feedback trial","",""
"html-button-response-esp","105","721206","0.0-11.0-0.47","6491","János imád trugozni, ezért sokat trugzik. Ők ritkán...","1","trugoznak","[""trugzanak"",""trugoznak""]","trugzanak","esp trial","6","false"
"html-button-response","106","724733","0.0-11.0-1.47","null","<p>A másik játékos ezt választotta: <b>trugzanak</b>.</p><p>&#10060;</p><p>A válaszaitok <b>nem</b> egyeznek meg.</p>","null","","","","feedback trial","",""
"html-button-response-esp","107","733154","0.0-11.0-0.48","7216","János imád frálapodni, ezért sokat frálapszik. Ti ritkán...","0","frálapszotok","[""frálapszotok"",""frálapodtok""]","frálapodtok","esp trial","6","false"
"html-button-response","108","736681","0.0-11.0-1.48","null","<p>A másik játékos ezt választotta: <b>frálapodtok</b>.</p><p>&#10060;</p><p>A válaszaitok <b>nem</b> egyeznek meg.</p>","null","","","","feedback trial","",""
"html-button-response-esp","109","745080","0.0-11.0-0.49","6318","János imád dirozni, ezért sokat dirlik. Ti ritkán...","1","dirlotok","[""diroztok"",""dirlotok""]","diroztok","esp trial","6","false"
"html-button-response","110","748596","0.0-11.0-1.49","null","<p>A másik játékos ezt választotta: <b>diroztok</b>.</p><p>&#10060;</p><p>A válaszaitok <b>nem</b> egyeznek meg.</p>","null","","","","feedback trial","",""
"html-button-response-esp","111","757002","0.0-11.0-0.50","7166","János imád nyivágozni, ezért sokat nyivágzik. Mi ritkán...","1","nyivágozunk","[""nyivágzunk"",""nyivágozunk""]","nyivágozunk","esp trial","6","true"
"html-button-response","112","760529","0.0-11.0-1.50","null","<p>A másik játékos ezt választotta: <b>nyivágozunk</b>.</p><p>&#x2705;</p><p>A te válaszod és a másik játékos válasza <b>megegyeznek</b>.</p>","null","","","","feedback trial","",""
"html-button-response-esp","113","768952","0.0-11.0-0.51","6876","János imád frálasozni, ezért sokat frálaslik. Ők ritkán...","0","frálasoznak","[""frálasoznak"",""frálaslanak""]","frálasoznak","esp trial","6","true"
"html-button-response","114","772477","0.0-11.0-1.51","null","<p>A másik játékos ezt választotta: <b>frálasoznak</b>.</p><p>&#x2705;</p><p>A te válaszod és a másik játékos válasza <b>megegyeznek</b>.</p>","null","","","","feedback trial","",""
"html-button-response-esp","115","780878","0.0-11.0-0.52","6125","János imád köszözni, ezért sokat köszlik. Ti ritkán...","1","köszlötök","[""köszöztök"",""köszlötök""]","köszlötök","esp trial","6","true"
"html-button-response","116","784392","0.0-11.0-1.52","null","<p>A másik játékos ezt választotta: <b>köszlötök</b>.</p><p>&#x2705;</p><p>A te válaszod és a másik játékos válasza <b>megegyeznek</b>.</p>","null","","","","feedback trial","",""
"html-button-response-esp","117","792799","0.0-11.0-0.53","6675","János imád gihejezni, ezért sokat gihejlik. Mi ritkán...","0","gihejezünk","[""gihejezünk"",""gihejlünk""]","gihejezünk","esp trial","6","true"
"html-button-response","118","796325","0.0-11.0-1.53","null","<p>A másik játékos ezt választotta: <b>gihejezünk</b>.</p><p>&#x2705;</p><p>A te válaszod és a másik játékos válasza <b>megegyeznek</b>.</p>","null","","","","feedback trial","",""
"html-button-response","119","808740","0.0-12.0","11912","<p>A közös játék most véget ért.</p><p>Mielőtt eláruljuk a végső pontszámodat, arra kérlek, játszd a szóválasztós játékot néhány percig egyedül is.</p><p>A feladatod ugyanaz lesz, választani két lehetőség közül.</p><p>Most viszont egyedül kell döntened, hogy te melyiket választanád.</p>","0","","","","","",""
"html-button-response-clever","120","814897","0.0-13.0-0.0","5651","János imád gyivepedni, ezért sokat gyivepszik. Ők ritkán...","0","gyivepszenek","[""gyivepszenek"",""gyivepednek""]","","posttest trial","8",""
"html-button-response-clever","121","821990","0.0-13.0-0.1","6580","János imád tűgözni, ezért sokat tűgzik. Ti ritkán...","0","tűgöztök","[""tűgöztök"",""tűgzötök""]","","posttest trial","8",""
"html-button-response-clever","122","832603","0.0-13.0-0.2","10108","János imád flubokozni, ezért sokat fluboklik. Ti ritkán...","1","fluboklotok","[""flubokoztok"",""fluboklotok""]","","posttest trial","8",""
"html-button-response-clever","123","840216","0.0-13.0-0.3","7116","János imád spöközni, ezért sokat spöklik. Mi ritkán...","1","spöklünk","[""spöközünk"",""spöklünk""]","","posttest trial","8",""
"html-button-response-clever","124","848094","0.0-13.0-0.4","7373","János imád nágapodni, ezért sokat nágapszik. Ők ritkán...","0","nágapszanak","[""nágapszanak"",""nágapodnak""]","","posttest trial","8",""
"html-button-response-clever","125","856149","0.0-13.0-0.5","7542","János imád pehégedni, ezért sokat pehégszik. Ti ritkán...","1","pehégszetek","[""pehégedtek"",""pehégszetek""]","","posttest trial","8",""
"html-button-response-clever","126","865840","0.0-13.0-0.6","9177","János imád filányozni, ezért sokat filánylik. Mi ritkán...","0","filánylunk","[""filánylunk"",""filányozunk""]","","posttest trial","8",""
"html-button-response-clever","127","870525","0.0-13.0-0.7","4170","János imád hákodni, ezért sokat hákszik. Ők ritkán...","0","hákszanak","[""hákszanak"",""hákodnak""]","","posttest trial","8",""
"html-button-response-clever","128","876743","0.0-13.0-0.8","5708","János imád mísozni, ezért sokat míslik. Mi ritkán...","1","míslunk","[""mísozunk"",""míslunk""]","","posttest trial","8",""
"html-button-response-clever","129","882661","0.0-13.0-0.9","5410","János imád pekedni, ezért sokat pekszik. Mi ritkán...","0","pekszünk","[""pekszünk"",""pekedünk""]","","posttest trial","8",""
"html-button-response-clever","130","889794","0.0-13.0-0.10","6626","János imád tibarozni, ezért sokat tibarzik. Ők ritkán...","1","tibarzanak","[""tibaroznak"",""tibarzanak""]","","posttest trial","8",""
"html-button-response-clever","131","895055","0.0-13.0-0.11","4753","János imád prazozni, ezért sokat prazlik. Mi ritkán...","1","prazlunk","[""prazozunk"",""prazlunk""]","","posttest trial","8",""
"html-button-response-clever","132","901185","0.0-13.0-0.12","5617","János imád brivepedni, ezért sokat brivepszik. Mi ritkán...","1","brivepszünk","[""brivepedünk"",""brivepszünk""]","","posttest trial","8",""
"html-button-response-clever","133","907760","0.0-13.0-0.13","6059","János imád frihegezni, ezért sokat friheglik. Mi ritkán...","1","friheglünk","[""frihegezünk"",""friheglünk""]","","posttest trial","8",""
"html-button-response-clever","134","912753","0.0-13.0-0.14","4484","János imád küsözni, ezért sokat küslik. Mi ritkán...","1","küslünk","[""küsözünk"",""küslünk""]","","posttest trial","8",""
"html-button-response-clever","135","919569","0.0-13.0-0.15","6302","János imád flivegezni, ezért sokat flivegzik. Ők ritkán...","0","flivegzenek","[""flivegzenek"",""flivegeznek""]","","posttest trial","8",""
"html-button-response-clever","136","927039","0.0-13.0-0.16","6955","János imád riványozni, ezért sokat riványlik. Ti ritkán...","0","riványlotok","[""riványlotok"",""riványoztok""]","","posttest trial","8",""
"html-button-response-clever","137","939174","0.0-13.0-0.17","11619","János imád sztritozni, ezért sokat sztritlik. Ők ritkán...","1","sztritoznak","[""sztritlanak"",""sztritoznak""]","","posttest trial","8",""
"html-button-response-clever","138","948686","0.0-13.0-0.18","8999","János imád spalározni, ezért sokat spalárzik. Ők ritkán...","0","spalároznak","[""spalároznak"",""spalárzanak""]","","posttest trial","8",""
"html-button-response-clever","139","951500","0.0-13.0-0.19","2305","János imád gibemezni, ezért sokat gibemlik. Mi ritkán...","0","gibemezünk","[""gibemezünk"",""gibemlünk""]","","posttest trial","8",""
"html-button-response-clever","140","954516","0.0-13.0-0.20","2498","János imád galározni, ezért sokat galárzik. Ők ritkán...","1","galárzanak","[""galároznak"",""galárzanak""]","","posttest trial","8",""
"html-button-response-clever","141","957102","0.0-13.0-0.21","2074","János imád drivegezni, ezért sokat drivegzik. Ti ritkán...","1","drivegzetek","[""drivegeztek"",""drivegzetek""]","","posttest trial","8",""
"html-button-response-clever","142","961252","0.0-13.0-0.22","3622","János imád brüszözni, ezért sokat brüszlik. Ti ritkán...","0","brüszlötök","[""brüszlötök"",""brüszöztök""]","","posttest trial","8",""
"html-button-response-clever","143","968673","0.0-13.0-0.23","6916","János imád flézezni, ezért sokat flézlik. Ti ritkán...","0","flézeztek","[""flézeztek"",""flézletek""]","","posttest trial","8",""
"html-button-response-clever","144","974881","0.0-13.0-0.24","5703","János imád brálamozni, ezért sokat brálamlik. Ők ritkán...","1","brálamoznak","[""brálamlanak"",""brálamoznak""]","","posttest trial","8",""
"html-button-response-clever","145","983495","0.0-13.0-0.25","8102","János imád sprigozni, ezért sokat sprigzik. Ti ritkán...","0","sprigoztok","[""sprigoztok"",""sprigzotok""]","","posttest trial","8",""
"html-button-response-clever","146","990001","0.0-13.0-0.26","6002","János imád kluzozni, ezért sokat kluzlik. Ti ritkán...","0","kluzlotok","[""kluzlotok"",""kluzoztok""]","","posttest trial","8",""
"html-button-response-clever","147","995781","0.0-13.0-0.27","5268","János imád frésezni, ezért sokat fréslik. Mi ritkán...","0","fréslünk","[""fréslünk"",""frésezünk""]","","posttest trial","8",""
"html-button-response-clever","148","1002386","0.0-13.0-0.28","6102","János imád sprimozni, ezért sokat sprimlik. Mi ritkán...","1","sprimlunk","[""sprimozunk"",""sprimlunk""]","","posttest trial","8",""
"html-button-response-clever","149","1008095","0.0-13.0-0.29","5194","János imád fröjözni, ezért sokat fröjlik. Mi ritkán...","1","fröjözünk","[""fröjlünk"",""fröjözünk""]","","posttest trial","8",""
"html-button-response-clever","150","1015836","0.0-13.0-0.30","7235","János imád tágarozni, ezért sokat tágarzik. Mi ritkán...","1","tágarozunk","[""tágarzunk"",""tágarozunk""]","","posttest trial","8",""
"html-button-response-clever","151","1021928","0.0-13.0-0.31","5588","János imád pörözni, ezért sokat pörzik. Ti ritkán...","1","pöröztök","[""pörzötök"",""pöröztök""]","","posttest trial","8",""
"html-button-response-clever","152","1028794","0.0-13.0-0.32","6354","János imád drojozni, ezért sokat drojzik. Mi ritkán...","0","drojozunk","[""drojozunk"",""drojzunk""]","","posttest trial","8",""
"html-button-response-clever","153","1040044","0.0-13.0-0.33","10735","János imád sztrajozni, ezért sokat sztrajlik. Ők ritkán...","0","sztrajoznak","[""sztrajoznak"",""sztrajlanak""]","","posttest trial","8",""
"html-button-response-clever","154","1045923","0.0-13.0-0.34","5368","János imád sponyozni, ezért sokat sponylik. Ők ritkán...","0","sponylanak","[""sponylanak"",""sponyoznak""]","","posttest trial","8",""
"html-button-response-clever","155","1050230","0.0-13.0-0.35","3792","János imád prilepedni, ezért sokat prilepszik. Mi ritkán...","0","prilepszünk","[""prilepszünk"",""prilepedünk""]","","posttest trial","8",""
"html-button-response-clever","156","1053722","0.0-13.0-0.36","2990","János imád vobozni, ezért sokat vobzik. Ti ritkán...","0","vobzotok","[""vobzotok"",""voboztok""]","","posttest trial","8",""
"html-button-response-clever","157","1056886","0.0-13.0-0.37","2646","János imád gatágozni, ezért sokat gatáglik. Mi ritkán...","1","gatáglunk","[""gatágozunk"",""gatáglunk""]","","posttest trial","8",""
"html-button-response-clever","158","1058258","0.0-13.0-0.38","857","János imád trírozni, ezért sokat trírzik. Mi ritkán...","1","trírozunk","[""trírzunk"",""trírozunk""]","","posttest trial","8",""
"html-button-response-clever","159","1059889","0.0-13.0-0.39","1118","János imád spibamozni, ezért sokat spibamlik. Ők ritkán...","0","spibamlanak","[""spibamlanak"",""spibamoznak""]","","posttest trial","8",""
"html-button-response-clever","160","1062445","0.0-13.0-0.40","2054","János imád mihágozni, ezért sokat mihágzik. Ti ritkán...","0","mihágoztok","[""mihágoztok"",""mihágzotok""]","","posttest trial","8",""
"html-button-response-clever","161","1064724","0.0-13.0-0.41","1775","János imád brilegezni, ezért sokat brilegzik. Mi ritkán...","1","brilegezünk","[""brilegzünk"",""brilegezünk""]","","posttest trial","8",""
"html-button-response-clever","162","1067618","0.0-13.0-0.42","2379","János imád livényezni, ezért sokat livénylik. Mi ritkán...","1","livényezünk","[""livénylünk"",""livényezünk""]","","posttest trial","8",""
"html-button-response-clever","163","1070880","0.0-13.0-0.43","2751","János imád tribejezni, ezért sokat tribejlik. Ti ritkán...","0","tribejeztek","[""tribejeztek"",""tribejletek""]","","posttest trial","8",""
"html-button-response-clever","164","1073041","0.0-13.0-0.44","1653","János imád brivágozni, ezért sokat briváglik. Ők ritkán...","1","briváglanak","[""brivágoznak"",""briváglanak""]","","posttest trial","8",""
"html-button-response-clever","165","1075018","0.0-13.0-0.45","1474","János imád klarágozni, ezért sokat klarágzik. Ti ritkán...","0","klarágoztok","[""klarágoztok"",""klarágzotok""]","","posttest trial","8",""
"html-button-response-clever","166","1076571","0.0-13.0-0.46","1039","János imád brározni, ezért sokat brárlik. Ők ritkán...","0","brárlanak","[""brárlanak"",""brároznak""]","","posttest trial","8",""
"html-button-response-clever","167","1078262","0.0-13.0-0.47","1175","János imád dirányozni, ezért sokat diránylik. Ők ritkán...","1","diránylanak","[""dirányoznak"",""diránylanak""]","","posttest trial","8",""
"html-button-response-clever","168","1080624","0.0-13.0-0.48","1845","János imád lumozni, ezért sokat lumlik. Ti ritkán...","0","lumoztok","[""lumoztok"",""lumlotok""]","","posttest trial","8",""
"html-button-response-clever","169","1082524","0.0-13.0-0.49","1389","János imád frivamozni, ezért sokat frivamlik. Mi ritkán...","0","frivamozunk","[""frivamozunk"",""frivamlunk""]","","posttest trial","8",""
"html-button-response-clever","170","1083758","0.0-13.0-0.50","717","János imád lírozni, ezért sokat lírlik. Ők ritkán...","0","lírlanak","[""lírlanak"",""líroznak""]","","posttest trial","8",""
"html-button-response-clever","171","1084991","0.0-13.0-0.51","731","János imád míjozni, ezért sokat míjzik. Mi ritkán...","0","míjzunk","[""míjzunk"",""míjozunk""]","","posttest trial","8",""
"html-button-response-clever","172","1086503","0.0-13.0-0.52","1006","János imád bregezni, ezért sokat bregzik. Mi ritkán...","1","bregzünk","[""bregezünk"",""bregzünk""]","","posttest trial","8",""
"html-button-response-clever","173","1088344","0.0-13.0-0.53","1326","János imád trűnyözni, ezért sokat trűnylik. Ők ritkán...","1","trűnyöznek","[""trűnylenek"",""trűnyöznek""]","","posttest trial","8",""
"html-button-response","174","1107273","0.0-14.0","18416","<p> Vége a játéknak. A teljes pontszámod 32/54.</p><p> Szép munka! &#128526;&#128526;&#128526;</p><p>A Befejezés gomb megnyomása után bezárhatod a böngészőablakot.</p>","0","","","","","",""
"html-keyboard-response","175","1112802","0.0-15.0","null","<div class=""message"">
         <p>Egy kis türelmet kérünk, amíg elmentjük az adatokat...</p>
         </div>","null","","","","","",""
