"trial_type","trial_index","time_elapsed","internal_node_id","rt","stimulus","response","response_string","choices","esp_response","trial_kind","list_number","esp_match"
"pavlovia","0","10994","0.0-0.0","","","","","","","","",""
"html-button-response","1","211640","0.0-1.0","199254","<p>Kedves Résztvevő! A Budapesti Műszaki és Gazdaságtudományi Egyetem Kognitív Tudományi Tanszékének kutatásában való részvételed kérjük. A kutatásban azt vizsgáljuk, hogy a magyar anyanyelvűek hogyan használnak bizonyos szóalakokat, és hogy milyen képük van arról, hogy mások hogyan használják, hogyan képzik a szavakat. Ez hozzásegít bennünket ahhoz, hogy jobban megértsük, hogyan dolgozza fel és tárolja a nyelvet az emberi agy, és hogyan működnek, hogyan változnak egy adott közösség nyelvi konvenciói.</p><p>A vizsgálat egy rövid számítógépes feladatból fog állni. A kutatásban való részvétel önkéntes, a részvételi szándék bármikor visszavonható. A résztvevők eredményeit név nélkül kezeljük, így nem beazonosíthatók az adatok feldolgozása során. Minden személyes adatot az EU általános adatvédelmi rendeletének (GDPR) megfelelően kezelünk és legfeljebb öt éven belül megsemmisítünk. A vizsgálat jellemzően húsz percet vesz igénybe.</p><p>Kutatásvezető:</p><p>Dr. Rácz Péter, tudományos munkatárs, BME KTT</p><p>e-mail: racz.peter.marton@ttk.bme.hu</p>","0","","","","","",""
"html-button-response","2","283605","0.0-2.0","71458","<p>A kísérletben szavakat fogsz látni. Ezek között lesznek olyanok, amelyeket ismersz, de előfordulhatnak olyanok is, amelyeket nem ismersz, sőt, vannak köztük kitalált szavak is. Minden szónál látni fogsz toldalékolt alakokat. A te feladatod az lesz, hogy minden szóhoz kiválaszd azt a toldalékolt alakot, amely a te számodra ismerősebben, természetesebben hangzik. Rossz válaszok nincsenek, mert van olyan, hogy különböző embereknek más és más szó tűnik jobb választásnak. A választ úgy tudod majd kiválasztani, ha rákattintasz.</p><p>Ebben a szóválasztós játékban egy másik játékossal együtt veszel majd részt. A másik játékos is minden esetben azok közül a lehetőségek közül válogathat, mint te. Kettőtök feladata az, hogy ugyanazt a lehetőséget válasszátok minden esetben. Ahhoz, hogy ez sikerüljön, neked figyelned kell arra, hogy a másik játékos milyen válaszokat ad, és ennek alapján meg kell tippelned, hogyan választ legközelebb. Ha eltalálod, akkor pontot kapsz.</p>","0","","","","","",""
"html-button-response","3","355018","0.0-3.0","70909","<p>Kérjük, olvasd el az alábbi nyilatkozatot, és amennyiben egyetértesz vele, nyomj a Beleegyezés gombra!</p><p>Kijelentem, hogy magyar anyanyelvű személyként önként veszek részt a BME KTT kísérletében. A kutatás céljával és folyamatával kapcsolatban elegendő tájékoztatást kaptam, lehetőségem volt kérdések feltételére, és esetleges kérdéseimre megfelelő válaszokat kaptam. A tájékoztatás alapján elegendő mennyiségű információ áll a rendelkezésemre, hogy eldönthessem, részt kívánok-e venni a kutatásban.</p><p>Tisztában vagyok vele, hogy részvételi szándékomat és adataimat bármikor, indoklás nélkül visszavonhatom.</p><p>Értem és tudomásul veszem, hogy a kutatás tudományos célokat szolgál, és az általam szolgáltatott adatokat a BME kizárólag kutatási célból használja fel. Tudomásul veszem, hogy eredményeimet a többi résztvevő eredményeivel együtt kezelik, így egyéni teljesítményemről visszajelzést, szakvéleményt nem kapok.</p><p>Megértettem, hogy adataim kezelését illetően a BME az EU általános adatvédelmi rendelete (GDPR), a hatályos adatvédelmi törvény és a nemzetközi kutatás-etikai alapelvek szerint jár el. Eredményeim anonim módon kerülnek feldolgozásra, és a kutatás résztvevői az azonosításomra alkalmas adataimat harmadik félnek nem szolgáltatják ki. Engedélyezem a BME számára a jelen kutatásban felvett adataim feldolgozását és tárolását, beleértve azok későbbi kutatásokhoz való felhasználását is. Személyes adataim kezelésével kapcsolatban tájékoztatást kérhetek a kutatás résztvevőitől, az adatkezelés ellen tiltakozhatok, kérhetem személyes adataim helyesbítését, törlését vagy zárolását, valamint jogorvoslatért a Nemzeti Adatvédelmi és Információszabadság Hatósághoz fordulhatok.</p><p>Kijelentem, hogy a kutatásban való részvételem körülményeiről részletes tájékoztatást kaptam, és a feltételeket elfogadom.</p>","0","","","","","",""
"survey-text","4","421211","0.0-4.0","65681","","{""Q0"":""GPRLJY"",""Q1"":"""",""Q2"":""2000"",""Q3"":""16""}","","","","","",""
"html-button-response","5","443950","0.0-5.0","22230","<p>Ebben a játékban szavakat kell toldalékolni.</p> <p>Minden körben mutatunk majd egy példamondatot, amiben lesz egy szó.</p> <p>Alatta jön egy második mondat, ezt a mondatot neked kell majd befejezni, ugyanezzel a szóval.</p> <p>Nem biztos, hogy a szó eleve ismerős lesz számodra!</p> <p>Minden mondathoz adunk két lehetőséget, ezeket balra és jobbra látod majd.</p> <p>A játék kb. negyedóráig-húsz percig tart.</p>","0","","","","","",""
"html-button-response","6","459364","0.0-6.0","14908","<p>Nézzünk egy példát!</p> <p>A példamondat: ""János imád fláramolni, ezért sokat fláramlik.""</p><p>Neked ezt a mondatot kell befejezned: ""Ti ritkán...""</p><p>A lehetőségek pedig ezek:</p>","0","","","","","",""
"html-button-response","7","466551","0.0-7.0","6679","<p>Nagyon jó.</p><p>Ezt a játékot nem egyedül fogod játszani, hanem egy másik játékossal.</p><p>Mielőtt továbblépünk, összekapcsolunk titeket egymással.</p><p>Ez igénybe vehet néhány másodpercet, amihez szíves türelmed kérjük.</p>","0","","","","","",""
"html-button-response","8","472279","0.0-8.0","null","<p>Csatlakozás a másik játékoshoz...</p>","null","","","","","",""
"html-button-response","9","474791","0.0-9.0","null","<p> Sikeres kapcsolódás!</p>","null","","","","","",""
"html-button-response","10","485304","0.0-10.0","null","<p>A következőkben ketten játsszátok a szóválasztós játékot.</p><p>A feladatotok az lesz, hogy minden körben <b>ugyanazt</b> a szót válasszátok.</p><p>Minden ilyen egyező válaszért pontot kaptok.</p><p>Próbáld meg kitalálni, mit választ a másik játékos!</p><p>Bármikor választhatsz, a körnek akkor van vége, ha mindketten döntöttetek.</p><p>Sok sikert!</p>","null","","","","","",""
"html-button-response-esp","11","492562","0.0-11.0-0.0","6752","János imád nyülöközni, ezért sokat nyülöklik. Ők ritkán...","0","nyülököznek","[""nyülököznek"",""nyülöklenek""]","nyülököznek","esp trial","2","true"
"html-button-response","12","496072","0.0-11.0-1.0","null","<p>A másik játékos ezt választotta: <b>nyülököznek</b>.</p><p>&#x2705;</p><p>A te válaszod és a másik játékos válasza <b>megegyeznek</b>.</p>","null","","","","feedback trial","",""
"html-button-response-esp","13","501708","0.0-11.0-0.1","5130","János imád trálakozni, ezért sokat trálaklik. Ők ritkán...","0","trálakoznak","[""trálakoznak"",""trálaklanak""]","trálakoznak","esp trial","2","true"
"html-button-response","14","505224","0.0-11.0-1.1","null","<p>A másik játékos ezt választotta: <b>trálakoznak</b>.</p><p>&#x2705;</p><p>A te válaszod és a másik játékos válasza <b>megegyeznek</b>.</p>","null","","","","feedback trial","",""
"html-button-response-esp","15","510295","0.0-11.0-0.2","4567","János imád spuborozni, ezért sokat spuborzik. Ők ritkán...","1","spuboroznak","[""spuborzanak"",""spuboroznak""]","spuborzanak","esp trial","2","false"
"html-button-response","16","513808","0.0-11.0-1.2","null","<p>A másik játékos ezt választotta: <b>spuborzanak</b>.</p><p>&#10060;</p><p>A válaszaitok <b>nem</b> egyeznek meg.</p>","null","","","","feedback trial","",""
"html-button-response-esp","17","519149","0.0-11.0-0.3","4837","János imád játozni, ezért sokat játlik. Mi ritkán...","1","játlunk","[""játozunk"",""játlunk""]","játozunk","esp trial","2","false"
"html-button-response","18","522664","0.0-11.0-1.3","null","<p>A másik játékos ezt választotta: <b>játozunk</b>.</p><p>&#10060;</p><p>A válaszaitok <b>nem</b> egyeznek meg.</p>","null","","","","feedback trial","",""
"html-button-response-esp","19","532212","0.0-11.0-0.4","9044","János imád bribasozni, ezért sokat bribaslik. Ők ritkán...","0","bribaslanak","[""bribaslanak"",""bribasoznak""]","bribaslanak","esp trial","2","true"
"html-button-response","20","535729","0.0-11.0-1.4","null","<p>A másik játékos ezt választotta: <b>bribaslanak</b>.</p><p>&#x2705;</p><p>A te válaszod és a másik játékos válasza <b>megegyeznek</b>.</p>","null","","","","feedback trial","",""
"html-button-response-esp","21","541058","0.0-11.0-0.5","4825","János imád hubonyozni, ezért sokat hubonylik. Ti ritkán...","0","hubonylotok","[""hubonylotok"",""hubonyoztok""]","hubonylotok","esp trial","2","true"
"html-button-response","22","544569","0.0-11.0-1.5","null","<p>A másik játékos ezt választotta: <b>hubonylotok</b>.</p><p>&#x2705;</p><p>A te válaszod és a másik játékos válasza <b>megegyeznek</b>.</p>","null","","","","feedback trial","",""
"html-button-response-esp","23","550149","0.0-11.0-0.6","5075","János imád trálodni, ezért sokat trálszik. Mi ritkán...","1","trálszunk","[""trálodunk"",""trálszunk""]","trálodunk","esp trial","2","false"
"html-button-response","24","553666","0.0-11.0-1.6","null","<p>A másik játékos ezt választotta: <b>trálodunk</b>.</p><p>&#10060;</p><p>A válaszaitok <b>nem</b> egyeznek meg.</p>","null","","","","feedback trial","",""
"html-button-response-esp","25","558281","0.0-11.0-0.7","3894","János imád flodozni, ezért sokat flodlik. Ti ritkán...","1","flodlotok","[""flodoztok"",""flodlotok""]","flodlotok","esp trial","2","true"
"html-button-response","26","561793","0.0-11.0-1.7","null","<p>A másik játékos ezt választotta: <b>flodlotok</b>.</p><p>&#x2705;</p><p>A te válaszod és a másik játékos válasza <b>megegyeznek</b>.</p>","null","","","","feedback trial","",""
"html-button-response-esp","27","569198","0.0-11.0-0.8","6900","János imád metégedni, ezért sokat metégszik. Ők ritkán...","1","metégednek","[""metégszenek"",""metégednek""]","metégednek","esp trial","2","true"
"html-button-response","28","572714","0.0-11.0-1.8","null","<p>A másik játékos ezt választotta: <b>metégednek</b>.</p><p>&#x2705;</p><p>A te válaszod és a másik játékos válasza <b>megegyeznek</b>.</p>","null","","","","feedback trial","",""
"html-button-response-esp","29","578244","0.0-11.0-0.9","5025","János imád sűjözni, ezért sokat sűjlik. Mi ritkán...","1","sűjözünk","[""sűjlünk"",""sűjözünk""]","sűjözünk","esp trial","2","true"
"html-button-response","30","581753","0.0-11.0-1.9","null","<p>A másik játékos ezt választotta: <b>sűjözünk</b>.</p><p>&#x2705;</p><p>A te válaszod és a másik játékos válasza <b>megegyeznek</b>.</p>","null","","","","feedback trial","",""
"html-button-response-esp","31","588237","0.0-11.0-0.10","5979","János imád pibegezni, ezért sokat pibegzik. Ők ritkán...","0","pibegeznek","[""pibegeznek"",""pibegzenek""]","pibegzenek","esp trial","2","false"
"html-button-response","32","591747","0.0-11.0-1.10","null","<p>A másik játékos ezt választotta: <b>pibegzenek</b>.</p><p>&#10060;</p><p>A válaszaitok <b>nem</b> egyeznek meg.</p>","null","","","","feedback trial","",""
"html-button-response-esp","33","598356","0.0-11.0-0.11","6106","János imád frorozni, ezért sokat frorlik. Ők ritkán...","1","froroznak","[""frorlanak"",""froroznak""]","froroznak","esp trial","2","true"
"html-button-response","34","601866","0.0-11.0-1.11","null","<p>A másik játékos ezt választotta: <b>froroznak</b>.</p><p>&#x2705;</p><p>A te válaszod és a másik játékos válasza <b>megegyeznek</b>.</p>","null","","","","feedback trial","",""
"html-button-response-esp","35","610387","0.0-11.0-0.12","8016","János imád dralágozni, ezért sokat dralágzik. Mi ritkán...","0","dralágzunk","[""dralágzunk"",""dralágozunk""]","dralágozunk","esp trial","2","false"
"html-button-response","36","613899","0.0-11.0-1.12","null","<p>A másik játékos ezt választotta: <b>dralágozunk</b>.</p><p>&#10060;</p><p>A válaszaitok <b>nem</b> egyeznek meg.</p>","null","","","","feedback trial","",""
"html-button-response-esp","37","620402","0.0-11.0-0.13","5999","János imád frirozni, ezért sokat frirzik. Mi ritkán...","0","frirzunk","[""frirzunk"",""frirozunk""]","frirzunk","esp trial","2","true"
"html-button-response","38","623915","0.0-11.0-1.13","null","<p>A másik játékos ezt választotta: <b>frirzunk</b>.</p><p>&#x2705;</p><p>A te válaszod és a másik játékos válasza <b>megegyeznek</b>.</p>","null","","","","feedback trial","",""
"html-button-response-esp","39","633629","0.0-11.0-0.14","9210","János imád vilesezni, ezért sokat vileslik. Mi ritkán...","0","vileslünk","[""vileslünk"",""vilesezünk""]","vilesezünk","esp trial","2","false"
"html-button-response","40","637139","0.0-11.0-1.14","null","<p>A másik játékos ezt választotta: <b>vilesezünk</b>.</p><p>&#10060;</p><p>A válaszaitok <b>nem</b> egyeznek meg.</p>","null","","","","feedback trial","",""
"html-button-response-esp","41","644613","0.0-11.0-0.15","6970","János imád brürözni, ezért sokat brürzik. Ők ritkán...","1","brürzenek","[""brüröznek"",""brürzenek""]","brüröznek","esp trial","2","false"
"html-button-response","42","648123","0.0-11.0-1.15","null","<p>A másik játékos ezt választotta: <b>brüröznek</b>.</p><p>&#10060;</p><p>A válaszaitok <b>nem</b> egyeznek meg.</p>","null","","","","feedback trial","",""
"html-button-response-esp","43","654981","0.0-11.0-0.16","6354","János imád dibágozni, ezért sokat dibáglik. Ti ritkán...","1","dibágoztok","[""dibáglotok"",""dibágoztok""]","dibágoztok","esp trial","2","true"
"html-button-response","44","658492","0.0-11.0-1.16","null","<p>A másik játékos ezt választotta: <b>dibágoztok</b>.</p><p>&#x2705;</p><p>A te válaszod és a másik játékos válasza <b>megegyeznek</b>.</p>","null","","","","feedback trial","",""
"html-button-response-esp","45","668372","0.0-11.0-0.17","9376","János imád klihasozni, ezért sokat klihaslik. Ti ritkán...","1","klihasoztok","[""klihaslotok"",""klihasoztok""]","klihaslotok","esp trial","2","false"
"html-button-response","46","671884","0.0-11.0-1.17","null","<p>A másik játékos ezt választotta: <b>klihaslotok</b>.</p><p>&#10060;</p><p>A válaszaitok <b>nem</b> egyeznek meg.</p>","null","","","","feedback trial","",""
"html-button-response-esp","47","676562","0.0-11.0-0.18","4173","János imád frinyozni, ezért sokat frinylik. Mi ritkán...","0","frinyozunk","[""frinyozunk"",""frinylunk""]","frinyozunk","esp trial","2","true"
"html-button-response","48","680076","0.0-11.0-1.18","null","<p>A másik játékos ezt választotta: <b>frinyozunk</b>.</p><p>&#x2705;</p><p>A te válaszod és a másik játékos válasza <b>megegyeznek</b>.</p>","null","","","","feedback trial","",""
"html-button-response-esp","49","693849","0.0-11.0-0.19","13269","János imád hiragozni, ezért sokat hiragzik. Ők ritkán...","1","hiragzanak","[""hiragoznak"",""hiragzanak""]","hiragoznak","esp trial","2","false"
"html-button-response","50","697364","0.0-11.0-1.19","null","<p>A másik játékos ezt választotta: <b>hiragoznak</b>.</p><p>&#10060;</p><p>A válaszaitok <b>nem</b> egyeznek meg.</p>","null","","","","feedback trial","",""
"html-button-response-esp","51","704585","0.0-11.0-0.20","6716","János imád sprebezni, ezért sokat sprebzik. Ők ritkán...","0","sprebeznek","[""sprebeznek"",""sprebzenek""]","sprebeznek","esp trial","2","true"
"html-button-response","52","708100","0.0-11.0-1.20","null","<p>A másik játékos ezt választotta: <b>sprebeznek</b>.</p><p>&#x2705;</p><p>A te válaszod és a másik játékos válasza <b>megegyeznek</b>.</p>","null","","","","feedback trial","",""
"html-button-response-esp","53","712905","0.0-11.0-0.21","4300","János imád flugonyozni, ezért sokat flugonylik. Ők ritkán...","1","flugonylanak","[""flugonyoznak"",""flugonylanak""]","flugonyoznak","esp trial","2","false"
"html-button-response","54","716421","0.0-11.0-1.21","null","<p>A másik játékos ezt választotta: <b>flugonyoznak</b>.</p><p>&#10060;</p><p>A válaszaitok <b>nem</b> egyeznek meg.</p>","null","","","","feedback trial","",""
"html-button-response-esp","55","721233","0.0-11.0-0.22","4308","János imád gihamozni, ezért sokat gihamlik. Ők ritkán...","1","gihamlanak","[""gihamoznak"",""gihamlanak""]","gihamoznak","esp trial","2","false"
"html-button-response","56","724748","0.0-11.0-1.22","null","<p>A másik játékos ezt választotta: <b>gihamoznak</b>.</p><p>&#10060;</p><p>A válaszaitok <b>nem</b> egyeznek meg.</p>","null","","","","feedback trial","",""
"html-button-response-esp","57","731491","0.0-11.0-0.23","6239","János imád spivejezni, ezért sokat spivejlik. Ők ritkán...","1","spivejeznek","[""spivejlenek"",""spivejeznek""]","spivejlenek","esp trial","2","false"
"html-button-response","58","735004","0.0-11.0-1.23","null","<p>A másik játékos ezt választotta: <b>spivejlenek</b>.</p><p>&#10060;</p><p>A válaszaitok <b>nem</b> egyeznek meg.</p>","null","","","","feedback trial","",""
"html-button-response-esp","59","740477","0.0-11.0-0.24","4967","János imád bejezni, ezért sokat bejzik. Mi ritkán...","0","bejzünk","[""bejzünk"",""bejezünk""]","bejezünk","esp trial","2","false"
"html-button-response","60","743990","0.0-11.0-1.24","null","<p>A másik játékos ezt választotta: <b>bejezünk</b>.</p><p>&#10060;</p><p>A válaszaitok <b>nem</b> egyeznek meg.</p>","null","","","","feedback trial","",""
"html-button-response-esp","61","749251","0.0-11.0-0.25","4756","János imád nyizozni, ezért sokat nyizlik. Mi ritkán...","1","nyizlunk","[""nyizozunk"",""nyizlunk""]","nyizozunk","esp trial","2","false"
"html-button-response","62","752766","0.0-11.0-1.25","null","<p>A másik játékos ezt választotta: <b>nyizozunk</b>.</p><p>&#10060;</p><p>A válaszaitok <b>nem</b> egyeznek meg.</p>","null","","","","feedback trial","",""
"html-button-response-esp","63","762130","0.0-11.0-0.26","8860","János imád brűközni, ezért sokat brűklik. Ti ritkán...","1","brűklötök","[""brűköztök"",""brűklötök""]","brűköztök","esp trial","2","false"
"html-button-response","64","765646","0.0-11.0-1.26","null","<p>A másik játékos ezt választotta: <b>brűköztök</b>.</p><p>&#10060;</p><p>A válaszaitok <b>nem</b> egyeznek meg.</p>","null","","","","feedback trial","",""
"html-button-response-esp","65","771818","0.0-11.0-0.27","5667","János imád kláragodni, ezért sokat kláragszik. Ti ritkán...","0","kláragszotok","[""kláragszotok"",""kláragodtok""]","kláragodtok","esp trial","2","false"
"html-button-response","66","775334","0.0-11.0-1.27","null","<p>A másik játékos ezt választotta: <b>kláragodtok</b>.</p><p>&#10060;</p><p>A válaszaitok <b>nem</b> egyeznek meg.</p>","null","","","","feedback trial","",""
"html-button-response-esp","67","779950","0.0-11.0-0.28","3591","János imád nyádozni, ezért sokat nyádlik. Ők ritkán...","0","nyádlanak","[""nyádlanak"",""nyádoznak""]","nyádoznak","esp trial","2","false"
"html-button-response","68","783462","0.0-11.0-1.28","null","<p>A másik játékos ezt választotta: <b>nyádoznak</b>.</p><p>&#10060;</p><p>A válaszaitok <b>nem</b> egyeznek meg.</p>","null","","","","feedback trial","",""
"html-button-response-esp","69","788079","0.0-11.0-0.29","3996","János imád bügözni, ezért sokat bügzik. Ők ritkán...","1","bügöznek","[""bügzenek"",""bügöznek""]","bügöznek","esp trial","2","true"
"html-button-response","70","791591","0.0-11.0-1.29","null","<p>A másik játékos ezt választotta: <b>bügöznek</b>.</p><p>&#x2705;</p><p>A te válaszod és a másik játékos válasza <b>megegyeznek</b>.</p>","null","","","","feedback trial","",""
"html-button-response-esp","71","796348","0.0-11.0-0.30","4254","János imád döjözni, ezért sokat döjlik. Ők ritkán...","1","döjöznek","[""döjlenek"",""döjöznek""]","döjöznek","esp trial","2","true"
"html-button-response","72","799862","0.0-11.0-1.30","null","<p>A másik játékos ezt választotta: <b>döjöznek</b>.</p><p>&#x2705;</p><p>A te válaszod és a másik játékos válasza <b>megegyeznek</b>.</p>","null","","","","feedback trial","",""
"html-button-response-esp","73","807233","0.0-11.0-0.31","6866","János imád prihegedni, ezért sokat prihegszik. Ők ritkán...","1","prihegszenek","[""prihegednek"",""prihegszenek""]","prihegednek","esp trial","2","false"
"html-button-response","74","810744","0.0-11.0-1.31","null","<p>A másik játékos ezt választotta: <b>prihegednek</b>.</p><p>&#10060;</p><p>A válaszaitok <b>nem</b> egyeznek meg.</p>","null","","","","feedback trial","",""
"html-button-response-esp","75","815883","0.0-11.0-0.32","4636","János imád tögözni, ezért sokat töglik. Ők ritkán...","1","tögöznek","[""töglenek"",""tögöznek""]","tögöznek","esp trial","2","true"
"html-button-response","76","819399","0.0-11.0-1.32","null","<p>A másik játékos ezt választotta: <b>tögöznek</b>.</p><p>&#x2705;</p><p>A te válaszod és a másik játékos válasza <b>megegyeznek</b>.</p>","null","","","","feedback trial","",""
"html-button-response-esp","77","836651","0.0-11.0-0.33","16747","János imád trukodni, ezért sokat trukszik. Ti ritkán...","0","trukodtok","[""trukodtok"",""trukszotok""]","trukodtok","esp trial","2","true"
"html-button-response","78","840167","0.0-11.0-1.33","null","<p>A másik játékos ezt választotta: <b>trukodtok</b>.</p><p>&#x2705;</p><p>A te válaszod és a másik játékos válasza <b>megegyeznek</b>.</p>","null","","","","feedback trial","",""
"html-button-response-esp","79","846053","0.0-11.0-0.34","5381","János imád sztredezni, ezért sokat sztredlik. Ti ritkán...","0","sztredletek","[""sztredletek"",""sztredeztek""]","sztredeztek","esp trial","2","false"
"html-button-response","80","849568","0.0-11.0-1.34","null","<p>A másik játékos ezt választotta: <b>sztredeztek</b>.</p><p>&#10060;</p><p>A válaszaitok <b>nem</b> egyeznek meg.</p>","null","","","","feedback trial","",""
"html-button-response-esp","81","855745","0.0-11.0-0.35","5672","János imád bresezni, ezért sokat breslik. Ők ritkán...","1","breslenek","[""breseznek"",""breslenek""]","breseznek","esp trial","2","false"
"html-button-response","82","859256","0.0-11.0-1.35","null","<p>A másik játékos ezt választotta: <b>breseznek</b>.</p><p>&#10060;</p><p>A válaszaitok <b>nem</b> egyeznek meg.</p>","null","","","","feedback trial","",""
"html-button-response-esp","83","866736","0.0-11.0-0.36","6976","János imád géregezni, ezért sokat géreglik. Ti ritkán...","1","géregletek","[""géregeztek"",""géregletek""]","géregletek","esp trial","2","true"
"html-button-response","84","870248","0.0-11.0-1.36","null","<p>A másik játékos ezt választotta: <b>géregletek</b>.</p><p>&#x2705;</p><p>A te válaszod és a másik játékos válasza <b>megegyeznek</b>.</p>","null","","","","feedback trial","",""
"html-button-response-esp","85","876873","0.0-11.0-0.37","6120","János imád jurozni, ezért sokat jurlik. Mi ritkán...","1","jurozunk","[""jurlunk"",""jurozunk""]","jurozunk","esp trial","2","true"
"html-button-response","86","880385","0.0-11.0-1.37","null","<p>A másik játékos ezt választotta: <b>jurozunk</b>.</p><p>&#x2705;</p><p>A te válaszod és a másik játékos válasza <b>megegyeznek</b>.</p>","null","","","","feedback trial","",""
"html-button-response-esp","87","885653","0.0-11.0-0.38","4764","János imád vehékedni, ezért sokat vehékszik. Mi ritkán...","1","vehékszünk","[""vehékedünk"",""vehékszünk""]","vehékedünk","esp trial","2","false"
"html-button-response","88","889169","0.0-11.0-1.38","null","<p>A másik játékos ezt választotta: <b>vehékedünk</b>.</p><p>&#10060;</p><p>A válaszaitok <b>nem</b> egyeznek meg.</p>","null","","","","feedback trial","",""
"html-button-response-esp","89","896165","0.0-11.0-0.39","6492","János imád ribegedni, ezért sokat ribegszik. Ti ritkán...","0","ribegszetek","[""ribegszetek"",""ribegedtek""]","ribegszetek","esp trial","2","true"
"html-button-response","90","899681","0.0-11.0-1.39","null","<p>A másik játékos ezt választotta: <b>ribegszetek</b>.</p><p>&#x2705;</p><p>A te válaszod és a másik játékos válasza <b>megegyeznek</b>.</p>","null","","","","feedback trial","",""
"html-button-response-esp","91","908527","0.0-11.0-0.40","8342","János imád flerékedni, ezért sokat flerékszik. Mi ritkán...","0","flerékedünk","[""flerékedünk"",""flerékszünk""]","flerékedünk","esp trial","2","true"
"html-button-response","92","912042","0.0-11.0-1.40","null","<p>A másik játékos ezt választotta: <b>flerékedünk</b>.</p><p>&#x2705;</p><p>A te válaszod és a másik játékos válasza <b>megegyeznek</b>.</p>","null","","","","feedback trial","",""
"html-button-response-esp","93","921315","0.0-11.0-0.41","8769","János imád frélegezni, ezért sokat frélegzik. Mi ritkán...","1","frélegzünk","[""frélegezünk"",""frélegzünk""]","frélegezünk","esp trial","2","false"
"html-button-response","94","924825","0.0-11.0-1.41","null","<p>A másik játékos ezt választotta: <b>frélegezünk</b>.</p><p>&#10060;</p><p>A válaszaitok <b>nem</b> egyeznek meg.</p>","null","","","","feedback trial","",""
"html-button-response-esp","95","931126","0.0-11.0-0.42","5795","János imád flátozni, ezért sokat flátlik. Ti ritkán...","1","flátoztok","[""flátlotok"",""flátoztok""]","flátlotok","esp trial","2","false"
"html-button-response","96","934642","0.0-11.0-1.42","null","<p>A másik játékos ezt választotta: <b>flátlotok</b>.</p><p>&#10060;</p><p>A válaszaitok <b>nem</b> egyeznek meg.</p>","null","","","","feedback trial","",""
"html-button-response-esp","97","944549","0.0-11.0-0.43","9404","János imád nyöbözni, ezért sokat nyöbzik. Ők ritkán...","1","nyöböznek","[""nyöbzenek"",""nyöböznek""]","nyöböznek","esp trial","2","true"
"html-button-response","98","948066","0.0-11.0-1.43","null","<p>A másik játékos ezt választotta: <b>nyöböznek</b>.</p><p>&#x2705;</p><p>A te válaszod és a másik játékos válasza <b>megegyeznek</b>.</p>","null","","","","feedback trial","",""
"html-button-response-esp","99","956068","0.0-11.0-0.44","7497","János imád nivározni, ezért sokat nivárzik. Ti ritkán...","1","nivároztok","[""nivárzotok"",""nivároztok""]","nivárzotok","esp trial","2","false"
"html-button-response","100","959578","0.0-11.0-1.44","null","<p>A másik játékos ezt választotta: <b>nivárzotok</b>.</p><p>&#10060;</p><p>A válaszaitok <b>nem</b> egyeznek meg.</p>","null","","","","feedback trial","",""
"html-button-response-esp","101","966453","0.0-11.0-0.45","6371","János imád prugorozni, ezért sokat prugorzik. Ti ritkán...","1","prugoroztok","[""prugorzotok"",""prugoroztok""]","prugorzotok","esp trial","2","false"
"html-button-response","102","969962","0.0-11.0-1.45","null","<p>A másik játékos ezt választotta: <b>prugorzotok</b>.</p><p>&#10060;</p><p>A válaszaitok <b>nem</b> egyeznek meg.</p>","null","","","","feedback trial","",""
"html-button-response-esp","103","976628","0.0-11.0-0.46","6163","János imád bribékedni, ezért sokat bribékszik. Ti ritkán...","1","bribékedtek","[""bribékszetek"",""bribékedtek""]","bribékedtek","esp trial","2","true"
"html-button-response","104","980139","0.0-11.0-1.46","null","<p>A másik játékos ezt választotta: <b>bribékedtek</b>.</p><p>&#x2705;</p><p>A te válaszod és a másik játékos válasza <b>megegyeznek</b>.</p>","null","","","","feedback trial","",""
"html-button-response-esp","105","989219","0.0-11.0-0.47","8576","János imád plibozni, ezért sokat plibzik. Ti ritkán...","1","pliboztok","[""plibzotok"",""pliboztok""]","plibzotok","esp trial","2","false"
"html-button-response","106","992731","0.0-11.0-1.47","null","<p>A másik játékos ezt választotta: <b>plibzotok</b>.</p><p>&#10060;</p><p>A válaszaitok <b>nem</b> egyeznek meg.</p>","null","","","","feedback trial","",""
"html-button-response-esp","107","998740","0.0-11.0-0.48","5504","János imád bötőrözni, ezért sokat bötőrzik. Mi ritkán...","0","bötőrzünk","[""bötőrzünk"",""bötőrözünk""]","bötőrözünk","esp trial","2","false"
"html-button-response","108","1002251","0.0-11.0-1.48","null","<p>A másik játékos ezt választotta: <b>bötőrözünk</b>.</p><p>&#10060;</p><p>A válaszaitok <b>nem</b> egyeznek meg.</p>","null","","","","feedback trial","",""
"html-button-response-esp","109","1007623","0.0-11.0-0.49","4867","János imád klégezni, ezért sokat kléglik. Mi ritkán...","1","kléglünk","[""klégezünk"",""kléglünk""]","klégezünk","esp trial","2","false"
"html-button-response","110","1011131","0.0-11.0-1.49","null","<p>A másik játékos ezt választotta: <b>klégezünk</b>.</p><p>&#10060;</p><p>A válaszaitok <b>nem</b> egyeznek meg.</p>","null","","","","feedback trial","",""
"html-button-response-esp","111","1017087","0.0-11.0-0.50","5451","János imád nurokozni, ezért sokat nuroklik. Mi ritkán...","0","nurokozunk","[""nurokozunk"",""nuroklunk""]","nurokozunk","esp trial","2","true"
"html-button-response","112","1020604","0.0-11.0-1.50","null","<p>A másik játékos ezt választotta: <b>nurokozunk</b>.</p><p>&#x2705;</p><p>A te válaszod és a másik játékos válasza <b>megegyeznek</b>.</p>","null","","","","feedback trial","",""
"html-button-response-esp","113","1025220","0.0-11.0-0.51","3954","János imád vihapodni, ezért sokat vihapszik. Mi ritkán...","0","vihapodunk","[""vihapodunk"",""vihapszunk""]","vihapodunk","esp trial","2","true"
"html-button-response","114","1028732","0.0-11.0-1.51","null","<p>A másik játékos ezt választotta: <b>vihapodunk</b>.</p><p>&#x2705;</p><p>A te válaszod és a másik játékos válasza <b>megegyeznek</b>.</p>","null","","","","feedback trial","",""
"html-button-response-esp","115","1035432","0.0-11.0-0.52","6196","János imád klűmözni, ezért sokat klűmlik. Ti ritkán...","1","klűmlötök","[""klűmöztök"",""klűmlötök""]","klűmlötök","esp trial","2","true"
"html-button-response","116","1038948","0.0-11.0-1.52","null","<p>A másik játékos ezt választotta: <b>klűmlötök</b>.</p><p>&#x2705;</p><p>A te válaszod és a másik játékos válasza <b>megegyeznek</b>.</p>","null","","","","feedback trial","",""
"html-button-response-esp","117","1047730","0.0-11.0-0.53","8278","János imád trilekedni, ezért sokat trilekszik. Ti ritkán...","0","trilekedtek","[""trilekedtek"",""trilekszetek""]","trilekedtek","esp trial","2","true"
"html-button-response","118","1051244","0.0-11.0-1.53","null","<p>A másik játékos ezt választotta: <b>trilekedtek</b>.</p><p>&#x2705;</p><p>A te válaszod és a másik játékos válasza <b>megegyeznek</b>.</p>","null","","","","feedback trial","",""
"html-button-response","119","1062927","0.0-12.0","11178","<p>A közös játék most véget ért.</p><p>Mielőtt eláruljuk a végső pontszámodat, arra kérlek, játszd a szóválasztós játékot néhány percig egyedül is.</p><p>A feladatod ugyanaz lesz, választani két lehetőség közül.</p><p>Most viszont egyedül kell döntened, hogy te melyiket választanád.</p>","0","","","","","",""
"html-button-response-clever","120","1070088","0.0-13.0-0.0","6658","János imád nyivágozni, ezért sokat nyivágzik. Mi ritkán...","1","nyivágzunk","[""nyivágozunk"",""nyivágzunk""]","","posttest trial","4",""
"html-button-response-clever","121","1078578","0.0-13.0-0.1","7981","János imád trugokozni, ezért sokat trugoklik. Ők ritkán...","0","trugokoznak","[""trugokoznak"",""trugoklanak""]","","posttest trial","4",""
"html-button-response-clever","122","1086099","0.0-13.0-0.2","7015","János imád kűdözni, ezért sokat kűdlik. Ők ritkán...","1","kűdlenek","[""kűdöznek"",""kűdlenek""]","","posttest trial","4",""
"html-button-response-clever","123","1092750","0.0-13.0-0.3","6145","János imád dujozni, ezért sokat dujzik. Ők ritkán...","1","dujzanak","[""dujoznak"",""dujzanak""]","","posttest trial","4",""
"html-button-response-clever","124","1097687","0.0-13.0-0.4","4433","János imád trikozni, ezért sokat triklik. Ti ritkán...","0","triklotok","[""triklotok"",""trikoztok""]","","posttest trial","4",""
"html-button-response-clever","125","1106895","0.0-13.0-0.5","8705","János imád brözözni, ezért sokat brözlik. Ti ritkán...","1","brözlötök","[""brözöztök"",""brözlötök""]","","posttest trial","4",""
"html-button-response-clever","126","1112196","0.0-13.0-0.6","4799","János imád csibagozni, ezért sokat csibagzik. Ti ritkán...","0","csibagoztok","[""csibagoztok"",""csibagzotok""]","","posttest trial","4",""
"html-button-response-clever","127","1121937","0.0-13.0-0.7","9234","János imád brülösözni, ezért sokat brülöslik. Mi ritkán...","0","brülösözünk","[""brülösözünk"",""brülöslünk""]","","posttest trial","4",""
"html-button-response-clever","128","1128837","0.0-13.0-0.8","6399","János imád köszözni, ezért sokat köszlik. Ti ritkán...","0","köszöztök","[""köszöztök"",""köszlötök""]","","posttest trial","4",""
"html-button-response-clever","129","1136367","0.0-13.0-0.9","7025","János imád gihejezni, ezért sokat gihejlik. Mi ritkán...","1","gihejezünk","[""gihejlünk"",""gihejezünk""]","","posttest trial","4",""
"html-button-response-clever","130","1145635","0.0-13.0-0.10","8765","János imád molodni, ezért sokat molszik. Ti ritkán...","0","molszotok","[""molszotok"",""molodtok""]","","posttest trial","4",""
"html-button-response-clever","131","1149971","0.0-13.0-0.11","3830","János imád virozni, ezért sokat virzik. Ők ritkán...","1","virzanak","[""viroznak"",""virzanak""]","","posttest trial","4",""
"html-button-response-clever","132","1154795","0.0-13.0-0.12","4316","János imád drűrözni, ezért sokat drűrzik. Ők ritkán...","0","drűrzenek","[""drűrzenek"",""drűröznek""]","","posttest trial","4",""
"html-button-response-clever","133","1164652","0.0-13.0-0.13","9350","János imád dilakozni, ezért sokat dilaklik. Ti ritkán...","0","dilakoztok","[""dilakoztok"",""dilaklotok""]","","posttest trial","4",""
"html-button-response-clever","134","1174525","0.0-13.0-0.14","9367","János imád klehényezni, ezért sokat klehénylik. Ti ritkán...","0","klehényeztek","[""klehényeztek"",""klehényletek""]","","posttest trial","4",""
"html-button-response-clever","135","1185010","0.0-13.0-0.15","9981","János imád sprozozni, ezért sokat sprozlik. Ők ritkán...","1","sprozoznak","[""sprozlanak"",""sprozoznak""]","","posttest trial","4",""
"html-button-response-clever","136","1190310","0.0-13.0-0.16","4791","János imád prélemezni, ezért sokat prélemlik. Ők ritkán...","1","prélemeznek","[""prélemlenek"",""prélemeznek""]","","posttest trial","4",""
"html-button-response-clever","137","1194918","0.0-13.0-0.17","4105","János imád trivakodni, ezért sokat trivakszik. Mi ritkán...","0","trivakszunk","[""trivakszunk"",""trivakodunk""]","","posttest trial","4",""
"html-button-response-clever","138","1204862","0.0-13.0-0.18","9440","János imád bratározni, ezért sokat bratárzik. Ők ritkán...","0","bratárzanak","[""bratárzanak"",""bratároznak""]","","posttest trial","4",""
"html-button-response-clever","139","1210918","0.0-13.0-0.19","5553","János imád flemezni, ezért sokat flemlik. Mi ritkán...","0","flemlünk","[""flemlünk"",""flemezünk""]","","posttest trial","4",""
"html-button-response-clever","140","1218113","0.0-13.0-0.20","6690","János imád drilarozni, ezért sokat drilarzik. Mi ritkán...","0","drilarzunk","[""drilarzunk"",""drilarozunk""]","","posttest trial","4",""
"html-button-response-clever","141","1230617","0.0-13.0-0.21","12002","János imád branyozni, ezért sokat branylik. Ők ritkán...","0","branylanak","[""branylanak"",""branyoznak""]","","posttest trial","4",""
"html-button-response-clever","142","1237046","0.0-13.0-0.22","5927","János imád flüröközni, ezért sokat flüröklik. Ti ritkán...","0","flürököztök","[""flürököztök"",""flüröklötök""]","","posttest trial","4",""
"html-button-response-clever","143","1245711","0.0-13.0-0.23","8159","János imád pragányozni, ezért sokat pragánylik. Ti ritkán...","1","pragányoztok","[""pragánylotok"",""pragányoztok""]","","posttest trial","4",""
"html-button-response-clever","144","1258104","0.0-13.0-0.24","11888","János imád frakozni, ezért sokat fraklik. Mi ritkán...","1","fraklunk","[""frakozunk"",""fraklunk""]","","posttest trial","4",""
"html-button-response-clever","145","1278887","0.0-13.0-0.25","20279","János imád prögözni, ezért sokat prögzik. Ti ritkán...","1","prögöztök","[""prögzötök"",""prögöztök""]","","posttest trial","4",""
"html-button-response-clever","146","1285142","0.0-13.0-0.26","5749","János imád spibegezni, ezért sokat spibeglik. Mi ritkán...","0","spibegezünk","[""spibegezünk"",""spibeglünk""]","","posttest trial","4",""
"html-button-response-clever","147","1292554","0.0-13.0-0.27","6905","János imád fröjözni, ezért sokat fröjzik. Ti ritkán...","1","fröjöztök","[""fröjzötök"",""fröjöztök""]","","posttest trial","4",""
"html-button-response-clever","148","1302854","0.0-13.0-0.28","9798","János imád flűgözni, ezért sokat flűgzik. Mi ritkán...","1","flűgözünk","[""flűgzünk"",""flűgözünk""]","","posttest trial","4",""
"html-button-response-clever","149","1309599","0.0-13.0-0.29","6238","János imád csubozni, ezért sokat csubzik. Mi ritkán...","0","csubzunk","[""csubzunk"",""csubozunk""]","","posttest trial","4",""
"html-button-response-clever","150","1331404","0.0-13.0-0.30","21299","János imád gyihegezni, ezért sokat gyihegzik. Ti ritkán...","0","gyihegeztek","[""gyihegeztek"",""gyihegzetek""]","","posttest trial","4",""
"html-button-response-clever","151","1335719","0.0-13.0-0.31","3806","János imád nyürözni, ezért sokat nyürzik. Ők ritkán...","0","nyüröznek","[""nyüröznek"",""nyürzenek""]","","posttest trial","4",""
"html-button-response-clever","152","1343808","0.0-13.0-0.32","7583","János imád dabozni, ezért sokat dabzik. Ti ritkán...","0","daboztok","[""daboztok"",""dabzotok""]","","posttest trial","4",""
"html-button-response-clever","153","1354834","0.0-13.0-0.33","10520","János imád mülőrözni, ezért sokat mülőrzik. Mi ritkán...","1","mülőrzünk","[""mülőrözünk"",""mülőrzünk""]","","posttest trial","4",""
"html-button-response-clever","154","1360595","0.0-13.0-0.34","5257","János imád trugozni, ezért sokat trugzik. Ők ritkán...","0","trugoznak","[""trugoznak"",""trugzanak""]","","posttest trial","4",""
"html-button-response-clever","155","1366264","0.0-13.0-0.35","5167","János imád spirágozni, ezért sokat spiráglik. Ti ritkán...","0","spiráglotok","[""spiráglotok"",""spirágoztok""]","","posttest trial","4",""
"html-button-response-clever","156","1371862","0.0-13.0-0.36","5091","János imád frálapodni, ezért sokat frálapszik. Ti ritkán...","0","frálapodtok","[""frálapodtok"",""frálapszotok""]","","posttest trial","4",""
"html-button-response-clever","157","1376480","0.0-13.0-0.37","4110","János imád posozni, ezért sokat poslik. Ti ritkán...","1","poslotok","[""posoztok"",""poslotok""]","","posttest trial","4",""
"html-button-response-clever","158","1390025","0.0-13.0-0.38","13038","János imád sprűrözni, ezért sokat sprűrlik. Ők ritkán...","0","sprűrlenek","[""sprűrlenek"",""sprűröznek""]","","posttest trial","4",""
"html-button-response-clever","159","1396212","0.0-13.0-0.39","5682","János imád spiharozni, ezért sokat spiharzik. Ti ritkán...","1","spiharoztok","[""spiharzotok"",""spiharoztok""]","","posttest trial","4",""
"html-button-response-clever","160","1401703","0.0-13.0-0.40","4989","János imád püzözni, ezért sokat püzlik. Ti ritkán...","0","püzlötök","[""püzlötök"",""püzöztök""]","","posttest trial","4",""
"html-button-response-clever","161","1406883","0.0-13.0-0.41","4673","János imád frálasozni, ezért sokat frálaslik. Ők ritkán...","1","frálaslanak","[""frálasoznak"",""frálaslanak""]","","posttest trial","4",""
"html-button-response-clever","162","1411525","0.0-13.0-0.42","4137","János imád sprudozni, ezért sokat sprudlik. Mi ritkán...","1","sprudlunk","[""sprudozunk"",""sprudlunk""]","","posttest trial","4",""
"html-button-response-clever","163","1420412","0.0-13.0-0.43","8384","János imád dárakodni, ezért sokat dárakszik. Mi ritkán...","0","dárakodunk","[""dárakodunk"",""dárakszunk""]","","posttest trial","4",""
"html-button-response-clever","164","1427799","0.0-13.0-0.44","6883","János imád mágamozni, ezért sokat mágamlik. Mi ritkán...","1","mágamlunk","[""mágamozunk"",""mágamlunk""]","","posttest trial","4",""
"html-button-response-clever","165","1434413","0.0-13.0-0.45","6105","János imád dirozni, ezért sokat dirlik. Ti ritkán...","0","dirlotok","[""dirlotok"",""diroztok""]","","posttest trial","4",""
"html-button-response-clever","166","1439804","0.0-13.0-0.46","4888","János imád privékedni, ezért sokat privékszik. Ők ritkán...","0","privékszenek","[""privékszenek"",""privékednek""]","","posttest trial","4",""
"html-button-response-clever","167","1443479","0.0-13.0-0.47","3172","János imád flöközni, ezért sokat flöklik. Ti ritkán...","0","flöklötök","[""flöklötök"",""flököztök""]","","posttest trial","4",""
"html-button-response-clever","168","1448682","0.0-13.0-0.48","4696","János imád lájozni, ezért sokat lájzik. Ti ritkán...","1","lájzotok","[""lájoztok"",""lájzotok""]","","posttest trial","4",""
"html-button-response-clever","169","1454086","0.0-13.0-0.49","4898","János imád brivakozni, ezért sokat brivaklik. Ti ritkán...","1","brivaklotok","[""brivakoztok"",""brivaklotok""]","","posttest trial","4",""
"html-button-response-clever","170","1458574","0.0-13.0-0.50","3987","János imád spügözni, ezért sokat spügzik. Mi ritkán...","0","spügzünk","[""spügzünk"",""spügözünk""]","","posttest trial","4",""
"html-button-response-clever","171","1463478","0.0-13.0-0.51","4402","János imád lűközni, ezért sokat lűklik. Ők ritkán...","0","lűklenek","[""lűklenek"",""lűköznek""]","","posttest trial","4",""
"html-button-response-clever","172","1468991","0.0-13.0-0.52","5011","János imád pilégedni, ezért sokat pilégszik. Ők ritkán...","1","pilégszenek","[""pilégednek"",""pilégszenek""]","","posttest trial","4",""
"html-button-response-clever","173","1484219","0.0-13.0-0.53","14727","János imád föködni, ezért sokat fökszik. Ők ritkán...","0","fökszenek","[""fökszenek"",""föködnek""]","","posttest trial","4",""
"html-button-response","174","1512670","0.0-14.0","27944","<p> Vége a játéknak. A teljes pontszámod 26/54.</p><p> Szép munka! &#128526;&#128526;&#128526;</p><p>Ezzel a kóddal tudod befejezni a feladatot a Prolific oldalán:</p><p>C126MQ6E</p><p>A Befejezés gomb megnyomása után bezárhatod a böngészőablakot.</p>","0","","","","","",""
"html-keyboard-response","175","1518180","0.0-15.0","null","<div class=""message"">
         <p>Egy kis türelmet kérünk, amíg elmentjük az adatokat...</p>
         </div>","null","","","","","",""
