"trial_type","trial_index","time_elapsed","internal_node_id","rt","stimulus","response","response_string","choices","esp_response","trial_kind","list_number","esp_match"
"pavlovia","0","971","0.0-0.0","","","","","","","","",""
"html-button-response","1","4673","0.0-1.0","3185","<p>Kedves Résztvevő! A Budapesti Műszaki és Gazdaságtudományi Egyetem Kognitív Tudományi Tanszékének kutatásában való részvételed kérjük. A kutatásban azt vizsgáljuk, hogy a magyar anyanyelvűek hogyan használnak bizonyos szóalakokat, és hogy milyen képük van arról, hogy mások hogyan használják, hogyan képzik a szavakat. Ez hozzásegít bennünket ahhoz, hogy jobban megértsük, hogyan dolgozza fel és tárolja a nyelvet az emberi agy, és hogyan működnek, hogyan változnak egy adott közösség nyelvi konvenciói.</p><p>A vizsgálat egy rövid számítógépes feladatból fog állni. A kutatásban való részvétel önkéntes, a részvételi szándék bármikor visszavonható. A résztvevők eredményeit név nélkül kezeljük, így nem beazonosíthatók az adatok feldolgozása során. Minden személyes adatot az EU általános adatvédelmi rendeletének (GDPR) megfelelően kezelünk és legfeljebb öt éven belül megsemmisítünk. A vizsgálat jellemzően húsz percet vesz igénybe.</p><p>Kutatásvezető:</p><p>Dr. Rácz Péter, tudományos munkatárs, BME KTT</p><p>e-mail: racz.peter.marton@ttk.bme.hu</p>","0","","","","","",""
"html-button-response","2","53136","0.0-2.0","47945","<p>A kísérletben szavakat fogsz látni. Ezek között lesznek olyanok, amelyeket ismersz, de előfordulhatnak olyanok is, amelyeket nem ismersz, sőt, vannak köztük kitalált szavak is. Minden szónál látni fogsz toldalékolt alakokat. A te feladatod az lesz, hogy minden szóhoz kiválaszd azt a toldalékolt alakot, amely a te számodra ismerősebben, természetesebben hangzik. Rossz válaszok nincsenek, mert van olyan, hogy különböző embereknek más és más szó tűnik jobb választásnak. A választ úgy tudod majd kiválasztani, ha rákattintasz.</p><p>Ebben a szóválasztós játékban egy másik játékossal együtt veszel majd részt. A másik játékos is minden esetben azok közül a lehetőségek közül válogathat, mint te. Kettőtök feladata az, hogy ugyanazt a lehetőséget válasszátok minden esetben. Ahhoz, hogy ez sikerüljön, neked figyelned kell arra, hogy a másik játékos milyen válaszokat ad, és ennek alapján meg kell tippelned, hogyan választ legközelebb. Ha eltalálod, akkor pontot kapsz.</p>","0","","","","","",""
"html-button-response","3","64973","0.0-3.0","11319","<p>Kérjük, olvasd el az alábbi nyilatkozatot, és amennyiben egyetértesz vele, nyomj a Beleegyezés gombra!</p><p>Kijelentem, hogy magyar anyanyelvű személyként önként veszek részt a BME KTT kísérletében. A kutatás céljával és folyamatával kapcsolatban elegendő tájékoztatást kaptam, lehetőségem volt kérdések feltételére, és esetleges kérdéseimre megfelelő válaszokat kaptam. A tájékoztatás alapján elegendő mennyiségű információ áll a rendelkezésemre, hogy eldönthessem, részt kívánok-e venni a kutatásban.</p><p>Tisztában vagyok vele, hogy részvételi szándékomat és adataimat bármikor, indoklás nélkül visszavonhatom.</p><p>Értem és tudomásul veszem, hogy a kutatás tudományos célokat szolgál, és az általam szolgáltatott adatokat a BME kizárólag kutatási célból használja fel. Tudomásul veszem, hogy eredményeimet a többi résztvevő eredményeivel együtt kezelik, így egyéni teljesítményemről visszajelzést, szakvéleményt nem kapok.</p><p>Megértettem, hogy adataim kezelését illetően a BME az EU általános adatvédelmi rendelete (GDPR), a hatályos adatvédelmi törvény és a nemzetközi kutatás-etikai alapelvek szerint jár el. Eredményeim anonim módon kerülnek feldolgozásra, és a kutatás résztvevői az azonosításomra alkalmas adataimat harmadik félnek nem szolgáltatják ki. Engedélyezem a BME számára a jelen kutatásban felvett adataim feldolgozását és tárolását, beleértve azok későbbi kutatásokhoz való felhasználását is. Személyes adataim kezelésével kapcsolatban tájékoztatást kérhetek a kutatás résztvevőitől, az adatkezelés ellen tiltakozhatok, kérhetem személyes adataim helyesbítését, törlését vagy zárolását, valamint jogorvoslatért a Nemzeti Adatvédelmi és Információszabadság Hatósághoz fordulhatok.</p><p>Kijelentem, hogy a kutatásban való részvételem körülményeiről részletes tájékoztatást kaptam, és a feltételeket elfogadom.</p>","0","","","","","",""
"survey-text","4","122863","0.0-4.0","57340","","{""Q0"":""G3GSRZ"",""Q1"":""nő"",""Q2"":""2000"",""Q3"":""15""}","","","","","",""
"html-button-response","5","150741","0.0-5.0","27359","<p>Ebben a játékban szavakat kell toldalékolni.</p> <p>Minden körben mutatunk majd egy példamondatot, amiben lesz egy szó.</p> <p>Alatta jön egy második mondat, ezt a mondatot neked kell majd befejezni, ugyanezzel a szóval.</p> <p>Nem biztos, hogy a szó eleve ismerős lesz számodra!</p> <p>Minden mondathoz adunk két lehetőséget, ezeket balra és jobbra látod majd.</p> <p>A játék kb. negyedóráig-húsz percig tart.</p>","0","","","","","",""
"html-button-response","6","193932","0.0-6.0","42681","<p>Nézzünk egy példát!</p> <p>A példamondat: ""János imád fláramolni, ezért sokat fláramlik. Mi ritkán...""</p><p>Neked ezt a mondatot kell befejezned: ""Ti ritkán...""</p><p>A lehetőségek pedig ezek:</p>","1","","","","","",""
"html-button-response","7","201585","0.0-7.0","7135","<p>Nagyon jó.</p><p>Ezt a játékot nem egyedül fogod játszani, hanem egy másik játékossal.</p><p>Mielőtt továbblépünk, összekapcsolunk titeket egymással.</p><p>Ez igénybe vehet néhány másodpercet, amihez szíves türelmed kérjük.</p>","0","","","","","",""
"html-button-response","8","207330","0.0-8.0","null","<p>Csatlakozás a másik játékoshoz...</p>","null","","","","","",""
"html-button-response","9","209846","0.0-9.0","null","<p> Sikeres kapcsolódás!</p>","null","","","","","",""
"html-button-response","10","220358","0.0-10.0","null","<p>A következőkben ketten játsszátok a szóválasztós játékot.</p><p>A feladatotok az lesz, hogy minden körben <b>ugyanazt</b> a szót válasszátok.</p><p>Minden ilyen egyező válaszért pontot kaptok.</p><p>Próbáld meg kitalálni, mit választ a másik játékos!</p><p>Bármikor választhatsz, a körnek akkor van vége, ha mindketten döntöttetek.</p><p>Sok sikert!</p>","null","","","","","",""
"html-button-response-esp","11","235730","0.0-11.0-0.0","14857","János imád frorozni, ezért sokat frorlik. Ők ritkán...","0","frorlanak","[""frorlanak"",""froroznak""]","frorlanak","esp trial","3","true"
"html-button-response","12","239271","0.0-11.0-1.0","null","<p>A másik játékos ezt választotta: <b>frorlanak</b>.</p><p>&#x2705;</p><p>A te válaszod és a másik játékos válasza <b>megegyeznek</b>.</p>","null","","","","feedback trial","",""
"html-button-response-esp","13","247296","0.0-11.0-0.1","7502","János imád flodozni, ezért sokat flodlik. Ti ritkán...","0","flodlotok","[""flodlotok"",""flodoztok""]","flodoztok","esp trial","3","false"
"html-button-response","14","250825","0.0-11.0-1.1","null","<p>A másik játékos ezt választotta: <b>flodoztok</b>.</p><p>&#10060;</p><p>A válaszaitok <b>nem</b> egyeznek meg.</p>","null","","","","feedback trial","",""
"html-button-response-esp","15","260980","0.0-11.0-0.2","9640","János imád gihamozni, ezért sokat gihamlik. Ők ritkán...","1","gihamoznak","[""gihamlanak"",""gihamoznak""]","gihamoznak","esp trial","3","true"
"html-button-response","16","264497","0.0-11.0-1.2","null","<p>A másik játékos ezt választotta: <b>gihamoznak</b>.</p><p>&#x2705;</p><p>A te válaszod és a másik játékos válasza <b>megegyeznek</b>.</p>","null","","","","feedback trial","",""
"html-button-response-esp","17","273416","0.0-11.0-0.3","8404","János imád vehékedni, ezért sokat vehékszik. Mi ritkán...","1","vehékszünk","[""vehékedünk"",""vehékszünk""]","vehékszünk","esp trial","3","true"
"html-button-response","18","276935","0.0-11.0-1.3","null","<p>A másik játékos ezt választotta: <b>vehékszünk</b>.</p><p>&#x2705;</p><p>A te válaszod és a másik játékos válasza <b>megegyeznek</b>.</p>","null","","","","feedback trial","",""
"html-button-response-esp","19","285071","0.0-11.0-0.4","7615","János imád géregezni, ezért sokat géreglik. Ti ritkán...","1","géregletek","[""géregeztek"",""géregletek""]","géregeztek","esp trial","3","false"
"html-button-response","20","288604","0.0-11.0-1.4","null","<p>A másik játékos ezt választotta: <b>géregeztek</b>.</p><p>&#10060;</p><p>A válaszaitok <b>nem</b> egyeznek meg.</p>","null","","","","feedback trial","",""
"html-button-response-esp","21","296652","0.0-11.0-0.5","7534","János imád klégezni, ezért sokat kléglik. Mi ritkán...","0","klégezünk","[""klégezünk"",""kléglünk""]","kléglünk","esp trial","3","false"
"html-button-response","22","300174","0.0-11.0-1.5","null","<p>A másik játékos ezt választotta: <b>kléglünk</b>.</p><p>&#10060;</p><p>A válaszaitok <b>nem</b> egyeznek meg.</p>","null","","","","feedback trial","",""
"html-button-response-esp","23","307017","0.0-11.0-0.6","6324","János imád vihapodni, ezért sokat vihapszik. Mi ritkán...","1","vihapszunk","[""vihapodunk"",""vihapszunk""]","vihapszunk","esp trial","3","true"
"html-button-response","24","310542","0.0-11.0-1.6","null","<p>A másik játékos ezt választotta: <b>vihapszunk</b>.</p><p>&#x2705;</p><p>A te válaszod és a másik játékos válasza <b>megegyeznek</b>.</p>","null","","","","feedback trial","",""
"html-button-response-esp","25","318318","0.0-11.0-0.7","7263","János imád dibágozni, ezért sokat dibáglik. Ti ritkán...","0","dibáglotok","[""dibáglotok"",""dibágoztok""]","dibágoztok","esp trial","3","false"
"html-button-response","26","321834","0.0-11.0-1.7","null","<p>A másik játékos ezt választotta: <b>dibágoztok</b>.</p><p>&#10060;</p><p>A válaszaitok <b>nem</b> egyeznek meg.</p>","null","","","","feedback trial","",""
"html-button-response-esp","27","329616","0.0-11.0-0.8","7264","János imád bresezni, ezért sokat breslik. Ők ritkán...","0","breseznek","[""breseznek"",""breslenek""]","breseznek","esp trial","3","true"
"html-button-response","28","333139","0.0-11.0-1.8","null","<p>A másik játékos ezt választotta: <b>breseznek</b>.</p><p>&#x2705;</p><p>A te válaszod és a másik játékos válasza <b>megegyeznek</b>.</p>","null","","","","feedback trial","",""
"html-button-response-esp","29","342250","0.0-11.0-0.9","8593","János imád trilekedni, ezért sokat trilekszik. Ti ritkán...","1","trilekedtek","[""trilekszetek"",""trilekedtek""]","trilekedtek","esp trial","3","true"
"html-button-response","30","345777","0.0-11.0-1.9","null","<p>A másik játékos ezt választotta: <b>trilekedtek</b>.</p><p>&#x2705;</p><p>A te válaszod és a másik játékos válasza <b>megegyeznek</b>.</p>","null","","","","feedback trial","",""
"html-button-response-esp","31","354664","0.0-11.0-0.10","8368","János imád plibozni, ezért sokat plibzik. Ti ritkán...","0","plibzotok","[""plibzotok"",""pliboztok""]","pliboztok","esp trial","3","false"
"html-button-response","32","358184","0.0-11.0-1.10","null","<p>A másik játékos ezt választotta: <b>pliboztok</b>.</p><p>&#10060;</p><p>A válaszaitok <b>nem</b> egyeznek meg.</p>","null","","","","feedback trial","",""
"html-button-response-esp","33","368391","0.0-11.0-0.11","9691","János imád spuborozni, ezért sokat spuborzik. Ők ritkán...","0","spuboroznak","[""spuboroznak"",""spuborzanak""]","spuboroznak","esp trial","3","true"
"html-button-response","34","371915","0.0-11.0-1.11","null","<p>A másik játékos ezt választotta: <b>spuboroznak</b>.</p><p>&#x2705;</p><p>A te válaszod és a másik játékos válasza <b>megegyeznek</b>.</p>","null","","","","feedback trial","",""
"html-button-response-esp","35","380676","0.0-11.0-0.12","8251","János imád brűközni, ezért sokat brűklik. Ti ritkán...","1","brűklötök","[""brűköztök"",""brűklötök""]","brűköztök","esp trial","3","false"
"html-button-response","36","384192","0.0-11.0-1.12","null","<p>A másik játékos ezt választotta: <b>brűköztök</b>.</p><p>&#10060;</p><p>A válaszaitok <b>nem</b> egyeznek meg.</p>","null","","","","feedback trial","",""
"html-button-response-esp","37","389620","0.0-11.0-0.13","4908","János imád bügözni, ezért sokat bügzik. Ők ritkán...","0","bügzenek","[""bügzenek"",""bügöznek""]","bügzenek","esp trial","3","true"
"html-button-response","38","393145","0.0-11.0-1.13","null","<p>A másik játékos ezt választotta: <b>bügzenek</b>.</p><p>&#x2705;</p><p>A te válaszod és a másik játékos válasza <b>megegyeznek</b>.</p>","null","","","","feedback trial","",""
"html-button-response-esp","39","401337","0.0-11.0-0.14","7677","János imád sztredezni, ezért sokat sztredlik. Ti ritkán...","0","sztredletek","[""sztredletek"",""sztredeztek""]","sztredeztek","esp trial","3","false"
"html-button-response","40","404867","0.0-11.0-1.14","null","<p>A másik játékos ezt választotta: <b>sztredeztek</b>.</p><p>&#10060;</p><p>A válaszaitok <b>nem</b> egyeznek meg.</p>","null","","","","feedback trial","",""
"html-button-response-esp","41","412128","0.0-11.0-0.15","6746","János imád vilesezni, ezért sokat vileslik. Mi ritkán...","1","vilesezünk","[""vileslünk"",""vilesezünk""]","vilesezünk","esp trial","3","true"
"html-button-response","42","415660","0.0-11.0-1.15","null","<p>A másik játékos ezt választotta: <b>vilesezünk</b>.</p><p>&#x2705;</p><p>A te válaszod és a másik játékos válasza <b>megegyeznek</b>.</p>","null","","","","feedback trial","",""
"html-button-response-esp","43","423646","0.0-11.0-0.16","7474","János imád nivározni, ezért sokat nivárzik. Ti ritkán...","0","nivárzotok","[""nivárzotok"",""nivároztok""]","nivároztok","esp trial","3","false"
"html-button-response","44","427166","0.0-11.0-1.16","null","<p>A másik játékos ezt választotta: <b>nivároztok</b>.</p><p>&#10060;</p><p>A válaszaitok <b>nem</b> egyeznek meg.</p>","null","","","","feedback trial","",""
"html-button-response-esp","45","433667","0.0-11.0-0.17","5958","János imád bribasozni, ezért sokat bribaslik. Ők ritkán...","0","bribasoznak","[""bribasoznak"",""bribaslanak""]","bribasoznak","esp trial","3","true"
"html-button-response","46","437192","0.0-11.0-1.17","null","<p>A másik játékos ezt választotta: <b>bribasoznak</b>.</p><p>&#x2705;</p><p>A te válaszod és a másik játékos válasza <b>megegyeznek</b>.</p>","null","","","","feedback trial","",""
"html-button-response-esp","47","444370","0.0-11.0-0.18","6662","János imád frinyozni, ezért sokat frinylik. Mi ritkán...","1","frinyozunk","[""frinylunk"",""frinyozunk""]","frinyozunk","esp trial","3","true"
"html-button-response","48","447888","0.0-11.0-1.18","null","<p>A másik játékos ezt választotta: <b>frinyozunk</b>.</p><p>&#x2705;</p><p>A te válaszod és a másik játékos válasza <b>megegyeznek</b>.</p>","null","","","","feedback trial","",""
"html-button-response-esp","49","455759","0.0-11.0-0.19","7353","János imád trálodni, ezért sokat trálszik. Mi ritkán...","0","trálodunk","[""trálodunk"",""trálszunk""]","trálszunk","esp trial","3","false"
"html-button-response","50","459281","0.0-11.0-1.19","null","<p>A másik játékos ezt választotta: <b>trálszunk</b>.</p><p>&#10060;</p><p>A válaszaitok <b>nem</b> egyeznek meg.</p>","null","","","","feedback trial","",""
"html-button-response-esp","51","467646","0.0-11.0-0.20","7847","János imád klihasozni, ezért sokat klihaslik. Ti ritkán...","1","klihasoztok","[""klihaslotok"",""klihasoztok""]","klihasoztok","esp trial","3","true"
"html-button-response","52","471170","0.0-11.0-1.20","null","<p>A másik játékos ezt választotta: <b>klihasoztok</b>.</p><p>&#x2705;</p><p>A te válaszod és a másik játékos válasza <b>megegyeznek</b>.</p>","null","","","","feedback trial","",""
"html-button-response-esp","53","481766","0.0-11.0-0.21","10080","János imád bejezni, ezért sokat bejzik. Mi ritkán...","1","bejzünk","[""bejezünk"",""bejzünk""]","bejezünk","esp trial","3","false"
"html-button-response","54","485295","0.0-11.0-1.21","null","<p>A másik játékos ezt választotta: <b>bejezünk</b>.</p><p>&#10060;</p><p>A válaszaitok <b>nem</b> egyeznek meg.</p>","null","","","","feedback trial","",""
"html-button-response-esp","55","496670","0.0-11.0-0.22","10861","János imád frélegezni, ezért sokat frélegzik. Mi ritkán...","1","frélegzünk","[""frélegezünk"",""frélegzünk""]","frélegzünk","esp trial","3","true"
"html-button-response","56","500187","0.0-11.0-1.22","null","<p>A másik játékos ezt választotta: <b>frélegzünk</b>.</p><p>&#x2705;</p><p>A te válaszod és a másik játékos válasza <b>megegyeznek</b>.</p>","null","","","","feedback trial","",""
"html-button-response-esp","57","510365","0.0-11.0-0.23","9666","János imád dralágozni, ezért sokat dralágzik. Mi ritkán...","0","dralágzunk","[""dralágzunk"",""dralágozunk""]","dralágzunk","esp trial","3","true"
"html-button-response","58","513880","0.0-11.0-1.23","null","<p>A másik játékos ezt választotta: <b>dralágzunk</b>.</p><p>&#x2705;</p><p>A te válaszod és a másik játékos válasza <b>megegyeznek</b>.</p>","null","","","","feedback trial","",""
"html-button-response-esp","59","526760","0.0-11.0-0.24","12363","János imád flerékedni, ezért sokat flerékszik. Mi ritkán...","0","flerékszünk","[""flerékszünk"",""flerékedünk""]","flerékedünk","esp trial","3","false"
"html-button-response","60","530286","0.0-11.0-1.24","null","<p>A másik játékos ezt választotta: <b>flerékedünk</b>.</p><p>&#10060;</p><p>A válaszaitok <b>nem</b> egyeznek meg.</p>","null","","","","feedback trial","",""
"html-button-response-esp","61","538095","0.0-11.0-0.25","7298","János imád sűjözni, ezért sokat sűjlik. Mi ritkán...","1","sűjözünk","[""sűjlünk"",""sűjözünk""]","sűjlünk","esp trial","3","false"
"html-button-response","62","541614","0.0-11.0-1.25","null","<p>A másik játékos ezt választotta: <b>sűjlünk</b>.</p><p>&#10060;</p><p>A válaszaitok <b>nem</b> egyeznek meg.</p>","null","","","","feedback trial","",""
"html-button-response-esp","63","556497","0.0-11.0-0.26","14363","János imád jurozni, ezért sokat jurlik. Mi ritkán...","0","jurozunk","[""jurozunk"",""jurlunk""]","jurozunk","esp trial","3","true"
"html-button-response","64","560018","0.0-11.0-1.26","null","<p>A másik játékos ezt választotta: <b>jurozunk</b>.</p><p>&#x2705;</p><p>A te válaszod és a másik játékos válasza <b>megegyeznek</b>.</p>","null","","","","feedback trial","",""
"html-button-response-esp","65","566085","0.0-11.0-0.27","5552","János imád hubonyozni, ezért sokat hubonylik. Ti ritkán...","0","hubonylotok","[""hubonylotok"",""hubonyoztok""]","hubonyoztok","esp trial","3","false"
"html-button-response","66","569598","0.0-11.0-1.27","null","<p>A másik játékos ezt választotta: <b>hubonyoztok</b>.</p><p>&#10060;</p><p>A válaszaitok <b>nem</b> egyeznek meg.</p>","null","","","","feedback trial","",""
"html-button-response-esp","67","579662","0.0-11.0-0.28","9557","János imád pibegezni, ezért sokat pibegzik. Ők ritkán...","1","pibegzenek","[""pibegeznek"",""pibegzenek""]","pibegeznek","esp trial","3","false"
"html-button-response","68","583185","0.0-11.0-1.28","null","<p>A másik játékos ezt választotta: <b>pibegeznek</b>.</p><p>&#10060;</p><p>A válaszaitok <b>nem</b> egyeznek meg.</p>","null","","","","feedback trial","",""
"html-button-response-esp","69","590037","0.0-11.0-0.29","6338","János imád nyöbözni, ezért sokat nyöbzik. Ők ritkán...","0","nyöböznek","[""nyöböznek"",""nyöbzenek""]","nyöböznek","esp trial","3","true"
"html-button-response","70","593553","0.0-11.0-1.29","null","<p>A másik játékos ezt választotta: <b>nyöböznek</b>.</p><p>&#x2705;</p><p>A te válaszod és a másik játékos válasza <b>megegyeznek</b>.</p>","null","","","","feedback trial","",""
"html-button-response-esp","71","601298","0.0-11.0-0.30","7229","János imád ribegedni, ezért sokat ribegszik. Ti ritkán...","0","ribegszetek","[""ribegszetek"",""ribegedtek""]","ribegedtek","esp trial","3","false"
"html-button-response","72","604820","0.0-11.0-1.30","null","<p>A másik játékos ezt választotta: <b>ribegedtek</b>.</p><p>&#10060;</p><p>A válaszaitok <b>nem</b> egyeznek meg.</p>","null","","","","feedback trial","",""
"html-button-response-esp","73","611455","0.0-11.0-0.31","6121","János imád klűmözni, ezért sokat klűmlik. Ti ritkán...","0","klűmlötök","[""klűmlötök"",""klűmöztök""]","klűmöztök","esp trial","3","false"
"html-button-response","74","614985","0.0-11.0-1.31","null","<p>A másik játékos ezt választotta: <b>klűmöztök</b>.</p><p>&#10060;</p><p>A válaszaitok <b>nem</b> egyeznek meg.</p>","null","","","","feedback trial","",""
"html-button-response-esp","75","624153","0.0-11.0-0.32","8654","János imád flugonyozni, ezért sokat flugonylik. Ők ritkán...","0","flugonylanak","[""flugonylanak"",""flugonyoznak""]","flugonyoznak","esp trial","3","false"
"html-button-response","76","627680","0.0-11.0-1.32","null","<p>A másik játékos ezt választotta: <b>flugonyoznak</b>.</p><p>&#10060;</p><p>A válaszaitok <b>nem</b> egyeznek meg.</p>","null","","","","feedback trial","",""
"html-button-response-esp","77","635637","0.0-11.0-0.33","7441","János imád kláragodni, ezért sokat kláragszik. Ti ritkán...","0","kláragszotok","[""kláragszotok"",""kláragodtok""]","kláragodtok","esp trial","3","false"
"html-button-response","78","639160","0.0-11.0-1.33","null","<p>A másik játékos ezt választotta: <b>kláragodtok</b>.</p><p>&#10060;</p><p>A válaszaitok <b>nem</b> egyeznek meg.</p>","null","","","","feedback trial","",""
"html-button-response-esp","79","659308","0.0-11.0-0.34","19632","János imád sprebezni, ezért sokat sprebzik. Ők ritkán...","0","sprebzenek","[""sprebzenek"",""sprebeznek""]","sprebeznek","esp trial","3","false"
"html-button-response","80","662836","0.0-11.0-1.34","null","<p>A másik játékos ezt választotta: <b>sprebeznek</b>.</p><p>&#10060;</p><p>A válaszaitok <b>nem</b> egyeznek meg.</p>","null","","","","feedback trial","",""
"html-button-response-esp","81","669477","0.0-11.0-0.35","6132","János imád prihegedni, ezért sokat prihegszik. Ők ritkán...","1","prihegednek","[""prihegszenek"",""prihegednek""]","prihegednek","esp trial","3","true"
"html-button-response","82","672991","0.0-11.0-1.35","null","<p>A másik játékos ezt választotta: <b>prihegednek</b>.</p><p>&#x2705;</p><p>A te válaszod és a másik játékos válasza <b>megegyeznek</b>.</p>","null","","","","feedback trial","",""
"html-button-response-esp","83","680228","0.0-11.0-0.36","6720","János imád nyülöközni, ezért sokat nyülöklik. Ők ritkán...","1","nyülöklenek","[""nyülököznek"",""nyülöklenek""]","nyülököznek","esp trial","3","false"
"html-button-response","84","683740","0.0-11.0-1.36","null","<p>A másik játékos ezt választotta: <b>nyülököznek</b>.</p><p>&#10060;</p><p>A válaszaitok <b>nem</b> egyeznek meg.</p>","null","","","","feedback trial","",""
"html-button-response-esp","85","691813","0.0-11.0-0.37","7565","János imád metégedni, ezért sokat metégszik. Ők ritkán...","0","metégednek","[""metégednek"",""metégszenek""]","metégednek","esp trial","3","true"
"html-button-response","86","695334","0.0-11.0-1.37","null","<p>A másik játékos ezt választotta: <b>metégednek</b>.</p><p>&#x2705;</p><p>A te válaszod és a másik játékos válasza <b>megegyeznek</b>.</p>","null","","","","feedback trial","",""
"html-button-response-esp","87","714780","0.0-11.0-0.38","18933","János imád spivejezni, ezért sokat spivejlik. Ők ritkán...","0","spivejlenek","[""spivejlenek"",""spivejeznek""]","spivejeznek","esp trial","3","false"
"html-button-response","88","718301","0.0-11.0-1.38","null","<p>A másik játékos ezt választotta: <b>spivejeznek</b>.</p><p>&#10060;</p><p>A válaszaitok <b>nem</b> egyeznek meg.</p>","null","","","","feedback trial","",""
"html-button-response-esp","89","731752","0.0-11.0-0.39","12939","János imád döjözni, ezért sokat döjlik. Ők ritkán...","0","döjöznek","[""döjöznek"",""döjlenek""]","döjlenek","esp trial","3","false"
"html-button-response","90","735280","0.0-11.0-1.39","null","<p>A másik játékos ezt választotta: <b>döjlenek</b>.</p><p>&#10060;</p><p>A válaszaitok <b>nem</b> egyeznek meg.</p>","null","","","","feedback trial","",""
"html-button-response-esp","91","747585","0.0-11.0-0.40","11788","János imád trukodni, ezért sokat trukszik. Ti ritkán...","1","trukodtok","[""trukszotok"",""trukodtok""]","trukodtok","esp trial","3","true"
"html-button-response","92","751099","0.0-11.0-1.40","null","<p>A másik játékos ezt választotta: <b>trukodtok</b>.</p><p>&#x2705;</p><p>A te válaszod és a másik játékos válasza <b>megegyeznek</b>.</p>","null","","","","feedback trial","",""
"html-button-response-esp","93","758409","0.0-11.0-0.41","6802","János imád prugorozni, ezért sokat prugorzik. Ti ritkán...","1","prugorzotok","[""prugoroztok"",""prugorzotok""]","prugoroztok","esp trial","3","false"
"html-button-response","94","761925","0.0-11.0-1.41","null","<p>A másik játékos ezt választotta: <b>prugoroztok</b>.</p><p>&#10060;</p><p>A válaszaitok <b>nem</b> egyeznek meg.</p>","null","","","","feedback trial","",""
"html-button-response-esp","95","773919","0.0-11.0-0.42","11481","János imád frirozni, ezért sokat frirzik. Mi ritkán...","0","frirozunk","[""frirozunk"",""frirzunk""]","frirozunk","esp trial","3","true"
"html-button-response","96","777446","0.0-11.0-1.42","null","<p>A másik játékos ezt választotta: <b>frirozunk</b>.</p><p>&#x2705;</p><p>A te válaszod és a másik játékos válasza <b>megegyeznek</b>.</p>","null","","","","feedback trial","",""
"html-button-response-esp","97","786377","0.0-11.0-0.43","8419","János imád trálakozni, ezért sokat trálaklik. Ők ritkán...","0","trálakoznak","[""trálakoznak"",""trálaklanak""]","trálakoznak","esp trial","3","true"
"html-button-response","98","789906","0.0-11.0-1.43","null","<p>A másik játékos ezt választotta: <b>trálakoznak</b>.</p><p>&#x2705;</p><p>A te válaszod és a másik játékos válasza <b>megegyeznek</b>.</p>","null","","","","feedback trial","",""
"html-button-response-esp","99","800022","0.0-11.0-0.44","9603","János imád nyádozni, ezért sokat nyádlik. Ők ritkán...","0","nyádlanak","[""nyádlanak"",""nyádoznak""]","nyádlanak","esp trial","3","true"
"html-button-response","100","803538","0.0-11.0-1.44","null","<p>A másik játékos ezt választotta: <b>nyádlanak</b>.</p><p>&#x2705;</p><p>A te válaszod és a másik játékos válasza <b>megegyeznek</b>.</p>","null","","","","feedback trial","",""
"html-button-response-esp","101","815625","0.0-11.0-0.45","11573","János imád bribékedni, ezért sokat bribékszik. Ti ritkán...","1","bribékszetek","[""bribékedtek"",""bribékszetek""]","bribékedtek","esp trial","3","false"
"html-button-response","102","819153","0.0-11.0-1.45","null","<p>A másik játékos ezt választotta: <b>bribékedtek</b>.</p><p>&#10060;</p><p>A válaszaitok <b>nem</b> egyeznek meg.</p>","null","","","","feedback trial","",""
"html-button-response-esp","103","828054","0.0-11.0-0.46","8385","János imád flátozni, ezért sokat flátlik. Ti ritkán...","0","flátoztok","[""flátoztok"",""flátlotok""]","flátoztok","esp trial","3","true"
"html-button-response","104","831583","0.0-11.0-1.46","null","<p>A másik játékos ezt választotta: <b>flátoztok</b>.</p><p>&#x2705;</p><p>A te válaszod és a másik játékos válasza <b>megegyeznek</b>.</p>","null","","","","feedback trial","",""
"html-button-response-esp","105","857285","0.0-11.0-0.47","25185","János imád bötőrözni, ezért sokat bötőrzik. Mi ritkán...","1","bötőrzünk","[""bötőrözünk"",""bötőrzünk""]","bötőrözünk","esp trial","3","false"
"html-button-response","106","860810","0.0-11.0-1.47","null","<p>A másik játékos ezt választotta: <b>bötőrözünk</b>.</p><p>&#10060;</p><p>A válaszaitok <b>nem</b> egyeznek meg.</p>","null","","","","feedback trial","",""
"html-button-response-esp","107","866804","0.0-11.0-0.48","5482","János imád nyizozni, ezért sokat nyizlik. Mi ritkán...","0","nyizlunk","[""nyizlunk"",""nyizozunk""]","nyizlunk","esp trial","3","true"
"html-button-response","108","870323","0.0-11.0-1.48","null","<p>A másik játékos ezt választotta: <b>nyizlunk</b>.</p><p>&#x2705;</p><p>A te válaszod és a másik játékos válasza <b>megegyeznek</b>.</p>","null","","","","feedback trial","",""
"html-button-response-esp","109","877712","0.0-11.0-0.49","6878","János imád hiragozni, ezért sokat hiragzik. Ők ritkán...","0","hiragoznak","[""hiragoznak"",""hiragzanak""]","hiragoznak","esp trial","3","true"
"html-button-response","110","881241","0.0-11.0-1.49","null","<p>A másik játékos ezt választotta: <b>hiragoznak</b>.</p><p>&#x2705;</p><p>A te válaszod és a másik játékos válasza <b>megegyeznek</b>.</p>","null","","","","feedback trial","",""
"html-button-response-esp","111","889950","0.0-11.0-0.50","8192","János imád nurokozni, ezért sokat nuroklik. Mi ritkán...","0","nuroklunk","[""nuroklunk"",""nurokozunk""]","nuroklunk","esp trial","3","true"
"html-button-response","112","893474","0.0-11.0-1.50","null","<p>A másik játékos ezt választotta: <b>nuroklunk</b>.</p><p>&#x2705;</p><p>A te válaszod és a másik játékos válasza <b>megegyeznek</b>.</p>","null","","","","feedback trial","",""
"html-button-response-esp","113","906791","0.0-11.0-0.51","12802","János imád tögözni, ezért sokat töglik. Ők ritkán...","0","tögöznek","[""tögöznek"",""töglenek""]","töglenek","esp trial","3","false"
"html-button-response","114","910320","0.0-11.0-1.51","null","<p>A másik játékos ezt választotta: <b>töglenek</b>.</p><p>&#10060;</p><p>A válaszaitok <b>nem</b> egyeznek meg.</p>","null","","","","feedback trial","",""
"html-button-response-esp","115","927573","0.0-11.0-0.52","16737","János imád brürözni, ezért sokat brürzik. Ők ritkán...","0","brüröznek","[""brüröznek"",""brürzenek""]","brüröznek","esp trial","3","true"
"html-button-response","116","931085","0.0-11.0-1.52","null","<p>A másik játékos ezt választotta: <b>brüröznek</b>.</p><p>&#x2705;</p><p>A te válaszod és a másik játékos válasza <b>megegyeznek</b>.</p>","null","","","","feedback trial","",""
"html-button-response-esp","117","938944","0.0-11.0-0.53","7348","János imád játozni, ezért sokat játlik. Mi ritkán...","0","játozunk","[""játozunk"",""játlunk""]","játlunk","esp trial","3","false"
"html-button-response","118","942471","0.0-11.0-1.53","null","<p>A másik játékos ezt választotta: <b>játlunk</b>.</p><p>&#10060;</p><p>A válaszaitok <b>nem</b> egyeznek meg.</p>","null","","","","feedback trial","",""
"html-button-response","119","954207","0.0-12.0","11219","<p>A közös játék most véget ért.</p><p>Mielőtt eláruljuk a végső pontszámodat, arra kérlek, játszd a szóválasztós játékot néhány percig egyedül is.</p><p>A feladatod ugyanaz lesz, választani két lehetőség közül.</p><p>Most viszont egyedül kell döntened, hogy te melyiket választanád.</p>","0","","","","","",""
"html-button-response-clever","120","981072","0.0-13.0-0.0","26347","János imád pilégedni, ezért sokat pilégszik. Ők ritkán...","0","pilégednek","[""pilégednek"",""pilégszenek""]","","posttest trial","4",""
"html-button-response-clever","121","1009470","0.0-13.0-0.1","27875","János imád spiharozni, ezért sokat spiharzik. Ti ritkán...","0","spiharoztok","[""spiharoztok"",""spiharzotok""]","","posttest trial","4",""
"html-button-response-clever","122","1014919","0.0-13.0-0.2","4927","János imád lűközni, ezért sokat lűklik. Ők ritkán...","0","lűklenek","[""lűklenek"",""lűköznek""]","","posttest trial","4",""
"html-button-response-clever","123","1022462","0.0-13.0-0.3","7020","János imád trugokozni, ezért sokat trugoklik. Ők ritkán...","1","trugoklanak","[""trugokoznak"",""trugoklanak""]","","posttest trial","4",""
"html-button-response-clever","124","1034100","0.0-13.0-0.4","11126","János imád flűgözni, ezért sokat flűgzik. Mi ritkán...","0","flűgzünk","[""flűgzünk"",""flűgözünk""]","","posttest trial","4",""
"html-button-response-clever","125","1040405","0.0-13.0-0.5","5788","János imád gihejezni, ezért sokat gihejlik. Mi ritkán...","1","gihejlünk","[""gihejezünk"",""gihejlünk""]","","posttest trial","4",""
"html-button-response-clever","126","1047789","0.0-13.0-0.6","6870","János imád brivakozni, ezért sokat brivaklik. Ti ritkán...","0","brivaklotok","[""brivaklotok"",""brivakoztok""]","","posttest trial","4",""
"html-button-response-clever","127","1055510","0.0-13.0-0.7","7205","János imád flöközni, ezért sokat flöklik. Ti ritkán...","0","flöklötök","[""flöklötök"",""flököztök""]","","posttest trial","4",""
"html-button-response-clever","128","1063710","0.0-13.0-0.8","7686","János imád spibegezni, ezért sokat spibeglik. Mi ritkán...","0","spibeglünk","[""spibeglünk"",""spibegezünk""]","","posttest trial","4",""
"html-button-response-clever","129","1075704","0.0-13.0-0.9","11470","János imád nyürözni, ezért sokat nyürzik. Ők ritkán...","0","nyürzenek","[""nyürzenek"",""nyüröznek""]","","posttest trial","4",""
"html-button-response-clever","130","1086005","0.0-13.0-0.10","9781","János imád frálapodni, ezért sokat frálapszik. Ti ritkán...","0","frálapszotok","[""frálapszotok"",""frálapodtok""]","","posttest trial","4",""
"html-button-response-clever","131","1094490","0.0-13.0-0.11","7967","János imád bratározni, ezért sokat bratárzik. Ők ritkán...","0","bratárzanak","[""bratárzanak"",""bratároznak""]","","posttest trial","4",""
"html-button-response-clever","132","1106013","0.0-13.0-0.12","11002","János imád sprűrözni, ezért sokat sprűrlik. Ők ritkán...","0","sprűrlenek","[""sprűrlenek"",""sprűröznek""]","","posttest trial","4",""
"html-button-response-clever","133","1120594","0.0-13.0-0.13","14067","János imád föködni, ezért sokat fökszik. Ők ritkán...","0","fökszenek","[""fökszenek"",""föködnek""]","","posttest trial","4",""
"html-button-response-clever","134","1127988","0.0-13.0-0.14","6878","János imád branyozni, ezért sokat branylik. Ők ritkán...","1","branylanak","[""branyoznak"",""branylanak""]","","posttest trial","4",""
"html-button-response-clever","135","1137625","0.0-13.0-0.15","9126","János imád dirozni, ezért sokat dirlik. Ti ritkán...","1","dirlotok","[""diroztok"",""dirlotok""]","","posttest trial","4",""
"html-button-response-clever","136","1151150","0.0-13.0-0.16","13011","János imád sprudozni, ezért sokat sprudlik. Mi ritkán...","0","sprudozunk","[""sprudozunk"",""sprudlunk""]","","posttest trial","4",""
"html-button-response-clever","137","1160221","0.0-13.0-0.17","8557","János imád prögözni, ezért sokat prögzik. Ti ritkán...","0","prögzötök","[""prögzötök"",""prögöztök""]","","posttest trial","4",""
"html-button-response-clever","138","1170747","0.0-13.0-0.18","10012","János imád dabozni, ezért sokat dabzik. Ti ritkán...","0","dabzotok","[""dabzotok"",""daboztok""]","","posttest trial","4",""
"html-button-response-clever","139","1177555","0.0-13.0-0.19","6290","János imád frálasozni, ezért sokat frálaslik. Ők ritkán...","1","frálasoznak","[""frálaslanak"",""frálasoznak""]","","posttest trial","4",""
"html-button-response-clever","140","1185251","0.0-13.0-0.20","7179","János imád klehényezni, ezért sokat klehénylik. Ti ritkán...","0","klehényeztek","[""klehényeztek"",""klehényletek""]","","posttest trial","4",""
"html-button-response-clever","141","1204080","0.0-13.0-0.21","18313","János imád kűdözni, ezért sokat kűdlik. Ők ritkán...","0","kűdlenek","[""kűdlenek"",""kűdöznek""]","","posttest trial","4",""
"html-button-response-clever","142","1265377","0.0-13.0-0.22","60784","János imád püzözni, ezért sokat püzlik. Ti ritkán...","0","püzlötök","[""püzlötök"",""püzöztök""]","","posttest trial","4",""
"html-button-response-clever","143","1273007","0.0-13.0-0.23","7110","János imád privékedni, ezért sokat privékszik. Ők ritkán...","0","privékszenek","[""privékszenek"",""privékednek""]","","posttest trial","4",""
"html-button-response-clever","144","1280361","0.0-13.0-0.24","6831","János imád spirágozni, ezért sokat spiráglik. Ti ritkán...","0","spiráglotok","[""spiráglotok"",""spirágoztok""]","","posttest trial","4",""
"html-button-response-clever","145","1288396","0.0-13.0-0.25","7513","János imád nyivágozni, ezért sokat nyivágzik. Mi ritkán...","0","nyivágzunk","[""nyivágzunk"",""nyivágozunk""]","","posttest trial","4",""
"html-button-response-clever","146","1295903","0.0-13.0-0.26","6986","János imád fröjözni, ezért sokat fröjzik. Ti ritkán...","1","fröjöztök","[""fröjzötök"",""fröjöztök""]","","posttest trial","4",""
"html-button-response-clever","147","1309303","0.0-13.0-0.27","12880","János imád trugozni, ezért sokat trugzik. Ők ritkán...","1","trugzanak","[""trugoznak"",""trugzanak""]","","posttest trial","4",""
"html-button-response-clever","148","1321367","0.0-13.0-0.28","11545","János imád köszözni, ezért sokat köszlik. Ti ritkán...","1","köszlötök","[""köszöztök"",""köszlötök""]","","posttest trial","4",""
"html-button-response-clever","149","1328034","0.0-13.0-0.29","6151","János imád dujozni, ezért sokat dujzik. Ők ritkán...","0","dujzanak","[""dujzanak"",""dujoznak""]","","posttest trial","4",""
"html-button-response-clever","150","1334518","0.0-13.0-0.30","5961","János imád molodni, ezért sokat molszik. Ti ritkán...","0","molszotok","[""molszotok"",""molodtok""]","","posttest trial","4",""
"html-button-response-clever","151","1343817","0.0-13.0-0.31","8785","János imád pragányozni, ezért sokat pragánylik. Ti ritkán...","0","pragánylotok","[""pragánylotok"",""pragányoztok""]","","posttest trial","4",""
"html-button-response-clever","152","1350697","0.0-13.0-0.32","6364","János imád brözözni, ezért sokat brözlik. Ti ritkán...","0","brözlötök","[""brözlötök"",""brözöztök""]","","posttest trial","4",""
"html-button-response-clever","153","1357082","0.0-13.0-0.33","5866","János imád dilakozni, ezért sokat dilaklik. Ti ritkán...","0","dilaklotok","[""dilaklotok"",""dilakoztok""]","","posttest trial","4",""
"html-button-response-clever","154","1364379","0.0-13.0-0.34","6779","János imád drilarozni, ezért sokat drilarzik. Mi ritkán...","0","drilarzunk","[""drilarzunk"",""drilarozunk""]","","posttest trial","4",""
"html-button-response-clever","155","1374679","0.0-13.0-0.35","9785","János imád mülőrözni, ezért sokat mülőrzik. Mi ritkán...","0","mülőrzünk","[""mülőrzünk"",""mülőrözünk""]","","posttest trial","4",""
"html-button-response-clever","156","1381524","0.0-13.0-0.36","6319","János imád csubozni, ezért sokat csubzik. Mi ritkán...","0","csubzunk","[""csubzunk"",""csubozunk""]","","posttest trial","4",""
"html-button-response-clever","157","1392443","0.0-13.0-0.37","10404","János imád trivakodni, ezért sokat trivakszik. Mi ritkán...","0","trivakszunk","[""trivakszunk"",""trivakodunk""]","","posttest trial","4",""
"html-button-response-clever","158","1404933","0.0-13.0-0.38","11975","János imád sprozozni, ezért sokat sprozlik. Ők ritkán...","0","sprozlanak","[""sprozlanak"",""sprozoznak""]","","posttest trial","4",""
"html-button-response-clever","159","1409861","0.0-13.0-0.39","4419","János imád dárakodni, ezért sokat dárakszik. Mi ritkán...","0","dárakszunk","[""dárakszunk"",""dárakodunk""]","","posttest trial","4",""
"html-button-response-clever","160","1415441","0.0-13.0-0.40","5062","János imád frakozni, ezért sokat fraklik. Mi ritkán...","1","fraklunk","[""frakozunk"",""fraklunk""]","","posttest trial","4",""
"html-button-response-clever","161","1421976","0.0-13.0-0.41","6017","János imád csibagozni, ezért sokat csibagzik. Ti ritkán...","1","csibagzotok","[""csibagoztok"",""csibagzotok""]","","posttest trial","4",""
"html-button-response-clever","162","1430411","0.0-13.0-0.42","7918","János imád brülösözni, ezért sokat brülöslik. Mi ritkán...","1","brülöslünk","[""brülösözünk"",""brülöslünk""]","","posttest trial","4",""
"html-button-response-clever","163","1437541","0.0-13.0-0.43","6616","János imád posozni, ezért sokat poslik. Ti ritkán...","0","poslotok","[""poslotok"",""posoztok""]","","posttest trial","4",""
"html-button-response-clever","164","1441983","0.0-13.0-0.44","3929","János imád lájozni, ezért sokat lájzik. Ti ritkán...","0","lájzotok","[""lájzotok"",""lájoztok""]","","posttest trial","4",""
"html-button-response-clever","165","1458935","0.0-13.0-0.45","16431","János imád gyihegezni, ezért sokat gyihegzik. Ti ritkán...","1","gyihegeztek","[""gyihegzetek"",""gyihegeztek""]","","posttest trial","4",""
"html-button-response-clever","166","1466669","0.0-13.0-0.46","7216","János imád trikozni, ezért sokat triklik. Ti ritkán...","0","triklotok","[""triklotok"",""trikoztok""]","","posttest trial","4",""
"html-button-response-clever","167","1477182","0.0-13.0-0.47","9995","János imád flüröközni, ezért sokat flüröklik. Ti ritkán...","1","flüröklötök","[""flürököztök"",""flüröklötök""]","","posttest trial","4",""
"html-button-response-clever","168","1482762","0.0-13.0-0.48","5068","János imád mágamozni, ezért sokat mágamlik. Mi ritkán...","1","mágamlunk","[""mágamozunk"",""mágamlunk""]","","posttest trial","4",""
"html-button-response-clever","169","1505156","0.0-13.0-0.49","21875","János imád drűrözni, ezért sokat drűrzik. Ők ritkán...","1","drűrzenek","[""drűröznek"",""drűrzenek""]","","posttest trial","4",""
"html-button-response-clever","170","1511111","0.0-13.0-0.50","5440","János imád virozni, ezért sokat virzik. Ők ritkán...","1","virzanak","[""viroznak"",""virzanak""]","","posttest trial","4",""
"html-button-response-clever","171","1517338","0.0-13.0-0.51","5707","János imád flemezni, ezért sokat flemlik. Mi ritkán...","0","flemlünk","[""flemlünk"",""flemezünk""]","","posttest trial","4",""
"html-button-response-clever","172","1529643","0.0-13.0-0.52","11787","János imád spügözni, ezért sokat spügzik. Mi ritkán...","0","spügözünk","[""spügözünk"",""spügzünk""]","","posttest trial","4",""
"html-button-response-clever","173","1538773","0.0-13.0-0.53","8616","János imád prélemezni, ezért sokat prélemlik. Ők ritkán...","1","prélemlenek","[""prélemeznek"",""prélemlenek""]","","posttest trial","4",""
"html-button-response","174","1544325","0.0-14.0","5035","<p> Vége a játéknak. A teljes pontszámod 27/54.</p><p> Szép munka! &#128526;&#128526;&#128526;</p><p>A Befejezés gomb megnyomása után bezárhatod a böngészőablakot.</p>","0","","","","","",""
"html-keyboard-response","175","1549848","0.0-15.0","null","<div class=""message"">
         <p>Egy kis türelmet kérünk, amíg elmentjük az adatokat...</p>
         </div>","null","","","","","",""
