"trial_type","trial_index","time_elapsed","internal_node_id","rt","stimulus","response","response_string","choices","esp_response","trial_kind","list_number","esp_match"
"pavlovia","0","1138","0.0-0.0","","","","","","","","",""
"html-button-response","1","38922","0.0-1.0","37264","<p>Kedves Résztvevő! A Budapesti Műszaki és Gazdaságtudományi Egyetem Kognitív Tudományi Tanszékének kutatásában való részvételed kérjük. A kutatásban azt vizsgáljuk, hogy a magyar anyanyelvűek hogyan használnak bizonyos szóalakokat, és hogy milyen képük van arról, hogy mások hogyan használják, hogyan képzik a szavakat. Ez hozzásegít bennünket ahhoz, hogy jobban megértsük, hogyan dolgozza fel és tárolja a nyelvet az emberi agy, és hogyan működnek, hogyan változnak egy adott közösség nyelvi konvenciói.</p><p>A vizsgálat egy rövid számítógépes feladatból fog állni. A kutatásban való részvétel önkéntes, a részvételi szándék bármikor visszavonható. A résztvevők eredményeit név nélkül kezeljük, így nem beazonosíthatók az adatok feldolgozása során. Minden személyes adatot az EU általános adatvédelmi rendeletének (GDPR) megfelelően kezelünk és legfeljebb öt éven belül megsemmisítünk. A vizsgálat jellemzően húsz percet vesz igénybe.</p><p>Kutatásvezető:</p><p>Dr. Rácz Péter, tudományos munkatárs, BME KTT</p><p>e-mail: racz.peter.marton@ttk.bme.hu</p>","0","","","","","",""
"html-button-response","2","111757","0.0-2.0","72323","<p>A kísérletben szavakat fogsz látni. Ezek között lesznek olyanok, amelyeket ismersz, de előfordulhatnak olyanok is, amelyeket nem ismersz, sőt, vannak köztük kitalált szavak is. Minden szónál látni fogsz toldalékolt alakokat. A te feladatod az lesz, hogy minden szóhoz kiválaszd azt a toldalékolt alakot, amely a te számodra ismerősebben, természetesebben hangzik. Rossz válaszok nincsenek, mert van olyan, hogy különböző embereknek más és más szó tűnik jobb választásnak. A választ úgy tudod majd kiválasztani, ha rákattintasz.</p><p>Ebben a szóválasztós játékban egy másik játékossal együtt veszel majd részt. A másik játékos is minden esetben azok közül a lehetőségek közül válogathat, mint te. Kettőtök feladata az, hogy ugyanazt a lehetőséget válasszátok minden esetben. Ahhoz, hogy ez sikerüljön, neked figyelned kell arra, hogy a másik játékos milyen válaszokat ad, és ennek alapján meg kell tippelned, hogyan választ legközelebb. Ha eltalálod, akkor pontot kapsz.</p>","0","","","","","",""
"html-button-response","3","142265","0.0-3.0","29986","<p>Kérjük, olvasd el az alábbi nyilatkozatot, és amennyiben egyetértesz vele, nyomj a Beleegyezés gombra!</p><p>Kijelentem, hogy magyar anyanyelvű személyként önként veszek részt a BME KTT kísérletében. A kutatás céljával és folyamatával kapcsolatban elegendő tájékoztatást kaptam, lehetőségem volt kérdések feltételére, és esetleges kérdéseimre megfelelő válaszokat kaptam. A tájékoztatás alapján elegendő mennyiségű információ áll a rendelkezésemre, hogy eldönthessem, részt kívánok-e venni a kutatásban.</p><p>Tisztában vagyok vele, hogy részvételi szándékomat és adataimat bármikor, indoklás nélkül visszavonhatom.</p><p>Értem és tudomásul veszem, hogy a kutatás tudományos célokat szolgál, és az általam szolgáltatott adatokat a BME kizárólag kutatási célból használja fel. Tudomásul veszem, hogy eredményeimet a többi résztvevő eredményeivel együtt kezelik, így egyéni teljesítményemről visszajelzést, szakvéleményt nem kapok.</p><p>Megértettem, hogy adataim kezelését illetően a BME az EU általános adatvédelmi rendelete (GDPR), a hatályos adatvédelmi törvény és a nemzetközi kutatás-etikai alapelvek szerint jár el. Eredményeim anonim módon kerülnek feldolgozásra, és a kutatás résztvevői az azonosításomra alkalmas adataimat harmadik félnek nem szolgáltatják ki. Engedélyezem a BME számára a jelen kutatásban felvett adataim feldolgozását és tárolását, beleértve azok későbbi kutatásokhoz való felhasználását is. Személyes adataim kezelésével kapcsolatban tájékoztatást kérhetek a kutatás résztvevőitől, az adatkezelés ellen tiltakozhatok, kérhetem személyes adataim helyesbítését, törlését vagy zárolását, valamint jogorvoslatért a Nemzeti Adatvédelmi és Információszabadság Hatósághoz fordulhatok.</p><p>Kijelentem, hogy a kutatásban való részvételem körülményeiről részletes tájékoztatást kaptam, és a feltételeket elfogadom.</p>","0","","","","","",""
"survey-text","4","175519","0.0-4.0","32733","","{""Q0"":""NHXIM7"",""Q1"":""nő"",""Q2"":""1998"",""Q3"":""17""}","","","","","",""
"html-button-response","5","203906","0.0-5.0","27876","<p>Ebben a játékban szavakat kell toldalékolni.</p> <p>Minden körben mutatunk majd egy példamondatot, amiben lesz egy szó.</p> <p>Alatta jön egy második mondat, ezt a mondatot neked kell majd befejezni, ugyanezzel a szóval.</p> <p>Nem biztos, hogy a szó eleve ismerős lesz számodra!</p> <p>Minden mondathoz adunk két lehetőséget, ezeket balra és jobbra látod majd.</p> <p>A játék kb. negyedóráig-húsz percig tart.</p>","0","","","","","",""
"html-button-response","6","230223","0.0-6.0","25795","<p>Nézzünk egy példát!</p> <p>A példamondat: ""János nagyon szeret rancsúrozni.""</p><p>Neked ezt a mondatot kell befejezned: ""Én is szívesen...""</p><p>A lehetőségek pedig ezek:</p>","0","","","","","",""
"html-button-response","7","237197","0.0-7.0","6456","<p>Nagyon jó.</p><p>Ezt a játékot nem egyedül fogod játszani, hanem egy másik játékossal.</p><p>Mielőtt továbblépünk, összekapcsolunk titeket egymással.</p><p>Ez igénybe vehet néhány másodpercet, amihez szíves türelmed kérjük.</p>","0","","","","","",""
"html-button-response","8","242931","0.0-8.0","null","<p>Csatlakozás a másik játékoshoz...</p>","null","","","","","",""
"html-button-response","9","245447","0.0-9.0","null","<p> Sikeres kapcsolódás!</p>","null","","","","","",""
"html-button-response","10","255967","0.0-10.0","null","<p>A következőkben ketten játsszátok a szóválasztós játékot.</p><p>A feladatotok az lesz, hogy minden körben <b>ugyanazt</b> a szót válasszátok.</p><p>Minden ilyen egyező válaszért pontot kaptok.</p><p>Próbáld meg kitalálni, mit választ a másik játékos!</p><p>Bármikor választhatsz, a körnek akkor van vége, ha mindketten döntöttetek.</p><p>Sok sikert!</p>","null","","","","","",""
"html-button-response-esp","11","264569","0.0-11.0-0.0","8081","Te bizony sokat pratánylasz. Én is sokat...","0","pratánylom","[""pratánylom"",""pratánylok""]","pratánylom","esp trial","2","true"
"html-button-response","12","268100","0.0-11.0-1.0","null","<p>A másik játékos ezt választotta: <b>pratánylom</b>.</p><p>&#x2705;</p><p>A te válaszod és a másik játékos válasza <b>megegyeznek</b>.</p>","null","","","","feedback trial","",""
"html-button-response-esp","13","275647","0.0-11.0-0.1","7025","Te bizony sokat brüjlesz. Én is sokat...","0","brüjlök","[""brüjlök"",""brüjlöm""]","brüjlöm","esp trial","2","false"
"html-button-response","14","279177","0.0-11.0-1.1","null","<p>A másik játékos ezt választotta: <b>brüjlöm</b>.</p><p>&#10060;</p><p>A válaszaitok <b>nem</b> egyeznek meg.</p>","null","","","","feedback trial","",""
"html-button-response-esp","15","285287","0.0-11.0-0.2","5586","Te bizony sokat frilegszel. Én is sokat...","0","frilegszem","[""frilegszem"",""frilegszek""]","frilegszek","esp trial","2","false"
"html-button-response","16","288841","0.0-11.0-1.2","null","<p>A másik játékos ezt választotta: <b>frilegszek</b>.</p><p>&#10060;</p><p>A válaszaitok <b>nem</b> egyeznek meg.</p>","null","","","","feedback trial","",""
"html-button-response-esp","17","294395","0.0-11.0-0.3","5036","Te bizony sokat jüslesz. Én is sokat...","1","jüslök","[""jüslöm"",""jüslök""]","jüslöm","esp trial","2","false"
"html-button-response","18","297926","0.0-11.0-1.3","null","<p>A másik játékos ezt választotta: <b>jüslöm</b>.</p><p>&#10060;</p><p>A válaszaitok <b>nem</b> egyeznek meg.</p>","null","","","","feedback trial","",""
"html-button-response-esp","19","304562","0.0-11.0-0.4","6129","Te bizony sokat flagárzol. Én is sokat...","0","flagárzom","[""flagárzom"",""flagárzok""]","flagárzom","esp trial","2","true"
"html-button-response","20","308092","0.0-11.0-1.4","null","<p>A másik játékos ezt választotta: <b>flagárzom</b>.</p><p>&#x2705;</p><p>A te válaszod és a másik játékos válasza <b>megegyeznek</b>.</p>","null","","","","feedback trial","",""
"html-button-response-esp","21","315097","0.0-11.0-0.5","6486","Te bizony sokat fibamlasz. Én is sokat...","1","fibamlok","[""fibamlom"",""fibamlok""]","fibamlom","esp trial","2","false"
"html-button-response","22","318631","0.0-11.0-1.5","null","<p>A másik játékos ezt választotta: <b>fibamlom</b>.</p><p>&#10060;</p><p>A válaszaitok <b>nem</b> egyeznek meg.</p>","null","","","","feedback trial","",""
"html-button-response-esp","23","324055","0.0-11.0-0.6","4912","Te bizony sokat szirlasz. Én is sokat...","1","szirlok","[""szirlom"",""szirlok""]","szirlom","esp trial","2","false"
"html-button-response","24","327589","0.0-11.0-1.6","null","<p>A másik játékos ezt választotta: <b>szirlom</b>.</p><p>&#10060;</p><p>A válaszaitok <b>nem</b> egyeznek meg.</p>","null","","","","feedback trial","",""
"html-button-response-esp","25","336045","0.0-11.0-0.7","7930","Te bizony sokat tomlasz. Én is sokat...","1","tomlom","[""tomlok"",""tomlom""]","tomlom","esp trial","2","true"
"html-button-response","26","339576","0.0-11.0-1.7","null","<p>A másik játékos ezt választotta: <b>tomlom</b>.</p><p>&#x2705;</p><p>A te válaszod és a másik játékos válasza <b>megegyeznek</b>.</p>","null","","","","feedback trial","",""
"html-button-response-esp","27","344307","0.0-11.0-0.8","2402","Te bizony sokat pebzel. Én is sokat...","1","pebzem","[""pebzek"",""pebzem""]","pebzem","esp trial","2","true"
"html-button-response","28","347839","0.0-11.0-1.8","null","<p>A másik játékos ezt választotta: <b>pebzem</b>.</p><p>&#x2705;</p><p>A te válaszod és a másik játékos válasza <b>megegyeznek</b>.</p>","null","","","","feedback trial","",""
"html-button-response-esp","29","352572","0.0-11.0-0.9","2546","Te bizony sokat flagánylasz. Én is sokat...","1","flagánylom","[""flagánylok"",""flagánylom""]","flagánylom","esp trial","2","true"
"html-button-response","30","356101","0.0-11.0-1.9","null","<p>A másik játékos ezt választotta: <b>flagánylom</b>.</p><p>&#x2705;</p><p>A te válaszod és a másik játékos válasza <b>megegyeznek</b>.</p>","null","","","","feedback trial","",""
"html-button-response-esp","31","360818","0.0-11.0-0.10","4003","Te bizony sokat femlesz. Én is sokat...","0","femlem","[""femlem"",""femlek""]","femlem","esp trial","2","true"
"html-button-response","32","364331","0.0-11.0-1.10","null","<p>A másik játékos ezt választotta: <b>femlem</b>.</p><p>&#x2705;</p><p>A te válaszod és a másik játékos válasza <b>megegyeznek</b>.</p>","null","","","","feedback trial","",""
"html-button-response-esp","33","369074","0.0-11.0-0.11","2409","Te bizony sokat lorjódzol. Én is sokat...","0","lorjódzom","[""lorjódzom"",""lorjódzok""]","lorjódzom","esp trial","2","true"
"html-button-response","34","372603","0.0-11.0-1.11","null","<p>A másik játékos ezt választotta: <b>lorjódzom</b>.</p><p>&#x2705;</p><p>A te válaszod és a másik játékos válasza <b>megegyeznek</b>.</p>","null","","","","feedback trial","",""
"html-button-response-esp","35","377338","0.0-11.0-0.12","2479","Te bizony sokat spéslesz. Én is sokat...","0","spéslem","[""spéslem"",""spéslek""]","spéslem","esp trial","2","true"
"html-button-response","36","380868","0.0-11.0-1.12","null","<p>A másik játékos ezt választotta: <b>spéslem</b>.</p><p>&#x2705;</p><p>A te válaszod és a másik játékos válasza <b>megegyeznek</b>.</p>","null","","","","feedback trial","",""
"html-button-response-esp","37","385604","0.0-11.0-0.13","2150","Te bizony sokat siladzol. Én is sokat...","0","siladzom","[""siladzom"",""siladzok""]","siladzok","esp trial","2","false"
"html-button-response","38","389154","0.0-11.0-1.13","null","<p>A másik játékos ezt választotta: <b>siladzok</b>.</p><p>&#10060;</p><p>A válaszaitok <b>nem</b> egyeznek meg.</p>","null","","","","feedback trial","",""
"html-button-response-esp","39","393886","0.0-11.0-0.14","3027","Te bizony sokat málapszol. Én is sokat...","1","málapszom","[""málapszok"",""málapszom""]","málapszom","esp trial","2","true"
"html-button-response","40","397424","0.0-11.0-1.14","null","<p>A másik játékos ezt választotta: <b>málapszom</b>.</p><p>&#x2705;</p><p>A te válaszod és a másik játékos válasza <b>megegyeznek</b>.</p>","null","","","","feedback trial","",""
"html-button-response-esp","41","402153","0.0-11.0-0.15","2864","Te bizony sokat tínylasz. Én is sokat...","1","tínylom","[""tínylok"",""tínylom""]","tínylom","esp trial","2","true"
"html-button-response","42","405681","0.0-11.0-1.15","null","<p>A másik játékos ezt választotta: <b>tínylom</b>.</p><p>&#x2705;</p><p>A te válaszod és a másik játékos válasza <b>megegyeznek</b>.</p>","null","","","","feedback trial","",""
"html-button-response-esp","43","410413","0.0-11.0-0.16","2463","Te bizony sokat sojzol. Én is sokat...","0","sojzom","[""sojzom"",""sojzok""]","sojzok","esp trial","2","false"
"html-button-response","44","413930","0.0-11.0-1.16","null","<p>A másik játékos ezt választotta: <b>sojzok</b>.</p><p>&#10060;</p><p>A válaszaitok <b>nem</b> egyeznek meg.</p>","null","","","","feedback trial","",""
"html-button-response-esp","45","418671","0.0-11.0-0.17","3930","Te bizony sokat trilszol. Én is sokat...","1","trilszom","[""trilszok"",""trilszom""]","trilszom","esp trial","2","true"
"html-button-response","46","422199","0.0-11.0-1.17","null","<p>A másik játékos ezt választotta: <b>trilszom</b>.</p><p>&#x2705;</p><p>A te válaszod és a másik játékos válasza <b>megegyeznek</b>.</p>","null","","","","feedback trial","",""
"html-button-response-esp","47","426937","0.0-11.0-0.18","2516","Te bizony sokat böjzöl. Én is sokat...","0","böjzök","[""böjzök"",""böjzöm""]","böjzöm","esp trial","2","false"
"html-button-response","48","430466","0.0-11.0-1.18","null","<p>A másik játékos ezt választotta: <b>böjzöm</b>.</p><p>&#10060;</p><p>A válaszaitok <b>nem</b> egyeznek meg.</p>","null","","","","feedback trial","",""
"html-button-response-esp","49","435192","0.0-11.0-0.19","4132","Te bizony sokat spibaklasz. Én is sokat...","1","spibaklom","[""spibaklok"",""spibaklom""]","spibaklom","esp trial","2","true"
"html-button-response","50","438713","0.0-11.0-1.19","null","<p>A másik játékos ezt választotta: <b>spibaklom</b>.</p><p>&#x2705;</p><p>A te válaszod és a másik játékos válasza <b>megegyeznek</b>.</p>","null","","","","feedback trial","",""
"html-button-response-esp","51","443437","0.0-11.0-0.20","2888","Te bizony sokat vilakszol. Én is sokat...","1","vilakszom","[""vilakszok"",""vilakszom""]","vilakszok","esp trial","2","false"
"html-button-response","52","446964","0.0-11.0-1.20","null","<p>A másik játékos ezt választotta: <b>vilakszok</b>.</p><p>&#10060;</p><p>A válaszaitok <b>nem</b> egyeznek meg.</p>","null","","","","feedback trial","",""
"html-button-response-esp","53","451703","0.0-11.0-0.21","2053","Te bizony sokat prilegzel. Én is sokat...","1","prilegzem","[""prilegzek"",""prilegzem""]","prilegzek","esp trial","2","false"
"html-button-response","54","455233","0.0-11.0-1.21","null","<p>A másik játékos ezt választotta: <b>prilegzek</b>.</p><p>&#10060;</p><p>A válaszaitok <b>nem</b> egyeznek meg.</p>","null","","","","feedback trial","",""
"html-button-response-esp","55","459969","0.0-11.0-0.22","2338","Te bizony sokat sprökszöl. Én is sokat...","0","sprökszök","[""sprökszök"",""sprökszöm""]","sprökszök","esp trial","2","true"
"html-button-response","56","463499","0.0-11.0-1.22","null","<p>A másik játékos ezt választotta: <b>sprökszök</b>.</p><p>&#x2705;</p><p>A te válaszod és a másik játékos válasza <b>megegyeznek</b>.</p>","null","","","","feedback trial","",""
"html-button-response-esp","57","468230","0.0-11.0-0.23","2080","Te bizony sokat narjárzol. Én is sokat...","1","narjárzok","[""narjárzom"",""narjárzok""]","narjárzom","esp trial","2","false"
"html-button-response","58","471746","0.0-11.0-1.23","null","<p>A másik játékos ezt választotta: <b>narjárzom</b>.</p><p>&#10060;</p><p>A válaszaitok <b>nem</b> egyeznek meg.</p>","null","","","","feedback trial","",""
"html-button-response-esp","59","478385","0.0-11.0-0.24","6119","Te bizony sokat csíszlasz. Én is sokat...","0","csíszlom","[""csíszlom"",""csíszlok""]","csíszlom","esp trial","2","true"
"html-button-response","60","481907","0.0-11.0-1.24","null","<p>A másik játékos ezt választotta: <b>csíszlom</b>.</p><p>&#x2705;</p><p>A te válaszod és a másik játékos válasza <b>megegyeznek</b>.</p>","null","","","","feedback trial","",""
"html-button-response-esp","61","486648","0.0-11.0-0.25","2239","Te bizony sokat klörlesz. Én is sokat...","0","klörlök","[""klörlök"",""klörlöm""]","klörlöm","esp trial","2","false"
"html-button-response","62","490182","0.0-11.0-1.25","null","<p>A másik játékos ezt választotta: <b>klörlöm</b>.</p><p>&#10060;</p><p>A válaszaitok <b>nem</b> egyeznek meg.</p>","null","","","","feedback trial","",""
"html-button-response-esp","63","494910","0.0-11.0-0.26","3447","Te bizony sokat herégszel. Én is sokat...","1","herégszem","[""herégszek"",""herégszem""]","herégszek","esp trial","2","false"
"html-button-response","64","498423","0.0-11.0-1.26","null","<p>A másik játékos ezt választotta: <b>herégszek</b>.</p><p>&#10060;</p><p>A válaszaitok <b>nem</b> egyeznek meg.</p>","null","","","","feedback trial","",""
"html-button-response-esp","65","503158","0.0-11.0-0.27","2797","Te bizony sokat bölszöl. Én is sokat...","1","bölszöm","[""bölszök"",""bölszöm""]","bölszöm","esp trial","2","true"
"html-button-response","66","506671","0.0-11.0-1.27","null","<p>A másik játékos ezt választotta: <b>bölszöm</b>.</p><p>&#x2705;</p><p>A te válaszod és a másik játékos válasza <b>megegyeznek</b>.</p>","null","","","","feedback trial","",""
"html-button-response-esp","67","511404","0.0-11.0-0.28","2391","Te bizony sokat drubódzol. Én is sokat...","0","drubódzok","[""drubódzok"",""drubódzom""]","drubódzok","esp trial","2","true"
"html-button-response","68","514934","0.0-11.0-1.28","null","<p>A másik játékos ezt választotta: <b>drubódzok</b>.</p><p>&#x2705;</p><p>A te válaszod és a másik játékos válasza <b>megegyeznek</b>.</p>","null","","","","feedback trial","",""
"html-button-response-esp","69","519656","0.0-11.0-0.29","2104","Te bizony sokat spatárzol. Én is sokat...","0","spatárzom","[""spatárzom"",""spatárzok""]","spatárzom","esp trial","2","true"
"html-button-response","70","523186","0.0-11.0-1.29","null","<p>A másik játékos ezt választotta: <b>spatárzom</b>.</p><p>&#x2705;</p><p>A te válaszod és a másik játékos válasza <b>megegyeznek</b>.</p>","null","","","","feedback trial","",""
"html-button-response-esp","71","527924","0.0-11.0-0.30","2085","Te bizony sokat flüröslesz. Én is sokat...","0","flüröslöm","[""flüröslöm"",""flüröslök""]","flüröslöm","esp trial","2","true"
"html-button-response","72","531452","0.0-11.0-1.30","null","<p>A másik játékos ezt választotta: <b>flüröslöm</b>.</p><p>&#x2705;</p><p>A te válaszod és a másik játékos válasza <b>megegyeznek</b>.</p>","null","","","","feedback trial","",""
"html-button-response-esp","73","536184","0.0-11.0-0.31","3730","Te bizony sokat feténylesz. Én is sokat...","1","feténylek","[""feténylem"",""feténylek""]","feténylem","esp trial","2","false"
"html-button-response","74","539722","0.0-11.0-1.31","null","<p>A másik játékos ezt választotta: <b>feténylem</b>.</p><p>&#10060;</p><p>A válaszaitok <b>nem</b> egyeznek meg.</p>","null","","","","feedback trial","",""
"html-button-response-esp","75","544464","0.0-11.0-0.32","1769","Te bizony sokat spilágzol. Én is sokat...","0","spilágzom","[""spilágzom"",""spilágzok""]","spilágzok","esp trial","2","false"
"html-button-response","76","547995","0.0-11.0-1.32","null","<p>A másik játékos ezt választotta: <b>spilágzok</b>.</p><p>&#10060;</p><p>A válaszaitok <b>nem</b> egyeznek meg.</p>","null","","","","feedback trial","",""
"html-button-response-esp","77","552730","0.0-11.0-0.33","2611","Te bizony sokat ruslasz. Én is sokat...","1","ruslom","[""ruslok"",""ruslom""]","ruslom","esp trial","2","true"
"html-button-response","78","556260","0.0-11.0-1.33","null","<p>A másik játékos ezt választotta: <b>ruslom</b>.</p><p>&#x2705;</p><p>A te válaszod és a másik játékos válasza <b>megegyeznek</b>.</p>","null","","","","feedback trial","",""
"html-button-response-esp","79","560993","0.0-11.0-0.34","2061","Te bizony sokat sprogzol. Én is sokat...","0","sprogzom","[""sprogzom"",""sprogzok""]","sprogzok","esp trial","2","false"
"html-button-response","80","564523","0.0-11.0-1.34","null","<p>A másik játékos ezt választotta: <b>sprogzok</b>.</p><p>&#10060;</p><p>A válaszaitok <b>nem</b> egyeznek meg.</p>","null","","","","feedback trial","",""
"html-button-response-esp","81","569265","0.0-11.0-0.35","2608","Te bizony sokat ribzol. Én is sokat...","1","ribzom","[""ribzok"",""ribzom""]","ribzok","esp trial","2","false"
"html-button-response","82","572798","0.0-11.0-1.35","null","<p>A másik játékos ezt választotta: <b>ribzok</b>.</p><p>&#10060;</p><p>A válaszaitok <b>nem</b> egyeznek meg.</p>","null","","","","feedback trial","",""
"html-button-response-esp","83","577517","0.0-11.0-0.36","2536","Te bizony sokat klibamlasz. Én is sokat...","0","klibamlok","[""klibamlok"",""klibamlom""]","klibamlom","esp trial","2","false"
"html-button-response","84","581048","0.0-11.0-1.36","null","<p>A másik játékos ezt választotta: <b>klibamlom</b>.</p><p>&#10060;</p><p>A válaszaitok <b>nem</b> egyeznek meg.</p>","null","","","","feedback trial","",""
"html-button-response-esp","85","585779","0.0-11.0-0.37","2762","Te bizony sokat juszlasz. Én is sokat...","0","juszlok","[""juszlok"",""juszlom""]","juszlom","esp trial","2","false"
"html-button-response","86","589309","0.0-11.0-1.37","null","<p>A másik játékos ezt választotta: <b>juszlom</b>.</p><p>&#10060;</p><p>A válaszaitok <b>nem</b> egyeznek meg.</p>","null","","","","feedback trial","",""
"html-button-response-esp","87","594044","0.0-11.0-0.38","1585","Te bizony sokat nyáslasz. Én is sokat...","0","nyáslom","[""nyáslom"",""nyáslok""]","nyáslom","esp trial","2","true"
"html-button-response","88","597582","0.0-11.0-1.38","null","<p>A másik játékos ezt választotta: <b>nyáslom</b>.</p><p>&#x2705;</p><p>A te válaszod és a másik játékos válasza <b>megegyeznek</b>.</p>","null","","","","feedback trial","",""
"html-button-response-esp","89","602314","0.0-11.0-0.39","2308","Te bizony sokat hilarzol. Én is sokat...","1","hilarzom","[""hilarzok"",""hilarzom""]","hilarzom","esp trial","2","true"
"html-button-response","90","605846","0.0-11.0-1.39","null","<p>A másik játékos ezt választotta: <b>hilarzom</b>.</p><p>&#x2705;</p><p>A te válaszod és a másik játékos válasza <b>megegyeznek</b>.</p>","null","","","","feedback trial","",""
"html-button-response-esp","91","610578","0.0-11.0-0.40","1604","Te bizony sokat driládzol. Én is sokat...","0","driládzom","[""driládzom"",""driládzok""]","driládzok","esp trial","2","false"
"html-button-response","92","614109","0.0-11.0-1.40","null","<p>A másik játékos ezt választotta: <b>driládzok</b>.</p><p>&#10060;</p><p>A válaszaitok <b>nem</b> egyeznek meg.</p>","null","","","","feedback trial","",""
"html-button-response-esp","93","618828","0.0-11.0-0.41","3267","Te bizony sokat sztremlesz. Én is sokat...","0","sztremlem","[""sztremlem"",""sztremlek""]","sztremlem","esp trial","2","true"
"html-button-response","94","622358","0.0-11.0-1.41","null","<p>A másik játékos ezt választotta: <b>sztremlem</b>.</p><p>&#x2705;</p><p>A te válaszod és a másik játékos válasza <b>megegyeznek</b>.</p>","null","","","","feedback trial","",""
"html-button-response-esp","95","627074","0.0-11.0-0.42","2537","Te bizony sokat flűröklesz. Én is sokat...","0","flűröklök","[""flűröklök"",""flűröklöm""]","flűröklöm","esp trial","2","false"
"html-button-response","96","630616","0.0-11.0-1.42","null","<p>A másik játékos ezt választotta: <b>flűröklöm</b>.</p><p>&#10060;</p><p>A válaszaitok <b>nem</b> egyeznek meg.</p>","null","","","","feedback trial","",""
"html-button-response-esp","97","635350","0.0-11.0-0.43","1951","Te bizony sokat pivegszel. Én is sokat...","0","pivegszem","[""pivegszem"",""pivegszek""]","pivegszek","esp trial","2","false"
"html-button-response","98","638865","0.0-11.0-1.43","null","<p>A másik játékos ezt választotta: <b>pivegszek</b>.</p><p>&#10060;</p><p>A válaszaitok <b>nem</b> egyeznek meg.</p>","null","","","","feedback trial","",""
"html-button-response-esp","99","643600","0.0-11.0-0.44","2110","Te bizony sokat ribegzel. Én is sokat...","1","ribegzek","[""ribegzem"",""ribegzek""]","ribegzem","esp trial","2","false"
"html-button-response","100","647133","0.0-11.0-1.44","null","<p>A másik játékos ezt választotta: <b>ribegzem</b>.</p><p>&#10060;</p><p>A válaszaitok <b>nem</b> egyeznek meg.</p>","null","","","","feedback trial","",""
"html-button-response-esp","101","651868","0.0-11.0-0.45","3114","Te bizony sokat tiregzel. Én is sokat...","1","tiregzem","[""tiregzek"",""tiregzem""]","tiregzem","esp trial","2","true"
"html-button-response","102","655406","0.0-11.0-1.45","null","<p>A másik játékos ezt választotta: <b>tiregzem</b>.</p><p>&#x2705;</p><p>A te válaszod és a másik játékos válasza <b>megegyeznek</b>.</p>","null","","","","feedback trial","",""
"html-button-response-esp","103","660140","0.0-11.0-0.46","2170","Te bizony sokat fretszel. Én is sokat...","1","fretszem","[""fretszek"",""fretszem""]","fretszem","esp trial","2","true"
"html-button-response","104","663671","0.0-11.0-1.46","null","<p>A másik játékos ezt választotta: <b>fretszem</b>.</p><p>&#x2705;</p><p>A te válaszod és a másik játékos válasza <b>megegyeznek</b>.</p>","null","","","","feedback trial","",""
"html-button-response-esp","105","668389","0.0-11.0-0.47","1937","Te bizony sokat spűmlesz. Én is sokat...","0","spűmlöm","[""spűmlöm"",""spűmlök""]","spűmlöm","esp trial","2","true"
"html-button-response","106","671919","0.0-11.0-1.47","null","<p>A másik játékos ezt választotta: <b>spűmlöm</b>.</p><p>&#x2705;</p><p>A te válaszod és a másik játékos válasza <b>megegyeznek</b>.</p>","null","","","","feedback trial","",""
"html-button-response-esp","107","676637","0.0-11.0-0.48","1806","Te bizony sokat marzol. Én is sokat...","1","marzom","[""marzok"",""marzom""]","marzom","esp trial","2","true"
"html-button-response","108","680169","0.0-11.0-1.48","null","<p>A másik játékos ezt választotta: <b>marzom</b>.</p><p>&#x2705;</p><p>A te válaszod és a másik játékos válasza <b>megegyeznek</b>.</p>","null","","","","feedback trial","",""
"html-button-response-esp","109","684903","0.0-11.0-0.49","2262","Te bizony sokat piragszol. Én is sokat...","0","piragszom","[""piragszom"",""piragszok""]","piragszok","esp trial","2","false"
"html-button-response","110","688432","0.0-11.0-1.49","null","<p>A másik játékos ezt választotta: <b>piragszok</b>.</p><p>&#10060;</p><p>A válaszaitok <b>nem</b> egyeznek meg.</p>","null","","","","feedback trial","",""
"html-button-response-esp","111","693171","0.0-11.0-0.50","2162","Te bizony sokat prűrlesz. Én is sokat...","0","prűrlöm","[""prűrlöm"",""prűrlök""]","prűrlöm","esp trial","2","true"
"html-button-response","112","696702","0.0-11.0-1.50","null","<p>A másik játékos ezt választotta: <b>prűrlöm</b>.</p><p>&#x2705;</p><p>A te válaszod és a másik játékos válasza <b>megegyeznek</b>.</p>","null","","","","feedback trial","",""
"html-button-response-esp","113","701420","0.0-11.0-0.51","3543","Te bizony sokat sűzlesz. Én is sokat...","1","sűzlöm","[""sűzlök"",""sűzlöm""]","sűzlöm","esp trial","2","true"
"html-button-response","114","704949","0.0-11.0-1.51","null","<p>A másik játékos ezt választotta: <b>sűzlöm</b>.</p><p>&#x2705;</p><p>A te válaszod és a másik játékos válasza <b>megegyeznek</b>.</p>","null","","","","feedback trial","",""
"html-button-response-esp","115","709681","0.0-11.0-0.52","2093","Te bizony sokat büglesz. Én is sokat...","1","büglöm","[""büglök"",""büglöm""]","büglöm","esp trial","2","true"
"html-button-response","116","713212","0.0-11.0-1.52","null","<p>A másik játékos ezt választotta: <b>büglöm</b>.</p><p>&#x2705;</p><p>A te válaszod és a másik játékos válasza <b>megegyeznek</b>.</p>","null","","","","feedback trial","",""
"html-button-response-esp","117","717945","0.0-11.0-0.53","1959","Te bizony sokat brágaklasz. Én is sokat...","1","brágaklom","[""brágaklok"",""brágaklom""]","brágaklok","esp trial","2","false"
"html-button-response","118","721465","0.0-11.0-1.53","null","<p>A másik játékos ezt választotta: <b>brágaklok</b>.</p><p>&#10060;</p><p>A válaszaitok <b>nem</b> egyeznek meg.</p>","null","","","","feedback trial","",""
"html-button-response","119","732767","0.0-12.0","10781","<p>A közös játék most véget ért.</p><p>Mielőtt eláruljuk a végső pontszámodat, arra kérlek, játszd a szóválasztós játékot néhány percig egyedül is.</p><p>A feladatod ugyanaz lesz, választani két lehetőség közül.</p><p>Most viszont egyedül kell döntened, hogy te melyiket választanád.</p>","0","","","","","",""
"html-button-response-clever","120","736563","0.0-13.0-0.0","3276","Te bizony sokat filágzol. Én is sokat...","1","filágzom","[""filágzok"",""filágzom""]","","posttest trial","4",""
"html-button-response-clever","121","745192","0.0-13.0-0.1","8121","Te bizony sokat klaráglasz. Én is sokat...","1","klaráglok","[""klaráglom"",""klaráglok""]","","posttest trial","4",""
"html-button-response-clever","122","749273","0.0-13.0-0.2","3562","Te bizony sokat sztrijzol. Én is sokat...","1","sztrijzom","[""sztrijzok"",""sztrijzom""]","","posttest trial","4",""
"html-button-response-clever","123","752429","0.0-13.0-0.3","2638","Te bizony sokat píjlasz. Én is sokat...","1","píjlom","[""píjlok"",""píjlom""]","","posttest trial","4",""
"html-button-response-clever","124","755798","0.0-13.0-0.4","2851","Te bizony sokat plugzol. Én is sokat...","1","plugzom","[""plugzok"",""plugzom""]","","posttest trial","4",""
"html-button-response-clever","125","758773","0.0-13.0-0.5","2472","Te bizony sokat bűtszöl. Én is sokat...","1","bűtszöm","[""bűtszök"",""bűtszöm""]","","posttest trial","4",""
"html-button-response-clever","126","761872","0.0-13.0-0.6","2581","Te bizony sokat hűgzöl. Én is sokat...","0","hűgzöm","[""hűgzöm"",""hűgzök""]","","posttest trial","4",""
"html-button-response-clever","127","765168","0.0-13.0-0.7","2779","Te bizony sokat düjzöl. Én is sokat...","1","düjzöm","[""düjzök"",""düjzöm""]","","posttest trial","4",""
"html-button-response-clever","128","770419","0.0-13.0-0.8","4730","Te bizony sokat trádlasz. Én is sokat...","0","trádlok","[""trádlok"",""trádlom""]","","posttest trial","4",""
"html-button-response-clever","129","774321","0.0-13.0-0.9","3384","Te bizony sokat plűbzöl. Én is sokat...","1","plűbzöm","[""plűbzök"",""plűbzöm""]","","posttest trial","4",""
"html-button-response-clever","130","778650","0.0-13.0-0.10","3811","Te bizony sokat spülűdzöl. Én is sokat...","0","spülűdzöm","[""spülűdzöm"",""spülűdzök""]","","posttest trial","4",""
"html-button-response-clever","131","782516","0.0-13.0-0.11","3347","Te bizony sokat flehénylesz. Én is sokat...","1","flehénylek","[""flehénylem"",""flehénylek""]","","posttest trial","4",""
"html-button-response-clever","132","785463","0.0-13.0-0.12","2429","Te bizony sokat frodlasz. Én is sokat...","0","frodlok","[""frodlok"",""frodlom""]","","posttest trial","4",""
"html-button-response-clever","133","788906","0.0-13.0-0.13","2930","Te bizony sokat sztrűkszöl. Én is sokat...","1","sztrűkszöm","[""sztrűkszök"",""sztrűkszöm""]","","posttest trial","4",""
"html-button-response-clever","134","792702","0.0-13.0-0.14","3274","Te bizony sokat hurjorzol. Én is sokat...","1","hurjorzom","[""hurjorzok"",""hurjorzom""]","","posttest trial","4",""
"html-button-response-clever","135","795751","0.0-13.0-0.15","2533","Te bizony sokat rokszol. Én is sokat...","1","rokszok","[""rokszom"",""rokszok""]","","posttest trial","4",""
"html-button-response-clever","136","799163","0.0-13.0-0.16","2894","Te bizony sokat brobódzol. Én is sokat...","1","brobódzom","[""brobódzok"",""brobódzom""]","","posttest trial","4",""
"html-button-response-clever","137","803093","0.0-13.0-0.17","3413","Te bizony sokat lörűdzöl. Én is sokat...","0","lörűdzöm","[""lörűdzöm"",""lörűdzök""]","","posttest trial","4",""
"html-button-response-clever","138","805725","0.0-13.0-0.18","2107","Te bizony sokat vülődzöl. Én is sokat...","1","vülődzöm","[""vülődzök"",""vülődzöm""]","","posttest trial","4",""
"html-button-response-clever","139","808181","0.0-13.0-0.19","1936","Te bizony sokat flitlasz. Én is sokat...","0","flitlom","[""flitlom"",""flitlok""]","","posttest trial","4",""
"html-button-response-clever","140","810962","0.0-13.0-0.20","2255","Te bizony sokat figlasz. Én is sokat...","0","figlom","[""figlom"",""figlok""]","","posttest trial","4",""
"html-button-response-clever","141","813182","0.0-13.0-0.21","1704","Te bizony sokat prínylasz. Én is sokat...","0","prínylom","[""prínylom"",""prínylok""]","","posttest trial","4",""
"html-button-response-clever","142","815794","0.0-13.0-0.22","2105","Te bizony sokat klétszel. Én is sokat...","1","klétszem","[""klétszek"",""klétszem""]","","posttest trial","4",""
"html-button-response-clever","143","818040","0.0-13.0-0.23","1728","Te bizony sokat huroslasz. Én is sokat...","0","huroslom","[""huroslom"",""huroslok""]","","posttest trial","4",""
"html-button-response-clever","144","820397","0.0-13.0-0.24","1838","Te bizony sokat narádzol. Én is sokat...","1","narádzom","[""narádzok"",""narádzom""]","","posttest trial","4",""
"html-button-response-clever","145","823426","0.0-13.0-0.25","2510","Te bizony sokat flehékszel. Én is sokat...","1","flehékszem","[""flehékszek"",""flehékszem""]","","posttest trial","4",""
"html-button-response-clever","146","826684","0.0-13.0-0.26","2747","Te bizony sokat flátszol. Én is sokat...","0","flátszom","[""flátszom"",""flátszok""]","","posttest trial","4",""
"html-button-response-clever","147","831693","0.0-13.0-0.27","4490","Te bizony sokat klivaslasz. Én is sokat...","0","klivaslom","[""klivaslom"",""klivaslok""]","","posttest trial","4",""
"html-button-response-clever","148","837022","0.0-13.0-0.28","4812","Te bizony sokat spüjzöl. Én is sokat...","1","spüjzök","[""spüjzöm"",""spüjzök""]","","posttest trial","4",""
"html-button-response-clever","149","842303","0.0-13.0-0.29","4779","Te bizony sokat trehégszel. Én is sokat...","0","trehégszem","[""trehégszem"",""trehégszek""]","","posttest trial","4",""
"html-button-response-clever","150","845453","0.0-13.0-0.30","2633","Te bizony sokat treglesz. Én is sokat...","0","treglek","[""treglek"",""treglem""]","","posttest trial","4",""
"html-button-response-clever","151","847900","0.0-13.0-0.31","1928","Te bizony sokat pribagszol. Én is sokat...","0","pribagszom","[""pribagszom"",""pribagszok""]","","posttest trial","4",""
"html-button-response-clever","152","850074","0.0-13.0-0.32","1660","Te bizony sokat bihánylasz. Én is sokat...","0","bihánylom","[""bihánylom"",""bihánylok""]","","posttest trial","4",""
"html-button-response-clever","153","853117","0.0-13.0-0.33","2526","Te bizony sokat spáraklasz. Én is sokat...","0","spáraklom","[""spáraklom"",""spáraklok""]","","posttest trial","4",""
"html-button-response-clever","154","855158","0.0-13.0-0.34","1523","Te bizony sokat tragzol. Én is sokat...","0","tragzom","[""tragzom"",""tragzok""]","","posttest trial","4",""
"html-button-response-clever","155","858924","0.0-13.0-0.35","3248","Te bizony sokat salárzol. Én is sokat...","0","salárzok","[""salárzok"",""salárzom""]","","posttest trial","4",""
"html-button-response-clever","156","861489","0.0-13.0-0.36","2048","Te bizony sokat bivégszel. Én is sokat...","0","bivégszem","[""bivégszem"",""bivégszek""]","","posttest trial","4",""
"html-button-response-clever","157","864773","0.0-13.0-0.37","2756","Te bizony sokat spihegzel. Én is sokat...","1","spihegzem","[""spihegzek"",""spihegzem""]","","posttest trial","4",""
"html-button-response-clever","158","867450","0.0-13.0-0.38","2170","Te bizony sokat flűmlesz. Én is sokat...","0","flűmlöm","[""flűmlöm"",""flűmlök""]","","posttest trial","4",""
"html-button-response-clever","159","870246","0.0-13.0-0.39","2275","Te bizony sokat spihemlesz. Én is sokat...","1","spihemlek","[""spihemlem"",""spihemlek""]","","posttest trial","4",""
"html-button-response-clever","160","873630","0.0-13.0-0.40","2866","Te bizony sokat jonylasz. Én is sokat...","0","jonylok","[""jonylok"",""jonylom""]","","posttest trial","4",""
"html-button-response-clever","161","876924","0.0-13.0-0.41","2783","Te bizony sokat szibánylasz. Én is sokat...","1","szibánylom","[""szibánylok"",""szibánylom""]","","posttest trial","4",""
"html-button-response-clever","162","881702","0.0-13.0-0.42","4272","Te bizony sokat brubzol. Én is sokat...","0","brubzok","[""brubzok"",""brubzom""]","","posttest trial","4",""
"html-button-response-clever","163","885450","0.0-13.0-0.43","3230","Te bizony sokat spröbzöl. Én is sokat...","1","spröbzök","[""spröbzöm"",""spröbzök""]","","posttest trial","4",""
"html-button-response-clever","164","889244","0.0-13.0-0.44","3279","Te bizony sokat rájzol. Én is sokat...","0","rájzok","[""rájzok"",""rájzom""]","","posttest trial","4",""
"html-button-response-clever","165","894308","0.0-13.0-0.45","4546","Te bizony sokat pítszol. Én is sokat...","0","pítszom","[""pítszom"",""pítszok""]","","posttest trial","4",""
"html-button-response-clever","166","896490","0.0-13.0-0.46","1676","Te bizony sokat nűröklesz. Én is sokat...","0","nűröklöm","[""nűröklöm"",""nűröklök""]","","posttest trial","4",""
"html-button-response-clever","167","898566","0.0-13.0-0.47","1557","Te bizony sokat spubonylasz. Én is sokat...","0","spubonylom","[""spubonylom"",""spubonylok""]","","posttest trial","4",""
"html-button-response-clever","168","900691","0.0-13.0-0.48","1607","Te bizony sokat pribemlesz. Én is sokat...","0","pribemlek","[""pribemlek"",""pribemlem""]","","posttest trial","4",""
"html-button-response-clever","169","903387","0.0-13.0-0.49","2176","Te bizony sokat sztrozlasz. Én is sokat...","1","sztrozlom","[""sztrozlok"",""sztrozlom""]","","posttest trial","4",""
"html-button-response-clever","170","906014","0.0-13.0-0.50","2108","Te bizony sokat gyibeslesz. Én is sokat...","0","gyibeslek","[""gyibeslek"",""gyibeslem""]","","posttest trial","4",""
"html-button-response-clever","171","909977","0.0-13.0-0.51","3444","Te bizony sokat brivegzel. Én is sokat...","1","brivegzem","[""brivegzek"",""brivegzem""]","","posttest trial","4",""
"html-button-response-clever","172","913167","0.0-13.0-0.52","2678","Te bizony sokat vanylasz. Én is sokat...","1","vanylok","[""vanylom"",""vanylok""]","","posttest trial","4",""
"html-button-response-clever","173","915677","0.0-13.0-0.53","1991","Te bizony sokat ibékszel. Én is sokat...","0","ibékszem","[""ibékszem"",""ibékszek""]","","posttest trial","4",""
"html-button-response","174","928947","0.0-14.0","12752","<p> Vége a játéknak. A teljes pontszámod 29/54.</p><p> Szép munka! &#128526;&#128526;&#128526;</p><p>A Befejezés gomb megnyomása után bezárhatod a böngészőablakot.</p>","0","","","","","",""
"html-keyboard-response","175","934486","0.0-15.0","null","<div class=""message"">
         <p>Egy kis türelmet kérünk, amíg elmentjük az adatokat...</p>
         </div>","null","","","","","",""
