"trial_type","trial_index","time_elapsed","internal_node_id","rt","stimulus","response","response_string","choices","esp_response","trial_kind","list_number","esp_match"
"pavlovia","0","614","0.0-0.0","","","","","","","","",""
"html-button-response","1","8437","0.0-1.0","7319","<p>Kedves Résztvevő! A Budapesti Műszaki és Gazdaságtudományi Egyetem Kognitív Tudományi Tanszékének kutatásában való részvételed kérjük. A kutatásban azt vizsgáljuk, hogy a magyar anyanyelvűek hogyan használnak bizonyos szóalakokat, és hogy milyen képük van arról, hogy mások hogyan használják, hogyan képzik a szavakat. Ez hozzásegít bennünket ahhoz, hogy jobban megértsük, hogyan dolgozza fel és tárolja a nyelvet az emberi agy, és hogyan működnek, hogyan változnak egy adott közösség nyelvi konvenciói.</p><p>A vizsgálat egy rövid számítógépes feladatból fog állni. A kutatásban való részvétel önkéntes, a részvételi szándék bármikor visszavonható. A résztvevők eredményeit név nélkül kezeljük, így nem beazonosíthatók az adatok feldolgozása során. Minden személyes adatot az EU általános adatvédelmi rendeletének (GDPR) megfelelően kezelünk és legfeljebb öt éven belül megsemmisítünk. A vizsgálat jellemzően húsz percet vesz igénybe.</p><p>Kutatásvezető:</p><p>Dr. Rácz Péter, tudományos munkatárs, BME KTT</p><p>e-mail: racz.peter.marton@ttk.bme.hu</p>","0","","","","","",""
"html-button-response","2","30895","0.0-2.0","21950","<p>A kísérletben szavakat fogsz látni. Ezek között lesznek olyanok, amelyeket ismersz, de előfordulhatnak olyanok is, amelyeket nem ismersz, sőt, vannak köztük kitalált szavak is. Minden szónál látni fogsz toldalékolt alakokat. A te feladatod az lesz, hogy minden szóhoz kiválaszd azt a toldalékolt alakot, amely a te számodra ismerősebben, természetesebben hangzik. Rossz válaszok nincsenek, mert van olyan, hogy különböző embereknek más és más szó tűnik jobb választásnak. A választ úgy tudod majd kiválasztani, ha rákattintasz.</p><p>Ebben a szóválasztós játékban egy másik játékossal együtt veszel majd részt. A másik játékos is minden esetben azok közül a lehetőségek közül válogathat, mint te. Kettőtök feladata az, hogy ugyanazt a lehetőséget válasszátok minden esetben. Ahhoz, hogy ez sikerüljön, neked figyelned kell arra, hogy a másik játékos milyen válaszokat ad, és ennek alapján meg kell tippelned, hogyan választ legközelebb. Ha eltalálod, akkor pontot kapsz.</p>","0","","","","","",""
"html-button-response","3","48080","0.0-3.0","16671","<p>Kérjük, olvasd el az alábbi nyilatkozatot, és amennyiben egyetértesz vele, nyomj a Beleegyezés gombra!</p><p>Kijelentem, hogy magyar anyanyelvű személyként önként veszek részt a BME KTT kísérletében. A kutatás céljával és folyamatával kapcsolatban elegendő tájékoztatást kaptam, lehetőségem volt kérdések feltételére, és esetleges kérdéseimre megfelelő válaszokat kaptam. A tájékoztatás alapján elegendő mennyiségű információ áll a rendelkezésemre, hogy eldönthessem, részt kívánok-e venni a kutatásban.</p><p>Tisztában vagyok vele, hogy részvételi szándékomat és adataimat bármikor, indoklás nélkül visszavonhatom.</p><p>Értem és tudomásul veszem, hogy a kutatás tudományos célokat szolgál, és az általam szolgáltatott adatokat a BME kizárólag kutatási célból használja fel. Tudomásul veszem, hogy eredményeimet a többi résztvevő eredményeivel együtt kezelik, így egyéni teljesítményemről visszajelzést, szakvéleményt nem kapok.</p><p>Megértettem, hogy adataim kezelését illetően a BME az EU általános adatvédelmi rendelete (GDPR), a hatályos adatvédelmi törvény és a nemzetközi kutatás-etikai alapelvek szerint jár el. Eredményeim anonim módon kerülnek feldolgozásra, és a kutatás résztvevői az azonosításomra alkalmas adataimat harmadik félnek nem szolgáltatják ki. Engedélyezem a BME számára a jelen kutatásban felvett adataim feldolgozását és tárolását, beleértve azok későbbi kutatásokhoz való felhasználását is. Személyes adataim kezelésével kapcsolatban tájékoztatást kérhetek a kutatás résztvevőitől, az adatkezelés ellen tiltakozhatok, kérhetem személyes adataim helyesbítését, törlését vagy zárolását, valamint jogorvoslatért a Nemzeti Adatvédelmi és Információszabadság Hatósághoz fordulhatok.</p><p>Kijelentem, hogy a kutatásban való részvételem körülményeiről részletes tájékoztatást kaptam, és a feltételeket elfogadom.</p>","0","","","","","",""
"survey-text","4","60275","0.0-4.0","11684","","{""Q0"":""MZS5US"",""Q1"":""nő"",""Q2"":""2001"",""Q3"":""15""}","","","","","",""
"html-button-response","5","64923","0.0-5.0","4137","<p>Ebben a játékban szavakat kell toldalékolni.</p> <p>Minden körben mutatunk majd egy példamondatot, amiben lesz egy szó.</p> <p>Alatta jön egy második mondat, ezt a mondatot neked kell majd befejezni, ugyanezzel a szóval.</p> <p>Nem biztos, hogy a szó eleve ismerős lesz számodra!</p> <p>Minden mondathoz adunk két lehetőséget, ezeket balra és jobbra látod majd.</p> <p>A játék kb. negyedóráig-húsz percig tart.</p>","0","","","","","",""
"html-button-response","6","70052","0.0-6.0","4624","<p>Nézzünk egy példát!</p> <p>A példamondat: ""Ez itt egy blumbnyeg.""</p><p>Neked ezt a mondatot kell befejezned: ""Ott vagyunk a...""</p><p>A lehetőségek pedig ezek:</p>","0","","","","","",""
"html-button-response","7","72355","0.0-7.0","1790","<p>Nagyon jó.</p><p>Ezt a játékot nem egyedül fogod játszani, hanem egy másik játékossal.</p><p>Mielőtt továbblépünk, összekapcsolunk titeket egymással.</p><p>Ez igénybe vehet néhány másodpercet, amihez szíves türelmed kérjük.</p>","0","","","","","",""
"html-button-response","8","78088","0.0-8.0","null","<p>Csatlakozás a másik játékoshoz...</p>","null","","","","","",""
"html-button-response","9","80598","0.0-9.0","null","<p> Sikeres kapcsolódás!</p>","null","","","","","",""
"html-button-response","10","89965","0.0-10.0","8859","<p>A következőkben ketten játsszátok a szóválasztós játékot.</p><p>A feladatotok az lesz, hogy minden körben <b>ugyanazt</b> a szót válasszátok.</p><p>Minden ilyen egyező válaszért pontot kaptok.</p><p>Próbáld meg kitalálni, mit választ a másik játékos!</p><p>Bármikor választhatsz, a körnek akkor van vége, ha mindketten döntöttetek.</p><p>Sok sikert!</p>","0","","","","","",""
"html-button-response-esp","11","99503","0.0-11.0-0.0","4785","Ez itt egy jábéz. Ott vagyunk a...","0","jábézben","[""jábézben"",""jábézban""]","jábézban","esp trial","11","false"
"html-button-response","12","103026","0.0-11.0-1.0","null","<p>A másik játékos ezt választotta: <b>jábézban</b>.</p><p>&#10060;</p><p>A válaszaitok <b>nem</b> egyeznek meg.</p>","null","","","","feedback trial","",""
"html-button-response-esp","13","112574","0.0-11.0-0.1","3064","Ez itt egy szihét. Elneveztem a kutyámat...","1","szihétnek","[""szihétnak"",""szihétnek""]","szihétnek","esp trial","11","true"
"html-button-response","14","116088","0.0-11.0-1.1","null","<p>A másik játékos ezt választotta: <b>szihétnek</b>.</p><p>&#x2705;</p><p>A te válaszod és a másik játékos válasza <b>megegyeznek</b>.</p>","null","","","","feedback trial","",""
"html-button-response-esp","15","125637","0.0-11.0-0.2","4558","Ez itt egy csartény. Elneveztem a kutyámat...","1","csarténynek","[""csarténynak"",""csarténynek""]","csarténynak","esp trial","11","false"
"html-button-response","16","129158","0.0-11.0-1.2","null","<p>A másik játékos ezt választotta: <b>csarténynak</b>.</p><p>&#10060;</p><p>A válaszaitok <b>nem</b> egyeznek meg.</p>","null","","","","feedback trial","",""
"html-button-response-esp","17","138705","0.0-11.0-0.3","3577","Ez itt egy kábesz. Nincs is jobb egy jó...","1","kábesznál","[""kábesznél"",""kábesznál""]","kábesznél","esp trial","11","false"
"html-button-response","18","142226","0.0-11.0-1.3","null","<p>A másik játékos ezt választotta: <b>kábesznél</b>.</p><p>&#10060;</p><p>A válaszaitok <b>nem</b> egyeznek meg.</p>","null","","","","feedback trial","",""
"html-button-response-esp","19","151765","0.0-11.0-0.4","4223","Ez itt egy ronvet. Elneveztem a kutyámat...","1","ronvetnek","[""ronvetnak"",""ronvetnek""]","ronvetnek","esp trial","11","true"
"html-button-response","20","155289","0.0-11.0-1.4","null","<p>A másik játékos ezt választotta: <b>ronvetnek</b>.</p><p>&#x2705;</p><p>A te válaszod és a másik játékos válasza <b>megegyeznek</b>.</p>","null","","","","feedback trial","",""
"html-button-response-esp","21","164843","0.0-11.0-0.5","2836","Ez itt egy csinték. Ott vagyunk a...","0","csintékben","[""csintékben"",""csintékban""]","csintékben","esp trial","11","true"
"html-button-response","22","168353","0.0-11.0-1.5","null","<p>A másik játékos ezt választotta: <b>csintékben</b>.</p><p>&#x2705;</p><p>A te válaszod és a másik játékos válasza <b>megegyeznek</b>.</p>","null","","","","feedback trial","",""
"html-button-response-esp","23","177894","0.0-11.0-0.6","3568","Ez itt egy ikszert. Ott vagyunk a...","1","ikszertben","[""ikszertban"",""ikszertben""]","ikszertben","esp trial","11","true"
"html-button-response","24","181412","0.0-11.0-1.6","null","<p>A másik játékos ezt választotta: <b>ikszertben</b>.</p><p>&#x2705;</p><p>A te válaszod és a másik játékos válasza <b>megegyeznek</b>.</p>","null","","","","feedback trial","",""
"html-button-response-esp","25","190971","0.0-11.0-0.7","4307","Ez itt egy sprízem. Nincs is jobb egy jó...","1","sprízemnél","[""sprízemnál"",""sprízemnél""]","sprízemnél","esp trial","11","true"
"html-button-response","26","194487","0.0-11.0-1.7","null","<p>A másik játékos ezt választotta: <b>sprízemnél</b>.</p><p>&#x2705;</p><p>A te válaszod és a másik játékos válasza <b>megegyeznek</b>.</p>","null","","","","feedback trial","",""
"html-button-response-esp","27","214773","0.0-11.0-0.8","19777","Ez itt egy klordény. Elneveztem a kutyámat...","0","klordénynek","[""klordénynek"",""klordénynak""]","klordénynak","esp trial","11","false"
"html-button-response","28","218288","0.0-11.0-1.8","null","<p>A másik játékos ezt választotta: <b>klordénynak</b>.</p><p>&#10060;</p><p>A válaszaitok <b>nem</b> egyeznek meg.</p>","null","","","","feedback trial","",""
"html-button-response-esp","29","227834","0.0-11.0-0.9","2411","Ez itt egy licegy. Ott vagyunk a...","0","licegyben","[""licegyben"",""licegyban""]","licegyben","esp trial","11","true"
"html-button-response","30","231349","0.0-11.0-1.9","null","<p>A másik játékos ezt választotta: <b>licegyben</b>.</p><p>&#x2705;</p><p>A te válaszod és a másik játékos válasza <b>megegyeznek</b>.</p>","null","","","","feedback trial","",""
"html-button-response-esp","31","240899","0.0-11.0-0.10","2837","Ez itt egy bródesz. Elneveztem a kutyámat...","1","bródesznek","[""bródesznak"",""bródesznek""]","bródesznek","esp trial","11","true"
"html-button-response","32","244427","0.0-11.0-1.10","null","<p>A másik játékos ezt választotta: <b>bródesznek</b>.</p><p>&#x2705;</p><p>A te válaszod és a másik játékos válasza <b>megegyeznek</b>.</p>","null","","","","feedback trial","",""
"html-button-response-esp","33","253983","0.0-11.0-0.11","5587","Ez itt egy jorzég. Elneveztem a kutyámat...","0","jorzégnak","[""jorzégnak"",""jorzégnek""]","jorzégnek","esp trial","11","false"
"html-button-response","34","257508","0.0-11.0-1.11","null","<p>A másik játékos ezt választotta: <b>jorzégnek</b>.</p><p>&#10060;</p><p>A válaszaitok <b>nem</b> egyeznek meg.</p>","null","","","","feedback trial","",""
"html-button-response-esp","35","267045","0.0-11.0-0.12","5722","Ez itt egy priszkenc. Elneveztem a kutyámat...","0","priszkencnek","[""priszkencnek"",""priszkencnak""]","priszkencnek","esp trial","11","true"
"html-button-response","36","270562","0.0-11.0-1.12","null","<p>A másik játékos ezt választotta: <b>priszkencnek</b>.</p><p>&#x2705;</p><p>A te válaszod és a másik játékos válasza <b>megegyeznek</b>.</p>","null","","","","feedback trial","",""
"html-button-response-esp","37","280109","0.0-11.0-0.13","5732","Ez itt egy brotes. Ott vagyunk a...","1","brotesben","[""brotesban"",""brotesben""]","brotesban","esp trial","11","false"
"html-button-response","38","283625","0.0-11.0-1.13","null","<p>A másik játékos ezt választotta: <b>brotesban</b>.</p><p>&#10060;</p><p>A válaszaitok <b>nem</b> egyeznek meg.</p>","null","","","","feedback trial","",""
"html-button-response-esp","39","293174","0.0-11.0-0.14","4441","Ez itt egy fádens. Elneveztem a kutyámat...","0","fádensnek","[""fádensnek"",""fádensnak""]","fádensnek","esp trial","11","true"
"html-button-response","40","296696","0.0-11.0-1.14","null","<p>A másik játékos ezt választotta: <b>fádensnek</b>.</p><p>&#x2705;</p><p>A te válaszod és a másik játékos válasza <b>megegyeznek</b>.</p>","null","","","","feedback trial","",""
"html-button-response-esp","41","306237","0.0-11.0-0.15","5468","Ez itt egy prately. Elneveztem a kutyámat...","1","pratelynek","[""pratelynak"",""pratelynek""]","pratelynek","esp trial","11","true"
"html-button-response","42","309765","0.0-11.0-1.15","null","<p>A másik játékos ezt választotta: <b>pratelynek</b>.</p><p>&#x2705;</p><p>A te válaszod és a másik játékos válasza <b>megegyeznek</b>.</p>","null","","","","feedback trial","",""
"html-button-response-esp","43","319311","0.0-11.0-0.16","2533","Ez itt egy júder. Elneveztem a kutyámat...","1","júdernek","[""júdernak"",""júdernek""]","júdernek","esp trial","11","true"
"html-button-response","44","322829","0.0-11.0-1.16","null","<p>A másik játékos ezt választotta: <b>júdernek</b>.</p><p>&#x2705;</p><p>A te válaszod és a másik játékos válasza <b>megegyeznek</b>.</p>","null","","","","feedback trial","",""
"html-button-response-esp","45","332372","0.0-11.0-0.17","4705","Ez itt egy trapszegy. Nincs is jobb egy jó...","0","trapszegynél","[""trapszegynél"",""trapszegynál""]","trapszegynél","esp trial","11","true"
"html-button-response","46","335903","0.0-11.0-1.17","null","<p>A másik játékos ezt választotta: <b>trapszegynél</b>.</p><p>&#x2705;</p><p>A te válaszod és a másik játékos válasza <b>megegyeznek</b>.</p>","null","","","","feedback trial","",""
"html-button-response-esp","47","345452","0.0-11.0-0.18","3595","Ez itt egy trigenc. Elneveztem a kutyámat...","1","trigencnek","[""trigencnak"",""trigencnek""]","trigencnek","esp trial","11","true"
"html-button-response","48","348974","0.0-11.0-1.18","null","<p>A másik játékos ezt választotta: <b>trigencnek</b>.</p><p>&#x2705;</p><p>A te válaszod és a másik játékos válasza <b>megegyeznek</b>.</p>","null","","","","feedback trial","",""
"html-button-response-esp","49","358517","0.0-11.0-0.19","2940","Ez itt egy lismév. Ott vagyunk a...","0","lismévben","[""lismévben"",""lismévban""]","lismévben","esp trial","11","true"
"html-button-response","50","362019","0.0-11.0-1.19","null","<p>A másik játékos ezt választotta: <b>lismévben</b>.</p><p>&#x2705;</p><p>A te válaszod és a másik játékos válasza <b>megegyeznek</b>.</p>","null","","","","feedback trial","",""
"html-button-response-esp","51","372071","0.0-11.0-0.20","9550","Ez itt egy zsopéd. Ott vagyunk a...","0","zsopédban","[""zsopédban"",""zsopédben""]","zsopédban","esp trial","11","true"
"html-button-response","52","375580","0.0-11.0-1.20","null","<p>A másik játékos ezt választotta: <b>zsopédban</b>.</p><p>&#x2705;</p><p>A te válaszod és a másik játékos válasza <b>megegyeznek</b>.</p>","null","","","","feedback trial","",""
"html-button-response-esp","53","387448","0.0-11.0-0.21","11366","Ez itt egy jalrény. Nincs is jobb egy jó...","0","jalrénynél","[""jalrénynél"",""jalrénynál""]","jalrénynál","esp trial","11","false"
"html-button-response","54","390959","0.0-11.0-1.21","null","<p>A másik játékos ezt választotta: <b>jalrénynál</b>.</p><p>&#10060;</p><p>A válaszaitok <b>nem</b> egyeznek meg.</p>","null","","","","feedback trial","",""
"html-button-response-esp","55","400504","0.0-11.0-0.22","2073","Ez itt egy fincek. Nincs is jobb egy jó...","0","finceknél","[""finceknél"",""finceknál""]","finceknél","esp trial","11","true"
"html-button-response","56","404021","0.0-11.0-1.22","null","<p>A másik játékos ezt választotta: <b>finceknél</b>.</p><p>&#x2705;</p><p>A te válaszod és a másik játékos válasza <b>megegyeznek</b>.</p>","null","","","","feedback trial","",""
"html-button-response-esp","57","413557","0.0-11.0-0.23","1571","Ez itt egy dingec. Elneveztem a kutyámat...","0","dingecnek","[""dingecnek"",""dingecnak""]","dingecnek","esp trial","11","true"
"html-button-response","58","417075","0.0-11.0-1.23","null","<p>A másik játékos ezt választotta: <b>dingecnek</b>.</p><p>&#x2705;</p><p>A te válaszod és a másik játékos válasza <b>megegyeznek</b>.</p>","null","","","","feedback trial","",""
"html-button-response-esp","59","426612","0.0-11.0-0.24","3335","Ez itt egy kliszer. Nincs is jobb egy jó...","0","kliszernél","[""kliszernél"",""kliszernál""]","kliszernél","esp trial","11","true"
"html-button-response","60","430130","0.0-11.0-1.24","null","<p>A másik játékos ezt választotta: <b>kliszernél</b>.</p><p>&#x2705;</p><p>A te válaszod és a másik játékos válasza <b>megegyeznek</b>.</p>","null","","","","feedback trial","",""
"html-button-response-esp","61","439669","0.0-11.0-0.25","6772","Ez itt egy vodép. Elneveztem a kutyámat...","0","vodépnek","[""vodépnek"",""vodépnak""]","vodépnek","esp trial","11","true"
"html-button-response","62","443175","0.0-11.0-1.25","null","<p>A másik játékos ezt választotta: <b>vodépnek</b>.</p><p>&#x2705;</p><p>A te válaszod és a másik játékos válasza <b>megegyeznek</b>.</p>","null","","","","feedback trial","",""
"html-button-response-esp","63","452728","0.0-11.0-0.26","7143","Ez itt egy buhény. Ott vagyunk a...","1","buhényben","[""buhényban"",""buhényben""]","buhényban","esp trial","11","false"
"html-button-response","64","456260","0.0-11.0-1.26","null","<p>A másik játékos ezt választotta: <b>buhényban</b>.</p><p>&#10060;</p><p>A válaszaitok <b>nem</b> egyeznek meg.</p>","null","","","","feedback trial","",""
"html-button-response-esp","65","465812","0.0-11.0-0.27","2898","Ez itt egy spáten. Elneveztem a kutyámat...","0","spátennek","[""spátennek"",""spátennak""]","spátennek","esp trial","11","true"
"html-button-response","66","469334","0.0-11.0-1.27","null","<p>A másik játékos ezt választotta: <b>spátennek</b>.</p><p>&#x2705;</p><p>A te válaszod és a másik játékos válasza <b>megegyeznek</b>.</p>","null","","","","feedback trial","",""
"html-button-response-esp","67","478869","0.0-11.0-0.28","5807","Ez itt egy forzéd. Elneveztem a kutyámat...","0","forzédnak","[""forzédnak"",""forzédnek""]","forzédnek","esp trial","11","false"
"html-button-response","68","482385","0.0-11.0-1.28","null","<p>A másik játékos ezt választotta: <b>forzédnek</b>.</p><p>&#10060;</p><p>A válaszaitok <b>nem</b> egyeznek meg.</p>","null","","","","feedback trial","",""
"html-button-response-esp","69","491924","0.0-11.0-0.29","4863","Ez itt egy tránély. Elneveztem a kutyámat...","0","tránélynek","[""tránélynek"",""tránélynak""]","tránélynak","esp trial","11","false"
"html-button-response","70","495451","0.0-11.0-1.29","null","<p>A másik játékos ezt választotta: <b>tránélynak</b>.</p><p>&#10060;</p><p>A válaszaitok <b>nem</b> egyeznek meg.</p>","null","","","","feedback trial","",""
"html-button-response-esp","71","505002","0.0-11.0-0.30","2158","Ez itt egy gicéj. Nincs is jobb egy jó...","1","gicéjnél","[""gicéjnál"",""gicéjnél""]","gicéjnél","esp trial","11","true"
"html-button-response","72","508525","0.0-11.0-1.30","null","<p>A másik játékos ezt választotta: <b>gicéjnél</b>.</p><p>&#x2705;</p><p>A te válaszod és a másik játékos válasza <b>megegyeznek</b>.</p>","null","","","","feedback trial","",""
"html-button-response-esp","73","518074","0.0-11.0-0.31","2574","Ez itt egy trincseg. Ott vagyunk a...","0","trincsegben","[""trincsegben"",""trincsegban""]","trincsegben","esp trial","11","true"
"html-button-response","74","521595","0.0-11.0-1.31","null","<p>A másik játékos ezt választotta: <b>trincsegben</b>.</p><p>&#x2705;</p><p>A te válaszod és a másik játékos válasza <b>megegyeznek</b>.</p>","null","","","","feedback trial","",""
"html-button-response-esp","75","531138","0.0-11.0-0.32","5670","Ez itt egy brukész. Nincs is jobb egy jó...","0","brukésznél","[""brukésznél"",""brukésznál""]","brukésznél","esp trial","11","true"
"html-button-response","76","534657","0.0-11.0-1.32","null","<p>A másik játékos ezt választotta: <b>brukésznél</b>.</p><p>&#x2705;</p><p>A te válaszod és a másik játékos válasza <b>megegyeznek</b>.</p>","null","","","","feedback trial","",""
"html-button-response-esp","77","544204","0.0-11.0-0.33","3316","Ez itt egy hivép. Ott vagyunk a...","0","hivépben","[""hivépben"",""hivépban""]","hivépben","esp trial","11","true"
"html-button-response","78","547723","0.0-11.0-1.33","null","<p>A másik játékos ezt választotta: <b>hivépben</b>.</p><p>&#x2705;</p><p>A te válaszod és a másik játékos válasza <b>megegyeznek</b>.</p>","null","","","","feedback trial","",""
"html-button-response-esp","79","557278","0.0-11.0-0.34","4376","Ez itt egy tranék. Ott vagyunk a...","0","tranékben","[""tranékben"",""tranékban""]","tranékban","esp trial","11","false"
"html-button-response","80","560804","0.0-11.0-1.34","null","<p>A másik játékos ezt választotta: <b>tranékban</b>.</p><p>&#10060;</p><p>A válaszaitok <b>nem</b> egyeznek meg.</p>","null","","","","feedback trial","",""
"html-button-response-esp","81","570343","0.0-11.0-0.35","3397","Ez itt egy giheszt. Elneveztem a kutyámat...","0","gihesztnek","[""gihesztnek"",""gihesztnak""]","gihesztnek","esp trial","11","true"
"html-button-response","82","573849","0.0-11.0-1.35","null","<p>A másik játékos ezt választotta: <b>gihesztnek</b>.</p><p>&#x2705;</p><p>A te válaszod és a másik játékos válasza <b>megegyeznek</b>.</p>","null","","","","feedback trial","",""
"html-button-response-esp","83","583398","0.0-11.0-0.36","3151","Ez itt egy sporzem. Elneveztem a kutyámat...","0","sporzemnek","[""sporzemnek"",""sporzemnak""]","sporzemnek","esp trial","11","true"
"html-button-response","84","586916","0.0-11.0-1.36","null","<p>A másik játékos ezt választotta: <b>sporzemnek</b>.</p><p>&#x2705;</p><p>A te válaszod és a másik játékos válasza <b>megegyeznek</b>.</p>","null","","","","feedback trial","",""
"html-button-response-esp","85","596462","0.0-11.0-0.37","3131","Ez itt egy hóbens. Ott vagyunk a...","1","hóbensben","[""hóbensban"",""hóbensben""]","hóbensben","esp trial","11","true"
"html-button-response","86","599975","0.0-11.0-1.37","null","<p>A másik játékos ezt választotta: <b>hóbensben</b>.</p><p>&#x2705;</p><p>A te válaszod és a másik játékos válasza <b>megegyeznek</b>.</p>","null","","","","feedback trial","",""
"html-button-response-esp","87","615615","0.0-11.0-0.38","15133","Ez itt egy szutend. Ott vagyunk a...","0","szutendban","[""szutendban"",""szutendben""]","szutendben","esp trial","11","false"
"html-button-response","88","619127","0.0-11.0-1.38","null","<p>A másik játékos ezt választotta: <b>szutendben</b>.</p><p>&#10060;</p><p>A válaszaitok <b>nem</b> egyeznek meg.</p>","null","","","","feedback trial","",""
"html-button-response-esp","89","628668","0.0-11.0-0.39","2315","Ez itt egy navec. Ott vagyunk a...","0","navecben","[""navecben"",""navecban""]","navecben","esp trial","11","true"
"html-button-response","90","632177","0.0-11.0-1.39","null","<p>A másik játékos ezt választotta: <b>navecben</b>.</p><p>&#x2705;</p><p>A te válaszod és a másik játékos válasza <b>megegyeznek</b>.</p>","null","","","","feedback trial","",""
"html-button-response-esp","91","641726","0.0-11.0-0.40","2469","Ez itt egy brigeszt. Elneveztem a kutyámat...","1","brigesztnek","[""brigesztnak"",""brigesztnek""]","brigesztnek","esp trial","11","true"
"html-button-response","92","645248","0.0-11.0-1.40","null","<p>A másik játékos ezt választotta: <b>brigesztnek</b>.</p><p>&#x2705;</p><p>A te válaszod és a másik játékos válasza <b>megegyeznek</b>.</p>","null","","","","feedback trial","",""
"html-button-response-esp","93","660418","0.0-11.0-0.41","14659","Ez itt egy nyábét. Ott vagyunk a...","0","nyábétben","[""nyábétben"",""nyábétban""]","nyábétban","esp trial","11","false"
"html-button-response","94","663927","0.0-11.0-1.41","null","<p>A másik játékos ezt választotta: <b>nyábétban</b>.</p><p>&#10060;</p><p>A válaszaitok <b>nem</b> egyeznek meg.</p>","null","","","","feedback trial","",""
"html-button-response-esp","95","673467","0.0-11.0-0.42","6490","Ez itt egy kluhéj. Nincs is jobb egy jó...","1","kluhéjnél","[""kluhéjnál"",""kluhéjnél""]","kluhéjnál","esp trial","11","false"
"html-button-response","96","676981","0.0-11.0-1.42","null","<p>A másik játékos ezt választotta: <b>kluhéjnál</b>.</p><p>&#10060;</p><p>A válaszaitok <b>nem</b> egyeznek meg.</p>","null","","","","feedback trial","",""
"html-button-response-esp","97","686529","0.0-11.0-0.43","1875","Ez itt egy matéz. Ott vagyunk a...","0","matézban","[""matézban"",""matézben""]","matézban","esp trial","11","true"
"html-button-response","98","690040","0.0-11.0-1.43","null","<p>A másik játékos ezt választotta: <b>matézban</b>.</p><p>&#x2705;</p><p>A te válaszod és a másik játékos válasza <b>megegyeznek</b>.</p>","null","","","","feedback trial","",""
"html-button-response-esp","99","699589","0.0-11.0-0.44","4592","Ez itt egy kadér. Nincs is jobb egy jó...","0","kadérnál","[""kadérnál"",""kadérnél""]","kadérnál","esp trial","11","true"
"html-button-response","100","703098","0.0-11.0-1.44","null","<p>A másik játékos ezt választotta: <b>kadérnál</b>.</p><p>&#x2705;</p><p>A te válaszod és a másik játékos válasza <b>megegyeznek</b>.</p>","null","","","","feedback trial","",""
"html-button-response-esp","101","712642","0.0-11.0-0.45","4587","Ez itt egy brágéd. Elneveztem a kutyámat...","1","brágédnek","[""brágédnak"",""brágédnek""]","brágédnak","esp trial","11","false"
"html-button-response","102","716160","0.0-11.0-1.45","null","<p>A másik játékos ezt választotta: <b>brágédnak</b>.</p><p>&#10060;</p><p>A válaszaitok <b>nem</b> egyeznek meg.</p>","null","","","","feedback trial","",""
"html-button-response-esp","103","725706","0.0-11.0-0.46","2565","Ez itt egy vublet. Nincs is jobb egy jó...","1","vubletnél","[""vubletnál"",""vubletnél""]","vubletnél","esp trial","11","true"
"html-button-response","104","729215","0.0-11.0-1.46","null","<p>A másik játékos ezt választotta: <b>vubletnél</b>.</p><p>&#x2705;</p><p>A te válaszod és a másik játékos válasza <b>megegyeznek</b>.</p>","null","","","","feedback trial","",""
"html-button-response-esp","105","738751","0.0-11.0-0.47","2916","Ez itt egy gótem. Elneveztem a kutyámat...","0","gótemnek","[""gótemnek"",""gótemnak""]","gótemnek","esp trial","11","true"
"html-button-response","106","742271","0.0-11.0-1.47","null","<p>A másik játékos ezt választotta: <b>gótemnek</b>.</p><p>&#x2705;</p><p>A te válaszod és a másik játékos válasza <b>megegyeznek</b>.</p>","null","","","","feedback trial","",""
"html-button-response-esp","107","751805","0.0-11.0-0.48","3000","Ez itt egy sartely. Ott vagyunk a...","0","sartelyben","[""sartelyben"",""sartelyban""]","sartelyben","esp trial","11","true"
"html-button-response","108","755323","0.0-11.0-1.48","null","<p>A másik játékos ezt választotta: <b>sartelyben</b>.</p><p>&#x2705;</p><p>A te válaszod és a másik játékos válasza <b>megegyeznek</b>.</p>","null","","","","feedback trial","",""
"html-button-response-esp","109","764874","0.0-11.0-0.49","4803","Ez itt egy bidem. Ott vagyunk a...","1","bidemben","[""bidemban"",""bidemben""]","bidemben","esp trial","11","true"
"html-button-response","110","768402","0.0-11.0-1.49","null","<p>A másik játékos ezt választotta: <b>bidemben</b>.</p><p>&#x2705;</p><p>A te válaszod és a másik játékos válasza <b>megegyeznek</b>.</p>","null","","","","feedback trial","",""
"html-button-response-esp","111","777942","0.0-11.0-0.50","8902","Ez itt egy nyarcéj. Elneveztem a kutyámat...","0","nyarcéjnak","[""nyarcéjnak"",""nyarcéjnek""]","nyarcéjnak","esp trial","11","true"
"html-button-response","112","781449","0.0-11.0-1.50","null","<p>A másik játékos ezt választotta: <b>nyarcéjnak</b>.</p><p>&#x2705;</p><p>A te válaszod és a másik játékos válasza <b>megegyeznek</b>.</p>","null","","","","feedback trial","",""
"html-button-response-esp","113","790994","0.0-11.0-0.51","2078","Ez itt egy nidét. Ott vagyunk a...","1","nidétben","[""nidétban"",""nidétben""]","nidétben","esp trial","11","true"
"html-button-response","114","794510","0.0-11.0-1.51","null","<p>A másik játékos ezt választotta: <b>nidétben</b>.</p><p>&#x2705;</p><p>A te válaszod és a másik játékos válasza <b>megegyeznek</b>.</p>","null","","","","feedback trial","",""
"html-button-response-esp","115","804050","0.0-11.0-0.52","2466","Ez itt egy csimen. Nincs is jobb egy jó...","1","csimennél","[""csimennál"",""csimennél""]","csimennél","esp trial","11","true"
"html-button-response","116","807566","0.0-11.0-1.52","null","<p>A másik játékos ezt választotta: <b>csimennél</b>.</p><p>&#x2705;</p><p>A te válaszod és a másik játékos válasza <b>megegyeznek</b>.</p>","null","","","","feedback trial","",""
"html-button-response-esp","117","821876","0.0-11.0-0.53","13799","Ez itt egy gonszék. Nincs is jobb egy jó...","0","gonszéknál","[""gonszéknál"",""gonszéknél""]","gonszéknél","esp trial","11","false"
"html-button-response","118","825395","0.0-11.0-1.53","null","<p>A másik játékos ezt választotta: <b>gonszéknél</b>.</p><p>&#10060;</p><p>A válaszaitok <b>nem</b> egyeznek meg.</p>","null","","","","feedback trial","",""
"html-button-response","119","831529","0.0-12.0","5621","<p>A közös játék most véget ért.</p><p>Mielőtt eláruljuk a végső pontszámodat, arra kérlek, játszd a szóválasztós játékot néhány percig egyedül is.</p><p>A feladatod ugyanaz lesz, választani két lehetőség közül.</p><p>Most viszont egyedül kell döntened, hogy te melyiket választanád.</p>","0","","","","","",""
"html-button-response-clever","120","836766","0.0-13.0-0.0","4727","Ez itt egy klosét. Elneveztem a kutyámat...","0","klosétnek","[""klosétnek"",""klosétnak""]","","posttest trial","1",""
"html-button-response-clever","121","843230","0.0-13.0-0.1","5960","Ez itt egy dorzéj. Elneveztem a kutyámat...","1","dorzéjnek","[""dorzéjnak"",""dorzéjnek""]","","posttest trial","1",""
"html-button-response-clever","122","845430","0.0-13.0-0.2","1691","Ez itt egy dihely. Elneveztem a kutyámat...","1","dihelynek","[""dihelynak"",""dihelynek""]","","posttest trial","1",""
"html-button-response-clever","123","851022","0.0-13.0-0.3","5081","Ez itt egy rapszek. Nincs is jobb egy jó...","0","rapszeknél","[""rapszeknél"",""rapszeknál""]","","posttest trial","1",""
"html-button-response-clever","124","853806","0.0-13.0-0.4","2279","Ez itt egy kátel. Elneveztem a kutyámat...","1","kátelnek","[""kátelnak"",""kátelnek""]","","posttest trial","1",""
"html-button-response-clever","125","858124","0.0-13.0-0.5","3812","Ez itt egy nyupér. Nincs is jobb egy jó...","1","nyupérnál","[""nyupérnél"",""nyupérnál""]","","posttest trial","1",""
"html-button-response-clever","126","861639","0.0-13.0-0.6","3010","Ez itt egy dábegy. Ott vagyunk a...","0","dábegyben","[""dábegyben"",""dábegyban""]","","posttest trial","1",""
"html-button-response-clever","127","864739","0.0-13.0-0.7","2586","Ez itt egy darhén. Ott vagyunk a...","1","darhénben","[""darhénban"",""darhénben""]","","posttest trial","1",""
"html-button-response-clever","128","867863","0.0-13.0-0.8","2622","Ez itt egy sortem. Nincs is jobb egy jó...","1","sortemnél","[""sortemnál"",""sortemnél""]","","posttest trial","1",""
"html-button-response-clever","129","871436","0.0-13.0-0.9","3064","Ez itt egy ronszek. Ott vagyunk a...","1","ronszekben","[""ronszekban"",""ronszekben""]","","posttest trial","1",""
"html-button-response-clever","130","874516","0.0-13.0-0.10","2572","Ez itt egy nyítem. Ott vagyunk a...","0","nyítemben","[""nyítemben"",""nyítemban""]","","posttest trial","1",""
"html-button-response-clever","131","878417","0.0-13.0-0.11","3393","Ez itt egy spábét. Ott vagyunk a...","1","spábétban","[""spábétben"",""spábétban""]","","posttest trial","1",""
"html-button-response-clever","132","881564","0.0-13.0-0.12","2644","Ez itt egy jukél. Nincs is jobb egy jó...","0","jukélnél","[""jukélnél"",""jukélnál""]","","posttest trial","1",""
"html-button-response-clever","133","883980","0.0-13.0-0.13","1909","Ez itt egy ítens. Ott vagyunk a...","0","ítensben","[""ítensben"",""ítensban""]","","posttest trial","1",""
"html-button-response-clever","134","886969","0.0-13.0-0.14","2484","Ez itt egy lorzens. Nincs is jobb egy jó...","1","lorzensnél","[""lorzensnál"",""lorzensnél""]","","posttest trial","1",""
"html-button-response-clever","135","890313","0.0-13.0-0.15","2838","Ez itt egy sprivenc. Nincs is jobb egy jó...","1","sprivencnél","[""sprivencnál"",""sprivencnél""]","","posttest trial","1",""
"html-button-response-clever","136","892929","0.0-13.0-0.16","2111","Ez itt egy gúden. Ott vagyunk a...","1","gúdenben","[""gúdenban"",""gúdenben""]","","posttest trial","1",""
"html-button-response-clever","137","895985","0.0-13.0-0.17","2549","Ez itt egy zsádév. Elneveztem a kutyámat...","1","zsádévnek","[""zsádévnak"",""zsádévnek""]","","posttest trial","1",""
"html-button-response-clever","138","903206","0.0-13.0-0.18","6716","Ez itt egy zopély. Nincs is jobb egy jó...","1","zopélynél","[""zopélynál"",""zopélynél""]","","posttest trial","1",""
"html-button-response-clever","139","908597","0.0-13.0-0.19","4888","Ez itt egy garcép. Nincs is jobb egy jó...","0","garcépnél","[""garcépnél"",""garcépnál""]","","posttest trial","1",""
"html-button-response-clever","140","914199","0.0-13.0-0.20","5093","Ez itt egy hágyét. Elneveztem a kutyámat...","0","hágyétnek","[""hágyétnek"",""hágyétnak""]","","posttest trial","1",""
"html-button-response-clever","141","917859","0.0-13.0-0.21","3153","Ez itt egy kaszép. Elneveztem a kutyámat...","0","kaszépnek","[""kaszépnek"",""kaszépnak""]","","posttest trial","1",""
"html-button-response-clever","142","920135","0.0-13.0-0.22","1773","Ez itt egy incéj. Elneveztem a kutyámat...","1","incéjnek","[""incéjnak"",""incéjnek""]","","posttest trial","1",""
"html-button-response-clever","143","927399","0.0-13.0-0.23","6760","Ez itt egy tosély. Ott vagyunk a...","1","tosélyban","[""tosélyben"",""tosélyban""]","","posttest trial","1",""
"html-button-response-clever","144","930163","0.0-13.0-0.24","2260","Ez itt egy nyamet. Ott vagyunk a...","1","nyametben","[""nyametban"",""nyametben""]","","posttest trial","1",""
"html-button-response-clever","145","934508","0.0-13.0-0.25","3838","Ez itt egy spanél. Nincs is jobb egy jó...","0","spanélnél","[""spanélnél"",""spanélnál""]","","posttest trial","1",""
"html-button-response-clever","146","937040","0.0-13.0-0.26","2019","Ez itt egy pivéd. Ott vagyunk a...","0","pivédben","[""pivédben"",""pivédban""]","","posttest trial","1",""
"html-button-response-clever","147","938844","0.0-13.0-0.27","1292","Ez itt egy priszec. Ott vagyunk a...","0","priszecben","[""priszecben"",""priszecban""]","","posttest trial","1",""
"html-button-response-clever","148","941352","0.0-13.0-0.28","1996","Ez itt egy spicet. Elneveztem a kutyámat...","0","spicetnek","[""spicetnek"",""spicetnak""]","","posttest trial","1",""
"html-button-response-clever","149","944481","0.0-13.0-0.29","2619","Ez itt egy monveg. Nincs is jobb egy jó...","0","monvegnél","[""monvegnél"",""monvegnál""]","","posttest trial","1",""
"html-button-response-clever","150","949221","0.0-13.0-0.30","4239","Ez itt egy danét. Nincs is jobb egy jó...","0","danétnál","[""danétnál"",""danétnél""]","","posttest trial","1",""
"html-button-response-clever","151","953337","0.0-13.0-0.31","3603","Ez itt egy luméz. Ott vagyunk a...","0","lumézben","[""lumézben"",""lumézban""]","","posttest trial","1",""
"html-button-response-clever","152","957905","0.0-13.0-0.32","4060","Ez itt egy narem. Ott vagyunk a...","0","naremben","[""naremben"",""naremban""]","","posttest trial","1",""
"html-button-response-clever","153","960618","0.0-13.0-0.33","2211","Ez itt egy brindez. Elneveztem a kutyámat...","1","brindeznek","[""brindeznak"",""brindeznek""]","","posttest trial","1",""
"html-button-response-clever","154","964682","0.0-13.0-0.34","3560","Ez itt egy spumény. Elneveztem a kutyámat...","1","spuménynek","[""spuménynak"",""spuménynek""]","","posttest trial","1",""
"html-button-response-clever","155","968538","0.0-13.0-0.35","3349","Ez itt egy zsúdel. Elneveztem a kutyámat...","1","zsúdelnek","[""zsúdelnak"",""zsúdelnek""]","","posttest trial","1",""
"html-button-response-clever","156","971206","0.0-13.0-0.36","2167","Ez itt egy pisély. Ott vagyunk a...","0","pisélyben","[""pisélyben"",""pisélyban""]","","posttest trial","1",""
"html-button-response-clever","157","982011","0.0-13.0-0.37","10301","Ez itt egy kalréz. Ott vagyunk a...","0","kalrézban","[""kalrézban"",""kalrézben""]","","posttest trial","1",""
"html-button-response-clever","158","987708","0.0-13.0-0.38","5193","Ez itt egy trájeg. Ott vagyunk a...","1","trájegben","[""trájegban"",""trájegben""]","","posttest trial","1",""
"html-button-response-clever","159","991475","0.0-13.0-0.39","3263","Ez itt egy bralkép. Ott vagyunk a...","0","bralképben","[""bralképben"",""bralképban""]","","posttest trial","1",""
"html-button-response-clever","160","994763","0.0-13.0-0.40","2783","Ez itt egy kalhész. Elneveztem a kutyámat...","0","kalhésznek","[""kalhésznek"",""kalhésznak""]","","posttest trial","1",""
"html-button-response-clever","161","998196","0.0-13.0-0.41","2928","Ez itt egy pijél. Nincs is jobb egy jó...","0","pijélnél","[""pijélnél"",""pijélnál""]","","posttest trial","1",""
"html-button-response-clever","162","1001896","0.0-13.0-0.42","3195","Ez itt egy fájéz. Ott vagyunk a...","0","fájézben","[""fájézben"",""fájézban""]","","posttest trial","1",""
"html-button-response-clever","163","1008488","0.0-13.0-0.43","6087","Ez itt egy jóbec. Elneveztem a kutyámat...","0","jóbecnek","[""jóbecnek"",""jóbecnak""]","","posttest trial","1",""
"html-button-response-clever","164","1013677","0.0-13.0-0.44","4685","Ez itt egy zsáder. Ott vagyunk a...","1","zsáderban","[""zsáderben"",""zsáderban""]","","posttest trial","1",""
"html-button-response-clever","165","1015837","0.0-13.0-0.45","1657","Ez itt egy vorszen. Nincs is jobb egy jó...","0","vorszennél","[""vorszennél"",""vorszennál""]","","posttest trial","1",""
"html-button-response-clever","166","1024574","0.0-13.0-0.46","8234","Ez itt egy bupéz. Ott vagyunk a...","0","bupézben","[""bupézben"",""bupézban""]","","posttest trial","1",""
"html-button-response-clever","167","1027214","0.0-13.0-0.47","2138","Ez itt egy zsigén. Nincs is jobb egy jó...","0","zsigénnél","[""zsigénnél"",""zsigénnál""]","","posttest trial","1",""
"html-button-response-clever","168","1029349","0.0-13.0-0.48","1629","Ez itt egy klingesz. Ott vagyunk a...","1","klingeszben","[""klingeszban"",""klingeszben""]","","posttest trial","1",""
"html-button-response-clever","169","1048579","0.0-13.0-0.49","18714","Ez itt egy braszenc. Nincs is jobb egy jó...","1","braszencnél","[""braszencnál"",""braszencnél""]","","posttest trial","1",""
"html-button-response-clever","170","1052295","0.0-13.0-0.50","3194","Ez itt egy dalenc. Nincs is jobb egy jó...","0","dalencnél","[""dalencnél"",""dalencnál""]","","posttest trial","1",""
"html-button-response-clever","171","1054464","0.0-13.0-0.51","1662","Ez itt egy trismél. Elneveztem a kutyámat...","0","trismélnek","[""trismélnek"",""trismélnak""]","","posttest trial","1",""
"html-button-response-clever","172","1056312","0.0-13.0-0.52","1336","Ez itt egy zihenc. Elneveztem a kutyámat...","0","zihencnek","[""zihencnek"",""zihencnak""]","","posttest trial","1",""
"html-button-response-clever","173","1058792","0.0-13.0-0.53","1971","Ez itt egy pítend. Ott vagyunk a...","1","pítendben","[""pítendban"",""pítendben""]","","posttest trial","1",""
"html-button-response","174","1066008","0.0-14.0","6704","<p> Vége a játéknak. A teljes pontszámod 38/54.</p><p> Szép munka! &#128526;&#128526;&#128526;</p><p>A Befejezés gomb megnyomása után bezárhatod a böngészőablakot.</p>","0","","","","","",""
"html-keyboard-response","175","1071533","0.0-15.0","null","<div class=""message"">
         <p>Egy kis türelmet kérünk, amíg elmentjük az adatokat...</p>
         </div>","null","","","","","",""
