"trial_type","trial_index","time_elapsed","internal_node_id","rt","stimulus","response","response_string","choices","esp_response","trial_kind","list_number","esp_match"
"pavlovia","0","2154","0.0-0.0","","","","","","","","",""
"html-button-response","1","4551","0.0-1.0","1890","<p>Kedves Résztvevő! A Budapesti Műszaki és Gazdaságtudományi Egyetem Kognitív Tudományi Tanszékének kutatásában való részvételed kérjük. A kutatásban azt vizsgáljuk, hogy a magyar anyanyelvűek hogyan használnak bizonyos szóalakokat, és hogy milyen képük van arról, hogy mások hogyan használják, hogyan képzik a szavakat. Ez hozzásegít bennünket ahhoz, hogy jobban megértsük, hogyan dolgozza fel és tárolja a nyelvet az emberi agy, és hogyan működnek, hogyan változnak egy adott közösség nyelvi konvenciói.</p><p>A vizsgálat egy rövid számítógépes feladatból fog állni. A kutatásban való részvétel önkéntes, a részvételi szándék bármikor visszavonható. A résztvevők eredményeit név nélkül kezeljük, így nem beazonosíthatók az adatok feldolgozása során. Minden személyes adatot az EU általános adatvédelmi rendeletének (GDPR) megfelelően kezelünk és legfeljebb öt éven belül megsemmisítünk. A vizsgálat jellemzően húsz percet vesz igénybe.</p><p>Kutatásvezető:</p><p>Dr. Rácz Péter, tudományos munkatárs, BME KTT</p><p>e-mail: racz.peter.marton@ttk.bme.hu</p>","0","","","","","",""
"html-button-response","2","54095","0.0-2.0","49030","<p>A kísérletben szavakat fogsz látni. Ezek között lesznek olyanok, amelyeket ismersz, de előfordulhatnak olyanok is, amelyeket nem ismersz, sőt, vannak köztük kitalált szavak is. Minden szónál látni fogsz toldalékolt alakokat. A te feladatod az lesz, hogy minden szóhoz kiválaszd azt a toldalékolt alakot, amely a te számodra ismerősebben, természetesebben hangzik. Rossz válaszok nincsenek, mert van olyan, hogy különböző embereknek más és más szó tűnik jobb választásnak. A választ úgy tudod majd kiválasztani, ha rákattintasz.</p><p>Ebben a szóválasztós játékban egy másik játékossal együtt veszel majd részt. A másik játékos is minden esetben azok közül a lehetőségek közül válogathat, mint te. Kettőtök feladata az, hogy ugyanazt a lehetőséget válasszátok minden esetben. Ahhoz, hogy ez sikerüljön, neked figyelned kell arra, hogy a másik játékos milyen válaszokat ad, és ennek alapján meg kell tippelned, hogyan választ legközelebb. Ha eltalálod, akkor pontot kapsz.</p>","0","","","","","",""
"html-button-response","3","74127","0.0-3.0","19525","<p>Kérjük, olvasd el az alábbi nyilatkozatot, és amennyiben egyetértesz vele, nyomj a Beleegyezés gombra!</p><p>Kijelentem, hogy magyar anyanyelvű személyként önként veszek részt a BME KTT kísérletében. A kutatás céljával és folyamatával kapcsolatban elegendő tájékoztatást kaptam, lehetőségem volt kérdések feltételére, és esetleges kérdéseimre megfelelő válaszokat kaptam. A tájékoztatás alapján elegendő mennyiségű információ áll a rendelkezésemre, hogy eldönthessem, részt kívánok-e venni a kutatásban.</p><p>Tisztában vagyok vele, hogy részvételi szándékomat és adataimat bármikor, indoklás nélkül visszavonhatom.</p><p>Értem és tudomásul veszem, hogy a kutatás tudományos célokat szolgál, és az általam szolgáltatott adatokat a BME kizárólag kutatási célból használja fel. Tudomásul veszem, hogy eredményeimet a többi résztvevő eredményeivel együtt kezelik, így egyéni teljesítményemről visszajelzést, szakvéleményt nem kapok.</p><p>Megértettem, hogy adataim kezelését illetően a BME az EU általános adatvédelmi rendelete (GDPR), a hatályos adatvédelmi törvény és a nemzetközi kutatás-etikai alapelvek szerint jár el. Eredményeim anonim módon kerülnek feldolgozásra, és a kutatás résztvevői az azonosításomra alkalmas adataimat harmadik félnek nem szolgáltatják ki. Engedélyezem a BME számára a jelen kutatásban felvett adataim feldolgozását és tárolását, beleértve azok későbbi kutatásokhoz való felhasználását is. Személyes adataim kezelésével kapcsolatban tájékoztatást kérhetek a kutatás résztvevőitől, az adatkezelés ellen tiltakozhatok, kérhetem személyes adataim helyesbítését, törlését vagy zárolását, valamint jogorvoslatért a Nemzeti Adatvédelmi és Információszabadság Hatósághoz fordulhatok.</p><p>Kijelentem, hogy a kutatásban való részvételem körülményeiről részletes tájékoztatást kaptam, és a feltételeket elfogadom.</p>","0","","","","","",""
"survey-text","4","101404","0.0-4.0","26752","","{""Q0"":""SZFS1V"",""Q1"":""nő"",""Q2"":""2002"",""Q3"":""14""}","","","","","",""
"html-button-response","5","113929","0.0-5.0","12014","<p>Ebben a játékban szavakat kell toldalékolni.</p> <p>Minden körben mutatunk majd egy példamondatot, amiben lesz egy szó.</p> <p>Alatta jön egy második mondat, ezt a mondatot neked kell majd befejezni, ugyanezzel a szóval.</p> <p>Nem biztos, hogy a szó eleve ismerős lesz számodra!</p> <p>Minden mondathoz adunk két lehetőséget, ezeket balra és jobbra látod majd.</p> <p>A játék kb. negyedóráig-húsz percig tart.</p>","0","","","","","",""
"html-button-response","6","139454","0.0-6.0","25013","<p>Nézzünk egy példát!</p> <p>A példamondat: ""Ez itt egy blumbnyeg.""</p><p>Neked ezt a mondatot kell befejezned: ""Ott vagyunk a...""</p><p>A lehetőségek pedig ezek:</p>","0","","","","","",""
"html-button-response","7","146653","0.0-7.0","6693","<p>Nagyon jó.</p><p>Ezt a játékot nem egyedül fogod játszani, hanem egy másik játékossal.</p><p>Mielőtt továbblépünk, összekapcsolunk titeket egymással.</p><p>Ez igénybe vehet néhány másodpercet, amihez szíves türelmed kérjük.</p>","0","","","","","",""
"html-button-response","8","152386","0.0-8.0","null","<p>Csatlakozás a másik játékoshoz...</p>","null","","","","","",""
"html-button-response","9","154897","0.0-9.0","null","<p> Sikeres kapcsolódás!</p>","null","","","","","",""
"html-button-response","10","165426","0.0-10.0","null","<p>A következőkben ketten játsszátok a szóválasztós játékot.</p><p>A feladatotok az lesz, hogy minden körben <b>ugyanazt</b> a szót válasszátok.</p><p>Minden ilyen egyező válaszért pontot kaptok.</p><p>Próbáld meg kitalálni, mit választ a másik játékos!</p><p>Bármikor választhatsz, a körnek akkor van vége, ha mindketten döntöttetek.</p><p>Sok sikert!</p>","null","","","","","",""
"html-button-response-esp","11","177304","0.0-11.0-0.0","11369","Ez itt egy csinték. Ott vagyunk a...","1","csintékben","[""csintékban"",""csintékben""]","csintékban","esp trial","8","false"
"html-button-response","12","180818","0.0-11.0-1.0","null","<p>A másik játékos ezt választotta: <b>csintékban</b>.</p><p>&#10060;</p><p>A válaszaitok <b>nem</b> egyeznek meg.</p>","null","","","","feedback trial","",""
"html-button-response-esp","13","191608","0.0-11.0-0.1","10281","Ez itt egy spáten. Elneveztem a kutyámat...","0","spátennak","[""spátennak"",""spátennek""]","spátennak","esp trial","8","true"
"html-button-response","14","195129","0.0-11.0-1.1","null","<p>A másik játékos ezt választotta: <b>spátennak</b>.</p><p>&#x2705;</p><p>A te válaszod és a másik játékos válasza <b>megegyeznek</b>.</p>","null","","","","feedback trial","",""
"html-button-response-esp","15","200907","0.0-11.0-0.2","5261","Ez itt egy sporzem. Elneveztem a kutyámat...","1","sporzemnak","[""sporzemnek"",""sporzemnak""]","sporzemnak","esp trial","8","true"
"html-button-response","16","204423","0.0-11.0-1.2","null","<p>A másik játékos ezt választotta: <b>sporzemnak</b>.</p><p>&#x2705;</p><p>A te válaszod és a másik játékos válasza <b>megegyeznek</b>.</p>","null","","","","feedback trial","",""
"html-button-response-esp","17","211151","0.0-11.0-0.3","6217","Ez itt egy nyábét. Ott vagyunk a...","1","nyábétban","[""nyábétben"",""nyábétban""]","nyábétben","esp trial","8","false"
"html-button-response","18","214671","0.0-11.0-1.3","null","<p>A másik játékos ezt választotta: <b>nyábétben</b>.</p><p>&#10060;</p><p>A válaszaitok <b>nem</b> egyeznek meg.</p>","null","","","","feedback trial","",""
"html-button-response-esp","19","221897","0.0-11.0-0.4","6724","Ez itt egy fádens. Elneveztem a kutyámat...","1","fádensnak","[""fádensnek"",""fádensnak""]","fádensnak","esp trial","8","true"
"html-button-response","20","225420","0.0-11.0-1.4","null","<p>A másik játékos ezt választotta: <b>fádensnak</b>.</p><p>&#x2705;</p><p>A te válaszod és a másik játékos válasza <b>megegyeznek</b>.</p>","null","","","","feedback trial","",""
"html-button-response-esp","21","235528","0.0-11.0-0.5","9591","Ez itt egy tránély. Elneveztem a kutyámat...","1","tránélynak","[""tránélynek"",""tránélynak""]","tránélynek","esp trial","8","false"
"html-button-response","22","239050","0.0-11.0-1.5","null","<p>A másik játékos ezt választotta: <b>tránélynek</b>.</p><p>&#10060;</p><p>A válaszaitok <b>nem</b> egyeznek meg.</p>","null","","","","feedback trial","",""
"html-button-response-esp","23","248559","0.0-11.0-0.6","8999","Ez itt egy tranék. Ott vagyunk a...","1","tranékben","[""tranékban"",""tranékben""]","tranékben","esp trial","8","true"
"html-button-response","24","252080","0.0-11.0-1.6","null","<p>A másik játékos ezt választotta: <b>tranékben</b>.</p><p>&#x2705;</p><p>A te válaszod és a másik játékos válasza <b>megegyeznek</b>.</p>","null","","","","feedback trial","",""
"html-button-response-esp","25","257222","0.0-11.0-0.7","4623","Ez itt egy szihét. Elneveztem a kutyámat...","0","szihétnak","[""szihétnak"",""szihétnek""]","szihétnak","esp trial","8","true"
"html-button-response","26","260732","0.0-11.0-1.7","null","<p>A másik játékos ezt választotta: <b>szihétnak</b>.</p><p>&#x2705;</p><p>A te válaszod és a másik játékos válasza <b>megegyeznek</b>.</p>","null","","","","feedback trial","",""
"html-button-response-esp","27","265444","0.0-11.0-0.8","4211","Ez itt egy nyarcéj. Elneveztem a kutyámat...","0","nyarcéjnak","[""nyarcéjnak"",""nyarcéjnek""]","nyarcéjnek","esp trial","8","false"
"html-button-response","28","268959","0.0-11.0-1.8","null","<p>A másik játékos ezt választotta: <b>nyarcéjnek</b>.</p><p>&#10060;</p><p>A válaszaitok <b>nem</b> egyeznek meg.</p>","null","","","","feedback trial","",""
"html-button-response-esp","29","284760","0.0-11.0-0.9","15294","Ez itt egy trigenc. Elneveztem a kutyámat...","1","trigencnak","[""trigencnek"",""trigencnak""]","trigencnak","esp trial","8","true"
"html-button-response","30","288279","0.0-11.0-1.9","null","<p>A másik játékos ezt választotta: <b>trigencnak</b>.</p><p>&#x2705;</p><p>A te válaszod és a másik játékos válasza <b>megegyeznek</b>.</p>","null","","","","feedback trial","",""
"html-button-response-esp","31","292520","0.0-11.0-0.10","3736","Ez itt egy giheszt. Elneveztem a kutyámat...","1","gihesztnak","[""gihesztnek"",""gihesztnak""]","gihesztnak","esp trial","8","true"
"html-button-response","32","296051","0.0-11.0-1.10","null","<p>A másik játékos ezt választotta: <b>gihesztnak</b>.</p><p>&#x2705;</p><p>A te válaszod és a másik játékos válasza <b>megegyeznek</b>.</p>","null","","","","feedback trial","",""
"html-button-response-esp","33","303244","0.0-11.0-0.11","6682","Ez itt egy gonszék. Nincs is jobb egy jó...","1","gonszéknál","[""gonszéknél"",""gonszéknál""]","gonszéknál","esp trial","8","true"
"html-button-response","34","306777","0.0-11.0-1.11","null","<p>A másik játékos ezt választotta: <b>gonszéknál</b>.</p><p>&#x2705;</p><p>A te válaszod és a másik játékos válasza <b>megegyeznek</b>.</p>","null","","","","feedback trial","",""
"html-button-response-esp","35","310707","0.0-11.0-0.12","3425","Ez itt egy júder. Elneveztem a kutyámat...","1","júdernak","[""júdernek"",""júdernak""]","júdernak","esp trial","8","true"
"html-button-response","36","314219","0.0-11.0-1.12","null","<p>A másik játékos ezt választotta: <b>júdernak</b>.</p><p>&#x2705;</p><p>A te válaszod és a másik játékos válasza <b>megegyeznek</b>.</p>","null","","","","feedback trial","",""
"html-button-response-esp","37","318149","0.0-11.0-0.13","3423","Ez itt egy prately. Elneveztem a kutyámat...","1","pratelynak","[""pratelynek"",""pratelynak""]","pratelynak","esp trial","8","true"
"html-button-response","38","321662","0.0-11.0-1.13","null","<p>A másik játékos ezt választotta: <b>pratelynak</b>.</p><p>&#x2705;</p><p>A te válaszod és a másik játékos válasza <b>megegyeznek</b>.</p>","null","","","","feedback trial","",""
"html-button-response-esp","39","329520","0.0-11.0-0.14","7349","Ez itt egy brukész. Nincs is jobb egy jó...","1","brukésznél","[""brukésznál"",""brukésznél""]","brukésznál","esp trial","8","false"
"html-button-response","40","333038","0.0-11.0-1.14","null","<p>A másik játékos ezt választotta: <b>brukésznál</b>.</p><p>&#10060;</p><p>A válaszaitok <b>nem</b> egyeznek meg.</p>","null","","","","feedback trial","",""
"html-button-response-esp","41","337696","0.0-11.0-0.15","4154","Ez itt egy bródesz. Elneveztem a kutyámat...","0","bródesznak","[""bródesznak"",""bródesznek""]","bródesznak","esp trial","8","true"
"html-button-response","42","341218","0.0-11.0-1.15","null","<p>A másik játékos ezt választotta: <b>bródesznak</b>.</p><p>&#x2705;</p><p>A te válaszod és a másik játékos válasza <b>megegyeznek</b>.</p>","null","","","","feedback trial","",""
"html-button-response-esp","43","346622","0.0-11.0-0.16","4902","Ez itt egy csimen. Nincs is jobb egy jó...","1","csimennál","[""csimennél"",""csimennál""]","csimennál","esp trial","8","true"
"html-button-response","44","350137","0.0-11.0-1.16","null","<p>A másik játékos ezt választotta: <b>csimennál</b>.</p><p>&#x2705;</p><p>A te válaszod és a másik játékos válasza <b>megegyeznek</b>.</p>","null","","","","feedback trial","",""
"html-button-response-esp","45","354456","0.0-11.0-0.17","3811","Ez itt egy brotes. Ott vagyunk a...","1","brotesban","[""brotesben"",""brotesban""]","brotesben","esp trial","8","false"
"html-button-response","46","357981","0.0-11.0-1.17","null","<p>A másik játékos ezt választotta: <b>brotesben</b>.</p><p>&#10060;</p><p>A válaszaitok <b>nem</b> egyeznek meg.</p>","null","","","","feedback trial","",""
"html-button-response-esp","47","362575","0.0-11.0-0.18","4092","Ez itt egy gicéj. Nincs is jobb egy jó...","1","gicéjnál","[""gicéjnél"",""gicéjnál""]","gicéjnál","esp trial","8","true"
"html-button-response","48","366095","0.0-11.0-1.18","null","<p>A másik játékos ezt választotta: <b>gicéjnál</b>.</p><p>&#x2705;</p><p>A te válaszod és a másik játékos válasza <b>megegyeznek</b>.</p>","null","","","","feedback trial","",""
"html-button-response-esp","49","372962","0.0-11.0-0.19","6360","Ez itt egy jorzég. Elneveztem a kutyámat...","1","jorzégnak","[""jorzégnek"",""jorzégnak""]","jorzégnak","esp trial","8","true"
"html-button-response","50","376487","0.0-11.0-1.19","null","<p>A másik játékos ezt választotta: <b>jorzégnak</b>.</p><p>&#x2705;</p><p>A te válaszod és a másik játékos válasza <b>megegyeznek</b>.</p>","null","","","","feedback trial","",""
"html-button-response-esp","51","381416","0.0-11.0-0.20","4426","Ez itt egy vublet. Nincs is jobb egy jó...","0","vubletnál","[""vubletnál"",""vubletnél""]","vubletnál","esp trial","8","true"
"html-button-response","52","384930","0.0-11.0-1.20","null","<p>A másik játékos ezt választotta: <b>vubletnál</b>.</p><p>&#x2705;</p><p>A te válaszod és a másik játékos válasza <b>megegyeznek</b>.</p>","null","","","","feedback trial","",""
"html-button-response-esp","53","390973","0.0-11.0-0.21","5539","Ez itt egy trincseg. Ott vagyunk a...","0","trincsegban","[""trincsegban"",""trincsegben""]","trincsegban","esp trial","8","true"
"html-button-response","54","394488","0.0-11.0-1.21","null","<p>A másik játékos ezt választotta: <b>trincsegban</b>.</p><p>&#x2705;</p><p>A te válaszod és a másik játékos válasza <b>megegyeznek</b>.</p>","null","","","","feedback trial","",""
"html-button-response-esp","55","398709","0.0-11.0-0.22","3717","Ez itt egy bidem. Ott vagyunk a...","0","bidemban","[""bidemban"",""bidemben""]","bidemban","esp trial","8","true"
"html-button-response","56","402231","0.0-11.0-1.22","null","<p>A másik játékos ezt választotta: <b>bidemban</b>.</p><p>&#x2705;</p><p>A te válaszod és a másik játékos válasza <b>megegyeznek</b>.</p>","null","","","","feedback trial","",""
"html-button-response-esp","57","407777","0.0-11.0-0.23","5035","Ez itt egy forzéd. Elneveztem a kutyámat...","1","forzédnak","[""forzédnek"",""forzédnak""]","forzédnak","esp trial","8","true"
"html-button-response","58","411306","0.0-11.0-1.23","null","<p>A másik játékos ezt választotta: <b>forzédnak</b>.</p><p>&#x2705;</p><p>A te válaszod és a másik játékos válasza <b>megegyeznek</b>.</p>","null","","","","feedback trial","",""
"html-button-response-esp","59","415793","0.0-11.0-0.24","3986","Ez itt egy sprízem. Nincs is jobb egy jó...","1","sprízemnál","[""sprízemnél"",""sprízemnál""]","sprízemnál","esp trial","8","true"
"html-button-response","60","419312","0.0-11.0-1.24","null","<p>A másik játékos ezt választotta: <b>sprízemnál</b>.</p><p>&#x2705;</p><p>A te válaszod és a másik játékos válasza <b>megegyeznek</b>.</p>","null","","","","feedback trial","",""
"html-button-response-esp","61","424094","0.0-11.0-0.25","4270","Ez itt egy kadér. Nincs is jobb egy jó...","1","kadérnál","[""kadérnél"",""kadérnál""]","kadérnél","esp trial","8","false"
"html-button-response","62","427617","0.0-11.0-1.25","null","<p>A másik játékos ezt választotta: <b>kadérnél</b>.</p><p>&#10060;</p><p>A válaszaitok <b>nem</b> egyeznek meg.</p>","null","","","","feedback trial","",""
"html-button-response-esp","63","433030","0.0-11.0-0.26","4897","Ez itt egy kábesz. Nincs is jobb egy jó...","1","kábesznél","[""kábesznál"",""kábesznél""]","kábesznál","esp trial","8","false"
"html-button-response","64","436551","0.0-11.0-1.26","null","<p>A másik játékos ezt választotta: <b>kábesznál</b>.</p><p>&#10060;</p><p>A válaszaitok <b>nem</b> egyeznek meg.</p>","null","","","","feedback trial","",""
"html-button-response-esp","65","443419","0.0-11.0-0.27","6357","Ez itt egy zsopéd. Ott vagyunk a...","1","zsopédben","[""zsopédban"",""zsopédben""]","zsopédben","esp trial","8","true"
"html-button-response","66","446941","0.0-11.0-1.27","null","<p>A másik játékos ezt választotta: <b>zsopédben</b>.</p><p>&#x2705;</p><p>A te válaszod és a másik játékos válasza <b>megegyeznek</b>.</p>","null","","","","feedback trial","",""
"html-button-response-esp","67","453952","0.0-11.0-0.28","6508","Ez itt egy brágéd. Elneveztem a kutyámat...","0","brágédnak","[""brágédnak"",""brágédnek""]","brágédnek","esp trial","8","false"
"html-button-response","68","457465","0.0-11.0-1.28","null","<p>A másik játékos ezt választotta: <b>brágédnek</b>.</p><p>&#10060;</p><p>A válaszaitok <b>nem</b> egyeznek meg.</p>","null","","","","feedback trial","",""
"html-button-response-esp","69","461772","0.0-11.0-0.29","3795","Ez itt egy hóbens. Ott vagyunk a...","1","hóbensben","[""hóbensban"",""hóbensben""]","hóbensban","esp trial","8","false"
"html-button-response","70","465292","0.0-11.0-1.29","null","<p>A másik játékos ezt választotta: <b>hóbensban</b>.</p><p>&#10060;</p><p>A válaszaitok <b>nem</b> egyeznek meg.</p>","null","","","","feedback trial","",""
"html-button-response-esp","71","471263","0.0-11.0-0.30","5460","Ez itt egy dingec. Elneveztem a kutyámat...","0","dingecnak","[""dingecnak"",""dingecnek""]","dingecnak","esp trial","8","true"
"html-button-response","72","474784","0.0-11.0-1.30","null","<p>A másik játékos ezt választotta: <b>dingecnak</b>.</p><p>&#x2705;</p><p>A te válaszod és a másik játékos válasza <b>megegyeznek</b>.</p>","null","","","","feedback trial","",""
"html-button-response-esp","73","481238","0.0-11.0-0.31","5938","Ez itt egy jalrény. Nincs is jobb egy jó...","1","jalrénynál","[""jalrénynél"",""jalrénynál""]","jalrénynél","esp trial","8","false"
"html-button-response","74","484760","0.0-11.0-1.31","null","<p>A másik játékos ezt választotta: <b>jalrénynél</b>.</p><p>&#10060;</p><p>A válaszaitok <b>nem</b> egyeznek meg.</p>","null","","","","feedback trial","",""
"html-button-response-esp","75","491155","0.0-11.0-0.32","5893","Ez itt egy gótem. Elneveztem a kutyámat...","0","gótemnek","[""gótemnek"",""gótemnak""]","gótemnak","esp trial","8","false"
"html-button-response","76","494663","0.0-11.0-1.32","null","<p>A másik játékos ezt választotta: <b>gótemnak</b>.</p><p>&#10060;</p><p>A válaszaitok <b>nem</b> egyeznek meg.</p>","null","","","","feedback trial","",""
"html-button-response-esp","77","501820","0.0-11.0-0.33","6654","Ez itt egy fincek. Nincs is jobb egy jó...","0","finceknél","[""finceknél"",""finceknál""]","finceknál","esp trial","8","false"
"html-button-response","78","505342","0.0-11.0-1.33","null","<p>A másik játékos ezt választotta: <b>finceknál</b>.</p><p>&#10060;</p><p>A válaszaitok <b>nem</b> egyeznek meg.</p>","null","","","","feedback trial","",""
"html-button-response-esp","79","515392","0.0-11.0-0.34","9540","Ez itt egy klordény. Elneveztem a kutyámat...","1","klordénynak","[""klordénynek"",""klordénynak""]","klordénynek","esp trial","8","false"
"html-button-response","80","518919","0.0-11.0-1.34","null","<p>A másik játékos ezt választotta: <b>klordénynek</b>.</p><p>&#10060;</p><p>A válaszaitok <b>nem</b> egyeznek meg.</p>","null","","","","feedback trial","",""
"html-button-response-esp","81","524751","0.0-11.0-0.35","5313","Ez itt egy vodép. Elneveztem a kutyámat...","1","vodépnak","[""vodépnek"",""vodépnak""]","vodépnak","esp trial","8","true"
"html-button-response","82","528273","0.0-11.0-1.35","null","<p>A másik játékos ezt választotta: <b>vodépnak</b>.</p><p>&#x2705;</p><p>A te válaszod és a másik játékos válasza <b>megegyeznek</b>.</p>","null","","","","feedback trial","",""
"html-button-response-esp","83","535101","0.0-11.0-0.36","6311","Ez itt egy csartény. Elneveztem a kutyámat...","0","csarténynak","[""csarténynak"",""csarténynek""]","csarténynek","esp trial","8","false"
"html-button-response","84","538614","0.0-11.0-1.36","null","<p>A másik játékos ezt választotta: <b>csarténynek</b>.</p><p>&#10060;</p><p>A válaszaitok <b>nem</b> egyeznek meg.</p>","null","","","","feedback trial","",""
"html-button-response-esp","85","543051","0.0-11.0-0.37","3936","Ez itt egy licegy. Ott vagyunk a...","1","licegyban","[""licegyben"",""licegyban""]","licegyban","esp trial","8","true"
"html-button-response","86","546572","0.0-11.0-1.37","null","<p>A másik játékos ezt választotta: <b>licegyban</b>.</p><p>&#x2705;</p><p>A te válaszod és a másik játékos válasza <b>megegyeznek</b>.</p>","null","","","","feedback trial","",""
"html-button-response-esp","87","551412","0.0-11.0-0.38","4323","Ez itt egy szutend. Ott vagyunk a...","0","szutendban","[""szutendban"",""szutendben""]","szutendban","esp trial","8","true"
"html-button-response","88","554932","0.0-11.0-1.38","null","<p>A másik játékos ezt választotta: <b>szutendban</b>.</p><p>&#x2705;</p><p>A te válaszod és a másik játékos válasza <b>megegyeznek</b>.</p>","null","","","","feedback trial","",""
"html-button-response-esp","89","559636","0.0-11.0-0.39","4202","Ez itt egy trapszegy. Nincs is jobb egy jó...","1","trapszegynál","[""trapszegynél"",""trapszegynál""]","trapszegynál","esp trial","8","true"
"html-button-response","90","563142","0.0-11.0-1.39","null","<p>A másik játékos ezt választotta: <b>trapszegynál</b>.</p><p>&#x2705;</p><p>A te válaszod és a másik játékos válasza <b>megegyeznek</b>.</p>","null","","","","feedback trial","",""
"html-button-response-esp","91","568580","0.0-11.0-0.40","4935","Ez itt egy kluhéj. Nincs is jobb egy jó...","0","kluhéjnél","[""kluhéjnél"",""kluhéjnál""]","kluhéjnél","esp trial","8","true"
"html-button-response","92","572100","0.0-11.0-1.40","null","<p>A másik játékos ezt választotta: <b>kluhéjnél</b>.</p><p>&#x2705;</p><p>A te válaszod és a másik játékos válasza <b>megegyeznek</b>.</p>","null","","","","feedback trial","",""
"html-button-response-esp","93","579103","0.0-11.0-0.41","6488","Ez itt egy buhény. Ott vagyunk a...","1","buhényben","[""buhényban"",""buhényben""]","buhényben","esp trial","8","true"
"html-button-response","94","582624","0.0-11.0-1.41","null","<p>A másik játékos ezt választotta: <b>buhényben</b>.</p><p>&#x2705;</p><p>A te válaszod és a másik játékos válasza <b>megegyeznek</b>.</p>","null","","","","feedback trial","",""
"html-button-response-esp","95","590286","0.0-11.0-0.42","7158","Ez itt egy brigeszt. Elneveztem a kutyámat...","0","brigesztnak","[""brigesztnak"",""brigesztnek""]","brigesztnak","esp trial","8","true"
"html-button-response","96","593805","0.0-11.0-1.42","null","<p>A másik játékos ezt választotta: <b>brigesztnak</b>.</p><p>&#x2705;</p><p>A te válaszod és a másik játékos válasza <b>megegyeznek</b>.</p>","null","","","","feedback trial","",""
"html-button-response-esp","97","599634","0.0-11.0-0.43","5318","Ez itt egy matéz. Ott vagyunk a...","0","matézban","[""matézban"",""matézben""]","matézben","esp trial","8","false"
"html-button-response","98","603152","0.0-11.0-1.43","null","<p>A másik játékos ezt választotta: <b>matézben</b>.</p><p>&#10060;</p><p>A válaszaitok <b>nem</b> egyeznek meg.</p>","null","","","","feedback trial","",""
"html-button-response-esp","99","616098","0.0-11.0-0.44","12441","Ez itt egy jábéz. Ott vagyunk a...","1","jábézben","[""jábézban"",""jábézben""]","jábézben","esp trial","8","true"
"html-button-response","100","619615","0.0-11.0-1.44","null","<p>A másik játékos ezt választotta: <b>jábézben</b>.</p><p>&#x2705;</p><p>A te válaszod és a másik játékos válasza <b>megegyeznek</b>.</p>","null","","","","feedback trial","",""
"html-button-response-esp","101","625296","0.0-11.0-0.45","5171","Ez itt egy priszkenc. Elneveztem a kutyámat...","1","priszkencnak","[""priszkencnek"",""priszkencnak""]","priszkencnak","esp trial","8","true"
"html-button-response","102","628818","0.0-11.0-1.45","null","<p>A másik játékos ezt választotta: <b>priszkencnak</b>.</p><p>&#x2705;</p><p>A te válaszod és a másik játékos válasza <b>megegyeznek</b>.</p>","null","","","","feedback trial","",""
"html-button-response-esp","103","634082","0.0-11.0-0.46","4754","Ez itt egy navec. Ott vagyunk a...","0","navecben","[""navecben"",""navecban""]","navecban","esp trial","8","false"
"html-button-response","104","637593","0.0-11.0-1.46","null","<p>A másik játékos ezt választotta: <b>navecban</b>.</p><p>&#10060;</p><p>A válaszaitok <b>nem</b> egyeznek meg.</p>","null","","","","feedback trial","",""
"html-button-response-esp","105","641980","0.0-11.0-0.47","3884","Ez itt egy ikszert. Ott vagyunk a...","0","ikszertban","[""ikszertban"",""ikszertben""]","ikszertban","esp trial","8","true"
"html-button-response","106","645498","0.0-11.0-1.47","null","<p>A másik játékos ezt választotta: <b>ikszertban</b>.</p><p>&#x2705;</p><p>A te válaszod és a másik játékos válasza <b>megegyeznek</b>.</p>","null","","","","feedback trial","",""
"html-button-response-esp","107","657035","0.0-11.0-0.48","11033","Ez itt egy nidét. Ott vagyunk a...","1","nidétban","[""nidétben"",""nidétban""]","nidétban","esp trial","8","true"
"html-button-response","108","660555","0.0-11.0-1.48","null","<p>A másik játékos ezt választotta: <b>nidétban</b>.</p><p>&#x2705;</p><p>A te válaszod és a másik játékos válasza <b>megegyeznek</b>.</p>","null","","","","feedback trial","",""
"html-button-response-esp","109","681979","0.0-11.0-0.49","20918","Ez itt egy ronvet. Elneveztem a kutyámat...","1","ronvetnak","[""ronvetnek"",""ronvetnak""]","ronvetnak","esp trial","8","true"
"html-button-response","110","685508","0.0-11.0-1.49","null","<p>A másik játékos ezt választotta: <b>ronvetnak</b>.</p><p>&#x2705;</p><p>A te válaszod és a másik játékos válasza <b>megegyeznek</b>.</p>","null","","","","feedback trial","",""
"html-button-response-esp","111","690724","0.0-11.0-0.50","4698","Ez itt egy lismév. Ott vagyunk a...","0","lismévban","[""lismévban"",""lismévben""]","lismévban","esp trial","8","true"
"html-button-response","112","694243","0.0-11.0-1.50","null","<p>A másik játékos ezt választotta: <b>lismévban</b>.</p><p>&#x2705;</p><p>A te válaszod és a másik játékos válasza <b>megegyeznek</b>.</p>","null","","","","feedback trial","",""
"html-button-response-esp","113","700147","0.0-11.0-0.51","5386","Ez itt egy hivép. Ott vagyunk a...","0","hivépban","[""hivépban"",""hivépben""]","hivépban","esp trial","8","true"
"html-button-response","114","703669","0.0-11.0-1.51","null","<p>A másik játékos ezt választotta: <b>hivépban</b>.</p><p>&#x2705;</p><p>A te válaszod és a másik játékos válasza <b>megegyeznek</b>.</p>","null","","","","feedback trial","",""
"html-button-response-esp","115","709208","0.0-11.0-0.52","5023","Ez itt egy kliszer. Nincs is jobb egy jó...","1","kliszernál","[""kliszernél"",""kliszernál""]","kliszernál","esp trial","8","true"
"html-button-response","116","712726","0.0-11.0-1.52","null","<p>A másik játékos ezt választotta: <b>kliszernál</b>.</p><p>&#x2705;</p><p>A te válaszod és a másik játékos válasza <b>megegyeznek</b>.</p>","null","","","","feedback trial","",""
"html-button-response-esp","117","723428","0.0-11.0-0.53","10199","Ez itt egy sartely. Ott vagyunk a...","1","sartelyban","[""sartelyben"",""sartelyban""]","sartelyban","esp trial","8","true"
"html-button-response","118","726951","0.0-11.0-1.53","null","<p>A másik játékos ezt választotta: <b>sartelyban</b>.</p><p>&#x2705;</p><p>A te válaszod és a másik játékos válasza <b>megegyeznek</b>.</p>","null","","","","feedback trial","",""
"html-button-response","119","739229","0.0-12.0","11762","<p>A közös játék most véget ért.</p><p>Mielőtt eláruljuk a végső pontszámodat, arra kérlek, játszd a szóválasztós játékot néhány percig egyedül is.</p><p>A feladatod ugyanaz lesz, választani két lehetőség közül.</p><p>Most viszont egyedül kell döntened, hogy te melyiket választanád.</p>","0","","","","","",""
"html-button-response-clever","120","747716","0.0-13.0-0.0","7976","Ez itt egy spanél. Nincs is jobb egy jó...","0","spanélnél","[""spanélnél"",""spanélnál""]","","posttest trial","1",""
"html-button-response-clever","121","752984","0.0-13.0-0.1","4762","Ez itt egy klosét. Elneveztem a kutyámat...","1","klosétnek","[""klosétnak"",""klosétnek""]","","posttest trial","1",""
"html-button-response-clever","122","756240","0.0-13.0-0.2","2741","Ez itt egy pítend. Ott vagyunk a...","0","pítendben","[""pítendben"",""pítendban""]","","posttest trial","1",""
"html-button-response-clever","123","759565","0.0-13.0-0.3","2810","Ez itt egy luméz. Ott vagyunk a...","1","lumézban","[""lumézben"",""lumézban""]","","posttest trial","1",""
"html-button-response-clever","124","762259","0.0-13.0-0.4","2180","Ez itt egy narem. Ott vagyunk a...","1","naremben","[""naremban"",""naremben""]","","posttest trial","1",""
"html-button-response-clever","125","767073","0.0-13.0-0.5","4302","Ez itt egy bupéz. Ott vagyunk a...","1","bupézban","[""bupézben"",""bupézban""]","","posttest trial","1",""
"html-button-response-clever","126","770449","0.0-13.0-0.6","2861","Ez itt egy dorzéj. Elneveztem a kutyámat...","1","dorzéjnak","[""dorzéjnek"",""dorzéjnak""]","","posttest trial","1",""
"html-button-response-clever","127","773166","0.0-13.0-0.7","2204","Ez itt egy nyítem. Ott vagyunk a...","1","nyítemben","[""nyítemban"",""nyítemben""]","","posttest trial","1",""
"html-button-response-clever","128","778419","0.0-13.0-0.8","4737","Ez itt egy priszec. Ott vagyunk a...","0","priszecben","[""priszecben"",""priszecban""]","","posttest trial","1",""
"html-button-response-clever","129","782283","0.0-13.0-0.9","3357","Ez itt egy zihenc. Elneveztem a kutyámat...","0","zihencnek","[""zihencnek"",""zihencnak""]","","posttest trial","1",""
"html-button-response-clever","130","784624","0.0-13.0-0.10","1825","Ez itt egy brindez. Elneveztem a kutyámat...","0","brindeznek","[""brindeznek"",""brindeznak""]","","posttest trial","1",""
"html-button-response-clever","131","790616","0.0-13.0-0.11","5480","Ez itt egy danét. Nincs is jobb egy jó...","1","danétnál","[""danétnél"",""danétnál""]","","posttest trial","1",""
"html-button-response-clever","132","796098","0.0-13.0-0.12","4966","Ez itt egy zsádév. Elneveztem a kutyámat...","0","zsádévnek","[""zsádévnek"",""zsádévnak""]","","posttest trial","1",""
"html-button-response-clever","133","802091","0.0-13.0-0.13","5480","Ez itt egy lorzens. Nincs is jobb egy jó...","0","lorzensnál","[""lorzensnál"",""lorzensnél""]","","posttest trial","1",""
"html-button-response-clever","134","804748","0.0-13.0-0.14","2149","Ez itt egy dalenc. Nincs is jobb egy jó...","0","dalencnél","[""dalencnél"",""dalencnál""]","","posttest trial","1",""
"html-button-response-clever","135","808419","0.0-13.0-0.15","3165","Ez itt egy dihely. Elneveztem a kutyámat...","1","dihelynek","[""dihelynak"",""dihelynek""]","","posttest trial","1",""
"html-button-response-clever","136","811792","0.0-13.0-0.16","2863","Ez itt egy vorszen. Nincs is jobb egy jó...","0","vorszennál","[""vorszennál"",""vorszennél""]","","posttest trial","1",""
"html-button-response-clever","137","814581","0.0-13.0-0.17","2273","Ez itt egy kátel. Elneveztem a kutyámat...","0","kátelnek","[""kátelnek"",""kátelnak""]","","posttest trial","1",""
"html-button-response-clever","138","818259","0.0-13.0-0.18","3170","Ez itt egy kaszép. Elneveztem a kutyámat...","1","kaszépnak","[""kaszépnek"",""kaszépnak""]","","posttest trial","1",""
"html-button-response-clever","139","822989","0.0-13.0-0.19","4218","Ez itt egy spábét. Ott vagyunk a...","1","spábétben","[""spábétban"",""spábétben""]","","posttest trial","1",""
"html-button-response-clever","140","826961","0.0-13.0-0.20","3456","Ez itt egy garcép. Nincs is jobb egy jó...","1","garcépnél","[""garcépnál"",""garcépnél""]","","posttest trial","1",""
"html-button-response-clever","141","829434","0.0-13.0-0.21","1965","Ez itt egy zopély. Nincs is jobb egy jó...","0","zopélynél","[""zopélynél"",""zopélynál""]","","posttest trial","1",""
"html-button-response-clever","142","833363","0.0-13.0-0.22","3414","Ez itt egy bralkép. Ott vagyunk a...","1","bralképban","[""bralképben"",""bralképban""]","","posttest trial","1",""
"html-button-response-clever","143","836346","0.0-13.0-0.23","2475","Ez itt egy klingesz. Ott vagyunk a...","0","klingeszben","[""klingeszben"",""klingeszban""]","","posttest trial","1",""
"html-button-response-clever","144","839144","0.0-13.0-0.24","2282","Ez itt egy trájeg. Ott vagyunk a...","0","trájegben","[""trájegben"",""trájegban""]","","posttest trial","1",""
"html-button-response-clever","145","842054","0.0-13.0-0.25","2401","Ez itt egy hágyét. Elneveztem a kutyámat...","0","hágyétnek","[""hágyétnek"",""hágyétnak""]","","posttest trial","1",""
"html-button-response-clever","146","845987","0.0-13.0-0.26","3423","Ez itt egy kalréz. Ott vagyunk a...","0","kalrézban","[""kalrézban"",""kalrézben""]","","posttest trial","1",""
"html-button-response-clever","147","849366","0.0-13.0-0.27","2865","Ez itt egy trismél. Elneveztem a kutyámat...","0","trismélnek","[""trismélnek"",""trismélnak""]","","posttest trial","1",""
"html-button-response-clever","148","852063","0.0-13.0-0.28","2194","Ez itt egy incéj. Elneveztem a kutyámat...","1","incéjnek","[""incéjnak"",""incéjnek""]","","posttest trial","1",""
"html-button-response-clever","149","854713","0.0-13.0-0.29","2134","Ez itt egy pivéd. Ott vagyunk a...","1","pivédben","[""pivédban"",""pivédben""]","","posttest trial","1",""
"html-button-response-clever","150","857324","0.0-13.0-0.30","2098","Ez itt egy tosély. Ott vagyunk a...","1","tosélyban","[""tosélyben"",""tosélyban""]","","posttest trial","1",""
"html-button-response-clever","151","860368","0.0-13.0-0.31","2537","Ez itt egy jóbec. Elneveztem a kutyámat...","0","jóbecnek","[""jóbecnek"",""jóbecnak""]","","posttest trial","1",""
"html-button-response-clever","152","863753","0.0-13.0-0.32","2880","Ez itt egy gúden. Ott vagyunk a...","0","gúdenban","[""gúdenban"",""gúdenben""]","","posttest trial","1",""
"html-button-response-clever","153","867226","0.0-13.0-0.33","2958","Ez itt egy spumény. Elneveztem a kutyámat...","0","spuménynek","[""spuménynek"",""spuménynak""]","","posttest trial","1",""
"html-button-response-clever","154","871362","0.0-13.0-0.34","3627","Ez itt egy pisély. Ott vagyunk a...","1","pisélyben","[""pisélyban"",""pisélyben""]","","posttest trial","1",""
"html-button-response-clever","155","873731","0.0-13.0-0.35","1856","Ez itt egy zsigén. Nincs is jobb egy jó...","0","zsigénnél","[""zsigénnél"",""zsigénnál""]","","posttest trial","1",""
"html-button-response-clever","156","876260","0.0-13.0-0.36","2016","Ez itt egy nyamet. Ott vagyunk a...","0","nyametben","[""nyametben"",""nyametban""]","","posttest trial","1",""
"html-button-response-clever","157","878424","0.0-13.0-0.37","1654","Ez itt egy nyupér. Nincs is jobb egy jó...","0","nyupérnél","[""nyupérnél"",""nyupérnál""]","","posttest trial","1",""
"html-button-response-clever","158","882457","0.0-13.0-0.38","3527","Ez itt egy ronszek. Ott vagyunk a...","1","ronszekben","[""ronszekban"",""ronszekben""]","","posttest trial","1",""
"html-button-response-clever","159","885485","0.0-13.0-0.39","2515","Ez itt egy darhén. Ott vagyunk a...","0","darhénben","[""darhénben"",""darhénban""]","","posttest trial","1",""
"html-button-response-clever","160","890264","0.0-13.0-0.40","4270","Ez itt egy braszenc. Nincs is jobb egy jó...","0","braszencnál","[""braszencnál"",""braszencnél""]","","posttest trial","1",""
"html-button-response-clever","161","894558","0.0-13.0-0.41","3776","Ez itt egy sortem. Nincs is jobb egy jó...","0","sortemnál","[""sortemnál"",""sortemnél""]","","posttest trial","1",""
"html-button-response-clever","162","897006","0.0-13.0-0.42","1937","Ez itt egy fájéz. Ott vagyunk a...","0","fájézben","[""fájézben"",""fájézban""]","","posttest trial","1",""
"html-button-response-clever","163","900205","0.0-13.0-0.43","2688","Ez itt egy pijél. Nincs is jobb egy jó...","1","pijélnél","[""pijélnál"",""pijélnél""]","","posttest trial","1",""
"html-button-response-clever","164","902910","0.0-13.0-0.44","2192","Ez itt egy dábegy. Ott vagyunk a...","1","dábegyben","[""dábegyban"",""dábegyben""]","","posttest trial","1",""
"html-button-response-clever","165","905948","0.0-13.0-0.45","2531","Ez itt egy kalhész. Elneveztem a kutyámat...","0","kalhésznek","[""kalhésznek"",""kalhésznak""]","","posttest trial","1",""
"html-button-response-clever","166","908642","0.0-13.0-0.46","2187","Ez itt egy ítens. Ott vagyunk a...","1","ítensben","[""ítensban"",""ítensben""]","","posttest trial","1",""
"html-button-response-clever","167","911560","0.0-13.0-0.47","2416","Ez itt egy monveg. Nincs is jobb egy jó...","1","monvegnél","[""monvegnál"",""monvegnél""]","","posttest trial","1",""
"html-button-response-clever","168","915472","0.0-13.0-0.48","3398","Ez itt egy jukél. Nincs is jobb egy jó...","0","jukélnél","[""jukélnél"",""jukélnál""]","","posttest trial","1",""
"html-button-response-clever","169","918202","0.0-13.0-0.49","2216","Ez itt egy zsáder. Ott vagyunk a...","0","zsáderben","[""zsáderben"",""zsáderban""]","","posttest trial","1",""
"html-button-response-clever","170","920581","0.0-13.0-0.50","1868","Ez itt egy sprivenc. Nincs is jobb egy jó...","0","sprivencnél","[""sprivencnél"",""sprivencnál""]","","posttest trial","1",""
"html-button-response-clever","171","924559","0.0-13.0-0.51","3476","Ez itt egy spicet. Elneveztem a kutyámat...","1","spicetnek","[""spicetnak"",""spicetnek""]","","posttest trial","1",""
"html-button-response-clever","172","928220","0.0-13.0-0.52","3150","Ez itt egy rapszek. Nincs is jobb egy jó...","0","rapszeknél","[""rapszeknél"",""rapszeknál""]","","posttest trial","1",""
"html-button-response-clever","173","930369","0.0-13.0-0.53","1639","Ez itt egy zsúdel. Elneveztem a kutyámat...","0","zsúdelnek","[""zsúdelnek"",""zsúdelnak""]","","posttest trial","1",""
"html-button-response","174","940253","0.0-14.0","9382","<p> Vége a játéknak. A teljes pontszámod 37/54.</p><p> Szép munka! &#128526;&#128526;&#128526;</p><p>A Befejezés gomb megnyomása után bezárhatod a böngészőablakot.</p>","0","","","","","",""
"html-keyboard-response","175","945772","0.0-15.0","null","<div class=""message"">
         <p>Egy kis türelmet kérünk, amíg elmentjük az adatokat...</p>
         </div>","null","","","","","",""
