"trial_type","trial_index","time_elapsed","internal_node_id","rt","stimulus","response","response_string","choices","esp_response","trial_kind","list_number","esp_match"
"pavlovia","0","473","0.0-0.0","","","","","","","","",""
"html-button-response","1","6630","0.0-1.0","5626","<p>Kedves Résztvevő! A Budapesti Műszaki és Gazdaságtudományi Egyetem Kognitív Tudományi Tanszékének kutatásában való részvételed kérjük. A kutatásban azt vizsgáljuk, hogy a magyar anyanyelvűek hogyan használnak bizonyos szóalakokat, és hogy milyen képük van arról, hogy mások hogyan használják, hogyan képzik a szavakat. Ez hozzásegít bennünket ahhoz, hogy jobban megértsük, hogyan dolgozza fel és tárolja a nyelvet az emberi agy, és hogyan működnek, hogyan változnak egy adott közösség nyelvi konvenciói.</p><p>A vizsgálat egy rövid számítógépes feladatból fog állni. A kutatásban való részvétel önkéntes, a részvételi szándék bármikor visszavonható. A résztvevők eredményeit név nélkül kezeljük, így nem beazonosíthatók az adatok feldolgozása során. Minden személyes adatot az EU általános adatvédelmi rendeletének (GDPR) megfelelően kezelünk és legfeljebb öt éven belül megsemmisítünk. A vizsgálat jellemzően húsz percet vesz igénybe.</p><p>Kutatásvezető:</p><p>Dr. Rácz Péter, tudományos munkatárs, BME KTT</p><p>e-mail: racz.peter.marton@ttk.bme.hu</p>","0","","","","","",""
"html-button-response","2","30210","0.0-2.0","23069","<p>A kísérletben szavakat fogsz látni. Ezek között lesznek olyanok, amelyeket ismersz, de előfordulhatnak olyanok is, amelyeket nem ismersz, sőt, vannak köztük kitalált szavak is. Minden szónál látni fogsz toldalékolt alakokat. A te feladatod az lesz, hogy minden szóhoz kiválaszd azt a toldalékolt alakot, amely a te számodra ismerősebben, természetesebben hangzik. Rossz válaszok nincsenek, mert van olyan, hogy különböző embereknek más és más szó tűnik jobb választásnak. A választ úgy tudod majd kiválasztani, ha rákattintasz.</p><p>Ebben a szóválasztós játékban egy másik játékossal együtt veszel majd részt. A másik játékos is minden esetben azok közül a lehetőségek közül válogathat, mint te. Kettőtök feladata az, hogy ugyanazt a lehetőséget válasszátok minden esetben. Ahhoz, hogy ez sikerüljön, neked figyelned kell arra, hogy a másik játékos milyen válaszokat ad, és ennek alapján meg kell tippelned, hogyan választ legközelebb. Ha eltalálod, akkor pontot kapsz.</p>","0","","","","","",""
"html-button-response","3","46424","0.0-3.0","15702","<p>Kérjük, olvasd el az alábbi nyilatkozatot, és amennyiben egyetértesz vele, nyomj a Beleegyezés gombra!</p><p>Kijelentem, hogy magyar anyanyelvű személyként önként veszek részt a BME KTT kísérletében. A kutatás céljával és folyamatával kapcsolatban elegendő tájékoztatást kaptam, lehetőségem volt kérdések feltételére, és esetleges kérdéseimre megfelelő válaszokat kaptam. A tájékoztatás alapján elegendő mennyiségű információ áll a rendelkezésemre, hogy eldönthessem, részt kívánok-e venni a kutatásban.</p><p>Tisztában vagyok vele, hogy részvételi szándékomat és adataimat bármikor, indoklás nélkül visszavonhatom.</p><p>Értem és tudomásul veszem, hogy a kutatás tudományos célokat szolgál, és az általam szolgáltatott adatokat a BME kizárólag kutatási célból használja fel. Tudomásul veszem, hogy eredményeimet a többi résztvevő eredményeivel együtt kezelik, így egyéni teljesítményemről visszajelzést, szakvéleményt nem kapok.</p><p>Megértettem, hogy adataim kezelését illetően a BME az EU általános adatvédelmi rendelete (GDPR), a hatályos adatvédelmi törvény és a nemzetközi kutatás-etikai alapelvek szerint jár el. Eredményeim anonim módon kerülnek feldolgozásra, és a kutatás résztvevői az azonosításomra alkalmas adataimat harmadik félnek nem szolgáltatják ki. Engedélyezem a BME számára a jelen kutatásban felvett adataim feldolgozását és tárolását, beleértve azok későbbi kutatásokhoz való felhasználását is. Személyes adataim kezelésével kapcsolatban tájékoztatást kérhetek a kutatás résztvevőitől, az adatkezelés ellen tiltakozhatok, kérhetem személyes adataim helyesbítését, törlését vagy zárolását, valamint jogorvoslatért a Nemzeti Adatvédelmi és Információszabadság Hatósághoz fordulhatok.</p><p>Kijelentem, hogy a kutatásban való részvételem körülményeiről részletes tájékoztatást kaptam, és a feltételeket elfogadom.</p>","0","","","","","",""
"survey-text","4","65587","0.0-4.0","18648","","{""Q0"":""MHY664"",""Q1"":""férfi"",""Q2"":""2001"",""Q3"":""15""}","","","","","",""
"html-button-response","5","85567","0.0-5.0","19465","<p>Ebben a játékban szavakat kell toldalékolni.</p> <p>Minden körben mutatunk majd egy példamondatot, amiben lesz egy szó.</p> <p>Alatta jön egy második mondat, ezt a mondatot neked kell majd befejezni, ugyanezzel a szóval.</p> <p>Nem biztos, hogy a szó eleve ismerős lesz számodra!</p> <p>Minden mondathoz adunk két lehetőséget, ezeket balra és jobbra látod majd.</p> <p>A játék kb. negyedóráig-húsz percig tart.</p>","0","","","","","",""
"html-button-response","6","94782","0.0-6.0","8702","<p>Nézzünk egy példát!</p> <p>A példamondat: ""Ez itt egy blumbnyeg.""</p><p>Neked ezt a mondatot kell befejezned: ""Ott vagyunk a...""</p><p>A lehetőségek pedig ezek:</p>","0","","","","","",""
"html-button-response","7","99350","0.0-7.0","4054","<p>Nagyon jó.</p><p>Ezt a játékot nem egyedül fogod játszani, hanem egy másik játékossal.</p><p>Mielőtt továbblépünk, összekapcsolunk titeket egymással.</p><p>Ez igénybe vehet néhány másodpercet, amihez szíves türelmed kérjük.</p>","0","","","","","",""
"html-button-response","8","105080","0.0-8.0","null","<p>Csatlakozás a másik játékoshoz...</p>","null","","","","","",""
"html-button-response","9","107591","0.0-9.0","null","<p> Sikeres kapcsolódás!</p>","null","","","","","",""
"html-button-response","10","118944","0.0-10.0","null","<p>A következőkben ketten játsszátok a szóválasztós játékot.</p><p>A feladatotok az lesz, hogy minden körben <b>ugyanazt</b> a szót válasszátok.</p><p>Minden ilyen egyező válaszért pontot kaptok.</p><p>Próbáld meg kitalálni, mit választ a másik játékos!</p><p>Bármikor választhatsz, a körnek akkor van vége, ha mindketten döntöttetek.</p><p>Sok sikert!</p>","null","","","","","",""
"html-button-response-esp","11","123843","0.0-11.0-0.0","4394","Ez itt egy klítegy. Nincs is jobb egy jó...","1","klítegynél","[""klítegynál"",""klítegynél""]","klítegynál","esp trial","4","false"
"html-button-response","12","127356","0.0-11.0-1.0","null","<p>A másik játékos ezt választotta: <b>klítegynál</b>.</p><p>&#10060;</p><p>A válaszaitok <b>nem</b> egyeznek meg.</p>","null","","","","feedback trial","",""
"html-button-response-esp","13","131984","0.0-11.0-0.1","2811","Ez itt egy csublény. Ott vagyunk a...","1","csublényban","[""csublényben"",""csublényban""]","csublényben","esp trial","4","false"
"html-button-response","14","135510","0.0-11.0-1.1","null","<p>A másik játékos ezt választotta: <b>csublényben</b>.</p><p>&#10060;</p><p>A válaszaitok <b>nem</b> egyeznek meg.</p>","null","","","","feedback trial","",""
"html-button-response-esp","15","140186","0.0-11.0-0.2","4162","Ez itt egy lihény. Elneveztem a kutyámat...","0","lihénynak","[""lihénynak"",""lihénynek""]","lihénynak","esp trial","4","true"
"html-button-response","16","143701","0.0-11.0-1.2","null","<p>A másik játékos ezt választotta: <b>lihénynak</b>.</p><p>&#x2705;</p><p>A te válaszod és a másik játékos válasza <b>megegyeznek</b>.</p>","null","","","","feedback trial","",""
"html-button-response-esp","17","148331","0.0-11.0-0.3","3899","Ez itt egy csodeg. Nincs is jobb egy jó...","1","csodegnél","[""csodegnál"",""csodegnél""]","csodegnál","esp trial","4","false"
"html-button-response","18","151844","0.0-11.0-1.3","null","<p>A másik játékos ezt választotta: <b>csodegnál</b>.</p><p>&#10060;</p><p>A válaszaitok <b>nem</b> egyeznek meg.</p>","null","","","","feedback trial","",""
"html-button-response-esp","19","156473","0.0-11.0-0.4","2738","Ez itt egy lijez. Elneveztem a kutyámat...","1","lijeznak","[""lijeznek"",""lijeznak""]","lijeznak","esp trial","4","true"
"html-button-response","20","160101","0.0-11.0-1.4","null","<p>A másik játékos ezt választotta: <b>lijeznak</b>.</p><p>&#x2705;</p><p>A te válaszod és a másik játékos válasza <b>megegyeznek</b>.</p>","null","","","","feedback trial","",""
"html-button-response-esp","21","164736","0.0-11.0-0.5","2218","Ez itt egy pazév. Nincs is jobb egy jó...","1","pazévnál","[""pazévnél"",""pazévnál""]","pazévnél","esp trial","4","false"
"html-button-response","22","168248","0.0-11.0-1.5","null","<p>A másik játékos ezt választotta: <b>pazévnél</b>.</p><p>&#10060;</p><p>A válaszaitok <b>nem</b> egyeznek meg.</p>","null","","","","feedback trial","",""
"html-button-response-esp","23","172873","0.0-11.0-0.6","4108","Ez itt egy vodec. Nincs is jobb egy jó...","0","vodecnél","[""vodecnél"",""vodecnál""]","vodecnál","esp trial","4","false"
"html-button-response","24","176397","0.0-11.0-1.6","null","<p>A másik játékos ezt választotta: <b>vodecnál</b>.</p><p>&#10060;</p><p>A válaszaitok <b>nem</b> egyeznek meg.</p>","null","","","","feedback trial","",""
"html-button-response-esp","25","181025","0.0-11.0-0.7","2164","Ez itt egy zsalrén. Elneveztem a kutyámat...","1","zsalrénnak","[""zsalrénnek"",""zsalrénnak""]","zsalrénnak","esp trial","4","true"
"html-button-response","26","184538","0.0-11.0-1.7","null","<p>A másik játékos ezt választotta: <b>zsalrénnak</b>.</p><p>&#x2705;</p><p>A te válaszod és a másik játékos válasza <b>megegyeznek</b>.</p>","null","","","","feedback trial","",""
"html-button-response-esp","27","189155","0.0-11.0-0.8","3316","Ez itt egy nuhét. Nincs is jobb egy jó...","0","nuhétnál","[""nuhétnál"",""nuhétnél""]","nuhétnál","esp trial","4","true"
"html-button-response","28","192684","0.0-11.0-1.8","null","<p>A másik játékos ezt választotta: <b>nuhétnál</b>.</p><p>&#x2705;</p><p>A te válaszod és a másik játékos válasza <b>megegyeznek</b>.</p>","null","","","","feedback trial","",""
"html-button-response-esp","29","197693","0.0-11.0-0.9","1708","Ez itt egy dóbem. Elneveztem a kutyámat...","0","dóbemnak","[""dóbemnak"",""dóbemnek""]","dóbemnak","esp trial","4","true"
"html-button-response","30","201202","0.0-11.0-1.9","null","<p>A másik játékos ezt választotta: <b>dóbemnak</b>.</p><p>&#x2705;</p><p>A te válaszod és a másik játékos válasza <b>megegyeznek</b>.</p>","null","","","","feedback trial","",""
"html-button-response-esp","31","205821","0.0-11.0-0.10","1292","Ez itt egy cságyelt. Ott vagyunk a...","0","cságyeltban","[""cságyeltban"",""cságyeltben""]","cságyeltban","esp trial","4","true"
"html-button-response","32","209326","0.0-11.0-1.10","null","<p>A másik játékos ezt választotta: <b>cságyeltban</b>.</p><p>&#x2705;</p><p>A te válaszod és a másik játékos válasza <b>megegyeznek</b>.</p>","null","","","","feedback trial","",""
"html-button-response-esp","33","213950","0.0-11.0-0.11","2009","Ez itt egy dutec. Nincs is jobb egy jó...","0","dutecnál","[""dutecnál"",""dutecnél""]","dutecnál","esp trial","4","true"
"html-button-response","34","217809","0.0-11.0-1.11","null","<p>A másik játékos ezt választotta: <b>dutecnál</b>.</p><p>&#x2705;</p><p>A te válaszod és a másik játékos válasza <b>megegyeznek</b>.</p>","null","","","","feedback trial","",""
"html-button-response-esp","35","222435","0.0-11.0-0.12","1456","Ez itt egy spatel. Elneveztem a kutyámat...","0","spatelnek","[""spatelnek"",""spatelnak""]","spatelnak","esp trial","4","false"
"html-button-response","36","225946","0.0-11.0-1.12","null","<p>A másik játékos ezt választotta: <b>spatelnak</b>.</p><p>&#10060;</p><p>A válaszaitok <b>nem</b> egyeznek meg.</p>","null","","","","feedback trial","",""
"html-button-response-esp","37","230563","0.0-11.0-0.13","1149","Ez itt egy pristél. Ott vagyunk a...","0","pristélban","[""pristélban"",""pristélben""]","pristélban","esp trial","4","true"
"html-button-response","38","234079","0.0-11.0-1.13","null","<p>A másik játékos ezt választotta: <b>pristélban</b>.</p><p>&#x2705;</p><p>A te válaszod és a másik játékos válasza <b>megegyeznek</b>.</p>","null","","","","feedback trial","",""
"html-button-response-esp","39","238736","0.0-11.0-0.14","1590","Ez itt egy fágyép. Nincs is jobb egy jó...","1","fágyépnál","[""fágyépnél"",""fágyépnál""]","fágyépnél","esp trial","4","false"
"html-button-response","40","242267","0.0-11.0-1.14","null","<p>A másik játékos ezt választotta: <b>fágyépnél</b>.</p><p>&#10060;</p><p>A válaszaitok <b>nem</b> egyeznek meg.</p>","null","","","","feedback trial","",""
"html-button-response-esp","41","247148","0.0-11.0-0.15","3070","Ez itt egy murdes. Nincs is jobb egy jó...","0","murdesnál","[""murdesnál"",""murdesnél""]","murdesnál","esp trial","4","true"
"html-button-response","42","250764","0.0-11.0-1.15","null","<p>A másik játékos ezt választotta: <b>murdesnál</b>.</p><p>&#x2705;</p><p>A te válaszod és a másik játékos válasza <b>megegyeznek</b>.</p>","null","","","","feedback trial","",""
"html-button-response-esp","43","255777","0.0-11.0-0.16","2635","Ez itt egy szanéj. Elneveztem a kutyámat...","1","szanéjnak","[""szanéjnek"",""szanéjnak""]","szanéjnek","esp trial","4","false"
"html-button-response","44","259280","0.0-11.0-1.16","null","<p>A másik játékos ezt választotta: <b>szanéjnek</b>.</p><p>&#10060;</p><p>A válaszaitok <b>nem</b> egyeznek meg.</p>","null","","","","feedback trial","",""
"html-button-response-esp","45","263916","0.0-11.0-0.17","2962","Ez itt egy vismer. Nincs is jobb egy jó...","0","vismernál","[""vismernál"",""vismernél""]","vismernál","esp trial","4","true"
"html-button-response","46","267429","0.0-11.0-1.17","null","<p>A másik játékos ezt választotta: <b>vismernál</b>.</p><p>&#x2705;</p><p>A te válaszod és a másik játékos válasza <b>megegyeznek</b>.</p>","null","","","","feedback trial","",""
"html-button-response-esp","47","272440","0.0-11.0-0.18","2152","Ez itt egy vurnel. Elneveztem a kutyámat...","0","vurnelnak","[""vurnelnak"",""vurnelnek""]","vurnelnak","esp trial","4","true"
"html-button-response","48","275955","0.0-11.0-1.18","null","<p>A másik játékos ezt választotta: <b>vurnelnak</b>.</p><p>&#x2705;</p><p>A te válaszod és a másik játékos válasza <b>megegyeznek</b>.</p>","null","","","","feedback trial","",""
"html-button-response-esp","49","280583","0.0-11.0-0.19","2496","Ez itt egy fupét. Nincs is jobb egy jó...","1","fupétnál","[""fupétnél"",""fupétnál""]","fupétnál","esp trial","4","true"
"html-button-response","50","284101","0.0-11.0-1.19","null","<p>A másik játékos ezt választotta: <b>fupétnál</b>.</p><p>&#x2705;</p><p>A te válaszod és a másik játékos válasza <b>megegyeznek</b>.</p>","null","","","","feedback trial","",""
"html-button-response-esp","51","288721","0.0-11.0-0.20","1251","Ez itt egy dibez. Ott vagyunk a...","1","dibezban","[""dibezben"",""dibezban""]","dibezban","esp trial","4","true"
"html-button-response","52","292599","0.0-11.0-1.20","null","<p>A másik játékos ezt választotta: <b>dibezban</b>.</p><p>&#x2705;</p><p>A te válaszod és a másik játékos válasza <b>megegyeznek</b>.</p>","null","","","","feedback trial","",""
"html-button-response-esp","53","297222","0.0-11.0-0.21","1831","Ez itt egy sihen. Nincs is jobb egy jó...","0","sihennál","[""sihennál"",""sihennél""]","sihennál","esp trial","4","true"
"html-button-response","54","300733","0.0-11.0-1.21","null","<p>A másik játékos ezt választotta: <b>sihennál</b>.</p><p>&#x2705;</p><p>A te válaszod és a másik játékos válasza <b>megegyeznek</b>.</p>","null","","","","feedback trial","",""
"html-button-response-esp","55","305351","0.0-11.0-0.22","2085","Ez itt egy kátéd. Nincs is jobb egy jó...","1","kátédnál","[""kátédnél"",""kátédnál""]","kátédnél","esp trial","4","false"
"html-button-response","56","308864","0.0-11.0-1.22","null","<p>A másik játékos ezt választotta: <b>kátédnél</b>.</p><p>&#10060;</p><p>A válaszaitok <b>nem</b> egyeznek meg.</p>","null","","","","feedback trial","",""
"html-button-response-esp","57","313495","0.0-11.0-0.23","1687","Ez itt egy fizend. Ott vagyunk a...","1","fizendban","[""fizendben"",""fizendban""]","fizendban","esp trial","4","true"
"html-button-response","58","317013","0.0-11.0-1.23","null","<p>A másik játékos ezt választotta: <b>fizendban</b>.</p><p>&#x2705;</p><p>A te válaszod és a másik játékos válasza <b>megegyeznek</b>.</p>","null","","","","feedback trial","",""
"html-button-response-esp","59","321641","0.0-11.0-0.24","1811","Ez itt egy hosét. Elneveztem a kutyámat...","1","hosétnak","[""hosétnek"",""hosétnak""]","hosétnek","esp trial","4","false"
"html-button-response","60","325513","0.0-11.0-1.24","null","<p>A másik játékos ezt választotta: <b>hosétnek</b>.</p><p>&#10060;</p><p>A válaszaitok <b>nem</b> egyeznek meg.</p>","null","","","","feedback trial","",""
"html-button-response-esp","61","330131","0.0-11.0-0.25","2127","Ez itt egy jutély. Nincs is jobb egy jó...","0","jutélynál","[""jutélynál"",""jutélynél""]","jutélynél","esp trial","4","false"
"html-button-response","62","333943","0.0-11.0-1.25","null","<p>A másik játékos ezt választotta: <b>jutélynél</b>.</p><p>&#10060;</p><p>A válaszaitok <b>nem</b> egyeznek meg.</p>","null","","","","feedback trial","",""
"html-button-response-esp","63","338559","0.0-11.0-0.26","1351","Ez itt egy tivenc. Ott vagyunk a...","1","tivencben","[""tivencban"",""tivencben""]","tivencban","esp trial","4","false"
"html-button-response","64","342072","0.0-11.0-1.26","null","<p>A másik játékos ezt választotta: <b>tivencban</b>.</p><p>&#10060;</p><p>A válaszaitok <b>nem</b> egyeznek meg.</p>","null","","","","feedback trial","",""
"html-button-response-esp","65","346700","0.0-11.0-0.27","2925","Ez itt egy dinelt. Ott vagyunk a...","1","dineltban","[""dineltben"",""dineltban""]","dineltban","esp trial","4","true"
"html-button-response","66","350571","0.0-11.0-1.27","null","<p>A másik játékos ezt választotta: <b>dineltban</b>.</p><p>&#x2705;</p><p>A te válaszod és a másik játékos válasza <b>megegyeznek</b>.</p>","null","","","","feedback trial","",""
"html-button-response-esp","67","355188","0.0-11.0-0.28","1610","Ez itt egy lingék. Nincs is jobb egy jó...","0","lingéknál","[""lingéknál"",""lingéknél""]","lingéknál","esp trial","4","true"
"html-button-response","68","358712","0.0-11.0-1.28","null","<p>A másik játékos ezt választotta: <b>lingéknál</b>.</p><p>&#x2705;</p><p>A te válaszod és a másik játékos válasza <b>megegyeznek</b>.</p>","null","","","","feedback trial","",""
"html-button-response-esp","69","363343","0.0-11.0-0.29","1937","Ez itt egy gábéd. Nincs is jobb egy jó...","1","gábédnál","[""gábédnél"",""gábédnál""]","gábédnél","esp trial","4","false"
"html-button-response","70","367225","0.0-11.0-1.29","null","<p>A másik játékos ezt választotta: <b>gábédnél</b>.</p><p>&#10060;</p><p>A válaszaitok <b>nem</b> egyeznek meg.</p>","null","","","","feedback trial","",""
"html-button-response-esp","71","371859","0.0-11.0-0.30","1373","Ez itt egy spizec. Elneveztem a kutyámat...","0","spizecnak","[""spizecnak"",""spizecnek""]","spizecnak","esp trial","4","true"
"html-button-response","72","375384","0.0-11.0-1.30","null","<p>A másik játékos ezt választotta: <b>spizecnak</b>.</p><p>&#x2705;</p><p>A te válaszod és a másik játékos válasza <b>megegyeznek</b>.</p>","null","","","","feedback trial","",""
"html-button-response-esp","73","380005","0.0-11.0-0.31","1803","Ez itt egy zined. Elneveztem a kutyámat...","1","zinednak","[""zinednek"",""zinednak""]","zinednak","esp trial","4","true"
"html-button-response","74","383523","0.0-11.0-1.31","null","<p>A másik játékos ezt választotta: <b>zinednak</b>.</p><p>&#x2705;</p><p>A te válaszod és a másik játékos válasza <b>megegyeznek</b>.</p>","null","","","","feedback trial","",""
"html-button-response-esp","75","388156","0.0-11.0-0.32","1208","Ez itt egy dunkész. Ott vagyunk a...","1","dunkészban","[""dunkészben"",""dunkészban""]","dunkészben","esp trial","4","false"
"html-button-response","76","391667","0.0-11.0-1.32","null","<p>A másik játékos ezt választotta: <b>dunkészben</b>.</p><p>&#10060;</p><p>A válaszaitok <b>nem</b> egyeznek meg.</p>","null","","","","feedback trial","",""
"html-button-response-esp","77","396294","0.0-11.0-0.33","1675","Ez itt egy tarhéz. Ott vagyunk a...","1","tarhézban","[""tarhézben"",""tarhézban""]","tarhézben","esp trial","4","false"
"html-button-response","78","400165","0.0-11.0-1.33","null","<p>A másik játékos ezt választotta: <b>tarhézben</b>.</p><p>&#10060;</p><p>A válaszaitok <b>nem</b> egyeznek meg.</p>","null","","","","feedback trial","",""
"html-button-response-esp","79","404875","0.0-11.0-0.34","1317","Ez itt egy trikép. Ott vagyunk a...","0","triképban","[""triképban"",""triképben""]","triképban","esp trial","4","true"
"html-button-response","80","408385","0.0-11.0-1.34","null","<p>A másik játékos ezt választotta: <b>triképban</b>.</p><p>&#x2705;</p><p>A te válaszod és a másik játékos válasza <b>megegyeznek</b>.</p>","null","","","","feedback trial","",""
"html-button-response-esp","81","413003","0.0-11.0-0.35","1740","Ez itt egy zatéj. Nincs is jobb egy jó...","1","zatéjnál","[""zatéjnél"",""zatéjnál""]","zatéjnál","esp trial","4","true"
"html-button-response","82","416515","0.0-11.0-1.35","null","<p>A másik játékos ezt választotta: <b>zatéjnál</b>.</p><p>&#x2705;</p><p>A te válaszod és a másik játékos válasza <b>megegyeznek</b>.</p>","null","","","","feedback trial","",""
"html-button-response-esp","83","421126","0.0-11.0-0.36","1682","Ez itt egy spivél. Elneveztem a kutyámat...","1","spivélnak","[""spivélnek"",""spivélnak""]","spivélnak","esp trial","4","true"
"html-button-response","84","424639","0.0-11.0-1.36","null","<p>A másik játékos ezt választotta: <b>spivélnak</b>.</p><p>&#x2705;</p><p>A te válaszod és a másik játékos válasza <b>megegyeznek</b>.</p>","null","","","","feedback trial","",""
"html-button-response-esp","85","429258","0.0-11.0-0.37","1617","Ez itt egy bingéj. Elneveztem a kutyámat...","0","bingéjnak","[""bingéjnak"",""bingéjnek""]","bingéjnak","esp trial","4","true"
"html-button-response","86","432776","0.0-11.0-1.37","null","<p>A másik játékos ezt választotta: <b>bingéjnak</b>.</p><p>&#x2705;</p><p>A te válaszod és a másik játékos válasza <b>megegyeznek</b>.</p>","null","","","","feedback trial","",""
"html-button-response-esp","87","437399","0.0-11.0-0.38","1630","Ez itt egy klazér. Ott vagyunk a...","1","klazérban","[""klazérben"",""klazérban""]","klazérben","esp trial","4","false"
"html-button-response","88","441278","0.0-11.0-1.38","null","<p>A másik játékos ezt választotta: <b>klazérben</b>.</p><p>&#10060;</p><p>A válaszaitok <b>nem</b> egyeznek meg.</p>","null","","","","feedback trial","",""
"html-button-response-esp","89","446257","0.0-11.0-0.39","2473","Ez itt egy klajrén. Elneveztem a kutyámat...","1","klajrénnak","[""klajrénnek"",""klajrénnak""]","klajrénnek","esp trial","4","false"
"html-button-response","90","449776","0.0-11.0-1.39","null","<p>A másik játékos ezt választotta: <b>klajrénnek</b>.</p><p>&#10060;</p><p>A válaszaitok <b>nem</b> egyeznek meg.</p>","null","","","","feedback trial","",""
"html-button-response-esp","91","454392","0.0-11.0-0.40","3239","Ez itt egy zábény. Elneveztem a kutyámat...","0","zábénynak","[""zábénynak"",""zábénynek""]","zábénynak","esp trial","4","true"
"html-button-response","92","457912","0.0-11.0-1.40","null","<p>A másik játékos ezt választotta: <b>zábénynak</b>.</p><p>&#x2705;</p><p>A te válaszod és a másik játékos válasza <b>megegyeznek</b>.</p>","null","","","","feedback trial","",""
"html-button-response-esp","93","462602","0.0-11.0-0.41","4081","Ez itt egy humék. Elneveztem a kutyámat...","1","huméknak","[""huméknek"",""huméknak""]","huméknek","esp trial","4","false"
"html-button-response","94","466124","0.0-11.0-1.41","null","<p>A másik játékos ezt választotta: <b>huméknek</b>.</p><p>&#10060;</p><p>A válaszaitok <b>nem</b> egyeznek meg.</p>","null","","","","feedback trial","",""
"html-button-response-esp","95","470745","0.0-11.0-0.42","3019","Ez itt egy jurdent. Nincs is jobb egy jó...","0","jurdentnél","[""jurdentnél"",""jurdentnál""]","jurdentnál","esp trial","4","false"
"html-button-response","96","474268","0.0-11.0-1.42","null","<p>A másik játékos ezt választotta: <b>jurdentnál</b>.</p><p>&#10060;</p><p>A válaszaitok <b>nem</b> egyeznek meg.</p>","null","","","","feedback trial","",""
"html-button-response-esp","97","478893","0.0-11.0-0.43","2823","Ez itt egy mádép. Nincs is jobb egy jó...","0","mádépnál","[""mádépnál"",""mádépnél""]","mádépnél","esp trial","4","false"
"html-button-response","98","482759","0.0-11.0-1.43","null","<p>A másik játékos ezt választotta: <b>mádépnél</b>.</p><p>&#10060;</p><p>A válaszaitok <b>nem</b> egyeznek meg.</p>","null","","","","feedback trial","",""
"html-button-response-esp","99","487389","0.0-11.0-0.44","1744","Ez itt egy dajrens. Nincs is jobb egy jó...","1","dajrensnál","[""dajrensnél"",""dajrensnál""]","dajrensnál","esp trial","4","true"
"html-button-response","100","490899","0.0-11.0-1.44","null","<p>A másik játékos ezt választotta: <b>dajrensnál</b>.</p><p>&#x2705;</p><p>A te válaszod és a másik játékos válasza <b>megegyeznek</b>.</p>","null","","","","feedback trial","",""
"html-button-response-esp","101","495604","0.0-11.0-0.45","2186","Ez itt egy trodély. Ott vagyunk a...","1","trodélyban","[""trodélyben"",""trodélyban""]","trodélyben","esp trial","4","false"
"html-button-response","102","499289","0.0-11.0-1.45","null","<p>A másik játékos ezt választotta: <b>trodélyben</b>.</p><p>&#10060;</p><p>A válaszaitok <b>nem</b> egyeznek meg.</p>","null","","","","feedback trial","",""
"html-button-response-esp","103","504297","0.0-11.0-0.46","1515","Ez itt egy fojlegy. Elneveztem a kutyámat...","1","fojlegynak","[""fojlegynek"",""fojlegynak""]","fojlegynak","esp trial","4","true"
"html-button-response","104","507802","0.0-11.0-1.46","null","<p>A másik játékos ezt választotta: <b>fojlegynak</b>.</p><p>&#x2705;</p><p>A te válaszod és a másik játékos válasza <b>megegyeznek</b>.</p>","null","","","","feedback trial","",""
"html-button-response-esp","105","512428","0.0-11.0-0.47","1714","Ez itt egy zarcég. Nincs is jobb egy jó...","1","zarcégnál","[""zarcégnél"",""zarcégnál""]","zarcégnál","esp trial","4","true"
"html-button-response","106","515938","0.0-11.0-1.47","null","<p>A másik játékos ezt választotta: <b>zarcégnál</b>.</p><p>&#x2705;</p><p>A te válaszod és a másik játékos válasza <b>megegyeznek</b>.</p>","null","","","","feedback trial","",""
"html-button-response-esp","107","520558","0.0-11.0-0.48","1244","Ez itt egy zuten. Nincs is jobb egy jó...","1","zutennál","[""zutennél"",""zutennál""]","zutennál","esp trial","4","true"
"html-button-response","108","524075","0.0-11.0-1.48","null","<p>A másik játékos ezt választotta: <b>zutennál</b>.</p><p>&#x2705;</p><p>A te válaszod és a másik játékos válasza <b>megegyeznek</b>.</p>","null","","","","feedback trial","",""
"html-button-response-esp","109","528702","0.0-11.0-0.49","987","Ez itt egy szibed. Ott vagyunk a...","1","szibedban","[""szibedben"",""szibedban""]","szibedban","esp trial","4","true"
"html-button-response","110","532204","0.0-11.0-1.49","null","<p>A másik játékos ezt választotta: <b>szibedban</b>.</p><p>&#x2705;</p><p>A te válaszod és a másik játékos válasza <b>megegyeznek</b>.</p>","null","","","","feedback trial","",""
"html-button-response-esp","111","536832","0.0-11.0-0.50","1067","Ez itt egy tumély. Nincs is jobb egy jó...","1","tumélynál","[""tumélynél"",""tumélynál""]","tumélynál","esp trial","4","true"
"html-button-response","112","540717","0.0-11.0-1.50","null","<p>A másik játékos ezt választotta: <b>tumélynál</b>.</p><p>&#x2705;</p><p>A te válaszod és a másik játékos válasza <b>megegyeznek</b>.</p>","null","","","","feedback trial","",""
"html-button-response-esp","113","545336","0.0-11.0-0.51","1997","Ez itt egy surnegy. Nincs is jobb egy jó...","1","surnegynél","[""surnegynál"",""surnegynél""]","surnegynál","esp trial","4","false"
"html-button-response","114","548852","0.0-11.0-1.51","null","<p>A másik játékos ezt választotta: <b>surnegynál</b>.</p><p>&#10060;</p><p>A válaszaitok <b>nem</b> egyeznek meg.</p>","null","","","","feedback trial","",""
"html-button-response-esp","115","553479","0.0-11.0-0.52","1413","Ez itt egy briskéd. Nincs is jobb egy jó...","0","briskédnál","[""briskédnál"",""briskédnél""]","briskédnál","esp trial","4","true"
"html-button-response","116","556986","0.0-11.0-1.52","null","<p>A másik játékos ezt választotta: <b>briskédnál</b>.</p><p>&#x2705;</p><p>A te válaszod és a másik játékos válasza <b>megegyeznek</b>.</p>","null","","","","feedback trial","",""
"html-button-response-esp","117","561615","0.0-11.0-0.53","1736","Ez itt egy hijegy. Nincs is jobb egy jó...","1","hijegynál","[""hijegynél"",""hijegynál""]","hijegynál","esp trial","4","true"
"html-button-response","118","565119","0.0-11.0-1.53","null","<p>A másik játékos ezt választotta: <b>hijegynál</b>.</p><p>&#x2705;</p><p>A te válaszod és a másik játékos válasza <b>megegyeznek</b>.</p>","null","","","","feedback trial","",""
"html-button-response","119","573442","0.0-12.0","7818","<p>A közös játék most véget ért.</p><p>Mielőtt eláruljuk a végső pontszámodat, arra kérlek, játszd a szóválasztós játékot néhány percig egyedül is.</p><p>A feladatod ugyanaz lesz, választani két lehetőség közül.</p><p>Most viszont egyedül kell döntened, hogy te melyiket választanád.</p>","0","","","","","",""
"html-button-response-clever","120","579861","0.0-13.0-0.0","5905","Ez itt egy buhény. Ott vagyunk a...","1","buhényben","[""buhényban"",""buhényben""]","","posttest trial","8",""
"html-button-response-clever","121","583539","0.0-13.0-0.1","3162","Ez itt egy bidem. Ott vagyunk a...","1","bidemben","[""bidemban"",""bidemben""]","","posttest trial","8",""
"html-button-response-clever","122","587845","0.0-13.0-0.2","3793","Ez itt egy lismév. Ott vagyunk a...","1","lismévben","[""lismévban"",""lismévben""]","","posttest trial","8",""
"html-button-response-clever","123","589916","0.0-13.0-0.3","1557","Ez itt egy júder. Elneveztem a kutyámat...","1","júdernek","[""júdernak"",""júdernek""]","","posttest trial","8",""
"html-button-response-clever","124","594853","0.0-13.0-0.4","4421","Ez itt egy jorzég. Elneveztem a kutyámat...","1","jorzégnek","[""jorzégnak"",""jorzégnek""]","","posttest trial","8",""
"html-button-response-clever","125","599798","0.0-13.0-0.5","4444","Ez itt egy nyarcéj. Elneveztem a kutyámat...","0","nyarcéjnak","[""nyarcéjnak"",""nyarcéjnek""]","","posttest trial","8",""
"html-button-response-clever","126","604091","0.0-13.0-0.6","3792","Ez itt egy tranék. Ott vagyunk a...","0","tranékban","[""tranékban"",""tranékben""]","","posttest trial","8",""
"html-button-response-clever","127","607390","0.0-13.0-0.7","2799","Ez itt egy nidét. Ott vagyunk a...","0","nidétben","[""nidétben"",""nidétban""]","","posttest trial","8",""
"html-button-response-clever","128","610236","0.0-13.0-0.8","2330","Ez itt egy sartely. Ott vagyunk a...","0","sartelyban","[""sartelyban"",""sartelyben""]","","posttest trial","8",""
"html-button-response-clever","129","614196","0.0-13.0-0.9","3448","Ez itt egy jalrény. Nincs is jobb egy jó...","0","jalrénynál","[""jalrénynál"",""jalrénynél""]","","posttest trial","8",""
"html-button-response-clever","130","616935","0.0-13.0-0.10","2225","Ez itt egy sprízem. Nincs is jobb egy jó...","1","sprízemnél","[""sprízemnál"",""sprízemnél""]","","posttest trial","8",""
"html-button-response-clever","131","619236","0.0-13.0-0.11","1800","Ez itt egy bródesz. Elneveztem a kutyámat...","0","bródesznek","[""bródesznek"",""bródesznak""]","","posttest trial","8",""
"html-button-response-clever","132","622463","0.0-13.0-0.12","2713","Ez itt egy gonszék. Nincs is jobb egy jó...","0","gonszéknál","[""gonszéknál"",""gonszéknél""]","","posttest trial","8",""
"html-button-response-clever","133","626540","0.0-13.0-0.13","3574","Ez itt egy spáten. Elneveztem a kutyámat...","1","spátennek","[""spátennak"",""spátennek""]","","posttest trial","8",""
"html-button-response-clever","134","629040","0.0-13.0-0.14","1987","Ez itt egy vodép. Elneveztem a kutyámat...","0","vodépnak","[""vodépnak"",""vodépnek""]","","posttest trial","8",""
"html-button-response-clever","135","631447","0.0-13.0-0.15","1891","Ez itt egy fincek. Nincs is jobb egy jó...","0","finceknél","[""finceknél"",""finceknál""]","","posttest trial","8",""
"html-button-response-clever","136","634271","0.0-13.0-0.16","2314","Ez itt egy gótem. Elneveztem a kutyámat...","1","gótemnek","[""gótemnak"",""gótemnek""]","","posttest trial","8",""
"html-button-response-clever","137","640000","0.0-13.0-0.17","5226","Ez itt egy trigenc. Elneveztem a kutyámat...","0","trigencnek","[""trigencnek"",""trigencnak""]","","posttest trial","8",""
"html-button-response-clever","138","646963","0.0-13.0-0.18","6447","Ez itt egy brágéd. Elneveztem a kutyámat...","1","brágédnak","[""brágédnek"",""brágédnak""]","","posttest trial","8",""
"html-button-response-clever","139","663776","0.0-13.0-0.19","16301","Ez itt egy jábéz. Ott vagyunk a...","1","jábézban","[""jábézben"",""jábézban""]","","posttest trial","8",""
"html-button-response-clever","140","669459","0.0-13.0-0.20","5167","Ez itt egy sporzem. Elneveztem a kutyámat...","0","sporzemnek","[""sporzemnek"",""sporzemnak""]","","posttest trial","8",""
"html-button-response-clever","141","681040","0.0-13.0-0.21","11066","Ez itt egy csimen. Nincs is jobb egy jó...","0","csimennél","[""csimennél"",""csimennál""]","","posttest trial","8",""
"html-button-response-clever","142","705803","0.0-13.0-0.22","24248","Ez itt egy szutend. Ott vagyunk a...","1","szutendben","[""szutendban"",""szutendben""]","","posttest trial","8",""
"html-button-response-clever","143","712576","0.0-13.0-0.23","6269","Ez itt egy trapszegy. Nincs is jobb egy jó...","1","trapszegynál","[""trapszegynél"",""trapszegynál""]","","posttest trial","8",""
"html-button-response-clever","144","718244","0.0-13.0-0.24","5155","Ez itt egy dingec. Elneveztem a kutyámat...","0","dingecnek","[""dingecnek"",""dingecnak""]","","posttest trial","8",""
"html-button-response-clever","145","730295","0.0-13.0-0.25","11533","Ez itt egy navec. Ott vagyunk a...","0","navecben","[""navecben"",""navecban""]","","posttest trial","8",""
"html-button-response-clever","146","736148","0.0-13.0-0.26","5341","Ez itt egy klordény. Elneveztem a kutyámat...","0","klordénynek","[""klordénynek"",""klordénynak""]","","posttest trial","8",""
"html-button-response-clever","147","739278","0.0-13.0-0.27","2620","Ez itt egy licegy. Ott vagyunk a...","0","licegyben","[""licegyben"",""licegyban""]","","posttest trial","8",""
"html-button-response-clever","148","742212","0.0-13.0-0.28","2419","Ez itt egy prately. Elneveztem a kutyámat...","0","pratelynak","[""pratelynak"",""pratelynek""]","","posttest trial","8",""
"html-button-response-clever","149","747048","0.0-13.0-0.29","4332","Ez itt egy brigeszt. Elneveztem a kutyámat...","1","brigesztnek","[""brigesztnak"",""brigesztnek""]","","posttest trial","8",""
"html-button-response-clever","150","752935","0.0-13.0-0.30","5372","Ez itt egy kadér. Nincs is jobb egy jó...","1","kadérnál","[""kadérnél"",""kadérnál""]","","posttest trial","8",""
"html-button-response-clever","151","756268","0.0-13.0-0.31","2832","Ez itt egy forzéd. Elneveztem a kutyámat...","1","forzédnak","[""forzédnek"",""forzédnak""]","","posttest trial","8",""
"html-button-response-clever","152","759087","0.0-13.0-0.32","2305","Ez itt egy nyábét. Ott vagyunk a...","1","nyábétban","[""nyábétben"",""nyábétban""]","","posttest trial","8",""
"html-button-response-clever","153","762537","0.0-13.0-0.33","2939","Ez itt egy szihét. Elneveztem a kutyámat...","0","szihétnek","[""szihétnek"",""szihétnak""]","","posttest trial","8",""
"html-button-response-clever","154","766435","0.0-13.0-0.34","3383","Ez itt egy ronvet. Elneveztem a kutyámat...","0","ronvetnek","[""ronvetnek"",""ronvetnak""]","","posttest trial","8",""
"html-button-response-clever","155","803618","0.0-13.0-0.35","36669","Ez itt egy hóbens. Ott vagyunk a...","0","hóbensben","[""hóbensben"",""hóbensban""]","","posttest trial","8",""
"html-button-response-clever","156","806602","0.0-13.0-0.36","2469","Ez itt egy fádens. Elneveztem a kutyámat...","0","fádensnak","[""fádensnak"",""fádensnek""]","","posttest trial","8",""
"html-button-response-clever","157","809583","0.0-13.0-0.37","2481","Ez itt egy gicéj. Nincs is jobb egy jó...","0","gicéjnél","[""gicéjnél"",""gicéjnál""]","","posttest trial","8",""
"html-button-response-clever","158","812321","0.0-13.0-0.38","2235","Ez itt egy trincseg. Ott vagyunk a...","0","trincsegben","[""trincsegben"",""trincsegban""]","","posttest trial","8",""
"html-button-response-clever","159","815789","0.0-13.0-0.39","2953","Ez itt egy kluhéj. Nincs is jobb egy jó...","0","kluhéjnál","[""kluhéjnál"",""kluhéjnél""]","","posttest trial","8",""
"html-button-response-clever","160","818278","0.0-13.0-0.40","1976","Ez itt egy matéz. Ott vagyunk a...","0","matézban","[""matézban"",""matézben""]","","posttest trial","8",""
"html-button-response-clever","161","822048","0.0-13.0-0.41","3254","Ez itt egy csinték. Ott vagyunk a...","0","csintékben","[""csintékben"",""csintékban""]","","posttest trial","8",""
"html-button-response-clever","162","825718","0.0-13.0-0.42","3156","Ez itt egy vublet. Nincs is jobb egy jó...","0","vubletnál","[""vubletnál"",""vubletnél""]","","posttest trial","8",""
"html-button-response-clever","163","834655","0.0-13.0-0.43","8423","Ez itt egy brukész. Nincs is jobb egy jó...","0","brukésznál","[""brukésznál"",""brukésznél""]","","posttest trial","8",""
"html-button-response-clever","164","836917","0.0-13.0-0.44","1747","Ez itt egy csartény. Elneveztem a kutyámat...","0","csarténynak","[""csarténynak"",""csarténynek""]","","posttest trial","8",""
"html-button-response-clever","165","839309","0.0-13.0-0.45","1876","Ez itt egy kábesz. Nincs is jobb egy jó...","0","kábesznál","[""kábesznál"",""kábesznél""]","","posttest trial","8",""
"html-button-response-clever","166","841513","0.0-13.0-0.46","1703","Ez itt egy ikszert. Ott vagyunk a...","0","ikszertben","[""ikszertben"",""ikszertban""]","","posttest trial","8",""
"html-button-response-clever","167","844261","0.0-13.0-0.47","2247","Ez itt egy kliszer. Nincs is jobb egy jó...","1","kliszernél","[""kliszernál"",""kliszernél""]","","posttest trial","8",""
"html-button-response-clever","168","846965","0.0-13.0-0.48","2203","Ez itt egy tránély. Elneveztem a kutyámat...","1","tránélynak","[""tránélynek"",""tránélynak""]","","posttest trial","8",""
"html-button-response-clever","169","849658","0.0-13.0-0.49","2179","Ez itt egy hivép. Ott vagyunk a...","1","hivépben","[""hivépban"",""hivépben""]","","posttest trial","8",""
"html-button-response-clever","170","852285","0.0-13.0-0.50","2126","Ez itt egy giheszt. Elneveztem a kutyámat...","1","gihesztnak","[""gihesztnek"",""gihesztnak""]","","posttest trial","8",""
"html-button-response-clever","171","854699","0.0-13.0-0.51","1907","Ez itt egy brotes. Ott vagyunk a...","1","brotesben","[""brotesban"",""brotesben""]","","posttest trial","8",""
"html-button-response-clever","172","857034","0.0-13.0-0.52","1833","Ez itt egy zsopéd. Ott vagyunk a...","0","zsopédben","[""zsopédben"",""zsopédban""]","","posttest trial","8",""
"html-button-response-clever","173","859381","0.0-13.0-0.53","1836","Ez itt egy priszkenc. Elneveztem a kutyámat...","0","priszkencnek","[""priszkencnek"",""priszkencnak""]","","posttest trial","8",""
"html-button-response","174","864140","0.0-14.0","4243","<p> Vége a játéknak. A teljes pontszámod 32/54.</p><p> Szép munka! &#128526;&#128526;&#128526;</p><p>A Befejezés gomb megnyomása után bezárhatod a böngészőablakot.</p>","0","","","","","",""
"html-keyboard-response","175","870117","0.0-15.0","null","<div class=""message"">
         <p>Egy kis türelmet kérünk, amíg elmentjük az adatokat...</p>
         </div>","null","","","","","",""
