"trial_type","trial_index","time_elapsed","internal_node_id","rt","stimulus","response","response_string","choices","esp_response","trial_kind","list_number","esp_match"
"pavlovia","0","506","0.0-0.0","","","","","","","","",""
"html-button-response","1","4463","0.0-1.0","3451","<p>Kedves Résztvevő! A Budapesti Műszaki és Gazdaságtudományi Egyetem Kognitív Tudományi Tanszékének kutatásában való részvételed kérjük. A kutatásban azt vizsgáljuk, hogy a magyar anyanyelvűek hogyan használnak bizonyos szóalakokat, és hogy milyen képük van arról, hogy mások hogyan használják, hogyan képzik a szavakat. Ez hozzásegít bennünket ahhoz, hogy jobban megértsük, hogyan dolgozza fel és tárolja a nyelvet az emberi agy, és hogyan működnek, hogyan változnak egy adott közösség nyelvi konvenciói.</p><p>A vizsgálat egy rövid számítógépes feladatból fog állni. A kutatásban való részvétel önkéntes, a részvételi szándék bármikor visszavonható. A résztvevők eredményeit név nélkül kezeljük, így nem beazonosíthatók az adatok feldolgozása során. Minden személyes adatot az EU általános adatvédelmi rendeletének (GDPR) megfelelően kezelünk és legfeljebb öt éven belül megsemmisítünk. A vizsgálat jellemzően húsz percet vesz igénybe.</p><p>Kutatásvezető:</p><p>Dr. Rácz Péter, tudományos munkatárs, BME KTT</p><p>e-mail: racz.peter.marton@ttk.bme.hu</p>","0","","","","","",""
"html-button-response","2","18273","0.0-2.0","13307","<p>A kísérletben szavakat fogsz látni. Ezek között lesznek olyanok, amelyeket ismersz, de előfordulhatnak olyanok is, amelyeket nem ismersz, sőt, vannak köztük kitalált szavak is. Minden szónál látni fogsz toldalékolt alakokat. A te feladatod az lesz, hogy minden szóhoz kiválaszd azt a toldalékolt alakot, amely a te számodra ismerősebben, természetesebben hangzik. Rossz válaszok nincsenek, mert van olyan, hogy különböző embereknek más és más szó tűnik jobb választásnak. A választ úgy tudod majd kiválasztani, ha rákattintasz.</p><p>Ebben a szóválasztós játékban egy másik játékossal együtt veszel majd részt. A másik játékos is minden esetben azok közül a lehetőségek közül válogathat, mint te. Kettőtök feladata az, hogy ugyanazt a lehetőséget válasszátok minden esetben. Ahhoz, hogy ez sikerüljön, neked figyelned kell arra, hogy a másik játékos milyen válaszokat ad, és ennek alapján meg kell tippelned, hogyan választ legközelebb. Ha eltalálod, akkor pontot kapsz.</p>","0","","","","","",""
"html-button-response","3","24487","0.0-3.0","5710","<p>Kérjük, olvasd el az alábbi nyilatkozatot, és amennyiben egyetértesz vele, nyomj a Beleegyezés gombra!</p><p>Kijelentem, hogy magyar anyanyelvű személyként önként veszek részt a BME KTT kísérletében. A kutatás céljával és folyamatával kapcsolatban elegendő tájékoztatást kaptam, lehetőségem volt kérdések feltételére, és esetleges kérdéseimre megfelelő válaszokat kaptam. A tájékoztatás alapján elegendő mennyiségű információ áll a rendelkezésemre, hogy eldönthessem, részt kívánok-e venni a kutatásban.</p><p>Tisztában vagyok vele, hogy részvételi szándékomat és adataimat bármikor, indoklás nélkül visszavonhatom.</p><p>Értem és tudomásul veszem, hogy a kutatás tudományos célokat szolgál, és az általam szolgáltatott adatokat a BME kizárólag kutatási célból használja fel. Tudomásul veszem, hogy eredményeimet a többi résztvevő eredményeivel együtt kezelik, így egyéni teljesítményemről visszajelzést, szakvéleményt nem kapok.</p><p>Megértettem, hogy adataim kezelését illetően a BME az EU általános adatvédelmi rendelete (GDPR), a hatályos adatvédelmi törvény és a nemzetközi kutatás-etikai alapelvek szerint jár el. Eredményeim anonim módon kerülnek feldolgozásra, és a kutatás résztvevői az azonosításomra alkalmas adataimat harmadik félnek nem szolgáltatják ki. Engedélyezem a BME számára a jelen kutatásban felvett adataim feldolgozását és tárolását, beleértve azok későbbi kutatásokhoz való felhasználását is. Személyes adataim kezelésével kapcsolatban tájékoztatást kérhetek a kutatás résztvevőitől, az adatkezelés ellen tiltakozhatok, kérhetem személyes adataim helyesbítését, törlését vagy zárolását, valamint jogorvoslatért a Nemzeti Adatvédelmi és Információszabadság Hatósághoz fordulhatok.</p><p>Kijelentem, hogy a kutatásban való részvételem körülményeiről részletes tájékoztatást kaptam, és a feltételeket elfogadom.</p>","0","","","","","",""
"survey-text","4","45649","0.0-4.0","20641","","{""Q0"":""D36FSJ"",""Q1"":""nő"",""Q2"":""2003"",""Q3"":""13""}","","","","","",""
"html-button-response","5","55767","0.0-5.0","9607","<p>Ebben a játékban szavakat kell toldalékolni.</p> <p>Minden körben mutatunk majd egy példamondatot, amiben lesz egy szó.</p> <p>Alatta jön egy második mondat, ezt a mondatot neked kell majd befejezni, ugyanezzel a szóval.</p> <p>Nem biztos, hogy a szó eleve ismerős lesz számodra!</p> <p>Minden mondathoz adunk két lehetőséget, ezeket balra és jobbra látod majd.</p> <p>A játék kb. negyedóráig-húsz percig tart.</p>","0","","","","","",""
"html-button-response","6","77796","0.0-6.0","21527","<p>Nézzünk egy példát!</p> <p>A példamondat: ""Ez itt egy blumbnyeg.""</p><p>Neked ezt a mondatot kell befejezned: ""Ott vagyunk a...""</p><p>A lehetőségek pedig ezek:</p>","0","","","","","",""
"html-button-response","7","95157","0.0-7.0","16845","<p>Nagyon jó.</p><p>Ezt a játékot nem egyedül fogod játszani, hanem egy másik játékossal.</p><p>Mielőtt továbblépünk, összekapcsolunk titeket egymással.</p><p>Ez igénybe vehet néhány másodpercet, amihez szíves türelmed kérjük.</p>","0","","","","","",""
"html-button-response","8","100894","0.0-8.0","null","<p>Csatlakozás a másik játékoshoz...</p>","null","","","","","",""
"html-button-response","9","103418","0.0-9.0","null","<p> Sikeres kapcsolódás!</p>","null","","","","","",""
"html-button-response","10","109873","0.0-10.0","5939","<p>A következőkben ketten játsszátok a szóválasztós játékot.</p><p>A feladatotok az lesz, hogy minden körben <b>ugyanazt</b> a szót válasszátok.</p><p>Minden ilyen egyező válaszért pontot kaptok.</p><p>Próbáld meg kitalálni, mit választ a másik játékos!</p><p>Bármikor választhatsz, a körnek akkor van vége, ha mindketten döntöttetek.</p><p>Sok sikert!</p>","0","","","","","",""
"html-button-response-esp","11","124808","0.0-11.0-0.0","14430","Ez itt egy lismév. Ott vagyunk a...","0","lismévben","[""lismévben"",""lismévban""]","lismévben","esp trial","11","true"
"html-button-response","12","128326","0.0-11.0-1.0","null","<p>A másik játékos ezt választotta: <b>lismévben</b>.</p><p>&#x2705;</p><p>A te válaszod és a másik játékos válasza <b>megegyeznek</b>.</p>","null","","","","feedback trial","",""
"html-button-response-esp","13","139682","0.0-11.0-0.1","10841","Ez itt egy gicéj. Nincs is jobb egy jó...","1","gicéjnél","[""gicéjnál"",""gicéjnél""]","gicéjnél","esp trial","11","true"
"html-button-response","14","143205","0.0-11.0-1.1","null","<p>A másik játékos ezt választotta: <b>gicéjnél</b>.</p><p>&#x2705;</p><p>A te válaszod és a másik játékos válasza <b>megegyeznek</b>.</p>","null","","","","feedback trial","",""
"html-button-response-esp","15","152653","0.0-11.0-0.2","8934","Ez itt egy nidét. Ott vagyunk a...","0","nidétben","[""nidétben"",""nidétban""]","nidétben","esp trial","11","true"
"html-button-response","16","156168","0.0-11.0-1.2","null","<p>A másik játékos ezt választotta: <b>nidétben</b>.</p><p>&#x2705;</p><p>A te válaszod és a másik játékos válasza <b>megegyeznek</b>.</p>","null","","","","feedback trial","",""
"html-button-response-esp","17","161016","0.0-11.0-0.3","4345","Ez itt egy júder. Elneveztem a kutyámat...","0","júdernek","[""júdernek"",""júdernak""]","júdernek","esp trial","11","true"
"html-button-response","18","164529","0.0-11.0-1.3","null","<p>A másik játékos ezt választotta: <b>júdernek</b>.</p><p>&#x2705;</p><p>A te válaszod és a másik játékos válasza <b>megegyeznek</b>.</p>","null","","","","feedback trial","",""
"html-button-response-esp","19","181832","0.0-11.0-0.4","16801","Ez itt egy kábesz. Nincs is jobb egy jó...","1","kábesznál","[""kábesznél"",""kábesznál""]","kábesznél","esp trial","11","false"
"html-button-response","20","185341","0.0-11.0-1.4","null","<p>A másik játékos ezt választotta: <b>kábesznél</b>.</p><p>&#10060;</p><p>A válaszaitok <b>nem</b> egyeznek meg.</p>","null","","","","feedback trial","",""
"html-button-response-esp","21","194707","0.0-11.0-0.5","8864","Ez itt egy vodép. Elneveztem a kutyámat...","1","vodépnek","[""vodépnak"",""vodépnek""]","vodépnek","esp trial","11","true"
"html-button-response","22","198212","0.0-11.0-1.5","null","<p>A másik játékos ezt választotta: <b>vodépnek</b>.</p><p>&#x2705;</p><p>A te válaszod és a másik játékos válasza <b>megegyeznek</b>.</p>","null","","","","feedback trial","",""
"html-button-response-esp","23","203401","0.0-11.0-0.6","4675","Ez itt egy spáten. Elneveztem a kutyámat...","0","spátennek","[""spátennek"",""spátennak""]","spátennek","esp trial","11","true"
"html-button-response","24","206908","0.0-11.0-1.6","null","<p>A másik játékos ezt választotta: <b>spátennek</b>.</p><p>&#x2705;</p><p>A te válaszod és a másik játékos válasza <b>megegyeznek</b>.</p>","null","","","","feedback trial","",""
"html-button-response-esp","25","230643","0.0-11.0-0.7","23234","Ez itt egy jalrény. Nincs is jobb egy jó...","0","jalrénynál","[""jalrénynál"",""jalrénynél""]","jalrénynál","esp trial","11","true"
"html-button-response","26","234145","0.0-11.0-1.7","null","<p>A másik játékos ezt választotta: <b>jalrénynál</b>.</p><p>&#x2705;</p><p>A te válaszod és a másik játékos válasza <b>megegyeznek</b>.</p>","null","","","","feedback trial","",""
"html-button-response-esp","27","245093","0.0-11.0-0.8","10445","Ez itt egy sprízem. Nincs is jobb egy jó...","0","sprízemnál","[""sprízemnál"",""sprízemnél""]","sprízemnél","esp trial","11","false"
"html-button-response","28","248609","0.0-11.0-1.8","null","<p>A másik játékos ezt választotta: <b>sprízemnél</b>.</p><p>&#10060;</p><p>A válaszaitok <b>nem</b> egyeznek meg.</p>","null","","","","feedback trial","",""
"html-button-response-esp","29","259595","0.0-11.0-0.9","10476","Ez itt egy ronvet. Elneveztem a kutyámat...","0","ronvetnak","[""ronvetnak"",""ronvetnek""]","ronvetnek","esp trial","11","false"
"html-button-response","30","263100","0.0-11.0-1.9","null","<p>A másik játékos ezt választotta: <b>ronvetnek</b>.</p><p>&#10060;</p><p>A válaszaitok <b>nem</b> egyeznek meg.</p>","null","","","","feedback trial","",""
"html-button-response-esp","31","273537","0.0-11.0-0.10","9936","Ez itt egy nyábét. Ott vagyunk a...","0","nyábétban","[""nyábétban"",""nyábétben""]","nyábétban","esp trial","11","true"
"html-button-response","32","277053","0.0-11.0-1.10","null","<p>A másik játékos ezt választotta: <b>nyábétban</b>.</p><p>&#x2705;</p><p>A te válaszod és a másik játékos válasza <b>megegyeznek</b>.</p>","null","","","","feedback trial","",""
"html-button-response-esp","33","311167","0.0-11.0-0.11","33613","Ez itt egy hóbens. Ott vagyunk a...","0","hóbensban","[""hóbensban"",""hóbensben""]","hóbensben","esp trial","11","false"
"html-button-response","34","314683","0.0-11.0-1.11","null","<p>A másik játékos ezt választotta: <b>hóbensben</b>.</p><p>&#10060;</p><p>A válaszaitok <b>nem</b> egyeznek meg.</p>","null","","","","feedback trial","",""
"html-button-response-esp","35","328511","0.0-11.0-0.12","13312","Ez itt egy csimen. Nincs is jobb egy jó...","0","csimennél","[""csimennél"",""csimennál""]","csimennél","esp trial","11","true"
"html-button-response","36","332038","0.0-11.0-1.12","null","<p>A másik játékos ezt választotta: <b>csimennél</b>.</p><p>&#x2705;</p><p>A te válaszod és a másik játékos válasza <b>megegyeznek</b>.</p>","null","","","","feedback trial","",""
"html-button-response-esp","37","371864","0.0-11.0-0.13","39311","Ez itt egy kluhéj. Nincs is jobb egy jó...","0","kluhéjnál","[""kluhéjnál"",""kluhéjnél""]","kluhéjnál","esp trial","11","true"
"html-button-response","38","375371","0.0-11.0-1.13","null","<p>A másik játékos ezt választotta: <b>kluhéjnál</b>.</p><p>&#x2705;</p><p>A te válaszod és a másik játékos válasza <b>megegyeznek</b>.</p>","null","","","","feedback trial","",""
"html-button-response-esp","39","428350","0.0-11.0-0.14","52464","Ez itt egy jorzég. Elneveztem a kutyámat...","0","jorzégnek","[""jorzégnek"",""jorzégnak""]","jorzégnek","esp trial","11","true"
"html-button-response","40","431863","0.0-11.0-1.14","null","<p>A másik játékos ezt választotta: <b>jorzégnek</b>.</p><p>&#x2705;</p><p>A te válaszod és a másik játékos válasza <b>megegyeznek</b>.</p>","null","","","","feedback trial","",""
"html-button-response-esp","41","435612","0.0-11.0-0.15","2636","Ez itt egy gótem. Elneveztem a kutyámat...","0","gótemnek","[""gótemnek"",""gótemnak""]","gótemnek","esp trial","11","true"
"html-button-response","42","439113","0.0-11.0-1.15","null","<p>A másik játékos ezt választotta: <b>gótemnek</b>.</p><p>&#x2705;</p><p>A te válaszod és a másik játékos válasza <b>megegyeznek</b>.</p>","null","","","","feedback trial","",""
"html-button-response-esp","43","443961","0.0-11.0-0.16","4346","Ez itt egy csinték. Ott vagyunk a...","0","csintékban","[""csintékban"",""csintékben""]","csintékben","esp trial","11","false"
"html-button-response","44","447489","0.0-11.0-1.16","null","<p>A másik játékos ezt választotta: <b>csintékben</b>.</p><p>&#10060;</p><p>A válaszaitok <b>nem</b> egyeznek meg.</p>","null","","","","feedback trial","",""
"html-button-response-esp","45","456091","0.0-11.0-0.17","8086","Ez itt egy priszkenc. Elneveztem a kutyámat...","0","priszkencnek","[""priszkencnek"",""priszkencnak""]","priszkencnek","esp trial","11","true"
"html-button-response","46","459606","0.0-11.0-1.17","null","<p>A másik játékos ezt választotta: <b>priszkencnek</b>.</p><p>&#x2705;</p><p>A te válaszod és a másik játékos válasza <b>megegyeznek</b>.</p>","null","","","","feedback trial","",""
"html-button-response-esp","47","463369","0.0-11.0-0.18","2935","Ez itt egy dingec. Elneveztem a kutyámat...","0","dingecnek","[""dingecnek"",""dingecnak""]","dingecnek","esp trial","11","true"
"html-button-response","48","466890","0.0-11.0-1.18","null","<p>A másik játékos ezt választotta: <b>dingecnek</b>.</p><p>&#x2705;</p><p>A te válaszod és a másik játékos válasza <b>megegyeznek</b>.</p>","null","","","","feedback trial","",""
"html-button-response-esp","49","472459","0.0-11.0-0.19","5054","Ez itt egy matéz. Ott vagyunk a...","1","matézban","[""matézben"",""matézban""]","matézban","esp trial","11","true"
"html-button-response","50","475970","0.0-11.0-1.19","null","<p>A másik játékos ezt választotta: <b>matézban</b>.</p><p>&#x2705;</p><p>A te válaszod és a másik játékos válasza <b>megegyeznek</b>.</p>","null","","","","feedback trial","",""
"html-button-response-esp","51","491147","0.0-11.0-0.20","14660","Ez itt egy brágéd. Elneveztem a kutyámat...","0","brágédnak","[""brágédnak"",""brágédnek""]","brágédnak","esp trial","11","true"
"html-button-response","52","494662","0.0-11.0-1.20","null","<p>A másik játékos ezt választotta: <b>brágédnak</b>.</p><p>&#x2705;</p><p>A te válaszod és a másik játékos válasza <b>megegyeznek</b>.</p>","null","","","","feedback trial","",""
"html-button-response-esp","53","506115","0.0-11.0-0.21","10952","Ez itt egy kliszer. Nincs is jobb egy jó...","0","kliszernél","[""kliszernél"",""kliszernál""]","kliszernél","esp trial","11","true"
"html-button-response","54","509630","0.0-11.0-1.21","null","<p>A másik játékos ezt választotta: <b>kliszernél</b>.</p><p>&#x2705;</p><p>A te válaszod és a másik játékos válasza <b>megegyeznek</b>.</p>","null","","","","feedback trial","",""
"html-button-response-esp","55","517176","0.0-11.0-0.22","7031","Ez itt egy sartely. Ott vagyunk a...","0","sartelyban","[""sartelyban"",""sartelyben""]","sartelyben","esp trial","11","false"
"html-button-response","56","520678","0.0-11.0-1.22","null","<p>A másik játékos ezt választotta: <b>sartelyben</b>.</p><p>&#10060;</p><p>A válaszaitok <b>nem</b> egyeznek meg.</p>","null","","","","feedback trial","",""
"html-button-response-esp","57","538602","0.0-11.0-0.23","17409","Ez itt egy brigeszt. Elneveztem a kutyámat...","0","brigesztnek","[""brigesztnek"",""brigesztnak""]","brigesztnek","esp trial","11","true"
"html-button-response","58","542113","0.0-11.0-1.23","null","<p>A másik játékos ezt választotta: <b>brigesztnek</b>.</p><p>&#x2705;</p><p>A te válaszod és a másik játékos válasza <b>megegyeznek</b>.</p>","null","","","","feedback trial","",""
"html-button-response-esp","59","546576","0.0-11.0-0.24","3948","Ez itt egy tránély. Elneveztem a kutyámat...","1","tránélynak","[""tránélynek"",""tránélynak""]","tránélynak","esp trial","11","true"
"html-button-response","60","550083","0.0-11.0-1.24","null","<p>A másik játékos ezt választotta: <b>tránélynak</b>.</p><p>&#x2705;</p><p>A te válaszod és a másik játékos válasza <b>megegyeznek</b>.</p>","null","","","","feedback trial","",""
"html-button-response-esp","61","559887","0.0-11.0-0.25","9303","Ez itt egy szutend. Ott vagyunk a...","0","szutendban","[""szutendban"",""szutendben""]","szutendben","esp trial","11","false"
"html-button-response","62","563408","0.0-11.0-1.25","null","<p>A másik játékos ezt választotta: <b>szutendben</b>.</p><p>&#10060;</p><p>A válaszaitok <b>nem</b> egyeznek meg.</p>","null","","","","feedback trial","",""
"html-button-response-esp","63","567309","0.0-11.0-0.26","3393","Ez itt egy trigenc. Elneveztem a kutyámat...","0","trigencnek","[""trigencnek"",""trigencnak""]","trigencnek","esp trial","11","true"
"html-button-response","64","570813","0.0-11.0-1.26","null","<p>A másik játékos ezt választotta: <b>trigencnek</b>.</p><p>&#x2705;</p><p>A te válaszod és a másik játékos válasza <b>megegyeznek</b>.</p>","null","","","","feedback trial","",""
"html-button-response-esp","65","581982","0.0-11.0-0.27","10654","Ez itt egy navec. Ott vagyunk a...","1","navecban","[""navecben"",""navecban""]","navecben","esp trial","11","false"
"html-button-response","66","585505","0.0-11.0-1.27","null","<p>A másik játékos ezt választotta: <b>navecben</b>.</p><p>&#10060;</p><p>A válaszaitok <b>nem</b> egyeznek meg.</p>","null","","","","feedback trial","",""
"html-button-response-esp","67","597088","0.0-11.0-0.28","11082","Ez itt egy brotes. Ott vagyunk a...","1","brotesben","[""brotesban"",""brotesben""]","brotesban","esp trial","11","false"
"html-button-response","68","600610","0.0-11.0-1.28","null","<p>A másik játékos ezt választotta: <b>brotesban</b>.</p><p>&#10060;</p><p>A válaszaitok <b>nem</b> egyeznek meg.</p>","null","","","","feedback trial","",""
"html-button-response-esp","69","604371","0.0-11.0-0.29","3104","Ez itt egy fádens. Elneveztem a kutyámat...","1","fádensnek","[""fádensnak"",""fádensnek""]","fádensnek","esp trial","11","true"
"html-button-response","70","607888","0.0-11.0-1.29","null","<p>A másik játékos ezt választotta: <b>fádensnek</b>.</p><p>&#x2705;</p><p>A te válaszod és a másik játékos válasza <b>megegyeznek</b>.</p>","null","","","","feedback trial","",""
"html-button-response-esp","71","614076","0.0-11.0-0.30","5674","Ez itt egy forzéd. Elneveztem a kutyámat...","0","forzédnek","[""forzédnek"",""forzédnak""]","forzédnek","esp trial","11","true"
"html-button-response","72","617588","0.0-11.0-1.30","null","<p>A másik játékos ezt választotta: <b>forzédnek</b>.</p><p>&#x2705;</p><p>A te válaszod és a másik játékos válasza <b>megegyeznek</b>.</p>","null","","","","feedback trial","",""
"html-button-response-esp","73","623675","0.0-11.0-0.31","5571","Ez itt egy nyarcéj. Elneveztem a kutyámat...","0","nyarcéjnek","[""nyarcéjnek"",""nyarcéjnak""]","nyarcéjnak","esp trial","11","false"
"html-button-response","74","627190","0.0-11.0-1.31","null","<p>A másik játékos ezt választotta: <b>nyarcéjnak</b>.</p><p>&#10060;</p><p>A válaszaitok <b>nem</b> egyeznek meg.</p>","null","","","","feedback trial","",""
"html-button-response-esp","75","630953","0.0-11.0-0.32","2476","Ez itt egy tranék. Ott vagyunk a...","0","tranékban","[""tranékban"",""tranékben""]","tranékban","esp trial","11","true"
"html-button-response","76","634456","0.0-11.0-1.32","null","<p>A másik játékos ezt választotta: <b>tranékban</b>.</p><p>&#x2705;</p><p>A te válaszod és a másik játékos válasza <b>megegyeznek</b>.</p>","null","","","","feedback trial","",""
"html-button-response-esp","77","644216","0.0-11.0-0.33","9246","Ez itt egy zsopéd. Ott vagyunk a...","1","zsopédban","[""zsopédben"",""zsopédban""]","zsopédban","esp trial","11","true"
"html-button-response","78","647725","0.0-11.0-1.33","null","<p>A másik játékos ezt választotta: <b>zsopédban</b>.</p><p>&#x2705;</p><p>A te válaszod és a másik játékos válasza <b>megegyeznek</b>.</p>","null","","","","feedback trial","",""
"html-button-response-esp","79","697539","0.0-11.0-0.34","49298","Ez itt egy kadér. Nincs is jobb egy jó...","0","kadérnél","[""kadérnél"",""kadérnál""]","kadérnál","esp trial","11","false"
"html-button-response","80","701788","0.0-11.0-1.34","null","<p>A másik játékos ezt választotta: <b>kadérnál</b>.</p><p>&#10060;</p><p>A válaszaitok <b>nem</b> egyeznek meg.</p>","null","","","","feedback trial","",""
"html-button-response-esp","81","734130","0.0-11.0-0.35","31331","Ez itt egy fincek. Nincs is jobb egy jó...","1","finceknél","[""finceknál"",""finceknél""]","finceknél","esp trial","11","true"
"html-button-response","82","737641","0.0-11.0-1.35","null","<p>A másik játékos ezt választotta: <b>finceknél</b>.</p><p>&#x2705;</p><p>A te válaszod és a másik játékos válasza <b>megegyeznek</b>.</p>","null","","","","feedback trial","",""
"html-button-response-esp","83","741397","0.0-11.0-0.36","1557","Ez itt egy trincseg. Ott vagyunk a...","0","trincsegban","[""trincsegban"",""trincsegben""]","trincsegben","esp trial","11","false"
"html-button-response","84","744911","0.0-11.0-1.36","null","<p>A másik játékos ezt választotta: <b>trincsegben</b>.</p><p>&#10060;</p><p>A válaszaitok <b>nem</b> egyeznek meg.</p>","null","","","","feedback trial","",""
"html-button-response-esp","85","748664","0.0-11.0-0.37","2066","Ez itt egy gonszék. Nincs is jobb egy jó...","1","gonszéknél","[""gonszéknál"",""gonszéknél""]","gonszéknél","esp trial","11","true"
"html-button-response","86","752174","0.0-11.0-1.37","null","<p>A másik játékos ezt választotta: <b>gonszéknél</b>.</p><p>&#x2705;</p><p>A te válaszod és a másik játékos válasza <b>megegyeznek</b>.</p>","null","","","","feedback trial","",""
"html-button-response-esp","87","755929","0.0-11.0-0.38","3097","Ez itt egy giheszt. Elneveztem a kutyámat...","1","gihesztnek","[""gihesztnak"",""gihesztnek""]","gihesztnek","esp trial","11","true"
"html-button-response","88","759456","0.0-11.0-1.38","null","<p>A másik játékos ezt választotta: <b>gihesztnek</b>.</p><p>&#x2705;</p><p>A te válaszod és a másik játékos válasza <b>megegyeznek</b>.</p>","null","","","","feedback trial","",""
"html-button-response-esp","89","763217","0.0-11.0-0.39","2470","Ez itt egy hivép. Ott vagyunk a...","1","hivépben","[""hivépban"",""hivépben""]","hivépben","esp trial","11","true"
"html-button-response","90","766745","0.0-11.0-1.39","null","<p>A másik játékos ezt választotta: <b>hivépben</b>.</p><p>&#x2705;</p><p>A te válaszod és a másik játékos válasza <b>megegyeznek</b>.</p>","null","","","","feedback trial","",""
"html-button-response-esp","91","783890","0.0-11.0-0.40","16628","Ez itt egy klordény. Elneveztem a kutyámat...","0","klordénynak","[""klordénynak"",""klordénynek""]","klordénynak","esp trial","11","true"
"html-button-response","92","787406","0.0-11.0-1.40","null","<p>A másik játékos ezt választotta: <b>klordénynak</b>.</p><p>&#x2705;</p><p>A te válaszod és a másik játékos válasza <b>megegyeznek</b>.</p>","null","","","","feedback trial","",""
"html-button-response-esp","93","807006","0.0-11.0-0.41","19093","Ez itt egy ikszert. Ott vagyunk a...","1","ikszertben","[""ikszertban"",""ikszertben""]","ikszertben","esp trial","11","true"
"html-button-response","94","810513","0.0-11.0-1.41","null","<p>A másik játékos ezt választotta: <b>ikszertben</b>.</p><p>&#x2705;</p><p>A te válaszod és a másik játékos válasza <b>megegyeznek</b>.</p>","null","","","","feedback trial","",""
"html-button-response-esp","95","820000","0.0-11.0-0.42","8973","Ez itt egy csartény. Elneveztem a kutyámat...","1","csarténynek","[""csarténynak"",""csarténynek""]","csarténynak","esp trial","11","false"
"html-button-response","96","823508","0.0-11.0-1.42","null","<p>A másik játékos ezt választotta: <b>csarténynak</b>.</p><p>&#10060;</p><p>A válaszaitok <b>nem</b> egyeznek meg.</p>","null","","","","feedback trial","",""
"html-button-response-esp","97","837495","0.0-11.0-0.43","13472","Ez itt egy trapszegy. Nincs is jobb egy jó...","0","trapszegynál","[""trapszegynál"",""trapszegynél""]","trapszegynél","esp trial","11","false"
"html-button-response","98","841019","0.0-11.0-1.43","null","<p>A másik játékos ezt választotta: <b>trapszegynél</b>.</p><p>&#10060;</p><p>A válaszaitok <b>nem</b> egyeznek meg.</p>","null","","","","feedback trial","",""
"html-button-response-esp","99","881124","0.0-11.0-0.44","39590","Ez itt egy buhény. Ott vagyunk a...","0","buhényban","[""buhényban"",""buhényben""]","buhényban","esp trial","11","true"
"html-button-response","100","884627","0.0-11.0-1.44","null","<p>A másik játékos ezt választotta: <b>buhényban</b>.</p><p>&#x2705;</p><p>A te válaszod és a másik játékos válasza <b>megegyeznek</b>.</p>","null","","","","feedback trial","",""
"html-button-response-esp","101","890135","0.0-11.0-0.45","5006","Ez itt egy vublet. Nincs is jobb egy jó...","1","vubletnál","[""vubletnél"",""vubletnál""]","vubletnél","esp trial","11","false"
"html-button-response","102","893651","0.0-11.0-1.45","null","<p>A másik játékos ezt választotta: <b>vubletnél</b>.</p><p>&#10060;</p><p>A válaszaitok <b>nem</b> egyeznek meg.</p>","null","","","","feedback trial","",""
"html-button-response-esp","103","897403","0.0-11.0-0.46","1968","Ez itt egy prately. Elneveztem a kutyámat...","0","pratelynek","[""pratelynek"",""pratelynak""]","pratelynek","esp trial","11","true"
"html-button-response","104","900932","0.0-11.0-1.46","null","<p>A másik játékos ezt választotta: <b>pratelynek</b>.</p><p>&#x2705;</p><p>A te válaszod és a másik játékos válasza <b>megegyeznek</b>.</p>","null","","","","feedback trial","",""
"html-button-response-esp","105","911061","0.0-11.0-0.47","9613","Ez itt egy szihét. Elneveztem a kutyámat...","1","szihétnek","[""szihétnak"",""szihétnek""]","szihétnek","esp trial","11","true"
"html-button-response","106","914566","0.0-11.0-1.47","null","<p>A másik játékos ezt választotta: <b>szihétnek</b>.</p><p>&#x2705;</p><p>A te válaszod és a másik játékos válasza <b>megegyeznek</b>.</p>","null","","","","feedback trial","",""
"html-button-response-esp","107","921205","0.0-11.0-0.48","6138","Ez itt egy sporzem. Elneveztem a kutyámat...","1","sporzemnek","[""sporzemnak"",""sporzemnek""]","sporzemnek","esp trial","11","true"
"html-button-response","108","924715","0.0-11.0-1.48","null","<p>A másik játékos ezt választotta: <b>sporzemnek</b>.</p><p>&#x2705;</p><p>A te válaszod és a másik játékos válasza <b>megegyeznek</b>.</p>","null","","","","feedback trial","",""
"html-button-response-esp","109","943501","0.0-11.0-0.49","18272","Ez itt egy bródesz. Elneveztem a kutyámat...","1","bródesznek","[""bródesznak"",""bródesznek""]","bródesznek","esp trial","11","true"
"html-button-response","110","947007","0.0-11.0-1.49","null","<p>A másik játékos ezt választotta: <b>bródesznek</b>.</p><p>&#x2705;</p><p>A te válaszod és a másik játékos válasza <b>megegyeznek</b>.</p>","null","","","","feedback trial","",""
"html-button-response-esp","111","954334","0.0-11.0-0.50","6813","Ez itt egy bidem. Ott vagyunk a...","0","bidemben","[""bidemben"",""bidemban""]","bidemben","esp trial","11","true"
"html-button-response","112","957850","0.0-11.0-1.50","null","<p>A másik játékos ezt választotta: <b>bidemben</b>.</p><p>&#x2705;</p><p>A te válaszod és a másik játékos válasza <b>megegyeznek</b>.</p>","null","","","","feedback trial","",""
"html-button-response-esp","113","1015206","0.0-11.0-0.51","56844","Ez itt egy brukész. Nincs is jobb egy jó...","1","brukésznál","[""brukésznél"",""brukésznál""]","brukésznél","esp trial","11","false"
"html-button-response","114","1018712","0.0-11.0-1.51","null","<p>A másik játékos ezt választotta: <b>brukésznél</b>.</p><p>&#10060;</p><p>A válaszaitok <b>nem</b> egyeznek meg.</p>","null","","","","feedback trial","",""
"html-button-response-esp","115","1051026","0.0-11.0-0.52","31801","Ez itt egy licegy. Ott vagyunk a...","0","licegyben","[""licegyben"",""licegyban""]","licegyben","esp trial","11","true"
"html-button-response","116","1054530","0.0-11.0-1.52","null","<p>A másik játékos ezt választotta: <b>licegyben</b>.</p><p>&#x2705;</p><p>A te válaszod és a másik játékos válasza <b>megegyeznek</b>.</p>","null","","","","feedback trial","",""
"html-button-response-esp","117","1067323","0.0-11.0-0.53","12278","Ez itt egy jábéz. Ott vagyunk a...","1","jábézban","[""jábézben"",""jábézban""]","jábézban","esp trial","11","true"
"html-button-response","118","1070848","0.0-11.0-1.53","null","<p>A másik játékos ezt választotta: <b>jábézban</b>.</p><p>&#x2705;</p><p>A te válaszod és a másik játékos válasza <b>megegyeznek</b>.</p>","null","","","","feedback trial","",""
"html-button-response","119","1078489","0.0-12.0","7134","<p>A közös játék most véget ért.</p><p>Mielőtt eláruljuk a végső pontszámodat, arra kérlek, játszd a szóválasztós játékot néhány percig egyedül is.</p><p>A feladatod ugyanaz lesz, választani két lehetőség közül.</p><p>Most viszont egyedül kell döntened, hogy te melyiket választanád.</p>","0","","","","","",""
"html-button-response-clever","120","1105792","0.0-13.0-0.0","26792","Ez itt egy bralkép. Ott vagyunk a...","1","bralképben","[""bralképban"",""bralképben""]","","posttest trial","1",""
"html-button-response-clever","121","1109684","0.0-13.0-0.1","3376","Ez itt egy pisély. Ott vagyunk a...","0","pisélyban","[""pisélyban"",""pisélyben""]","","posttest trial","1",""
"html-button-response-clever","122","1113110","0.0-13.0-0.2","2907","Ez itt egy jóbec. Elneveztem a kutyámat...","0","jóbecnek","[""jóbecnek"",""jóbecnak""]","","posttest trial","1",""
"html-button-response-clever","123","1116580","0.0-13.0-0.3","2955","Ez itt egy dábegy. Ott vagyunk a...","0","dábegyban","[""dábegyban"",""dábegyben""]","","posttest trial","1",""
"html-button-response-clever","124","1119460","0.0-13.0-0.4","2365","Ez itt egy dorzéj. Elneveztem a kutyámat...","0","dorzéjnek","[""dorzéjnek"",""dorzéjnak""]","","posttest trial","1",""
"html-button-response-clever","125","1125364","0.0-13.0-0.5","5395","Ez itt egy monveg. Nincs is jobb egy jó...","0","monvegnél","[""monvegnél"",""monvegnál""]","","posttest trial","1",""
"html-button-response-clever","126","1131877","0.0-13.0-0.6","6009","Ez itt egy vorszen. Nincs is jobb egy jó...","0","vorszennál","[""vorszennál"",""vorszennél""]","","posttest trial","1",""
"html-button-response-clever","127","1139556","0.0-13.0-0.7","7173","Ez itt egy zihenc. Elneveztem a kutyámat...","0","zihencnak","[""zihencnak"",""zihencnek""]","","posttest trial","1",""
"html-button-response-clever","128","1145871","0.0-13.0-0.8","5812","Ez itt egy hágyét. Elneveztem a kutyámat...","1","hágyétnak","[""hágyétnek"",""hágyétnak""]","","posttest trial","1",""
"html-button-response-clever","129","1153337","0.0-13.0-0.9","6955","Ez itt egy trismél. Elneveztem a kutyámat...","1","trismélnak","[""trismélnek"",""trismélnak""]","","posttest trial","1",""
"html-button-response-clever","130","1188879","0.0-13.0-0.10","35037","Ez itt egy rapszek. Nincs is jobb egy jó...","1","rapszeknél","[""rapszeknál"",""rapszeknél""]","","posttest trial","1",""
"html-button-response-clever","131","1216204","0.0-13.0-0.11","26818","Ez itt egy tosély. Ott vagyunk a...","0","tosélyban","[""tosélyban"",""tosélyben""]","","posttest trial","1",""
"html-button-response-clever","132","1219691","0.0-13.0-0.12","2976","Ez itt egy spanél. Nincs is jobb egy jó...","0","spanélnál","[""spanélnál"",""spanélnél""]","","posttest trial","1",""
"html-button-response-clever","133","1231809","0.0-13.0-0.13","11617","Ez itt egy kalréz. Ott vagyunk a...","0","kalrézben","[""kalrézben"",""kalrézban""]","","posttest trial","1",""
"html-button-response-clever","134","1234662","0.0-13.0-0.14","2342","Ez itt egy danét. Nincs is jobb egy jó...","0","danétnél","[""danétnél"",""danétnál""]","","posttest trial","1",""
"html-button-response-clever","135","1241134","0.0-13.0-0.15","5967","Ez itt egy spicet. Elneveztem a kutyámat...","0","spicetnek","[""spicetnek"",""spicetnak""]","","posttest trial","1",""
"html-button-response-clever","136","1247973","0.0-13.0-0.16","6335","Ez itt egy zsáder. Ott vagyunk a...","0","zsáderban","[""zsáderban"",""zsáderben""]","","posttest trial","1",""
"html-button-response-clever","137","1253761","0.0-13.0-0.17","5283","Ez itt egy pivéd. Ott vagyunk a...","0","pivédban","[""pivédban"",""pivédben""]","","posttest trial","1",""
"html-button-response-clever","138","1257531","0.0-13.0-0.18","3262","Ez itt egy trájeg. Ott vagyunk a...","1","trájegban","[""trájegben"",""trájegban""]","","posttest trial","1",""
"html-button-response-clever","139","1265141","0.0-13.0-0.19","7097","Ez itt egy nyítem. Ott vagyunk a...","0","nyítemban","[""nyítemban"",""nyítemben""]","","posttest trial","1",""
"html-button-response-clever","140","1269710","0.0-13.0-0.20","4059","Ez itt egy pítend. Ott vagyunk a...","0","pítendben","[""pítendben"",""pítendban""]","","posttest trial","1",""
"html-button-response-clever","141","1320678","0.0-13.0-0.21","50464","Ez itt egy darhén. Ott vagyunk a...","0","darhénben","[""darhénben"",""darhénban""]","","posttest trial","1",""
"html-button-response-clever","142","1325878","0.0-13.0-0.22","4686","Ez itt egy nyamet. Ott vagyunk a...","0","nyametban","[""nyametban"",""nyametben""]","","posttest trial","1",""
"html-button-response-clever","143","1328478","0.0-13.0-0.23","2090","Ez itt egy zsádév. Elneveztem a kutyámat...","0","zsádévnek","[""zsádévnek"",""zsádévnak""]","","posttest trial","1",""
"html-button-response-clever","144","1332245","0.0-13.0-0.24","3263","Ez itt egy pijél. Nincs is jobb egy jó...","0","pijélnál","[""pijélnál"",""pijélnél""]","","posttest trial","1",""
"html-button-response-clever","145","1339763","0.0-13.0-0.25","7011","Ez itt egy fájéz. Ott vagyunk a...","1","fájézban","[""fájézben"",""fájézban""]","","posttest trial","1",""
"html-button-response-clever","146","1341931","0.0-13.0-0.26","1665","Ez itt egy sprivenc. Nincs is jobb egy jó...","0","sprivencnál","[""sprivencnál"",""sprivencnél""]","","posttest trial","1",""
"html-button-response-clever","147","1354980","0.0-13.0-0.27","12547","Ez itt egy spábét. Ott vagyunk a...","1","spábétben","[""spábétban"",""spábétben""]","","posttest trial","1",""
"html-button-response-clever","148","1361231","0.0-13.0-0.28","5749","Ez itt egy gúden. Ott vagyunk a...","0","gúdenban","[""gúdenban"",""gúdenben""]","","posttest trial","1",""
"html-button-response-clever","149","1365755","0.0-13.0-0.29","4020","Ez itt egy braszenc. Nincs is jobb egy jó...","0","braszencnál","[""braszencnál"",""braszencnél""]","","posttest trial","1",""
"html-button-response-clever","150","1370482","0.0-13.0-0.30","4221","Ez itt egy garcép. Nincs is jobb egy jó...","1","garcépnél","[""garcépnál"",""garcépnél""]","","posttest trial","1",""
"html-button-response-clever","151","1374303","0.0-13.0-0.31","3319","Ez itt egy ítens. Ott vagyunk a...","0","ítensban","[""ítensban"",""ítensben""]","","posttest trial","1",""
"html-button-response-clever","152","1395249","0.0-13.0-0.32","20437","Ez itt egy kalhész. Elneveztem a kutyámat...","1","kalhésznek","[""kalhésznak"",""kalhésznek""]","","posttest trial","1",""
"html-button-response-clever","153","1418080","0.0-13.0-0.33","22330","Ez itt egy dihely. Elneveztem a kutyámat...","0","dihelynak","[""dihelynak"",""dihelynek""]","","posttest trial","1",""
"html-button-response-clever","154","1424854","0.0-13.0-0.34","6266","Ez itt egy jukél. Nincs is jobb egy jó...","0","jukélnél","[""jukélnél"",""jukélnál""]","","posttest trial","1",""
"html-button-response-clever","155","1426991","0.0-13.0-0.35","1633","Ez itt egy priszec. Ott vagyunk a...","1","priszecben","[""priszecban"",""priszecben""]","","posttest trial","1",""
"html-button-response-clever","156","1429501","0.0-13.0-0.36","2007","Ez itt egy nyupér. Nincs is jobb egy jó...","0","nyupérnál","[""nyupérnál"",""nyupérnél""]","","posttest trial","1",""
"html-button-response-clever","157","1432800","0.0-13.0-0.37","2797","Ez itt egy narem. Ott vagyunk a...","1","naremben","[""naremban"",""naremben""]","","posttest trial","1",""
"html-button-response-clever","158","1434956","0.0-13.0-0.38","1654","Ez itt egy kátel. Elneveztem a kutyámat...","0","kátelnek","[""kátelnek"",""kátelnak""]","","posttest trial","1",""
"html-button-response-clever","159","1436798","0.0-13.0-0.39","1334","Ez itt egy ronszek. Ott vagyunk a...","0","ronszekben","[""ronszekben"",""ronszekban""]","","posttest trial","1",""
"html-button-response-clever","160","1438565","0.0-13.0-0.40","1259","Ez itt egy zsúdel. Elneveztem a kutyámat...","0","zsúdelnak","[""zsúdelnak"",""zsúdelnek""]","","posttest trial","1",""
"html-button-response-clever","161","1440373","0.0-13.0-0.41","1301","Ez itt egy lorzens. Nincs is jobb egy jó...","0","lorzensnál","[""lorzensnál"",""lorzensnél""]","","posttest trial","1",""
"html-button-response-clever","162","1442108","0.0-13.0-0.42","1220","Ez itt egy klingesz. Ott vagyunk a...","1","klingeszban","[""klingeszben"",""klingeszban""]","","posttest trial","1",""
"html-button-response-clever","163","1443745","0.0-13.0-0.43","1135","Ez itt egy klosét. Elneveztem a kutyámat...","0","klosétnek","[""klosétnek"",""klosétnak""]","","posttest trial","1",""
"html-button-response-clever","164","1444848","0.0-13.0-0.44","588","Ez itt egy zopély. Nincs is jobb egy jó...","0","zopélynél","[""zopélynél"",""zopélynál""]","","posttest trial","1",""
"html-button-response-clever","165","1445941","0.0-13.0-0.45","590","Ez itt egy bupéz. Ott vagyunk a...","1","bupézban","[""bupézben"",""bupézban""]","","posttest trial","1",""
"html-button-response-clever","166","1448409","0.0-13.0-0.46","1967","Ez itt egy luméz. Ott vagyunk a...","1","lumézben","[""lumézban"",""lumézben""]","","posttest trial","1",""
"html-button-response-clever","167","1452396","0.0-13.0-0.47","3482","Ez itt egy spumény. Elneveztem a kutyámat...","0","spuménynek","[""spuménynek"",""spuménynak""]","","posttest trial","1",""
"html-button-response-clever","168","1456025","0.0-13.0-0.48","3118","Ez itt egy dalenc. Nincs is jobb egy jó...","0","dalencnál","[""dalencnál"",""dalencnél""]","","posttest trial","1",""
"html-button-response-clever","169","1458030","0.0-13.0-0.49","1503","Ez itt egy kaszép. Elneveztem a kutyámat...","0","kaszépnak","[""kaszépnak"",""kaszépnek""]","","posttest trial","1",""
"html-button-response-clever","170","1459079","0.0-13.0-0.50","547","Ez itt egy zsigén. Nincs is jobb egy jó...","1","zsigénnál","[""zsigénnél"",""zsigénnál""]","","posttest trial","1",""
"html-button-response-clever","171","1460414","0.0-13.0-0.51","833","Ez itt egy incéj. Elneveztem a kutyámat...","0","incéjnek","[""incéjnek"",""incéjnak""]","","posttest trial","1",""
"html-button-response-clever","172","1461837","0.0-13.0-0.52","918","Ez itt egy brindez. Elneveztem a kutyámat...","0","brindeznak","[""brindeznak"",""brindeznek""]","","posttest trial","1",""
"html-button-response-clever","173","1463037","0.0-13.0-0.53","694","Ez itt egy sortem. Nincs is jobb egy jó...","1","sortemnál","[""sortemnél"",""sortemnál""]","","posttest trial","1",""
"html-button-response","174","1468911","0.0-14.0","5373","<p> Vége a játéknak. A teljes pontszámod 38/54.</p><p> Szép munka! &#128526;&#128526;&#128526;</p><p>A Befejezés gomb megnyomása után bezárhatod a böngészőablakot.</p>","0","","","","","",""
"html-keyboard-response","175","1474441","0.0-15.0","null","<div class=""message"">
         <p>Egy kis türelmet kérünk, amíg elmentjük az adatokat...</p>
         </div>","null","","","","","",""
