"trial_type","trial_index","time_elapsed","internal_node_id","rt","stimulus","response","response_string","choices","esp_response","trial_kind","list_number","esp_match"
"pavlovia","0","795","0.0-0.0","","","","","","","","",""
"html-button-response","1","31783","0.0-1.0","30475","<p>Kedves Résztvevő! A Budapesti Műszaki és Gazdaságtudományi Egyetem Kognitív Tudományi Tanszékének kutatásában való részvételed kérjük. A kutatásban azt vizsgáljuk, hogy a magyar anyanyelvűek hogyan használnak bizonyos szóalakokat, és hogy milyen képük van arról, hogy mások hogyan használják, hogyan képzik a szavakat. Ez hozzásegít bennünket ahhoz, hogy jobban megértsük, hogyan dolgozza fel és tárolja a nyelvet az emberi agy, és hogyan működnek, hogyan változnak egy adott közösség nyelvi konvenciói.</p><p>A vizsgálat egy rövid számítógépes feladatból fog állni. A kutatásban való részvétel önkéntes, a részvételi szándék bármikor visszavonható. A résztvevők eredményeit név nélkül kezeljük, így nem beazonosíthatók az adatok feldolgozása során. Minden személyes adatot az EU általános adatvédelmi rendeletének (GDPR) megfelelően kezelünk és legfeljebb öt éven belül megsemmisítünk. A vizsgálat jellemzően húsz percet vesz igénybe.</p><p>Kutatásvezető:</p><p>Dr. Rácz Péter, tudományos munkatárs, BME KTT</p><p>e-mail: racz.peter.marton@ttk.bme.hu</p>","0","","","","","",""
"html-button-response","2","88993","0.0-2.0","56697","<p>A kísérletben szavakat fogsz látni. Ezek között lesznek olyanok, amelyeket ismersz, de előfordulhatnak olyanok is, amelyeket nem ismersz, sőt, vannak köztük kitalált szavak is. Minden szónál látni fogsz toldalékolt alakokat. A te feladatod az lesz, hogy minden szóhoz kiválaszd azt a toldalékolt alakot, amely a te számodra ismerősebben, természetesebben hangzik. Rossz válaszok nincsenek, mert van olyan, hogy különböző embereknek más és más szó tűnik jobb választásnak. A választ úgy tudod majd kiválasztani, ha rákattintasz.</p><p>Ebben a szóválasztós játékban egy másik játékossal együtt veszel majd részt. A másik játékos is minden esetben azok közül a lehetőségek közül válogathat, mint te. Kettőtök feladata az, hogy ugyanazt a lehetőséget válasszátok minden esetben. Ahhoz, hogy ez sikerüljön, neked figyelned kell arra, hogy a másik játékos milyen válaszokat ad, és ennek alapján meg kell tippelned, hogyan választ legközelebb. Ha eltalálod, akkor pontot kapsz.</p>","0","","","","","",""
"html-button-response","3","126026","0.0-3.0","36519","<p>Kérjük, olvasd el az alábbi nyilatkozatot, és amennyiben egyetértesz vele, nyomj a Beleegyezés gombra!</p><p>Kijelentem, hogy magyar anyanyelvű személyként önként veszek részt a BME KTT kísérletében. A kutatás céljával és folyamatával kapcsolatban elegendő tájékoztatást kaptam, lehetőségem volt kérdések feltételére, és esetleges kérdéseimre megfelelő válaszokat kaptam. A tájékoztatás alapján elegendő mennyiségű információ áll a rendelkezésemre, hogy eldönthessem, részt kívánok-e venni a kutatásban.</p><p>Tisztában vagyok vele, hogy részvételi szándékomat és adataimat bármikor, indoklás nélkül visszavonhatom.</p><p>Értem és tudomásul veszem, hogy a kutatás tudományos célokat szolgál, és az általam szolgáltatott adatokat a BME kizárólag kutatási célból használja fel. Tudomásul veszem, hogy eredményeimet a többi résztvevő eredményeivel együtt kezelik, így egyéni teljesítményemről visszajelzést, szakvéleményt nem kapok.</p><p>Megértettem, hogy adataim kezelését illetően a BME az EU általános adatvédelmi rendelete (GDPR), a hatályos adatvédelmi törvény és a nemzetközi kutatás-etikai alapelvek szerint jár el. Eredményeim anonim módon kerülnek feldolgozásra, és a kutatás résztvevői az azonosításomra alkalmas adataimat harmadik félnek nem szolgáltatják ki. Engedélyezem a BME számára a jelen kutatásban felvett adataim feldolgozását és tárolását, beleértve azok későbbi kutatásokhoz való felhasználását is. Személyes adataim kezelésével kapcsolatban tájékoztatást kérhetek a kutatás résztvevőitől, az adatkezelés ellen tiltakozhatok, kérhetem személyes adataim helyesbítését, törlését vagy zárolását, valamint jogorvoslatért a Nemzeti Adatvédelmi és Információszabadság Hatósághoz fordulhatok.</p><p>Kijelentem, hogy a kutatásban való részvételem körülményeiről részletes tájékoztatást kaptam, és a feltételeket elfogadom.</p>","0","","","","","",""
"survey-text","4","189260","0.0-4.0","62705","","{""Q0"":""CRVLXB"",""Q1"":""nő"",""Q2"":""1982.12.14."",""Q3"":""20""}","","","","","",""
"html-button-response","5","215806","0.0-5.0","26038","<p>Ebben a játékban szavakat kell toldalékolni.</p> <p>Minden körben mutatunk majd egy példamondatot, amiben lesz egy szó.</p> <p>Alatta jön egy második mondat, ezt a mondatot neked kell majd befejezni, ugyanezzel a szóval.</p> <p>Nem biztos, hogy a szó eleve ismerős lesz számodra!</p> <p>Minden mondathoz adunk két lehetőséget, ezeket balra és jobbra látod majd.</p> <p>A játék kb. negyedóráig-húsz percig tart.</p>","0","","","","","",""
"html-button-response","6","231908","0.0-6.0","15593","<p>Nézzünk egy példát!</p> <p>A példamondat: ""Ez itt egy blumbnyeg.""</p><p>Neked ezt a mondatot kell befejezned: ""Ott vagyunk a...""</p><p>A lehetőségek pedig ezek:</p>","0","","","","","",""
"html-button-response","7","241675","0.0-7.0","9255","<p>Nagyon jó.</p><p>Ezt a játékot nem egyedül fogod játszani, hanem egy másik játékossal.</p><p>Mielőtt továbblépünk, összekapcsolunk titeket egymással.</p><p>Ez igénybe vehet néhány másodpercet, amihez szíves türelmed kérjük.</p>","0","","","","","",""
"html-button-response","8","247414","0.0-8.0","null","<p>Csatlakozás a másik játékoshoz...</p>","null","","","","","",""
"html-button-response","9","249936","0.0-9.0","null","<p> Sikeres kapcsolódás!</p>","null","","","","","",""
"html-button-response","10","260446","0.0-10.0","null","<p>A következőkben ketten játsszátok a szóválasztós játékot.</p><p>A feladatotok az lesz, hogy minden körben <b>ugyanazt</b> a szót válasszátok.</p><p>Minden ilyen egyező válaszért pontot kaptok.</p><p>Próbáld meg kitalálni, mit választ a másik játékos!</p><p>Bármikor választhatsz, a körnek akkor van vége, ha mindketten döntöttetek.</p><p>Sok sikert!</p>","null","","","","","",""
"html-button-response-esp","11","269635","0.0-11.0-0.0","8674","Ez itt egy kalhész. Elneveztem a kutyámat...","0","kalhésznak","[""kalhésznak"",""kalhésznek""]","kalhésznak","esp trial","0","true"
"html-button-response","12","273140","0.0-11.0-1.0","null","<p>A másik játékos ezt választotta: <b>kalhésznak</b>.</p><p>&#x2705;</p><p>A te válaszod és a másik játékos válasza <b>megegyeznek</b>.</p>","null","","","","feedback trial","",""
"html-button-response-esp","13","281051","0.0-11.0-0.1","7402","Ez itt egy danét. Nincs is jobb egy jó...","1","danétnál","[""danétnél"",""danétnál""]","danétnél","esp trial","0","false"
"html-button-response","14","284568","0.0-11.0-1.1","null","<p>A másik játékos ezt választotta: <b>danétnél</b>.</p><p>&#10060;</p><p>A válaszaitok <b>nem</b> egyeznek meg.</p>","null","","","","feedback trial","",""
"html-button-response-esp","15","293082","0.0-11.0-0.2","8012","Ez itt egy rapszek. Nincs is jobb egy jó...","1","rapszeknél","[""rapszeknál"",""rapszeknél""]","rapszeknál","esp trial","0","false"
"html-button-response","16","296609","0.0-11.0-1.2","null","<p>A másik játékos ezt választotta: <b>rapszeknál</b>.</p><p>&#10060;</p><p>A válaszaitok <b>nem</b> egyeznek meg.</p>","null","","","","feedback trial","",""
"html-button-response-esp","17","304464","0.0-11.0-0.3","7348","Ez itt egy braszenc. Nincs is jobb egy jó...","0","braszencnál","[""braszencnál"",""braszencnél""]","braszencnál","esp trial","0","true"
"html-button-response","18","307972","0.0-11.0-1.3","null","<p>A másik játékos ezt választotta: <b>braszencnál</b>.</p><p>&#x2705;</p><p>A te válaszod és a másik játékos válasza <b>megegyeznek</b>.</p>","null","","","","feedback trial","",""
"html-button-response-esp","19","315989","0.0-11.0-0.4","7511","Ez itt egy pisély. Ott vagyunk a...","1","pisélyben","[""pisélyban"",""pisélyben""]","pisélyban","esp trial","0","false"
"html-button-response","20","319508","0.0-11.0-1.4","null","<p>A másik játékos ezt választotta: <b>pisélyban</b>.</p><p>&#10060;</p><p>A válaszaitok <b>nem</b> egyeznek meg.</p>","null","","","","feedback trial","",""
"html-button-response-esp","21","339973","0.0-11.0-0.5","19965","Ez itt egy kátel. Elneveztem a kutyámat...","1","kátelnek","[""kátelnak"",""kátelnek""]","kátelnak","esp trial","0","false"
"html-button-response","22","343482","0.0-11.0-1.5","null","<p>A másik játékos ezt választotta: <b>kátelnak</b>.</p><p>&#10060;</p><p>A válaszaitok <b>nem</b> egyeznek meg.</p>","null","","","","feedback trial","",""
"html-button-response-esp","23","352161","0.0-11.0-0.6","8162","Ez itt egy nyamet. Ott vagyunk a...","1","nyametben","[""nyametban"",""nyametben""]","nyametban","esp trial","0","false"
"html-button-response","24","355669","0.0-11.0-1.6","null","<p>A másik játékos ezt választotta: <b>nyametban</b>.</p><p>&#10060;</p><p>A válaszaitok <b>nem</b> egyeznek meg.</p>","null","","","","feedback trial","",""
"html-button-response-esp","25","362783","0.0-11.0-0.7","6598","Ez itt egy nyupér. Nincs is jobb egy jó...","1","nyupérnál","[""nyupérnél"",""nyupérnál""]","nyupérnél","esp trial","0","false"
"html-button-response","26","366303","0.0-11.0-1.7","null","<p>A másik játékos ezt választotta: <b>nyupérnél</b>.</p><p>&#10060;</p><p>A válaszaitok <b>nem</b> egyeznek meg.</p>","null","","","","feedback trial","",""
"html-button-response-esp","27","375249","0.0-11.0-0.8","8438","Ez itt egy gúden. Ott vagyunk a...","1","gúdenban","[""gúdenben"",""gúdenban""]","gúdenban","esp trial","0","true"
"html-button-response","28","378772","0.0-11.0-1.8","null","<p>A másik játékos ezt választotta: <b>gúdenban</b>.</p><p>&#x2705;</p><p>A te válaszod és a másik játékos válasza <b>megegyeznek</b>.</p>","null","","","","feedback trial","",""
"html-button-response-esp","29","385635","0.0-11.0-0.9","5621","Ez itt egy spanél. Nincs is jobb egy jó...","1","spanélnál","[""spanélnél"",""spanélnál""]","spanélnél","esp trial","0","false"
"html-button-response","30","389153","0.0-11.0-1.9","null","<p>A másik játékos ezt választotta: <b>spanélnél</b>.</p><p>&#10060;</p><p>A válaszaitok <b>nem</b> egyeznek meg.</p>","null","","","","feedback trial","",""
"html-button-response-esp","31","400366","0.0-11.0-0.10","10700","Ez itt egy incéj. Elneveztem a kutyámat...","0","incéjnek","[""incéjnek"",""incéjnak""]","incéjnak","esp trial","0","false"
"html-button-response","32","403886","0.0-11.0-1.10","null","<p>A másik játékos ezt választotta: <b>incéjnak</b>.</p><p>&#10060;</p><p>A válaszaitok <b>nem</b> egyeznek meg.</p>","null","","","","feedback trial","",""
"html-button-response-esp","33","411724","0.0-11.0-0.11","7337","Ez itt egy klingesz. Ott vagyunk a...","0","klingeszben","[""klingeszben"",""klingeszban""]","klingeszban","esp trial","0","false"
"html-button-response","34","415241","0.0-11.0-1.11","null","<p>A másik játékos ezt választotta: <b>klingeszban</b>.</p><p>&#10060;</p><p>A válaszaitok <b>nem</b> egyeznek meg.</p>","null","","","","feedback trial","",""
"html-button-response-esp","35","424321","0.0-11.0-0.12","8566","Ez itt egy hágyét. Elneveztem a kutyámat...","0","hágyétnak","[""hágyétnak"",""hágyétnek""]","hágyétnek","esp trial","0","false"
"html-button-response","36","427838","0.0-11.0-1.12","null","<p>A másik játékos ezt választotta: <b>hágyétnek</b>.</p><p>&#10060;</p><p>A válaszaitok <b>nem</b> egyeznek meg.</p>","null","","","","feedback trial","",""
"html-button-response-esp","37","434707","0.0-11.0-0.13","5265","Ez itt egy nyítem. Ott vagyunk a...","1","nyítemben","[""nyítemban"",""nyítemben""]","nyítemban","esp trial","0","false"
"html-button-response","38","438227","0.0-11.0-1.13","null","<p>A másik játékos ezt választotta: <b>nyítemban</b>.</p><p>&#10060;</p><p>A válaszaitok <b>nem</b> egyeznek meg.</p>","null","","","","feedback trial","",""
"html-button-response-esp","39","445087","0.0-11.0-0.14","5042","Ez itt egy monveg. Nincs is jobb egy jó...","0","monvegnál","[""monvegnál"",""monvegnél""]","monvegnál","esp trial","0","true"
"html-button-response","40","448604","0.0-11.0-1.14","null","<p>A másik játékos ezt választotta: <b>monvegnál</b>.</p><p>&#x2705;</p><p>A te válaszod és a másik játékos válasza <b>megegyeznek</b>.</p>","null","","","","feedback trial","",""
"html-button-response-esp","41","455473","0.0-11.0-0.15","5880","Ez itt egy narem. Ott vagyunk a...","0","naremban","[""naremban"",""naremben""]","naremban","esp trial","0","true"
"html-button-response","42","458989","0.0-11.0-1.15","null","<p>A másik játékos ezt választotta: <b>naremban</b>.</p><p>&#x2705;</p><p>A te válaszod és a másik játékos válasza <b>megegyeznek</b>.</p>","null","","","","feedback trial","",""
"html-button-response-esp","43","466944","0.0-11.0-0.16","7452","Ez itt egy pijél. Nincs is jobb egy jó...","1","pijélnál","[""pijélnél"",""pijélnál""]","pijélnál","esp trial","0","true"
"html-button-response","44","470465","0.0-11.0-1.16","null","<p>A másik játékos ezt választotta: <b>pijélnál</b>.</p><p>&#x2705;</p><p>A te válaszod és a másik játékos válasza <b>megegyeznek</b>.</p>","null","","","","feedback trial","",""
"html-button-response-esp","45","477330","0.0-11.0-0.17","5781","Ez itt egy jukél. Nincs is jobb egy jó...","1","jukélnál","[""jukélnél"",""jukélnál""]","jukélnál","esp trial","0","true"
"html-button-response","46","480844","0.0-11.0-1.17","null","<p>A másik játékos ezt választotta: <b>jukélnál</b>.</p><p>&#x2705;</p><p>A te válaszod és a másik játékos válasza <b>megegyeznek</b>.</p>","null","","","","feedback trial","",""
"html-button-response-esp","47","491030","0.0-11.0-0.18","9676","Ez itt egy trismél. Elneveztem a kutyámat...","0","trismélnak","[""trismélnak"",""trismélnek""]","trismélnak","esp trial","0","true"
"html-button-response","48","494541","0.0-11.0-1.18","null","<p>A másik játékos ezt választotta: <b>trismélnak</b>.</p><p>&#x2705;</p><p>A te válaszod és a másik játékos válasza <b>megegyeznek</b>.</p>","null","","","","feedback trial","",""
"html-button-response-esp","49","501750","0.0-11.0-0.19","6703","Ez itt egy dalenc. Nincs is jobb egy jó...","1","dalencnál","[""dalencnél"",""dalencnál""]","dalencnál","esp trial","0","true"
"html-button-response","50","505265","0.0-11.0-1.19","null","<p>A másik játékos ezt választotta: <b>dalencnál</b>.</p><p>&#x2705;</p><p>A te válaszod és a másik játékos válasza <b>megegyeznek</b>.</p>","null","","","","feedback trial","",""
"html-button-response-esp","51","517043","0.0-11.0-0.20","11276","Ez itt egy priszec. Ott vagyunk a...","0","priszecban","[""priszecban"",""priszecben""]","priszecban","esp trial","0","true"
"html-button-response","52","520571","0.0-11.0-1.20","null","<p>A másik játékos ezt választotta: <b>priszecban</b>.</p><p>&#x2705;</p><p>A te válaszod és a másik játékos válasza <b>megegyeznek</b>.</p>","null","","","","feedback trial","",""
"html-button-response-esp","53","533625","0.0-11.0-0.21","12547","Ez itt egy zsúdel. Elneveztem a kutyámat...","1","zsúdelnak","[""zsúdelnek"",""zsúdelnak""]","zsúdelnak","esp trial","0","true"
"html-button-response","54","537156","0.0-11.0-1.21","null","<p>A másik játékos ezt választotta: <b>zsúdelnak</b>.</p><p>&#x2705;</p><p>A te válaszod és a másik játékos válasza <b>megegyeznek</b>.</p>","null","","","","feedback trial","",""
"html-button-response-esp","55","544331","0.0-11.0-0.22","6668","Ez itt egy sortem. Nincs is jobb egy jó...","1","sortemnál","[""sortemnél"",""sortemnál""]","sortemnál","esp trial","0","true"
"html-button-response","56","547854","0.0-11.0-1.22","null","<p>A másik játékos ezt választotta: <b>sortemnál</b>.</p><p>&#x2705;</p><p>A te válaszod és a másik játékos válasza <b>megegyeznek</b>.</p>","null","","","","feedback trial","",""
"html-button-response-esp","57","554731","0.0-11.0-0.23","5846","Ez itt egy pítend. Ott vagyunk a...","0","pítendban","[""pítendban"",""pítendben""]","pítendban","esp trial","0","true"
"html-button-response","58","558250","0.0-11.0-1.23","null","<p>A másik játékos ezt választotta: <b>pítendban</b>.</p><p>&#x2705;</p><p>A te válaszod és a másik játékos válasza <b>megegyeznek</b>.</p>","null","","","","feedback trial","",""
"html-button-response-esp","59","568499","0.0-11.0-0.24","9733","Ez itt egy garcép. Nincs is jobb egy jó...","1","garcépnál","[""garcépnél"",""garcépnál""]","garcépnél","esp trial","0","false"
"html-button-response","60","572011","0.0-11.0-1.24","null","<p>A másik játékos ezt választotta: <b>garcépnél</b>.</p><p>&#10060;</p><p>A válaszaitok <b>nem</b> egyeznek meg.</p>","null","","","","feedback trial","",""
"html-button-response-esp","61","578880","0.0-11.0-0.25","5020","Ez itt egy tosély. Ott vagyunk a...","1","tosélyban","[""tosélyben"",""tosélyban""]","tosélyben","esp trial","0","false"
"html-button-response","62","582401","0.0-11.0-1.25","null","<p>A másik játékos ezt választotta: <b>tosélyben</b>.</p><p>&#10060;</p><p>A válaszaitok <b>nem</b> egyeznek meg.</p>","null","","","","feedback trial","",""
"html-button-response-esp","63","590006","0.0-11.0-0.26","7104","Ez itt egy lorzens. Nincs is jobb egy jó...","0","lorzensnál","[""lorzensnál"",""lorzensnél""]","lorzensnál","esp trial","0","true"
"html-button-response","64","593523","0.0-11.0-1.26","null","<p>A másik játékos ezt választotta: <b>lorzensnál</b>.</p><p>&#x2705;</p><p>A te válaszod és a másik játékos válasza <b>megegyeznek</b>.</p>","null","","","","feedback trial","",""
"html-button-response-esp","65","604383","0.0-11.0-0.27","10359","Ez itt egy zsigén. Nincs is jobb egy jó...","1","zsigénnél","[""zsigénnál"",""zsigénnél""]","zsigénnál","esp trial","0","false"
"html-button-response","66","607891","0.0-11.0-1.27","null","<p>A másik játékos ezt választotta: <b>zsigénnál</b>.</p><p>&#10060;</p><p>A válaszaitok <b>nem</b> egyeznek meg.</p>","null","","","","feedback trial","",""
"html-button-response-esp","67","614755","0.0-11.0-0.28","4136","Ez itt egy zsáder. Ott vagyunk a...","1","zsáderban","[""zsáderben"",""zsáderban""]","zsáderban","esp trial","0","true"
"html-button-response","68","618270","0.0-11.0-1.28","null","<p>A másik játékos ezt választotta: <b>zsáderban</b>.</p><p>&#x2705;</p><p>A te válaszod és a másik játékos válasza <b>megegyeznek</b>.</p>","null","","","","feedback trial","",""
"html-button-response-esp","69","625624","0.0-11.0-0.29","6847","Ez itt egy zsádév. Elneveztem a kutyámat...","0","zsádévnak","[""zsádévnak"",""zsádévnek""]","zsádévnek","esp trial","0","false"
"html-button-response","70","629147","0.0-11.0-1.29","null","<p>A másik játékos ezt választotta: <b>zsádévnek</b>.</p><p>&#10060;</p><p>A válaszaitok <b>nem</b> egyeznek meg.</p>","null","","","","feedback trial","",""
"html-button-response-esp","71","636017","0.0-11.0-0.30","4443","Ez itt egy ronszek. Ott vagyunk a...","0","ronszekben","[""ronszekben"",""ronszekban""]","ronszekban","esp trial","0","false"
"html-button-response","72","639545","0.0-11.0-1.30","null","<p>A másik játékos ezt választotta: <b>ronszekban</b>.</p><p>&#10060;</p><p>A válaszaitok <b>nem</b> egyeznek meg.</p>","null","","","","feedback trial","",""
"html-button-response-esp","73","646404","0.0-11.0-0.31","4657","Ez itt egy kalréz. Ott vagyunk a...","0","kalrézban","[""kalrézban"",""kalrézben""]","kalrézben","esp trial","0","false"
"html-button-response","74","649922","0.0-11.0-1.31","null","<p>A másik játékos ezt választotta: <b>kalrézben</b>.</p><p>&#10060;</p><p>A válaszaitok <b>nem</b> egyeznek meg.</p>","null","","","","feedback trial","",""
"html-button-response-esp","75","661027","0.0-11.0-0.32","10600","Ez itt egy spábét. Ott vagyunk a...","0","spábétben","[""spábétben"",""spábétban""]","spábétben","esp trial","0","true"
"html-button-response","76","664542","0.0-11.0-1.32","null","<p>A másik játékos ezt választotta: <b>spábétben</b>.</p><p>&#x2705;</p><p>A te válaszod és a másik játékos válasza <b>megegyeznek</b>.</p>","null","","","","feedback trial","",""
"html-button-response-esp","77","671402","0.0-11.0-0.33","5611","Ez itt egy bupéz. Ott vagyunk a...","0","bupézban","[""bupézban"",""bupézben""]","bupézben","esp trial","0","false"
"html-button-response","78","674924","0.0-11.0-1.33","null","<p>A másik játékos ezt választotta: <b>bupézben</b>.</p><p>&#10060;</p><p>A válaszaitok <b>nem</b> egyeznek meg.</p>","null","","","","feedback trial","",""
"html-button-response-esp","79","681778","0.0-11.0-0.34","5435","Ez itt egy dihely. Elneveztem a kutyámat...","0","dihelynek","[""dihelynek"",""dihelynak""]","dihelynak","esp trial","0","false"
"html-button-response","80","685295","0.0-11.0-1.34","null","<p>A másik játékos ezt választotta: <b>dihelynak</b>.</p><p>&#10060;</p><p>A válaszaitok <b>nem</b> egyeznek meg.</p>","null","","","","feedback trial","",""
"html-button-response-esp","81","692175","0.0-11.0-0.35","4346","Ez itt egy dorzéj. Elneveztem a kutyámat...","0","dorzéjnak","[""dorzéjnak"",""dorzéjnek""]","dorzéjnak","esp trial","0","true"
"html-button-response","82","695692","0.0-11.0-1.35","null","<p>A másik játékos ezt választotta: <b>dorzéjnak</b>.</p><p>&#x2705;</p><p>A te válaszod és a másik játékos válasza <b>megegyeznek</b>.</p>","null","","","","feedback trial","",""
"html-button-response-esp","83","708003","0.0-11.0-0.36","11804","Ez itt egy dábegy. Ott vagyunk a...","1","dábegyban","[""dábegyben"",""dábegyban""]","dábegyban","esp trial","0","true"
"html-button-response","84","711521","0.0-11.0-1.36","null","<p>A másik játékos ezt választotta: <b>dábegyban</b>.</p><p>&#x2705;</p><p>A te válaszod és a másik játékos válasza <b>megegyeznek</b>.</p>","null","","","","feedback trial","",""
"html-button-response-esp","85","718383","0.0-11.0-0.37","5770","Ez itt egy bralkép. Ott vagyunk a...","1","bralképban","[""bralképben"",""bralképban""]","bralképban","esp trial","0","true"
"html-button-response","86","721904","0.0-11.0-1.37","null","<p>A másik játékos ezt választotta: <b>bralképban</b>.</p><p>&#x2705;</p><p>A te válaszod és a másik játékos válasza <b>megegyeznek</b>.</p>","null","","","","feedback trial","",""
"html-button-response-esp","87","730306","0.0-11.0-0.38","7890","Ez itt egy pivéd. Ott vagyunk a...","1","pivédben","[""pivédban"",""pivédben""]","pivédban","esp trial","0","false"
"html-button-response","88","733825","0.0-11.0-1.38","null","<p>A másik játékos ezt választotta: <b>pivédban</b>.</p><p>&#10060;</p><p>A válaszaitok <b>nem</b> egyeznek meg.</p>","null","","","","feedback trial","",""
"html-button-response-esp","89","740690","0.0-11.0-0.39","5844","Ez itt egy darhén. Ott vagyunk a...","1","darhénban","[""darhénben"",""darhénban""]","darhénben","esp trial","0","false"
"html-button-response","90","744215","0.0-11.0-1.39","null","<p>A másik játékos ezt választotta: <b>darhénben</b>.</p><p>&#10060;</p><p>A válaszaitok <b>nem</b> egyeznek meg.</p>","null","","","","feedback trial","",""
"html-button-response-esp","91","756438","0.0-11.0-0.40","11720","Ez itt egy sprivenc. Nincs is jobb egy jó...","1","sprivencnél","[""sprivencnál"",""sprivencnél""]","sprivencnál","esp trial","0","false"
"html-button-response","92","759946","0.0-11.0-1.40","null","<p>A másik játékos ezt választotta: <b>sprivencnál</b>.</p><p>&#10060;</p><p>A válaszaitok <b>nem</b> egyeznek meg.</p>","null","","","","feedback trial","",""
"html-button-response-esp","93","766808","0.0-11.0-0.41","4362","Ez itt egy vorszen. Nincs is jobb egy jó...","0","vorszennál","[""vorszennál"",""vorszennél""]","vorszennál","esp trial","0","true"
"html-button-response","94","770339","0.0-11.0-1.41","null","<p>A másik játékos ezt választotta: <b>vorszennál</b>.</p><p>&#x2705;</p><p>A te válaszod és a másik játékos válasza <b>megegyeznek</b>.</p>","null","","","","feedback trial","",""
"html-button-response-esp","95","777198","0.0-11.0-0.42","4798","Ez itt egy spumény. Elneveztem a kutyámat...","0","spuménynak","[""spuménynak"",""spuménynek""]","spuménynak","esp trial","0","true"
"html-button-response","96","780724","0.0-11.0-1.42","null","<p>A másik játékos ezt választotta: <b>spuménynak</b>.</p><p>&#x2705;</p><p>A te válaszod és a másik játékos válasza <b>megegyeznek</b>.</p>","null","","","","feedback trial","",""
"html-button-response-esp","97","791080","0.0-11.0-0.43","9849","Ez itt egy zihenc. Elneveztem a kutyámat...","0","zihencnak","[""zihencnak"",""zihencnek""]","zihencnak","esp trial","0","true"
"html-button-response","98","794591","0.0-11.0-1.43","null","<p>A másik játékos ezt választotta: <b>zihencnak</b>.</p><p>&#x2705;</p><p>A te válaszod és a másik játékos válasza <b>megegyeznek</b>.</p>","null","","","","feedback trial","",""
"html-button-response-esp","99","801785","0.0-11.0-0.44","6680","Ez itt egy ítens. Ott vagyunk a...","1","ítensban","[""ítensben"",""ítensban""]","ítensban","esp trial","0","true"
"html-button-response","100","805299","0.0-11.0-1.44","null","<p>A másik játékos ezt választotta: <b>ítensban</b>.</p><p>&#x2705;</p><p>A te válaszod és a másik játékos válasza <b>megegyeznek</b>.</p>","null","","","","feedback trial","",""
"html-button-response-esp","101","812170","0.0-11.0-0.45","4392","Ez itt egy trájeg. Ott vagyunk a...","0","trájegban","[""trájegban"",""trájegben""]","trájegban","esp trial","0","true"
"html-button-response","102","815692","0.0-11.0-1.45","null","<p>A másik játékos ezt választotta: <b>trájegban</b>.</p><p>&#x2705;</p><p>A te válaszod és a másik játékos válasza <b>megegyeznek</b>.</p>","null","","","","feedback trial","",""
"html-button-response-esp","103","822570","0.0-11.0-0.46","3171","Ez itt egy fájéz. Ott vagyunk a...","1","fájézban","[""fájézben"",""fájézban""]","fájézben","esp trial","0","false"
"html-button-response","104","826099","0.0-11.0-1.46","null","<p>A másik játékos ezt választotta: <b>fájézben</b>.</p><p>&#10060;</p><p>A válaszaitok <b>nem</b> egyeznek meg.</p>","null","","","","feedback trial","",""
"html-button-response-esp","105","832962","0.0-11.0-0.47","3857","Ez itt egy kaszép. Elneveztem a kutyámat...","1","kaszépnak","[""kaszépnek"",""kaszépnak""]","kaszépnak","esp trial","0","true"
"html-button-response","106","836473","0.0-11.0-1.47","null","<p>A másik játékos ezt választotta: <b>kaszépnak</b>.</p><p>&#x2705;</p><p>A te válaszod és a másik játékos válasza <b>megegyeznek</b>.</p>","null","","","","feedback trial","",""
"html-button-response-esp","107","843347","0.0-11.0-0.48","3988","Ez itt egy jóbec. Elneveztem a kutyámat...","0","jóbecnak","[""jóbecnak"",""jóbecnek""]","jóbecnak","esp trial","0","true"
"html-button-response","108","846853","0.0-11.0-1.48","null","<p>A másik játékos ezt választotta: <b>jóbecnak</b>.</p><p>&#x2705;</p><p>A te válaszod és a másik játékos válasza <b>megegyeznek</b>.</p>","null","","","","feedback trial","",""
"html-button-response-esp","109","853716","0.0-11.0-0.49","3224","Ez itt egy brindez. Elneveztem a kutyámat...","0","brindeznak","[""brindeznak"",""brindeznek""]","brindeznak","esp trial","0","true"
"html-button-response","110","857239","0.0-11.0-1.49","null","<p>A másik játékos ezt választotta: <b>brindeznak</b>.</p><p>&#x2705;</p><p>A te válaszod és a másik játékos válasza <b>megegyeznek</b>.</p>","null","","","","feedback trial","",""
"html-button-response-esp","111","864098","0.0-11.0-0.50","2706","Ez itt egy luméz. Ott vagyunk a...","1","lumézban","[""lumézben"",""lumézban""]","lumézben","esp trial","0","false"
"html-button-response","112","867611","0.0-11.0-1.50","null","<p>A másik játékos ezt választotta: <b>lumézben</b>.</p><p>&#10060;</p><p>A válaszaitok <b>nem</b> egyeznek meg.</p>","null","","","","feedback trial","",""
"html-button-response-esp","113","874477","0.0-11.0-0.51","4561","Ez itt egy spicet. Elneveztem a kutyámat...","1","spicetnak","[""spicetnek"",""spicetnak""]","spicetnak","esp trial","0","true"
"html-button-response","114","877990","0.0-11.0-1.51","null","<p>A másik játékos ezt választotta: <b>spicetnak</b>.</p><p>&#x2705;</p><p>A te válaszod és a másik játékos válasza <b>megegyeznek</b>.</p>","null","","","","feedback trial","",""
"html-button-response-esp","115","884861","0.0-11.0-0.52","3999","Ez itt egy klosét. Elneveztem a kutyámat...","1","klosétnak","[""klosétnek"",""klosétnak""]","klosétnek","esp trial","0","false"
"html-button-response","116","888388","0.0-11.0-1.52","null","<p>A másik játékos ezt választotta: <b>klosétnek</b>.</p><p>&#10060;</p><p>A válaszaitok <b>nem</b> egyeznek meg.</p>","null","","","","feedback trial","",""
"html-button-response-esp","117","895246","0.0-11.0-0.53","3326","Ez itt egy zopély. Nincs is jobb egy jó...","0","zopélynál","[""zopélynál"",""zopélynél""]","zopélynél","esp trial","0","false"
"html-button-response","118","898764","0.0-11.0-1.53","null","<p>A másik játékos ezt választotta: <b>zopélynél</b>.</p><p>&#10060;</p><p>A válaszaitok <b>nem</b> egyeznek meg.</p>","null","","","","feedback trial","",""
"html-button-response","119","910979","0.0-12.0","11713","<p>A közös játék most véget ért.</p><p>Mielőtt eláruljuk a végső pontszámodat, arra kérlek, játszd a szóválasztós játékot néhány percig egyedül is.</p><p>A feladatod ugyanaz lesz, választani két lehetőség közül.</p><p>Most viszont egyedül kell döntened, hogy te melyiket választanád.</p>","0","","","","","",""
"html-button-response-clever","120","918157","0.0-13.0-0.0","6672","Ez itt egy tivenc. Ott vagyunk a...","1","tivencben","[""tivencban"",""tivencben""]","","posttest trial","4",""
"html-button-response-clever","121","926923","0.0-13.0-0.1","8249","Ez itt egy spatel. Elneveztem a kutyámat...","1","spatelnek","[""spatelnak"",""spatelnek""]","","posttest trial","4",""
"html-button-response-clever","122","931113","0.0-13.0-0.2","3677","Ez itt egy dinelt. Ott vagyunk a...","1","dineltben","[""dineltban"",""dineltben""]","","posttest trial","4",""
"html-button-response-clever","123","938904","0.0-13.0-0.3","7283","Ez itt egy dunkész. Ott vagyunk a...","1","dunkészben","[""dunkészban"",""dunkészben""]","","posttest trial","4",""
"html-button-response-clever","124","942698","0.0-13.0-0.4","3288","Ez itt egy surnegy. Nincs is jobb egy jó...","1","surnegynél","[""surnegynál"",""surnegynél""]","","posttest trial","4",""
"html-button-response-clever","125","946250","0.0-13.0-0.5","3041","Ez itt egy vodec. Nincs is jobb egy jó...","1","vodecnél","[""vodecnál"",""vodecnél""]","","posttest trial","4",""
"html-button-response-clever","126","950404","0.0-13.0-0.6","3644","Ez itt egy jutély. Nincs is jobb egy jó...","0","jutélynél","[""jutélynél"",""jutélynál""]","","posttest trial","4",""
"html-button-response-clever","127","957460","0.0-13.0-0.7","6548","Ez itt egy szanéj. Elneveztem a kutyámat...","1","szanéjnek","[""szanéjnak"",""szanéjnek""]","","posttest trial","4",""
"html-button-response-clever","128","963264","0.0-13.0-0.8","5298","Ez itt egy spivél. Elneveztem a kutyámat...","0","spivélnek","[""spivélnek"",""spivélnak""]","","posttest trial","4",""
"html-button-response-clever","129","970561","0.0-13.0-0.9","6789","Ez itt egy zarcég. Nincs is jobb egy jó...","0","zarcégnél","[""zarcégnél"",""zarcégnál""]","","posttest trial","4",""
"html-button-response-clever","130","976523","0.0-13.0-0.10","5451","Ez itt egy hijegy. Nincs is jobb egy jó...","0","hijegynél","[""hijegynél"",""hijegynál""]","","posttest trial","4",""
"html-button-response-clever","131","982723","0.0-13.0-0.11","5697","Ez itt egy fojlegy. Elneveztem a kutyámat...","1","fojlegynek","[""fojlegynak"",""fojlegynek""]","","posttest trial","4",""
"html-button-response-clever","132","987611","0.0-13.0-0.12","4383","Ez itt egy mádép. Nincs is jobb egy jó...","0","mádépnél","[""mádépnél"",""mádépnál""]","","posttest trial","4",""
"html-button-response-clever","133","998893","0.0-13.0-0.13","10780","Ez itt egy nuhét. Nincs is jobb egy jó...","1","nuhétnél","[""nuhétnál"",""nuhétnél""]","","posttest trial","4",""
"html-button-response-clever","134","1003094","0.0-13.0-0.14","3687","Ez itt egy zined. Elneveztem a kutyámat...","1","zinednek","[""zinednak"",""zinednek""]","","posttest trial","4",""
"html-button-response-clever","135","1009044","0.0-13.0-0.15","5443","Ez itt egy csodeg. Nincs is jobb egy jó...","0","csodegnél","[""csodegnél"",""csodegnál""]","","posttest trial","4",""
"html-button-response-clever","136","1019047","0.0-13.0-0.16","9493","Ez itt egy klazér. Ott vagyunk a...","1","klazérban","[""klazérben"",""klazérban""]","","posttest trial","4",""
"html-button-response-clever","137","1024778","0.0-13.0-0.17","5214","Ez itt egy dutec. Nincs is jobb egy jó...","0","dutecnél","[""dutecnél"",""dutecnál""]","","posttest trial","4",""
"html-button-response-clever","138","1028269","0.0-13.0-0.18","2975","Ez itt egy trikép. Ott vagyunk a...","1","triképben","[""triképban"",""triképben""]","","posttest trial","4",""
"html-button-response-clever","139","1032314","0.0-13.0-0.19","3533","Ez itt egy fupét. Nincs is jobb egy jó...","0","fupétnél","[""fupétnél"",""fupétnál""]","","posttest trial","4",""
"html-button-response-clever","140","1040778","0.0-13.0-0.20","7962","Ez itt egy dibez. Ott vagyunk a...","1","dibezben","[""dibezban"",""dibezben""]","","posttest trial","4",""
"html-button-response-clever","141","1045533","0.0-13.0-0.21","4243","Ez itt egy szibed. Ott vagyunk a...","1","szibedben","[""szibedban"",""szibedben""]","","posttest trial","4",""
"html-button-response-clever","142","1066672","0.0-13.0-0.22","20633","Ez itt egy gábéd. Nincs is jobb egy jó...","0","gábédnál","[""gábédnál"",""gábédnél""]","","posttest trial","4",""
"html-button-response-clever","143","1074594","0.0-13.0-0.23","7411","Ez itt egy briskéd. Nincs is jobb egy jó...","0","briskédnél","[""briskédnél"",""briskédnál""]","","posttest trial","4",""
"html-button-response-clever","144","1085957","0.0-13.0-0.24","10855","Ez itt egy tumély. Nincs is jobb egy jó...","0","tumélynál","[""tumélynál"",""tumélynél""]","","posttest trial","4",""
"html-button-response-clever","145","1092590","0.0-13.0-0.25","6117","Ez itt egy fágyép. Nincs is jobb egy jó...","1","fágyépnél","[""fágyépnál"",""fágyépnél""]","","posttest trial","4",""
"html-button-response-clever","146","1105903","0.0-13.0-0.26","12808","Ez itt egy zuten. Nincs is jobb egy jó...","0","zutennél","[""zutennél"",""zutennál""]","","posttest trial","4",""
"html-button-response-clever","147","1114571","0.0-13.0-0.27","8155","Ez itt egy zsalrén. Elneveztem a kutyámat...","0","zsalrénnek","[""zsalrénnek"",""zsalrénnak""]","","posttest trial","4",""
"html-button-response-clever","148","1122324","0.0-13.0-0.28","7239","Ez itt egy klítegy. Nincs is jobb egy jó...","1","klítegynél","[""klítegynál"",""klítegynél""]","","posttest trial","4",""
"html-button-response-clever","149","1127102","0.0-13.0-0.29","4267","Ez itt egy murdes. Nincs is jobb egy jó...","0","murdesnél","[""murdesnél"",""murdesnál""]","","posttest trial","4",""
"html-button-response-clever","150","1131087","0.0-13.0-0.30","3479","Ez itt egy lihény. Elneveztem a kutyámat...","1","lihénynek","[""lihénynak"",""lihénynek""]","","posttest trial","4",""
"html-button-response-clever","151","1150919","0.0-13.0-0.31","19324","Ez itt egy cságyelt. Ott vagyunk a...","0","cságyeltben","[""cságyeltben"",""cságyeltban""]","","posttest trial","4",""
"html-button-response-clever","152","1171048","0.0-13.0-0.32","19623","Ez itt egy klajrén. Elneveztem a kutyámat...","1","klajrénnek","[""klajrénnak"",""klajrénnek""]","","posttest trial","4",""
"html-button-response-clever","153","1174457","0.0-13.0-0.33","2895","Ez itt egy bingéj. Elneveztem a kutyámat...","0","bingéjnek","[""bingéjnek"",""bingéjnak""]","","posttest trial","4",""
"html-button-response-clever","154","1177525","0.0-13.0-0.34","2562","Ez itt egy dóbem. Elneveztem a kutyámat...","0","dóbemnek","[""dóbemnek"",""dóbemnak""]","","posttest trial","4",""
"html-button-response-clever","155","1186903","0.0-13.0-0.35","8872","Ez itt egy dajrens. Nincs is jobb egy jó...","1","dajrensnél","[""dajrensnál"",""dajrensnél""]","","posttest trial","4",""
"html-button-response-clever","156","1198221","0.0-13.0-0.36","10803","Ez itt egy vurnel. Elneveztem a kutyámat...","1","vurnelnek","[""vurnelnak"",""vurnelnek""]","","posttest trial","4",""
"html-button-response-clever","157","1205541","0.0-13.0-0.37","6815","Ez itt egy tarhéz. Ott vagyunk a...","1","tarhézben","[""tarhézban"",""tarhézben""]","","posttest trial","4",""
"html-button-response-clever","158","1217230","0.0-13.0-0.38","11185","Ez itt egy zatéj. Nincs is jobb egy jó...","0","zatéjnál","[""zatéjnál"",""zatéjnél""]","","posttest trial","4",""
"html-button-response-clever","159","1220531","0.0-13.0-0.39","2797","Ez itt egy pristél. Ott vagyunk a...","0","pristélben","[""pristélben"",""pristélban""]","","posttest trial","4",""
"html-button-response-clever","160","1225504","0.0-13.0-0.40","4469","Ez itt egy spizec. Elneveztem a kutyámat...","1","spizecnek","[""spizecnak"",""spizecnek""]","","posttest trial","4",""
"html-button-response-clever","161","1238179","0.0-13.0-0.41","12160","Ez itt egy zábény. Elneveztem a kutyámat...","0","zábénynek","[""zábénynek"",""zábénynak""]","","posttest trial","4",""
"html-button-response-clever","162","1241790","0.0-13.0-0.42","3097","Ez itt egy vismer. Nincs is jobb egy jó...","1","vismernél","[""vismernál"",""vismernél""]","","posttest trial","4",""
"html-button-response-clever","163","1246499","0.0-13.0-0.43","4204","Ez itt egy lingék. Nincs is jobb egy jó...","1","lingéknél","[""lingéknál"",""lingéknél""]","","posttest trial","4",""
"html-button-response-clever","164","1252639","0.0-13.0-0.44","5627","Ez itt egy humék. Elneveztem a kutyámat...","0","huméknek","[""huméknek"",""huméknak""]","","posttest trial","4",""
"html-button-response-clever","165","1259525","0.0-13.0-0.45","6376","Ez itt egy pazév. Nincs is jobb egy jó...","0","pazévnél","[""pazévnél"",""pazévnál""]","","posttest trial","4",""
"html-button-response-clever","166","1263679","0.0-13.0-0.46","3643","Ez itt egy lijez. Elneveztem a kutyámat...","1","lijeznek","[""lijeznak"",""lijeznek""]","","posttest trial","4",""
"html-button-response-clever","167","1268653","0.0-13.0-0.47","4467","Ez itt egy trodély. Ott vagyunk a...","0","trodélyban","[""trodélyban"",""trodélyben""]","","posttest trial","4",""
"html-button-response-clever","168","1273096","0.0-13.0-0.48","3939","Ez itt egy jurdent. Nincs is jobb egy jó...","0","jurdentnél","[""jurdentnél"",""jurdentnál""]","","posttest trial","4",""
"html-button-response-clever","169","1277153","0.0-13.0-0.49","3546","Ez itt egy sihen. Nincs is jobb egy jó...","1","sihennél","[""sihennál"",""sihennél""]","","posttest trial","4",""
"html-button-response-clever","170","1281114","0.0-13.0-0.50","3459","Ez itt egy fizend. Ott vagyunk a...","1","fizendben","[""fizendban"",""fizendben""]","","posttest trial","4",""
"html-button-response-clever","171","1286703","0.0-13.0-0.51","5074","Ez itt egy kátéd. Nincs is jobb egy jó...","0","kátédnál","[""kátédnál"",""kátédnél""]","","posttest trial","4",""
"html-button-response-clever","172","1290241","0.0-13.0-0.52","3027","Ez itt egy csublény. Ott vagyunk a...","0","csublényben","[""csublényben"",""csublényban""]","","posttest trial","4",""
"html-button-response-clever","173","1295129","0.0-13.0-0.53","4380","Ez itt egy hosét. Elneveztem a kutyámat...","0","hosétnek","[""hosétnek"",""hosétnak""]","","posttest trial","4",""
"html-button-response","174","1307519","0.0-14.0","11876","<p> Vége a játéknak. A teljes pontszámod 28/54.</p><p> Szép munka! &#128526;&#128526;&#128526;</p><p>A Befejezés gomb megnyomása után bezárhatod a böngészőablakot.</p>","0","","","","","",""
"html-keyboard-response","175","1313035","0.0-15.0","null","<div class=""message"">
         <p>Egy kis türelmet kérünk, amíg elmentjük az adatokat...</p>
         </div>","null","","","","","",""
