"trial_type","trial_index","time_elapsed","internal_node_id","rt","stimulus","response","response_string","choices","esp_response","trial_kind","list_number","esp_match"
"pavlovia","0","819","0.0-0.0","","","","","","","","",""
"html-button-response","1","24451","0.0-1.0","23126","<p>Kedves Résztvevő! A Budapesti Műszaki és Gazdaságtudományi Egyetem Kognitív Tudományi Tanszékének kutatásában való részvételed kérjük. A kutatásban azt vizsgáljuk, hogy a magyar anyanyelvűek hogyan használnak bizonyos szóalakokat, és hogy milyen képük van arról, hogy mások hogyan használják, hogyan képzik a szavakat. Ez hozzásegít bennünket ahhoz, hogy jobban megértsük, hogyan dolgozza fel és tárolja a nyelvet az emberi agy, és hogyan működnek, hogyan változnak egy adott közösség nyelvi konvenciói.</p><p>A vizsgálat egy rövid számítógépes feladatból fog állni. A kutatásban való részvétel önkéntes, a részvételi szándék bármikor visszavonható. A résztvevők eredményeit név nélkül kezeljük, így nem beazonosíthatók az adatok feldolgozása során. Minden személyes adatot az EU általános adatvédelmi rendeletének (GDPR) megfelelően kezelünk és legfeljebb öt éven belül megsemmisítünk. A vizsgálat jellemzően húsz percet vesz igénybe.</p><p>Kutatásvezető:</p><p>Dr. Rácz Péter, tudományos munkatárs, BME KTT</p><p>e-mail: racz.peter.marton@ttk.bme.hu</p>","0","","","","","",""
"html-button-response","2","51485","0.0-2.0","26529","<p>A kísérletben szavakat fogsz látni. Ezek között lesznek olyanok, amelyeket ismersz, de előfordulhatnak olyanok is, amelyeket nem ismersz, sőt, vannak köztük kitalált szavak is. Minden szónál látni fogsz toldalékolt alakokat. A te feladatod az lesz, hogy minden szóhoz kiválaszd azt a toldalékolt alakot, amely a te számodra ismerősebben, természetesebben hangzik. Rossz válaszok nincsenek, mert van olyan, hogy különböző embereknek más és más szó tűnik jobb választásnak. A választ úgy tudod majd kiválasztani, ha rákattintasz.</p><p>Ebben a szóválasztós játékban egy másik játékossal együtt veszel majd részt. A másik játékos is minden esetben azok közül a lehetőségek közül válogathat, mint te. Kettőtök feladata az, hogy ugyanazt a lehetőséget válasszátok minden esetben. Ahhoz, hogy ez sikerüljön, neked figyelned kell arra, hogy a másik játékos milyen válaszokat ad, és ennek alapján meg kell tippelned, hogyan választ legközelebb. Ha eltalálod, akkor pontot kapsz.</p>","0","","","","","",""
"html-button-response","3","56464","0.0-3.0","4467","<p>Kérjük, olvasd el az alábbi nyilatkozatot, és amennyiben egyetértesz vele, nyomj a Beleegyezés gombra!</p><p>Kijelentem, hogy magyar anyanyelvű személyként önként veszek részt a BME KTT kísérletében. A kutatás céljával és folyamatával kapcsolatban elegendő tájékoztatást kaptam, lehetőségem volt kérdések feltételére, és esetleges kérdéseimre megfelelő válaszokat kaptam. A tájékoztatás alapján elegendő mennyiségű információ áll a rendelkezésemre, hogy eldönthessem, részt kívánok-e venni a kutatásban.</p><p>Tisztában vagyok vele, hogy részvételi szándékomat és adataimat bármikor, indoklás nélkül visszavonhatom.</p><p>Értem és tudomásul veszem, hogy a kutatás tudományos célokat szolgál, és az általam szolgáltatott adatokat a BME kizárólag kutatási célból használja fel. Tudomásul veszem, hogy eredményeimet a többi résztvevő eredményeivel együtt kezelik, így egyéni teljesítményemről visszajelzést, szakvéleményt nem kapok.</p><p>Megértettem, hogy adataim kezelését illetően a BME az EU általános adatvédelmi rendelete (GDPR), a hatályos adatvédelmi törvény és a nemzetközi kutatás-etikai alapelvek szerint jár el. Eredményeim anonim módon kerülnek feldolgozásra, és a kutatás résztvevői az azonosításomra alkalmas adataimat harmadik félnek nem szolgáltatják ki. Engedélyezem a BME számára a jelen kutatásban felvett adataim feldolgozását és tárolását, beleértve azok későbbi kutatásokhoz való felhasználását is. Személyes adataim kezelésével kapcsolatban tájékoztatást kérhetek a kutatás résztvevőitől, az adatkezelés ellen tiltakozhatok, kérhetem személyes adataim helyesbítését, törlését vagy zárolását, valamint jogorvoslatért a Nemzeti Adatvédelmi és Információszabadság Hatósághoz fordulhatok.</p><p>Kijelentem, hogy a kutatásban való részvételem körülményeiről részletes tájékoztatást kaptam, és a feltételeket elfogadom.</p>","0","","","","","",""
"survey-text","4","76568","0.0-4.0","19585","","{""Q0"":""XBQDWS"",""Q1"":""nő"",""Q2"":""1980"",""Q3"":""22""}","","","","","",""
"html-button-response","5","84991","0.0-5.0","7921","<p>Ebben a játékban szavakat kell toldalékolni.</p> <p>Minden körben mutatunk majd egy példamondatot, amiben lesz egy szó.</p> <p>Alatta jön egy második mondat, ezt a mondatot neked kell majd befejezni, ugyanezzel a szóval.</p> <p>Nem biztos, hogy a szó eleve ismerős lesz számodra!</p> <p>Minden mondathoz adunk két lehetőséget, ezeket balra és jobbra látod majd.</p> <p>A játék kb. negyedóráig-húsz percig tart.</p>","0","","","","","",""
"html-button-response","6","123625","0.0-6.0","38122","<p>Nézzünk egy példát!</p> <p>A példamondat: ""János imád fláramolni, ezért sokat fláramlik. Mi ritkán...""</p><p>Neked ezt a mondatot kell befejezned: ""Ti ritkán...""</p><p>A lehetőségek pedig ezek:</p>","0","","","","","",""
"html-button-response","7","131230","0.0-7.0","7103","<p>Nagyon jó.</p><p>Ezt a játékot nem egyedül fogod játszani, hanem egy másik játékossal.</p><p>Mielőtt továbblépünk, összekapcsolunk titeket egymással.</p><p>Ez igénybe vehet néhány másodpercet, amihez szíves türelmed kérjük.</p>","0","","","","","",""
"html-button-response","8","136973","0.0-8.0","null","<p>Csatlakozás a másik játékoshoz...</p>","null","","","","","",""
"html-button-response","9","139490","0.0-9.0","null","<p> Sikeres kapcsolódás!</p>","null","","","","","",""
"html-button-response","10","149996","0.0-10.0","null","<p>A következőkben ketten játsszátok a szóválasztós játékot.</p><p>A feladatotok az lesz, hogy minden körben <b>ugyanazt</b> a szót válasszátok.</p><p>Minden ilyen egyező válaszért pontot kaptok.</p><p>Próbáld meg kitalálni, mit választ a másik játékos!</p><p>Bármikor választhatsz, a körnek akkor van vége, ha mindketten döntöttetek.</p><p>Sok sikert!</p>","null","","","","","",""
"html-button-response-esp","11","157147","0.0-11.0-0.0","6637","János imád bregezni, ezért sokat bregzik. Mi ritkán...","1","bregzünk","[""bregezünk"",""bregzünk""]","bregezünk","esp trial","10","false"
"html-button-response","12","160656","0.0-11.0-1.0","null","<p>A másik játékos ezt választotta: <b>bregezünk</b>.</p><p>&#10060;</p><p>A válaszaitok <b>nem</b> egyeznek meg.</p>","null","","","","feedback trial","",""
"html-button-response-esp","13","170289","0.0-11.0-0.1","9128","János imád hákodni, ezért sokat hákszik. Ők ritkán...","1","hákszanak","[""hákodnak"",""hákszanak""]","hákodnak","esp trial","10","false"
"html-button-response","14","173798","0.0-11.0-1.1","null","<p>A másik játékos ezt választotta: <b>hákodnak</b>.</p><p>&#10060;</p><p>A válaszaitok <b>nem</b> egyeznek meg.</p>","null","","","","feedback trial","",""
"html-button-response-esp","15","185991","0.0-11.0-0.2","11692","János imád flézezni, ezért sokat flézlik. Ti ritkán...","1","flézeztek","[""flézletek"",""flézeztek""]","flézletek","esp trial","10","false"
"html-button-response","16","189516","0.0-11.0-1.2","null","<p>A másik játékos ezt választotta: <b>flézletek</b>.</p><p>&#10060;</p><p>A válaszaitok <b>nem</b> egyeznek meg.</p>","null","","","","feedback trial","",""
"html-button-response-esp","17","196106","0.0-11.0-0.3","6076","János imád mísozni, ezért sokat míslik. Mi ritkán...","1","mísozunk","[""míslunk"",""mísozunk""]","mísozunk","esp trial","10","true"
"html-button-response","18","199629","0.0-11.0-1.3","null","<p>A másik játékos ezt választotta: <b>mísozunk</b>.</p><p>&#x2705;</p><p>A te válaszod és a másik játékos válasza <b>megegyeznek</b>.</p>","null","","","","feedback trial","",""
"html-button-response-esp","19","206667","0.0-11.0-0.4","6536","János imád flivegezni, ezért sokat flivegzik. Ők ritkán...","1","flivegeznek","[""flivegzenek"",""flivegeznek""]","flivegzenek","esp trial","10","false"
"html-button-response","20","210186","0.0-11.0-1.4","null","<p>A másik játékos ezt választotta: <b>flivegzenek</b>.</p><p>&#10060;</p><p>A válaszaitok <b>nem</b> egyeznek meg.</p>","null","","","","feedback trial","",""
"html-button-response-esp","21","217016","0.0-11.0-0.5","6316","János imád lumozni, ezért sokat lumlik. Ti ritkán...","1","lumoztok","[""lumlotok"",""lumoztok""]","lumlotok","esp trial","10","false"
"html-button-response","22","220540","0.0-11.0-1.5","null","<p>A másik játékos ezt választotta: <b>lumlotok</b>.</p><p>&#10060;</p><p>A válaszaitok <b>nem</b> egyeznek meg.</p>","null","","","","feedback trial","",""
"html-button-response-esp","23","227090","0.0-11.0-0.6","6036","János imád brározni, ezért sokat brárlik. Ők ritkán...","0","brároznak","[""brároznak"",""brárlanak""]","brároznak","esp trial","10","true"
"html-button-response","24","230607","0.0-11.0-1.6","null","<p>A másik játékos ezt választotta: <b>brároznak</b>.</p><p>&#x2705;</p><p>A te válaszod és a másik játékos válasza <b>megegyeznek</b>.</p>","null","","","","feedback trial","",""
"html-button-response-esp","25","237093","0.0-11.0-0.7","5973","János imád pekedni, ezért sokat pekszik. Mi ritkán...","1","pekedünk","[""pekszünk"",""pekedünk""]","pekedünk","esp trial","10","true"
"html-button-response","26","240608","0.0-11.0-1.7","null","<p>A másik játékos ezt választotta: <b>pekedünk</b>.</p><p>&#x2705;</p><p>A te válaszod és a másik játékos válasza <b>megegyeznek</b>.</p>","null","","","","feedback trial","",""
"html-button-response-esp","27","248070","0.0-11.0-0.8","6959","János imád pehégedni, ezért sokat pehégszik. Ti ritkán...","0","pehégedtek","[""pehégedtek"",""pehégszetek""]","pehégedtek","esp trial","10","true"
"html-button-response","28","251576","0.0-11.0-1.8","null","<p>A másik játékos ezt választotta: <b>pehégedtek</b>.</p><p>&#x2705;</p><p>A te válaszod és a másik játékos válasza <b>megegyeznek</b>.</p>","null","","","","feedback trial","",""
"html-button-response-esp","29","257830","0.0-11.0-0.9","5738","János imád fröjözni, ezért sokat fröjlik. Mi ritkán...","1","fröjözünk","[""fröjlünk"",""fröjözünk""]","fröjözünk","esp trial","10","true"
"html-button-response","30","261356","0.0-11.0-1.9","null","<p>A másik játékos ezt választotta: <b>fröjözünk</b>.</p><p>&#x2705;</p><p>A te válaszod és a másik játékos válasza <b>megegyeznek</b>.</p>","null","","","","feedback trial","",""
"html-button-response-esp","31","269015","0.0-11.0-0.10","7155","János imád nágapodni, ezért sokat nágapszik. Ők ritkán...","1","nágapodnak","[""nágapszanak"",""nágapodnak""]","nágapodnak","esp trial","10","true"
"html-button-response","32","272531","0.0-11.0-1.10","null","<p>A másik játékos ezt választotta: <b>nágapodnak</b>.</p><p>&#x2705;</p><p>A te válaszod és a másik játékos válasza <b>megegyeznek</b>.</p>","null","","","","feedback trial","",""
"html-button-response-esp","33","278134","0.0-11.0-0.11","5089","János imád frivamozni, ezért sokat frivamlik. Mi ritkán...","1","frivamozunk","[""frivamlunk"",""frivamozunk""]","frivamozunk","esp trial","10","true"
"html-button-response","34","281644","0.0-11.0-1.11","null","<p>A másik játékos ezt választotta: <b>frivamozunk</b>.</p><p>&#x2705;</p><p>A te válaszod és a másik játékos válasza <b>megegyeznek</b>.</p>","null","","","","feedback trial","",""
"html-button-response-esp","35","286643","0.0-11.0-0.12","4486","János imád dirányozni, ezért sokat diránylik. Ők ritkán...","1","dirányoznak","[""diránylanak"",""dirányoznak""]","dirányoznak","esp trial","10","true"
"html-button-response","36","290158","0.0-11.0-1.12","null","<p>A másik játékos ezt választotta: <b>dirányoznak</b>.</p><p>&#x2705;</p><p>A te válaszod és a másik játékos válasza <b>megegyeznek</b>.</p>","null","","","","feedback trial","",""
"html-button-response-esp","37","294076","0.0-11.0-0.13","3416","János imád trírozni, ezért sokat trírzik. Mi ritkán...","1","trírozunk","[""trírzunk"",""trírozunk""]","trírozunk","esp trial","10","true"
"html-button-response","38","297595","0.0-11.0-1.13","null","<p>A másik játékos ezt választotta: <b>trírozunk</b>.</p><p>&#x2705;</p><p>A te válaszod és a másik játékos válasza <b>megegyeznek</b>.</p>","null","","","","feedback trial","",""
"html-button-response-esp","39","304484","0.0-11.0-0.14","6373","János imád spöközni, ezért sokat spöklik. Mi ritkán...","0","spöközünk","[""spöközünk"",""spöklünk""]","spöközünk","esp trial","10","true"
"html-button-response","40","308003","0.0-11.0-1.14","null","<p>A másik játékos ezt választotta: <b>spöközünk</b>.</p><p>&#x2705;</p><p>A te válaszod és a másik játékos válasza <b>megegyeznek</b>.</p>","null","","","","feedback trial","",""
"html-button-response-esp","41","314646","0.0-11.0-0.15","6142","János imád sztrajozni, ezért sokat sztrajlik. Ők ritkán...","0","sztrajoznak","[""sztrajoznak"",""sztrajlanak""]","sztrajoznak","esp trial","10","true"
"html-button-response","42","318178","0.0-11.0-1.15","null","<p>A másik játékos ezt választotta: <b>sztrajoznak</b>.</p><p>&#x2705;</p><p>A te válaszod és a másik játékos válasza <b>megegyeznek</b>.</p>","null","","","","feedback trial","",""
"html-button-response-esp","43","322348","0.0-11.0-0.16","3658","János imád tűgözni, ezért sokat tűgzik. Ti ritkán...","0","tűgöztök","[""tűgöztök"",""tűgzötök""]","tűgöztök","esp trial","10","true"
"html-button-response","44","325868","0.0-11.0-1.16","null","<p>A másik játékos ezt választotta: <b>tűgöztök</b>.</p><p>&#x2705;</p><p>A te válaszod és a másik játékos válasza <b>megegyeznek</b>.</p>","null","","","","feedback trial","",""
"html-button-response-esp","45","331193","0.0-11.0-0.17","4812","János imád sprimozni, ezért sokat sprimlik. Mi ritkán...","0","sprimozunk","[""sprimozunk"",""sprimlunk""]","sprimozunk","esp trial","10","true"
"html-button-response","46","334720","0.0-11.0-1.17","null","<p>A másik játékos ezt választotta: <b>sprimozunk</b>.</p><p>&#x2705;</p><p>A te válaszod és a másik játékos válasza <b>megegyeznek</b>.</p>","null","","","","feedback trial","",""
"html-button-response-esp","47","339518","0.0-11.0-0.18","4297","János imád lírozni, ezért sokat lírlik. Ők ritkán...","1","líroznak","[""lírlanak"",""líroznak""]","líroznak","esp trial","10","true"
"html-button-response","48","343040","0.0-11.0-1.18","null","<p>A másik játékos ezt választotta: <b>líroznak</b>.</p><p>&#x2705;</p><p>A te válaszod és a másik játékos válasza <b>megegyeznek</b>.</p>","null","","","","feedback trial","",""
"html-button-response-esp","49","349753","0.0-11.0-0.19","6206","János imád brivágozni, ezért sokat briváglik. Ők ritkán...","0","brivágoznak","[""brivágoznak"",""briváglanak""]","briváglanak","esp trial","10","false"
"html-button-response","50","353283","0.0-11.0-1.19","null","<p>A másik játékos ezt választotta: <b>briváglanak</b>.</p><p>&#10060;</p><p>A válaszaitok <b>nem</b> egyeznek meg.</p>","null","","","","feedback trial","",""
"html-button-response-esp","51","359534","0.0-11.0-0.20","5745","János imád tibarozni, ezért sokat tibarzik. Ők ritkán...","0","tibarzanak","[""tibarzanak"",""tibaroznak""]","tibaroznak","esp trial","10","false"
"html-button-response","52","363056","0.0-11.0-1.20","null","<p>A másik játékos ezt választotta: <b>tibaroznak</b>.</p><p>&#10060;</p><p>A válaszaitok <b>nem</b> egyeznek meg.</p>","null","","","","feedback trial","",""
"html-button-response-esp","53","367125","0.0-11.0-0.21","3564","János imád míjozni, ezért sokat míjzik. Mi ritkán...","0","míjozunk","[""míjozunk"",""míjzunk""]","míjozunk","esp trial","10","true"
"html-button-response","54","370653","0.0-11.0-1.21","null","<p>A másik játékos ezt választotta: <b>míjozunk</b>.</p><p>&#x2705;</p><p>A te válaszod és a másik játékos válasza <b>megegyeznek</b>.</p>","null","","","","feedback trial","",""
"html-button-response-esp","55","377622","0.0-11.0-0.22","6466","János imád brálamozni, ezért sokat brálamlik. Ők ritkán...","0","brálamoznak","[""brálamoznak"",""brálamlanak""]","brálamoznak","esp trial","10","true"
"html-button-response","56","381134","0.0-11.0-1.22","null","<p>A másik játékos ezt választotta: <b>brálamoznak</b>.</p><p>&#x2705;</p><p>A te válaszod és a másik játékos válasza <b>megegyeznek</b>.</p>","null","","","","feedback trial","",""
"html-button-response-esp","57","385241","0.0-11.0-0.23","3596","János imád küsözni, ezért sokat küslik. Mi ritkán...","1","küsözünk","[""küslünk"",""küsözünk""]","küsözünk","esp trial","10","true"
"html-button-response","58","388764","0.0-11.0-1.23","null","<p>A másik játékos ezt választotta: <b>küsözünk</b>.</p><p>&#x2705;</p><p>A te válaszod és a másik játékos válasza <b>megegyeznek</b>.</p>","null","","","","feedback trial","",""
"html-button-response-esp","59","395314","0.0-11.0-0.24","6046","János imád tágarozni, ezért sokat tágarzik. Mi ritkán...","0","tágarozunk","[""tágarozunk"",""tágarzunk""]","tágarozunk","esp trial","10","true"
"html-button-response","60","398828","0.0-11.0-1.24","null","<p>A másik játékos ezt választotta: <b>tágarozunk</b>.</p><p>&#x2705;</p><p>A te válaszod és a másik játékos válasza <b>megegyeznek</b>.</p>","null","","","","feedback trial","",""
"html-button-response-esp","61","406353","0.0-11.0-0.25","7010","János imád sprigozni, ezért sokat sprigzik. Ti ritkán...","1","sprigoztok","[""sprigzotok"",""sprigoztok""]","sprigzotok","esp trial","10","false"
"html-button-response","62","409866","0.0-11.0-1.25","null","<p>A másik játékos ezt választotta: <b>sprigzotok</b>.</p><p>&#10060;</p><p>A válaszaitok <b>nem</b> egyeznek meg.</p>","null","","","","feedback trial","",""
"html-button-response-esp","63","418142","0.0-11.0-0.26","7762","János imád spalározni, ezért sokat spalárzik. Ők ritkán...","0","spalároznak","[""spalároznak"",""spalárzanak""]","spalároznak","esp trial","10","true"
"html-button-response","64","421669","0.0-11.0-1.26","null","<p>A másik játékos ezt választotta: <b>spalároznak</b>.</p><p>&#x2705;</p><p>A te válaszod és a másik játékos válasza <b>megegyeznek</b>.</p>","null","","","","feedback trial","",""
"html-button-response-esp","65","426270","0.0-11.0-0.27","4097","János imád gatágozni, ezért sokat gatáglik. Mi ritkán...","0","gatágozunk","[""gatágozunk"",""gatáglunk""]","gatáglunk","esp trial","10","false"
"html-button-response","66","429772","0.0-11.0-1.27","null","<p>A másik játékos ezt választotta: <b>gatáglunk</b>.</p><p>&#10060;</p><p>A válaszaitok <b>nem</b> egyeznek meg.</p>","null","","","","feedback trial","",""
"html-button-response-esp","67","436259","0.0-11.0-0.28","5984","János imád spibamozni, ezért sokat spibamlik. Ők ritkán...","1","spibamoznak","[""spibamlanak"",""spibamoznak""]","spibamoznak","esp trial","10","true"
"html-button-response","68","439777","0.0-11.0-1.28","null","<p>A másik játékos ezt választotta: <b>spibamoznak</b>.</p><p>&#x2705;</p><p>A te válaszod és a másik játékos válasza <b>megegyeznek</b>.</p>","null","","","","feedback trial","",""
"html-button-response-esp","69","446073","0.0-11.0-0.29","5790","János imád gyivepedni, ezért sokat gyivepszik. Ők ritkán...","0","gyivepednek","[""gyivepednek"",""gyivepszenek""]","gyivepednek","esp trial","10","true"
"html-button-response","70","449596","0.0-11.0-1.29","null","<p>A másik játékos ezt választotta: <b>gyivepednek</b>.</p><p>&#x2705;</p><p>A te válaszod és a másik játékos válasza <b>megegyeznek</b>.</p>","null","","","","feedback trial","",""
"html-button-response-esp","71","456936","0.0-11.0-0.30","6836","János imád mihágozni, ezért sokat mihágzik. Ti ritkán...","1","mihágoztok","[""mihágzotok"",""mihágoztok""]","mihágzotok","esp trial","10","false"
"html-button-response","72","460457","0.0-11.0-1.30","null","<p>A másik játékos ezt választotta: <b>mihágzotok</b>.</p><p>&#10060;</p><p>A válaszaitok <b>nem</b> egyeznek meg.</p>","null","","","","feedback trial","",""
"html-button-response-esp","73","465057","0.0-11.0-0.31","4085","János imád tribejezni, ezért sokat tribejlik. Ti ritkán...","0","tribejeztek","[""tribejeztek"",""tribejletek""]","tribejletek","esp trial","10","false"
"html-button-response","74","468572","0.0-11.0-1.31","null","<p>A másik játékos ezt választotta: <b>tribejletek</b>.</p><p>&#10060;</p><p>A válaszaitok <b>nem</b> egyeznek meg.</p>","null","","","","feedback trial","",""
"html-button-response-esp","75","473830","0.0-11.0-0.32","4744","János imád sponyozni, ezért sokat sponylik. Ők ritkán...","0","sponyoznak","[""sponyoznak"",""sponylanak""]","sponyoznak","esp trial","10","true"
"html-button-response","76","477344","0.0-11.0-1.32","null","<p>A másik játékos ezt választotta: <b>sponyoznak</b>.</p><p>&#x2705;</p><p>A te válaszod és a másik játékos válasza <b>megegyeznek</b>.</p>","null","","","","feedback trial","",""
"html-button-response-esp","77","483424","0.0-11.0-0.33","5569","János imád frésezni, ezért sokat fréslik. Mi ritkán...","1","fréslünk","[""frésezünk"",""fréslünk""]","frésezünk","esp trial","10","false"
"html-button-response","78","486941","0.0-11.0-1.33","null","<p>A másik játékos ezt választotta: <b>frésezünk</b>.</p><p>&#10060;</p><p>A válaszaitok <b>nem</b> egyeznek meg.</p>","null","","","","feedback trial","",""
"html-button-response-esp","79","494724","0.0-11.0-0.34","7270","János imád galározni, ezért sokat galárzik. Ők ritkán...","1","galároznak","[""galárzanak"",""galároznak""]","galárzanak","esp trial","10","false"
"html-button-response","80","498240","0.0-11.0-1.34","null","<p>A másik játékos ezt választotta: <b>galárzanak</b>.</p><p>&#10060;</p><p>A válaszaitok <b>nem</b> egyeznek meg.</p>","null","","","","feedback trial","",""
"html-button-response-esp","81","504360","0.0-11.0-0.35","5620","János imád gibemezni, ezért sokat gibemlik. Mi ritkán...","1","gibemezünk","[""gibemlünk"",""gibemezünk""]","gibemezünk","esp trial","10","true"
"html-button-response","82","507886","0.0-11.0-1.35","null","<p>A másik játékos ezt választotta: <b>gibemezünk</b>.</p><p>&#x2705;</p><p>A te válaszod és a másik játékos válasza <b>megegyeznek</b>.</p>","null","","","","feedback trial","",""
"html-button-response-esp","83","517004","0.0-11.0-0.36","8615","János imád sztritozni, ezért sokat sztritlik. Ők ritkán...","0","sztritoznak","[""sztritoznak"",""sztritlanak""]","sztritoznak","esp trial","10","true"
"html-button-response","84","520519","0.0-11.0-1.36","null","<p>A másik játékos ezt választotta: <b>sztritoznak</b>.</p><p>&#x2705;</p><p>A te válaszod és a másik játékos válasza <b>megegyeznek</b>.</p>","null","","","","feedback trial","",""
"html-button-response-esp","85","527869","0.0-11.0-0.37","6849","János imád brüszözni, ezért sokat brüszlik. Ti ritkán...","1","brüszöztök","[""brüszlötök"",""brüszöztök""]","brüszöztök","esp trial","10","true"
"html-button-response","86","531386","0.0-11.0-1.37","null","<p>A másik játékos ezt választotta: <b>brüszöztök</b>.</p><p>&#x2705;</p><p>A te válaszod és a másik játékos válasza <b>megegyeznek</b>.</p>","null","","","","feedback trial","",""
"html-button-response-esp","87","537505","0.0-11.0-0.38","5604","János imád riványozni, ezért sokat riványlik. Ti ritkán...","1","riványoztok","[""riványlotok"",""riványoztok""]","riványoztok","esp trial","10","true"
"html-button-response","88","541022","0.0-11.0-1.38","null","<p>A másik játékos ezt választotta: <b>riványoztok</b>.</p><p>&#x2705;</p><p>A te válaszod és a másik játékos válasza <b>megegyeznek</b>.</p>","null","","","","feedback trial","",""
"html-button-response-esp","89","549318","0.0-11.0-0.39","7790","János imád klarágozni, ezért sokat klarágzik. Ti ritkán...","0","klarágzotok","[""klarágzotok"",""klarágoztok""]","klarágzotok","esp trial","10","true"
"html-button-response","90","552828","0.0-11.0-1.39","null","<p>A másik játékos ezt választotta: <b>klarágzotok</b>.</p><p>&#x2705;</p><p>A te válaszod és a másik játékos válasza <b>megegyeznek</b>.</p>","null","","","","feedback trial","",""
"html-button-response-esp","91","557870","0.0-11.0-0.40","4529","János imád trűnyözni, ezért sokat trűnylik. Ők ritkán...","1","trűnyöznek","[""trűnylenek"",""trűnyöznek""]","trűnyöznek","esp trial","10","true"
"html-button-response","92","561389","0.0-11.0-1.40","null","<p>A másik játékos ezt választotta: <b>trűnyöznek</b>.</p><p>&#x2705;</p><p>A te válaszod és a másik játékos válasza <b>megegyeznek</b>.</p>","null","","","","feedback trial","",""
"html-button-response-esp","93","566845","0.0-11.0-0.41","4953","János imád pörözni, ezért sokat pörzik. Ti ritkán...","0","pöröztök","[""pöröztök"",""pörzötök""]","pörzötök","esp trial","10","false"
"html-button-response","94","570364","0.0-11.0-1.41","null","<p>A másik játékos ezt választotta: <b>pörzötök</b>.</p><p>&#10060;</p><p>A válaszaitok <b>nem</b> egyeznek meg.</p>","null","","","","feedback trial","",""
"html-button-response-esp","95","581551","0.0-11.0-0.42","10686","János imád kluzozni, ezért sokat kluzlik. Ti ritkán...","1","kluzoztok","[""kluzlotok"",""kluzoztok""]","kluzlotok","esp trial","10","false"
"html-button-response","96","585068","0.0-11.0-1.42","null","<p>A másik játékos ezt választotta: <b>kluzlotok</b>.</p><p>&#10060;</p><p>A válaszaitok <b>nem</b> egyeznek meg.</p>","null","","","","feedback trial","",""
"html-button-response-esp","97","590435","0.0-11.0-0.43","4863","János imád livényezni, ezért sokat livénylik. Mi ritkán...","1","livényezünk","[""livénylünk"",""livényezünk""]","livényezünk","esp trial","10","true"
"html-button-response","98","593948","0.0-11.0-1.43","null","<p>A másik játékos ezt választotta: <b>livényezünk</b>.</p><p>&#x2705;</p><p>A te válaszod és a másik játékos válasza <b>megegyeznek</b>.</p>","null","","","","feedback trial","",""
"html-button-response-esp","99","598895","0.0-11.0-0.44","4433","János imád drojozni, ezért sokat drojzik. Mi ritkán...","0","drojzunk","[""drojzunk"",""drojozunk""]","drojozunk","esp trial","10","false"
"html-button-response","100","602406","0.0-11.0-1.44","null","<p>A másik játékos ezt választotta: <b>drojozunk</b>.</p><p>&#10060;</p><p>A válaszaitok <b>nem</b> egyeznek meg.</p>","null","","","","feedback trial","",""
"html-button-response-esp","101","607981","0.0-11.0-0.45","5072","János imád brilegezni, ezért sokat brilegzik. Mi ritkán...","0","brilegezünk","[""brilegezünk"",""brilegzünk""]","brilegezünk","esp trial","10","true"
"html-button-response","102","611509","0.0-11.0-1.45","null","<p>A másik játékos ezt választotta: <b>brilegezünk</b>.</p><p>&#x2705;</p><p>A te válaszod és a másik játékos válasza <b>megegyeznek</b>.</p>","null","","","","feedback trial","",""
"html-button-response-esp","103","615797","0.0-11.0-0.46","3783","János imád filányozni, ezért sokat filánylik. Mi ritkán...","0","filányozunk","[""filányozunk"",""filánylunk""]","filányozunk","esp trial","10","true"
"html-button-response","104","619307","0.0-11.0-1.46","null","<p>A másik játékos ezt választotta: <b>filányozunk</b>.</p><p>&#x2705;</p><p>A te válaszod és a másik játékos válasza <b>megegyeznek</b>.</p>","null","","","","feedback trial","",""
"html-button-response-esp","105","626089","0.0-11.0-0.47","6267","János imád vobozni, ezért sokat vobzik. Ti ritkán...","1","voboztok","[""vobzotok"",""voboztok""]","vobzotok","esp trial","10","false"
"html-button-response","106","629612","0.0-11.0-1.47","null","<p>A másik játékos ezt választotta: <b>vobzotok</b>.</p><p>&#10060;</p><p>A válaszaitok <b>nem</b> egyeznek meg.</p>","null","","","","feedback trial","",""
"html-button-response-esp","107","637214","0.0-11.0-0.48","7101","János imád flubokozni, ezért sokat fluboklik. Ti ritkán...","1","flubokoztok","[""fluboklotok"",""flubokoztok""]","fluboklotok","esp trial","10","false"
"html-button-response","108","640732","0.0-11.0-1.48","null","<p>A másik játékos ezt választotta: <b>fluboklotok</b>.</p><p>&#10060;</p><p>A válaszaitok <b>nem</b> egyeznek meg.</p>","null","","","","feedback trial","",""
"html-button-response-esp","109","649199","0.0-11.0-0.49","7952","János imád prilepedni, ezért sokat prilepszik. Mi ritkán...","0","prilepedünk","[""prilepedünk"",""prilepszünk""]","prilepedünk","esp trial","10","true"
"html-button-response","110","652709","0.0-11.0-1.49","null","<p>A másik játékos ezt választotta: <b>prilepedünk</b>.</p><p>&#x2705;</p><p>A te válaszod és a másik játékos válasza <b>megegyeznek</b>.</p>","null","","","","feedback trial","",""
"html-button-response-esp","111","662788","0.0-11.0-0.50","9575","János imád brivepedni, ezért sokat brivepszik. Mi ritkán...","0","brivepedünk","[""brivepedünk"",""brivepszünk""]","brivepedünk","esp trial","10","true"
"html-button-response","112","666319","0.0-11.0-1.50","null","<p>A másik játékos ezt választotta: <b>brivepedünk</b>.</p><p>&#x2705;</p><p>A te válaszod és a másik játékos válasza <b>megegyeznek</b>.</p>","null","","","","feedback trial","",""
"html-button-response-esp","113","673245","0.0-11.0-0.51","6413","János imád frihegezni, ezért sokat friheglik. Mi ritkán...","1","frihegezünk","[""friheglünk"",""frihegezünk""]","frihegezünk","esp trial","10","true"
"html-button-response","114","676765","0.0-11.0-1.51","null","<p>A másik játékos ezt választotta: <b>frihegezünk</b>.</p><p>&#x2705;</p><p>A te válaszod és a másik játékos válasza <b>megegyeznek</b>.</p>","null","","","","feedback trial","",""
"html-button-response-esp","115","683137","0.0-11.0-0.52","5859","János imád drivegezni, ezért sokat drivegzik. Ti ritkán...","1","drivegeztek","[""drivegzetek"",""drivegeztek""]","drivegzetek","esp trial","10","false"
"html-button-response","116","686653","0.0-11.0-1.52","null","<p>A másik játékos ezt választotta: <b>drivegzetek</b>.</p><p>&#10060;</p><p>A válaszaitok <b>nem</b> egyeznek meg.</p>","null","","","","feedback trial","",""
"html-button-response-esp","117","692567","0.0-11.0-0.53","5399","János imád prazozni, ezért sokat prazlik. Mi ritkán...","0","prazozunk","[""prazozunk"",""prazlunk""]","prazozunk","esp trial","10","true"
"html-button-response","118","696096","0.0-11.0-1.53","null","<p>A másik játékos ezt választotta: <b>prazozunk</b>.</p><p>&#x2705;</p><p>A te válaszod és a másik játékos válasza <b>megegyeznek</b>.</p>","null","","","","feedback trial","",""
"html-button-response","119","704256","0.0-12.0","7657","<p>A közös játék most véget ért.</p><p>Mielőtt eláruljuk a végső pontszámodat, arra kérlek, játszd a szóválasztós játékot néhány percig egyedül is.</p><p>A feladatod ugyanaz lesz, választani két lehetőség közül.</p><p>Most viszont egyedül kell döntened, hogy te melyiket választanád.</p>","0","","","","","",""
"html-button-response-clever","120","709234","0.0-13.0-0.0","4475","János imád gihamozni, ezért sokat gihamlik. Ők ritkán...","0","gihamoznak","[""gihamoznak"",""gihamlanak""]","","posttest trial","1",""
"html-button-response-clever","121","713380","0.0-13.0-0.1","3640","János imád vihapodni, ezért sokat vihapszik. Mi ritkán...","0","vihapodunk","[""vihapodunk"",""vihapszunk""]","","posttest trial","1",""
"html-button-response-clever","122","718155","0.0-13.0-0.2","4269","János imád flátozni, ezért sokat flátlik. Ti ritkán...","1","flátoztok","[""flátlotok"",""flátoztok""]","","posttest trial","1",""
"html-button-response-clever","123","721970","0.0-13.0-0.3","3303","János imád bresezni, ezért sokat breslik. Ők ritkán...","0","breseznek","[""breseznek"",""breslenek""]","","posttest trial","1",""
"html-button-response-clever","124","729814","0.0-13.0-0.4","7329","János imád prugorozni, ezért sokat prugorzik. Ti ritkán...","0","prugoroztok","[""prugoroztok"",""prugorzotok""]","","posttest trial","1",""
"html-button-response-clever","125","734514","0.0-13.0-0.5","4184","János imád bribasozni, ezért sokat bribaslik. Ők ritkán...","0","bribasoznak","[""bribasoznak"",""bribaslanak""]","","posttest trial","1",""
"html-button-response-clever","126","740419","0.0-13.0-0.6","5392","János imád nyizozni, ezért sokat nyizlik. Mi ritkán...","0","nyizlunk","[""nyizlunk"",""nyizozunk""]","","posttest trial","1",""
"html-button-response-clever","127","746739","0.0-13.0-0.7","5818","János imád ribegedni, ezért sokat ribegszik. Ti ritkán...","1","ribegedtek","[""ribegszetek"",""ribegedtek""]","","posttest trial","1",""
"html-button-response-clever","128","754083","0.0-13.0-0.8","6836","János imád klihasozni, ezért sokat klihaslik. Ti ritkán...","0","klihasoztok","[""klihasoztok"",""klihaslotok""]","","posttest trial","1",""
"html-button-response-clever","129","761001","0.0-13.0-0.9","6403","János imád bejezni, ezért sokat bejzik. Mi ritkán...","0","bejzünk","[""bejzünk"",""bejezünk""]","","posttest trial","1",""
"html-button-response-clever","130","766058","0.0-13.0-0.10","4540","János imád flodozni, ezért sokat flodlik. Ti ritkán...","1","flodoztok","[""flodlotok"",""flodoztok""]","","posttest trial","1",""
"html-button-response-clever","131","777421","0.0-13.0-0.11","10849","János imád trálakozni, ezért sokat trálaklik. Ők ritkán...","1","trálakoznak","[""trálaklanak"",""trálakoznak""]","","posttest trial","1",""
"html-button-response-clever","132","781734","0.0-13.0-0.12","3807","János imád bribékedni, ezért sokat bribékszik. Ti ritkán...","1","bribékedtek","[""bribékszetek"",""bribékedtek""]","","posttest trial","1",""
"html-button-response-clever","133","787930","0.0-13.0-0.13","5685","János imád sprebezni, ezért sokat sprebzik. Ők ritkán...","0","sprebeznek","[""sprebeznek"",""sprebzenek""]","","posttest trial","1",""
"html-button-response-clever","134","795563","0.0-13.0-0.14","7132","János imád klégezni, ezért sokat kléglik. Mi ritkán...","1","klégezünk","[""kléglünk"",""klégezünk""]","","posttest trial","1",""
"html-button-response-clever","135","801862","0.0-13.0-0.15","5784","János imád jurozni, ezért sokat jurlik. Mi ritkán...","1","jurozunk","[""jurlunk"",""jurozunk""]","","posttest trial","1",""
"html-button-response-clever","136","810514","0.0-13.0-0.16","8147","János imád nivározni, ezért sokat nivárzik. Ti ritkán...","0","nivárzotok","[""nivárzotok"",""nivároztok""]","","posttest trial","1",""
"html-button-response-clever","137","815991","0.0-13.0-0.17","4964","János imád géregezni, ezért sokat géreglik. Ti ritkán...","0","géregeztek","[""géregeztek"",""géregletek""]","","posttest trial","1",""
"html-button-response-clever","138","822294","0.0-13.0-0.18","5787","János imád sűjözni, ezért sokat sűjlik. Mi ritkán...","1","sűjözünk","[""sűjlünk"",""sűjözünk""]","","posttest trial","1",""
"html-button-response-clever","139","834743","0.0-13.0-0.19","11932","János imád frirozni, ezért sokat frirzik. Mi ritkán...","1","frirzunk","[""frirozunk"",""frirzunk""]","","posttest trial","1",""
"html-button-response-clever","140","840732","0.0-13.0-0.20","5475","János imád klűmözni, ezért sokat klűmlik. Ti ritkán...","0","klűmöztök","[""klűmöztök"",""klűmlötök""]","","posttest trial","1",""
"html-button-response-clever","141","848546","0.0-13.0-0.21","7310","János imád flerékedni, ezért sokat flerékszik. Mi ritkán...","0","flerékedünk","[""flerékedünk"",""flerékszünk""]","","posttest trial","1",""
"html-button-response-clever","142","855162","0.0-13.0-0.22","6112","János imád prihegedni, ezért sokat prihegszik. Ők ritkán...","0","prihegednek","[""prihegednek"",""prihegszenek""]","","posttest trial","1",""
"html-button-response-clever","143","859698","0.0-13.0-0.23","4033","János imád nyádozni, ezért sokat nyádlik. Ők ritkán...","0","nyádoznak","[""nyádoznak"",""nyádlanak""]","","posttest trial","1",""
"html-button-response-clever","144","866985","0.0-13.0-0.24","6781","János imád tögözni, ezért sokat töglik. Ők ritkán...","1","tögöznek","[""töglenek"",""tögöznek""]","","posttest trial","1",""
"html-button-response-clever","145","873884","0.0-13.0-0.25","6394","János imád spivejezni, ezért sokat spivejlik. Ők ritkán...","0","spivejeznek","[""spivejeznek"",""spivejlenek""]","","posttest trial","1",""
"html-button-response-clever","146","880250","0.0-13.0-0.26","5852","János imád flugonyozni, ezért sokat flugonylik. Ők ritkán...","1","flugonyoznak","[""flugonylanak"",""flugonyoznak""]","","posttest trial","1",""
"html-button-response-clever","147","886518","0.0-13.0-0.27","5754","János imád nyülöközni, ezért sokat nyülöklik. Ők ritkán...","0","nyülököznek","[""nyülököznek"",""nyülöklenek""]","","posttest trial","1",""
"html-button-response-clever","148","893159","0.0-13.0-0.28","6126","János imád vilesezni, ezért sokat vileslik. Mi ritkán...","1","vilesezünk","[""vileslünk"",""vilesezünk""]","","posttest trial","1",""
"html-button-response-clever","149","899839","0.0-13.0-0.29","6166","János imád metégedni, ezért sokat metégszik. Ők ritkán...","0","metégednek","[""metégednek"",""metégszenek""]","","posttest trial","1",""
"html-button-response-clever","150","903902","0.0-13.0-0.30","3556","János imád trilekedni, ezért sokat trilekszik. Ti ritkán...","0","trilekedtek","[""trilekedtek"",""trilekszetek""]","","posttest trial","1",""
"html-button-response-clever","151","907851","0.0-13.0-0.31","3434","János imád játozni, ezért sokat játlik. Mi ritkán...","0","játozunk","[""játozunk"",""játlunk""]","","posttest trial","1",""
"html-button-response-clever","152","911958","0.0-13.0-0.32","3595","János imád nyöbözni, ezért sokat nyöbzik. Ők ritkán...","0","nyöbzenek","[""nyöbzenek"",""nyöböznek""]","","posttest trial","1",""
"html-button-response-clever","153","916826","0.0-13.0-0.33","4355","János imád hiragozni, ezért sokat hiragzik. Ők ritkán...","1","hiragzanak","[""hiragoznak"",""hiragzanak""]","","posttest trial","1",""
"html-button-response-clever","154","920764","0.0-13.0-0.34","3420","János imád hubonyozni, ezért sokat hubonylik. Ti ritkán...","0","hubonyoztok","[""hubonyoztok"",""hubonylotok""]","","posttest trial","1",""
"html-button-response-clever","155","926085","0.0-13.0-0.35","4808","János imád kláragodni, ezért sokat kláragszik. Ti ritkán...","0","kláragodtok","[""kláragodtok"",""kláragszotok""]","","posttest trial","1",""
"html-button-response-clever","156","931967","0.0-13.0-0.36","5369","János imád bötőrözni, ezért sokat bötőrzik. Mi ritkán...","0","bötőrözünk","[""bötőrözünk"",""bötőrzünk""]","","posttest trial","1",""
"html-button-response-clever","157","937361","0.0-13.0-0.37","4877","János imád brűközni, ezért sokat brűklik. Ti ritkán...","0","brűköztök","[""brűköztök"",""brűklötök""]","","posttest trial","1",""
"html-button-response-clever","158","944484","0.0-13.0-0.38","6617","János imád dralágozni, ezért sokat dralágzik. Mi ritkán...","0","dralágzunk","[""dralágzunk"",""dralágozunk""]","","posttest trial","1",""
"html-button-response-clever","159","951130","0.0-13.0-0.39","6132","János imád spuborozni, ezért sokat spuborzik. Ők ritkán...","1","spuboroznak","[""spuborzanak"",""spuboroznak""]","","posttest trial","1",""
"html-button-response-clever","160","958592","0.0-13.0-0.40","6960","János imád frinyozni, ezért sokat frinylik. Mi ritkán...","0","frinyozunk","[""frinyozunk"",""frinylunk""]","","posttest trial","1",""
"html-button-response-clever","161","966367","0.0-13.0-0.41","7258","János imád döjözni, ezért sokat döjlik. Ők ritkán...","0","döjöznek","[""döjöznek"",""döjlenek""]","","posttest trial","1",""
"html-button-response-clever","162","971446","0.0-13.0-0.42","4566","János imád dibágozni, ezért sokat dibáglik. Ti ritkán...","1","dibágoztok","[""dibáglotok"",""dibágoztok""]","","posttest trial","1",""
"html-button-response-clever","163","978118","0.0-13.0-0.43","6167","János imád sztredezni, ezért sokat sztredlik. Ti ritkán...","0","sztredeztek","[""sztredeztek"",""sztredletek""]","","posttest trial","1",""
"html-button-response-clever","164","984327","0.0-13.0-0.44","5693","János imád trukodni, ezért sokat trukszik. Ti ritkán...","1","trukodtok","[""trukszotok"",""trukodtok""]","","posttest trial","1",""
"html-button-response-clever","165","988277","0.0-13.0-0.45","3444","János imád bügözni, ezért sokat bügzik. Ők ritkán...","0","bügöznek","[""bügöznek"",""bügzenek""]","","posttest trial","1",""
"html-button-response-clever","166","994339","0.0-13.0-0.46","5553","János imád pibegezni, ezért sokat pibegzik. Ők ritkán...","0","pibegeznek","[""pibegeznek"",""pibegzenek""]","","posttest trial","1",""
"html-button-response-clever","167","998601","0.0-13.0-0.47","3758","János imád brürözni, ezért sokat brürzik. Ők ritkán...","0","brüröznek","[""brüröznek"",""brürzenek""]","","posttest trial","1",""
"html-button-response-clever","168","1002260","0.0-13.0-0.48","3146","János imád vehékedni, ezért sokat vehékszik. Mi ritkán...","0","vehékedünk","[""vehékedünk"",""vehékszünk""]","","posttest trial","1",""
"html-button-response-clever","169","1007735","0.0-13.0-0.49","4959","János imád frélegezni, ezért sokat frélegzik. Mi ritkán...","0","frélegezünk","[""frélegezünk"",""frélegzünk""]","","posttest trial","1",""
"html-button-response-clever","170","1012143","0.0-13.0-0.50","3905","János imád nurokozni, ezért sokat nuroklik. Mi ritkán...","1","nurokozunk","[""nuroklunk"",""nurokozunk""]","","posttest trial","1",""
"html-button-response-clever","171","1015751","0.0-13.0-0.51","3097","János imád frorozni, ezért sokat frorlik. Ők ritkán...","0","froroznak","[""froroznak"",""frorlanak""]","","posttest trial","1",""
"html-button-response-clever","172","1022443","0.0-13.0-0.52","6187","János imád trálodni, ezért sokat trálszik. Mi ritkán...","1","trálodunk","[""trálszunk"",""trálodunk""]","","posttest trial","1",""
"html-button-response-clever","173","1027979","0.0-13.0-0.53","5026","János imád plibozni, ezért sokat plibzik. Ti ritkán...","0","pliboztok","[""pliboztok"",""plibzotok""]","","posttest trial","1",""
"html-button-response","174","1040768","0.0-14.0","12276","<p> Vége a játéknak. A teljes pontszámod 35/54.</p><p> Szép munka! &#128526;&#128526;&#128526;</p><p>A Befejezés gomb megnyomása után bezárhatod a böngészőablakot.</p>","0","","","","","",""
"html-keyboard-response","175","1046280","0.0-15.0","null","<div class=""message"">
         <p>Egy kis türelmet kérünk, amíg elmentjük az adatokat...</p>
         </div>","null","","","","","",""
