"trial_type","trial_index","time_elapsed","internal_node_id","rt","stimulus","response","response_string","choices","esp_response","trial_kind","list_number","esp_match"
"pavlovia","0","1639","0.0-0.0","","","","","","","","",""
"html-button-response","1","31374","0.0-1.0","29230","<p>Kedves Résztvevő! A Budapesti Műszaki és Gazdaságtudományi Egyetem Kognitív Tudományi Tanszékének kutatásában való részvételed kérjük. A kutatásban azt vizsgáljuk, hogy a magyar anyanyelvűek hogyan használnak bizonyos szóalakokat, és hogy milyen képük van arról, hogy mások hogyan használják, hogyan képzik a szavakat. Ez hozzásegít bennünket ahhoz, hogy jobban megértsük, hogyan dolgozza fel és tárolja a nyelvet az emberi agy, és hogyan működnek, hogyan változnak egy adott közösség nyelvi konvenciói.</p><p>A vizsgálat egy rövid számítógépes feladatból fog állni. A kutatásban való részvétel önkéntes, a részvételi szándék bármikor visszavonható. A résztvevők eredményeit név nélkül kezeljük, így nem beazonosíthatók az adatok feldolgozása során. Minden személyes adatot az EU általános adatvédelmi rendeletének (GDPR) megfelelően kezelünk és legfeljebb öt éven belül megsemmisítünk. A vizsgálat jellemzően húsz percet vesz igénybe.</p><p>Kutatásvezető:</p><p>Dr. Rácz Péter, tudományos munkatárs, BME KTT</p><p>e-mail: racz.peter.marton@ttk.bme.hu</p>","0","","","","","",""
"html-button-response","2","64461","0.0-2.0","32571","<p>A kísérletben szavakat fogsz látni. Ezek között lesznek olyanok, amelyeket ismersz, de előfordulhatnak olyanok is, amelyeket nem ismersz, sőt, vannak köztük kitalált szavak is. Minden szónál látni fogsz toldalékolt alakokat. A te feladatod az lesz, hogy minden szóhoz kiválaszd azt a toldalékolt alakot, amely a te számodra ismerősebben, természetesebben hangzik. Rossz válaszok nincsenek, mert van olyan, hogy különböző embereknek más és más szó tűnik jobb választásnak. A választ úgy tudod majd kiválasztani, ha rákattintasz.</p><p>Ebben a szóválasztós játékban egy másik játékossal együtt veszel majd részt. A másik játékos is minden esetben azok közül a lehetőségek közül válogathat, mint te. Kettőtök feladata az, hogy ugyanazt a lehetőséget válasszátok minden esetben. Ahhoz, hogy ez sikerüljön, neked figyelned kell arra, hogy a másik játékos milyen válaszokat ad, és ennek alapján meg kell tippelned, hogyan választ legközelebb. Ha eltalálod, akkor pontot kapsz.</p>","0","","","","","",""
"html-button-response","3","72551","0.0-3.0","7570","<p>Kérjük, olvasd el az alábbi nyilatkozatot, és amennyiben egyetértesz vele, nyomj a Beleegyezés gombra!</p><p>Kijelentem, hogy magyar anyanyelvű személyként önként veszek részt a BME KTT kísérletében. A kutatás céljával és folyamatával kapcsolatban elegendő tájékoztatást kaptam, lehetőségem volt kérdések feltételére, és esetleges kérdéseimre megfelelő válaszokat kaptam. A tájékoztatás alapján elegendő mennyiségű információ áll a rendelkezésemre, hogy eldönthessem, részt kívánok-e venni a kutatásban.</p><p>Tisztában vagyok vele, hogy részvételi szándékomat és adataimat bármikor, indoklás nélkül visszavonhatom.</p><p>Értem és tudomásul veszem, hogy a kutatás tudományos célokat szolgál, és az általam szolgáltatott adatokat a BME kizárólag kutatási célból használja fel. Tudomásul veszem, hogy eredményeimet a többi résztvevő eredményeivel együtt kezelik, így egyéni teljesítményemről visszajelzést, szakvéleményt nem kapok.</p><p>Megértettem, hogy adataim kezelését illetően a BME az EU általános adatvédelmi rendelete (GDPR), a hatályos adatvédelmi törvény és a nemzetközi kutatás-etikai alapelvek szerint jár el. Eredményeim anonim módon kerülnek feldolgozásra, és a kutatás résztvevői az azonosításomra alkalmas adataimat harmadik félnek nem szolgáltatják ki. Engedélyezem a BME számára a jelen kutatásban felvett adataim feldolgozását és tárolását, beleértve azok későbbi kutatásokhoz való felhasználását is. Személyes adataim kezelésével kapcsolatban tájékoztatást kérhetek a kutatás résztvevőitől, az adatkezelés ellen tiltakozhatok, kérhetem személyes adataim helyesbítését, törlését vagy zárolását, valamint jogorvoslatért a Nemzeti Adatvédelmi és Információszabadság Hatósághoz fordulhatok.</p><p>Kijelentem, hogy a kutatásban való részvételem körülményeiről részletes tájékoztatást kaptam, és a feltételeket elfogadom.</p>","0","","","","","",""
"survey-text","4","115654","0.0-4.0","42527","","{""Q0"":""GKKKHT"",""Q1"":""nő"",""Q2"":""1987."",""Q3"":""19""}","","","","","",""
"html-button-response","5","132166","0.0-5.0","15989","<p>Ebben a játékban szavakat kell toldalékolni.</p> <p>Minden körben mutatunk majd egy példamondatot, amiben lesz egy szó.</p> <p>Alatta jön egy második mondat, ezt a mondatot neked kell majd befejezni, ugyanezzel a szóval.</p> <p>Nem biztos, hogy a szó eleve ismerős lesz számodra!</p> <p>Minden mondathoz adunk két lehetőséget, ezeket balra és jobbra látod majd.</p> <p>A játék kb. negyedóráig-húsz percig tart.</p>","0","","","","","",""
"html-button-response","6","147625","0.0-6.0","14940","<p>Nézzünk egy példát!</p> <p>A példamondat: ""Ez itt egy blumbnyeg.""</p><p>Neked ezt a mondatot kell befejezned: ""Ott vagyunk a...""</p><p>A lehetőségek pedig ezek:</p>","0","","","","","",""
"html-button-response","7","156844","0.0-7.0","8693","<p>Nagyon jó.</p><p>Ezt a játékot nem egyedül fogod játszani, hanem egy másik játékossal.</p><p>Mielőtt továbblépünk, összekapcsolunk titeket egymással.</p><p>Ez igénybe vehet néhány másodpercet, amihez szíves türelmed kérjük.</p>","0","","","","","",""
"html-button-response","8","162595","0.0-8.0","null","<p>Csatlakozás a másik játékoshoz...</p>","null","","","","","",""
"html-button-response","9","165121","0.0-9.0","null","<p> Sikeres kapcsolódás!</p>","null","","","","","",""
"html-button-response","10","175650","0.0-10.0","null","<p>A következőkben ketten játsszátok a szóválasztós játékot.</p><p>A feladatotok az lesz, hogy minden körben <b>ugyanazt</b> a szót válasszátok.</p><p>Minden ilyen egyező válaszért pontot kaptok.</p><p>Próbáld meg kitalálni, mit választ a másik játékos!</p><p>Bármikor választhatsz, a körnek akkor van vége, ha mindketten döntöttetek.</p><p>Sok sikert!</p>","null","","","","","",""
"html-button-response-esp","11","181793","0.0-11.0-0.0","5625","Ez itt egy dunkész. Ott vagyunk a...","0","dunkészben","[""dunkészben"",""dunkészban""]","dunkészben","esp trial","4","true"
"html-button-response","12","185315","0.0-11.0-1.0","null","<p>A másik játékos ezt választotta: <b>dunkészben</b>.</p><p>&#x2705;</p><p>A te válaszod és a másik játékos válasza <b>megegyeznek</b>.</p>","null","","","","feedback trial","",""
"html-button-response-esp","13","190740","0.0-11.0-0.1","3784","Ez itt egy briskéd. Nincs is jobb egy jó...","0","briskédnél","[""briskédnél"",""briskédnál""]","briskédnál","esp trial","4","false"
"html-button-response","14","194255","0.0-11.0-1.1","null","<p>A másik játékos ezt választotta: <b>briskédnál</b>.</p><p>&#10060;</p><p>A válaszaitok <b>nem</b> egyeznek meg.</p>","null","","","","feedback trial","",""
"html-button-response-esp","15","199662","0.0-11.0-0.2","3944","Ez itt egy vurnel. Elneveztem a kutyámat...","1","vurnelnek","[""vurnelnak"",""vurnelnek""]","vurnelnak","esp trial","4","false"
"html-button-response","16","203176","0.0-11.0-1.2","null","<p>A másik játékos ezt választotta: <b>vurnelnak</b>.</p><p>&#10060;</p><p>A válaszaitok <b>nem</b> egyeznek meg.</p>","null","","","","feedback trial","",""
"html-button-response-esp","17","208581","0.0-11.0-0.3","3353","Ez itt egy klítegy. Nincs is jobb egy jó...","0","klítegynál","[""klítegynál"",""klítegynél""]","klítegynál","esp trial","4","true"
"html-button-response","18","212094","0.0-11.0-1.3","null","<p>A másik játékos ezt választotta: <b>klítegynál</b>.</p><p>&#x2705;</p><p>A te válaszod és a másik játékos válasza <b>megegyeznek</b>.</p>","null","","","","feedback trial","",""
"html-button-response-esp","19","217512","0.0-11.0-0.4","3886","Ez itt egy csodeg. Nincs is jobb egy jó...","0","csodegnél","[""csodegnél"",""csodegnál""]","csodegnál","esp trial","4","false"
"html-button-response","20","221043","0.0-11.0-1.4","null","<p>A másik játékos ezt választotta: <b>csodegnál</b>.</p><p>&#10060;</p><p>A válaszaitok <b>nem</b> egyeznek meg.</p>","null","","","","feedback trial","",""
"html-button-response-esp","21","226486","0.0-11.0-0.5","3483","Ez itt egy bingéj. Elneveztem a kutyámat...","0","bingéjnak","[""bingéjnak"",""bingéjnek""]","bingéjnak","esp trial","4","true"
"html-button-response","22","230002","0.0-11.0-1.5","null","<p>A másik játékos ezt választotta: <b>bingéjnak</b>.</p><p>&#x2705;</p><p>A te válaszod és a másik játékos válasza <b>megegyeznek</b>.</p>","null","","","","feedback trial","",""
"html-button-response-esp","23","235439","0.0-11.0-0.6","3403","Ez itt egy vismer. Nincs is jobb egy jó...","0","vismernál","[""vismernál"",""vismernél""]","vismernál","esp trial","4","true"
"html-button-response","24","238955","0.0-11.0-1.6","null","<p>A másik játékos ezt választotta: <b>vismernál</b>.</p><p>&#x2705;</p><p>A te válaszod és a másik játékos válasza <b>megegyeznek</b>.</p>","null","","","","feedback trial","",""
"html-button-response-esp","25","244372","0.0-11.0-0.7","3831","Ez itt egy szanéj. Elneveztem a kutyámat...","1","szanéjnak","[""szanéjnek"",""szanéjnak""]","szanéjnek","esp trial","4","false"
"html-button-response","26","247889","0.0-11.0-1.7","null","<p>A másik játékos ezt választotta: <b>szanéjnek</b>.</p><p>&#10060;</p><p>A válaszaitok <b>nem</b> egyeznek meg.</p>","null","","","","feedback trial","",""
"html-button-response-esp","27","253311","0.0-11.0-0.8","3462","Ez itt egy dajrens. Nincs is jobb egy jó...","1","dajrensnél","[""dajrensnál"",""dajrensnél""]","dajrensnál","esp trial","4","false"
"html-button-response","28","256849","0.0-11.0-1.8","null","<p>A másik játékos ezt választotta: <b>dajrensnál</b>.</p><p>&#10060;</p><p>A válaszaitok <b>nem</b> egyeznek meg.</p>","null","","","","feedback trial","",""
"html-button-response-esp","29","262265","0.0-11.0-0.9","3287","Ez itt egy dibez. Ott vagyunk a...","1","dibezben","[""dibezban"",""dibezben""]","dibezban","esp trial","4","false"
"html-button-response","30","265795","0.0-11.0-1.9","null","<p>A másik játékos ezt választotta: <b>dibezban</b>.</p><p>&#10060;</p><p>A válaszaitok <b>nem</b> egyeznek meg.</p>","null","","","","feedback trial","",""
"html-button-response-esp","31","271219","0.0-11.0-0.10","2427","Ez itt egy dutec. Nincs is jobb egy jó...","0","dutecnél","[""dutecnél"",""dutecnál""]","dutecnál","esp trial","4","false"
"html-button-response","32","274735","0.0-11.0-1.10","null","<p>A másik játékos ezt választotta: <b>dutecnál</b>.</p><p>&#10060;</p><p>A válaszaitok <b>nem</b> egyeznek meg.</p>","null","","","","feedback trial","",""
"html-button-response-esp","33","280141","0.0-11.0-0.11","3778","Ez itt egy nuhét. Nincs is jobb egy jó...","0","nuhétnál","[""nuhétnál"",""nuhétnél""]","nuhétnál","esp trial","4","true"
"html-button-response","34","283669","0.0-11.0-1.11","null","<p>A másik játékos ezt választotta: <b>nuhétnál</b>.</p><p>&#x2705;</p><p>A te válaszod és a másik játékos válasza <b>megegyeznek</b>.</p>","null","","","","feedback trial","",""
"html-button-response-esp","35","289077","0.0-11.0-0.12","3096","Ez itt egy tumély. Nincs is jobb egy jó...","0","tumélynál","[""tumélynál"",""tumélynél""]","tumélynál","esp trial","4","true"
"html-button-response","36","292609","0.0-11.0-1.12","null","<p>A másik játékos ezt választotta: <b>tumélynál</b>.</p><p>&#x2705;</p><p>A te válaszod és a másik játékos válasza <b>megegyeznek</b>.</p>","null","","","","feedback trial","",""
"html-button-response-esp","37","298029","0.0-11.0-0.13","2618","Ez itt egy zatéj. Nincs is jobb egy jó...","1","zatéjnál","[""zatéjnél"",""zatéjnál""]","zatéjnál","esp trial","4","true"
"html-button-response","38","301545","0.0-11.0-1.13","null","<p>A másik játékos ezt választotta: <b>zatéjnál</b>.</p><p>&#x2705;</p><p>A te válaszod és a másik játékos válasza <b>megegyeznek</b>.</p>","null","","","","feedback trial","",""
"html-button-response-esp","39","306953","0.0-11.0-0.14","2095","Ez itt egy pazév. Nincs is jobb egy jó...","0","pazévnál","[""pazévnál"",""pazévnél""]","pazévnél","esp trial","4","false"
"html-button-response","40","310485","0.0-11.0-1.14","null","<p>A másik játékos ezt választotta: <b>pazévnél</b>.</p><p>&#10060;</p><p>A válaszaitok <b>nem</b> egyeznek meg.</p>","null","","","","feedback trial","",""
"html-button-response-esp","41","315904","0.0-11.0-0.15","3811","Ez itt egy pristél. Ott vagyunk a...","0","pristélban","[""pristélban"",""pristélben""]","pristélban","esp trial","4","true"
"html-button-response","42","319435","0.0-11.0-1.15","null","<p>A másik játékos ezt választotta: <b>pristélban</b>.</p><p>&#x2705;</p><p>A te válaszod és a másik játékos válasza <b>megegyeznek</b>.</p>","null","","","","feedback trial","",""
"html-button-response-esp","43","324855","0.0-11.0-0.16","4493","Ez itt egy kátéd. Nincs is jobb egy jó...","0","kátédnál","[""kátédnál"",""kátédnél""]","kátédnél","esp trial","4","false"
"html-button-response","44","328384","0.0-11.0-1.16","null","<p>A másik játékos ezt választotta: <b>kátédnél</b>.</p><p>&#10060;</p><p>A válaszaitok <b>nem</b> egyeznek meg.</p>","null","","","","feedback trial","",""
"html-button-response-esp","45","333826","0.0-11.0-0.17","3765","Ez itt egy fupét. Nincs is jobb egy jó...","1","fupétnél","[""fupétnál"",""fupétnél""]","fupétnál","esp trial","4","false"
"html-button-response","46","337356","0.0-11.0-1.17","null","<p>A másik játékos ezt választotta: <b>fupétnál</b>.</p><p>&#10060;</p><p>A válaszaitok <b>nem</b> egyeznek meg.</p>","null","","","","feedback trial","",""
"html-button-response-esp","47","342764","0.0-11.0-0.18","2751","Ez itt egy sihen. Nincs is jobb egy jó...","0","sihennél","[""sihennél"",""sihennál""]","sihennál","esp trial","4","false"
"html-button-response","48","346294","0.0-11.0-1.18","null","<p>A másik játékos ezt választotta: <b>sihennál</b>.</p><p>&#10060;</p><p>A válaszaitok <b>nem</b> egyeznek meg.</p>","null","","","","feedback trial","",""
"html-button-response-esp","49","351716","0.0-11.0-0.19","2745","Ez itt egy klazér. Ott vagyunk a...","0","klazérban","[""klazérban"",""klazérben""]","klazérben","esp trial","4","false"
"html-button-response","50","355245","0.0-11.0-1.19","null","<p>A másik játékos ezt választotta: <b>klazérben</b>.</p><p>&#10060;</p><p>A válaszaitok <b>nem</b> egyeznek meg.</p>","null","","","","feedback trial","",""
"html-button-response-esp","51","360653","0.0-11.0-0.20","3079","Ez itt egy jutély. Nincs is jobb egy jó...","1","jutélynél","[""jutélynál"",""jutélynél""]","jutélynél","esp trial","4","true"
"html-button-response","52","364183","0.0-11.0-1.20","null","<p>A másik játékos ezt választotta: <b>jutélynél</b>.</p><p>&#x2705;</p><p>A te válaszod és a másik játékos válasza <b>megegyeznek</b>.</p>","null","","","","feedback trial","",""
"html-button-response-esp","53","369602","0.0-11.0-0.21","4203","Ez itt egy trodély. Ott vagyunk a...","0","trodélyben","[""trodélyben"",""trodélyban""]","trodélyben","esp trial","4","true"
"html-button-response","54","373136","0.0-11.0-1.21","null","<p>A másik játékos ezt választotta: <b>trodélyben</b>.</p><p>&#x2705;</p><p>A te válaszod és a másik játékos válasza <b>megegyeznek</b>.</p>","null","","","","feedback trial","",""
"html-button-response-esp","55","378566","0.0-11.0-0.22","3602","Ez itt egy jurdent. Nincs is jobb egy jó...","0","jurdentnél","[""jurdentnél"",""jurdentnál""]","jurdentnál","esp trial","4","false"
"html-button-response","56","382098","0.0-11.0-1.22","null","<p>A másik játékos ezt választotta: <b>jurdentnál</b>.</p><p>&#10060;</p><p>A válaszaitok <b>nem</b> egyeznek meg.</p>","null","","","","feedback trial","",""
"html-button-response-esp","57","387506","0.0-11.0-0.23","3199","Ez itt egy lingék. Nincs is jobb egy jó...","1","lingéknél","[""lingéknál"",""lingéknél""]","lingéknál","esp trial","4","false"
"html-button-response","58","391019","0.0-11.0-1.23","null","<p>A másik játékos ezt választotta: <b>lingéknál</b>.</p><p>&#10060;</p><p>A válaszaitok <b>nem</b> egyeznek meg.</p>","null","","","","feedback trial","",""
"html-button-response-esp","59","396422","0.0-11.0-0.24","4483","Ez itt egy spizec. Elneveztem a kutyámat...","0","spizecnek","[""spizecnek"",""spizecnak""]","spizecnak","esp trial","4","false"
"html-button-response","60","399938","0.0-11.0-1.24","null","<p>A másik játékos ezt választotta: <b>spizecnak</b>.</p><p>&#10060;</p><p>A válaszaitok <b>nem</b> egyeznek meg.</p>","null","","","","feedback trial","",""
"html-button-response-esp","61","405361","0.0-11.0-0.25","2251","Ez itt egy vodec. Nincs is jobb egy jó...","0","vodecnél","[""vodecnél"",""vodecnál""]","vodecnál","esp trial","4","false"
"html-button-response","62","408891","0.0-11.0-1.25","null","<p>A másik játékos ezt választotta: <b>vodecnál</b>.</p><p>&#10060;</p><p>A válaszaitok <b>nem</b> egyeznek meg.</p>","null","","","","feedback trial","",""
"html-button-response-esp","63","414298","0.0-11.0-0.26","2671","Ez itt egy zarcég. Nincs is jobb egy jó...","1","zarcégnél","[""zarcégnál"",""zarcégnél""]","zarcégnál","esp trial","4","false"
"html-button-response","64","417815","0.0-11.0-1.26","null","<p>A másik játékos ezt választotta: <b>zarcégnál</b>.</p><p>&#10060;</p><p>A válaszaitok <b>nem</b> egyeznek meg.</p>","null","","","","feedback trial","",""
"html-button-response-esp","65","423238","0.0-11.0-0.27","3679","Ez itt egy zábény. Elneveztem a kutyámat...","1","zábénynek","[""zábénynak"",""zábénynek""]","zábénynak","esp trial","4","false"
"html-button-response","66","426769","0.0-11.0-1.27","null","<p>A másik játékos ezt választotta: <b>zábénynak</b>.</p><p>&#10060;</p><p>A válaszaitok <b>nem</b> egyeznek meg.</p>","null","","","","feedback trial","",""
"html-button-response-esp","67","432189","0.0-11.0-0.28","3383","Ez itt egy cságyelt. Ott vagyunk a...","0","cságyeltban","[""cságyeltban"",""cságyeltben""]","cságyeltban","esp trial","4","true"
"html-button-response","68","435740","0.0-11.0-1.28","null","<p>A másik játékos ezt választotta: <b>cságyeltban</b>.</p><p>&#x2705;</p><p>A te válaszod és a másik játékos válasza <b>megegyeznek</b>.</p>","null","","","","feedback trial","",""
"html-button-response-esp","69","441147","0.0-11.0-0.29","3366","Ez itt egy humék. Elneveztem a kutyámat...","0","huméknak","[""huméknak"",""huméknek""]","huméknek","esp trial","4","false"
"html-button-response","70","444679","0.0-11.0-1.29","null","<p>A másik játékos ezt választotta: <b>huméknek</b>.</p><p>&#10060;</p><p>A válaszaitok <b>nem</b> egyeznek meg.</p>","null","","","","feedback trial","",""
"html-button-response-esp","71","450100","0.0-11.0-0.30","2995","Ez itt egy trikép. Ott vagyunk a...","1","triképben","[""triképban"",""triképben""]","triképban","esp trial","4","false"
"html-button-response","72","453630","0.0-11.0-1.30","null","<p>A másik játékos ezt választotta: <b>triképban</b>.</p><p>&#10060;</p><p>A válaszaitok <b>nem</b> egyeznek meg.</p>","null","","","","feedback trial","",""
"html-button-response-esp","73","459068","0.0-11.0-0.31","3750","Ez itt egy dóbem. Elneveztem a kutyámat...","1","dóbemnek","[""dóbemnak"",""dóbemnek""]","dóbemnak","esp trial","4","false"
"html-button-response","74","462584","0.0-11.0-1.31","null","<p>A másik játékos ezt választotta: <b>dóbemnak</b>.</p><p>&#10060;</p><p>A válaszaitok <b>nem</b> egyeznek meg.</p>","null","","","","feedback trial","",""
"html-button-response-esp","75","468011","0.0-11.0-0.32","3152","Ez itt egy lijez. Elneveztem a kutyámat...","1","lijeznak","[""lijeznek"",""lijeznak""]","lijeznak","esp trial","4","true"
"html-button-response","76","471532","0.0-11.0-1.32","null","<p>A másik játékos ezt választotta: <b>lijeznak</b>.</p><p>&#x2705;</p><p>A te válaszod és a másik játékos válasza <b>megegyeznek</b>.</p>","null","","","","feedback trial","",""
"html-button-response-esp","77","476957","0.0-11.0-0.33","3144","Ez itt egy tarhéz. Ott vagyunk a...","1","tarhézban","[""tarhézben"",""tarhézban""]","tarhézben","esp trial","4","false"
"html-button-response","78","480489","0.0-11.0-1.33","null","<p>A másik játékos ezt választotta: <b>tarhézben</b>.</p><p>&#10060;</p><p>A válaszaitok <b>nem</b> egyeznek meg.</p>","null","","","","feedback trial","",""
"html-button-response-esp","79","485897","0.0-11.0-0.34","3546","Ez itt egy fágyép. Nincs is jobb egy jó...","1","fágyépnál","[""fágyépnél"",""fágyépnál""]","fágyépnél","esp trial","4","false"
"html-button-response","80","489428","0.0-11.0-1.34","null","<p>A másik játékos ezt választotta: <b>fágyépnél</b>.</p><p>&#10060;</p><p>A válaszaitok <b>nem</b> egyeznek meg.</p>","null","","","","feedback trial","",""
"html-button-response-esp","81","494833","0.0-11.0-0.35","3570","Ez itt egy surnegy. Nincs is jobb egy jó...","0","surnegynál","[""surnegynál"",""surnegynél""]","surnegynál","esp trial","4","true"
"html-button-response","82","498349","0.0-11.0-1.35","null","<p>A másik játékos ezt választotta: <b>surnegynál</b>.</p><p>&#x2705;</p><p>A te válaszod és a másik játékos válasza <b>megegyeznek</b>.</p>","null","","","","feedback trial","",""
"html-button-response-esp","83","503754","0.0-11.0-0.36","4524","Ez itt egy zuten. Nincs is jobb egy jó...","0","zutennál","[""zutennál"",""zutennél""]","zutennál","esp trial","4","true"
"html-button-response","84","507280","0.0-11.0-1.36","null","<p>A másik játékos ezt választotta: <b>zutennál</b>.</p><p>&#x2705;</p><p>A te válaszod és a másik játékos válasza <b>megegyeznek</b>.</p>","null","","","","feedback trial","",""
"html-button-response-esp","85","512688","0.0-11.0-0.37","3210","Ez itt egy spatel. Elneveztem a kutyámat...","1","spatelnek","[""spatelnak"",""spatelnek""]","spatelnak","esp trial","4","false"
"html-button-response","86","516219","0.0-11.0-1.37","null","<p>A másik játékos ezt választotta: <b>spatelnak</b>.</p><p>&#10060;</p><p>A válaszaitok <b>nem</b> egyeznek meg.</p>","null","","","","feedback trial","",""
"html-button-response-esp","87","521639","0.0-11.0-0.38","3958","Ez itt egy mádép. Nincs is jobb egy jó...","1","mádépnál","[""mádépnél"",""mádépnál""]","mádépnél","esp trial","4","false"
"html-button-response","88","525174","0.0-11.0-1.38","null","<p>A másik játékos ezt választotta: <b>mádépnél</b>.</p><p>&#10060;</p><p>A válaszaitok <b>nem</b> egyeznek meg.</p>","null","","","","feedback trial","",""
"html-button-response-esp","89","530593","0.0-11.0-0.39","2694","Ez itt egy zsalrén. Elneveztem a kutyámat...","0","zsalrénnak","[""zsalrénnak"",""zsalrénnek""]","zsalrénnak","esp trial","4","true"
"html-button-response","90","534107","0.0-11.0-1.39","null","<p>A másik játékos ezt választotta: <b>zsalrénnak</b>.</p><p>&#x2705;</p><p>A te válaszod és a másik játékos válasza <b>megegyeznek</b>.</p>","null","","","","feedback trial","",""
"html-button-response-esp","91","539532","0.0-11.0-0.40","3869","Ez itt egy szibed. Ott vagyunk a...","1","szibedben","[""szibedban"",""szibedben""]","szibedban","esp trial","4","false"
"html-button-response","92","543060","0.0-11.0-1.40","null","<p>A másik játékos ezt választotta: <b>szibedban</b>.</p><p>&#10060;</p><p>A válaszaitok <b>nem</b> egyeznek meg.</p>","null","","","","feedback trial","",""
"html-button-response-esp","93","548467","0.0-11.0-0.41","2605","Ez itt egy csublény. Ott vagyunk a...","0","csublényban","[""csublényban"",""csublényben""]","csublényben","esp trial","4","false"
"html-button-response","94","551988","0.0-11.0-1.41","null","<p>A másik játékos ezt választotta: <b>csublényben</b>.</p><p>&#10060;</p><p>A válaszaitok <b>nem</b> egyeznek meg.</p>","null","","","","feedback trial","",""
"html-button-response-esp","95","557406","0.0-11.0-0.42","3213","Ez itt egy zined. Elneveztem a kutyámat...","0","zinednak","[""zinednak"",""zinednek""]","zinednak","esp trial","4","true"
"html-button-response","96","560940","0.0-11.0-1.42","null","<p>A másik játékos ezt választotta: <b>zinednak</b>.</p><p>&#x2705;</p><p>A te válaszod és a másik játékos válasza <b>megegyeznek</b>.</p>","null","","","","feedback trial","",""
"html-button-response-esp","97","566382","0.0-11.0-0.43","4045","Ez itt egy lihény. Elneveztem a kutyámat...","1","lihénynak","[""lihénynek"",""lihénynak""]","lihénynak","esp trial","4","true"
"html-button-response","98","569899","0.0-11.0-1.43","null","<p>A másik játékos ezt választotta: <b>lihénynak</b>.</p><p>&#x2705;</p><p>A te válaszod és a másik játékos válasza <b>megegyeznek</b>.</p>","null","","","","feedback trial","",""
"html-button-response-esp","99","575323","0.0-11.0-0.44","2925","Ez itt egy tivenc. Ott vagyunk a...","0","tivencben","[""tivencben"",""tivencban""]","tivencban","esp trial","4","false"
"html-button-response","100","578839","0.0-11.0-1.44","null","<p>A másik játékos ezt választotta: <b>tivencban</b>.</p><p>&#10060;</p><p>A válaszaitok <b>nem</b> egyeznek meg.</p>","null","","","","feedback trial","",""
"html-button-response-esp","101","584617","0.0-11.0-0.45","5275","Ez itt egy gábéd. Nincs is jobb egy jó...","1","gábédnél","[""gábédnál"",""gábédnél""]","gábédnél","esp trial","4","true"
"html-button-response","102","588138","0.0-11.0-1.45","null","<p>A másik játékos ezt választotta: <b>gábédnél</b>.</p><p>&#x2705;</p><p>A te válaszod és a másik játékos válasza <b>megegyeznek</b>.</p>","null","","","","feedback trial","",""
"html-button-response-esp","103","593571","0.0-11.0-0.46","3624","Ez itt egy spivél. Elneveztem a kutyámat...","0","spivélnak","[""spivélnak"",""spivélnek""]","spivélnak","esp trial","4","true"
"html-button-response","104","597086","0.0-11.0-1.46","null","<p>A másik játékos ezt választotta: <b>spivélnak</b>.</p><p>&#x2705;</p><p>A te válaszod és a másik játékos válasza <b>megegyeznek</b>.</p>","null","","","","feedback trial","",""
"html-button-response-esp","105","602494","0.0-11.0-0.47","3316","Ez itt egy hosét. Elneveztem a kutyámat...","1","hosétnak","[""hosétnek"",""hosétnak""]","hosétnek","esp trial","4","false"
"html-button-response","106","606024","0.0-11.0-1.47","null","<p>A másik játékos ezt választotta: <b>hosétnek</b>.</p><p>&#10060;</p><p>A válaszaitok <b>nem</b> egyeznek meg.</p>","null","","","","feedback trial","",""
"html-button-response-esp","107","611432","0.0-11.0-0.48","3658","Ez itt egy murdes. Nincs is jobb egy jó...","0","murdesnál","[""murdesnál"",""murdesnél""]","murdesnál","esp trial","4","true"
"html-button-response","108","614947","0.0-11.0-1.48","null","<p>A másik játékos ezt választotta: <b>murdesnál</b>.</p><p>&#x2705;</p><p>A te válaszod és a másik játékos válasza <b>megegyeznek</b>.</p>","null","","","","feedback trial","",""
"html-button-response-esp","109","620367","0.0-11.0-0.49","2988","Ez itt egy fizend. Ott vagyunk a...","1","fizendben","[""fizendban"",""fizendben""]","fizendban","esp trial","4","false"
"html-button-response","110","623898","0.0-11.0-1.49","null","<p>A másik játékos ezt választotta: <b>fizendban</b>.</p><p>&#10060;</p><p>A válaszaitok <b>nem</b> egyeznek meg.</p>","null","","","","feedback trial","",""
"html-button-response-esp","111","629307","0.0-11.0-0.50","3224","Ez itt egy fojlegy. Elneveztem a kutyámat...","0","fojlegynak","[""fojlegynak"",""fojlegynek""]","fojlegynak","esp trial","4","true"
"html-button-response","112","632825","0.0-11.0-1.50","null","<p>A másik játékos ezt választotta: <b>fojlegynak</b>.</p><p>&#x2705;</p><p>A te válaszod és a másik játékos válasza <b>megegyeznek</b>.</p>","null","","","","feedback trial","",""
"html-button-response-esp","113","638245","0.0-11.0-0.51","3206","Ez itt egy klajrén. Elneveztem a kutyámat...","0","klajrénnak","[""klajrénnak"",""klajrénnek""]","klajrénnek","esp trial","4","false"
"html-button-response","114","641778","0.0-11.0-1.51","null","<p>A másik játékos ezt választotta: <b>klajrénnek</b>.</p><p>&#10060;</p><p>A válaszaitok <b>nem</b> egyeznek meg.</p>","null","","","","feedback trial","",""
"html-button-response-esp","115","647219","0.0-11.0-0.52","3126","Ez itt egy dinelt. Ott vagyunk a...","1","dineltban","[""dineltben"",""dineltban""]","dineltban","esp trial","4","true"
"html-button-response","116","650749","0.0-11.0-1.52","null","<p>A másik játékos ezt választotta: <b>dineltban</b>.</p><p>&#x2705;</p><p>A te válaszod és a másik játékos válasza <b>megegyeznek</b>.</p>","null","","","","feedback trial","",""
"html-button-response-esp","117","656155","0.0-11.0-0.53","3949","Ez itt egy hijegy. Nincs is jobb egy jó...","1","hijegynál","[""hijegynél"",""hijegynál""]","hijegynál","esp trial","4","true"
"html-button-response","118","659670","0.0-11.0-1.53","null","<p>A másik játékos ezt választotta: <b>hijegynál</b>.</p><p>&#x2705;</p><p>A te válaszod és a másik játékos válasza <b>megegyeznek</b>.</p>","null","","","","feedback trial","",""
"html-button-response","119","668665","0.0-12.0","8491","<p>A közös játék most véget ért.</p><p>Mielőtt eláruljuk a végső pontszámodat, arra kérlek, játszd a szóválasztós játékot néhány percig egyedül is.</p><p>A feladatod ugyanaz lesz, választani két lehetőség közül.</p><p>Most viszont egyedül kell döntened, hogy te melyiket választanád.</p>","0","","","","","",""
"html-button-response-clever","120","672221","0.0-13.0-0.0","3036","Ez itt egy matéz. Ott vagyunk a...","0","matézban","[""matézban"",""matézben""]","","posttest trial","8",""
"html-button-response-clever","121","676033","0.0-13.0-0.1","3292","Ez itt egy fincek. Nincs is jobb egy jó...","1","finceknél","[""finceknál"",""finceknél""]","","posttest trial","8",""
"html-button-response-clever","122","680109","0.0-13.0-0.2","3562","Ez itt egy nidét. Ott vagyunk a...","1","nidétben","[""nidétban"",""nidétben""]","","posttest trial","8",""
"html-button-response-clever","123","683414","0.0-13.0-0.3","2799","Ez itt egy buhény. Ott vagyunk a...","1","buhényban","[""buhényben"",""buhényban""]","","posttest trial","8",""
"html-button-response-clever","124","687697","0.0-13.0-0.4","3776","Ez itt egy csimen. Nincs is jobb egy jó...","0","csimennél","[""csimennél"",""csimennál""]","","posttest trial","8",""
"html-button-response-clever","125","692945","0.0-13.0-0.5","4733","Ez itt egy kluhéj. Nincs is jobb egy jó...","1","kluhéjnál","[""kluhéjnél"",""kluhéjnál""]","","posttest trial","8",""
"html-button-response-clever","126","697004","0.0-13.0-0.6","3549","Ez itt egy brotes. Ott vagyunk a...","0","brotesben","[""brotesben"",""brotesban""]","","posttest trial","8",""
"html-button-response-clever","127","700069","0.0-13.0-0.7","2559","Ez itt egy vodép. Elneveztem a kutyámat...","0","vodépnek","[""vodépnek"",""vodépnak""]","","posttest trial","8",""
"html-button-response-clever","128","704219","0.0-13.0-0.8","3634","Ez itt egy ronvet. Elneveztem a kutyámat...","0","ronvetnek","[""ronvetnek"",""ronvetnak""]","","posttest trial","8",""
"html-button-response-clever","129","708423","0.0-13.0-0.9","3688","Ez itt egy brágéd. Elneveztem a kutyámat...","1","brágédnak","[""brágédnek"",""brágédnak""]","","posttest trial","8",""
"html-button-response-clever","130","711635","0.0-13.0-0.10","2700","Ez itt egy forzéd. Elneveztem a kutyámat...","1","forzédnak","[""forzédnek"",""forzédnak""]","","posttest trial","8",""
"html-button-response-clever","131","714741","0.0-13.0-0.11","2595","Ez itt egy júder. Elneveztem a kutyámat...","1","júdernek","[""júdernak"",""júdernek""]","","posttest trial","8",""
"html-button-response-clever","132","719916","0.0-13.0-0.12","4660","Ez itt egy priszkenc. Elneveztem a kutyámat...","0","priszkencnek","[""priszkencnek"",""priszkencnak""]","","posttest trial","8",""
"html-button-response-clever","133","723858","0.0-13.0-0.13","3437","Ez itt egy sporzem. Elneveztem a kutyámat...","1","sporzemnek","[""sporzemnak"",""sporzemnek""]","","posttest trial","8",""
"html-button-response-clever","134","727194","0.0-13.0-0.14","2817","Ez itt egy ikszert. Ott vagyunk a...","0","ikszertben","[""ikszertben"",""ikszertban""]","","posttest trial","8",""
"html-button-response-clever","135","731647","0.0-13.0-0.15","3942","Ez itt egy trincseg. Ott vagyunk a...","0","trincsegben","[""trincsegben"",""trincsegban""]","","posttest trial","8",""
"html-button-response-clever","136","735075","0.0-13.0-0.16","2916","Ez itt egy gótem. Elneveztem a kutyámat...","0","gótemnak","[""gótemnak"",""gótemnek""]","","posttest trial","8",""
"html-button-response-clever","137","739025","0.0-13.0-0.17","3446","Ez itt egy jalrény. Nincs is jobb egy jó...","1","jalrénynál","[""jalrénynél"",""jalrénynál""]","","posttest trial","8",""
"html-button-response-clever","138","742994","0.0-13.0-0.18","3457","Ez itt egy trigenc. Elneveztem a kutyámat...","1","trigencnek","[""trigencnak"",""trigencnek""]","","posttest trial","8",""
"html-button-response-clever","139","747134","0.0-13.0-0.19","3632","Ez itt egy gonszék. Nincs is jobb egy jó...","0","gonszéknál","[""gonszéknál"",""gonszéknél""]","","posttest trial","8",""
"html-button-response-clever","140","751079","0.0-13.0-0.20","3424","Ez itt egy hóbens. Ott vagyunk a...","1","hóbensben","[""hóbensban"",""hóbensben""]","","posttest trial","8",""
"html-button-response-clever","141","754694","0.0-13.0-0.21","3092","Ez itt egy kábesz. Nincs is jobb egy jó...","1","kábesznál","[""kábesznél"",""kábesznál""]","","posttest trial","8",""
"html-button-response-clever","142","758888","0.0-13.0-0.22","3689","Ez itt egy kliszer. Nincs is jobb egy jó...","0","kliszernél","[""kliszernél"",""kliszernál""]","","posttest trial","8",""
"html-button-response-clever","143","762604","0.0-13.0-0.23","3201","Ez itt egy jábéz. Ott vagyunk a...","1","jábézban","[""jábézben"",""jábézban""]","","posttest trial","8",""
"html-button-response-clever","144","765602","0.0-13.0-0.24","2486","Ez itt egy csinték. Ott vagyunk a...","0","csintékben","[""csintékben"",""csintékban""]","","posttest trial","8",""
"html-button-response-clever","145","769787","0.0-13.0-0.25","3668","Ez itt egy trapszegy. Nincs is jobb egy jó...","0","trapszegynél","[""trapszegynél"",""trapszegynál""]","","posttest trial","8",""
"html-button-response-clever","146","773133","0.0-13.0-0.26","2825","Ez itt egy licegy. Ott vagyunk a...","0","licegyben","[""licegyben"",""licegyban""]","","posttest trial","8",""
"html-button-response-clever","147","776376","0.0-13.0-0.27","2717","Ez itt egy jorzég. Elneveztem a kutyámat...","0","jorzégnek","[""jorzégnek"",""jorzégnak""]","","posttest trial","8",""
"html-button-response-clever","148","781663","0.0-13.0-0.28","4784","Ez itt egy sprízem. Nincs is jobb egy jó...","1","sprízemnél","[""sprízemnál"",""sprízemnél""]","","posttest trial","8",""
"html-button-response-clever","149","785551","0.0-13.0-0.29","3364","Ez itt egy nyábét. Ott vagyunk a...","1","nyábétban","[""nyábétben"",""nyábétban""]","","posttest trial","8",""
"html-button-response-clever","150","788982","0.0-13.0-0.30","2915","Ez itt egy nyarcéj. Elneveztem a kutyámat...","0","nyarcéjnak","[""nyarcéjnak"",""nyarcéjnek""]","","posttest trial","8",""
"html-button-response-clever","151","792581","0.0-13.0-0.31","3089","Ez itt egy dingec. Elneveztem a kutyámat...","0","dingecnek","[""dingecnek"",""dingecnak""]","","posttest trial","8",""
"html-button-response-clever","152","796520","0.0-13.0-0.32","3425","Ez itt egy szihét. Elneveztem a kutyámat...","0","szihétnak","[""szihétnak"",""szihétnek""]","","posttest trial","8",""
"html-button-response-clever","153","801428","0.0-13.0-0.33","4382","Ez itt egy brigeszt. Elneveztem a kutyámat...","0","brigesztnak","[""brigesztnak"",""brigesztnek""]","","posttest trial","8",""
"html-button-response-clever","154","805043","0.0-13.0-0.34","3103","Ez itt egy vublet. Nincs is jobb egy jó...","0","vubletnél","[""vubletnél"",""vubletnál""]","","posttest trial","8",""
"html-button-response-clever","155","808456","0.0-13.0-0.35","2900","Ez itt egy tránély. Elneveztem a kutyámat...","0","tránélynak","[""tránélynak"",""tránélynek""]","","posttest trial","8",""
"html-button-response-clever","156","812609","0.0-13.0-0.36","3648","Ez itt egy hivép. Ott vagyunk a...","0","hivépben","[""hivépben"",""hivépban""]","","posttest trial","8",""
"html-button-response-clever","157","815535","0.0-13.0-0.37","2409","Ez itt egy navec. Ott vagyunk a...","0","navecban","[""navecban"",""navecben""]","","posttest trial","8",""
"html-button-response-clever","158","819082","0.0-13.0-0.38","3043","Ez itt egy szutend. Ott vagyunk a...","1","szutendban","[""szutendben"",""szutendban""]","","posttest trial","8",""
"html-button-response-clever","159","821997","0.0-13.0-0.39","2404","Ez itt egy gicéj. Nincs is jobb egy jó...","0","gicéjnál","[""gicéjnál"",""gicéjnél""]","","posttest trial","8",""
"html-button-response-clever","160","824742","0.0-13.0-0.40","2230","Ez itt egy tranék. Ott vagyunk a...","0","tranékban","[""tranékban"",""tranékben""]","","posttest trial","8",""
"html-button-response-clever","161","828654","0.0-13.0-0.41","3402","Ez itt egy kadér. Nincs is jobb egy jó...","0","kadérnél","[""kadérnél"",""kadérnál""]","","posttest trial","8",""
"html-button-response-clever","162","831586","0.0-13.0-0.42","2413","Ez itt egy lismév. Ott vagyunk a...","0","lismévben","[""lismévben"",""lismévban""]","","posttest trial","8",""
"html-button-response-clever","163","834815","0.0-13.0-0.43","2717","Ez itt egy zsopéd. Ott vagyunk a...","1","zsopédban","[""zsopédben"",""zsopédban""]","","posttest trial","8",""
"html-button-response-clever","164","837717","0.0-13.0-0.44","2381","Ez itt egy spáten. Elneveztem a kutyámat...","0","spátennek","[""spátennek"",""spátennak""]","","posttest trial","8",""
"html-button-response-clever","165","840554","0.0-13.0-0.45","2328","Ez itt egy giheszt. Elneveztem a kutyámat...","0","gihesztnek","[""gihesztnek"",""gihesztnak""]","","posttest trial","8",""
"html-button-response-clever","166","844271","0.0-13.0-0.46","3211","Ez itt egy prately. Elneveztem a kutyámat...","1","pratelynak","[""pratelynek"",""pratelynak""]","","posttest trial","8",""
"html-button-response-clever","167","847143","0.0-13.0-0.47","2355","Ez itt egy fádens. Elneveztem a kutyámat...","0","fádensnek","[""fádensnek"",""fádensnak""]","","posttest trial","8",""
"html-button-response-clever","168","850443","0.0-13.0-0.48","2794","Ez itt egy csartény. Elneveztem a kutyámat...","1","csarténynak","[""csarténynek"",""csarténynak""]","","posttest trial","8",""
"html-button-response-clever","169","853949","0.0-13.0-0.49","2997","Ez itt egy brukész. Nincs is jobb egy jó...","1","brukésznál","[""brukésznél"",""brukésznál""]","","posttest trial","8",""
"html-button-response-clever","170","857006","0.0-13.0-0.50","2544","Ez itt egy bródesz. Elneveztem a kutyámat...","0","bródesznek","[""bródesznek"",""bródesznak""]","","posttest trial","8",""
"html-button-response-clever","171","859510","0.0-13.0-0.51","1984","Ez itt egy bidem. Ott vagyunk a...","0","bidemben","[""bidemben"",""bidemban""]","","posttest trial","8",""
"html-button-response-clever","172","862418","0.0-13.0-0.52","2398","Ez itt egy klordény. Elneveztem a kutyámat...","0","klordénynak","[""klordénynak"",""klordénynek""]","","posttest trial","8",""
"html-button-response-clever","173","865977","0.0-13.0-0.53","3052","Ez itt egy sartely. Ott vagyunk a...","0","sartelyban","[""sartelyban"",""sartelyben""]","","posttest trial","8",""
"html-button-response","174","871273","0.0-14.0","4779","<p> Vége a játéknak. A teljes pontszámod 23/54.</p><p> Szép munka! &#128526;&#128526;&#128526;</p><p>A Befejezés gomb megnyomása után bezárhatod a böngészőablakot.</p>","0","","","","","",""
"html-keyboard-response","175","876781","0.0-15.0","null","<div class=""message"">
         <p>Egy kis türelmet kérünk, amíg elmentjük az adatokat...</p>
         </div>","null","","","","","",""
