"trial_type","trial_index","time_elapsed","internal_node_id","rt","stimulus","response","response_string","choices","esp_response","trial_kind","list_number","esp_match"
"pavlovia","0","776","0.0-0.0","","","","","","","","",""
"html-button-response","1","2693","0.0-1.0","1411","<p>Kedves Résztvevő! A Budapesti Műszaki és Gazdaságtudományi Egyetem Kognitív Tudományi Tanszékének kutatásában való részvételed kérjük. A kutatásban azt vizsgáljuk, hogy a magyar anyanyelvűek hogyan használnak bizonyos szóalakokat, és hogy milyen képük van arról, hogy mások hogyan használják, hogyan képzik a szavakat. Ez hozzásegít bennünket ahhoz, hogy jobban megértsük, hogyan dolgozza fel és tárolja a nyelvet az emberi agy, és hogyan működnek, hogyan változnak egy adott közösség nyelvi konvenciói.</p><p>A vizsgálat egy rövid számítógépes feladatból fog állni. A kutatásban való részvétel önkéntes, a részvételi szándék bármikor visszavonható. A résztvevők eredményeit név nélkül kezeljük, így nem beazonosíthatók az adatok feldolgozása során. Minden személyes adatot az EU általános adatvédelmi rendeletének (GDPR) megfelelően kezelünk és legfeljebb öt éven belül megsemmisítünk. A vizsgálat jellemzően húsz percet vesz igénybe.</p><p>Kutatásvezető:</p><p>Dr. Rácz Péter, tudományos munkatárs, BME KTT</p><p>e-mail: racz.peter.marton@ttk.bme.hu</p>","0","","","","","",""
"html-button-response","2","4517","0.0-2.0","1320","<p>A kísérletben szavakat fogsz látni. Ezek között lesznek olyanok, amelyeket ismersz, de előfordulhatnak olyanok is, amelyeket nem ismersz, sőt, vannak köztük kitalált szavak is. Minden szónál látni fogsz toldalékolt alakokat. A te feladatod az lesz, hogy minden szóhoz kiválaszd azt a toldalékolt alakot, amely a te számodra ismerősebben, természetesebben hangzik. Rossz válaszok nincsenek, mert van olyan, hogy különböző embereknek más és más szó tűnik jobb választásnak. A választ úgy tudod majd kiválasztani, ha rákattintasz.</p><p>Ebben a szóválasztós játékban egy másik játékossal együtt veszel majd részt. A másik játékos is minden esetben azok közül a lehetőségek közül válogathat, mint te. Kettőtök feladata az, hogy ugyanazt a lehetőséget válasszátok minden esetben. Ahhoz, hogy ez sikerüljön, neked figyelned kell arra, hogy a másik játékos milyen válaszokat ad, és ennek alapján meg kell tippelned, hogyan választ legközelebb. Ha eltalálod, akkor pontot kapsz.</p>","0","","","","","",""
"html-button-response","3","6699","0.0-3.0","1679","<p>Kérjük, olvasd el az alábbi nyilatkozatot, és amennyiben egyetértesz vele, nyomj a Beleegyezés gombra!</p><p>Kijelentem, hogy magyar anyanyelvű személyként önként veszek részt a BME KTT kísérletében. A kutatás céljával és folyamatával kapcsolatban elegendő tájékoztatást kaptam, lehetőségem volt kérdések feltételére, és esetleges kérdéseimre megfelelő válaszokat kaptam. A tájékoztatás alapján elegendő mennyiségű információ áll a rendelkezésemre, hogy eldönthessem, részt kívánok-e venni a kutatásban.</p><p>Tisztában vagyok vele, hogy részvételi szándékomat és adataimat bármikor, indoklás nélkül visszavonhatom.</p><p>Értem és tudomásul veszem, hogy a kutatás tudományos célokat szolgál, és az általam szolgáltatott adatokat a BME kizárólag kutatási célból használja fel. Tudomásul veszem, hogy eredményeimet a többi résztvevő eredményeivel együtt kezelik, így egyéni teljesítményemről visszajelzést, szakvéleményt nem kapok.</p><p>Megértettem, hogy adataim kezelését illetően a BME az EU általános adatvédelmi rendelete (GDPR), a hatályos adatvédelmi törvény és a nemzetközi kutatás-etikai alapelvek szerint jár el. Eredményeim anonim módon kerülnek feldolgozásra, és a kutatás résztvevői az azonosításomra alkalmas adataimat harmadik félnek nem szolgáltatják ki. Engedélyezem a BME számára a jelen kutatásban felvett adataim feldolgozását és tárolását, beleértve azok későbbi kutatásokhoz való felhasználását is. Személyes adataim kezelésével kapcsolatban tájékoztatást kérhetek a kutatás résztvevőitől, az adatkezelés ellen tiltakozhatok, kérhetem személyes adataim helyesbítését, törlését vagy zárolását, valamint jogorvoslatért a Nemzeti Adatvédelmi és Információszabadság Hatósághoz fordulhatok.</p><p>Kijelentem, hogy a kutatásban való részvételem körülményeiről részletes tájékoztatást kaptam, és a feltételeket elfogadom.</p>","0","","","","","",""
"survey-text","4","18521","0.0-4.0","11306","","{""Q0"":""PCLIOS"",""Q1"":""nő"",""Q2"":""2001"",""Q3"":""15""}","","","","","",""
"html-button-response","5","21757","0.0-5.0","2733","<p>Ebben a játékban szavakat kell toldalékolni.</p> <p>Minden körben mutatunk majd egy példamondatot, amiben lesz egy szó.</p> <p>Alatta jön egy második mondat, ezt a mondatot neked kell majd befejezni, ugyanezzel a szóval.</p> <p>Nem biztos, hogy a szó eleve ismerős lesz számodra!</p> <p>Minden mondathoz adunk két lehetőséget, ezeket balra és jobbra látod majd.</p> <p>A játék kb. negyedóráig-húsz percig tart.</p>","0","","","","","",""
"html-button-response","6","38022","0.0-6.0","15761","<p>Nézzünk egy példát!</p> <p>A példamondat: ""Ez itt egy blumbnyeg.""</p><p>Neked ezt a mondatot kell befejezned: ""Ott vagyunk a...""</p><p>A lehetőségek pedig ezek:</p>","0","","","","","",""
"html-button-response","7","45739","0.0-7.0","7213","<p>Nagyon jó.</p><p>Ezt a játékot nem egyedül fogod játszani, hanem egy másik játékossal.</p><p>Mielőtt továbblépünk, összekapcsolunk titeket egymással.</p><p>Ez igénybe vehet néhány másodpercet, amihez szíves türelmed kérjük.</p>","0","","","","","",""
"html-button-response","8","51464","0.0-8.0","null","<p>Csatlakozás a másik játékoshoz...</p>","null","","","","","",""
"html-button-response","9","53968","0.0-9.0","null","<p> Sikeres kapcsolódás!</p>","null","","","","","",""
"html-button-response","10","63769","0.0-10.0","9298","<p>A következőkben ketten játsszátok a szóválasztós játékot.</p><p>A feladatotok az lesz, hogy minden körben <b>ugyanazt</b> a szót válasszátok.</p><p>Minden ilyen egyező válaszért pontot kaptok.</p><p>Próbáld meg kitalálni, mit választ a másik játékos!</p><p>Bármikor választhatsz, a körnek akkor van vége, ha mindketten döntöttetek.</p><p>Sok sikert!</p>","0","","","","","",""
"html-button-response-esp","11","73308","0.0-11.0-0.0","5579","Ez itt egy spicet. Elneveztem a kutyámat...","1","spicetnek","[""spicetnak"",""spicetnek""]","spicetnak","esp trial","0","false"
"html-button-response","12","76813","0.0-11.0-1.0","null","<p>A másik játékos ezt választotta: <b>spicetnak</b>.</p><p>&#10060;</p><p>A válaszaitok <b>nem</b> egyeznek meg.</p>","null","","","","feedback trial","",""
"html-button-response-esp","13","86349","0.0-11.0-0.1","5693","Ez itt egy bralkép. Ott vagyunk a...","1","bralképben","[""bralképban"",""bralképben""]","bralképban","esp trial","0","false"
"html-button-response","14","89855","0.0-11.0-1.1","null","<p>A másik játékos ezt választotta: <b>bralképban</b>.</p><p>&#10060;</p><p>A válaszaitok <b>nem</b> egyeznek meg.</p>","null","","","","feedback trial","",""
"html-button-response-esp","15","99390","0.0-11.0-0.2","4770","Ez itt egy trájeg. Ott vagyunk a...","1","trájegben","[""trájegban"",""trájegben""]","trájegban","esp trial","0","false"
"html-button-response","16","102895","0.0-11.0-1.2","null","<p>A másik játékos ezt választotta: <b>trájegban</b>.</p><p>&#10060;</p><p>A válaszaitok <b>nem</b> egyeznek meg.</p>","null","","","","feedback trial","",""
"html-button-response-esp","17","112430","0.0-11.0-0.3","2671","Ez itt egy rapszek. Nincs is jobb egy jó...","0","rapszeknál","[""rapszeknál"",""rapszeknél""]","rapszeknál","esp trial","0","true"
"html-button-response","18","115935","0.0-11.0-1.3","null","<p>A másik játékos ezt választotta: <b>rapszeknál</b>.</p><p>&#x2705;</p><p>A te válaszod és a másik játékos válasza <b>megegyeznek</b>.</p>","null","","","","feedback trial","",""
"html-button-response-esp","19","125469","0.0-11.0-0.4","7448","Ez itt egy hágyét. Elneveztem a kutyámat...","1","hágyétnek","[""hágyétnak"",""hágyétnek""]","hágyétnek","esp trial","0","true"
"html-button-response","20","128974","0.0-11.0-1.4","null","<p>A másik játékos ezt választotta: <b>hágyétnek</b>.</p><p>&#x2705;</p><p>A te válaszod és a másik játékos válasza <b>megegyeznek</b>.</p>","null","","","","feedback trial","",""
"html-button-response-esp","21","138523","0.0-11.0-0.5","5041","Ez itt egy pítend. Ott vagyunk a...","1","pítendben","[""pítendban"",""pítendben""]","pítendban","esp trial","0","false"
"html-button-response","22","142029","0.0-11.0-1.5","null","<p>A másik játékos ezt választotta: <b>pítendban</b>.</p><p>&#10060;</p><p>A válaszaitok <b>nem</b> egyeznek meg.</p>","null","","","","feedback trial","",""
"html-button-response-esp","23","151565","0.0-11.0-0.6","2114","Ez itt egy priszec. Ott vagyunk a...","0","priszecban","[""priszecban"",""priszecben""]","priszecban","esp trial","0","true"
"html-button-response","24","155070","0.0-11.0-1.6","null","<p>A másik játékos ezt választotta: <b>priszecban</b>.</p><p>&#x2705;</p><p>A te válaszod és a másik játékos válasza <b>megegyeznek</b>.</p>","null","","","","feedback trial","",""
"html-button-response-esp","25","164606","0.0-11.0-0.7","2367","Ez itt egy bupéz. Ott vagyunk a...","0","bupézban","[""bupézban"",""bupézben""]","bupézben","esp trial","0","false"
"html-button-response","26","168111","0.0-11.0-1.7","null","<p>A másik játékos ezt választotta: <b>bupézben</b>.</p><p>&#10060;</p><p>A válaszaitok <b>nem</b> egyeznek meg.</p>","null","","","","feedback trial","",""
"html-button-response-esp","27","177646","0.0-11.0-0.8","2418","Ez itt egy dalenc. Nincs is jobb egy jó...","0","dalencnál","[""dalencnál"",""dalencnél""]","dalencnál","esp trial","0","true"
"html-button-response","28","181150","0.0-11.0-1.8","null","<p>A másik játékos ezt választotta: <b>dalencnál</b>.</p><p>&#x2705;</p><p>A te válaszod és a másik játékos válasza <b>megegyeznek</b>.</p>","null","","","","feedback trial","",""
"html-button-response-esp","29","190685","0.0-11.0-0.9","4221","Ez itt egy dihely. Elneveztem a kutyámat...","1","dihelynek","[""dihelynak"",""dihelynek""]","dihelynak","esp trial","0","false"
"html-button-response","30","194190","0.0-11.0-1.9","null","<p>A másik játékos ezt választotta: <b>dihelynak</b>.</p><p>&#10060;</p><p>A válaszaitok <b>nem</b> egyeznek meg.</p>","null","","","","feedback trial","",""
"html-button-response-esp","31","203725","0.0-11.0-0.10","7670","Ez itt egy zopély. Nincs is jobb egy jó...","0","zopélynál","[""zopélynál"",""zopélynél""]","zopélynél","esp trial","0","false"
"html-button-response","32","207229","0.0-11.0-1.10","null","<p>A másik játékos ezt választotta: <b>zopélynél</b>.</p><p>&#10060;</p><p>A válaszaitok <b>nem</b> egyeznek meg.</p>","null","","","","feedback trial","",""
"html-button-response-esp","33","216764","0.0-11.0-0.11","2424","Ez itt egy pisély. Ott vagyunk a...","1","pisélyben","[""pisélyban"",""pisélyben""]","pisélyban","esp trial","0","false"
"html-button-response","34","220269","0.0-11.0-1.11","null","<p>A másik játékos ezt választotta: <b>pisélyban</b>.</p><p>&#10060;</p><p>A válaszaitok <b>nem</b> egyeznek meg.</p>","null","","","","feedback trial","",""
"html-button-response-esp","35","229804","0.0-11.0-0.12","1657","Ez itt egy pijél. Nincs is jobb egy jó...","0","pijélnél","[""pijélnél"",""pijélnál""]","pijélnál","esp trial","0","false"
"html-button-response","36","233308","0.0-11.0-1.12","null","<p>A másik játékos ezt választotta: <b>pijélnál</b>.</p><p>&#10060;</p><p>A válaszaitok <b>nem</b> egyeznek meg.</p>","null","","","","feedback trial","",""
"html-button-response-esp","37","242841","0.0-11.0-0.13","2229","Ez itt egy spanél. Nincs is jobb egy jó...","0","spanélnál","[""spanélnál"",""spanélnél""]","spanélnél","esp trial","0","false"
"html-button-response","38","246345","0.0-11.0-1.13","null","<p>A másik játékos ezt választotta: <b>spanélnél</b>.</p><p>&#10060;</p><p>A válaszaitok <b>nem</b> egyeznek meg.</p>","null","","","","feedback trial","",""
"html-button-response-esp","39","255879","0.0-11.0-0.14","2972","Ez itt egy klingesz. Ott vagyunk a...","1","klingeszben","[""klingeszban"",""klingeszben""]","klingeszban","esp trial","0","false"
"html-button-response","40","259383","0.0-11.0-1.14","null","<p>A másik játékos ezt választotta: <b>klingeszban</b>.</p><p>&#10060;</p><p>A válaszaitok <b>nem</b> egyeznek meg.</p>","null","","","","feedback trial","",""
"html-button-response-esp","41","268918","0.0-11.0-0.15","1791","Ez itt egy tosély. Ott vagyunk a...","1","tosélyban","[""tosélyben"",""tosélyban""]","tosélyben","esp trial","0","false"
"html-button-response","42","272422","0.0-11.0-1.15","null","<p>A másik játékos ezt választotta: <b>tosélyben</b>.</p><p>&#10060;</p><p>A válaszaitok <b>nem</b> egyeznek meg.</p>","null","","","","feedback trial","",""
"html-button-response-esp","43","281957","0.0-11.0-0.16","1235","Ez itt egy kalhész. Elneveztem a kutyámat...","1","kalhésznek","[""kalhésznak"",""kalhésznek""]","kalhésznak","esp trial","0","false"
"html-button-response","44","285462","0.0-11.0-1.16","null","<p>A másik játékos ezt választotta: <b>kalhésznak</b>.</p><p>&#10060;</p><p>A válaszaitok <b>nem</b> egyeznek meg.</p>","null","","","","feedback trial","",""
"html-button-response-esp","45","294997","0.0-11.0-0.17","2909","Ez itt egy jukél. Nincs is jobb egy jó...","0","jukélnál","[""jukélnál"",""jukélnél""]","jukélnál","esp trial","0","true"
"html-button-response","46","298501","0.0-11.0-1.17","null","<p>A másik játékos ezt választotta: <b>jukélnál</b>.</p><p>&#x2705;</p><p>A te válaszod és a másik játékos válasza <b>megegyeznek</b>.</p>","null","","","","feedback trial","",""
"html-button-response-esp","47","323300","0.0-11.0-0.18","24295","Ez itt egy sortem. Nincs is jobb egy jó...","1","sortemnál","[""sortemnél"",""sortemnál""]","sortemnál","esp trial","0","true"
"html-button-response","48","326805","0.0-11.0-1.18","null","<p>A másik játékos ezt választotta: <b>sortemnál</b>.</p><p>&#x2705;</p><p>A te válaszod és a másik játékos válasza <b>megegyeznek</b>.</p>","null","","","","feedback trial","",""
"html-button-response-esp","49","336339","0.0-11.0-0.19","3841","Ez itt egy monveg. Nincs is jobb egy jó...","1","monvegnél","[""monvegnál"",""monvegnél""]","monvegnál","esp trial","0","false"
"html-button-response","50","339844","0.0-11.0-1.19","null","<p>A másik játékos ezt választotta: <b>monvegnál</b>.</p><p>&#10060;</p><p>A válaszaitok <b>nem</b> egyeznek meg.</p>","null","","","","feedback trial","",""
"html-button-response-esp","51","349378","0.0-11.0-0.20","4769","Ez itt egy danét. Nincs is jobb egy jó...","0","danétnél","[""danétnél"",""danétnál""]","danétnél","esp trial","0","true"
"html-button-response","52","352881","0.0-11.0-1.20","null","<p>A másik játékos ezt választotta: <b>danétnél</b>.</p><p>&#x2705;</p><p>A te válaszod és a másik játékos válasza <b>megegyeznek</b>.</p>","null","","","","feedback trial","",""
"html-button-response-esp","53","362415","0.0-11.0-0.21","3424","Ez itt egy braszenc. Nincs is jobb egy jó...","1","braszencnél","[""braszencnál"",""braszencnél""]","braszencnál","esp trial","0","false"
"html-button-response","54","365919","0.0-11.0-1.21","null","<p>A másik játékos ezt választotta: <b>braszencnál</b>.</p><p>&#10060;</p><p>A válaszaitok <b>nem</b> egyeznek meg.</p>","null","","","","feedback trial","",""
"html-button-response-esp","55","375454","0.0-11.0-0.22","2233","Ez itt egy nyamet. Ott vagyunk a...","1","nyametban","[""nyametben"",""nyametban""]","nyametban","esp trial","0","true"
"html-button-response","56","378957","0.0-11.0-1.22","null","<p>A másik játékos ezt választotta: <b>nyametban</b>.</p><p>&#x2705;</p><p>A te válaszod és a másik játékos válasza <b>megegyeznek</b>.</p>","null","","","","feedback trial","",""
"html-button-response-esp","57","388490","0.0-11.0-0.23","2796","Ez itt egy kalréz. Ott vagyunk a...","0","kalrézben","[""kalrézben"",""kalrézban""]","kalrézben","esp trial","0","true"
"html-button-response","58","391995","0.0-11.0-1.23","null","<p>A másik játékos ezt választotta: <b>kalrézben</b>.</p><p>&#x2705;</p><p>A te válaszod és a másik játékos válasza <b>megegyeznek</b>.</p>","null","","","","feedback trial","",""
"html-button-response-esp","59","401530","0.0-11.0-0.24","1873","Ez itt egy luméz. Ott vagyunk a...","1","lumézban","[""lumézben"",""lumézban""]","lumézben","esp trial","0","false"
"html-button-response","60","405037","0.0-11.0-1.24","null","<p>A másik játékos ezt választotta: <b>lumézben</b>.</p><p>&#10060;</p><p>A válaszaitok <b>nem</b> egyeznek meg.</p>","null","","","","feedback trial","",""
"html-button-response-esp","61","414577","0.0-11.0-0.25","4023","Ez itt egy spumény. Elneveztem a kutyámat...","1","spuménynak","[""spuménynek"",""spuménynak""]","spuménynak","esp trial","0","true"
"html-button-response","62","418085","0.0-11.0-1.25","null","<p>A másik játékos ezt választotta: <b>spuménynak</b>.</p><p>&#x2705;</p><p>A te válaszod és a másik játékos válasza <b>megegyeznek</b>.</p>","null","","","","feedback trial","",""
"html-button-response-esp","63","427628","0.0-11.0-0.26","1332","Ez itt egy dorzéj. Elneveztem a kutyámat...","1","dorzéjnek","[""dorzéjnak"",""dorzéjnek""]","dorzéjnak","esp trial","0","false"
"html-button-response","64","431134","0.0-11.0-1.26","null","<p>A másik játékos ezt választotta: <b>dorzéjnak</b>.</p><p>&#10060;</p><p>A válaszaitok <b>nem</b> egyeznek meg.</p>","null","","","","feedback trial","",""
"html-button-response-esp","65","440672","0.0-11.0-0.27","1129","Ez itt egy jóbec. Elneveztem a kutyámat...","0","jóbecnak","[""jóbecnak"",""jóbecnek""]","jóbecnak","esp trial","0","true"
"html-button-response","66","444176","0.0-11.0-1.27","null","<p>A másik játékos ezt választotta: <b>jóbecnak</b>.</p><p>&#x2705;</p><p>A te válaszod és a másik játékos válasza <b>megegyeznek</b>.</p>","null","","","","feedback trial","",""
"html-button-response-esp","67","453713","0.0-11.0-0.28","3590","Ez itt egy klosét. Elneveztem a kutyámat...","1","klosétnek","[""klosétnak"",""klosétnek""]","klosétnek","esp trial","0","true"
"html-button-response","68","457216","0.0-11.0-1.28","null","<p>A másik játékos ezt választotta: <b>klosétnek</b>.</p><p>&#x2705;</p><p>A te válaszod és a másik játékos válasza <b>megegyeznek</b>.</p>","null","","","","feedback trial","",""
"html-button-response-esp","69","466751","0.0-11.0-0.29","1502","Ez itt egy zsáder. Ott vagyunk a...","1","zsáderben","[""zsáderban"",""zsáderben""]","zsáderban","esp trial","0","false"
"html-button-response","70","470255","0.0-11.0-1.29","null","<p>A másik játékos ezt választotta: <b>zsáderban</b>.</p><p>&#10060;</p><p>A válaszaitok <b>nem</b> egyeznek meg.</p>","null","","","","feedback trial","",""
"html-button-response-esp","71","479791","0.0-11.0-0.30","2964","Ez itt egy zsádév. Elneveztem a kutyámat...","1","zsádévnek","[""zsádévnak"",""zsádévnek""]","zsádévnek","esp trial","0","true"
"html-button-response","72","483295","0.0-11.0-1.30","null","<p>A másik játékos ezt választotta: <b>zsádévnek</b>.</p><p>&#x2705;</p><p>A te válaszod és a másik játékos válasza <b>megegyeznek</b>.</p>","null","","","","feedback trial","",""
"html-button-response-esp","73","492829","0.0-11.0-0.31","4430","Ez itt egy ítens. Ott vagyunk a...","1","ítensban","[""ítensben"",""ítensban""]","ítensban","esp trial","0","true"
"html-button-response","74","496333","0.0-11.0-1.31","null","<p>A másik játékos ezt választotta: <b>ítensban</b>.</p><p>&#x2705;</p><p>A te válaszod és a másik játékos válasza <b>megegyeznek</b>.</p>","null","","","","feedback trial","",""
"html-button-response-esp","75","505867","0.0-11.0-0.32","2808","Ez itt egy pivéd. Ott vagyunk a...","1","pivédben","[""pivédban"",""pivédben""]","pivédban","esp trial","0","false"
"html-button-response","76","509371","0.0-11.0-1.32","null","<p>A másik játékos ezt választotta: <b>pivédban</b>.</p><p>&#10060;</p><p>A válaszaitok <b>nem</b> egyeznek meg.</p>","null","","","","feedback trial","",""
"html-button-response-esp","77","518906","0.0-11.0-0.33","1719","Ez itt egy zihenc. Elneveztem a kutyámat...","0","zihencnek","[""zihencnek"",""zihencnak""]","zihencnak","esp trial","0","false"
"html-button-response","78","522410","0.0-11.0-1.33","null","<p>A másik játékos ezt választotta: <b>zihencnak</b>.</p><p>&#10060;</p><p>A válaszaitok <b>nem</b> egyeznek meg.</p>","null","","","","feedback trial","",""
"html-button-response-esp","79","531945","0.0-11.0-0.34","1515","Ez itt egy fájéz. Ott vagyunk a...","1","fájézben","[""fájézban"",""fájézben""]","fájézben","esp trial","0","true"
"html-button-response","80","535449","0.0-11.0-1.34","null","<p>A másik játékos ezt választotta: <b>fájézben</b>.</p><p>&#x2705;</p><p>A te válaszod és a másik játékos válasza <b>megegyeznek</b>.</p>","null","","","","feedback trial","",""
"html-button-response-esp","81","544984","0.0-11.0-0.35","1231","Ez itt egy sprivenc. Nincs is jobb egy jó...","1","sprivencnél","[""sprivencnál"",""sprivencnél""]","sprivencnál","esp trial","0","false"
"html-button-response","82","548488","0.0-11.0-1.35","null","<p>A másik játékos ezt választotta: <b>sprivencnál</b>.</p><p>&#10060;</p><p>A válaszaitok <b>nem</b> egyeznek meg.</p>","null","","","","feedback trial","",""
"html-button-response-esp","83","558023","0.0-11.0-0.36","2450","Ez itt egy kaszép. Elneveztem a kutyámat...","1","kaszépnek","[""kaszépnak"",""kaszépnek""]","kaszépnak","esp trial","0","false"
"html-button-response","84","561528","0.0-11.0-1.36","null","<p>A másik játékos ezt választotta: <b>kaszépnak</b>.</p><p>&#10060;</p><p>A válaszaitok <b>nem</b> egyeznek meg.</p>","null","","","","feedback trial","",""
"html-button-response-esp","85","571062","0.0-11.0-0.37","2361","Ez itt egy spábét. Ott vagyunk a...","1","spábétban","[""spábétben"",""spábétban""]","spábétben","esp trial","0","false"
"html-button-response","86","574566","0.0-11.0-1.37","null","<p>A másik játékos ezt választotta: <b>spábétben</b>.</p><p>&#10060;</p><p>A válaszaitok <b>nem</b> egyeznek meg.</p>","null","","","","feedback trial","",""
"html-button-response-esp","87","584101","0.0-11.0-0.38","1233","Ez itt egy vorszen. Nincs is jobb egy jó...","1","vorszennál","[""vorszennél"",""vorszennál""]","vorszennál","esp trial","0","true"
"html-button-response","88","587605","0.0-11.0-1.38","null","<p>A másik játékos ezt választotta: <b>vorszennál</b>.</p><p>&#x2705;</p><p>A te válaszod és a másik játékos válasza <b>megegyeznek</b>.</p>","null","","","","feedback trial","",""
"html-button-response-esp","89","597840","0.0-11.0-0.39","9732","Ez itt egy lorzens. Nincs is jobb egy jó...","1","lorzensnél","[""lorzensnál"",""lorzensnél""]","lorzensnál","esp trial","0","false"
"html-button-response","90","601344","0.0-11.0-1.39","null","<p>A másik játékos ezt választotta: <b>lorzensnál</b>.</p><p>&#10060;</p><p>A válaszaitok <b>nem</b> egyeznek meg.</p>","null","","","","feedback trial","",""
"html-button-response-esp","91","610878","0.0-11.0-0.40","1901","Ez itt egy incéj. Elneveztem a kutyámat...","1","incéjnak","[""incéjnek"",""incéjnak""]","incéjnak","esp trial","0","true"
"html-button-response","92","614383","0.0-11.0-1.40","null","<p>A másik játékos ezt választotta: <b>incéjnak</b>.</p><p>&#x2705;</p><p>A te válaszod és a másik játékos válasza <b>megegyeznek</b>.</p>","null","","","","feedback trial","",""
"html-button-response-esp","93","623917","0.0-11.0-0.41","2530","Ez itt egy nyupér. Nincs is jobb egy jó...","1","nyupérnél","[""nyupérnál"",""nyupérnél""]","nyupérnél","esp trial","0","true"
"html-button-response","94","627421","0.0-11.0-1.41","null","<p>A másik játékos ezt választotta: <b>nyupérnél</b>.</p><p>&#x2705;</p><p>A te válaszod és a másik játékos válasza <b>megegyeznek</b>.</p>","null","","","","feedback trial","",""
"html-button-response-esp","95","636955","0.0-11.0-0.42","941","Ez itt egy trismél. Elneveztem a kutyámat...","1","trismélnek","[""trismélnak"",""trismélnek""]","trismélnak","esp trial","0","false"
"html-button-response","96","640459","0.0-11.0-1.42","null","<p>A másik játékos ezt választotta: <b>trismélnak</b>.</p><p>&#10060;</p><p>A válaszaitok <b>nem</b> egyeznek meg.</p>","null","","","","feedback trial","",""
"html-button-response-esp","97","649993","0.0-11.0-0.43","970","Ez itt egy garcép. Nincs is jobb egy jó...","1","garcépnél","[""garcépnál"",""garcépnél""]","garcépnél","esp trial","0","true"
"html-button-response","98","653498","0.0-11.0-1.43","null","<p>A másik játékos ezt választotta: <b>garcépnél</b>.</p><p>&#x2705;</p><p>A te válaszod és a másik játékos válasza <b>megegyeznek</b>.</p>","null","","","","feedback trial","",""
"html-button-response-esp","99","663031","0.0-11.0-0.44","1006","Ez itt egy brindez. Elneveztem a kutyámat...","0","brindeznek","[""brindeznek"",""brindeznak""]","brindeznak","esp trial","0","false"
"html-button-response","100","666536","0.0-11.0-1.44","null","<p>A másik játékos ezt választotta: <b>brindeznak</b>.</p><p>&#10060;</p><p>A válaszaitok <b>nem</b> egyeznek meg.</p>","null","","","","feedback trial","",""
"html-button-response-esp","101","676071","0.0-11.0-0.45","955","Ez itt egy zsigén. Nincs is jobb egy jó...","1","zsigénnél","[""zsigénnál"",""zsigénnél""]","zsigénnál","esp trial","0","false"
"html-button-response","102","679576","0.0-11.0-1.45","null","<p>A másik játékos ezt választotta: <b>zsigénnál</b>.</p><p>&#10060;</p><p>A válaszaitok <b>nem</b> egyeznek meg.</p>","null","","","","feedback trial","",""
"html-button-response-esp","103","689111","0.0-11.0-0.46","2324","Ez itt egy narem. Ott vagyunk a...","1","naremban","[""naremben"",""naremban""]","naremban","esp trial","0","true"
"html-button-response","104","692615","0.0-11.0-1.46","null","<p>A másik játékos ezt választotta: <b>naremban</b>.</p><p>&#x2705;</p><p>A te válaszod és a másik játékos válasza <b>megegyeznek</b>.</p>","null","","","","feedback trial","",""
"html-button-response-esp","105","702149","0.0-11.0-0.47","1035","Ez itt egy dábegy. Ott vagyunk a...","1","dábegyban","[""dábegyben"",""dábegyban""]","dábegyban","esp trial","0","true"
"html-button-response","106","705653","0.0-11.0-1.47","null","<p>A másik játékos ezt választotta: <b>dábegyban</b>.</p><p>&#x2705;</p><p>A te válaszod és a másik játékos válasza <b>megegyeznek</b>.</p>","null","","","","feedback trial","",""
"html-button-response-esp","107","715188","0.0-11.0-0.48","1029","Ez itt egy nyítem. Ott vagyunk a...","0","nyítemban","[""nyítemban"",""nyítemben""]","nyítemban","esp trial","0","true"
"html-button-response","108","718692","0.0-11.0-1.48","null","<p>A másik játékos ezt választotta: <b>nyítemban</b>.</p><p>&#x2705;</p><p>A te válaszod és a másik játékos válasza <b>megegyeznek</b>.</p>","null","","","","feedback trial","",""
"html-button-response-esp","109","728227","0.0-11.0-0.49","3316","Ez itt egy zsúdel. Elneveztem a kutyámat...","1","zsúdelnak","[""zsúdelnek"",""zsúdelnak""]","zsúdelnak","esp trial","0","true"
"html-button-response","110","731731","0.0-11.0-1.49","null","<p>A másik játékos ezt választotta: <b>zsúdelnak</b>.</p><p>&#x2705;</p><p>A te válaszod és a másik játékos válasza <b>megegyeznek</b>.</p>","null","","","","feedback trial","",""
"html-button-response-esp","111","741265","0.0-11.0-0.50","1252","Ez itt egy ronszek. Ott vagyunk a...","1","ronszekben","[""ronszekban"",""ronszekben""]","ronszekban","esp trial","0","false"
"html-button-response","112","744769","0.0-11.0-1.50","null","<p>A másik játékos ezt választotta: <b>ronszekban</b>.</p><p>&#10060;</p><p>A válaszaitok <b>nem</b> egyeznek meg.</p>","null","","","","feedback trial","",""
"html-button-response-esp","113","754304","0.0-11.0-0.51","1012","Ez itt egy kátel. Elneveztem a kutyámat...","0","kátelnak","[""kátelnak"",""kátelnek""]","kátelnak","esp trial","0","true"
"html-button-response","114","757808","0.0-11.0-1.51","null","<p>A másik játékos ezt választotta: <b>kátelnak</b>.</p><p>&#x2705;</p><p>A te válaszod és a másik játékos válasza <b>megegyeznek</b>.</p>","null","","","","feedback trial","",""
"html-button-response-esp","115","767342","0.0-11.0-0.52","922","Ez itt egy gúden. Ott vagyunk a...","1","gúdenben","[""gúdenban"",""gúdenben""]","gúdenban","esp trial","0","false"
"html-button-response","116","770846","0.0-11.0-1.52","null","<p>A másik játékos ezt választotta: <b>gúdenban</b>.</p><p>&#10060;</p><p>A válaszaitok <b>nem</b> egyeznek meg.</p>","null","","","","feedback trial","",""
"html-button-response-esp","117","780381","0.0-11.0-0.53","917","Ez itt egy darhén. Ott vagyunk a...","1","darhénban","[""darhénben"",""darhénban""]","darhénben","esp trial","0","false"
"html-button-response","118","783885","0.0-11.0-1.53","null","<p>A másik játékos ezt választotta: <b>darhénben</b>.</p><p>&#10060;</p><p>A válaszaitok <b>nem</b> egyeznek meg.</p>","null","","","","feedback trial","",""
"html-button-response","119","796274","0.0-12.0","11886","<p>A közös játék most véget ért.</p><p>Mielőtt eláruljuk a végső pontszámodat, arra kérlek, játszd a szóválasztós játékot néhány percig egyedül is.</p><p>A feladatod ugyanaz lesz, választani két lehetőség közül.</p><p>Most viszont egyedül kell döntened, hogy te melyiket választanád.</p>","0","","","","","",""
"html-button-response-clever","120","801132","0.0-13.0-0.0","4349","Ez itt egy bingéj. Elneveztem a kutyámat...","0","bingéjnek","[""bingéjnek"",""bingéjnak""]","","posttest trial","4",""
"html-button-response-clever","121","805708","0.0-13.0-0.1","4073","Ez itt egy murdes. Nincs is jobb egy jó...","0","murdesnál","[""murdesnál"",""murdesnél""]","","posttest trial","4",""
"html-button-response-clever","122","808566","0.0-13.0-0.2","2356","Ez itt egy pristél. Ott vagyunk a...","1","pristélban","[""pristélben"",""pristélban""]","","posttest trial","4",""
"html-button-response-clever","123","811407","0.0-13.0-0.3","2338","Ez itt egy zsalrén. Elneveztem a kutyámat...","1","zsalrénnak","[""zsalrénnek"",""zsalrénnak""]","","posttest trial","4",""
"html-button-response-clever","124","814104","0.0-13.0-0.4","2194","Ez itt egy gábéd. Nincs is jobb egy jó...","1","gábédnél","[""gábédnál"",""gábédnél""]","","posttest trial","4",""
"html-button-response-clever","125","816058","0.0-13.0-0.5","1451","Ez itt egy lingék. Nincs is jobb egy jó...","0","lingéknél","[""lingéknél"",""lingéknál""]","","posttest trial","4",""
"html-button-response-clever","126","817557","0.0-13.0-0.6","995","Ez itt egy csublény. Ott vagyunk a...","1","csublényban","[""csublényben"",""csublényban""]","","posttest trial","4",""
"html-button-response-clever","127","819739","0.0-13.0-0.7","1679","Ez itt egy dutec. Nincs is jobb egy jó...","1","dutecnál","[""dutecnél"",""dutecnál""]","","posttest trial","4",""
"html-button-response-clever","128","822015","0.0-13.0-0.8","1773","Ez itt egy vismer. Nincs is jobb egy jó...","1","vismernél","[""vismernál"",""vismernél""]","","posttest trial","4",""
"html-button-response-clever","129","824231","0.0-13.0-0.9","1713","Ez itt egy klítegy. Nincs is jobb egy jó...","1","klítegynél","[""klítegynál"",""klítegynél""]","","posttest trial","4",""
"html-button-response-clever","130","826157","0.0-13.0-0.10","1423","Ez itt egy szibed. Ott vagyunk a...","0","szibedban","[""szibedban"",""szibedben""]","","posttest trial","4",""
"html-button-response-clever","131","828639","0.0-13.0-0.11","1979","Ez itt egy fojlegy. Elneveztem a kutyámat...","1","fojlegynek","[""fojlegynak"",""fojlegynek""]","","posttest trial","4",""
"html-button-response-clever","132","830714","0.0-13.0-0.12","1573","Ez itt egy jutély. Nincs is jobb egy jó...","0","jutélynél","[""jutélynél"",""jutélynál""]","","posttest trial","4",""
"html-button-response-clever","133","832539","0.0-13.0-0.13","1321","Ez itt egy hijegy. Nincs is jobb egy jó...","1","hijegynél","[""hijegynál"",""hijegynél""]","","posttest trial","4",""
"html-button-response-clever","134","834756","0.0-13.0-0.14","1713","Ez itt egy fupét. Nincs is jobb egy jó...","1","fupétnál","[""fupétnél"",""fupétnál""]","","posttest trial","4",""
"html-button-response-clever","135","836572","0.0-13.0-0.15","1314","Ez itt egy klazér. Ott vagyunk a...","0","klazérben","[""klazérben"",""klazérban""]","","posttest trial","4",""
"html-button-response-clever","136","838755","0.0-13.0-0.16","1681","Ez itt egy lijez. Elneveztem a kutyámat...","1","lijeznak","[""lijeznek"",""lijeznak""]","","posttest trial","4",""
"html-button-response-clever","137","840547","0.0-13.0-0.17","1288","Ez itt egy dajrens. Nincs is jobb egy jó...","0","dajrensnél","[""dajrensnél"",""dajrensnál""]","","posttest trial","4",""
"html-button-response-clever","138","842614","0.0-13.0-0.18","1564","Ez itt egy kátéd. Nincs is jobb egy jó...","1","kátédnál","[""kátédnél"",""kátédnál""]","","posttest trial","4",""
"html-button-response-clever","139","844173","0.0-13.0-0.19","1057","Ez itt egy tivenc. Ott vagyunk a...","1","tivencben","[""tivencban"",""tivencben""]","","posttest trial","4",""
"html-button-response-clever","140","845880","0.0-13.0-0.20","1204","Ez itt egy klajrén. Elneveztem a kutyámat...","0","klajrénnek","[""klajrénnek"",""klajrénnak""]","","posttest trial","4",""
"html-button-response-clever","141","848455","0.0-13.0-0.21","2071","Ez itt egy fágyép. Nincs is jobb egy jó...","1","fágyépnál","[""fágyépnél"",""fágyépnál""]","","posttest trial","4",""
"html-button-response-clever","142","850422","0.0-13.0-0.22","1464","Ez itt egy sihen. Nincs is jobb egy jó...","1","sihennél","[""sihennál"",""sihennél""]","","posttest trial","4",""
"html-button-response-clever","143","852162","0.0-13.0-0.23","1237","Ez itt egy humék. Elneveztem a kutyámat...","0","huméknak","[""huméknak"",""huméknek""]","","posttest trial","4",""
"html-button-response-clever","144","853742","0.0-13.0-0.24","1078","Ez itt egy lihény. Elneveztem a kutyámat...","1","lihénynak","[""lihénynek"",""lihénynak""]","","posttest trial","4",""
"html-button-response-clever","145","855396","0.0-13.0-0.25","1150","Ez itt egy pazév. Nincs is jobb egy jó...","0","pazévnél","[""pazévnél"",""pazévnál""]","","posttest trial","4",""
"html-button-response-clever","146","856896","0.0-13.0-0.26","997","Ez itt egy fizend. Ott vagyunk a...","0","fizendben","[""fizendben"",""fizendban""]","","posttest trial","4",""
"html-button-response-clever","147","858555","0.0-13.0-0.27","1157","Ez itt egy tumély. Nincs is jobb egy jó...","0","tumélynél","[""tumélynél"",""tumélynál""]","","posttest trial","4",""
"html-button-response-clever","148","859979","0.0-13.0-0.28","920","Ez itt egy dibez. Ott vagyunk a...","1","dibezben","[""dibezban"",""dibezben""]","","posttest trial","4",""
"html-button-response-clever","149","861530","0.0-13.0-0.29","1048","Ez itt egy zatéj. Nincs is jobb egy jó...","1","zatéjnál","[""zatéjnél"",""zatéjnál""]","","posttest trial","4",""
"html-button-response-clever","150","863363","0.0-13.0-0.30","1330","Ez itt egy nuhét. Nincs is jobb egy jó...","1","nuhétnél","[""nuhétnál"",""nuhétnél""]","","posttest trial","4",""
"html-button-response-clever","151","865329","0.0-13.0-0.31","1465","Ez itt egy spivél. Elneveztem a kutyámat...","0","spivélnek","[""spivélnek"",""spivélnak""]","","posttest trial","4",""
"html-button-response-clever","152","867156","0.0-13.0-0.32","1323","Ez itt egy trodély. Ott vagyunk a...","0","trodélyban","[""trodélyban"",""trodélyben""]","","posttest trial","4",""
"html-button-response-clever","153","869129","0.0-13.0-0.33","1470","Ez itt egy zábény. Elneveztem a kutyámat...","1","zábénynak","[""zábénynek"",""zábénynak""]","","posttest trial","4",""
"html-button-response-clever","154","870913","0.0-13.0-0.34","1281","Ez itt egy jurdent. Nincs is jobb egy jó...","0","jurdentnél","[""jurdentnél"",""jurdentnál""]","","posttest trial","4",""
"html-button-response-clever","155","872579","0.0-13.0-0.35","1164","Ez itt egy mádép. Nincs is jobb egy jó...","0","mádépnál","[""mádépnál"",""mádépnél""]","","posttest trial","4",""
"html-button-response-clever","156","874279","0.0-13.0-0.36","1197","Ez itt egy surnegy. Nincs is jobb egy jó...","1","surnegynél","[""surnegynál"",""surnegynél""]","","posttest trial","4",""
"html-button-response-clever","157","876088","0.0-13.0-0.37","1306","Ez itt egy dinelt. Ott vagyunk a...","1","dineltban","[""dineltben"",""dineltban""]","","posttest trial","4",""
"html-button-response-clever","158","877738","0.0-13.0-0.38","1147","Ez itt egy csodeg. Nincs is jobb egy jó...","1","csodegnél","[""csodegnál"",""csodegnél""]","","posttest trial","4",""
"html-button-response-clever","159","879686","0.0-13.0-0.39","1446","Ez itt egy zarcég. Nincs is jobb egy jó...","0","zarcégnál","[""zarcégnál"",""zarcégnél""]","","posttest trial","4",""
"html-button-response-clever","160","881289","0.0-13.0-0.40","1100","Ez itt egy dóbem. Elneveztem a kutyámat...","0","dóbemnek","[""dóbemnek"",""dóbemnak""]","","posttest trial","4",""
"html-button-response-clever","161","883188","0.0-13.0-0.41","1397","Ez itt egy vodec. Nincs is jobb egy jó...","1","vodecnél","[""vodecnál"",""vodecnél""]","","posttest trial","4",""
"html-button-response-clever","162","885653","0.0-13.0-0.42","1962","Ez itt egy briskéd. Nincs is jobb egy jó...","1","briskédnál","[""briskédnél"",""briskédnál""]","","posttest trial","4",""
"html-button-response-clever","163","887154","0.0-13.0-0.43","998","Ez itt egy spatel. Elneveztem a kutyámat...","0","spatelnek","[""spatelnek"",""spatelnak""]","","posttest trial","4",""
"html-button-response-clever","164","888553","0.0-13.0-0.44","896","Ez itt egy szanéj. Elneveztem a kutyámat...","1","szanéjnak","[""szanéjnek"",""szanéjnak""]","","posttest trial","4",""
"html-button-response-clever","165","889945","0.0-13.0-0.45","889","Ez itt egy zuten. Nincs is jobb egy jó...","1","zutennél","[""zutennál"",""zutennél""]","","posttest trial","4",""
"html-button-response-clever","166","891261","0.0-13.0-0.46","814","Ez itt egy cságyelt. Ott vagyunk a...","0","cságyeltban","[""cságyeltban"",""cságyeltben""]","","posttest trial","4",""
"html-button-response-clever","167","892602","0.0-13.0-0.47","838","Ez itt egy tarhéz. Ott vagyunk a...","0","tarhézban","[""tarhézban"",""tarhézben""]","","posttest trial","4",""
"html-button-response-clever","168","894078","0.0-13.0-0.48","973","Ez itt egy spizec. Elneveztem a kutyámat...","0","spizecnek","[""spizecnek"",""spizecnak""]","","posttest trial","4",""
"html-button-response-clever","169","895586","0.0-13.0-0.49","1006","Ez itt egy hosét. Elneveztem a kutyámat...","1","hosétnek","[""hosétnak"",""hosétnek""]","","posttest trial","4",""
"html-button-response-clever","170","897078","0.0-13.0-0.50","990","Ez itt egy zined. Elneveztem a kutyámat...","1","zinednak","[""zinednek"",""zinednak""]","","posttest trial","4",""
"html-button-response-clever","171","898554","0.0-13.0-0.51","973","Ez itt egy vurnel. Elneveztem a kutyámat...","1","vurnelnek","[""vurnelnak"",""vurnelnek""]","","posttest trial","4",""
"html-button-response-clever","172","900204","0.0-13.0-0.52","1147","Ez itt egy dunkész. Ott vagyunk a...","0","dunkészban","[""dunkészban"",""dunkészben""]","","posttest trial","4",""
"html-button-response-clever","173","901745","0.0-13.0-0.53","1035","Ez itt egy trikép. Ott vagyunk a...","0","triképben","[""triképben"",""triképban""]","","posttest trial","4",""
"html-button-response","174","908296","0.0-14.0","6048","<p> Vége a játéknak. A teljes pontszámod 24/54.</p><p> Szép munka! &#128526;&#128526;&#128526;</p><p>A Befejezés gomb megnyomása után bezárhatod a böngészőablakot.</p>","0","","","","","",""
"html-keyboard-response","175","913803","0.0-15.0","null","<div class=""message"">
         <p>Egy kis türelmet kérünk, amíg elmentjük az adatokat...</p>
         </div>","null","","","","","",""
