"trial_type","trial_index","time_elapsed","internal_node_id","rt","stimulus","response","response_string","choices","esp_response","trial_kind","list_number","esp_match"
"pavlovia","0","697","0.0-0.0","","","","","","","","",""
"html-button-response","1","24377","0.0-1.0","22738","<p>Kedves Résztvevő! A Budapesti Műszaki és Gazdaságtudományi Egyetem Kognitív Tudományi Tanszékének kutatásában való részvételed kérjük. A kutatásban azt vizsgáljuk, hogy a magyar anyanyelvűek hogyan használnak bizonyos szóalakokat, és hogy milyen képük van arról, hogy mások hogyan használják, hogyan képzik a szavakat. Ez hozzásegít bennünket ahhoz, hogy jobban megértsük, hogyan dolgozza fel és tárolja a nyelvet az emberi agy, és hogyan működnek, hogyan változnak egy adott közösség nyelvi konvenciói.</p><p>A vizsgálat egy rövid számítógépes feladatból fog állni. A kutatásban való részvétel önkéntes, a részvételi szándék bármikor visszavonható. A résztvevők eredményeit név nélkül kezeljük, így nem beazonosíthatók az adatok feldolgozása során. Minden személyes adatot az EU általános adatvédelmi rendeletének (GDPR) megfelelően kezelünk és legfeljebb öt éven belül megsemmisítünk. A vizsgálat jellemzően húsz percet vesz igénybe.</p><p>Kutatásvezető:</p><p>Dr. Rácz Péter, tudományos munkatárs, BME KTT</p><p>e-mail: racz.peter.marton@ttk.bme.hu</p>","0","","","","","",""
"html-button-response","2","109189","0.0-2.0","84296","<p>A kísérletben szavakat fogsz látni. Ezek között lesznek olyanok, amelyeket ismersz, de előfordulhatnak olyanok is, amelyeket nem ismersz, sőt, vannak köztük kitalált szavak is. Minden szónál látni fogsz toldalékolt alakokat. A te feladatod az lesz, hogy minden szóhoz kiválaszd azt a toldalékolt alakot, amely a te számodra ismerősebben, természetesebben hangzik. Rossz válaszok nincsenek, mert van olyan, hogy különböző embereknek más és más szó tűnik jobb választásnak. A választ úgy tudod majd kiválasztani, ha rákattintasz.</p><p>Ebben a szóválasztós játékban egy másik játékossal együtt veszel majd részt. A másik játékos is minden esetben azok közül a lehetőségek közül válogathat, mint te. Kettőtök feladata az, hogy ugyanazt a lehetőséget válasszátok minden esetben. Ahhoz, hogy ez sikerüljön, neked figyelned kell arra, hogy a másik játékos milyen válaszokat ad, és ennek alapján meg kell tippelned, hogyan választ legközelebb. Ha eltalálod, akkor pontot kapsz.</p>","0","","","","","",""
"html-button-response","3","151662","0.0-3.0","41957","<p>Kérjük, olvasd el az alábbi nyilatkozatot, és amennyiben egyetértesz vele, nyomj a Beleegyezés gombra!</p><p>Kijelentem, hogy magyar anyanyelvű személyként önként veszek részt a BME KTT kísérletében. A kutatás céljával és folyamatával kapcsolatban elegendő tájékoztatást kaptam, lehetőségem volt kérdések feltételére, és esetleges kérdéseimre megfelelő válaszokat kaptam. A tájékoztatás alapján elegendő mennyiségű információ áll a rendelkezésemre, hogy eldönthessem, részt kívánok-e venni a kutatásban.</p><p>Tisztában vagyok vele, hogy részvételi szándékomat és adataimat bármikor, indoklás nélkül visszavonhatom.</p><p>Értem és tudomásul veszem, hogy a kutatás tudományos célokat szolgál, és az általam szolgáltatott adatokat a BME kizárólag kutatási célból használja fel. Tudomásul veszem, hogy eredményeimet a többi résztvevő eredményeivel együtt kezelik, így egyéni teljesítményemről visszajelzést, szakvéleményt nem kapok.</p><p>Megértettem, hogy adataim kezelését illetően a BME az EU általános adatvédelmi rendelete (GDPR), a hatályos adatvédelmi törvény és a nemzetközi kutatás-etikai alapelvek szerint jár el. Eredményeim anonim módon kerülnek feldolgozásra, és a kutatás résztvevői az azonosításomra alkalmas adataimat harmadik félnek nem szolgáltatják ki. Engedélyezem a BME számára a jelen kutatásban felvett adataim feldolgozását és tárolását, beleértve azok későbbi kutatásokhoz való felhasználását is. Személyes adataim kezelésével kapcsolatban tájékoztatást kérhetek a kutatás résztvevőitől, az adatkezelés ellen tiltakozhatok, kérhetem személyes adataim helyesbítését, törlését vagy zárolását, valamint jogorvoslatért a Nemzeti Adatvédelmi és Információszabadság Hatósághoz fordulhatok.</p><p>Kijelentem, hogy a kutatásban való részvételem körülményeiről részletes tájékoztatást kaptam, és a feltételeket elfogadom.</p>","0","","","","","",""
"survey-text","4","226515","0.0-4.0","74305","","{""Q0"":""UJ9OFI"",""Q1"":"""",""Q2"":""1974"",""Q3"":""20""}","","","","","",""
"html-button-response","5","296793","0.0-5.0","69768","<p>Ebben a játékban szavakat kell toldalékolni.</p> <p>Minden körben mutatunk majd egy példamondatot, amiben lesz egy szó.</p> <p>Alatta jön egy második mondat, ezt a mondatot neked kell majd befejezni, ugyanezzel a szóval.</p> <p>Nem biztos, hogy a szó eleve ismerős lesz számodra!</p> <p>Minden mondathoz adunk két lehetőséget, ezeket balra és jobbra látod majd.</p> <p>A játék kb. negyedóráig-húsz percig tart.</p>","0","","","","","",""
"html-button-response","6","319653","0.0-6.0","22351","<p>Nézzünk egy példát!</p> <p>A példamondat: ""János imád fláramolni, ezért sokat fláramlik.""</p><p>Neked ezt a mondatot kell befejezned: ""Ti ritkán...""</p><p>A lehetőségek pedig ezek:</p>","0","","","","","",""
"html-button-response","7","330732","0.0-7.0","10562","<p>Nagyon jó.</p><p>Ezt a játékot nem egyedül fogod játszani, hanem egy másik játékossal.</p><p>Mielőtt továbblépünk, összekapcsolunk titeket egymással.</p><p>Ez igénybe vehet néhány másodpercet, amihez szíves türelmed kérjük.</p>","0","","","","","",""
"html-button-response","8","336464","0.0-8.0","null","<p>Csatlakozás a másik játékoshoz...</p>","null","","","","","",""
"html-button-response","9","338975","0.0-9.0","null","<p> Sikeres kapcsolódás!</p>","null","","","","","",""
"html-button-response","10","349509","0.0-10.0","null","<p>A következőkben ketten játsszátok a szóválasztós játékot.</p><p>A feladatotok az lesz, hogy minden körben <b>ugyanazt</b> a szót válasszátok.</p><p>Minden ilyen egyező válaszért pontot kaptok.</p><p>Próbáld meg kitalálni, mit választ a másik játékos!</p><p>Bármikor választhatsz, a körnek akkor van vége, ha mindketten döntöttetek.</p><p>Sok sikert!</p>","null","","","","","",""
"html-button-response-esp","11","359272","0.0-11.0-0.0","9241","János imád dárakodni, ezért sokat dárakszik. Mi ritkán...","0","dárakszunk","[""dárakszunk"",""dárakodunk""]","dárakodunk","esp trial","6","false"
"html-button-response","12","362790","0.0-11.0-1.0","null","<p>A másik játékos ezt választotta: <b>dárakodunk</b>.</p><p>&#10060;</p><p>A válaszaitok <b>nem</b> egyeznek meg.</p>","null","","","","feedback trial","",""
"html-button-response-esp","13","373404","0.0-11.0-0.1","10095","János imád drilarozni, ezért sokat drilarzik. Mi ritkán...","0","drilarzunk","[""drilarzunk"",""drilarozunk""]","drilarzunk","esp trial","6","true"
"html-button-response","14","376936","0.0-11.0-1.1","null","<p>A másik játékos ezt választotta: <b>drilarzunk</b>.</p><p>&#x2705;</p><p>A te válaszod és a másik játékos válasza <b>megegyeznek</b>.</p>","null","","","","feedback trial","",""
"html-button-response-esp","15","384882","0.0-11.0-0.2","7430","János imád pragányozni, ezért sokat pragánylik. Ti ritkán...","1","pragányoztok","[""pragánylotok"",""pragányoztok""]","pragányoztok","esp trial","6","true"
"html-button-response","16","388406","0.0-11.0-1.2","null","<p>A másik játékos ezt választotta: <b>pragányoztok</b>.</p><p>&#x2705;</p><p>A te válaszod és a másik játékos válasza <b>megegyeznek</b>.</p>","null","","","","feedback trial","",""
"html-button-response-esp","17","396740","0.0-11.0-0.3","7828","János imád prélemezni, ezért sokat prélemlik. Ők ritkán...","1","prélemeznek","[""prélemlenek"",""prélemeznek""]","prélemeznek","esp trial","6","true"
"html-button-response","18","400265","0.0-11.0-1.3","null","<p>A másik játékos ezt választotta: <b>prélemeznek</b>.</p><p>&#x2705;</p><p>A te válaszod és a másik játékos válasza <b>megegyeznek</b>.</p>","null","","","","feedback trial","",""
"html-button-response-esp","19","408008","0.0-11.0-0.4","7240","János imád fröjözni, ezért sokat fröjzik. Ti ritkán...","1","fröjöztök","[""fröjzötök"",""fröjöztök""]","fröjzötök","esp trial","6","false"
"html-button-response","20","411523","0.0-11.0-1.4","null","<p>A másik játékos ezt választotta: <b>fröjzötök</b>.</p><p>&#10060;</p><p>A válaszaitok <b>nem</b> egyeznek meg.</p>","null","","","","feedback trial","",""
"html-button-response-esp","21","419290","0.0-11.0-0.5","7261","János imád frakozni, ezért sokat fraklik. Mi ritkán...","0","frakozunk","[""frakozunk"",""fraklunk""]","frakozunk","esp trial","6","true"
"html-button-response","22","422805","0.0-11.0-1.5","null","<p>A másik játékos ezt választotta: <b>frakozunk</b>.</p><p>&#x2705;</p><p>A te válaszod és a másik játékos válasza <b>megegyeznek</b>.</p>","null","","","","feedback trial","",""
"html-button-response-esp","23","431428","0.0-11.0-0.6","8105","János imád gyihegezni, ezért sokat gyihegzik. Ti ritkán...","1","gyihegeztek","[""gyihegzetek"",""gyihegeztek""]","gyihegzetek","esp trial","6","false"
"html-button-response","24","434941","0.0-11.0-1.6","null","<p>A másik játékos ezt választotta: <b>gyihegzetek</b>.</p><p>&#10060;</p><p>A válaszaitok <b>nem</b> egyeznek meg.</p>","null","","","","feedback trial","",""
"html-button-response-esp","25","441498","0.0-11.0-0.7","6052","János imád spiharozni, ezért sokat spiharzik. Ti ritkán...","0","spiharoztok","[""spiharoztok"",""spiharzotok""]","spiharzotok","esp trial","6","false"
"html-button-response","26","445016","0.0-11.0-1.7","null","<p>A másik játékos ezt választotta: <b>spiharzotok</b>.</p><p>&#10060;</p><p>A válaszaitok <b>nem</b> egyeznek meg.</p>","null","","","","feedback trial","",""
"html-button-response-esp","27","450680","0.0-11.0-0.8","5159","János imád spügözni, ezért sokat spügzik. Mi ritkán...","1","spügzünk","[""spügözünk"",""spügzünk""]","spügözünk","esp trial","6","false"
"html-button-response","28","454211","0.0-11.0-1.8","null","<p>A másik játékos ezt választotta: <b>spügözünk</b>.</p><p>&#10060;</p><p>A válaszaitok <b>nem</b> egyeznek meg.</p>","null","","","","feedback trial","",""
"html-button-response-esp","29","461490","0.0-11.0-0.9","6759","János imád lűközni, ezért sokat lűklik. Ők ritkán...","0","lűklenek","[""lűklenek"",""lűköznek""]","lűklenek","esp trial","6","true"
"html-button-response","30","464998","0.0-11.0-1.9","null","<p>A másik játékos ezt választotta: <b>lűklenek</b>.</p><p>&#x2705;</p><p>A te válaszod és a másik játékos válasza <b>megegyeznek</b>.</p>","null","","","","feedback trial","",""
"html-button-response-esp","31","471974","0.0-11.0-0.10","6460","János imád privékedni, ezért sokat privékszik. Ők ritkán...","1","privékednek","[""privékszenek"",""privékednek""]","privékednek","esp trial","6","true"
"html-button-response","32","475505","0.0-11.0-1.10","null","<p>A másik játékos ezt választotta: <b>privékednek</b>.</p><p>&#x2705;</p><p>A te válaszod és a másik játékos válasza <b>megegyeznek</b>.</p>","null","","","","feedback trial","",""
"html-button-response-esp","33","481525","0.0-11.0-0.11","5515","János imád dabozni, ezért sokat dabzik. Ti ritkán...","0","dabzotok","[""dabzotok"",""daboztok""]","daboztok","esp trial","6","false"
"html-button-response","34","485031","0.0-11.0-1.11","null","<p>A másik játékos ezt választotta: <b>daboztok</b>.</p><p>&#10060;</p><p>A válaszaitok <b>nem</b> egyeznek meg.</p>","null","","","","feedback trial","",""
"html-button-response-esp","35","495776","0.0-11.0-0.12","10226","János imád klehényezni, ezért sokat klehénylik. Ti ritkán...","0","klehényeztek","[""klehényeztek"",""klehényletek""]","klehényeztek","esp trial","6","true"
"html-button-response","36","499300","0.0-11.0-1.12","null","<p>A másik játékos ezt választotta: <b>klehényeztek</b>.</p><p>&#x2705;</p><p>A te válaszod és a másik játékos válasza <b>megegyeznek</b>.</p>","null","","","","feedback trial","",""
"html-button-response-esp","37","506207","0.0-11.0-0.13","6403","János imád flemezni, ezért sokat flemlik. Mi ritkán...","1","flemlünk","[""flemezünk"",""flemlünk""]","flemlünk","esp trial","6","true"
"html-button-response","38","509728","0.0-11.0-1.13","null","<p>A másik játékos ezt választotta: <b>flemlünk</b>.</p><p>&#x2705;</p><p>A te válaszod és a másik játékos válasza <b>megegyeznek</b>.</p>","null","","","","feedback trial","",""
"html-button-response-esp","39","516782","0.0-11.0-0.14","6546","János imád brülösözni, ezért sokat brülöslik. Mi ritkán...","0","brülösözünk","[""brülösözünk"",""brülöslünk""]","brülösözünk","esp trial","6","true"
"html-button-response","40","520312","0.0-11.0-1.14","null","<p>A másik játékos ezt választotta: <b>brülösözünk</b>.</p><p>&#x2705;</p><p>A te válaszod és a másik játékos válasza <b>megegyeznek</b>.</p>","null","","","","feedback trial","",""
"html-button-response-esp","41","526837","0.0-11.0-0.15","6020","János imád sprudozni, ezért sokat sprudlik. Mi ritkán...","0","sprudlunk","[""sprudlunk"",""sprudozunk""]","sprudlunk","esp trial","6","true"
"html-button-response","42","530364","0.0-11.0-1.15","null","<p>A másik játékos ezt választotta: <b>sprudlunk</b>.</p><p>&#x2705;</p><p>A te válaszod és a másik játékos válasza <b>megegyeznek</b>.</p>","null","","","","feedback trial","",""
"html-button-response-esp","43","535650","0.0-11.0-0.16","4769","János imád drűrözni, ezért sokat drűrzik. Ők ritkán...","1","drűröznek","[""drűrzenek"",""drűröznek""]","drűrzenek","esp trial","6","false"
"html-button-response","44","539169","0.0-11.0-1.16","null","<p>A másik játékos ezt választotta: <b>drűrzenek</b>.</p><p>&#10060;</p><p>A válaszaitok <b>nem</b> egyeznek meg.</p>","null","","","","feedback trial","",""
"html-button-response-esp","45","545326","0.0-11.0-0.17","5640","János imád csibagozni, ezért sokat csibagzik. Ti ritkán...","0","csibagoztok","[""csibagoztok"",""csibagzotok""]","csibagzotok","esp trial","6","false"
"html-button-response","46","548843","0.0-11.0-1.17","null","<p>A másik játékos ezt választotta: <b>csibagzotok</b>.</p><p>&#10060;</p><p>A válaszaitok <b>nem</b> egyeznek meg.</p>","null","","","","feedback trial","",""
"html-button-response-esp","47","554876","0.0-11.0-0.18","5529","János imád trugozni, ezért sokat trugzik. Ők ritkán...","0","trugzanak","[""trugzanak"",""trugoznak""]","trugzanak","esp trial","6","true"
"html-button-response","48","558388","0.0-11.0-1.18","null","<p>A másik játékos ezt választotta: <b>trugzanak</b>.</p><p>&#x2705;</p><p>A te válaszod és a másik játékos válasza <b>megegyeznek</b>.</p>","null","","","","feedback trial","",""
"html-button-response-esp","49","564260","0.0-11.0-0.19","5366","János imád sprűrözni, ezért sokat sprűrlik. Ők ritkán...","1","sprűröznek","[""sprűrlenek"",""sprűröznek""]","sprűröznek","esp trial","6","true"
"html-button-response","50","567771","0.0-11.0-1.19","null","<p>A másik játékos ezt választotta: <b>sprűröznek</b>.</p><p>&#x2705;</p><p>A te válaszod és a másik játékos válasza <b>megegyeznek</b>.</p>","null","","","","feedback trial","",""
"html-button-response-esp","51","574600","0.0-11.0-0.20","6315","János imád brivakozni, ezért sokat brivaklik. Ti ritkán...","0","brivakoztok","[""brivakoztok"",""brivaklotok""]","brivakoztok","esp trial","6","true"
"html-button-response","52","578121","0.0-11.0-1.20","null","<p>A másik játékos ezt választotta: <b>brivakoztok</b>.</p><p>&#x2705;</p><p>A te válaszod és a másik játékos válasza <b>megegyeznek</b>.</p>","null","","","","feedback trial","",""
"html-button-response-esp","53","585061","0.0-11.0-0.21","6436","János imád frálapodni, ezért sokat frálapszik. Ti ritkán...","0","frálapszotok","[""frálapszotok"",""frálapodtok""]","frálapodtok","esp trial","6","false"
"html-button-response","54","588574","0.0-11.0-1.21","null","<p>A másik játékos ezt választotta: <b>frálapodtok</b>.</p><p>&#10060;</p><p>A válaszaitok <b>nem</b> egyeznek meg.</p>","null","","","","feedback trial","",""
"html-button-response-esp","55","594340","0.0-11.0-0.22","5259","János imád pilégedni, ezért sokat pilégszik. Ők ritkán...","1","pilégednek","[""pilégszenek"",""pilégednek""]","pilégednek","esp trial","6","true"
"html-button-response","56","597858","0.0-11.0-1.22","null","<p>A másik játékos ezt választotta: <b>pilégednek</b>.</p><p>&#x2705;</p><p>A te válaszod és a másik játékos válasza <b>megegyeznek</b>.</p>","null","","","","feedback trial","",""
"html-button-response-esp","57","603164","0.0-11.0-0.23","4788","János imád sprozozni, ezért sokat sprozlik. Ők ritkán...","0","sprozoznak","[""sprozoznak"",""sprozlanak""]","sprozoznak","esp trial","6","true"
"html-button-response","58","606682","0.0-11.0-1.23","null","<p>A másik játékos ezt választotta: <b>sprozoznak</b>.</p><p>&#x2705;</p><p>A te válaszod és a másik játékos válasza <b>megegyeznek</b>.</p>","null","","","","feedback trial","",""
"html-button-response-esp","59","611585","0.0-11.0-0.24","4389","János imád trivakodni, ezért sokat trivakszik. Mi ritkán...","0","trivakszunk","[""trivakszunk"",""trivakodunk""]","trivakodunk","esp trial","6","false"
"html-button-response","60","615109","0.0-11.0-1.24","null","<p>A másik játékos ezt választotta: <b>trivakodunk</b>.</p><p>&#10060;</p><p>A válaszaitok <b>nem</b> egyeznek meg.</p>","null","","","","feedback trial","",""
"html-button-response-esp","61","621424","0.0-11.0-0.25","5804","János imád flűgözni, ezért sokat flűgzik. Mi ritkán...","0","flűgzünk","[""flűgzünk"",""flűgözünk""]","flűgözünk","esp trial","6","false"
"html-button-response","62","624961","0.0-11.0-1.25","null","<p>A másik játékos ezt választotta: <b>flűgözünk</b>.</p><p>&#10060;</p><p>A válaszaitok <b>nem</b> egyeznek meg.</p>","null","","","","feedback trial","",""
"html-button-response-esp","63","630223","0.0-11.0-0.26","4722","János imád dujozni, ezért sokat dujzik. Ők ritkán...","0","dujzanak","[""dujzanak"",""dujoznak""]","dujoznak","esp trial","6","false"
"html-button-response","64","633745","0.0-11.0-1.26","null","<p>A másik játékos ezt választotta: <b>dujoznak</b>.</p><p>&#10060;</p><p>A válaszaitok <b>nem</b> egyeznek meg.</p>","null","","","","feedback trial","",""
"html-button-response-esp","65","639279","0.0-11.0-0.27","5031","János imád posozni, ezért sokat poslik. Ti ritkán...","1","poslotok","[""posoztok"",""poslotok""]","posoztok","esp trial","6","false"
"html-button-response","66","642867","0.0-11.0-1.27","null","<p>A másik játékos ezt választotta: <b>posoztok</b>.</p><p>&#10060;</p><p>A válaszaitok <b>nem</b> egyeznek meg.</p>","null","","","","feedback trial","",""
"html-button-response-esp","67","648571","0.0-11.0-0.28","5188","János imád nyürözni, ezért sokat nyürzik. Ők ritkán...","1","nyüröznek","[""nyürzenek"",""nyüröznek""]","nyüröznek","esp trial","6","true"
"html-button-response","68","652093","0.0-11.0-1.28","null","<p>A másik játékos ezt választotta: <b>nyüröznek</b>.</p><p>&#x2705;</p><p>A te válaszod és a másik játékos válasza <b>megegyeznek</b>.</p>","null","","","","feedback trial","",""
"html-button-response-esp","69","658675","0.0-11.0-0.29","6070","János imád molodni, ezért sokat molszik. Ti ritkán...","1","molszotok","[""molodtok"",""molszotok""]","molodtok","esp trial","6","false"
"html-button-response","70","662195","0.0-11.0-1.29","null","<p>A másik játékos ezt választotta: <b>molodtok</b>.</p><p>&#10060;</p><p>A válaszaitok <b>nem</b> egyeznek meg.</p>","null","","","","feedback trial","",""
"html-button-response-esp","71","672211","0.0-11.0-0.30","9512","János imád dirozni, ezért sokat dirlik. Ti ritkán...","1","diroztok","[""dirlotok"",""diroztok""]","diroztok","esp trial","6","true"
"html-button-response","72","675736","0.0-11.0-1.30","null","<p>A másik játékos ezt választotta: <b>diroztok</b>.</p><p>&#x2705;</p><p>A te válaszod és a másik játékos válasza <b>megegyeznek</b>.</p>","null","","","","feedback trial","",""
"html-button-response-esp","73","684834","0.0-11.0-0.31","8581","János imád bratározni, ezért sokat bratárzik. Ők ritkán...","1","bratároznak","[""bratárzanak"",""bratároznak""]","bratárzanak","esp trial","6","false"
"html-button-response","74","688354","0.0-11.0-1.31","null","<p>A másik játékos ezt választotta: <b>bratárzanak</b>.</p><p>&#10060;</p><p>A válaszaitok <b>nem</b> egyeznek meg.</p>","null","","","","feedback trial","",""
"html-button-response-esp","75","695258","0.0-11.0-0.32","6400","János imád föködni, ezért sokat fökszik. Ők ritkán...","0","fökszenek","[""fökszenek"",""föködnek""]","föködnek","esp trial","6","false"
"html-button-response","76","698773","0.0-11.0-1.32","null","<p>A másik játékos ezt választotta: <b>föködnek</b>.</p><p>&#10060;</p><p>A válaszaitok <b>nem</b> egyeznek meg.</p>","null","","","","feedback trial","",""
"html-button-response-esp","77","704424","0.0-11.0-0.33","5148","János imád branyozni, ezért sokat branylik. Ők ritkán...","0","branyoznak","[""branyoznak"",""branylanak""]","branyoznak","esp trial","6","true"
"html-button-response","78","707945","0.0-11.0-1.33","null","<p>A másik játékos ezt választotta: <b>branyoznak</b>.</p><p>&#x2705;</p><p>A te válaszod és a másik játékos válasza <b>megegyeznek</b>.</p>","null","","","","feedback trial","",""
"html-button-response-esp","79","712663","0.0-11.0-0.34","4174","János imád brözözni, ezért sokat brözlik. Ti ritkán...","0","brözlötök","[""brözlötök"",""brözöztök""]","brözöztök","esp trial","6","false"
"html-button-response","80","716195","0.0-11.0-1.34","null","<p>A másik játékos ezt választotta: <b>brözöztök</b>.</p><p>&#10060;</p><p>A válaszaitok <b>nem</b> egyeznek meg.</p>","null","","","","feedback trial","",""
"html-button-response-esp","81","723056","0.0-11.0-0.35","6343","János imád csubozni, ezért sokat csubzik. Mi ritkán...","1","csubzunk","[""csubozunk"",""csubzunk""]","csubozunk","esp trial","6","false"
"html-button-response","82","726579","0.0-11.0-1.35","null","<p>A másik játékos ezt választotta: <b>csubozunk</b>.</p><p>&#10060;</p><p>A válaszaitok <b>nem</b> egyeznek meg.</p>","null","","","","feedback trial","",""
"html-button-response-esp","83","733143","0.0-11.0-0.36","6055","János imád püzözni, ezért sokat püzlik. Ti ritkán...","1","püzlötök","[""püzöztök"",""püzlötök""]","püzöztök","esp trial","6","false"
"html-button-response","84","736672","0.0-11.0-1.36","null","<p>A másik játékos ezt választotta: <b>püzöztök</b>.</p><p>&#10060;</p><p>A válaszaitok <b>nem</b> egyeznek meg.</p>","null","","","","feedback trial","",""
"html-button-response-esp","85","742578","0.0-11.0-0.37","5390","János imád spirágozni, ezért sokat spiráglik. Ti ritkán...","1","spirágoztok","[""spiráglotok"",""spirágoztok""]","spiráglotok","esp trial","6","false"
"html-button-response","86","746105","0.0-11.0-1.37","null","<p>A másik játékos ezt választotta: <b>spiráglotok</b>.</p><p>&#10060;</p><p>A válaszaitok <b>nem</b> egyeznek meg.</p>","null","","","","feedback trial","",""
"html-button-response-esp","87","752894","0.0-11.0-0.38","6278","János imád gihejezni, ezért sokat gihejlik. Mi ritkán...","1","gihejlünk","[""gihejezünk"",""gihejlünk""]","gihejezünk","esp trial","6","false"
"html-button-response","88","756425","0.0-11.0-1.38","null","<p>A másik játékos ezt választotta: <b>gihejezünk</b>.</p><p>&#10060;</p><p>A válaszaitok <b>nem</b> egyeznek meg.</p>","null","","","","feedback trial","",""
"html-button-response-esp","89","762048","0.0-11.0-0.39","5116","János imád frálasozni, ezért sokat frálaslik. Ők ritkán...","0","frálasoznak","[""frálasoznak"",""frálaslanak""]","frálasoznak","esp trial","6","true"
"html-button-response","90","765575","0.0-11.0-1.39","null","<p>A másik játékos ezt választotta: <b>frálasoznak</b>.</p><p>&#x2705;</p><p>A te válaszod és a másik játékos válasza <b>megegyeznek</b>.</p>","null","","","","feedback trial","",""
"html-button-response-esp","91","771226","0.0-11.0-0.40","5139","János imád flöközni, ezért sokat flöklik. Ti ritkán...","0","flököztök","[""flököztök"",""flöklötök""]","flököztök","esp trial","6","true"
"html-button-response","92","774772","0.0-11.0-1.40","null","<p>A másik játékos ezt választotta: <b>flököztök</b>.</p><p>&#x2705;</p><p>A te válaszod és a másik játékos válasza <b>megegyeznek</b>.</p>","null","","","","feedback trial","",""
"html-button-response-esp","93","782516","0.0-11.0-0.41","7237","János imád virozni, ezért sokat virzik. Ők ritkán...","1","viroznak","[""virzanak"",""viroznak""]","viroznak","esp trial","6","true"
"html-button-response","94","786037","0.0-11.0-1.41","null","<p>A másik játékos ezt választotta: <b>viroznak</b>.</p><p>&#x2705;</p><p>A te válaszod és a másik játékos válasza <b>megegyeznek</b>.</p>","null","","","","feedback trial","",""
"html-button-response-esp","95","791439","0.0-11.0-0.42","4898","János imád nyivágozni, ezért sokat nyivágzik. Mi ritkán...","1","nyivágzunk","[""nyivágozunk"",""nyivágzunk""]","nyivágozunk","esp trial","6","false"
"html-button-response","96","794959","0.0-11.0-1.42","null","<p>A másik játékos ezt választotta: <b>nyivágozunk</b>.</p><p>&#10060;</p><p>A válaszaitok <b>nem</b> egyeznek meg.</p>","null","","","","feedback trial","",""
"html-button-response-esp","97","801608","0.0-11.0-0.43","6145","János imád spibegezni, ezért sokat spibeglik. Mi ritkán...","1","spibeglünk","[""spibegezünk"",""spibeglünk""]","spibegezünk","esp trial","6","false"
"html-button-response","98","805121","0.0-11.0-1.43","null","<p>A másik játékos ezt választotta: <b>spibegezünk</b>.</p><p>&#10060;</p><p>A válaszaitok <b>nem</b> egyeznek meg.</p>","null","","","","feedback trial","",""
"html-button-response-esp","99","811604","0.0-11.0-0.44","5980","János imád dilakozni, ezért sokat dilaklik. Ti ritkán...","1","dilakoztok","[""dilaklotok"",""dilakoztok""]","dilaklotok","esp trial","6","false"
"html-button-response","100","815119","0.0-11.0-1.44","null","<p>A másik játékos ezt választotta: <b>dilaklotok</b>.</p><p>&#10060;</p><p>A válaszaitok <b>nem</b> egyeznek meg.</p>","null","","","","feedback trial","",""
"html-button-response-esp","101","820542","0.0-11.0-0.45","4907","János imád lájozni, ezért sokat lájzik. Ti ritkán...","1","lájzotok","[""lájoztok"",""lájzotok""]","lájoztok","esp trial","6","false"
"html-button-response","102","824062","0.0-11.0-1.45","null","<p>A másik játékos ezt választotta: <b>lájoztok</b>.</p><p>&#10060;</p><p>A válaszaitok <b>nem</b> egyeznek meg.</p>","null","","","","feedback trial","",""
"html-button-response-esp","103","831063","0.0-11.0-0.46","6497","János imád mülőrözni, ezért sokat mülőrzik. Mi ritkán...","1","mülőrözünk","[""mülőrzünk"",""mülőrözünk""]","mülőrözünk","esp trial","6","true"
"html-button-response","104","834590","0.0-11.0-1.46","null","<p>A másik játékos ezt választotta: <b>mülőrözünk</b>.</p><p>&#x2705;</p><p>A te válaszod és a másik játékos válasza <b>megegyeznek</b>.</p>","null","","","","feedback trial","",""
"html-button-response-esp","105","842201","0.0-11.0-0.47","7102","János imád flüröközni, ezért sokat flüröklik. Ti ritkán...","1","flüröklötök","[""flürököztök"",""flüröklötök""]","flürököztök","esp trial","6","false"
"html-button-response","106","845711","0.0-11.0-1.47","null","<p>A másik játékos ezt választotta: <b>flürököztök</b>.</p><p>&#10060;</p><p>A válaszaitok <b>nem</b> egyeznek meg.</p>","null","","","","feedback trial","",""
"html-button-response-esp","107","851650","0.0-11.0-0.48","5429","János imád mágamozni, ezért sokat mágamlik. Mi ritkán...","1","mágamozunk","[""mágamlunk"",""mágamozunk""]","mágamozunk","esp trial","6","true"
"html-button-response","108","855163","0.0-11.0-1.48","null","<p>A másik játékos ezt választotta: <b>mágamozunk</b>.</p><p>&#x2705;</p><p>A te válaszod és a másik játékos válasza <b>megegyeznek</b>.</p>","null","","","","feedback trial","",""
"html-button-response-esp","109","867181","0.0-11.0-0.49","11500","János imád kűdözni, ezért sokat kűdlik. Ők ritkán...","0","kűdlenek","[""kűdlenek"",""kűdöznek""]","kűdöznek","esp trial","6","false"
"html-button-response","110","870696","0.0-11.0-1.49","null","<p>A másik játékos ezt választotta: <b>kűdöznek</b>.</p><p>&#10060;</p><p>A válaszaitok <b>nem</b> egyeznek meg.</p>","null","","","","feedback trial","",""
"html-button-response-esp","111","882302","0.0-11.0-0.50","11087","János imád trikozni, ezért sokat triklik. Ti ritkán...","0","triklotok","[""triklotok"",""trikoztok""]","trikoztok","esp trial","6","false"
"html-button-response","112","885813","0.0-11.0-1.50","null","<p>A másik játékos ezt választotta: <b>trikoztok</b>.</p><p>&#10060;</p><p>A válaszaitok <b>nem</b> egyeznek meg.</p>","null","","","","feedback trial","",""
"html-button-response-esp","113","891751","0.0-11.0-0.51","5428","János imád prögözni, ezért sokat prögzik. Ti ritkán...","0","prögzötök","[""prögzötök"",""prögöztök""]","prögzötök","esp trial","6","true"
"html-button-response","114","895315","0.0-11.0-1.51","null","<p>A másik játékos ezt választotta: <b>prögzötök</b>.</p><p>&#x2705;</p><p>A te válaszod és a másik játékos válasza <b>megegyeznek</b>.</p>","null","","","","feedback trial","",""
"html-button-response-esp","115","905722","0.0-11.0-0.52","9895","János imád trugokozni, ezért sokat trugoklik. Ők ritkán...","0","trugoklanak","[""trugoklanak"",""trugokoznak""]","trugokoznak","esp trial","6","false"
"html-button-response","116","909244","0.0-11.0-1.52","null","<p>A másik játékos ezt választotta: <b>trugokoznak</b>.</p><p>&#10060;</p><p>A válaszaitok <b>nem</b> egyeznek meg.</p>","null","","","","feedback trial","",""
"html-button-response-esp","117","916618","0.0-11.0-0.53","6869","János imád köszözni, ezért sokat köszlik. Ti ritkán...","1","köszlötök","[""köszöztök"",""köszlötök""]","köszlötök","esp trial","6","true"
"html-button-response","118","920131","0.0-11.0-1.53","null","<p>A másik játékos ezt választotta: <b>köszlötök</b>.</p><p>&#x2705;</p><p>A te válaszod és a másik játékos válasza <b>megegyeznek</b>.</p>","null","","","","feedback trial","",""
"html-button-response","119","953173","0.0-12.0","32526","<p>A közös játék most véget ért.</p><p>Mielőtt eláruljuk a végső pontszámodat, arra kérlek, játszd a szóválasztós játékot néhány percig egyedül is.</p><p>A feladatod ugyanaz lesz, választani két lehetőség közül.</p><p>Most viszont egyedül kell döntened, hogy te melyiket választanád.</p>","0","","","","","",""
"html-button-response-clever","120","960156","0.0-13.0-0.0","6455","János imád brivepedni, ezért sokat brivepszik. Mi ritkán...","0","brivepszünk","[""brivepszünk"",""brivepedünk""]","","posttest trial","8",""
"html-button-response-clever","121","968682","0.0-13.0-0.1","8018","János imád sztrajozni, ezért sokat sztrajlik. Ők ritkán...","1","sztrajlanak","[""sztrajoznak"",""sztrajlanak""]","","posttest trial","8",""
"html-button-response-clever","122","976795","0.0-13.0-0.2","7607","János imád vobozni, ezért sokat vobzik. Ti ritkán...","1","vobzotok","[""voboztok"",""vobzotok""]","","posttest trial","8",""
"html-button-response-clever","123","985773","0.0-13.0-0.3","8471","János imád spalározni, ezért sokat spalárzik. Ők ritkán...","0","spalárzanak","[""spalárzanak"",""spalároznak""]","","posttest trial","8",""
"html-button-response-clever","124","994051","0.0-13.0-0.4","7767","János imád gyivepedni, ezért sokat gyivepszik. Ők ritkán...","1","gyivepszenek","[""gyivepednek"",""gyivepszenek""]","","posttest trial","8",""
"html-button-response-clever","125","1003198","0.0-13.0-0.5","8630","János imád mihágozni, ezért sokat mihágzik. Ti ritkán...","0","mihágoztok","[""mihágoztok"",""mihágzotok""]","","posttest trial","8",""
"html-button-response-clever","126","1011025","0.0-13.0-0.6","7305","János imád brározni, ezért sokat brárlik. Ők ritkán...","0","brárlanak","[""brárlanak"",""brároznak""]","","posttest trial","8",""
"html-button-response-clever","127","1017412","0.0-13.0-0.7","5873","János imád bregezni, ezért sokat bregzik. Mi ritkán...","1","bregzünk","[""bregezünk"",""bregzünk""]","","posttest trial","8",""
"html-button-response-clever","128","1024064","0.0-13.0-0.8","6141","János imád lumozni, ezért sokat lumlik. Ti ritkán...","0","lumlotok","[""lumlotok"",""lumoztok""]","","posttest trial","8",""
"html-button-response-clever","129","1033820","0.0-13.0-0.9","9247","János imád hákodni, ezért sokat hákszik. Ők ritkán...","1","hákszanak","[""hákodnak"",""hákszanak""]","","posttest trial","8",""
"html-button-response-clever","130","1039653","0.0-13.0-0.10","5323","János imád prilepedni, ezért sokat prilepszik. Mi ritkán...","1","prilepszünk","[""prilepedünk"",""prilepszünk""]","","posttest trial","8",""
"html-button-response-clever","131","1046017","0.0-13.0-0.11","5854","János imád sprimozni, ezért sokat sprimlik. Mi ritkán...","1","sprimlunk","[""sprimozunk"",""sprimlunk""]","","posttest trial","8",""
"html-button-response-clever","132","1051295","0.0-13.0-0.12","4767","János imád spibamozni, ezért sokat spibamlik. Ők ritkán...","1","spibamlanak","[""spibamoznak"",""spibamlanak""]","","posttest trial","8",""
"html-button-response-clever","133","1056482","0.0-13.0-0.13","4682","János imád frivamozni, ezért sokat frivamlik. Mi ritkán...","1","frivamlunk","[""frivamozunk"",""frivamlunk""]","","posttest trial","8",""
"html-button-response-clever","134","1062104","0.0-13.0-0.14","5108","János imád brüszözni, ezért sokat brüszlik. Ti ritkán...","0","brüszlötök","[""brüszlötök"",""brüszöztök""]","","posttest trial","8",""
"html-button-response-clever","135","1068330","0.0-13.0-0.15","5713","János imád trűnyözni, ezért sokat trűnylik. Ők ritkán...","0","trűnylenek","[""trűnylenek"",""trűnyöznek""]","","posttest trial","8",""
"html-button-response-clever","136","1074035","0.0-13.0-0.16","5187","János imád fröjözni, ezért sokat fröjlik. Mi ritkán...","1","fröjlünk","[""fröjözünk"",""fröjlünk""]","","posttest trial","8",""
"html-button-response-clever","137","1081216","0.0-13.0-0.17","6662","János imád klarágozni, ezért sokat klarágzik. Ti ritkán...","0","klarágzotok","[""klarágzotok"",""klarágoztok""]","","posttest trial","8",""
"html-button-response-clever","138","1089950","0.0-13.0-0.18","8218","János imád galározni, ezért sokat galárzik. Ők ritkán...","0","galároznak","[""galároznak"",""galárzanak""]","","posttest trial","8",""
"html-button-response-clever","139","1096131","0.0-13.0-0.19","5661","János imád kluzozni, ezért sokat kluzlik. Ti ritkán...","0","kluzlotok","[""kluzlotok"",""kluzoztok""]","","posttest trial","8",""
"html-button-response-clever","140","1103335","0.0-13.0-0.20","6689","János imád flubokozni, ezért sokat fluboklik. Ti ritkán...","1","fluboklotok","[""flubokoztok"",""fluboklotok""]","","posttest trial","8",""
"html-button-response-clever","141","1114594","0.0-13.0-0.21","10744","János imád sprigozni, ezért sokat sprigzik. Ti ritkán...","0","sprigoztok","[""sprigoztok"",""sprigzotok""]","","posttest trial","8",""
"html-button-response-clever","142","1121142","0.0-13.0-0.22","6030","János imád trírozni, ezért sokat trírzik. Mi ritkán...","0","trírzunk","[""trírzunk"",""trírozunk""]","","posttest trial","8",""
"html-button-response-clever","143","1132963","0.0-13.0-0.23","11307","János imád tűgözni, ezért sokat tűgzik. Ti ritkán...","0","tűgöztök","[""tűgöztök"",""tűgzötök""]","","posttest trial","8",""
"html-button-response-clever","144","1138558","0.0-13.0-0.24","5073","János imád tibarozni, ezért sokat tibarzik. Ők ritkán...","1","tibaroznak","[""tibarzanak"",""tibaroznak""]","","posttest trial","8",""
"html-button-response-clever","145","1148621","0.0-13.0-0.25","9553","János imád sztritozni, ezért sokat sztritlik. Ők ritkán...","1","sztritlanak","[""sztritoznak"",""sztritlanak""]","","posttest trial","8",""
"html-button-response-clever","146","1154594","0.0-13.0-0.26","5447","János imád lírozni, ezért sokat lírlik. Ők ritkán...","0","lírlanak","[""lírlanak"",""líroznak""]","","posttest trial","8",""
"html-button-response-clever","147","1159575","0.0-13.0-0.27","4463","János imád tágarozni, ezért sokat tágarzik. Mi ritkán...","0","tágarzunk","[""tágarzunk"",""tágarozunk""]","","posttest trial","8",""
"html-button-response-clever","148","1166235","0.0-13.0-0.28","6140","János imád drivegezni, ezért sokat drivegzik. Ti ritkán...","1","drivegzetek","[""drivegeztek"",""drivegzetek""]","","posttest trial","8",""
"html-button-response-clever","149","1172741","0.0-13.0-0.29","5997","János imád brálamozni, ezért sokat brálamlik. Ők ritkán...","1","brálamlanak","[""brálamoznak"",""brálamlanak""]","","posttest trial","8",""
"html-button-response-clever","150","1180141","0.0-13.0-0.30","6884","János imád dirányozni, ezért sokat diránylik. Ők ritkán...","0","diránylanak","[""diránylanak"",""dirányoznak""]","","posttest trial","8",""
"html-button-response-clever","151","1187553","0.0-13.0-0.31","6898","János imád brilegezni, ezért sokat brilegzik. Mi ritkán...","1","brilegzünk","[""brilegezünk"",""brilegzünk""]","","posttest trial","8",""
"html-button-response-clever","152","1192609","0.0-13.0-0.32","4546","János imád filányozni, ezért sokat filánylik. Mi ritkán...","1","filánylunk","[""filányozunk"",""filánylunk""]","","posttest trial","8",""
"html-button-response-clever","153","1199343","0.0-13.0-0.33","6216","János imád pehégedni, ezért sokat pehégszik. Ti ritkán...","1","pehégszetek","[""pehégedtek"",""pehégszetek""]","","posttest trial","8",""
"html-button-response-clever","154","1205997","0.0-13.0-0.34","6144","János imád flivegezni, ezért sokat flivegzik. Ők ritkán...","0","flivegzenek","[""flivegzenek"",""flivegeznek""]","","posttest trial","8",""
"html-button-response-clever","155","1210966","0.0-13.0-0.35","4453","János imád sponyozni, ezért sokat sponylik. Ők ritkán...","0","sponylanak","[""sponylanak"",""sponyoznak""]","","posttest trial","8",""
"html-button-response-clever","156","1215633","0.0-13.0-0.36","4162","János imád pekedni, ezért sokat pekszik. Mi ritkán...","1","pekszünk","[""pekedünk"",""pekszünk""]","","posttest trial","8",""
"html-button-response-clever","157","1220228","0.0-13.0-0.37","4084","János imád gatágozni, ezért sokat gatáglik. Mi ritkán...","0","gatáglunk","[""gatáglunk"",""gatágozunk""]","","posttest trial","8",""
"html-button-response-clever","158","1224276","0.0-13.0-0.38","3501","János imád küsözni, ezért sokat küslik. Mi ritkán...","0","küslünk","[""küslünk"",""küsözünk""]","","posttest trial","8",""
"html-button-response-clever","159","1230759","0.0-13.0-0.39","5969","János imád spöközni, ezért sokat spöklik. Mi ritkán...","0","spöklünk","[""spöklünk"",""spöközünk""]","","posttest trial","8",""
"html-button-response-clever","160","1235363","0.0-13.0-0.40","4084","János imád flézezni, ezért sokat flézlik. Ti ritkán...","0","flézletek","[""flézletek"",""flézeztek""]","","posttest trial","8",""
"html-button-response-clever","161","1239461","0.0-13.0-0.41","3585","János imád drojozni, ezért sokat drojzik. Mi ritkán...","0","drojzunk","[""drojzunk"",""drojozunk""]","","posttest trial","8",""
"html-button-response-clever","162","1244095","0.0-13.0-0.42","4113","János imád míjozni, ezért sokat míjzik. Mi ritkán...","0","míjzunk","[""míjzunk"",""míjozunk""]","","posttest trial","8",""
"html-button-response-clever","163","1250316","0.0-13.0-0.43","5706","János imád nágapodni, ezért sokat nágapszik. Ők ritkán...","0","nágapszanak","[""nágapszanak"",""nágapodnak""]","","posttest trial","8",""
"html-button-response-clever","164","1255353","0.0-13.0-0.44","4517","János imád prazozni, ezért sokat prazlik. Mi ritkán...","1","prazlunk","[""prazozunk"",""prazlunk""]","","posttest trial","8",""
"html-button-response-clever","165","1260209","0.0-13.0-0.45","4348","János imád frésezni, ezért sokat fréslik. Mi ritkán...","1","fréslünk","[""frésezünk"",""fréslünk""]","","posttest trial","8",""
"html-button-response-clever","166","1267297","0.0-13.0-0.46","6570","János imád tribejezni, ezért sokat tribejlik. Ti ritkán...","0","tribejletek","[""tribejletek"",""tribejeztek""]","","posttest trial","8",""
"html-button-response-clever","167","1272681","0.0-13.0-0.47","4864","János imád pörözni, ezért sokat pörzik. Ti ritkán...","1","pöröztök","[""pörzötök"",""pöröztök""]","","posttest trial","8",""
"html-button-response-clever","168","1278185","0.0-13.0-0.48","4992","János imád mísozni, ezért sokat míslik. Mi ritkán...","1","míslunk","[""mísozunk"",""míslunk""]","","posttest trial","8",""
"html-button-response-clever","169","1282501","0.0-13.0-0.49","3804","János imád livényezni, ezért sokat livénylik. Mi ritkán...","1","livénylünk","[""livényezünk"",""livénylünk""]","","posttest trial","8",""
"html-button-response-clever","170","1289732","0.0-13.0-0.50","6720","János imád frihegezni, ezért sokat friheglik. Mi ritkán...","1","friheglünk","[""frihegezünk"",""friheglünk""]","","posttest trial","8",""
"html-button-response-clever","171","1295588","0.0-13.0-0.51","5337","János imád brivágozni, ezért sokat briváglik. Ők ritkán...","0","briváglanak","[""briváglanak"",""brivágoznak""]","","posttest trial","8",""
"html-button-response-clever","172","1300339","0.0-13.0-0.52","4231","János imád gibemezni, ezért sokat gibemlik. Mi ritkán...","0","gibemlünk","[""gibemlünk"",""gibemezünk""]","","posttest trial","8",""
"html-button-response-clever","173","1304609","0.0-13.0-0.53","3758","János imád riványozni, ezért sokat riványlik. Ti ritkán...","1","riványlotok","[""riványoztok"",""riványlotok""]","","posttest trial","8",""
"html-button-response","174","1311694","0.0-14.0","6565","<p> Vége a játéknak. A teljes pontszámod 25/54.</p><p> Szép munka! &#128526;&#128526;&#128526;</p><p>A Befejezés gomb megnyomása után bezárhatod a böngészőablakot.</p>","0","","","","","",""
"html-keyboard-response","175","1317208","0.0-15.0","null","<div class=""message"">
         <p>Egy kis türelmet kérünk, amíg elmentjük az adatokat...</p>
         </div>","null","","","","","",""
