"trial_type","trial_index","time_elapsed","internal_node_id","rt","stimulus","response","response_string","choices","esp_response","trial_kind","list_number","esp_match"
"pavlovia","0","839","0.0-0.0","","","","","","","","",""
"html-button-response","1","29031","0.0-1.0","27680","<p>Kedves Résztvevő! A Budapesti Műszaki és Gazdaságtudományi Egyetem Kognitív Tudományi Tanszékének kutatásában való részvételed kérjük. A kutatásban azt vizsgáljuk, hogy a magyar anyanyelvűek hogyan használnak bizonyos szóalakokat, és hogy milyen képük van arról, hogy mások hogyan használják, hogyan képzik a szavakat. Ez hozzásegít bennünket ahhoz, hogy jobban megértsük, hogyan dolgozza fel és tárolja a nyelvet az emberi agy, és hogyan működnek, hogyan változnak egy adott közösség nyelvi konvenciói.</p><p>A vizsgálat egy rövid számítógépes feladatból fog állni. A kutatásban való részvétel önkéntes, a részvételi szándék bármikor visszavonható. A résztvevők eredményeit név nélkül kezeljük, így nem beazonosíthatók az adatok feldolgozása során. Minden személyes adatot az EU általános adatvédelmi rendeletének (GDPR) megfelelően kezelünk és legfeljebb öt éven belül megsemmisítünk. A vizsgálat jellemzően húsz percet vesz igénybe.</p><p>Kutatásvezető:</p><p>Dr. Rácz Péter, tudományos munkatárs, BME KTT</p><p>e-mail: racz.peter.marton@ttk.bme.hu</p>","0","","","","","",""
"html-button-response","2","59917","0.0-2.0","30379","<p>A kísérletben szavakat fogsz látni. Ezek között lesznek olyanok, amelyeket ismersz, de előfordulhatnak olyanok is, amelyeket nem ismersz, sőt, vannak köztük kitalált szavak is. Minden szónál látni fogsz toldalékolt alakokat. A te feladatod az lesz, hogy minden szóhoz kiválaszd azt a toldalékolt alakot, amely a te számodra ismerősebben, természetesebben hangzik. Rossz válaszok nincsenek, mert van olyan, hogy különböző embereknek más és más szó tűnik jobb választásnak. A választ úgy tudod majd kiválasztani, ha rákattintasz.</p><p>Ebben a szóválasztós játékban egy másik játékossal együtt veszel majd részt. A másik játékos is minden esetben azok közül a lehetőségek közül válogathat, mint te. Kettőtök feladata az, hogy ugyanazt a lehetőséget válasszátok minden esetben. Ahhoz, hogy ez sikerüljön, neked figyelned kell arra, hogy a másik játékos milyen válaszokat ad, és ennek alapján meg kell tippelned, hogyan választ legközelebb. Ha eltalálod, akkor pontot kapsz.</p>","0","","","","","",""
"html-button-response","3","102670","0.0-3.0","42235","<p>Kérjük, olvasd el az alábbi nyilatkozatot, és amennyiben egyetértesz vele, nyomj a Beleegyezés gombra!</p><p>Kijelentem, hogy magyar anyanyelvű személyként önként veszek részt a BME KTT kísérletében. A kutatás céljával és folyamatával kapcsolatban elegendő tájékoztatást kaptam, lehetőségem volt kérdések feltételére, és esetleges kérdéseimre megfelelő válaszokat kaptam. A tájékoztatás alapján elegendő mennyiségű információ áll a rendelkezésemre, hogy eldönthessem, részt kívánok-e venni a kutatásban.</p><p>Tisztában vagyok vele, hogy részvételi szándékomat és adataimat bármikor, indoklás nélkül visszavonhatom.</p><p>Értem és tudomásul veszem, hogy a kutatás tudományos célokat szolgál, és az általam szolgáltatott adatokat a BME kizárólag kutatási célból használja fel. Tudomásul veszem, hogy eredményeimet a többi résztvevő eredményeivel együtt kezelik, így egyéni teljesítményemről visszajelzést, szakvéleményt nem kapok.</p><p>Megértettem, hogy adataim kezelését illetően a BME az EU általános adatvédelmi rendelete (GDPR), a hatályos adatvédelmi törvény és a nemzetközi kutatás-etikai alapelvek szerint jár el. Eredményeim anonim módon kerülnek feldolgozásra, és a kutatás résztvevői az azonosításomra alkalmas adataimat harmadik félnek nem szolgáltatják ki. Engedélyezem a BME számára a jelen kutatásban felvett adataim feldolgozását és tárolását, beleértve azok későbbi kutatásokhoz való felhasználását is. Személyes adataim kezelésével kapcsolatban tájékoztatást kérhetek a kutatás résztvevőitől, az adatkezelés ellen tiltakozhatok, kérhetem személyes adataim helyesbítését, törlését vagy zárolását, valamint jogorvoslatért a Nemzeti Adatvédelmi és Információszabadság Hatósághoz fordulhatok.</p><p>Kijelentem, hogy a kutatásban való részvételem körülményeiről részletes tájékoztatást kaptam, és a feltételeket elfogadom.</p>","0","","","","","",""
"survey-text","4","154652","0.0-4.0","51443","","{""Q0"":""EZ3SDP"",""Q1"":"""",""Q2"":""1999"",""Q3"":""12""}","","","","","",""
"html-button-response","5","165342","0.0-5.0","10167","<p>Ebben a játékban szavakat kell toldalékolni.</p> <p>Minden körben mutatunk majd egy példamondatot, amiben lesz egy szó.</p> <p>Alatta jön egy második mondat, ezt a mondatot neked kell majd befejezni, ugyanezzel a szóval.</p> <p>Nem biztos, hogy a szó eleve ismerős lesz számodra!</p> <p>Minden mondathoz adunk két lehetőséget, ezeket balra és jobbra látod majd.</p> <p>A játék kb. negyedóráig-húsz percig tart.</p>","0","","","","","",""
"html-button-response","6","182311","0.0-6.0","16455","<p>Nézzünk egy példát!</p> <p>A példamondat: ""János nagyon szeret rancsúrozni.""</p><p>Neked ezt a mondatot kell befejezned: ""Én is szívesen...""</p><p>A lehetőségek pedig ezek:</p>","0","","","","","",""
"html-button-response","7","188937","0.0-7.0","6110","<p>Nagyon jó.</p><p>Ezt a játékot nem egyedül fogod játszani, hanem egy másik játékossal.</p><p>Mielőtt továbblépünk, összekapcsolunk titeket egymással.</p><p>Ez igénybe vehet néhány másodpercet, amihez szíves türelmed kérjük.</p>","0","","","","","",""
"html-button-response","8","194689","0.0-8.0","null","<p>Csatlakozás a másik játékoshoz...</p>","null","","","","","",""
"html-button-response","9","197219","0.0-9.0","null","<p> Sikeres kapcsolódás!</p>","null","","","","","",""
"html-button-response","10","206993","0.0-10.0","9251","<p>A következőkben ketten játsszátok a szóválasztós játékot.</p><p>A feladatotok az lesz, hogy minden körben <b>ugyanazt</b> a szót válasszátok.</p><p>Minden ilyen egyező válaszért pontot kaptok.</p><p>Próbáld meg kitalálni, mit választ a másik játékos!</p><p>Bármikor választhatsz, a körnek akkor van vége, ha mindketten döntöttetek.</p><p>Sok sikert!</p>","0","","","","","",""
"html-button-response-esp","11","220648","0.0-11.0-0.0","13132","Te bizony sokat flibekszel. Én is sokat...","0","flibekszem","[""flibekszem"",""flibekszek""]","flibekszek","esp trial","10","false"
"html-button-response","12","224175","0.0-11.0-1.0","null","<p>A másik játékos ezt választotta: <b>flibekszek</b>.</p><p>&#10060;</p><p>A válaszaitok <b>nem</b> egyeznek meg.</p>","null","","","","feedback trial","",""
"html-button-response-esp","13","230205","0.0-11.0-0.1","4970","Te bizony sokat gyivádzol. Én is sokat...","0","gyivádzok","[""gyivádzok"",""gyivádzom""]","gyivádzok","esp trial","10","true"
"html-button-response","14","233739","0.0-11.0-1.1","null","<p>A másik játékos ezt választotta: <b>gyivádzok</b>.</p><p>&#x2705;</p><p>A te válaszod és a másik játékos válasza <b>megegyeznek</b>.</p>","null","","","","feedback trial","",""
"html-button-response-esp","15","239769","0.0-11.0-0.2","5212","Te bizony sokat pugoslasz. Én is sokat...","1","pugoslok","[""pugoslom"",""pugoslok""]","pugoslom","esp trial","10","false"
"html-button-response","16","243299","0.0-11.0-1.2","null","<p>A másik játékos ezt választotta: <b>pugoslom</b>.</p><p>&#10060;</p><p>A válaszaitok <b>nem</b> egyeznek meg.</p>","null","","","","feedback trial","",""
"html-button-response-esp","17","249314","0.0-11.0-0.3","3522","Te bizony sokat aglasz. Én is sokat...","1","aglok","[""aglom"",""aglok""]","aglom","esp trial","10","false"
"html-button-response","18","252845","0.0-11.0-1.3","null","<p>A másik játékos ezt választotta: <b>aglom</b>.</p><p>&#10060;</p><p>A válaszaitok <b>nem</b> egyeznek meg.</p>","null","","","","feedback trial","",""
"html-button-response-esp","19","258869","0.0-11.0-0.4","5307","Te bizony sokat fivénylesz. Én is sokat...","1","fivénylem","[""fivénylek"",""fivénylem""]","fivénylem","esp trial","10","true"
"html-button-response","20","262406","0.0-11.0-1.4","null","<p>A másik játékos ezt választotta: <b>fivénylem</b>.</p><p>&#x2705;</p><p>A te válaszod és a másik játékos válasza <b>megegyeznek</b>.</p>","null","","","","feedback trial","",""
"html-button-response-esp","21","268435","0.0-11.0-0.5","3898","Te bizony sokat gerénylesz. Én is sokat...","1","gerénylek","[""gerénylem"",""gerénylek""]","gerénylem","esp trial","10","false"
"html-button-response","22","271965","0.0-11.0-1.5","null","<p>A másik játékos ezt választotta: <b>gerénylem</b>.</p><p>&#10060;</p><p>A válaszaitok <b>nem</b> egyeznek meg.</p>","null","","","","feedback trial","",""
"html-button-response-esp","23","277997","0.0-11.0-0.6","4591","Te bizony sokat sztruglasz. Én is sokat...","0","sztruglom","[""sztruglom"",""sztruglok""]","sztruglom","esp trial","10","true"
"html-button-response","24","281534","0.0-11.0-1.6","null","<p>A másik játékos ezt választotta: <b>sztruglom</b>.</p><p>&#x2705;</p><p>A te válaszod és a másik játékos válasza <b>megegyeznek</b>.</p>","null","","","","feedback trial","",""
"html-button-response-esp","25","287576","0.0-11.0-0.7","4485","Te bizony sokat prezlesz. Én is sokat...","1","prezlem","[""prezlek"",""prezlem""]","prezlem","esp trial","10","true"
"html-button-response","26","291107","0.0-11.0-1.7","null","<p>A másik játékos ezt választotta: <b>prezlem</b>.</p><p>&#x2705;</p><p>A te válaszod és a másik játékos válasza <b>megegyeznek</b>.</p>","null","","","","feedback trial","",""
"html-button-response-esp","27","297137","0.0-11.0-0.8","3087","Te bizony sokat préleglesz. Én is sokat...","1","préleglem","[""préleglek"",""préleglem""]","préleglem","esp trial","10","true"
"html-button-response","28","300673","0.0-11.0-1.8","null","<p>A másik játékos ezt választotta: <b>préleglem</b>.</p><p>&#x2705;</p><p>A te válaszod és a másik játékos válasza <b>megegyeznek</b>.</p>","null","","","","feedback trial","",""
"html-button-response-esp","29","306711","0.0-11.0-0.9","4392","Te bizony sokat bivejlesz. Én is sokat...","1","bivejlem","[""bivejlek"",""bivejlem""]","bivejlem","esp trial","10","true"
"html-button-response","30","310249","0.0-11.0-1.9","null","<p>A másik játékos ezt választotta: <b>bivejlem</b>.</p><p>&#x2705;</p><p>A te válaszod és a másik játékos válasza <b>megegyeznek</b>.</p>","null","","","","feedback trial","",""
"html-button-response-esp","31","316276","0.0-11.0-0.10","2448","Te bizony sokat fligzol. Én is sokat...","1","fligzom","[""fligzok"",""fligzom""]","fligzok","esp trial","10","false"
"html-button-response","32","319799","0.0-11.0-1.10","null","<p>A másik játékos ezt választotta: <b>fligzok</b>.</p><p>&#10060;</p><p>A válaszaitok <b>nem</b> egyeznek meg.</p>","null","","","","feedback trial","",""
"html-button-response-esp","33","325828","0.0-11.0-0.11","4426","Te bizony sokat spülőrzöl. Én is sokat...","0","spülőrzöm","[""spülőrzöm"",""spülőrzök""]","spülőrzöm","esp trial","10","true"
"html-button-response","34","329350","0.0-11.0-1.11","null","<p>A másik játékos ezt választotta: <b>spülőrzöm</b>.</p><p>&#x2705;</p><p>A te válaszod és a másik játékos válasza <b>megegyeznek</b>.</p>","null","","","","feedback trial","",""
"html-button-response-esp","35","335379","0.0-11.0-0.12","4877","Te bizony sokat lihadzol. Én is sokat...","0","lihadzok","[""lihadzok"",""lihadzom""]","lihadzom","esp trial","10","false"
"html-button-response","36","338913","0.0-11.0-1.12","null","<p>A másik játékos ezt választotta: <b>lihadzom</b>.</p><p>&#10060;</p><p>A válaszaitok <b>nem</b> egyeznek meg.</p>","null","","","","feedback trial","",""
"html-button-response-esp","37","344952","0.0-11.0-0.13","2005","Te bizony sokat praslasz. Én is sokat...","0","praslom","[""praslom"",""praslok""]","praslom","esp trial","10","true"
"html-button-response","38","348483","0.0-11.0-1.13","null","<p>A másik játékos ezt választotta: <b>praslom</b>.</p><p>&#x2705;</p><p>A te válaszod és a másik játékos válasza <b>megegyeznek</b>.</p>","null","","","","feedback trial","",""
"html-button-response-esp","39","354500","0.0-11.0-0.14","4084","Te bizony sokat livaklasz. Én is sokat...","1","livaklom","[""livaklok"",""livaklom""]","livaklok","esp trial","10","false"
"html-button-response","40","358035","0.0-11.0-1.14","null","<p>A másik játékos ezt választotta: <b>livaklok</b>.</p><p>&#10060;</p><p>A válaszaitok <b>nem</b> egyeznek meg.</p>","null","","","","feedback trial","",""
"html-button-response-esp","41","364063","0.0-11.0-0.15","3246","Te bizony sokat zödlesz. Én is sokat...","0","zödlök","[""zödlök"",""zödlöm""]","zödlöm","esp trial","10","false"
"html-button-response","42","367594","0.0-11.0-1.15","null","<p>A másik játékos ezt választotta: <b>zödlöm</b>.</p><p>&#10060;</p><p>A válaszaitok <b>nem</b> egyeznek meg.</p>","null","","","","feedback trial","",""
"html-button-response-esp","43","373623","0.0-11.0-0.16","4088","Te bizony sokat spüszlesz. Én is sokat...","1","spüszlöm","[""spüszlök"",""spüszlöm""]","spüszlöm","esp trial","10","true"
"html-button-response","44","377160","0.0-11.0-1.16","null","<p>A másik játékos ezt választotta: <b>spüszlöm</b>.</p><p>&#x2705;</p><p>A te válaszod és a másik játékos válasza <b>megegyeznek</b>.</p>","null","","","","feedback trial","",""
"html-button-response-esp","45","383642","0.0-11.0-0.17","5962","Te bizony sokat prihekszel. Én is sokat...","0","prihekszem","[""prihekszem"",""prihekszek""]","prihekszem","esp trial","10","true"
"html-button-response","46","387176","0.0-11.0-1.17","null","<p>A másik játékos ezt választotta: <b>prihekszem</b>.</p><p>&#x2705;</p><p>A te válaszod és a másik játékos válasza <b>megegyeznek</b>.</p>","null","","","","feedback trial","",""
"html-button-response-esp","47","393747","0.0-11.0-0.18","6048","Te bizony sokat flözlesz. Én is sokat...","0","flözlök","[""flözlök"",""flözlöm""]","flözlöm","esp trial","10","false"
"html-button-response","48","397279","0.0-11.0-1.18","null","<p>A másik játékos ezt választotta: <b>flözlöm</b>.</p><p>&#10060;</p><p>A válaszaitok <b>nem</b> egyeznek meg.</p>","null","","","","feedback trial","",""
"html-button-response-esp","49","405275","0.0-11.0-0.19","7473","Te bizony sokat drügzöl. Én is sokat...","0","drügzöm","[""drügzöm"",""drügzök""]","drügzöm","esp trial","10","true"
"html-button-response","50","408806","0.0-11.0-1.19","null","<p>A másik játékos ezt választotta: <b>drügzöm</b>.</p><p>&#x2705;</p><p>A te válaszod és a másik játékos válasza <b>megegyeznek</b>.</p>","null","","","","feedback trial","",""
"html-button-response-esp","51","414840","0.0-11.0-0.20","3140","Te bizony sokat spatszol. Én is sokat...","1","spatszom","[""spatszok"",""spatszom""]","spatszok","esp trial","10","false"
"html-button-response","52","418385","0.0-11.0-1.20","null","<p>A másik játékos ezt választotta: <b>spatszok</b>.</p><p>&#10060;</p><p>A válaszaitok <b>nem</b> egyeznek meg.</p>","null","","","","feedback trial","",""
"html-button-response-esp","53","424423","0.0-11.0-0.21","2627","Te bizony sokat huklasz. Én is sokat...","1","huklok","[""huklom"",""huklok""]","huklom","esp trial","10","false"
"html-button-response","54","427954","0.0-11.0-1.21","null","<p>A másik játékos ezt választotta: <b>huklom</b>.</p><p>&#10060;</p><p>A válaszaitok <b>nem</b> egyeznek meg.</p>","null","","","","feedback trial","",""
"html-button-response-esp","55","433990","0.0-11.0-0.22","5172","Te bizony sokat csólorzol. Én is sokat...","0","csólorzom","[""csólorzom"",""csólorzok""]","csólorzok","esp trial","10","false"
"html-button-response","56","437521","0.0-11.0-1.22","null","<p>A másik játékos ezt választotta: <b>csólorzok</b>.</p><p>&#10060;</p><p>A válaszaitok <b>nem</b> egyeznek meg.</p>","null","","","","feedback trial","",""
"html-button-response-esp","57","443531","0.0-11.0-0.23","3936","Te bizony sokat táklasz. Én is sokat...","0","táklok","[""táklok"",""táklom""]","táklok","esp trial","10","true"
"html-button-response","58","447073","0.0-11.0-1.23","null","<p>A másik játékos ezt választotta: <b>táklok</b>.</p><p>&#x2705;</p><p>A te válaszod és a másik játékos válasza <b>megegyeznek</b>.</p>","null","","","","feedback trial","",""
"html-button-response-esp","59","453110","0.0-11.0-0.24","2946","Te bizony sokat friszlasz. Én is sokat...","0","friszlom","[""friszlom"",""friszlok""]","friszlom","esp trial","10","true"
"html-button-response","60","456637","0.0-11.0-1.24","null","<p>A másik játékos ezt választotta: <b>friszlom</b>.</p><p>&#x2705;</p><p>A te válaszod és a másik játékos válasza <b>megegyeznek</b>.</p>","null","","","","feedback trial","",""
"html-button-response-esp","61","467457","0.0-11.0-0.25","10302","Te bizony sokat brarlasz. Én is sokat...","0","brarlok","[""brarlok"",""brarlom""]","brarlom","esp trial","10","false"
"html-button-response","62","470990","0.0-11.0-1.25","null","<p>A másik játékos ezt választotta: <b>brarlom</b>.</p><p>&#10060;</p><p>A válaszaitok <b>nem</b> egyeznek meg.</p>","null","","","","feedback trial","",""
"html-button-response-esp","63","477023","0.0-11.0-0.26","4110","Te bizony sokat péleslesz. Én is sokat...","1","péleslek","[""péleslem"",""péleslek""]","péleslem","esp trial","10","false"
"html-button-response","64","480555","0.0-11.0-1.26","null","<p>A másik játékos ezt választotta: <b>péleslem</b>.</p><p>&#10060;</p><p>A válaszaitok <b>nem</b> egyeznek meg.</p>","null","","","","feedback trial","",""
"html-button-response-esp","65","486590","0.0-11.0-0.27","2690","Te bizony sokat gilárzol. Én is sokat...","0","gilárzom","[""gilárzom"",""gilárzok""]","gilárzok","esp trial","10","false"
"html-button-response","66","490105","0.0-11.0-1.27","null","<p>A másik játékos ezt választotta: <b>gilárzok</b>.</p><p>&#10060;</p><p>A válaszaitok <b>nem</b> egyeznek meg.</p>","null","","","","feedback trial","",""
"html-button-response-esp","67","496145","0.0-11.0-0.28","3284","Te bizony sokat sprédlesz. Én is sokat...","0","sprédlek","[""sprédlek"",""sprédlem""]","sprédlem","esp trial","10","false"
"html-button-response","68","499679","0.0-11.0-1.28","null","<p>A másik játékos ezt választotta: <b>sprédlem</b>.</p><p>&#10060;</p><p>A válaszaitok <b>nem</b> egyeznek meg.</p>","null","","","","feedback trial","",""
"html-button-response-esp","69","505705","0.0-11.0-0.29","2926","Te bizony sokat szűslesz. Én is sokat...","1","szűslöm","[""szűslök"",""szűslöm""]","szűslöm","esp trial","10","true"
"html-button-response","70","509232","0.0-11.0-1.29","null","<p>A másik játékos ezt választotta: <b>szűslöm</b>.</p><p>&#x2705;</p><p>A te válaszod és a másik játékos válasza <b>megegyeznek</b>.</p>","null","","","","feedback trial","",""
"html-button-response-esp","71","515257","0.0-11.0-0.30","3077","Te bizony sokat féjzel. Én is sokat...","0","féjzem","[""féjzem"",""féjzek""]","féjzem","esp trial","10","true"
"html-button-response","72","518790","0.0-11.0-1.30","null","<p>A másik játékos ezt választotta: <b>féjzem</b>.</p><p>&#x2705;</p><p>A te válaszod és a másik játékos válasza <b>megegyeznek</b>.</p>","null","","","","feedback trial","",""
"html-button-response-esp","73","524814","0.0-11.0-0.31","3184","Te bizony sokat gyibakszol. Én is sokat...","0","gyibakszom","[""gyibakszom"",""gyibakszok""]","gyibakszok","esp trial","10","false"
"html-button-response","74","528329","0.0-11.0-1.31","null","<p>A másik játékos ezt választotta: <b>gyibakszok</b>.</p><p>&#10060;</p><p>A válaszaitok <b>nem</b> egyeznek meg.</p>","null","","","","feedback trial","",""
"html-button-response-esp","75","534360","0.0-11.0-0.32","3466","Te bizony sokat vűjlesz. Én is sokat...","1","vűjlök","[""vűjlöm"",""vűjlök""]","vűjlöm","esp trial","10","false"
"html-button-response","76","537891","0.0-11.0-1.32","null","<p>A másik játékos ezt választotta: <b>vűjlöm</b>.</p><p>&#10060;</p><p>A válaszaitok <b>nem</b> egyeznek meg.</p>","null","","","","feedback trial","",""
"html-button-response-esp","77","543915","0.0-11.0-0.33","1994","Te bizony sokat spibádzol. Én is sokat...","1","spibádzom","[""spibádzok"",""spibádzom""]","spibádzom","esp trial","10","true"
"html-button-response","78","547465","0.0-11.0-1.33","null","<p>A másik játékos ezt választotta: <b>spibádzom</b>.</p><p>&#x2705;</p><p>A te válaszod és a másik játékos válasza <b>megegyeznek</b>.</p>","null","","","","feedback trial","",""
"html-button-response-esp","79","553503","0.0-11.0-0.34","2001","Te bizony sokat kumlasz. Én is sokat...","1","kumlom","[""kumlok"",""kumlom""]","kumlom","esp trial","10","true"
"html-button-response","80","557041","0.0-11.0-1.34","null","<p>A másik játékos ezt választotta: <b>kumlom</b>.</p><p>&#x2705;</p><p>A te válaszod és a másik játékos válasza <b>megegyeznek</b>.</p>","null","","","","feedback trial","",""
"html-button-response-esp","81","563075","0.0-11.0-0.35","2917","Te bizony sokat vihepszel. Én is sokat...","0","vihepszem","[""vihepszem"",""vihepszek""]","vihepszek","esp trial","10","false"
"html-button-response","82","566605","0.0-11.0-1.35","null","<p>A másik játékos ezt választotta: <b>vihepszek</b>.</p><p>&#10060;</p><p>A válaszaitok <b>nem</b> egyeznek meg.</p>","null","","","","feedback trial","",""
"html-button-response-esp","83","572635","0.0-11.0-0.36","4694","Te bizony sokat spülöklesz. Én is sokat...","1","spülöklöm","[""spülöklök"",""spülöklöm""]","spülöklöm","esp trial","10","true"
"html-button-response","84","576168","0.0-11.0-1.36","null","<p>A másik játékos ezt választotta: <b>spülöklöm</b>.</p><p>&#x2705;</p><p>A te válaszod és a másik játékos válasza <b>megegyeznek</b>.</p>","null","","","","feedback trial","",""
"html-button-response-esp","85","582199","0.0-11.0-0.37","4594","Te bizony sokat sprálszol. Én is sokat...","1","sprálszom","[""sprálszok"",""sprálszom""]","sprálszok","esp trial","10","false"
"html-button-response","86","585733","0.0-11.0-1.37","null","<p>A másik játékos ezt választotta: <b>sprálszok</b>.</p><p>&#10060;</p><p>A válaszaitok <b>nem</b> egyeznek meg.</p>","null","","","","feedback trial","",""
"html-button-response-esp","87","591762","0.0-11.0-0.38","3183","Te bizony sokat klidlasz. Én is sokat...","0","klidlok","[""klidlok"",""klidlom""]","klidlom","esp trial","10","false"
"html-button-response","88","595296","0.0-11.0-1.38","null","<p>A másik játékos ezt választotta: <b>klidlom</b>.</p><p>&#10060;</p><p>A válaszaitok <b>nem</b> egyeznek meg.</p>","null","","","","feedback trial","",""
"html-button-response-esp","89","601340","0.0-11.0-0.39","3085","Te bizony sokat frágapszol. Én is sokat...","0","frágapszom","[""frágapszom"",""frágapszok""]","frágapszok","esp trial","10","false"
"html-button-response","90","604869","0.0-11.0-1.39","null","<p>A másik játékos ezt választotta: <b>frágapszok</b>.</p><p>&#10060;</p><p>A válaszaitok <b>nem</b> egyeznek meg.</p>","null","","","","feedback trial","",""
"html-button-response-esp","91","610906","0.0-11.0-0.40","4358","Te bizony sokat plövőrzöl. Én is sokat...","1","plövőrzöm","[""plövőrzök"",""plövőrzöm""]","plövőrzöm","esp trial","10","true"
"html-button-response","92","614423","0.0-11.0-1.40","null","<p>A másik játékos ezt választotta: <b>plövőrzöm</b>.</p><p>&#x2705;</p><p>A te válaszod és a másik játékos válasza <b>megegyeznek</b>.</p>","null","","","","feedback trial","",""
"html-button-response-esp","93","620458","0.0-11.0-0.41","3733","Te bizony sokat spírzol. Én is sokat...","1","spírzom","[""spírzok"",""spírzom""]","spírzom","esp trial","10","true"
"html-button-response","94","623979","0.0-11.0-1.41","null","<p>A másik játékos ezt választotta: <b>spírzom</b>.</p><p>&#x2705;</p><p>A te válaszod és a másik játékos válasza <b>megegyeznek</b>.</p>","null","","","","feedback trial","",""
"html-button-response-esp","95","630012","0.0-11.0-0.42","4196","Te bizony sokat prohódzol. Én is sokat...","1","prohódzok","[""prohódzom"",""prohódzok""]","prohódzok","esp trial","10","true"
"html-button-response","96","633543","0.0-11.0-1.42","null","<p>A másik játékos ezt választotta: <b>prohódzok</b>.</p><p>&#x2705;</p><p>A te válaszod és a másik játékos válasza <b>megegyeznek</b>.</p>","null","","","","feedback trial","",""
"html-button-response-esp","97","639570","0.0-11.0-0.43","5093","Te bizony sokat spélszel. Én is sokat...","1","spélszek","[""spélszem"",""spélszek""]","spélszem","esp trial","10","false"
"html-button-response","98","643115","0.0-11.0-1.43","null","<p>A másik játékos ezt választotta: <b>spélszem</b>.</p><p>&#10060;</p><p>A válaszaitok <b>nem</b> egyeznek meg.</p>","null","","","","feedback trial","",""
"html-button-response-esp","99","649141","0.0-11.0-0.44","4308","Te bizony sokat klárzol. Én is sokat...","0","klárzom","[""klárzom"",""klárzok""]","klárzom","esp trial","10","true"
"html-button-response","100","652664","0.0-11.0-1.44","null","<p>A másik játékos ezt választotta: <b>klárzom</b>.</p><p>&#x2705;</p><p>A te válaszod és a másik játékos válasza <b>megegyeznek</b>.</p>","null","","","","feedback trial","",""
"html-button-response-esp","101","658685","0.0-11.0-0.45","4077","Te bizony sokat flérlesz. Én is sokat...","1","flérlek","[""flérlem"",""flérlek""]","flérlem","esp trial","10","false"
"html-button-response","102","662215","0.0-11.0-1.45","null","<p>A másik játékos ezt választotta: <b>flérlem</b>.</p><p>&#10060;</p><p>A válaszaitok <b>nem</b> egyeznek meg.</p>","null","","","","feedback trial","",""
"html-button-response-esp","103","668245","0.0-11.0-0.46","2434","Te bizony sokat floglasz. Én is sokat...","1","floglom","[""floglok"",""floglom""]","floglom","esp trial","10","true"
"html-button-response","104","671784","0.0-11.0-1.46","null","<p>A másik játékos ezt választotta: <b>floglom</b>.</p><p>&#x2705;</p><p>A te válaszod és a másik játékos válasza <b>megegyeznek</b>.</p>","null","","","","feedback trial","",""
"html-button-response-esp","105","677816","0.0-11.0-0.47","2919","Te bizony sokat tuboklasz. Én is sokat...","1","tuboklom","[""tuboklok"",""tuboklom""]","tuboklom","esp trial","10","true"
"html-button-response","106","681351","0.0-11.0-1.47","null","<p>A másik játékos ezt választotta: <b>tuboklom</b>.</p><p>&#x2705;</p><p>A te válaszod és a másik játékos válasza <b>megegyeznek</b>.</p>","null","","","","feedback trial","",""
"html-button-response-esp","107","687382","0.0-11.0-0.48","2363","Te bizony sokat trihagzol. Én is sokat...","1","trihagzom","[""trihagzok"",""trihagzom""]","trihagzok","esp trial","10","false"
"html-button-response","108","690919","0.0-11.0-1.48","null","<p>A másik játékos ezt választotta: <b>trihagzok</b>.</p><p>&#10060;</p><p>A válaszaitok <b>nem</b> egyeznek meg.</p>","null","","","","feedback trial","",""
"html-button-response-esp","109","696962","0.0-11.0-0.49","3167","Te bizony sokat fliraklasz. Én is sokat...","1","fliraklom","[""fliraklok"",""fliraklom""]","fliraklom","esp trial","10","true"
"html-button-response","110","700499","0.0-11.0-1.49","null","<p>A másik játékos ezt választotta: <b>fliraklom</b>.</p><p>&#x2705;</p><p>A te válaszod és a másik játékos válasza <b>megegyeznek</b>.</p>","null","","","","feedback trial","",""
"html-button-response-esp","111","706527","0.0-11.0-0.50","2833","Te bizony sokat ibáglasz. Én is sokat...","0","ibáglom","[""ibáglom"",""ibáglok""]","ibáglom","esp trial","10","true"
"html-button-response","112","710057","0.0-11.0-1.50","null","<p>A másik játékos ezt választotta: <b>ibáglom</b>.</p><p>&#x2705;</p><p>A te válaszod és a másik játékos válasza <b>megegyeznek</b>.</p>","null","","","","feedback trial","",""
"html-button-response-esp","113","716085","0.0-11.0-0.51","3087","Te bizony sokat plágadzol. Én is sokat...","1","plágadzom","[""plágadzok"",""plágadzom""]","plágadzok","esp trial","10","false"
"html-button-response","114","719619","0.0-11.0-1.51","null","<p>A másik játékos ezt választotta: <b>plágadzok</b>.</p><p>&#10060;</p><p>A válaszaitok <b>nem</b> egyeznek meg.</p>","null","","","","feedback trial","",""
"html-button-response-esp","115","725642","0.0-11.0-0.52","2931","Te bizony sokat frivajlasz. Én is sokat...","1","frivajlom","[""frivajlok"",""frivajlom""]","frivajlom","esp trial","10","true"
"html-button-response","116","729172","0.0-11.0-1.52","null","<p>A másik játékos ezt választotta: <b>frivajlom</b>.</p><p>&#x2705;</p><p>A te válaszod és a másik játékos válasza <b>megegyeznek</b>.</p>","null","","","","feedback trial","",""
"html-button-response-esp","117","735183","0.0-11.0-0.53","4301","Te bizony sokat mékszel. Én is sokat...","0","mékszem","[""mékszem"",""mékszek""]","mékszem","esp trial","10","true"
"html-button-response","118","738705","0.0-11.0-1.53","null","<p>A másik játékos ezt választotta: <b>mékszem</b>.</p><p>&#x2705;</p><p>A te válaszod és a másik játékos válasza <b>megegyeznek</b>.</p>","null","","","","feedback trial","",""
"html-button-response","119","746067","0.0-12.0","6850","<p>A közös játék most véget ért.</p><p>Mielőtt eláruljuk a végső pontszámodat, arra kérlek, játszd a szóválasztós játékot néhány percig egyedül is.</p><p>A feladatod ugyanaz lesz, választani két lehetőség közül.</p><p>Most viszont egyedül kell döntened, hogy te melyiket választanád.</p>","0","","","","","",""
"html-button-response-clever","120","750678","0.0-13.0-0.0","4092","Te bizony sokat böjzöl. Én is sokat...","1","böjzök","[""böjzöm"",""böjzök""]","","posttest trial","1",""
"html-button-response-clever","121","755266","0.0-13.0-0.1","4064","Te bizony sokat flagánylasz. Én is sokat...","1","flagánylom","[""flagánylok"",""flagánylom""]","","posttest trial","1",""
"html-button-response-clever","122","759657","0.0-13.0-0.2","3873","Te bizony sokat ribzol. Én is sokat...","1","ribzom","[""ribzok"",""ribzom""]","","posttest trial","1",""
"html-button-response-clever","123","762849","0.0-13.0-0.3","2675","Te bizony sokat siladzol. Én is sokat...","1","siladzok","[""siladzom"",""siladzok""]","","posttest trial","1",""
"html-button-response-clever","124","767008","0.0-13.0-0.4","3635","Te bizony sokat büglesz. Én is sokat...","0","büglök","[""büglök"",""büglöm""]","","posttest trial","1",""
"html-button-response-clever","125","771654","0.0-13.0-0.5","4128","Te bizony sokat herégszel. Én is sokat...","1","herégszem","[""herégszek"",""herégszem""]","","posttest trial","1",""
"html-button-response-clever","126","777763","0.0-13.0-0.6","5592","Te bizony sokat szirlasz. Én is sokat...","0","szirlok","[""szirlok"",""szirlom""]","","posttest trial","1",""
"html-button-response-clever","127","781434","0.0-13.0-0.7","3146","Te bizony sokat bölszöl. Én is sokat...","1","bölszöm","[""bölszök"",""bölszöm""]","","posttest trial","1",""
"html-button-response-clever","128","785762","0.0-13.0-0.8","3812","Te bizony sokat sprogzol. Én is sokat...","1","sprogzom","[""sprogzok"",""sprogzom""]","","posttest trial","1",""
"html-button-response-clever","129","790037","0.0-13.0-0.9","3757","Te bizony sokat spűmlesz. Én is sokat...","0","spűmlök","[""spűmlök"",""spűmlöm""]","","posttest trial","1",""
"html-button-response-clever","130","793579","0.0-13.0-0.10","3036","Te bizony sokat sűzlesz. Én is sokat...","1","sűzlöm","[""sűzlök"",""sűzlöm""]","","posttest trial","1",""
"html-button-response-clever","131","796959","0.0-13.0-0.11","2859","Te bizony sokat prilegzel. Én is sokat...","0","prilegzem","[""prilegzem"",""prilegzek""]","","posttest trial","1",""
"html-button-response-clever","132","801285","0.0-13.0-0.12","3809","Te bizony sokat tiregzel. Én is sokat...","0","tiregzem","[""tiregzem"",""tiregzek""]","","posttest trial","1",""
"html-button-response-clever","133","805704","0.0-13.0-0.13","3901","Te bizony sokat driládzol. Én is sokat...","0","driládzok","[""driládzok"",""driládzom""]","","posttest trial","1",""
"html-button-response-clever","134","809455","0.0-13.0-0.14","3234","Te bizony sokat trilszol. Én is sokat...","1","trilszom","[""trilszok"",""trilszom""]","","posttest trial","1",""
"html-button-response-clever","135","814992","0.0-13.0-0.15","5031","Te bizony sokat hilarzol. Én is sokat...","1","hilarzom","[""hilarzok"",""hilarzom""]","","posttest trial","1",""
"html-button-response-clever","136","818596","0.0-13.0-0.16","3088","Te bizony sokat narjárzol. Én is sokat...","0","narjárzom","[""narjárzom"",""narjárzok""]","","posttest trial","1",""
"html-button-response-clever","137","822618","0.0-13.0-0.17","3516","Te bizony sokat flagárzol. Én is sokat...","1","flagárzok","[""flagárzom"",""flagárzok""]","","posttest trial","1",""
"html-button-response-clever","138","827817","0.0-13.0-0.18","4687","Te bizony sokat fibamlasz. Én is sokat...","0","fibamlok","[""fibamlok"",""fibamlom""]","","posttest trial","1",""
"html-button-response-clever","139","832332","0.0-13.0-0.19","3994","Te bizony sokat flűröklesz. Én is sokat...","1","flűröklöm","[""flűröklök"",""flűröklöm""]","","posttest trial","1",""
"html-button-response-clever","140","835888","0.0-13.0-0.20","3038","Te bizony sokat feténylesz. Én is sokat...","1","feténylek","[""feténylem"",""feténylek""]","","posttest trial","1",""
"html-button-response-clever","141","838821","0.0-13.0-0.21","2427","Te bizony sokat sojzol. Én is sokat...","1","sojzom","[""sojzok"",""sojzom""]","","posttest trial","1",""
"html-button-response-clever","142","843833","0.0-13.0-0.22","4506","Te bizony sokat lorjódzol. Én is sokat...","1","lorjódzok","[""lorjódzom"",""lorjódzok""]","","posttest trial","1",""
"html-button-response-clever","143","849143","0.0-13.0-0.23","4792","Te bizony sokat spibaklasz. Én is sokat...","1","spibaklom","[""spibaklok"",""spibaklom""]","","posttest trial","1",""
"html-button-response-clever","144","852603","0.0-13.0-0.24","2942","Te bizony sokat brüjlesz. Én is sokat...","1","brüjlök","[""brüjlöm"",""brüjlök""]","","posttest trial","1",""
"html-button-response-clever","145","855593","0.0-13.0-0.25","2475","Te bizony sokat drubódzol. Én is sokat...","1","drubódzom","[""drubódzok"",""drubódzom""]","","posttest trial","1",""
"html-button-response-clever","146","860973","0.0-13.0-0.26","4863","Te bizony sokat pratánylasz. Én is sokat...","0","pratánylok","[""pratánylok"",""pratánylom""]","","posttest trial","1",""
"html-button-response-clever","147","864867","0.0-13.0-0.27","3387","Te bizony sokat sztremlesz. Én is sokat...","1","sztremlek","[""sztremlem"",""sztremlek""]","","posttest trial","1",""
"html-button-response-clever","148","868739","0.0-13.0-0.28","3355","Te bizony sokat femlesz. Én is sokat...","1","femlek","[""femlem"",""femlek""]","","posttest trial","1",""
"html-button-response-clever","149","873064","0.0-13.0-0.29","3803","Te bizony sokat pebzel. Én is sokat...","0","pebzem","[""pebzem"",""pebzek""]","","posttest trial","1",""
"html-button-response-clever","150","876652","0.0-13.0-0.30","3070","Te bizony sokat ruslasz. Én is sokat...","0","ruslom","[""ruslom"",""ruslok""]","","posttest trial","1",""
"html-button-response-clever","151","880514","0.0-13.0-0.31","3345","Te bizony sokat brágaklasz. Én is sokat...","0","brágaklom","[""brágaklom"",""brágaklok""]","","posttest trial","1",""
"html-button-response-clever","152","884051","0.0-13.0-0.32","3014","Te bizony sokat spatárzol. Én is sokat...","1","spatárzok","[""spatárzom"",""spatárzok""]","","posttest trial","1",""
"html-button-response-clever","153","888451","0.0-13.0-0.33","3879","Te bizony sokat vilakszol. Én is sokat...","0","vilakszom","[""vilakszom"",""vilakszok""]","","posttest trial","1",""
"html-button-response-clever","154","891959","0.0-13.0-0.34","2998","Te bizony sokat piragszol. Én is sokat...","0","piragszom","[""piragszom"",""piragszok""]","","posttest trial","1",""
"html-button-response-clever","155","894926","0.0-13.0-0.35","2451","Te bizony sokat tomlasz. Én is sokat...","0","tomlok","[""tomlok"",""tomlom""]","","posttest trial","1",""
"html-button-response-clever","156","898319","0.0-13.0-0.36","2887","Te bizony sokat csíszlasz. Én is sokat...","1","csíszlok","[""csíszlom"",""csíszlok""]","","posttest trial","1",""
"html-button-response-clever","157","901773","0.0-13.0-0.37","2936","Te bizony sokat frilegszel. Én is sokat...","0","frilegszem","[""frilegszem"",""frilegszek""]","","posttest trial","1",""
"html-button-response-clever","158","904487","0.0-13.0-0.38","2198","Te bizony sokat ribegzel. Én is sokat...","0","ribegzem","[""ribegzem"",""ribegzek""]","","posttest trial","1",""
"html-button-response-clever","159","907569","0.0-13.0-0.39","2568","Te bizony sokat sprökszöl. Én is sokat...","0","sprökszöm","[""sprökszöm"",""sprökszök""]","","posttest trial","1",""
"html-button-response-clever","160","910524","0.0-13.0-0.40","2436","Te bizony sokat marzol. Én is sokat...","1","marzok","[""marzom"",""marzok""]","","posttest trial","1",""
"html-button-response-clever","161","915136","0.0-13.0-0.41","4090","Te bizony sokat málapszol. Én is sokat...","1","málapszok","[""málapszom"",""málapszok""]","","posttest trial","1",""
"html-button-response-clever","162","919587","0.0-13.0-0.42","3934","Te bizony sokat tínylasz. Én is sokat...","1","tínylom","[""tínylok"",""tínylom""]","","posttest trial","1",""
"html-button-response-clever","163","922962","0.0-13.0-0.43","2854","Te bizony sokat pivegszel. Én is sokat...","1","pivegszem","[""pivegszek"",""pivegszem""]","","posttest trial","1",""
"html-button-response-clever","164","925970","0.0-13.0-0.44","2491","Te bizony sokat prűrlesz. Én is sokat...","0","prűrlök","[""prűrlök"",""prűrlöm""]","","posttest trial","1",""
"html-button-response-clever","165","929235","0.0-13.0-0.45","2741","Te bizony sokat juszlasz. Én is sokat...","1","juszlok","[""juszlom"",""juszlok""]","","posttest trial","1",""
"html-button-response-clever","166","932992","0.0-13.0-0.46","3239","Te bizony sokat spilágzol. Én is sokat...","1","spilágzok","[""spilágzom"",""spilágzok""]","","posttest trial","1",""
"html-button-response-clever","167","936844","0.0-13.0-0.47","3336","Te bizony sokat klörlesz. Én is sokat...","0","klörlök","[""klörlök"",""klörlöm""]","","posttest trial","1",""
"html-button-response-clever","168","939658","0.0-13.0-0.48","2294","Te bizony sokat fretszel. Én is sokat...","0","fretszem","[""fretszem"",""fretszek""]","","posttest trial","1",""
"html-button-response-clever","169","942547","0.0-13.0-0.49","2367","Te bizony sokat nyáslasz. Én is sokat...","1","nyáslom","[""nyáslok"",""nyáslom""]","","posttest trial","1",""
"html-button-response-clever","170","949638","0.0-13.0-0.50","6575","Te bizony sokat klibamlasz. Én is sokat...","1","klibamlok","[""klibamlom"",""klibamlok""]","","posttest trial","1",""
"html-button-response-clever","171","952834","0.0-13.0-0.51","2689","Te bizony sokat jüslesz. Én is sokat...","0","jüslök","[""jüslök"",""jüslöm""]","","posttest trial","1",""
"html-button-response-clever","172","956020","0.0-13.0-0.52","2662","Te bizony sokat flüröslesz. Én is sokat...","0","flüröslöm","[""flüröslöm"",""flüröslök""]","","posttest trial","1",""
"html-button-response-clever","173","959811","0.0-13.0-0.53","3271","Te bizony sokat spéslesz. Én is sokat...","0","spéslek","[""spéslek"",""spéslem""]","","posttest trial","1",""
"html-button-response","174","967310","0.0-14.0","6981","<p> Vége a játéknak. A teljes pontszámod 28/54.</p><p> Szép munka! &#128526;&#128526;&#128526;</p><p>A Befejezés gomb megnyomása után bezárhatod a böngészőablakot.</p>","0","","","","","",""
"html-keyboard-response","175","972822","0.0-15.0","null","<div class=""message"">
         <p>Egy kis türelmet kérünk, amíg elmentjük az adatokat...</p>
         </div>","null","","","","","",""
