"trial_type","trial_index","time_elapsed","internal_node_id","rt","stimulus","response","response_string","choices","esp_response","trial_kind","list_number","esp_match"
"pavlovia","0","687","0.0-0.0","","","","","","","","",""
"html-button-response","1","33619","0.0-1.0","32425","<p>Kedves Résztvevő! A Budapesti Műszaki és Gazdaságtudományi Egyetem Kognitív Tudományi Tanszékének kutatásában való részvételed kérjük. A kutatásban azt vizsgáljuk, hogy a magyar anyanyelvűek hogyan használnak bizonyos szóalakokat, és hogy milyen képük van arról, hogy mások hogyan használják, hogyan képzik a szavakat. Ez hozzásegít bennünket ahhoz, hogy jobban megértsük, hogyan dolgozza fel és tárolja a nyelvet az emberi agy, és hogyan működnek, hogyan változnak egy adott közösség nyelvi konvenciói.</p><p>A vizsgálat egy rövid számítógépes feladatból fog állni. A kutatásban való részvétel önkéntes, a részvételi szándék bármikor visszavonható. A résztvevők eredményeit név nélkül kezeljük, így nem beazonosíthatók az adatok feldolgozása során. Minden személyes adatot az EU általános adatvédelmi rendeletének (GDPR) megfelelően kezelünk és legfeljebb öt éven belül megsemmisítünk. A vizsgálat jellemzően húsz percet vesz igénybe.</p><p>Kutatásvezető:</p><p>Dr. Rácz Péter, tudományos munkatárs, BME KTT</p><p>e-mail: racz.peter.marton@ttk.bme.hu</p>","0","","","","","",""
"html-button-response","2","92978","0.0-2.0","58856","<p>A kísérletben szavakat fogsz látni. Ezek között lesznek olyanok, amelyeket ismersz, de előfordulhatnak olyanok is, amelyeket nem ismersz, sőt, vannak köztük kitalált szavak is. Minden szónál látni fogsz toldalékolt alakokat. A te feladatod az lesz, hogy minden szóhoz kiválaszd azt a toldalékolt alakot, amely a te számodra ismerősebben, természetesebben hangzik. Rossz válaszok nincsenek, mert van olyan, hogy különböző embereknek más és más szó tűnik jobb választásnak. A választ úgy tudod majd kiválasztani, ha rákattintasz.</p><p>Ebben a szóválasztós játékban egy másik játékossal együtt veszel majd részt. A másik játékos is minden esetben azok közül a lehetőségek közül válogathat, mint te. Kettőtök feladata az, hogy ugyanazt a lehetőséget válasszátok minden esetben. Ahhoz, hogy ez sikerüljön, neked figyelned kell arra, hogy a másik játékos milyen válaszokat ad, és ennek alapján meg kell tippelned, hogyan választ legközelebb. Ha eltalálod, akkor pontot kapsz.</p>","0","","","","","",""
"html-button-response","3","115842","0.0-3.0","22353","<p>Kérjük, olvasd el az alábbi nyilatkozatot, és amennyiben egyetértesz vele, nyomj a Beleegyezés gombra!</p><p>Kijelentem, hogy magyar anyanyelvű személyként önként veszek részt a BME KTT kísérletében. A kutatás céljával és folyamatával kapcsolatban elegendő tájékoztatást kaptam, lehetőségem volt kérdések feltételére, és esetleges kérdéseimre megfelelő válaszokat kaptam. A tájékoztatás alapján elegendő mennyiségű információ áll a rendelkezésemre, hogy eldönthessem, részt kívánok-e venni a kutatásban.</p><p>Tisztában vagyok vele, hogy részvételi szándékomat és adataimat bármikor, indoklás nélkül visszavonhatom.</p><p>Értem és tudomásul veszem, hogy a kutatás tudományos célokat szolgál, és az általam szolgáltatott adatokat a BME kizárólag kutatási célból használja fel. Tudomásul veszem, hogy eredményeimet a többi résztvevő eredményeivel együtt kezelik, így egyéni teljesítményemről visszajelzést, szakvéleményt nem kapok.</p><p>Megértettem, hogy adataim kezelését illetően a BME az EU általános adatvédelmi rendelete (GDPR), a hatályos adatvédelmi törvény és a nemzetközi kutatás-etikai alapelvek szerint jár el. Eredményeim anonim módon kerülnek feldolgozásra, és a kutatás résztvevői az azonosításomra alkalmas adataimat harmadik félnek nem szolgáltatják ki. Engedélyezem a BME számára a jelen kutatásban felvett adataim feldolgozását és tárolását, beleértve azok későbbi kutatásokhoz való felhasználását is. Személyes adataim kezelésével kapcsolatban tájékoztatást kérhetek a kutatás résztvevőitől, az adatkezelés ellen tiltakozhatok, kérhetem személyes adataim helyesbítését, törlését vagy zárolását, valamint jogorvoslatért a Nemzeti Adatvédelmi és Információszabadság Hatósághoz fordulhatok.</p><p>Kijelentem, hogy a kutatásban való részvételem körülményeiről részletes tájékoztatást kaptam, és a feltételeket elfogadom.</p>","0","","","","","",""
"survey-text","4","161659","0.0-4.0","45310","","{""Q0"":""GR3TXD"",""Q1"":""nő"",""Q2"":""2001"",""Q3"":""14""}","","","","","",""
"html-button-response","5","181995","0.0-5.0","19833","<p>Ebben a játékban szavakat kell toldalékolni.</p> <p>Minden körben mutatunk majd egy példamondatot, amiben lesz egy szó.</p> <p>Alatta jön egy második mondat, ezt a mondatot neked kell majd befejezni, ugyanezzel a szóval.</p> <p>Nem biztos, hogy a szó eleve ismerős lesz számodra!</p> <p>Minden mondathoz adunk két lehetőséget, ezeket balra és jobbra látod majd.</p> <p>A játék kb. negyedóráig-húsz percig tart.</p>","0","","","","","",""
"html-button-response","6","195034","0.0-6.0","12533","<p>Nézzünk egy példát!</p> <p>A példamondat: ""János nagyon szeret rancsúrozni.""</p><p>Neked ezt a mondatot kell befejezned: ""Én is szívesen...""</p><p>A lehetőségek pedig ezek:</p>","1","","","","","",""
"html-button-response","7","202403","0.0-7.0","6862","<p>Nagyon jó.</p><p>Ezt a játékot nem egyedül fogod játszani, hanem egy másik játékossal.</p><p>Mielőtt továbblépünk, összekapcsolunk titeket egymással.</p><p>Ez igénybe vehet néhány másodpercet, amihez szíves türelmed kérjük.</p>","0","","","","","",""
"html-button-response","8","208133","0.0-8.0","null","<p>Csatlakozás a másik játékoshoz...</p>","null","","","","","",""
"html-button-response","9","210669","0.0-9.0","null","<p> Sikeres kapcsolódás!</p>","null","","","","","",""
"html-button-response","10","221197","0.0-10.0","null","<p>A következőkben ketten játsszátok a szóválasztós játékot.</p><p>A feladatotok az lesz, hogy minden körben <b>ugyanazt</b> a szót válasszátok.</p><p>Minden ilyen egyező válaszért pontot kaptok.</p><p>Próbáld meg kitalálni, mit választ a másik játékos!</p><p>Bármikor választhatsz, a körnek akkor van vége, ha mindketten döntöttetek.</p><p>Sok sikert!</p>","null","","","","","",""
"html-button-response-esp","11","227770","0.0-11.0-0.0","6054","Te bizony sokat juszlasz. Én is sokat...","0","juszlok","[""juszlok"",""juszlom""]","juszlok","esp trial","0","true"
"html-button-response","12","231281","0.0-11.0-1.0","null","<p>A másik játékos ezt választotta: <b>juszlok</b>.</p><p>&#x2705;</p><p>A te válaszod és a másik játékos válasza <b>megegyeznek</b>.</p>","null","","","","feedback trial","",""
"html-button-response-esp","13","237954","0.0-11.0-0.1","6171","Te bizony sokat sprökszöl. Én is sokat...","0","sprökszöm","[""sprökszöm"",""sprökszök""]","sprökszök","esp trial","0","false"
"html-button-response","14","241467","0.0-11.0-1.1","null","<p>A másik játékos ezt választotta: <b>sprökszök</b>.</p><p>&#10060;</p><p>A válaszaitok <b>nem</b> egyeznek meg.</p>","null","","","","feedback trial","",""
"html-button-response-esp","15","252850","0.0-11.0-0.2","10870","Te bizony sokat jüslesz. Én is sokat...","1","jüslök","[""jüslöm"",""jüslök""]","jüslöm","esp trial","0","false"
"html-button-response","16","256363","0.0-11.0-1.2","null","<p>A másik játékos ezt választotta: <b>jüslöm</b>.</p><p>&#10060;</p><p>A válaszaitok <b>nem</b> egyeznek meg.</p>","null","","","","feedback trial","",""
"html-button-response-esp","17","262377","0.0-11.0-0.3","4397","Te bizony sokat tínylasz. Én is sokat...","0","tínylok","[""tínylok"",""tínylom""]","tínylok","esp trial","0","true"
"html-button-response","18","265901","0.0-11.0-1.3","null","<p>A másik játékos ezt választotta: <b>tínylok</b>.</p><p>&#x2705;</p><p>A te válaszod és a másik játékos válasza <b>megegyeznek</b>.</p>","null","","","","feedback trial","",""
"html-button-response-esp","19","272217","0.0-11.0-0.4","5799","Te bizony sokat brágaklasz. Én is sokat...","1","brágaklom","[""brágaklok"",""brágaklom""]","brágaklok","esp trial","0","false"
"html-button-response","20","275740","0.0-11.0-1.4","null","<p>A másik játékos ezt választotta: <b>brágaklok</b>.</p><p>&#10060;</p><p>A válaszaitok <b>nem</b> egyeznek meg.</p>","null","","","","feedback trial","",""
"html-button-response-esp","21","285209","0.0-11.0-0.5","8960","Te bizony sokat spéslesz. Én is sokat...","1","spéslek","[""spéslem"",""spéslek""]","spéslem","esp trial","0","false"
"html-button-response","22","288721","0.0-11.0-1.5","null","<p>A másik játékos ezt választotta: <b>spéslem</b>.</p><p>&#10060;</p><p>A válaszaitok <b>nem</b> egyeznek meg.</p>","null","","","","feedback trial","",""
"html-button-response-esp","23","295474","0.0-11.0-0.6","6237","Te bizony sokat málapszol. Én is sokat...","0","málapszom","[""málapszom"",""málapszok""]","málapszok","esp trial","0","false"
"html-button-response","24","298989","0.0-11.0-1.6","null","<p>A másik játékos ezt választotta: <b>málapszok</b>.</p><p>&#10060;</p><p>A válaszaitok <b>nem</b> egyeznek meg.</p>","null","","","","feedback trial","",""
"html-button-response-esp","25","305012","0.0-11.0-0.7","3766","Te bizony sokat ruslasz. Én is sokat...","1","ruslok","[""ruslom"",""ruslok""]","ruslom","esp trial","0","false"
"html-button-response","26","308530","0.0-11.0-1.7","null","<p>A másik játékos ezt választotta: <b>ruslom</b>.</p><p>&#10060;</p><p>A válaszaitok <b>nem</b> egyeznek meg.</p>","null","","","","feedback trial","",""
"html-button-response-esp","27","316402","0.0-11.0-0.8","7355","Te bizony sokat spibaklasz. Én is sokat...","1","spibaklok","[""spibaklom"",""spibaklok""]","spibaklok","esp trial","0","true"
"html-button-response","28","319922","0.0-11.0-1.8","null","<p>A másik játékos ezt választotta: <b>spibaklok</b>.</p><p>&#x2705;</p><p>A te válaszod és a másik játékos válasza <b>megegyeznek</b>.</p>","null","","","","feedback trial","",""
"html-button-response-esp","29","325945","0.0-11.0-0.9","3838","Te bizony sokat büglesz. Én is sokat...","1","büglöm","[""büglök"",""büglöm""]","büglöm","esp trial","0","true"
"html-button-response","30","329476","0.0-11.0-1.9","null","<p>A másik játékos ezt választotta: <b>büglöm</b>.</p><p>&#x2705;</p><p>A te válaszod és a másik játékos válasza <b>megegyeznek</b>.</p>","null","","","","feedback trial","",""
"html-button-response-esp","31","338113","0.0-11.0-0.10","8121","Te bizony sokat spilágzol. Én is sokat...","1","spilágzom","[""spilágzok"",""spilágzom""]","spilágzok","esp trial","0","false"
"html-button-response","32","341626","0.0-11.0-1.10","null","<p>A másik játékos ezt választotta: <b>spilágzok</b>.</p><p>&#10060;</p><p>A válaszaitok <b>nem</b> egyeznek meg.</p>","null","","","","feedback trial","",""
"html-button-response-esp","33","347761","0.0-11.0-0.11","5631","Te bizony sokat narjárzol. Én is sokat...","0","narjárzok","[""narjárzok"",""narjárzom""]","narjárzok","esp trial","0","true"
"html-button-response","34","351273","0.0-11.0-1.11","null","<p>A másik játékos ezt választotta: <b>narjárzok</b>.</p><p>&#x2705;</p><p>A te válaszod és a másik játékos válasza <b>megegyeznek</b>.</p>","null","","","","feedback trial","",""
"html-button-response-esp","35","357280","0.0-11.0-0.12","4032","Te bizony sokat femlesz. Én is sokat...","0","femlek","[""femlek"",""femlem""]","femlem","esp trial","0","false"
"html-button-response","36","360802","0.0-11.0-1.12","null","<p>A másik játékos ezt választotta: <b>femlem</b>.</p><p>&#10060;</p><p>A válaszaitok <b>nem</b> egyeznek meg.</p>","null","","","","feedback trial","",""
"html-button-response-esp","37","366823","0.0-11.0-0.13","3851","Te bizony sokat piragszol. Én is sokat...","1","piragszom","[""piragszok"",""piragszom""]","piragszok","esp trial","0","false"
"html-button-response","38","370350","0.0-11.0-1.13","null","<p>A másik játékos ezt választotta: <b>piragszok</b>.</p><p>&#10060;</p><p>A válaszaitok <b>nem</b> egyeznek meg.</p>","null","","","","feedback trial","",""
"html-button-response-esp","39","376390","0.0-11.0-0.14","5158","Te bizony sokat fretszel. Én is sokat...","0","fretszek","[""fretszek"",""fretszem""]","fretszek","esp trial","0","true"
"html-button-response","40","379906","0.0-11.0-1.14","null","<p>A másik játékos ezt választotta: <b>fretszek</b>.</p><p>&#x2705;</p><p>A te válaszod és a másik játékos válasza <b>megegyeznek</b>.</p>","null","","","","feedback trial","",""
"html-button-response-esp","41","385928","0.0-11.0-0.15","5058","Te bizony sokat flűröklesz. Én is sokat...","1","flűröklök","[""flűröklöm"",""flűröklök""]","flűröklök","esp trial","0","true"
"html-button-response","42","389450","0.0-11.0-1.15","null","<p>A másik játékos ezt választotta: <b>flűröklök</b>.</p><p>&#x2705;</p><p>A te válaszod és a másik játékos válasza <b>megegyeznek</b>.</p>","null","","","","feedback trial","",""
"html-button-response-esp","43","395473","0.0-11.0-0.16","4804","Te bizony sokat klibamlasz. Én is sokat...","0","klibamlok","[""klibamlok"",""klibamlom""]","klibamlok","esp trial","0","true"
"html-button-response","44","398992","0.0-11.0-1.16","null","<p>A másik játékos ezt választotta: <b>klibamlok</b>.</p><p>&#x2705;</p><p>A te válaszod és a másik játékos válasza <b>megegyeznek</b>.</p>","null","","","","feedback trial","",""
"html-button-response-esp","45","405017","0.0-11.0-0.17","5045","Te bizony sokat fibamlasz. Én is sokat...","1","fibamlok","[""fibamlom"",""fibamlok""]","fibamlom","esp trial","0","false"
"html-button-response","46","408546","0.0-11.0-1.17","null","<p>A másik játékos ezt választotta: <b>fibamlom</b>.</p><p>&#10060;</p><p>A válaszaitok <b>nem</b> egyeznek meg.</p>","null","","","","feedback trial","",""
"html-button-response-esp","47","414565","0.0-11.0-0.18","5022","Te bizony sokat sűzlesz. Én is sokat...","1","sűzlök","[""sűzlöm"",""sűzlök""]","sűzlök","esp trial","0","true"
"html-button-response","48","418084","0.0-11.0-1.18","null","<p>A másik játékos ezt választotta: <b>sűzlök</b>.</p><p>&#x2705;</p><p>A te válaszod és a másik játékos válasza <b>megegyeznek</b>.</p>","null","","","","feedback trial","",""
"html-button-response-esp","49","425674","0.0-11.0-0.19","7088","Te bizony sokat hilarzol. Én is sokat...","0","hilarzom","[""hilarzom"",""hilarzok""]","hilarzok","esp trial","0","false"
"html-button-response","50","429184","0.0-11.0-1.19","null","<p>A másik játékos ezt választotta: <b>hilarzok</b>.</p><p>&#10060;</p><p>A válaszaitok <b>nem</b> egyeznek meg.</p>","null","","","","feedback trial","",""
"html-button-response-esp","51","435658","0.0-11.0-0.20","5963","Te bizony sokat prilegzel. Én is sokat...","1","prilegzem","[""prilegzek"",""prilegzem""]","prilegzek","esp trial","0","false"
"html-button-response","52","439178","0.0-11.0-1.20","null","<p>A másik játékos ezt választotta: <b>prilegzek</b>.</p><p>&#10060;</p><p>A válaszaitok <b>nem</b> egyeznek meg.</p>","null","","","","feedback trial","",""
"html-button-response-esp","53","445201","0.0-11.0-0.21","4589","Te bizony sokat siladzol. Én is sokat...","0","siladzok","[""siladzok"",""siladzom""]","siladzok","esp trial","0","true"
"html-button-response","54","448718","0.0-11.0-1.21","null","<p>A másik játékos ezt választotta: <b>siladzok</b>.</p><p>&#x2705;</p><p>A te válaszod és a másik játékos válasza <b>megegyeznek</b>.</p>","null","","","","feedback trial","",""
"html-button-response-esp","55","454737","0.0-11.0-0.22","4655","Te bizony sokat drubódzol. Én is sokat...","1","drubódzok","[""drubódzom"",""drubódzok""]","drubódzok","esp trial","0","true"
"html-button-response","56","458257","0.0-11.0-1.22","null","<p>A másik játékos ezt választotta: <b>drubódzok</b>.</p><p>&#x2705;</p><p>A te válaszod és a másik játékos válasza <b>megegyeznek</b>.</p>","null","","","","feedback trial","",""
"html-button-response-esp","57","464277","0.0-11.0-0.23","4224","Te bizony sokat bölszöl. Én is sokat...","0","bölszök","[""bölszök"",""bölszöm""]","bölszök","esp trial","0","true"
"html-button-response","58","467806","0.0-11.0-1.23","null","<p>A másik játékos ezt választotta: <b>bölszök</b>.</p><p>&#x2705;</p><p>A te válaszod és a másik játékos válasza <b>megegyeznek</b>.</p>","null","","","","feedback trial","",""
"html-button-response-esp","59","473826","0.0-11.0-0.24","3648","Te bizony sokat spűmlesz. Én is sokat...","1","spűmlök","[""spűmlöm"",""spűmlök""]","spűmlöm","esp trial","0","false"
"html-button-response","60","477360","0.0-11.0-1.24","null","<p>A másik játékos ezt választotta: <b>spűmlöm</b>.</p><p>&#10060;</p><p>A válaszaitok <b>nem</b> egyeznek meg.</p>","null","","","","feedback trial","",""
"html-button-response-esp","61","483762","0.0-11.0-0.25","5886","Te bizony sokat prűrlesz. Én is sokat...","1","prűrlök","[""prűrlöm"",""prűrlök""]","prűrlöm","esp trial","0","false"
"html-button-response","62","487283","0.0-11.0-1.25","null","<p>A másik játékos ezt választotta: <b>prűrlöm</b>.</p><p>&#10060;</p><p>A válaszaitok <b>nem</b> egyeznek meg.</p>","null","","","","feedback trial","",""
"html-button-response-esp","63","494186","0.0-11.0-0.26","6390","Te bizony sokat sztremlesz. Én is sokat...","0","sztremlek","[""sztremlek"",""sztremlem""]","sztremlem","esp trial","0","false"
"html-button-response","64","497711","0.0-11.0-1.26","null","<p>A másik játékos ezt választotta: <b>sztremlem</b>.</p><p>&#10060;</p><p>A válaszaitok <b>nem</b> egyeznek meg.</p>","null","","","","feedback trial","",""
"html-button-response-esp","65","503730","0.0-11.0-0.27","3815","Te bizony sokat driládzol. Én is sokat...","1","driládzom","[""driládzok"",""driládzom""]","driládzok","esp trial","0","false"
"html-button-response","66","507250","0.0-11.0-1.27","null","<p>A másik játékos ezt választotta: <b>driládzok</b>.</p><p>&#10060;</p><p>A válaszaitok <b>nem</b> egyeznek meg.</p>","null","","","","feedback trial","",""
"html-button-response-esp","67","513273","0.0-11.0-0.28","5028","Te bizony sokat feténylesz. Én is sokat...","0","feténylek","[""feténylek"",""feténylem""]","feténylem","esp trial","0","false"
"html-button-response","68","516798","0.0-11.0-1.28","null","<p>A másik játékos ezt választotta: <b>feténylem</b>.</p><p>&#10060;</p><p>A válaszaitok <b>nem</b> egyeznek meg.</p>","null","","","","feedback trial","",""
"html-button-response-esp","69","525601","0.0-11.0-0.29","8288","Te bizony sokat pivegszel. Én is sokat...","1","pivegszem","[""pivegszek"",""pivegszem""]","pivegszek","esp trial","0","false"
"html-button-response","70","529133","0.0-11.0-1.29","null","<p>A másik játékos ezt választotta: <b>pivegszek</b>.</p><p>&#10060;</p><p>A válaszaitok <b>nem</b> egyeznek meg.</p>","null","","","","feedback trial","",""
"html-button-response-esp","71","535159","0.0-11.0-0.30","3241","Te bizony sokat lorjódzol. Én is sokat...","1","lorjódzok","[""lorjódzom"",""lorjódzok""]","lorjódzok","esp trial","0","true"
"html-button-response","72","538687","0.0-11.0-1.30","null","<p>A másik játékos ezt választotta: <b>lorjódzok</b>.</p><p>&#x2705;</p><p>A te válaszod és a másik játékos válasza <b>megegyeznek</b>.</p>","null","","","","feedback trial","",""
"html-button-response-esp","73","545273","0.0-11.0-0.31","6073","Te bizony sokat böjzöl. Én is sokat...","1","böjzök","[""böjzöm"",""böjzök""]","böjzök","esp trial","0","true"
"html-button-response","74","548795","0.0-11.0-1.31","null","<p>A másik játékos ezt választotta: <b>böjzök</b>.</p><p>&#x2705;</p><p>A te válaszod és a másik játékos válasza <b>megegyeznek</b>.</p>","null","","","","feedback trial","",""
"html-button-response-esp","75","554817","0.0-11.0-0.32","4380","Te bizony sokat pratánylasz. Én is sokat...","0","pratánylok","[""pratánylok"",""pratánylom""]","pratánylom","esp trial","0","false"
"html-button-response","76","558336","0.0-11.0-1.32","null","<p>A másik játékos ezt választotta: <b>pratánylom</b>.</p><p>&#10060;</p><p>A válaszaitok <b>nem</b> egyeznek meg.</p>","null","","","","feedback trial","",""
"html-button-response-esp","77","564359","0.0-11.0-0.33","3344","Te bizony sokat szirlasz. Én is sokat...","1","szirlok","[""szirlom"",""szirlok""]","szirlok","esp trial","0","true"
"html-button-response","78","567880","0.0-11.0-1.33","null","<p>A másik játékos ezt választotta: <b>szirlok</b>.</p><p>&#x2705;</p><p>A te válaszod és a másik játékos válasza <b>megegyeznek</b>.</p>","null","","","","feedback trial","",""
"html-button-response-esp","79","573892","0.0-11.0-0.34","3784","Te bizony sokat brüjlesz. Én is sokat...","1","brüjlök","[""brüjlöm"",""brüjlök""]","brüjlöm","esp trial","0","false"
"html-button-response","80","577417","0.0-11.0-1.34","null","<p>A másik játékos ezt választotta: <b>brüjlöm</b>.</p><p>&#10060;</p><p>A válaszaitok <b>nem</b> egyeznek meg.</p>","null","","","","feedback trial","",""
"html-button-response-esp","81","583441","0.0-11.0-0.35","5127","Te bizony sokat marzol. Én is sokat...","0","marzom","[""marzom"",""marzok""]","marzom","esp trial","0","true"
"html-button-response","82","586967","0.0-11.0-1.35","null","<p>A másik játékos ezt választotta: <b>marzom</b>.</p><p>&#x2705;</p><p>A te válaszod és a másik játékos válasza <b>megegyeznek</b>.</p>","null","","","","feedback trial","",""
"html-button-response-esp","83","592990","0.0-11.0-0.36","3296","Te bizony sokat ribzol. Én is sokat...","1","ribzom","[""ribzok"",""ribzom""]","ribzok","esp trial","0","false"
"html-button-response","84","596512","0.0-11.0-1.36","null","<p>A másik játékos ezt választotta: <b>ribzok</b>.</p><p>&#10060;</p><p>A válaszaitok <b>nem</b> egyeznek meg.</p>","null","","","","feedback trial","",""
"html-button-response-esp","85","602526","0.0-11.0-0.37","3152","Te bizony sokat klörlesz. Én is sokat...","1","klörlöm","[""klörlök"",""klörlöm""]","klörlök","esp trial","0","false"
"html-button-response","86","606044","0.0-11.0-1.37","null","<p>A másik játékos ezt választotta: <b>klörlök</b>.</p><p>&#10060;</p><p>A válaszaitok <b>nem</b> egyeznek meg.</p>","null","","","","feedback trial","",""
"html-button-response-esp","87","612061","0.0-11.0-0.38","3242","Te bizony sokat tomlasz. Én is sokat...","0","tomlok","[""tomlok"",""tomlom""]","tomlom","esp trial","0","false"
"html-button-response","88","615586","0.0-11.0-1.38","null","<p>A másik játékos ezt választotta: <b>tomlom</b>.</p><p>&#10060;</p><p>A válaszaitok <b>nem</b> egyeznek meg.</p>","null","","","","feedback trial","",""
"html-button-response-esp","89","621606","0.0-11.0-0.39","4612","Te bizony sokat herégszel. Én is sokat...","1","herégszem","[""herégszek"",""herégszem""]","herégszek","esp trial","0","false"
"html-button-response","90","625126","0.0-11.0-1.39","null","<p>A másik játékos ezt választotta: <b>herégszek</b>.</p><p>&#10060;</p><p>A válaszaitok <b>nem</b> egyeznek meg.</p>","null","","","","feedback trial","",""
"html-button-response-esp","91","631145","0.0-11.0-0.40","3823","Te bizony sokat csíszlasz. Én is sokat...","0","csíszlok","[""csíszlok"",""csíszlom""]","csíszlok","esp trial","0","true"
"html-button-response","92","634677","0.0-11.0-1.40","null","<p>A másik játékos ezt választotta: <b>csíszlok</b>.</p><p>&#x2705;</p><p>A te válaszod és a másik játékos válasza <b>megegyeznek</b>.</p>","null","","","","feedback trial","",""
"html-button-response-esp","93","640697","0.0-11.0-0.41","4719","Te bizony sokat trilszol. Én is sokat...","1","trilszok","[""trilszom"",""trilszok""]","trilszok","esp trial","0","true"
"html-button-response","94","644213","0.0-11.0-1.41","null","<p>A másik játékos ezt választotta: <b>trilszok</b>.</p><p>&#x2705;</p><p>A te válaszod és a másik játékos válasza <b>megegyeznek</b>.</p>","null","","","","feedback trial","",""
"html-button-response-esp","95","650235","0.0-11.0-0.42","5072","Te bizony sokat spatárzol. Én is sokat...","0","spatárzok","[""spatárzok"",""spatárzom""]","spatárzok","esp trial","0","true"
"html-button-response","96","653760","0.0-11.0-1.42","null","<p>A másik játékos ezt választotta: <b>spatárzok</b>.</p><p>&#x2705;</p><p>A te válaszod és a másik játékos válasza <b>megegyeznek</b>.</p>","null","","","","feedback trial","",""
"html-button-response-esp","97","659797","0.0-11.0-0.43","2716","Te bizony sokat sojzol. Én is sokat...","1","sojzom","[""sojzok"",""sojzom""]","sojzok","esp trial","0","false"
"html-button-response","98","663313","0.0-11.0-1.43","null","<p>A másik játékos ezt választotta: <b>sojzok</b>.</p><p>&#10060;</p><p>A válaszaitok <b>nem</b> egyeznek meg.</p>","null","","","","feedback trial","",""
"html-button-response-esp","99","669329","0.0-11.0-0.44","4943","Te bizony sokat flüröslesz. Én is sokat...","1","flüröslök","[""flüröslöm"",""flüröslök""]","flüröslök","esp trial","0","true"
"html-button-response","100","672857","0.0-11.0-1.44","null","<p>A másik játékos ezt választotta: <b>flüröslök</b>.</p><p>&#x2705;</p><p>A te válaszod és a másik játékos válasza <b>megegyeznek</b>.</p>","null","","","","feedback trial","",""
"html-button-response-esp","101","678882","0.0-11.0-0.45","5165","Te bizony sokat pebzel. Én is sokat...","1","pebzek","[""pebzem"",""pebzek""]","pebzek","esp trial","0","true"
"html-button-response","102","682408","0.0-11.0-1.45","null","<p>A másik játékos ezt választotta: <b>pebzek</b>.</p><p>&#x2705;</p><p>A te válaszod és a másik játékos válasza <b>megegyeznek</b>.</p>","null","","","","feedback trial","",""
"html-button-response-esp","103","688446","0.0-11.0-0.46","4416","Te bizony sokat vilakszol. Én is sokat...","1","vilakszom","[""vilakszok"",""vilakszom""]","vilakszok","esp trial","0","false"
"html-button-response","104","691968","0.0-11.0-1.46","null","<p>A másik játékos ezt választotta: <b>vilakszok</b>.</p><p>&#10060;</p><p>A válaszaitok <b>nem</b> egyeznek meg.</p>","null","","","","feedback trial","",""
"html-button-response-esp","105","697986","0.0-11.0-0.47","4201","Te bizony sokat nyáslasz. Én is sokat...","0","nyáslok","[""nyáslok"",""nyáslom""]","nyáslok","esp trial","0","true"
"html-button-response","106","701513","0.0-11.0-1.47","null","<p>A másik játékos ezt választotta: <b>nyáslok</b>.</p><p>&#x2705;</p><p>A te válaszod és a másik játékos válasza <b>megegyeznek</b>.</p>","null","","","","feedback trial","",""
"html-button-response-esp","107","707544","0.0-11.0-0.48","4923","Te bizony sokat tiregzel. Én is sokat...","1","tiregzek","[""tiregzem"",""tiregzek""]","tiregzek","esp trial","0","true"
"html-button-response","108","711064","0.0-11.0-1.48","null","<p>A másik játékos ezt választotta: <b>tiregzek</b>.</p><p>&#x2705;</p><p>A te válaszod és a másik játékos válasza <b>megegyeznek</b>.</p>","null","","","","feedback trial","",""
"html-button-response-esp","109","717081","0.0-11.0-0.49","4525","Te bizony sokat flagánylasz. Én is sokat...","0","flagánylok","[""flagánylok"",""flagánylom""]","flagánylom","esp trial","0","false"
"html-button-response","110","720598","0.0-11.0-1.49","null","<p>A másik játékos ezt választotta: <b>flagánylom</b>.</p><p>&#10060;</p><p>A válaszaitok <b>nem</b> egyeznek meg.</p>","null","","","","feedback trial","",""
"html-button-response-esp","111","726626","0.0-11.0-0.50","3974","Te bizony sokat ribegzel. Én is sokat...","0","ribegzek","[""ribegzek"",""ribegzem""]","ribegzek","esp trial","0","true"
"html-button-response","112","730157","0.0-11.0-1.50","null","<p>A másik játékos ezt választotta: <b>ribegzek</b>.</p><p>&#x2705;</p><p>A te válaszod és a másik játékos válasza <b>megegyeznek</b>.</p>","null","","","","feedback trial","",""
"html-button-response-esp","113","736190","0.0-11.0-0.51","5280","Te bizony sokat sprogzol. Én is sokat...","0","sprogzok","[""sprogzok"",""sprogzom""]","sprogzok","esp trial","0","true"
"html-button-response","114","739704","0.0-11.0-1.51","null","<p>A másik játékos ezt választotta: <b>sprogzok</b>.</p><p>&#x2705;</p><p>A te válaszod és a másik játékos válasza <b>megegyeznek</b>.</p>","null","","","","feedback trial","",""
"html-button-response-esp","115","745712","0.0-11.0-0.52","3313","Te bizony sokat frilegszel. Én is sokat...","1","frilegszek","[""frilegszem"",""frilegszek""]","frilegszek","esp trial","0","true"
"html-button-response","116","749225","0.0-11.0-1.52","null","<p>A másik játékos ezt választotta: <b>frilegszek</b>.</p><p>&#x2705;</p><p>A te válaszod és a másik játékos válasza <b>megegyeznek</b>.</p>","null","","","","feedback trial","",""
"html-button-response-esp","117","755242","0.0-11.0-0.53","3320","Te bizony sokat flagárzol. Én is sokat...","1","flagárzok","[""flagárzom"",""flagárzok""]","flagárzok","esp trial","0","true"
"html-button-response","118","758760","0.0-11.0-1.53","null","<p>A másik játékos ezt választotta: <b>flagárzok</b>.</p><p>&#x2705;</p><p>A te válaszod és a másik játékos válasza <b>megegyeznek</b>.</p>","null","","","","feedback trial","",""
"html-button-response","119","766930","0.0-12.0","7664","<p>A közös játék most véget ért.</p><p>Mielőtt eláruljuk a végső pontszámodat, arra kérlek, játszd a szóválasztós játékot néhány percig egyedül is.</p><p>A feladatod ugyanaz lesz, választani két lehetőség közül.</p><p>Most viszont egyedül kell döntened, hogy te melyiket választanád.</p>","0","","","","","",""
"html-button-response-clever","120","773626","0.0-13.0-0.0","6183","Te bizony sokat flehékszel. Én is sokat...","1","flehékszek","[""flehékszem"",""flehékszek""]","","posttest trial","4",""
"html-button-response-clever","121","778258","0.0-13.0-0.1","4114","Te bizony sokat düjzöl. Én is sokat...","1","düjzök","[""düjzöm"",""düjzök""]","","posttest trial","4",""
"html-button-response-clever","122","782528","0.0-13.0-0.2","3766","Te bizony sokat bihánylasz. Én is sokat...","1","bihánylok","[""bihánylom"",""bihánylok""]","","posttest trial","4",""
"html-button-response-clever","123","790233","0.0-13.0-0.3","7200","Te bizony sokat filágzol. Én is sokat...","0","filágzom","[""filágzom"",""filágzok""]","","posttest trial","4",""
"html-button-response-clever","124","796041","0.0-13.0-0.4","5296","Te bizony sokat bűtszöl. Én is sokat...","0","bűtszök","[""bűtszök"",""bűtszöm""]","","posttest trial","4",""
"html-button-response-clever","125","799489","0.0-13.0-0.5","2943","Te bizony sokat salárzol. Én is sokat...","1","salárzom","[""salárzok"",""salárzom""]","","posttest trial","4",""
"html-button-response-clever","126","803737","0.0-13.0-0.6","3735","Te bizony sokat flitlasz. Én is sokat...","1","flitlom","[""flitlok"",""flitlom""]","","posttest trial","4",""
"html-button-response-clever","127","809377","0.0-13.0-0.7","5126","Te bizony sokat brobódzol. Én is sokat...","1","brobódzom","[""brobódzok"",""brobódzom""]","","posttest trial","4",""
"html-button-response-clever","128","813785","0.0-13.0-0.8","3898","Te bizony sokat vülődzöl. Én is sokat...","1","vülődzök","[""vülődzöm"",""vülődzök""]","","posttest trial","4",""
"html-button-response-clever","129","818649","0.0-13.0-0.9","4359","Te bizony sokat pítszol. Én is sokat...","1","pítszok","[""pítszom"",""pítszok""]","","posttest trial","4",""
"html-button-response-clever","130","824969","0.0-13.0-0.10","5816","Te bizony sokat spröbzöl. Én is sokat...","1","spröbzöm","[""spröbzök"",""spröbzöm""]","","posttest trial","4",""
"html-button-response-clever","131","829016","0.0-13.0-0.11","3534","Te bizony sokat flűmlesz. Én is sokat...","0","flűmlök","[""flűmlök"",""flűmlöm""]","","posttest trial","4",""
"html-button-response-clever","132","834297","0.0-13.0-0.12","4762","Te bizony sokat trehégszel. Én is sokat...","0","trehégszem","[""trehégszem"",""trehégszek""]","","posttest trial","4",""
"html-button-response-clever","133","843505","0.0-13.0-0.13","8704","Te bizony sokat gyibeslesz. Én is sokat...","0","gyibeslem","[""gyibeslem"",""gyibeslek""]","","posttest trial","4",""
"html-button-response-clever","134","847474","0.0-13.0-0.14","3450","Te bizony sokat vanylasz. Én is sokat...","0","vanylok","[""vanylok"",""vanylom""]","","posttest trial","4",""
"html-button-response-clever","135","852522","0.0-13.0-0.15","4539","Te bizony sokat spihegzel. Én is sokat...","0","spihegzek","[""spihegzek"",""spihegzem""]","","posttest trial","4",""
"html-button-response-clever","136","860874","0.0-13.0-0.16","7847","Te bizony sokat pribagszol. Én is sokat...","0","pribagszom","[""pribagszom"",""pribagszok""]","","posttest trial","4",""
"html-button-response-clever","137","865386","0.0-13.0-0.17","3993","Te bizony sokat plűbzöl. Én is sokat...","0","plűbzök","[""plűbzök"",""plűbzöm""]","","posttest trial","4",""
"html-button-response-clever","138","868730","0.0-13.0-0.18","2830","Te bizony sokat spüjzöl. Én is sokat...","1","spüjzöm","[""spüjzök"",""spüjzöm""]","","posttest trial","4",""
"html-button-response-clever","139","873025","0.0-13.0-0.19","3777","Te bizony sokat ibékszel. Én is sokat...","0","ibékszek","[""ibékszek"",""ibékszem""]","","posttest trial","4",""
"html-button-response-clever","140","877089","0.0-13.0-0.20","3552","Te bizony sokat lörűdzöl. Én is sokat...","1","lörűdzöm","[""lörűdzök"",""lörűdzöm""]","","posttest trial","4",""
"html-button-response-clever","141","881169","0.0-13.0-0.21","3564","Te bizony sokat prínylasz. Én is sokat...","1","prínylok","[""prínylom"",""prínylok""]","","posttest trial","4",""
"html-button-response-clever","142","885001","0.0-13.0-0.22","3315","Te bizony sokat figlasz. Én is sokat...","0","figlom","[""figlom"",""figlok""]","","posttest trial","4",""
"html-button-response-clever","143","888979","0.0-13.0-0.23","3465","Te bizony sokat jonylasz. Én is sokat...","1","jonylok","[""jonylom"",""jonylok""]","","posttest trial","4",""
"html-button-response-clever","144","892737","0.0-13.0-0.24","3254","Te bizony sokat klivaslasz. Én is sokat...","1","klivaslok","[""klivaslom"",""klivaslok""]","","posttest trial","4",""
"html-button-response-clever","145","895978","0.0-13.0-0.25","2731","Te bizony sokat flátszol. Én is sokat...","1","flátszom","[""flátszok"",""flátszom""]","","posttest trial","4",""
"html-button-response-clever","146","899586","0.0-13.0-0.26","3096","Te bizony sokat treglesz. Én is sokat...","0","treglek","[""treglek"",""treglem""]","","posttest trial","4",""
"html-button-response-clever","147","904642","0.0-13.0-0.27","4547","Te bizony sokat brivegzel. Én is sokat...","0","brivegzek","[""brivegzek"",""brivegzem""]","","posttest trial","4",""
"html-button-response-clever","148","909513","0.0-13.0-0.28","4367","Te bizony sokat klaráglasz. Én is sokat...","0","klaráglok","[""klaráglok"",""klaráglom""]","","posttest trial","4",""
"html-button-response-clever","149","913330","0.0-13.0-0.29","3297","Te bizony sokat pribemlesz. Én is sokat...","1","pribemlem","[""pribemlek"",""pribemlem""]","","posttest trial","4",""
"html-button-response-clever","150","917185","0.0-13.0-0.30","3344","Te bizony sokat spülűdzöl. Én is sokat...","1","spülűdzöm","[""spülűdzök"",""spülűdzöm""]","","posttest trial","4",""
"html-button-response-clever","151","920673","0.0-13.0-0.31","2980","Te bizony sokat huroslasz. Én is sokat...","1","huroslok","[""huroslom"",""huroslok""]","","posttest trial","4",""
"html-button-response-clever","152","927706","0.0-13.0-0.32","6521","Te bizony sokat bivégszel. Én is sokat...","1","bivégszek","[""bivégszem"",""bivégszek""]","","posttest trial","4",""
"html-button-response-clever","153","931506","0.0-13.0-0.33","3281","Te bizony sokat sztrijzol. Én is sokat...","1","sztrijzom","[""sztrijzok"",""sztrijzom""]","","posttest trial","4",""
"html-button-response-clever","154","935705","0.0-13.0-0.34","3690","Te bizony sokat hűgzöl. Én is sokat...","0","hűgzöm","[""hűgzöm"",""hűgzök""]","","posttest trial","4",""
"html-button-response-clever","155","940361","0.0-13.0-0.35","4151","Te bizony sokat narádzol. Én is sokat...","0","narádzok","[""narádzok"",""narádzom""]","","posttest trial","4",""
"html-button-response-clever","156","945442","0.0-13.0-0.36","4564","Te bizony sokat nűröklesz. Én is sokat...","1","nűröklök","[""nűröklöm"",""nűröklök""]","","posttest trial","4",""
"html-button-response-clever","157","948649","0.0-13.0-0.37","2704","Te bizony sokat píjlasz. Én is sokat...","1","píjlok","[""píjlom"",""píjlok""]","","posttest trial","4",""
"html-button-response-clever","158","952433","0.0-13.0-0.38","3281","Te bizony sokat trádlasz. Én is sokat...","0","trádlok","[""trádlok"",""trádlom""]","","posttest trial","4",""
"html-button-response-clever","159","956905","0.0-13.0-0.39","3962","Te bizony sokat spubonylasz. Én is sokat...","1","spubonylok","[""spubonylom"",""spubonylok""]","","posttest trial","4",""
"html-button-response-clever","160","962074","0.0-13.0-0.40","4654","Te bizony sokat szibánylasz. Én is sokat...","0","szibánylok","[""szibánylok"",""szibánylom""]","","posttest trial","4",""
"html-button-response-clever","161","965554","0.0-13.0-0.41","2970","Te bizony sokat hurjorzol. Én is sokat...","0","hurjorzok","[""hurjorzok"",""hurjorzom""]","","posttest trial","4",""
"html-button-response-clever","162","969058","0.0-13.0-0.42","3000","Te bizony sokat plugzol. Én is sokat...","0","plugzok","[""plugzok"",""plugzom""]","","posttest trial","4",""
"html-button-response-clever","163","973778","0.0-13.0-0.43","4212","Te bizony sokat flehénylesz. Én is sokat...","1","flehénylek","[""flehénylem"",""flehénylek""]","","posttest trial","4",""
"html-button-response-clever","164","976945","0.0-13.0-0.44","2656","Te bizony sokat rokszol. Én is sokat...","1","rokszom","[""rokszok"",""rokszom""]","","posttest trial","4",""
"html-button-response-clever","165","980657","0.0-13.0-0.45","3196","Te bizony sokat sztrozlasz. Én is sokat...","1","sztrozlom","[""sztrozlok"",""sztrozlom""]","","posttest trial","4",""
"html-button-response-clever","166","984369","0.0-13.0-0.46","3193","Te bizony sokat klétszel. Én is sokat...","1","klétszek","[""klétszem"",""klétszek""]","","posttest trial","4",""
"html-button-response-clever","167","988626","0.0-13.0-0.47","3746","Te bizony sokat sztrűkszöl. Én is sokat...","1","sztrűkszök","[""sztrűkszöm"",""sztrűkszök""]","","posttest trial","4",""
"html-button-response-clever","168","992361","0.0-13.0-0.48","3231","Te bizony sokat spihemlesz. Én is sokat...","1","spihemlek","[""spihemlem"",""spihemlek""]","","posttest trial","4",""
"html-button-response-clever","169","996074","0.0-13.0-0.49","3197","Te bizony sokat spáraklasz. Én is sokat...","1","spáraklom","[""spáraklok"",""spáraklom""]","","posttest trial","4",""
"html-button-response-clever","170","999409","0.0-13.0-0.50","2832","Te bizony sokat tragzol. Én is sokat...","1","tragzok","[""tragzom"",""tragzok""]","","posttest trial","4",""
"html-button-response-clever","171","1004697","0.0-13.0-0.51","4784","Te bizony sokat rájzol. Én is sokat...","1","rájzok","[""rájzom"",""rájzok""]","","posttest trial","4",""
"html-button-response-clever","172","1009897","0.0-13.0-0.52","4693","Te bizony sokat brubzol. Én is sokat...","1","brubzok","[""brubzom"",""brubzok""]","","posttest trial","4",""
"html-button-response-clever","173","1013738","0.0-13.0-0.53","3333","Te bizony sokat frodlasz. Én is sokat...","1","frodlom","[""frodlok"",""frodlom""]","","posttest trial","4",""
"html-button-response","174","1020785","0.0-14.0","6543","<p> Vége a játéknak. A teljes pontszámod 27/54.</p><p> Szép munka! &#128526;&#128526;&#128526;</p><p>A Befejezés gomb megnyomása után bezárhatod a böngészőablakot.</p>","0","","","","","",""
"html-keyboard-response","175","1026308","0.0-15.0","null","<div class=""message"">
         <p>Egy kis türelmet kérünk, amíg elmentjük az adatokat...</p>
         </div>","null","","","","","",""
