"trial_type","trial_index","time_elapsed","internal_node_id","rt","stimulus","response","response_string","choices","esp_response","trial_kind","list_number","esp_match"
"pavlovia","0","1167","0.0-0.0","","","","","","","","",""
"html-button-response","1","8994","0.0-1.0","7317","<p>Kedves Résztvevő! A Budapesti Műszaki és Gazdaságtudományi Egyetem Kognitív Tudományi Tanszékének kutatásában való részvételed kérjük. A kutatásban azt vizsgáljuk, hogy a magyar anyanyelvűek hogyan használnak bizonyos szóalakokat, és hogy milyen képük van arról, hogy mások hogyan használják, hogyan képzik a szavakat. Ez hozzásegít bennünket ahhoz, hogy jobban megértsük, hogyan dolgozza fel és tárolja a nyelvet az emberi agy, és hogyan működnek, hogyan változnak egy adott közösség nyelvi konvenciói.</p><p>A vizsgálat egy rövid számítógépes feladatból fog állni. A kutatásban való részvétel önkéntes, a részvételi szándék bármikor visszavonható. A résztvevők eredményeit név nélkül kezeljük, így nem beazonosíthatók az adatok feldolgozása során. Minden személyes adatot az EU általános adatvédelmi rendeletének (GDPR) megfelelően kezelünk és legfeljebb öt éven belül megsemmisítünk. A vizsgálat jellemzően húsz percet vesz igénybe.</p><p>Kutatásvezető:</p><p>Dr. Rácz Péter, tudományos munkatárs, BME KTT</p><p>e-mail: racz.peter.marton@ttk.bme.hu</p>","0","","","","","",""
"html-button-response","2","171606","0.0-2.0","162109","<p>A kísérletben szavakat fogsz látni. Ezek között lesznek olyanok, amelyeket ismersz, de előfordulhatnak olyanok is, amelyeket nem ismersz, sőt, vannak köztük kitalált szavak is. Minden szónál látni fogsz toldalékolt alakokat. A te feladatod az lesz, hogy minden szóhoz kiválaszd azt a toldalékolt alakot, amely a te számodra ismerősebben, természetesebben hangzik. Rossz válaszok nincsenek, mert van olyan, hogy különböző embereknek más és más szó tűnik jobb választásnak. A választ úgy tudod majd kiválasztani, ha rákattintasz.</p><p>Ebben a szóválasztós játékban egy másik játékossal együtt veszel majd részt. A másik játékos is minden esetben azok közül a lehetőségek közül válogathat, mint te. Kettőtök feladata az, hogy ugyanazt a lehetőséget válasszátok minden esetben. Ahhoz, hogy ez sikerüljön, neked figyelned kell arra, hogy a másik játékos milyen válaszokat ad, és ennek alapján meg kell tippelned, hogyan választ legközelebb. Ha eltalálod, akkor pontot kapsz.</p>","0","","","","","",""
"html-button-response","3","186422","0.0-3.0","14315","<p>Kérjük, olvasd el az alábbi nyilatkozatot, és amennyiben egyetértesz vele, nyomj a Beleegyezés gombra!</p><p>Kijelentem, hogy magyar anyanyelvű személyként önként veszek részt a BME KTT kísérletében. A kutatás céljával és folyamatával kapcsolatban elegendő tájékoztatást kaptam, lehetőségem volt kérdések feltételére, és esetleges kérdéseimre megfelelő válaszokat kaptam. A tájékoztatás alapján elegendő mennyiségű információ áll a rendelkezésemre, hogy eldönthessem, részt kívánok-e venni a kutatásban.</p><p>Tisztában vagyok vele, hogy részvételi szándékomat és adataimat bármikor, indoklás nélkül visszavonhatom.</p><p>Értem és tudomásul veszem, hogy a kutatás tudományos célokat szolgál, és az általam szolgáltatott adatokat a BME kizárólag kutatási célból használja fel. Tudomásul veszem, hogy eredményeimet a többi résztvevő eredményeivel együtt kezelik, így egyéni teljesítményemről visszajelzést, szakvéleményt nem kapok.</p><p>Megértettem, hogy adataim kezelését illetően a BME az EU általános adatvédelmi rendelete (GDPR), a hatályos adatvédelmi törvény és a nemzetközi kutatás-etikai alapelvek szerint jár el. Eredményeim anonim módon kerülnek feldolgozásra, és a kutatás résztvevői az azonosításomra alkalmas adataimat harmadik félnek nem szolgáltatják ki. Engedélyezem a BME számára a jelen kutatásban felvett adataim feldolgozását és tárolását, beleértve azok későbbi kutatásokhoz való felhasználását is. Személyes adataim kezelésével kapcsolatban tájékoztatást kérhetek a kutatás résztvevőitől, az adatkezelés ellen tiltakozhatok, kérhetem személyes adataim helyesbítését, törlését vagy zárolását, valamint jogorvoslatért a Nemzeti Adatvédelmi és Információszabadság Hatósághoz fordulhatok.</p><p>Kijelentem, hogy a kutatásban való részvételem körülményeiről részletes tájékoztatást kaptam, és a feltételeket elfogadom.</p>","0","","","","","",""
"survey-text","4","211679","0.0-4.0","24735","","{""Q0"":""AETI5S"",""Q1"":""nő"",""Q2"":""1998"",""Q3"":""16""}","","","","","",""
"html-button-response","5","298566","0.0-5.0","86384","<p>Ebben a játékban szavakat kell toldalékolni.</p> <p>Minden körben mutatunk majd egy példamondatot, amiben lesz egy szó.</p> <p>Alatta jön egy második mondat, ezt a mondatot neked kell majd befejezni, ugyanezzel a szóval.</p> <p>Nem biztos, hogy a szó eleve ismerős lesz számodra!</p> <p>Minden mondathoz adunk két lehetőséget, ezeket balra és jobbra látod majd.</p> <p>A játék kb. negyedóráig-húsz percig tart.</p>","0","","","","","",""
"html-button-response","6","316268","0.0-6.0","17200","<p>Nézzünk egy példát!</p> <p>A példamondat: ""Ez itt egy blumbnyeg.""</p><p>Neked ezt a mondatot kell befejezned: ""Ott vagyunk a...""</p><p>A lehetőségek pedig ezek:</p>","0","","","","","",""
"html-button-response","7","322440","0.0-7.0","5668","<p>Nagyon jó.</p><p>Ezt a játékot nem egyedül fogod játszani, hanem egy másik játékossal.</p><p>Mielőtt továbblépünk, összekapcsolunk titeket egymással.</p><p>Ez igénybe vehet néhány másodpercet, amihez szíves türelmed kérjük.</p>","0","","","","","",""
"html-button-response","8","328167","0.0-8.0","null","<p>Csatlakozás a másik játékoshoz...</p>","null","","","","","",""
"html-button-response","9","330672","0.0-9.0","null","<p> Sikeres kapcsolódás!</p>","null","","","","","",""
"html-button-response","10","341148","0.0-10.0","9972","<p>A következőkben ketten játsszátok a szóválasztós játékot.</p><p>A feladatotok az lesz, hogy minden körben <b>ugyanazt</b> a szót válasszátok.</p><p>Minden ilyen egyező válaszért pontot kaptok.</p><p>Próbáld meg kitalálni, mit választ a másik játékos!</p><p>Bármikor választhatsz, a körnek akkor van vége, ha mindketten döntöttetek.</p><p>Sok sikert!</p>","0","","","","","",""
"html-button-response-esp","11","348006","0.0-11.0-0.0","5853","Ez itt egy matéz. Ott vagyunk a...","1","matézban","[""matézben"",""matézban""]","matézban","esp trial","11","true"
"html-button-response","12","351515","0.0-11.0-1.0","null","<p>A másik játékos ezt választotta: <b>matézban</b>.</p><p>&#x2705;</p><p>A te válaszod és a másik játékos válasza <b>megegyeznek</b>.</p>","null","","","","feedback trial","",""
"html-button-response-esp","13","358369","0.0-11.0-0.1","3363","Ez itt egy csinték. Ott vagyunk a...","0","csintékben","[""csintékben"",""csintékban""]","csintékben","esp trial","11","true"
"html-button-response","14","361874","0.0-11.0-1.1","null","<p>A másik játékos ezt választotta: <b>csintékben</b>.</p><p>&#x2705;</p><p>A te válaszod és a másik játékos válasza <b>megegyeznek</b>.</p>","null","","","","feedback trial","",""
"html-button-response-esp","15","368741","0.0-11.0-0.2","5240","Ez itt egy csimen. Nincs is jobb egy jó...","1","csimennél","[""csimennál"",""csimennél""]","csimennél","esp trial","11","true"
"html-button-response","16","372245","0.0-11.0-1.2","null","<p>A másik játékos ezt választotta: <b>csimennél</b>.</p><p>&#x2705;</p><p>A te válaszod és a másik játékos válasza <b>megegyeznek</b>.</p>","null","","","","feedback trial","",""
"html-button-response-esp","17","379097","0.0-11.0-0.3","3663","Ez itt egy fincek. Nincs is jobb egy jó...","0","finceknél","[""finceknél"",""finceknál""]","finceknél","esp trial","11","true"
"html-button-response","18","382601","0.0-11.0-1.3","null","<p>A másik játékos ezt választotta: <b>finceknél</b>.</p><p>&#x2705;</p><p>A te válaszod és a másik játékos válasza <b>megegyeznek</b>.</p>","null","","","","feedback trial","",""
"html-button-response-esp","19","389454","0.0-11.0-0.4","3098","Ez itt egy sartely. Ott vagyunk a...","1","sartelyban","[""sartelyben"",""sartelyban""]","sartelyben","esp trial","11","false"
"html-button-response","20","392959","0.0-11.0-1.4","null","<p>A másik játékos ezt választotta: <b>sartelyben</b>.</p><p>&#10060;</p><p>A válaszaitok <b>nem</b> egyeznek meg.</p>","null","","","","feedback trial","",""
"html-button-response-esp","21","399813","0.0-11.0-0.5","3902","Ez itt egy lismév. Ott vagyunk a...","0","lismévban","[""lismévban"",""lismévben""]","lismévben","esp trial","11","false"
"html-button-response","22","403316","0.0-11.0-1.5","null","<p>A másik játékos ezt választotta: <b>lismévben</b>.</p><p>&#10060;</p><p>A válaszaitok <b>nem</b> egyeznek meg.</p>","null","","","","feedback trial","",""
"html-button-response-esp","23","410170","0.0-11.0-0.6","3241","Ez itt egy nidét. Ott vagyunk a...","1","nidétban","[""nidétben"",""nidétban""]","nidétben","esp trial","11","false"
"html-button-response","24","413672","0.0-11.0-1.6","null","<p>A másik játékos ezt választotta: <b>nidétben</b>.</p><p>&#10060;</p><p>A válaszaitok <b>nem</b> egyeznek meg.</p>","null","","","","feedback trial","",""
"html-button-response-esp","25","420524","0.0-11.0-0.7","3430","Ez itt egy brukész. Nincs is jobb egy jó...","0","brukésznál","[""brukésznál"",""brukésznél""]","brukésznél","esp trial","11","false"
"html-button-response","26","424035","0.0-11.0-1.7","null","<p>A másik játékos ezt választotta: <b>brukésznél</b>.</p><p>&#10060;</p><p>A válaszaitok <b>nem</b> egyeznek meg.</p>","null","","","","feedback trial","",""
"html-button-response-esp","27","430887","0.0-11.0-0.8","3547","Ez itt egy vodép. Elneveztem a kutyámat...","0","vodépnek","[""vodépnek"",""vodépnak""]","vodépnek","esp trial","11","true"
"html-button-response","28","434390","0.0-11.0-1.8","null","<p>A másik játékos ezt választotta: <b>vodépnek</b>.</p><p>&#x2705;</p><p>A te válaszod és a másik játékos válasza <b>megegyeznek</b>.</p>","null","","","","feedback trial","",""
"html-button-response-esp","29","441270","0.0-11.0-0.9","3377","Ez itt egy trigenc. Elneveztem a kutyámat...","1","trigencnek","[""trigencnak"",""trigencnek""]","trigencnek","esp trial","11","true"
"html-button-response","30","444782","0.0-11.0-1.9","null","<p>A másik játékos ezt választotta: <b>trigencnek</b>.</p><p>&#x2705;</p><p>A te válaszod és a másik játékos válasza <b>megegyeznek</b>.</p>","null","","","","feedback trial","",""
"html-button-response-esp","31","451642","0.0-11.0-0.10","5181","Ez itt egy jalrény. Nincs is jobb egy jó...","0","jalrénynél","[""jalrénynél"",""jalrénynál""]","jalrénynál","esp trial","11","false"
"html-button-response","32","455146","0.0-11.0-1.10","null","<p>A másik játékos ezt választotta: <b>jalrénynál</b>.</p><p>&#10060;</p><p>A válaszaitok <b>nem</b> egyeznek meg.</p>","null","","","","feedback trial","",""
"html-button-response-esp","33","462003","0.0-11.0-0.11","5656","Ez itt egy brágéd. Elneveztem a kutyámat...","0","brágédnek","[""brágédnek"",""brágédnak""]","brágédnak","esp trial","11","false"
"html-button-response","34","465531","0.0-11.0-1.11","null","<p>A másik játékos ezt választotta: <b>brágédnak</b>.</p><p>&#10060;</p><p>A válaszaitok <b>nem</b> egyeznek meg.</p>","null","","","","feedback trial","",""
"html-button-response-esp","35","472389","0.0-11.0-0.12","2745","Ez itt egy bródesz. Elneveztem a kutyámat...","1","bródesznak","[""bródesznek"",""bródesznak""]","bródesznek","esp trial","11","false"
"html-button-response","36","475903","0.0-11.0-1.12","null","<p>A másik játékos ezt választotta: <b>bródesznek</b>.</p><p>&#10060;</p><p>A válaszaitok <b>nem</b> egyeznek meg.</p>","null","","","","feedback trial","",""
"html-button-response-esp","37","482770","0.0-11.0-0.13","4150","Ez itt egy jábéz. Ott vagyunk a...","0","jábézben","[""jábézben"",""jábézban""]","jábézban","esp trial","11","false"
"html-button-response","38","486293","0.0-11.0-1.13","null","<p>A másik játékos ezt választotta: <b>jábézban</b>.</p><p>&#10060;</p><p>A válaszaitok <b>nem</b> egyeznek meg.</p>","null","","","","feedback trial","",""
"html-button-response-esp","39","493163","0.0-11.0-0.14","2334","Ez itt egy trincseg. Ott vagyunk a...","1","trincsegben","[""trincsegban"",""trincsegben""]","trincsegben","esp trial","11","true"
"html-button-response","40","496682","0.0-11.0-1.14","null","<p>A másik játékos ezt választotta: <b>trincsegben</b>.</p><p>&#x2705;</p><p>A te válaszod és a másik játékos válasza <b>megegyeznek</b>.</p>","null","","","","feedback trial","",""
"html-button-response-esp","41","503539","0.0-11.0-0.15","3615","Ez itt egy nyarcéj. Elneveztem a kutyámat...","1","nyarcéjnak","[""nyarcéjnek"",""nyarcéjnak""]","nyarcéjnak","esp trial","11","true"
"html-button-response","42","507057","0.0-11.0-1.15","null","<p>A másik játékos ezt választotta: <b>nyarcéjnak</b>.</p><p>&#x2705;</p><p>A te válaszod és a másik játékos válasza <b>megegyeznek</b>.</p>","null","","","","feedback trial","",""
"html-button-response-esp","43","513929","0.0-11.0-0.16","3690","Ez itt egy giheszt. Elneveztem a kutyámat...","1","gihesztnek","[""gihesztnak"",""gihesztnek""]","gihesztnek","esp trial","11","true"
"html-button-response","44","517453","0.0-11.0-1.16","null","<p>A másik játékos ezt választotta: <b>gihesztnek</b>.</p><p>&#x2705;</p><p>A te válaszod és a másik játékos válasza <b>megegyeznek</b>.</p>","null","","","","feedback trial","",""
"html-button-response-esp","45","524324","0.0-11.0-0.17","3362","Ez itt egy ikszert. Ott vagyunk a...","0","ikszertben","[""ikszertben"",""ikszertban""]","ikszertben","esp trial","11","true"
"html-button-response","46","527831","0.0-11.0-1.17","null","<p>A másik játékos ezt választotta: <b>ikszertben</b>.</p><p>&#x2705;</p><p>A te válaszod és a másik játékos válasza <b>megegyeznek</b>.</p>","null","","","","feedback trial","",""
"html-button-response-esp","47","539048","0.0-11.0-0.18","10716","Ez itt egy prately. Elneveztem a kutyámat...","0","pratelynak","[""pratelynak"",""pratelynek""]","pratelynek","esp trial","11","false"
"html-button-response","48","542560","0.0-11.0-1.18","null","<p>A másik játékos ezt választotta: <b>pratelynek</b>.</p><p>&#10060;</p><p>A válaszaitok <b>nem</b> egyeznek meg.</p>","null","","","","feedback trial","",""
"html-button-response-esp","49","549412","0.0-11.0-0.19","3482","Ez itt egy klordény. Elneveztem a kutyámat...","1","klordénynak","[""klordénynek"",""klordénynak""]","klordénynak","esp trial","11","true"
"html-button-response","50","552923","0.0-11.0-1.19","null","<p>A másik játékos ezt választotta: <b>klordénynak</b>.</p><p>&#x2705;</p><p>A te válaszod és a másik játékos válasza <b>megegyeznek</b>.</p>","null","","","","feedback trial","",""
"html-button-response-esp","51","559779","0.0-11.0-0.20","3300","Ez itt egy nyábét. Ott vagyunk a...","1","nyábétban","[""nyábétben"",""nyábétban""]","nyábétban","esp trial","11","true"
"html-button-response","52","563298","0.0-11.0-1.20","null","<p>A másik játékos ezt választotta: <b>nyábétban</b>.</p><p>&#x2705;</p><p>A te válaszod és a másik játékos válasza <b>megegyeznek</b>.</p>","null","","","","feedback trial","",""
"html-button-response-esp","53","570165","0.0-11.0-0.21","4366","Ez itt egy brotes. Ott vagyunk a...","0","brotesban","[""brotesban"",""brotesben""]","brotesban","esp trial","11","true"
"html-button-response","54","573674","0.0-11.0-1.21","null","<p>A másik játékos ezt választotta: <b>brotesban</b>.</p><p>&#x2705;</p><p>A te válaszod és a másik játékos válasza <b>megegyeznek</b>.</p>","null","","","","feedback trial","",""
"html-button-response-esp","55","580544","0.0-11.0-0.22","4949","Ez itt egy tránély. Elneveztem a kutyámat...","1","tránélynak","[""tránélynek"",""tránélynak""]","tránélynak","esp trial","11","true"
"html-button-response","56","584053","0.0-11.0-1.22","null","<p>A másik játékos ezt választotta: <b>tránélynak</b>.</p><p>&#x2705;</p><p>A te válaszod és a másik játékos válasza <b>megegyeznek</b>.</p>","null","","","","feedback trial","",""
"html-button-response-esp","57","590904","0.0-11.0-0.23","5025","Ez itt egy priszkenc. Elneveztem a kutyámat...","0","priszkencnek","[""priszkencnek"",""priszkencnak""]","priszkencnek","esp trial","11","true"
"html-button-response","58","594418","0.0-11.0-1.23","null","<p>A másik játékos ezt választotta: <b>priszkencnek</b>.</p><p>&#x2705;</p><p>A te válaszod és a másik játékos válasza <b>megegyeznek</b>.</p>","null","","","","feedback trial","",""
"html-button-response-esp","59","601290","0.0-11.0-0.24","3929","Ez itt egy szihét. Elneveztem a kutyámat...","0","szihétnek","[""szihétnek"",""szihétnak""]","szihétnek","esp trial","11","true"
"html-button-response","60","604805","0.0-11.0-1.24","null","<p>A másik játékos ezt választotta: <b>szihétnek</b>.</p><p>&#x2705;</p><p>A te válaszod és a másik játékos válasza <b>megegyeznek</b>.</p>","null","","","","feedback trial","",""
"html-button-response-esp","61","611677","0.0-11.0-0.25","5655","Ez itt egy ronvet. Elneveztem a kutyámat...","0","ronvetnek","[""ronvetnek"",""ronvetnak""]","ronvetnek","esp trial","11","true"
"html-button-response","62","615187","0.0-11.0-1.25","null","<p>A másik játékos ezt választotta: <b>ronvetnek</b>.</p><p>&#x2705;</p><p>A te válaszod és a másik játékos válasza <b>megegyeznek</b>.</p>","null","","","","feedback trial","",""
"html-button-response-esp","63","622067","0.0-11.0-0.26","3607","Ez itt egy bidem. Ott vagyunk a...","1","bidemben","[""bidemban"",""bidemben""]","bidemben","esp trial","11","true"
"html-button-response","64","625593","0.0-11.0-1.26","null","<p>A másik játékos ezt választotta: <b>bidemben</b>.</p><p>&#x2705;</p><p>A te válaszod és a másik játékos válasza <b>megegyeznek</b>.</p>","null","","","","feedback trial","",""
"html-button-response-esp","65","632456","0.0-11.0-0.27","3735","Ez itt egy brigeszt. Elneveztem a kutyámat...","0","brigesztnek","[""brigesztnek"",""brigesztnak""]","brigesztnek","esp trial","11","true"
"html-button-response","66","635979","0.0-11.0-1.27","null","<p>A másik játékos ezt választotta: <b>brigesztnek</b>.</p><p>&#x2705;</p><p>A te válaszod és a másik játékos válasza <b>megegyeznek</b>.</p>","null","","","","feedback trial","",""
"html-button-response-esp","67","642836","0.0-11.0-0.28","3446","Ez itt egy fádens. Elneveztem a kutyámat...","0","fádensnek","[""fádensnek"",""fádensnak""]","fádensnek","esp trial","11","true"
"html-button-response","68","646362","0.0-11.0-1.28","null","<p>A másik játékos ezt választotta: <b>fádensnek</b>.</p><p>&#x2705;</p><p>A te válaszod és a másik játékos válasza <b>megegyeznek</b>.</p>","null","","","","feedback trial","",""
"html-button-response-esp","69","653237","0.0-11.0-0.29","2919","Ez itt egy vublet. Nincs is jobb egy jó...","0","vubletnél","[""vubletnél"",""vubletnál""]","vubletnél","esp trial","11","true"
"html-button-response","70","656747","0.0-11.0-1.29","null","<p>A másik játékos ezt választotta: <b>vubletnél</b>.</p><p>&#x2705;</p><p>A te válaszod és a másik játékos válasza <b>megegyeznek</b>.</p>","null","","","","feedback trial","",""
"html-button-response-esp","71","663618","0.0-11.0-0.30","4488","Ez itt egy sprízem. Nincs is jobb egy jó...","1","sprízemnél","[""sprízemnál"",""sprízemnél""]","sprízemnél","esp trial","11","true"
"html-button-response","72","667132","0.0-11.0-1.30","null","<p>A másik játékos ezt választotta: <b>sprízemnél</b>.</p><p>&#x2705;</p><p>A te válaszod és a másik játékos válasza <b>megegyeznek</b>.</p>","null","","","","feedback trial","",""
"html-button-response-esp","73","674006","0.0-11.0-0.31","2396","Ez itt egy licegy. Ott vagyunk a...","1","licegyben","[""licegyban"",""licegyben""]","licegyben","esp trial","11","true"
"html-button-response","74","677518","0.0-11.0-1.31","null","<p>A másik játékos ezt választotta: <b>licegyben</b>.</p><p>&#x2705;</p><p>A te válaszod és a másik játékos válasza <b>megegyeznek</b>.</p>","null","","","","feedback trial","",""
"html-button-response-esp","75","684377","0.0-11.0-0.32","4586","Ez itt egy kadér. Nincs is jobb egy jó...","1","kadérnál","[""kadérnél"",""kadérnál""]","kadérnál","esp trial","11","true"
"html-button-response","76","687899","0.0-11.0-1.32","null","<p>A másik játékos ezt választotta: <b>kadérnál</b>.</p><p>&#x2705;</p><p>A te válaszod és a másik játékos válasza <b>megegyeznek</b>.</p>","null","","","","feedback trial","",""
"html-button-response-esp","77","694759","0.0-11.0-0.33","2860","Ez itt egy dingec. Elneveztem a kutyámat...","1","dingecnek","[""dingecnak"",""dingecnek""]","dingecnek","esp trial","11","true"
"html-button-response","78","698273","0.0-11.0-1.33","null","<p>A másik játékos ezt választotta: <b>dingecnek</b>.</p><p>&#x2705;</p><p>A te válaszod és a másik játékos válasza <b>megegyeznek</b>.</p>","null","","","","feedback trial","",""
"html-button-response-esp","79","705614","0.0-11.0-0.34","6826","Ez itt egy jorzég. Elneveztem a kutyámat...","1","jorzégnek","[""jorzégnak"",""jorzégnek""]","jorzégnek","esp trial","11","true"
"html-button-response","80","709126","0.0-11.0-1.34","null","<p>A másik játékos ezt választotta: <b>jorzégnek</b>.</p><p>&#x2705;</p><p>A te válaszod és a másik játékos válasza <b>megegyeznek</b>.</p>","null","","","","feedback trial","",""
"html-button-response-esp","81","715993","0.0-11.0-0.35","4711","Ez itt egy zsopéd. Ott vagyunk a...","1","zsopédban","[""zsopédben"",""zsopédban""]","zsopédban","esp trial","11","true"
"html-button-response","82","719511","0.0-11.0-1.35","null","<p>A másik játékos ezt választotta: <b>zsopédban</b>.</p><p>&#x2705;</p><p>A te válaszod és a másik játékos válasza <b>megegyeznek</b>.</p>","null","","","","feedback trial","",""
"html-button-response-esp","83","728443","0.0-11.0-0.36","8424","Ez itt egy csartény. Elneveztem a kutyámat...","0","csarténynak","[""csarténynak"",""csarténynek""]","csarténynak","esp trial","11","true"
"html-button-response","84","731945","0.0-11.0-1.36","null","<p>A másik játékos ezt választotta: <b>csarténynak</b>.</p><p>&#x2705;</p><p>A te válaszod és a másik játékos válasza <b>megegyeznek</b>.</p>","null","","","","feedback trial","",""
"html-button-response-esp","85","738807","0.0-11.0-0.37","2752","Ez itt egy szutend. Ott vagyunk a...","1","szutendben","[""szutendban"",""szutendben""]","szutendben","esp trial","11","true"
"html-button-response","86","742334","0.0-11.0-1.37","null","<p>A másik játékos ezt választotta: <b>szutendben</b>.</p><p>&#x2705;</p><p>A te válaszod és a másik játékos válasza <b>megegyeznek</b>.</p>","null","","","","feedback trial","",""
"html-button-response-esp","87","749205","0.0-11.0-0.38","4399","Ez itt egy kliszer. Nincs is jobb egy jó...","0","kliszernél","[""kliszernél"",""kliszernál""]","kliszernél","esp trial","11","true"
"html-button-response","88","752716","0.0-11.0-1.38","null","<p>A másik játékos ezt választotta: <b>kliszernél</b>.</p><p>&#x2705;</p><p>A te válaszod és a másik játékos válasza <b>megegyeznek</b>.</p>","null","","","","feedback trial","",""
"html-button-response-esp","89","759594","0.0-11.0-0.39","3454","Ez itt egy gicéj. Nincs is jobb egy jó...","0","gicéjnél","[""gicéjnél"",""gicéjnál""]","gicéjnél","esp trial","11","true"
"html-button-response","90","763108","0.0-11.0-1.39","null","<p>A másik játékos ezt választotta: <b>gicéjnél</b>.</p><p>&#x2705;</p><p>A te válaszod és a másik játékos válasza <b>megegyeznek</b>.</p>","null","","","","feedback trial","",""
"html-button-response-esp","91","769970","0.0-11.0-0.40","4088","Ez itt egy buhény. Ott vagyunk a...","0","buhényban","[""buhényban"",""buhényben""]","buhényban","esp trial","11","true"
"html-button-response","92","773477","0.0-11.0-1.40","null","<p>A másik játékos ezt választotta: <b>buhényban</b>.</p><p>&#x2705;</p><p>A te válaszod és a másik játékos válasza <b>megegyeznek</b>.</p>","null","","","","feedback trial","",""
"html-button-response-esp","93","780341","0.0-11.0-0.41","5366","Ez itt egy tranék. Ott vagyunk a...","1","tranékban","[""tranékben"",""tranékban""]","tranékban","esp trial","11","true"
"html-button-response","94","783856","0.0-11.0-1.41","null","<p>A másik játékos ezt választotta: <b>tranékban</b>.</p><p>&#x2705;</p><p>A te válaszod és a másik játékos válasza <b>megegyeznek</b>.</p>","null","","","","feedback trial","",""
"html-button-response-esp","95","790713","0.0-11.0-0.42","3735","Ez itt egy kluhéj. Nincs is jobb egy jó...","0","kluhéjnál","[""kluhéjnál"",""kluhéjnél""]","kluhéjnál","esp trial","11","true"
"html-button-response","96","794228","0.0-11.0-1.42","null","<p>A másik játékos ezt választotta: <b>kluhéjnál</b>.</p><p>&#x2705;</p><p>A te válaszod és a másik játékos válasza <b>megegyeznek</b>.</p>","null","","","","feedback trial","",""
"html-button-response-esp","97","801097","0.0-11.0-0.43","3104","Ez itt egy gótem. Elneveztem a kutyámat...","0","gótemnek","[""gótemnek"",""gótemnak""]","gótemnek","esp trial","11","true"
"html-button-response","98","804616","0.0-11.0-1.43","null","<p>A másik játékos ezt választotta: <b>gótemnek</b>.</p><p>&#x2705;</p><p>A te válaszod és a másik játékos válasza <b>megegyeznek</b>.</p>","null","","","","feedback trial","",""
"html-button-response-esp","99","811490","0.0-11.0-0.44","3318","Ez itt egy navec. Ott vagyunk a...","0","navecben","[""navecben"",""navecban""]","navecben","esp trial","11","true"
"html-button-response","100","815000","0.0-11.0-1.44","null","<p>A másik játékos ezt választotta: <b>navecben</b>.</p><p>&#x2705;</p><p>A te válaszod és a másik játékos válasza <b>megegyeznek</b>.</p>","null","","","","feedback trial","",""
"html-button-response-esp","101","821869","0.0-11.0-0.45","4605","Ez itt egy sporzem. Elneveztem a kutyámat...","0","sporzemnek","[""sporzemnek"",""sporzemnak""]","sporzemnek","esp trial","11","true"
"html-button-response","102","825388","0.0-11.0-1.45","null","<p>A másik játékos ezt választotta: <b>sporzemnek</b>.</p><p>&#x2705;</p><p>A te válaszod és a másik játékos válasza <b>megegyeznek</b>.</p>","null","","","","feedback trial","",""
"html-button-response-esp","103","832258","0.0-11.0-0.46","4240","Ez itt egy hivép. Ott vagyunk a...","0","hivépben","[""hivépben"",""hivépban""]","hivépben","esp trial","11","true"
"html-button-response","104","835776","0.0-11.0-1.46","null","<p>A másik játékos ezt választotta: <b>hivépben</b>.</p><p>&#x2705;</p><p>A te válaszod és a másik játékos válasza <b>megegyeznek</b>.</p>","null","","","","feedback trial","",""
"html-button-response-esp","105","842631","0.0-11.0-0.47","3948","Ez itt egy trapszegy. Nincs is jobb egy jó...","0","trapszegynél","[""trapszegynél"",""trapszegynál""]","trapszegynél","esp trial","11","true"
"html-button-response","106","846145","0.0-11.0-1.47","null","<p>A másik játékos ezt választotta: <b>trapszegynél</b>.</p><p>&#x2705;</p><p>A te válaszod és a másik játékos válasza <b>megegyeznek</b>.</p>","null","","","","feedback trial","",""
"html-button-response-esp","107","853880","0.0-11.0-0.48","7229","Ez itt egy kábesz. Nincs is jobb egy jó...","1","kábesznél","[""kábesznál"",""kábesznél""]","kábesznél","esp trial","11","true"
"html-button-response","108","857384","0.0-11.0-1.48","null","<p>A másik játékos ezt választotta: <b>kábesznél</b>.</p><p>&#x2705;</p><p>A te válaszod és a másik játékos válasza <b>megegyeznek</b>.</p>","null","","","","feedback trial","",""
"html-button-response-esp","109","864590","0.0-11.0-0.49","6705","Ez itt egy forzéd. Elneveztem a kutyámat...","1","forzédnek","[""forzédnak"",""forzédnek""]","forzédnek","esp trial","11","true"
"html-button-response","110","868100","0.0-11.0-1.49","null","<p>A másik játékos ezt választotta: <b>forzédnek</b>.</p><p>&#x2705;</p><p>A te válaszod és a másik játékos válasza <b>megegyeznek</b>.</p>","null","","","","feedback trial","",""
"html-button-response-esp","111","874969","0.0-11.0-0.50","4996","Ez itt egy júder. Elneveztem a kutyámat...","1","júdernek","[""júdernak"",""júdernek""]","júdernek","esp trial","11","true"
"html-button-response","112","878478","0.0-11.0-1.50","null","<p>A másik játékos ezt választotta: <b>júdernek</b>.</p><p>&#x2705;</p><p>A te válaszod és a másik játékos válasza <b>megegyeznek</b>.</p>","null","","","","feedback trial","",""
"html-button-response-esp","113","885344","0.0-11.0-0.51","3826","Ez itt egy hóbens. Ott vagyunk a...","0","hóbensben","[""hóbensben"",""hóbensban""]","hóbensben","esp trial","11","true"
"html-button-response","114","888863","0.0-11.0-1.51","null","<p>A másik játékos ezt választotta: <b>hóbensben</b>.</p><p>&#x2705;</p><p>A te válaszod és a másik játékos válasza <b>megegyeznek</b>.</p>","null","","","","feedback trial","",""
"html-button-response-esp","115","895729","0.0-11.0-0.52","4850","Ez itt egy gonszék. Nincs is jobb egy jó...","1","gonszéknél","[""gonszéknál"",""gonszéknél""]","gonszéknél","esp trial","11","true"
"html-button-response","116","899240","0.0-11.0-1.52","null","<p>A másik játékos ezt választotta: <b>gonszéknél</b>.</p><p>&#x2705;</p><p>A te válaszod és a másik játékos válasza <b>megegyeznek</b>.</p>","null","","","","feedback trial","",""
"html-button-response-esp","117","906111","0.0-11.0-0.53","3435","Ez itt egy spáten. Elneveztem a kutyámat...","0","spátennek","[""spátennek"",""spátennak""]","spátennek","esp trial","11","true"
"html-button-response","118","909626","0.0-11.0-1.53","null","<p>A másik játékos ezt választotta: <b>spátennek</b>.</p><p>&#x2705;</p><p>A te válaszod és a másik játékos válasza <b>megegyeznek</b>.</p>","null","","","","feedback trial","",""
"html-button-response","119","918911","0.0-12.0","8782","<p>A közös játék most véget ért.</p><p>Mielőtt eláruljuk a végső pontszámodat, arra kérlek, játszd a szóválasztós játékot néhány percig egyedül is.</p><p>A feladatod ugyanaz lesz, választani két lehetőség közül.</p><p>Most viszont egyedül kell döntened, hogy te melyiket választanád.</p>","0","","","","","",""
"html-button-response-clever","120","925741","0.0-13.0-0.0","6327","Ez itt egy kaszép. Elneveztem a kutyámat...","0","kaszépnak","[""kaszépnak"",""kaszépnek""]","","posttest trial","1",""
"html-button-response-clever","121","929545","0.0-13.0-0.1","3300","Ez itt egy priszec. Ott vagyunk a...","1","priszecben","[""priszecban"",""priszecben""]","","posttest trial","1",""
"html-button-response-clever","122","933819","0.0-13.0-0.2","3765","Ez itt egy nyupér. Nincs is jobb egy jó...","1","nyupérnál","[""nyupérnél"",""nyupérnál""]","","posttest trial","1",""
"html-button-response-clever","123","937944","0.0-13.0-0.3","3623","Ez itt egy dorzéj. Elneveztem a kutyámat...","0","dorzéjnak","[""dorzéjnak"",""dorzéjnek""]","","posttest trial","1",""
"html-button-response-clever","124","941542","0.0-13.0-0.4","3094","Ez itt egy narem. Ott vagyunk a...","1","naremben","[""naremban"",""naremben""]","","posttest trial","1",""
"html-button-response-clever","125","944784","0.0-13.0-0.5","2738","Ez itt egy zsúdel. Elneveztem a kutyámat...","1","zsúdelnek","[""zsúdelnak"",""zsúdelnek""]","","posttest trial","1",""
"html-button-response-clever","126","948358","0.0-13.0-0.6","3072","Ez itt egy darhén. Ott vagyunk a...","0","darhénban","[""darhénban"",""darhénben""]","","posttest trial","1",""
"html-button-response-clever","127","951732","0.0-13.0-0.7","2870","Ez itt egy kátel. Elneveztem a kutyámat...","0","kátelnek","[""kátelnek"",""kátelnak""]","","posttest trial","1",""
"html-button-response-clever","128","957405","0.0-13.0-0.8","5154","Ez itt egy trájeg. Ott vagyunk a...","1","trájegben","[""trájegban"",""trájegben""]","","posttest trial","1",""
"html-button-response-clever","129","960448","0.0-13.0-0.9","2535","Ez itt egy bupéz. Ott vagyunk a...","1","bupézban","[""bupézben"",""bupézban""]","","posttest trial","1",""
"html-button-response-clever","130","963095","0.0-13.0-0.10","2132","Ez itt egy bralkép. Ott vagyunk a...","0","bralképban","[""bralképban"",""bralképben""]","","posttest trial","1",""
"html-button-response-clever","131","965955","0.0-13.0-0.11","2349","Ez itt egy pivéd. Ott vagyunk a...","0","pivédban","[""pivédban"",""pivédben""]","","posttest trial","1",""
"html-button-response-clever","132","971048","0.0-13.0-0.12","4578","Ez itt egy klosét. Elneveztem a kutyámat...","0","klosétnak","[""klosétnak"",""klosétnek""]","","posttest trial","1",""
"html-button-response-clever","133","975180","0.0-13.0-0.13","3619","Ez itt egy pisély. Ott vagyunk a...","0","pisélyben","[""pisélyben"",""pisélyban""]","","posttest trial","1",""
"html-button-response-clever","134","979221","0.0-13.0-0.14","3527","Ez itt egy kalhész. Elneveztem a kutyámat...","1","kalhésznak","[""kalhésznek"",""kalhésznak""]","","posttest trial","1",""
"html-button-response-clever","135","984444","0.0-13.0-0.15","4713","Ez itt egy spanél. Nincs is jobb egy jó...","0","spanélnál","[""spanélnál"",""spanélnél""]","","posttest trial","1",""
"html-button-response-clever","136","988130","0.0-13.0-0.16","3178","Ez itt egy dihely. Elneveztem a kutyámat...","0","dihelynek","[""dihelynek"",""dihelynak""]","","posttest trial","1",""
"html-button-response-clever","137","992374","0.0-13.0-0.17","3743","Ez itt egy vorszen. Nincs is jobb egy jó...","0","vorszennál","[""vorszennál"",""vorszennél""]","","posttest trial","1",""
"html-button-response-clever","138","996988","0.0-13.0-0.18","4096","Ez itt egy nyamet. Ott vagyunk a...","0","nyametben","[""nyametben"",""nyametban""]","","posttest trial","1",""
"html-button-response-clever","139","999792","0.0-13.0-0.19","2292","Ez itt egy luméz. Ott vagyunk a...","1","lumézban","[""lumézben"",""lumézban""]","","posttest trial","1",""
"html-button-response-clever","140","1003315","0.0-13.0-0.20","3017","Ez itt egy garcép. Nincs is jobb egy jó...","1","garcépnál","[""garcépnél"",""garcépnál""]","","posttest trial","1",""
"html-button-response-clever","141","1006110","0.0-13.0-0.21","2290","Ez itt egy zsigén. Nincs is jobb egy jó...","1","zsigénnél","[""zsigénnál"",""zsigénnél""]","","posttest trial","1",""
"html-button-response-clever","142","1011988","0.0-13.0-0.22","5374","Ez itt egy hágyét. Elneveztem a kutyámat...","1","hágyétnak","[""hágyétnek"",""hágyétnak""]","","posttest trial","1",""
"html-button-response-clever","143","1016814","0.0-13.0-0.23","4314","Ez itt egy zihenc. Elneveztem a kutyámat...","1","zihencnek","[""zihencnak"",""zihencnek""]","","posttest trial","1",""
"html-button-response-clever","144","1020383","0.0-13.0-0.24","3064","Ez itt egy sprivenc. Nincs is jobb egy jó...","0","sprivencnél","[""sprivencnél"",""sprivencnál""]","","posttest trial","1",""
"html-button-response-clever","145","1022930","0.0-13.0-0.25","2037","Ez itt egy pijél. Nincs is jobb egy jó...","0","pijélnél","[""pijélnél"",""pijélnál""]","","posttest trial","1",""
"html-button-response-clever","146","1027080","0.0-13.0-0.26","3648","Ez itt egy monveg. Nincs is jobb egy jó...","1","monvegnál","[""monvegnél"",""monvegnál""]","","posttest trial","1",""
"html-button-response-clever","147","1029696","0.0-13.0-0.27","2106","Ez itt egy braszenc. Nincs is jobb egy jó...","1","braszencnél","[""braszencnál"",""braszencnél""]","","posttest trial","1",""
"html-button-response-clever","148","1031984","0.0-13.0-0.28","1786","Ez itt egy jukél. Nincs is jobb egy jó...","1","jukélnál","[""jukélnél"",""jukélnál""]","","posttest trial","1",""
"html-button-response-clever","149","1039986","0.0-13.0-0.29","7499","Ez itt egy spumény. Elneveztem a kutyámat...","1","spuménynak","[""spuménynek"",""spuménynak""]","","posttest trial","1",""
"html-button-response-clever","150","1043745","0.0-13.0-0.30","3253","Ez itt egy pítend. Ott vagyunk a...","0","pítendben","[""pítendben"",""pítendban""]","","posttest trial","1",""
"html-button-response-clever","151","1048391","0.0-13.0-0.31","4129","Ez itt egy incéj. Elneveztem a kutyámat...","0","incéjnek","[""incéjnek"",""incéjnak""]","","posttest trial","1",""
"html-button-response-clever","152","1051777","0.0-13.0-0.32","2881","Ez itt egy dalenc. Nincs is jobb egy jó...","0","dalencnál","[""dalencnál"",""dalencnél""]","","posttest trial","1",""
"html-button-response-clever","153","1054427","0.0-13.0-0.33","2145","Ez itt egy ítens. Ott vagyunk a...","1","ítensben","[""ítensban"",""ítensben""]","","posttest trial","1",""
"html-button-response-clever","154","1057867","0.0-13.0-0.34","2938","Ez itt egy spicet. Elneveztem a kutyámat...","0","spicetnek","[""spicetnek"",""spicetnak""]","","posttest trial","1",""
"html-button-response-clever","155","1061055","0.0-13.0-0.35","2686","Ez itt egy tosély. Ott vagyunk a...","0","tosélyban","[""tosélyban"",""tosélyben""]","","posttest trial","1",""
"html-button-response-clever","156","1064283","0.0-13.0-0.36","2713","Ez itt egy spábét. Ott vagyunk a...","1","spábétban","[""spábétben"",""spábétban""]","","posttest trial","1",""
"html-button-response-clever","157","1068118","0.0-13.0-0.37","3332","Ez itt egy brindez. Elneveztem a kutyámat...","1","brindeznek","[""brindeznak"",""brindeznek""]","","posttest trial","1",""
"html-button-response-clever","158","1070766","0.0-13.0-0.38","2144","Ez itt egy dábegy. Ott vagyunk a...","0","dábegyban","[""dábegyban"",""dábegyben""]","","posttest trial","1",""
"html-button-response-clever","159","1075500","0.0-13.0-0.39","4230","Ez itt egy trismél. Elneveztem a kutyámat...","0","trismélnek","[""trismélnek"",""trismélnak""]","","posttest trial","1",""
"html-button-response-clever","160","1077690","0.0-13.0-0.40","1682","Ez itt egy jóbec. Elneveztem a kutyámat...","0","jóbecnek","[""jóbecnek"",""jóbecnak""]","","posttest trial","1",""
"html-button-response-clever","161","1081163","0.0-13.0-0.41","2962","Ez itt egy gúden. Ott vagyunk a...","0","gúdenban","[""gúdenban"",""gúdenben""]","","posttest trial","1",""
"html-button-response-clever","162","1086247","0.0-13.0-0.42","4570","Ez itt egy lorzens. Nincs is jobb egy jó...","0","lorzensnál","[""lorzensnál"",""lorzensnél""]","","posttest trial","1",""
"html-button-response-clever","163","1088931","0.0-13.0-0.43","2170","Ez itt egy zopély. Nincs is jobb egy jó...","1","zopélynál","[""zopélynél"",""zopélynál""]","","posttest trial","1",""
"html-button-response-clever","164","1092011","0.0-13.0-0.44","2575","Ez itt egy danét. Nincs is jobb egy jó...","0","danétnál","[""danétnál"",""danétnél""]","","posttest trial","1",""
"html-button-response-clever","165","1095233","0.0-13.0-0.45","2718","Ez itt egy kalréz. Ott vagyunk a...","1","kalrézban","[""kalrézben"",""kalrézban""]","","posttest trial","1",""
"html-button-response-clever","166","1098065","0.0-13.0-0.46","2313","Ez itt egy zsáder. Ott vagyunk a...","1","zsáderban","[""zsáderben"",""zsáderban""]","","posttest trial","1",""
"html-button-response-clever","167","1100957","0.0-13.0-0.47","2385","Ez itt egy ronszek. Ott vagyunk a...","0","ronszekban","[""ronszekban"",""ronszekben""]","","posttest trial","1",""
"html-button-response-clever","168","1104741","0.0-13.0-0.48","3279","Ez itt egy zsádév. Elneveztem a kutyámat...","0","zsádévnak","[""zsádévnak"",""zsádévnek""]","","posttest trial","1",""
"html-button-response-clever","169","1107765","0.0-13.0-0.49","2510","Ez itt egy fájéz. Ott vagyunk a...","1","fájézban","[""fájézben"",""fájézban""]","","posttest trial","1",""
"html-button-response-clever","170","1112144","0.0-13.0-0.50","3873","Ez itt egy sortem. Nincs is jobb egy jó...","1","sortemnél","[""sortemnál"",""sortemnél""]","","posttest trial","1",""
"html-button-response-clever","171","1115289","0.0-13.0-0.51","2636","Ez itt egy nyítem. Ott vagyunk a...","1","nyítemben","[""nyítemban"",""nyítemben""]","","posttest trial","1",""
"html-button-response-clever","172","1121471","0.0-13.0-0.52","5678","Ez itt egy rapszek. Nincs is jobb egy jó...","1","rapszeknál","[""rapszeknél"",""rapszeknál""]","","posttest trial","1",""
"html-button-response-clever","173","1125434","0.0-13.0-0.53","3454","Ez itt egy klingesz. Ott vagyunk a...","0","klingeszben","[""klingeszben"",""klingeszban""]","","posttest trial","1",""
"html-button-response","174","1133036","0.0-14.0","7099","<p> Vége a játéknak. A teljes pontszámod 45/54.</p><p> Szép munka! &#128526;&#128526;&#128526;</p><p>A Befejezés gomb megnyomása után bezárhatod a böngészőablakot.</p>","0","","","","","",""
"html-keyboard-response","175","1138549","0.0-15.0","null","<div class=""message"">
         <p>Egy kis türelmet kérünk, amíg elmentjük az adatokat...</p>
         </div>","null","","","","","",""
