"trial_type","trial_index","time_elapsed","internal_node_id","rt","stimulus","response","response_string","choices","esp_response","trial_kind","list_number","esp_match"
"pavlovia","0","763","0.0-0.0","","","","","","","","",""
"html-button-response","1","49365","0.0-1.0","48099","<p>Kedves Résztvevő! A Budapesti Műszaki és Gazdaságtudományi Egyetem Kognitív Tudományi Tanszékének kutatásában való részvételed kérjük. A kutatásban azt vizsgáljuk, hogy a magyar anyanyelvűek hogyan használnak bizonyos szóalakokat, és hogy milyen képük van arról, hogy mások hogyan használják, hogyan képzik a szavakat. Ez hozzásegít bennünket ahhoz, hogy jobban megértsük, hogyan dolgozza fel és tárolja a nyelvet az emberi agy, és hogyan működnek, hogyan változnak egy adott közösség nyelvi konvenciói.</p><p>A vizsgálat egy rövid számítógépes feladatból fog állni. A kutatásban való részvétel önkéntes, a részvételi szándék bármikor visszavonható. A résztvevők eredményeit név nélkül kezeljük, így nem beazonosíthatók az adatok feldolgozása során. Minden személyes adatot az EU általános adatvédelmi rendeletének (GDPR) megfelelően kezelünk és legfeljebb öt éven belül megsemmisítünk. A vizsgálat jellemzően húsz percet vesz igénybe.</p><p>Kutatásvezető:</p><p>Dr. Rácz Péter, tudományos munkatárs, BME KTT</p><p>e-mail: racz.peter.marton@ttk.bme.hu</p>","0","","","","","",""
"html-button-response","2","112411","0.0-2.0","62538","<p>A kísérletben szavakat fogsz látni. Ezek között lesznek olyanok, amelyeket ismersz, de előfordulhatnak olyanok is, amelyeket nem ismersz, sőt, vannak köztük kitalált szavak is. Minden szónál látni fogsz toldalékolt alakokat. A te feladatod az lesz, hogy minden szóhoz kiválaszd azt a toldalékolt alakot, amely a te számodra ismerősebben, természetesebben hangzik. Rossz válaszok nincsenek, mert van olyan, hogy különböző embereknek más és más szó tűnik jobb választásnak. A választ úgy tudod majd kiválasztani, ha rákattintasz.</p><p>Ebben a szóválasztós játékban egy másik játékossal együtt veszel majd részt. A másik játékos is minden esetben azok közül a lehetőségek közül válogathat, mint te. Kettőtök feladata az, hogy ugyanazt a lehetőséget válasszátok minden esetben. Ahhoz, hogy ez sikerüljön, neked figyelned kell arra, hogy a másik játékos milyen válaszokat ad, és ennek alapján meg kell tippelned, hogyan választ legközelebb. Ha eltalálod, akkor pontot kapsz.</p>","0","","","","","",""
"html-button-response","3","130458","0.0-3.0","17532","<p>Kérjük, olvasd el az alábbi nyilatkozatot, és amennyiben egyetértesz vele, nyomj a Beleegyezés gombra!</p><p>Kijelentem, hogy magyar anyanyelvű személyként önként veszek részt a BME KTT kísérletében. A kutatás céljával és folyamatával kapcsolatban elegendő tájékoztatást kaptam, lehetőségem volt kérdések feltételére, és esetleges kérdéseimre megfelelő válaszokat kaptam. A tájékoztatás alapján elegendő mennyiségű információ áll a rendelkezésemre, hogy eldönthessem, részt kívánok-e venni a kutatásban.</p><p>Tisztában vagyok vele, hogy részvételi szándékomat és adataimat bármikor, indoklás nélkül visszavonhatom.</p><p>Értem és tudomásul veszem, hogy a kutatás tudományos célokat szolgál, és az általam szolgáltatott adatokat a BME kizárólag kutatási célból használja fel. Tudomásul veszem, hogy eredményeimet a többi résztvevő eredményeivel együtt kezelik, így egyéni teljesítményemről visszajelzést, szakvéleményt nem kapok.</p><p>Megértettem, hogy adataim kezelését illetően a BME az EU általános adatvédelmi rendelete (GDPR), a hatályos adatvédelmi törvény és a nemzetközi kutatás-etikai alapelvek szerint jár el. Eredményeim anonim módon kerülnek feldolgozásra, és a kutatás résztvevői az azonosításomra alkalmas adataimat harmadik félnek nem szolgáltatják ki. Engedélyezem a BME számára a jelen kutatásban felvett adataim feldolgozását és tárolását, beleértve azok későbbi kutatásokhoz való felhasználását is. Személyes adataim kezelésével kapcsolatban tájékoztatást kérhetek a kutatás résztvevőitől, az adatkezelés ellen tiltakozhatok, kérhetem személyes adataim helyesbítését, törlését vagy zárolását, valamint jogorvoslatért a Nemzeti Adatvédelmi és Információszabadság Hatósághoz fordulhatok.</p><p>Kijelentem, hogy a kutatásban való részvételem körülményeiről részletes tájékoztatást kaptam, és a feltételeket elfogadom.</p>","0","","","","","",""
"survey-text","4","188988","0.0-4.0","58011","","{""Q0"":""ABW697"",""Q1"":""nő"",""Q2"":""1985"",""Q3"":""19""}","","","","","",""
"html-button-response","5","243902","0.0-5.0","54403","<p>Ebben a játékban szavakat kell toldalékolni.</p> <p>Minden körben mutatunk majd egy példamondatot, amiben lesz egy szó.</p> <p>Alatta jön egy második mondat, ezt a mondatot neked kell majd befejezni, ugyanezzel a szóval.</p> <p>Nem biztos, hogy a szó eleve ismerős lesz számodra!</p> <p>Minden mondathoz adunk két lehetőséget, ezeket balra és jobbra látod majd.</p> <p>A játék kb. negyedóráig-húsz percig tart.</p>","0","","","","","",""
"html-button-response","6","300281","0.0-6.0","55863","<p>Nézzünk egy példát!</p> <p>A példamondat: ""Ez itt egy blumbnyeg.""</p><p>Neked ezt a mondatot kell befejezned: ""Ott vagyunk a...""</p><p>A lehetőségek pedig ezek:</p>","0","","","","","",""
"html-button-response","7","308780","0.0-7.0","7998","<p>Nagyon jó.</p><p>Ezt a játékot nem egyedül fogod játszani, hanem egy másik játékossal.</p><p>Mielőtt továbblépünk, összekapcsolunk titeket egymással.</p><p>Ez igénybe vehet néhány másodpercet, amihez szíves türelmed kérjük.</p>","0","","","","","",""
"html-button-response","8","314528","0.0-8.0","null","<p>Csatlakozás a másik játékoshoz...</p>","null","","","","","",""
"html-button-response","9","317036","0.0-9.0","null","<p> Sikeres kapcsolódás!</p>","null","","","","","",""
"html-button-response","10","327554","0.0-10.0","null","<p>A következőkben ketten játsszátok a szóválasztós játékot.</p><p>A feladatotok az lesz, hogy minden körben <b>ugyanazt</b> a szót válasszátok.</p><p>Minden ilyen egyező válaszért pontot kaptok.</p><p>Próbáld meg kitalálni, mit választ a másik játékos!</p><p>Bármikor választhatsz, a körnek akkor van vége, ha mindketten döntöttetek.</p><p>Sok sikert!</p>","null","","","","","",""
"html-button-response-esp","11","333782","0.0-11.0-0.0","5724","Ez itt egy fájéz. Ott vagyunk a...","0","fájézben","[""fájézben"",""fájézban""]","fájézban","esp trial","1","false"
"html-button-response","12","337293","0.0-11.0-1.0","null","<p>A másik játékos ezt választotta: <b>fájézban</b>.</p><p>&#10060;</p><p>A válaszaitok <b>nem</b> egyeznek meg.</p>","null","","","","feedback trial","",""
"html-button-response-esp","13","342588","0.0-11.0-0.1","4792","Ez itt egy zsúdel. Elneveztem a kutyámat...","0","zsúdelnak","[""zsúdelnak"",""zsúdelnek""]","zsúdelnak","esp trial","1","true"
"html-button-response","14","346104","0.0-11.0-1.1","null","<p>A másik játékos ezt választotta: <b>zsúdelnak</b>.</p><p>&#x2705;</p><p>A te válaszod és a másik játékos válasza <b>megegyeznek</b>.</p>","null","","","","feedback trial","",""
"html-button-response-esp","15","350720","0.0-11.0-0.2","3647","Ez itt egy pítend. Ott vagyunk a...","1","pítendban","[""pítendben"",""pítendban""]","pítendben","esp trial","1","false"
"html-button-response","16","354248","0.0-11.0-1.2","null","<p>A másik játékos ezt választotta: <b>pítendben</b>.</p><p>&#10060;</p><p>A válaszaitok <b>nem</b> egyeznek meg.</p>","null","","","","feedback trial","",""
"html-button-response-esp","17","358865","0.0-11.0-0.3","3502","Ez itt egy hágyét. Elneveztem a kutyámat...","0","hágyétnak","[""hágyétnak"",""hágyétnek""]","hágyétnak","esp trial","1","true"
"html-button-response","18","362375","0.0-11.0-1.3","null","<p>A másik játékos ezt választotta: <b>hágyétnak</b>.</p><p>&#x2705;</p><p>A te válaszod és a másik játékos válasza <b>megegyeznek</b>.</p>","null","","","","feedback trial","",""
"html-button-response-esp","19","367002","0.0-11.0-0.4","4017","Ez itt egy zsigén. Nincs is jobb egy jó...","0","zsigénnél","[""zsigénnél"",""zsigénnál""]","zsigénnél","esp trial","1","true"
"html-button-response","20","370529","0.0-11.0-1.4","null","<p>A másik játékos ezt választotta: <b>zsigénnél</b>.</p><p>&#x2705;</p><p>A te válaszod és a másik játékos válasza <b>megegyeznek</b>.</p>","null","","","","feedback trial","",""
"html-button-response-esp","21","375155","0.0-11.0-0.5","3620","Ez itt egy luméz. Ott vagyunk a...","0","lumézban","[""lumézban"",""lumézben""]","lumézban","esp trial","1","true"
"html-button-response","22","378661","0.0-11.0-1.5","null","<p>A másik játékos ezt választotta: <b>lumézban</b>.</p><p>&#x2705;</p><p>A te válaszod és a másik játékos válasza <b>megegyeznek</b>.</p>","null","","","","feedback trial","",""
"html-button-response-esp","23","383284","0.0-11.0-0.6","3173","Ez itt egy spábét. Ott vagyunk a...","0","spábétban","[""spábétban"",""spábétben""]","spábétban","esp trial","1","true"
"html-button-response","24","386813","0.0-11.0-1.6","null","<p>A másik játékos ezt választotta: <b>spábétban</b>.</p><p>&#x2705;</p><p>A te válaszod és a másik játékos válasza <b>megegyeznek</b>.</p>","null","","","","feedback trial","",""
"html-button-response-esp","25","391440","0.0-11.0-0.7","2762","Ez itt egy kátel. Elneveztem a kutyámat...","0","kátelnek","[""kátelnek"",""kátelnak""]","kátelnak","esp trial","1","false"
"html-button-response","26","394968","0.0-11.0-1.7","null","<p>A másik játékos ezt választotta: <b>kátelnak</b>.</p><p>&#10060;</p><p>A válaszaitok <b>nem</b> egyeznek meg.</p>","null","","","","feedback trial","",""
"html-button-response-esp","27","399588","0.0-11.0-0.8","3363","Ez itt egy dalenc. Nincs is jobb egy jó...","0","dalencnál","[""dalencnál"",""dalencnél""]","dalencnál","esp trial","1","true"
"html-button-response","28","403118","0.0-11.0-1.8","null","<p>A másik játékos ezt választotta: <b>dalencnál</b>.</p><p>&#x2705;</p><p>A te válaszod és a másik játékos válasza <b>megegyeznek</b>.</p>","null","","","","feedback trial","",""
"html-button-response-esp","29","407731","0.0-11.0-0.9","3794","Ez itt egy bralkép. Ott vagyunk a...","0","bralképben","[""bralképben"",""bralképban""]","bralképban","esp trial","1","false"
"html-button-response","30","411241","0.0-11.0-1.9","null","<p>A másik játékos ezt választotta: <b>bralképban</b>.</p><p>&#10060;</p><p>A válaszaitok <b>nem</b> egyeznek meg.</p>","null","","","","feedback trial","",""
"html-button-response-esp","31","415860","0.0-11.0-0.10","3910","Ez itt egy danét. Nincs is jobb egy jó...","1","danétnél","[""danétnál"",""danétnél""]","danétnál","esp trial","1","false"
"html-button-response","32","419383","0.0-11.0-1.10","null","<p>A másik játékos ezt választotta: <b>danétnál</b>.</p><p>&#10060;</p><p>A válaszaitok <b>nem</b> egyeznek meg.</p>","null","","","","feedback trial","",""
"html-button-response-esp","33","424001","0.0-11.0-0.11","2899","Ez itt egy nyítem. Ott vagyunk a...","0","nyítemben","[""nyítemben"",""nyítemban""]","nyítemben","esp trial","1","true"
"html-button-response","34","427528","0.0-11.0-1.11","null","<p>A másik játékos ezt választotta: <b>nyítemben</b>.</p><p>&#x2705;</p><p>A te válaszod és a másik játékos válasza <b>megegyeznek</b>.</p>","null","","","","feedback trial","",""
"html-button-response-esp","35","432143","0.0-11.0-0.12","3410","Ez itt egy dorzéj. Elneveztem a kutyámat...","0","dorzéjnek","[""dorzéjnek"",""dorzéjnak""]","dorzéjnak","esp trial","1","false"
"html-button-response","36","435655","0.0-11.0-1.12","null","<p>A másik játékos ezt választotta: <b>dorzéjnak</b>.</p><p>&#10060;</p><p>A válaszaitok <b>nem</b> egyeznek meg.</p>","null","","","","feedback trial","",""
"html-button-response-esp","37","440270","0.0-11.0-0.13","3442","Ez itt egy pivéd. Ott vagyunk a...","1","pivédben","[""pivédban"",""pivédben""]","pivédban","esp trial","1","false"
"html-button-response","38","443780","0.0-11.0-1.13","null","<p>A másik játékos ezt választotta: <b>pivédban</b>.</p><p>&#10060;</p><p>A válaszaitok <b>nem</b> egyeznek meg.</p>","null","","","","feedback trial","",""
"html-button-response-esp","39","448844","0.0-11.0-0.14","4563","Ez itt egy tosély. Ott vagyunk a...","1","tosélyben","[""tosélyban"",""tosélyben""]","tosélyban","esp trial","1","false"
"html-button-response","40","452366","0.0-11.0-1.14","null","<p>A másik játékos ezt választotta: <b>tosélyban</b>.</p><p>&#10060;</p><p>A válaszaitok <b>nem</b> egyeznek meg.</p>","null","","","","feedback trial","",""
"html-button-response-esp","41","457158","0.0-11.0-0.15","4290","Ez itt egy kalréz. Ott vagyunk a...","1","kalrézban","[""kalrézben"",""kalrézban""]","kalrézban","esp trial","1","true"
"html-button-response","42","460687","0.0-11.0-1.15","null","<p>A másik játékos ezt választotta: <b>kalrézban</b>.</p><p>&#x2705;</p><p>A te válaszod és a másik játékos válasza <b>megegyeznek</b>.</p>","null","","","","feedback trial","",""
"html-button-response-esp","43","465321","0.0-11.0-0.16","4133","Ez itt egy trismél. Elneveztem a kutyámat...","1","trismélnek","[""trismélnak"",""trismélnek""]","trismélnek","esp trial","1","true"
"html-button-response","44","468850","0.0-11.0-1.16","null","<p>A másik játékos ezt választotta: <b>trismélnek</b>.</p><p>&#x2705;</p><p>A te válaszod és a másik játékos válasza <b>megegyeznek</b>.</p>","null","","","","feedback trial","",""
"html-button-response-esp","45","473469","0.0-11.0-0.17","3582","Ez itt egy jukél. Nincs is jobb egy jó...","1","jukélnél","[""jukélnál"",""jukélnél""]","jukélnál","esp trial","1","false"
"html-button-response","46","476988","0.0-11.0-1.17","null","<p>A másik játékos ezt választotta: <b>jukélnál</b>.</p><p>&#10060;</p><p>A válaszaitok <b>nem</b> egyeznek meg.</p>","null","","","","feedback trial","",""
"html-button-response-esp","47","481610","0.0-11.0-0.18","2653","Ez itt egy ítens. Ott vagyunk a...","1","ítensben","[""ítensban"",""ítensben""]","ítensban","esp trial","1","false"
"html-button-response","48","485114","0.0-11.0-1.18","null","<p>A másik játékos ezt választotta: <b>ítensban</b>.</p><p>&#10060;</p><p>A válaszaitok <b>nem</b> egyeznek meg.</p>","null","","","","feedback trial","",""
"html-button-response-esp","49","489730","0.0-11.0-0.19","2678","Ez itt egy klingesz. Ott vagyunk a...","1","klingeszben","[""klingeszban"",""klingeszben""]","klingeszben","esp trial","1","true"
"html-button-response","50","493243","0.0-11.0-1.19","null","<p>A másik játékos ezt választotta: <b>klingeszben</b>.</p><p>&#x2705;</p><p>A te válaszod és a másik játékos válasza <b>megegyeznek</b>.</p>","null","","","","feedback trial","",""
"html-button-response-esp","51","497881","0.0-11.0-0.20","3246","Ez itt egy dábegy. Ott vagyunk a...","1","dábegyben","[""dábegyban"",""dábegyben""]","dábegyban","esp trial","1","false"
"html-button-response","52","501394","0.0-11.0-1.20","null","<p>A másik játékos ezt választotta: <b>dábegyban</b>.</p><p>&#10060;</p><p>A válaszaitok <b>nem</b> egyeznek meg.</p>","null","","","","feedback trial","",""
"html-button-response-esp","53","507475","0.0-11.0-0.21","5568","Ez itt egy ronszek. Ott vagyunk a...","1","ronszekban","[""ronszekben"",""ronszekban""]","ronszekban","esp trial","1","true"
"html-button-response","54","510994","0.0-11.0-1.21","null","<p>A másik játékos ezt választotta: <b>ronszekban</b>.</p><p>&#x2705;</p><p>A te válaszod és a másik játékos válasza <b>megegyeznek</b>.</p>","null","","","","feedback trial","",""
"html-button-response-esp","55","515611","0.0-11.0-0.22","3905","Ez itt egy monveg. Nincs is jobb egy jó...","1","monvegnél","[""monvegnál"",""monvegnél""]","monvegnál","esp trial","1","false"
"html-button-response","56","519138","0.0-11.0-1.22","null","<p>A másik játékos ezt választotta: <b>monvegnál</b>.</p><p>&#10060;</p><p>A válaszaitok <b>nem</b> egyeznek meg.</p>","null","","","","feedback trial","",""
"html-button-response-esp","57","523760","0.0-11.0-0.23","2590","Ez itt egy zihenc. Elneveztem a kutyámat...","1","zihencnek","[""zihencnak"",""zihencnek""]","zihencnek","esp trial","1","true"
"html-button-response","58","527285","0.0-11.0-1.23","null","<p>A másik játékos ezt választotta: <b>zihencnek</b>.</p><p>&#x2705;</p><p>A te válaszod és a másik játékos válasza <b>megegyeznek</b>.</p>","null","","","","feedback trial","",""
"html-button-response-esp","59","533383","0.0-11.0-0.24","5597","Ez itt egy kaszép. Elneveztem a kutyámat...","0","kaszépnak","[""kaszépnak"",""kaszépnek""]","kaszépnak","esp trial","1","true"
"html-button-response","60","536891","0.0-11.0-1.24","null","<p>A másik játékos ezt választotta: <b>kaszépnak</b>.</p><p>&#x2705;</p><p>A te válaszod és a másik játékos válasza <b>megegyeznek</b>.</p>","null","","","","feedback trial","",""
"html-button-response-esp","61","541502","0.0-11.0-0.25","4100","Ez itt egy pijél. Nincs is jobb egy jó...","1","pijélnél","[""pijélnál"",""pijélnél""]","pijélnél","esp trial","1","true"
"html-button-response","62","545029","0.0-11.0-1.25","null","<p>A másik játékos ezt választotta: <b>pijélnél</b>.</p><p>&#x2705;</p><p>A te válaszod és a másik játékos válasza <b>megegyeznek</b>.</p>","null","","","","feedback trial","",""
"html-button-response-esp","63","549700","0.0-11.0-0.26","4157","Ez itt egy sprivenc. Nincs is jobb egy jó...","1","sprivencnél","[""sprivencnál"",""sprivencnél""]","sprivencnél","esp trial","1","true"
"html-button-response","64","553226","0.0-11.0-1.26","null","<p>A másik játékos ezt választotta: <b>sprivencnél</b>.</p><p>&#x2705;</p><p>A te válaszod és a másik játékos válasza <b>megegyeznek</b>.</p>","null","","","","feedback trial","",""
"html-button-response-esp","65","558708","0.0-11.0-0.27","4966","Ez itt egy garcép. Nincs is jobb egy jó...","1","garcépnél","[""garcépnál"",""garcépnél""]","garcépnál","esp trial","1","false"
"html-button-response","66","562217","0.0-11.0-1.27","null","<p>A másik játékos ezt választotta: <b>garcépnál</b>.</p><p>&#10060;</p><p>A válaszaitok <b>nem</b> egyeznek meg.</p>","null","","","","feedback trial","",""
"html-button-response-esp","67","566841","0.0-11.0-0.28","3742","Ez itt egy kalhész. Elneveztem a kutyámat...","1","kalhésznek","[""kalhésznak"",""kalhésznek""]","kalhésznak","esp trial","1","false"
"html-button-response","68","570346","0.0-11.0-1.28","null","<p>A másik játékos ezt választotta: <b>kalhésznak</b>.</p><p>&#10060;</p><p>A válaszaitok <b>nem</b> egyeznek meg.</p>","null","","","","feedback trial","",""
"html-button-response-esp","69","574970","0.0-11.0-0.29","3923","Ez itt egy sortem. Nincs is jobb egy jó...","0","sortemnél","[""sortemnél"",""sortemnál""]","sortemnál","esp trial","1","false"
"html-button-response","70","578483","0.0-11.0-1.29","null","<p>A másik játékos ezt választotta: <b>sortemnál</b>.</p><p>&#10060;</p><p>A válaszaitok <b>nem</b> egyeznek meg.</p>","null","","","","feedback trial","",""
"html-button-response-esp","71","583112","0.0-11.0-0.30","3688","Ez itt egy rapszek. Nincs is jobb egy jó...","1","rapszeknél","[""rapszeknál"",""rapszeknél""]","rapszeknál","esp trial","1","false"
"html-button-response","72","586620","0.0-11.0-1.30","null","<p>A másik játékos ezt választotta: <b>rapszeknál</b>.</p><p>&#10060;</p><p>A válaszaitok <b>nem</b> egyeznek meg.</p>","null","","","","feedback trial","",""
"html-button-response-esp","73","591482","0.0-11.0-0.31","4361","Ez itt egy zopély. Nincs is jobb egy jó...","1","zopélynál","[""zopélynél"",""zopélynál""]","zopélynál","esp trial","1","true"
"html-button-response","74","595009","0.0-11.0-1.31","null","<p>A másik játékos ezt választotta: <b>zopélynál</b>.</p><p>&#x2705;</p><p>A te válaszod és a másik játékos válasza <b>megegyeznek</b>.</p>","null","","","","feedback trial","",""
"html-button-response-esp","75","600215","0.0-11.0-0.32","4704","Ez itt egy narem. Ott vagyunk a...","0","naremban","[""naremban"",""naremben""]","naremban","esp trial","1","true"
"html-button-response","76","603740","0.0-11.0-1.32","null","<p>A másik játékos ezt választotta: <b>naremban</b>.</p><p>&#x2705;</p><p>A te válaszod és a másik játékos válasza <b>megegyeznek</b>.</p>","null","","","","feedback trial","",""
"html-button-response-esp","77","612727","0.0-11.0-0.33","8470","Ez itt egy zsádév. Elneveztem a kutyámat...","0","zsádévnek","[""zsádévnek"",""zsádévnak""]","zsádévnak","esp trial","1","false"
"html-button-response","78","616245","0.0-11.0-1.33","null","<p>A másik játékos ezt választotta: <b>zsádévnak</b>.</p><p>&#10060;</p><p>A válaszaitok <b>nem</b> egyeznek meg.</p>","null","","","","feedback trial","",""
"html-button-response-esp","79","621024","0.0-11.0-0.34","4262","Ez itt egy bupéz. Ott vagyunk a...","0","bupézben","[""bupézben"",""bupézban""]","bupézban","esp trial","1","false"
"html-button-response","80","624550","0.0-11.0-1.34","null","<p>A másik játékos ezt választotta: <b>bupézban</b>.</p><p>&#10060;</p><p>A válaszaitok <b>nem</b> egyeznek meg.</p>","null","","","","feedback trial","",""
"html-button-response-esp","81","631397","0.0-11.0-0.35","6345","Ez itt egy braszenc. Nincs is jobb egy jó...","0","braszencnél","[""braszencnél"",""braszencnál""]","braszencnál","esp trial","1","false"
"html-button-response","82","634913","0.0-11.0-1.35","null","<p>A másik játékos ezt választotta: <b>braszencnál</b>.</p><p>&#10060;</p><p>A válaszaitok <b>nem</b> egyeznek meg.</p>","null","","","","feedback trial","",""
"html-button-response-esp","83","639959","0.0-11.0-0.36","4545","Ez itt egy priszec. Ott vagyunk a...","1","priszecben","[""priszecban"",""priszecben""]","priszecben","esp trial","1","true"
"html-button-response","84","643473","0.0-11.0-1.36","null","<p>A másik játékos ezt választotta: <b>priszecben</b>.</p><p>&#x2705;</p><p>A te válaszod és a másik játékos válasza <b>megegyeznek</b>.</p>","null","","","","feedback trial","",""
"html-button-response-esp","85","650099","0.0-11.0-0.37","6112","Ez itt egy incéj. Elneveztem a kutyámat...","0","incéjnek","[""incéjnek"",""incéjnak""]","incéjnek","esp trial","1","true"
"html-button-response","86","653617","0.0-11.0-1.37","null","<p>A másik játékos ezt választotta: <b>incéjnek</b>.</p><p>&#x2705;</p><p>A te válaszod és a másik játékos válasza <b>megegyeznek</b>.</p>","null","","","","feedback trial","",""
"html-button-response-esp","87","658492","0.0-11.0-0.38","4371","Ez itt egy klosét. Elneveztem a kutyámat...","0","klosétnak","[""klosétnak"",""klosétnek""]","klosétnak","esp trial","1","true"
"html-button-response","88","662011","0.0-11.0-1.38","null","<p>A másik játékos ezt választotta: <b>klosétnak</b>.</p><p>&#x2705;</p><p>A te válaszod és a másik játékos válasza <b>megegyeznek</b>.</p>","null","","","","feedback trial","",""
"html-button-response-esp","89","668083","0.0-11.0-0.39","5571","Ez itt egy trájeg. Ott vagyunk a...","1","trájegben","[""trájegban"",""trájegben""]","trájegban","esp trial","1","false"
"html-button-response","90","671602","0.0-11.0-1.39","null","<p>A másik játékos ezt választotta: <b>trájegban</b>.</p><p>&#10060;</p><p>A válaszaitok <b>nem</b> egyeznek meg.</p>","null","","","","feedback trial","",""
"html-button-response-esp","91","676477","0.0-11.0-0.40","4372","Ez itt egy brindez. Elneveztem a kutyámat...","0","brindeznek","[""brindeznek"",""brindeznak""]","brindeznek","esp trial","1","true"
"html-button-response","92","679997","0.0-11.0-1.40","null","<p>A másik játékos ezt választotta: <b>brindeznek</b>.</p><p>&#x2705;</p><p>A te válaszod és a másik játékos válasza <b>megegyeznek</b>.</p>","null","","","","feedback trial","",""
"html-button-response-esp","93","684613","0.0-11.0-0.41","3707","Ez itt egy zsáder. Ott vagyunk a...","1","zsáderban","[""zsáderben"",""zsáderban""]","zsáderban","esp trial","1","true"
"html-button-response","94","688120","0.0-11.0-1.41","null","<p>A másik játékos ezt választotta: <b>zsáderban</b>.</p><p>&#x2705;</p><p>A te válaszod és a másik játékos válasza <b>megegyeznek</b>.</p>","null","","","","feedback trial","",""
"html-button-response-esp","95","692809","0.0-11.0-0.42","4174","Ez itt egy pisély. Ott vagyunk a...","1","pisélyben","[""pisélyban"",""pisélyben""]","pisélyben","esp trial","1","true"
"html-button-response","96","696328","0.0-11.0-1.42","null","<p>A másik játékos ezt választotta: <b>pisélyben</b>.</p><p>&#x2705;</p><p>A te válaszod és a másik játékos válasza <b>megegyeznek</b>.</p>","null","","","","feedback trial","",""
"html-button-response-esp","97","700941","0.0-11.0-0.43","3255","Ez itt egy darhén. Ott vagyunk a...","1","darhénban","[""darhénben"",""darhénban""]","darhénban","esp trial","1","true"
"html-button-response","98","704462","0.0-11.0-1.43","null","<p>A másik játékos ezt választotta: <b>darhénban</b>.</p><p>&#x2705;</p><p>A te válaszod és a másik játékos válasza <b>megegyeznek</b>.</p>","null","","","","feedback trial","",""
"html-button-response-esp","99","711823","0.0-11.0-0.44","6860","Ez itt egy nyupér. Nincs is jobb egy jó...","0","nyupérnál","[""nyupérnál"",""nyupérnél""]","nyupérnál","esp trial","1","true"
"html-button-response","100","715350","0.0-11.0-1.44","null","<p>A másik játékos ezt választotta: <b>nyupérnál</b>.</p><p>&#x2705;</p><p>A te válaszod és a másik játékos válasza <b>megegyeznek</b>.</p>","null","","","","feedback trial","",""
"html-button-response-esp","101","723706","0.0-11.0-0.45","7853","Ez itt egy gúden. Ott vagyunk a...","1","gúdenban","[""gúdenben"",""gúdenban""]","gúdenben","esp trial","1","false"
"html-button-response","102","727224","0.0-11.0-1.45","null","<p>A másik játékos ezt választotta: <b>gúdenben</b>.</p><p>&#10060;</p><p>A válaszaitok <b>nem</b> egyeznek meg.</p>","null","","","","feedback trial","",""
"html-button-response-esp","103","731851","0.0-11.0-0.46","3567","Ez itt egy dihely. Elneveztem a kutyámat...","0","dihelynek","[""dihelynek"",""dihelynak""]","dihelynek","esp trial","1","true"
"html-button-response","104","735370","0.0-11.0-1.46","null","<p>A másik játékos ezt választotta: <b>dihelynek</b>.</p><p>&#x2705;</p><p>A te válaszod és a másik játékos válasza <b>megegyeznek</b>.</p>","null","","","","feedback trial","",""
"html-button-response-esp","105","739995","0.0-11.0-0.47","2936","Ez itt egy spanél. Nincs is jobb egy jó...","0","spanélnél","[""spanélnél"",""spanélnál""]","spanélnál","esp trial","1","false"
"html-button-response","106","743512","0.0-11.0-1.47","null","<p>A másik játékos ezt választotta: <b>spanélnál</b>.</p><p>&#10060;</p><p>A válaszaitok <b>nem</b> egyeznek meg.</p>","null","","","","feedback trial","",""
"html-button-response-esp","107","748139","0.0-11.0-0.48","3532","Ez itt egy jóbec. Elneveztem a kutyámat...","1","jóbecnek","[""jóbecnak"",""jóbecnek""]","jóbecnak","esp trial","1","false"
"html-button-response","108","751651","0.0-11.0-1.48","null","<p>A másik játékos ezt választotta: <b>jóbecnak</b>.</p><p>&#10060;</p><p>A válaszaitok <b>nem</b> egyeznek meg.</p>","null","","","","feedback trial","",""
"html-button-response-esp","109","756799","0.0-11.0-0.49","4647","Ez itt egy nyamet. Ott vagyunk a...","1","nyametben","[""nyametban"",""nyametben""]","nyametban","esp trial","1","false"
"html-button-response","110","760318","0.0-11.0-1.49","null","<p>A másik játékos ezt választotta: <b>nyametban</b>.</p><p>&#10060;</p><p>A válaszaitok <b>nem</b> egyeznek meg.</p>","null","","","","feedback trial","",""
"html-button-response-esp","111","764945","0.0-11.0-0.50","3584","Ez itt egy vorszen. Nincs is jobb egy jó...","1","vorszennél","[""vorszennál"",""vorszennél""]","vorszennál","esp trial","1","false"
"html-button-response","112","768462","0.0-11.0-1.50","null","<p>A másik játékos ezt választotta: <b>vorszennál</b>.</p><p>&#10060;</p><p>A válaszaitok <b>nem</b> egyeznek meg.</p>","null","","","","feedback trial","",""
"html-button-response-esp","113","774038","0.0-11.0-0.51","5075","Ez itt egy lorzens. Nincs is jobb egy jó...","1","lorzensnél","[""lorzensnál"",""lorzensnél""]","lorzensnál","esp trial","1","false"
"html-button-response","114","777552","0.0-11.0-1.51","null","<p>A másik játékos ezt választotta: <b>lorzensnál</b>.</p><p>&#10060;</p><p>A válaszaitok <b>nem</b> egyeznek meg.</p>","null","","","","feedback trial","",""
"html-button-response-esp","115","783126","0.0-11.0-0.52","5073","Ez itt egy spumény. Elneveztem a kutyámat...","1","spuménynek","[""spuménynak"",""spuménynek""]","spuménynak","esp trial","1","false"
"html-button-response","116","786645","0.0-11.0-1.52","null","<p>A másik játékos ezt választotta: <b>spuménynak</b>.</p><p>&#10060;</p><p>A válaszaitok <b>nem</b> egyeznek meg.</p>","null","","","","feedback trial","",""
"html-button-response-esp","117","791262","0.0-11.0-0.53","3689","Ez itt egy spicet. Elneveztem a kutyámat...","0","spicetnek","[""spicetnek"",""spicetnak""]","spicetnek","esp trial","1","true"
"html-button-response","118","794776","0.0-11.0-1.53","null","<p>A másik játékos ezt választotta: <b>spicetnek</b>.</p><p>&#x2705;</p><p>A te válaszod és a másik játékos válasza <b>megegyeznek</b>.</p>","null","","","","feedback trial","",""
"html-button-response","119","805427","0.0-12.0","10148","<p>A közös játék most véget ért.</p><p>Mielőtt eláruljuk a végső pontszámodat, arra kérlek, játszd a szóválasztós játékot néhány percig egyedül is.</p><p>A feladatod ugyanaz lesz, választani két lehetőség közül.</p><p>Most viszont egyedül kell döntened, hogy te melyiket választanád.</p>","0","","","","","",""
"html-button-response-clever","120","811018","0.0-13.0-0.0","5084","Ez itt egy szibed. Ott vagyunk a...","1","szibedben","[""szibedban"",""szibedben""]","","posttest trial","4",""
"html-button-response-clever","121","817075","0.0-13.0-0.1","5552","Ez itt egy fojlegy. Elneveztem a kutyámat...","1","fojlegynek","[""fojlegynak"",""fojlegynek""]","","posttest trial","4",""
"html-button-response-clever","122","823769","0.0-13.0-0.2","6184","Ez itt egy spatel. Elneveztem a kutyámat...","1","spatelnak","[""spatelnek"",""spatelnak""]","","posttest trial","4",""
"html-button-response-clever","123","827968","0.0-13.0-0.3","3696","Ez itt egy vismer. Nincs is jobb egy jó...","0","vismernél","[""vismernél"",""vismernál""]","","posttest trial","4",""
"html-button-response-clever","124","833954","0.0-13.0-0.4","5479","Ez itt egy csublény. Ott vagyunk a...","1","csublényben","[""csublényban"",""csublényben""]","","posttest trial","4",""
"html-button-response-clever","125","837332","0.0-13.0-0.5","2871","Ez itt egy spizec. Elneveztem a kutyámat...","1","spizecnek","[""spizecnak"",""spizecnek""]","","posttest trial","4",""
"html-button-response-clever","126","840498","0.0-13.0-0.6","2663","Ez itt egy spivél. Elneveztem a kutyámat...","1","spivélnek","[""spivélnak"",""spivélnek""]","","posttest trial","4",""
"html-button-response-clever","127","843736","0.0-13.0-0.7","2732","Ez itt egy csodeg. Nincs is jobb egy jó...","1","csodegnél","[""csodegnál"",""csodegnél""]","","posttest trial","4",""
"html-button-response-clever","128","847235","0.0-13.0-0.8","2984","Ez itt egy lijez. Elneveztem a kutyámat...","1","lijeznek","[""lijeznak"",""lijeznek""]","","posttest trial","4",""
"html-button-response-clever","129","850209","0.0-13.0-0.9","2467","Ez itt egy vodec. Nincs is jobb egy jó...","1","vodecnél","[""vodecnál"",""vodecnél""]","","posttest trial","4",""
"html-button-response-clever","130","854558","0.0-13.0-0.10","3845","Ez itt egy klítegy. Nincs is jobb egy jó...","0","klítegynél","[""klítegynél"",""klítegynál""]","","posttest trial","4",""
"html-button-response-clever","131","863612","0.0-13.0-0.11","8549","Ez itt egy murdes. Nincs is jobb egy jó...","1","murdesnál","[""murdesnél"",""murdesnál""]","","posttest trial","4",""
"html-button-response-clever","132","867517","0.0-13.0-0.12","3396","Ez itt egy zined. Elneveztem a kutyámat...","0","zinednek","[""zinednek"",""zinednak""]","","posttest trial","4",""
"html-button-response-clever","133","873222","0.0-13.0-0.13","5203","Ez itt egy dóbem. Elneveztem a kutyámat...","0","dóbemnek","[""dóbemnek"",""dóbemnak""]","","posttest trial","4",""
"html-button-response-clever","134","878360","0.0-13.0-0.14","4629","Ez itt egy dutec. Nincs is jobb egy jó...","1","dutecnél","[""dutecnál"",""dutecnél""]","","posttest trial","4",""
"html-button-response-clever","135","882243","0.0-13.0-0.15","3371","Ez itt egy zsalrén. Elneveztem a kutyámat...","0","zsalrénnek","[""zsalrénnek"",""zsalrénnak""]","","posttest trial","4",""
"html-button-response-clever","136","887006","0.0-13.0-0.16","4253","Ez itt egy trikép. Ott vagyunk a...","1","triképben","[""triképban"",""triképben""]","","posttest trial","4",""
"html-button-response-clever","137","890597","0.0-13.0-0.17","3079","Ez itt egy lihény. Elneveztem a kutyámat...","0","lihénynek","[""lihénynek"",""lihénynak""]","","posttest trial","4",""
"html-button-response-clever","138","894444","0.0-13.0-0.18","3331","Ez itt egy humék. Elneveztem a kutyámat...","1","huméknek","[""huméknak"",""huméknek""]","","posttest trial","4",""
"html-button-response-clever","139","899596","0.0-13.0-0.19","4649","Ez itt egy vurnel. Elneveztem a kutyámat...","0","vurnelnek","[""vurnelnek"",""vurnelnak""]","","posttest trial","4",""
"html-button-response-clever","140","902500","0.0-13.0-0.20","2397","Ez itt egy nuhét. Nincs is jobb egy jó...","0","nuhétnél","[""nuhétnél"",""nuhétnál""]","","posttest trial","4",""
"html-button-response-clever","141","905780","0.0-13.0-0.21","2772","Ez itt egy klazér. Ott vagyunk a...","1","klazérban","[""klazérben"",""klazérban""]","","posttest trial","4",""
"html-button-response-clever","142","909341","0.0-13.0-0.22","3052","Ez itt egy sihen. Nincs is jobb egy jó...","1","sihennél","[""sihennál"",""sihennél""]","","posttest trial","4",""
"html-button-response-clever","143","912810","0.0-13.0-0.23","2961","Ez itt egy surnegy. Nincs is jobb egy jó...","1","surnegynél","[""surnegynál"",""surnegynél""]","","posttest trial","4",""
"html-button-response-clever","144","916897","0.0-13.0-0.24","3573","Ez itt egy tivenc. Ott vagyunk a...","0","tivencben","[""tivencben"",""tivencban""]","","posttest trial","4",""
"html-button-response-clever","145","920872","0.0-13.0-0.25","3472","Ez itt egy zarcég. Nincs is jobb egy jó...","1","zarcégnél","[""zarcégnál"",""zarcégnél""]","","posttest trial","4",""
"html-button-response-clever","146","923888","0.0-13.0-0.26","2505","Ez itt egy dinelt. Ott vagyunk a...","1","dineltban","[""dineltben"",""dineltban""]","","posttest trial","4",""
"html-button-response-clever","147","930428","0.0-13.0-0.27","6037","Ez itt egy mádép. Nincs is jobb egy jó...","1","mádépnél","[""mádépnál"",""mádépnél""]","","posttest trial","4",""
"html-button-response-clever","148","935523","0.0-13.0-0.28","4578","Ez itt egy jurdent. Nincs is jobb egy jó...","1","jurdentnél","[""jurdentnál"",""jurdentnél""]","","posttest trial","4",""
"html-button-response-clever","149","939848","0.0-13.0-0.29","3821","Ez itt egy pazév. Nincs is jobb egy jó...","0","pazévnél","[""pazévnél"",""pazévnál""]","","posttest trial","4",""
"html-button-response-clever","150","945440","0.0-13.0-0.30","5082","Ez itt egy dunkész. Ott vagyunk a...","1","dunkészben","[""dunkészban"",""dunkészben""]","","posttest trial","4",""
"html-button-response-clever","151","949718","0.0-13.0-0.31","3764","Ez itt egy dibez. Ott vagyunk a...","1","dibezben","[""dibezban"",""dibezben""]","","posttest trial","4",""
"html-button-response-clever","152","957286","0.0-13.0-0.32","7055","Ez itt egy zábény. Elneveztem a kutyámat...","1","zábénynak","[""zábénynek"",""zábénynak""]","","posttest trial","4",""
"html-button-response-clever","153","961534","0.0-13.0-0.33","3744","Ez itt egy lingék. Nincs is jobb egy jó...","1","lingéknél","[""lingéknál"",""lingéknél""]","","posttest trial","4",""
"html-button-response-clever","154","965208","0.0-13.0-0.34","3157","Ez itt egy zatéj. Nincs is jobb egy jó...","1","zatéjnél","[""zatéjnál"",""zatéjnél""]","","posttest trial","4",""
"html-button-response-clever","155","969001","0.0-13.0-0.35","3280","Ez itt egy jutély. Nincs is jobb egy jó...","1","jutélynél","[""jutélynál"",""jutélynél""]","","posttest trial","4",""
"html-button-response-clever","156","973221","0.0-13.0-0.36","3711","Ez itt egy cságyelt. Ott vagyunk a...","1","cságyeltben","[""cságyeltban"",""cságyeltben""]","","posttest trial","4",""
"html-button-response-clever","157","977853","0.0-13.0-0.37","4118","Ez itt egy hosét. Elneveztem a kutyámat...","0","hosétnek","[""hosétnek"",""hosétnak""]","","posttest trial","4",""
"html-button-response-clever","158","981556","0.0-13.0-0.38","3190","Ez itt egy fágyép. Nincs is jobb egy jó...","0","fágyépnél","[""fágyépnél"",""fágyépnál""]","","posttest trial","4",""
"html-button-response-clever","159","986211","0.0-13.0-0.39","4148","Ez itt egy fizend. Ott vagyunk a...","1","fizendben","[""fizendban"",""fizendben""]","","posttest trial","4",""
"html-button-response-clever","160","990874","0.0-13.0-0.40","4153","Ez itt egy hijegy. Nincs is jobb egy jó...","1","hijegynél","[""hijegynál"",""hijegynél""]","","posttest trial","4",""
"html-button-response-clever","161","995952","0.0-13.0-0.41","4573","Ez itt egy tumély. Nincs is jobb egy jó...","0","tumélynél","[""tumélynél"",""tumélynál""]","","posttest trial","4",""
"html-button-response-clever","162","1002164","0.0-13.0-0.42","5696","Ez itt egy gábéd. Nincs is jobb egy jó...","1","gábédnél","[""gábédnál"",""gábédnél""]","","posttest trial","4",""
"html-button-response-clever","163","1006898","0.0-13.0-0.43","4231","Ez itt egy pristél. Ott vagyunk a...","1","pristélben","[""pristélban"",""pristélben""]","","posttest trial","4",""
"html-button-response-clever","164","1008151","0.0-13.0-0.44","738","Ez itt egy szanéj. Elneveztem a kutyámat...","1","szanéjnek","[""szanéjnak"",""szanéjnek""]","","posttest trial","4",""
"html-button-response-clever","165","1014412","0.0-13.0-0.45","5757","Ez itt egy briskéd. Nincs is jobb egy jó...","0","briskédnél","[""briskédnél"",""briskédnál""]","","posttest trial","4",""
"html-button-response-clever","166","1020067","0.0-13.0-0.46","5143","Ez itt egy kátéd. Nincs is jobb egy jó...","0","kátédnál","[""kátédnál"",""kátédnél""]","","posttest trial","4",""
"html-button-response-clever","167","1025247","0.0-13.0-0.47","4663","Ez itt egy trodély. Ott vagyunk a...","0","trodélyban","[""trodélyban"",""trodélyben""]","","posttest trial","4",""
"html-button-response-clever","168","1029001","0.0-13.0-0.48","3252","Ez itt egy bingéj. Elneveztem a kutyámat...","0","bingéjnek","[""bingéjnek"",""bingéjnak""]","","posttest trial","4",""
"html-button-response-clever","169","1033705","0.0-13.0-0.49","4193","Ez itt egy tarhéz. Ott vagyunk a...","1","tarhézban","[""tarhézben"",""tarhézban""]","","posttest trial","4",""
"html-button-response-clever","170","1039196","0.0-13.0-0.50","4985","Ez itt egy dajrens. Nincs is jobb egy jó...","0","dajrensnél","[""dajrensnél"",""dajrensnál""]","","posttest trial","4",""
"html-button-response-clever","171","1042694","0.0-13.0-0.51","2993","Ez itt egy fupét. Nincs is jobb egy jó...","0","fupétnél","[""fupétnél"",""fupétnál""]","","posttest trial","4",""
"html-button-response-clever","172","1049136","0.0-13.0-0.52","5933","Ez itt egy klajrén. Elneveztem a kutyámat...","1","klajrénnak","[""klajrénnek"",""klajrénnak""]","","posttest trial","4",""
"html-button-response-clever","173","1052989","0.0-13.0-0.53","3351","Ez itt egy zuten. Nincs is jobb egy jó...","1","zutennél","[""zutennál"",""zutennél""]","","posttest trial","4",""
"html-button-response","174","1061496","0.0-14.0","7993","<p> Vége a játéknak. A teljes pontszámod 27/54.</p><p> Szép munka! &#128526;&#128526;&#128526;</p><p>A Befejezés gomb megnyomása után bezárhatod a böngészőablakot.</p>","0","","","","","",""
"html-keyboard-response","175","1067022","0.0-15.0","null","<div class=""message"">
         <p>Egy kis türelmet kérünk, amíg elmentjük az adatokat...</p>
         </div>","null","","","","","",""
