"trial_type","trial_index","time_elapsed","internal_node_id","rt","stimulus","response","response_string","choices","esp_response","trial_kind","list_number","esp_match"
"pavlovia","0","689","0.0-0.0","","","","","","","","",""
"html-button-response","1","7313","0.0-1.0","6114","<p>Kedves Résztvevő! A Budapesti Műszaki és Gazdaságtudományi Egyetem Kognitív Tudományi Tanszékének kutatásában való részvételed kérjük. A kutatásban azt vizsgáljuk, hogy a magyar anyanyelvűek hogyan használnak bizonyos szóalakokat, és hogy milyen képük van arról, hogy mások hogyan használják, hogyan képzik a szavakat. Ez hozzásegít bennünket ahhoz, hogy jobban megértsük, hogyan dolgozza fel és tárolja a nyelvet az emberi agy, és hogyan működnek, hogyan változnak egy adott közösség nyelvi konvenciói.</p><p>A vizsgálat egy rövid számítógépes feladatból fog állni. A kutatásban való részvétel önkéntes, a részvételi szándék bármikor visszavonható. A résztvevők eredményeit név nélkül kezeljük, így nem beazonosíthatók az adatok feldolgozása során. Minden személyes adatot az EU általános adatvédelmi rendeletének (GDPR) megfelelően kezelünk és legfeljebb öt éven belül megsemmisítünk. A vizsgálat jellemzően húsz percet vesz igénybe.</p><p>Kutatásvezető:</p><p>Dr. Rácz Péter, tudományos munkatárs, BME KTT</p><p>e-mail: racz.peter.marton@ttk.bme.hu</p>","0","","","","","",""
"html-button-response","2","39086","0.0-2.0","31270","<p>A kísérletben szavakat fogsz látni. Ezek között lesznek olyanok, amelyeket ismersz, de előfordulhatnak olyanok is, amelyeket nem ismersz, sőt, vannak köztük kitalált szavak is. Minden szónál látni fogsz toldalékolt alakokat. A te feladatod az lesz, hogy minden szóhoz kiválaszd azt a toldalékolt alakot, amely a te számodra ismerősebben, természetesebben hangzik. Rossz válaszok nincsenek, mert van olyan, hogy különböző embereknek más és más szó tűnik jobb választásnak. A választ úgy tudod majd kiválasztani, ha rákattintasz.</p><p>Ebben a szóválasztós játékban egy másik játékossal együtt veszel majd részt. A másik játékos is minden esetben azok közül a lehetőségek közül válogathat, mint te. Kettőtök feladata az, hogy ugyanazt a lehetőséget válasszátok minden esetben. Ahhoz, hogy ez sikerüljön, neked figyelned kell arra, hogy a másik játékos milyen válaszokat ad, és ennek alapján meg kell tippelned, hogyan választ legközelebb. Ha eltalálod, akkor pontot kapsz.</p>","0","","","","","",""
"html-button-response","3","79839","0.0-3.0","40249","<p>Kérjük, olvasd el az alábbi nyilatkozatot, és amennyiben egyetértesz vele, nyomj a Beleegyezés gombra!</p><p>Kijelentem, hogy magyar anyanyelvű személyként önként veszek részt a BME KTT kísérletében. A kutatás céljával és folyamatával kapcsolatban elegendő tájékoztatást kaptam, lehetőségem volt kérdések feltételére, és esetleges kérdéseimre megfelelő válaszokat kaptam. A tájékoztatás alapján elegendő mennyiségű információ áll a rendelkezésemre, hogy eldönthessem, részt kívánok-e venni a kutatásban.</p><p>Tisztában vagyok vele, hogy részvételi szándékomat és adataimat bármikor, indoklás nélkül visszavonhatom.</p><p>Értem és tudomásul veszem, hogy a kutatás tudományos célokat szolgál, és az általam szolgáltatott adatokat a BME kizárólag kutatási célból használja fel. Tudomásul veszem, hogy eredményeimet a többi résztvevő eredményeivel együtt kezelik, így egyéni teljesítményemről visszajelzést, szakvéleményt nem kapok.</p><p>Megértettem, hogy adataim kezelését illetően a BME az EU általános adatvédelmi rendelete (GDPR), a hatályos adatvédelmi törvény és a nemzetközi kutatás-etikai alapelvek szerint jár el. Eredményeim anonim módon kerülnek feldolgozásra, és a kutatás résztvevői az azonosításomra alkalmas adataimat harmadik félnek nem szolgáltatják ki. Engedélyezem a BME számára a jelen kutatásban felvett adataim feldolgozását és tárolását, beleértve azok későbbi kutatásokhoz való felhasználását is. Személyes adataim kezelésével kapcsolatban tájékoztatást kérhetek a kutatás résztvevőitől, az adatkezelés ellen tiltakozhatok, kérhetem személyes adataim helyesbítését, törlését vagy zárolását, valamint jogorvoslatért a Nemzeti Adatvédelmi és Információszabadság Hatósághoz fordulhatok.</p><p>Kijelentem, hogy a kutatásban való részvételem körülményeiről részletes tájékoztatást kaptam, és a feltételeket elfogadom.</p>","0","","","","","",""
"survey-text","4","122274","0.0-4.0","41919","","{""Q0"":""RA8CM7"",""Q1"":""nő"",""Q2"":""2004"",""Q3"":""13""}","","","","","",""
"html-button-response","5","131781","0.0-5.0","9005","<p>Ebben a játékban szavakat kell toldalékolni.</p> <p>Minden körben mutatunk majd egy példamondatot, amiben lesz egy szó.</p> <p>Alatta jön egy második mondat, ezt a mondatot neked kell majd befejezni, ugyanezzel a szóval.</p> <p>Nem biztos, hogy a szó eleve ismerős lesz számodra!</p> <p>Minden mondathoz adunk két lehetőséget, ezeket balra és jobbra látod majd.</p> <p>A játék kb. negyedóráig-húsz percig tart.</p>","0","","","","","",""
"html-button-response","6","147631","0.0-6.0","15347","<p>Nézzünk egy példát!</p> <p>A példamondat: ""Ez itt egy blumbnyeg.""</p><p>Neked ezt a mondatot kell befejezned: ""Ott vagyunk a...""</p><p>A lehetőségek pedig ezek:</p>","0","","","","","",""
"html-button-response","7","156082","0.0-7.0","7948","<p>Nagyon jó.</p><p>Ezt a játékot nem egyedül fogod játszani, hanem egy másik játékossal.</p><p>Mielőtt továbblépünk, összekapcsolunk titeket egymással.</p><p>Ez igénybe vehet néhány másodpercet, amihez szíves türelmed kérjük.</p>","0","","","","","",""
"html-button-response","8","161808","0.0-8.0","null","<p>Csatlakozás a másik játékoshoz...</p>","null","","","","","",""
"html-button-response","9","164312","0.0-9.0","null","<p> Sikeres kapcsolódás!</p>","null","","","","","",""
"html-button-response","10","174816","0.0-10.0","null","<p>A következőkben ketten játsszátok a szóválasztós játékot.</p><p>A feladatotok az lesz, hogy minden körben <b>ugyanazt</b> a szót válasszátok.</p><p>Minden ilyen egyező válaszért pontot kaptok.</p><p>Próbáld meg kitalálni, mit választ a másik játékos!</p><p>Bármikor választhatsz, a körnek akkor van vége, ha mindketten döntöttetek.</p><p>Sok sikert!</p>","null","","","","","",""
"html-button-response-esp","11","183513","0.0-11.0-0.0","8192","Ez itt egy spizec. Elneveztem a kutyámat...","0","spizecnek","[""spizecnek"",""spizecnak""]","spizecnak","esp trial","4","false"
"html-button-response","12","187018","0.0-11.0-1.0","null","<p>A másik játékos ezt választotta: <b>spizecnak</b>.</p><p>&#10060;</p><p>A válaszaitok <b>nem</b> egyeznek meg.</p>","null","","","","feedback trial","",""
"html-button-response-esp","13","192422","0.0-11.0-0.1","4492","Ez itt egy hijegy. Nincs is jobb egy jó...","1","hijegynél","[""hijegynál"",""hijegynél""]","hijegynál","esp trial","4","false"
"html-button-response","14","195927","0.0-11.0-1.1","null","<p>A másik játékos ezt választotta: <b>hijegynál</b>.</p><p>&#10060;</p><p>A válaszaitok <b>nem</b> egyeznek meg.</p>","null","","","","feedback trial","",""
"html-button-response-esp","15","201332","0.0-11.0-0.2","4467","Ez itt egy klítegy. Nincs is jobb egy jó...","1","klítegynél","[""klítegynál"",""klítegynél""]","klítegynál","esp trial","4","false"
"html-button-response","16","204836","0.0-11.0-1.2","null","<p>A másik játékos ezt választotta: <b>klítegynál</b>.</p><p>&#10060;</p><p>A válaszaitok <b>nem</b> egyeznek meg.</p>","null","","","","feedback trial","",""
"html-button-response-esp","17","210266","0.0-11.0-0.3","3700","Ez itt egy mádép. Nincs is jobb egy jó...","0","mádépnál","[""mádépnál"",""mádépnél""]","mádépnél","esp trial","4","false"
"html-button-response","18","213806","0.0-11.0-1.3","null","<p>A másik játékos ezt választotta: <b>mádépnél</b>.</p><p>&#10060;</p><p>A válaszaitok <b>nem</b> egyeznek meg.</p>","null","","","","feedback trial","",""
"html-button-response-esp","19","219236","0.0-11.0-0.4","4381","Ez itt egy briskéd. Nincs is jobb egy jó...","0","briskédnél","[""briskédnél"",""briskédnál""]","briskédnál","esp trial","4","false"
"html-button-response","20","222776","0.0-11.0-1.4","null","<p>A másik játékos ezt választotta: <b>briskédnál</b>.</p><p>&#10060;</p><p>A válaszaitok <b>nem</b> egyeznek meg.</p>","null","","","","feedback trial","",""
"html-button-response-esp","21","228566","0.0-11.0-0.5","5279","Ez itt egy dóbem. Elneveztem a kutyámat...","0","dóbemnek","[""dóbemnek"",""dóbemnak""]","dóbemnak","esp trial","4","false"
"html-button-response","22","232070","0.0-11.0-1.5","null","<p>A másik játékos ezt választotta: <b>dóbemnak</b>.</p><p>&#10060;</p><p>A válaszaitok <b>nem</b> egyeznek meg.</p>","null","","","","feedback trial","",""
"html-button-response-esp","23","237950","0.0-11.0-0.6","5375","Ez itt egy vodec. Nincs is jobb egy jó...","1","vodecnél","[""vodecnál"",""vodecnél""]","vodecnál","esp trial","4","false"
"html-button-response","24","241454","0.0-11.0-1.6","null","<p>A másik játékos ezt választotta: <b>vodecnál</b>.</p><p>&#10060;</p><p>A válaszaitok <b>nem</b> egyeznek meg.</p>","null","","","","feedback trial","",""
"html-button-response-esp","25","246859","0.0-11.0-0.7","3576","Ez itt egy csodeg. Nincs is jobb egy jó...","0","csodegnél","[""csodegnél"",""csodegnál""]","csodegnál","esp trial","4","false"
"html-button-response","26","250363","0.0-11.0-1.7","null","<p>A másik játékos ezt választotta: <b>csodegnál</b>.</p><p>&#10060;</p><p>A válaszaitok <b>nem</b> egyeznek meg.</p>","null","","","","feedback trial","",""
"html-button-response-esp","27","255766","0.0-11.0-0.8","4737","Ez itt egy nuhét. Nincs is jobb egy jó...","0","nuhétnál","[""nuhétnál"",""nuhétnél""]","nuhétnál","esp trial","4","true"
"html-button-response","28","259270","0.0-11.0-1.8","null","<p>A másik játékos ezt választotta: <b>nuhétnál</b>.</p><p>&#x2705;</p><p>A te válaszod és a másik játékos válasza <b>megegyeznek</b>.</p>","null","","","","feedback trial","",""
"html-button-response-esp","29","264716","0.0-11.0-0.9","4505","Ez itt egy klazér. Ott vagyunk a...","0","klazérban","[""klazérban"",""klazérben""]","klazérben","esp trial","4","false"
"html-button-response","30","268255","0.0-11.0-1.9","null","<p>A másik játékos ezt választotta: <b>klazérben</b>.</p><p>&#10060;</p><p>A válaszaitok <b>nem</b> egyeznek meg.</p>","null","","","","feedback trial","",""
"html-button-response-esp","31","273686","0.0-11.0-0.10","4903","Ez itt egy dinelt. Ott vagyunk a...","0","dineltben","[""dineltben"",""dineltban""]","dineltban","esp trial","4","false"
"html-button-response","32","277225","0.0-11.0-1.10","null","<p>A másik játékos ezt választotta: <b>dineltban</b>.</p><p>&#10060;</p><p>A válaszaitok <b>nem</b> egyeznek meg.</p>","null","","","","feedback trial","",""
"html-button-response-esp","33","282656","0.0-11.0-0.11","4216","Ez itt egy szibed. Ott vagyunk a...","1","szibedben","[""szibedban"",""szibedben""]","szibedban","esp trial","4","false"
"html-button-response","34","286195","0.0-11.0-1.11","null","<p>A másik játékos ezt választotta: <b>szibedban</b>.</p><p>&#10060;</p><p>A válaszaitok <b>nem</b> egyeznek meg.</p>","null","","","","feedback trial","",""
"html-button-response-esp","35","291626","0.0-11.0-0.12","4547","Ez itt egy fojlegy. Elneveztem a kutyámat...","0","fojlegynek","[""fojlegynek"",""fojlegynak""]","fojlegynak","esp trial","4","false"
"html-button-response","36","295165","0.0-11.0-1.12","null","<p>A másik játékos ezt választotta: <b>fojlegynak</b>.</p><p>&#10060;</p><p>A válaszaitok <b>nem</b> egyeznek meg.</p>","null","","","","feedback trial","",""
"html-button-response-esp","37","301454","0.0-11.0-0.13","5778","Ez itt egy sihen. Nincs is jobb egy jó...","0","sihennél","[""sihennél"",""sihennál""]","sihennál","esp trial","4","false"
"html-button-response","38","304958","0.0-11.0-1.13","null","<p>A másik játékos ezt választotta: <b>sihennál</b>.</p><p>&#10060;</p><p>A válaszaitok <b>nem</b> egyeznek meg.</p>","null","","","","feedback trial","",""
"html-button-response-esp","39","315039","0.0-11.0-0.14","9578","Ez itt egy tarhéz. Ott vagyunk a...","0","tarhézben","[""tarhézben"",""tarhézban""]","tarhézben","esp trial","4","true"
"html-button-response","40","318543","0.0-11.0-1.14","null","<p>A másik játékos ezt választotta: <b>tarhézben</b>.</p><p>&#x2705;</p><p>A te válaszod és a másik játékos válasza <b>megegyeznek</b>.</p>","null","","","","feedback trial","",""
"html-button-response-esp","41","323947","0.0-11.0-0.15","1926","Ez itt egy zatéj. Nincs is jobb egy jó...","0","zatéjnél","[""zatéjnél"",""zatéjnál""]","zatéjnál","esp trial","4","false"
"html-button-response","42","327451","0.0-11.0-1.15","null","<p>A másik játékos ezt választotta: <b>zatéjnál</b>.</p><p>&#10060;</p><p>A válaszaitok <b>nem</b> egyeznek meg.</p>","null","","","","feedback trial","",""
"html-button-response-esp","43","332856","0.0-11.0-0.16","4718","Ez itt egy fizend. Ott vagyunk a...","0","fizendben","[""fizendben"",""fizendban""]","fizendban","esp trial","4","false"
"html-button-response","44","336360","0.0-11.0-1.16","null","<p>A másik játékos ezt választotta: <b>fizendban</b>.</p><p>&#10060;</p><p>A válaszaitok <b>nem</b> egyeznek meg.</p>","null","","","","feedback trial","",""
"html-button-response-esp","45","341785","0.0-11.0-0.17","2357","Ez itt egy lihény. Elneveztem a kutyámat...","1","lihénynak","[""lihénynek"",""lihénynak""]","lihénynak","esp trial","4","true"
"html-button-response","46","345325","0.0-11.0-1.17","null","<p>A másik játékos ezt választotta: <b>lihénynak</b>.</p><p>&#x2705;</p><p>A te válaszod és a másik játékos válasza <b>megegyeznek</b>.</p>","null","","","","feedback trial","",""
"html-button-response-esp","47","350755","0.0-11.0-0.18","2288","Ez itt egy jutély. Nincs is jobb egy jó...","1","jutélynál","[""jutélynél"",""jutélynál""]","jutélynél","esp trial","4","false"
"html-button-response","48","354295","0.0-11.0-1.18","null","<p>A másik játékos ezt választotta: <b>jutélynél</b>.</p><p>&#10060;</p><p>A válaszaitok <b>nem</b> egyeznek meg.</p>","null","","","","feedback trial","",""
"html-button-response-esp","49","359725","0.0-11.0-0.19","2236","Ez itt egy hosét. Elneveztem a kutyámat...","1","hosétnak","[""hosétnek"",""hosétnak""]","hosétnek","esp trial","4","false"
"html-button-response","50","363265","0.0-11.0-1.19","null","<p>A másik játékos ezt választotta: <b>hosétnek</b>.</p><p>&#10060;</p><p>A válaszaitok <b>nem</b> egyeznek meg.</p>","null","","","","feedback trial","",""
"html-button-response-esp","51","368695","0.0-11.0-0.20","3083","Ez itt egy dutec. Nincs is jobb egy jó...","1","dutecnál","[""dutecnél"",""dutecnál""]","dutecnál","esp trial","4","true"
"html-button-response","52","372235","0.0-11.0-1.20","null","<p>A másik játékos ezt választotta: <b>dutecnál</b>.</p><p>&#x2705;</p><p>A te válaszod és a másik játékos válasza <b>megegyeznek</b>.</p>","null","","","","feedback trial","",""
"html-button-response-esp","53","377665","0.0-11.0-0.21","2996","Ez itt egy surnegy. Nincs is jobb egy jó...","1","surnegynél","[""surnegynál"",""surnegynél""]","surnegynál","esp trial","4","false"
"html-button-response","54","381205","0.0-11.0-1.21","null","<p>A másik játékos ezt választotta: <b>surnegynál</b>.</p><p>&#10060;</p><p>A válaszaitok <b>nem</b> egyeznek meg.</p>","null","","","","feedback trial","",""
"html-button-response-esp","55","388560","0.0-11.0-0.22","6844","Ez itt egy zined. Elneveztem a kutyámat...","1","zinednek","[""zinednak"",""zinednek""]","zinednak","esp trial","4","false"
"html-button-response","56","392063","0.0-11.0-1.22","null","<p>A másik játékos ezt választotta: <b>zinednak</b>.</p><p>&#10060;</p><p>A válaszaitok <b>nem</b> egyeznek meg.</p>","null","","","","feedback trial","",""
"html-button-response-esp","57","398193","0.0-11.0-0.23","5628","Ez itt egy jurdent. Nincs is jobb egy jó...","1","jurdentnél","[""jurdentnál"",""jurdentnél""]","jurdentnál","esp trial","4","false"
"html-button-response","58","401697","0.0-11.0-1.23","null","<p>A másik játékos ezt választotta: <b>jurdentnál</b>.</p><p>&#10060;</p><p>A válaszaitok <b>nem</b> egyeznek meg.</p>","null","","","","feedback trial","",""
"html-button-response-esp","59","407100","0.0-11.0-0.24","3147","Ez itt egy trodély. Ott vagyunk a...","0","trodélyban","[""trodélyban"",""trodélyben""]","trodélyben","esp trial","4","false"
"html-button-response","60","410604","0.0-11.0-1.24","null","<p>A másik játékos ezt választotta: <b>trodélyben</b>.</p><p>&#10060;</p><p>A válaszaitok <b>nem</b> egyeznek meg.</p>","null","","","","feedback trial","",""
"html-button-response-esp","61","416008","0.0-11.0-0.25","3106","Ez itt egy lingék. Nincs is jobb egy jó...","0","lingéknél","[""lingéknél"",""lingéknál""]","lingéknál","esp trial","4","false"
"html-button-response","62","419512","0.0-11.0-1.25","null","<p>A másik játékos ezt választotta: <b>lingéknál</b>.</p><p>&#10060;</p><p>A válaszaitok <b>nem</b> egyeznek meg.</p>","null","","","","feedback trial","",""
"html-button-response-esp","63","424945","0.0-11.0-0.26","2654","Ez itt egy fupét. Nincs is jobb egy jó...","0","fupétnél","[""fupétnél"",""fupétnál""]","fupétnál","esp trial","4","false"
"html-button-response","64","428485","0.0-11.0-1.26","null","<p>A másik játékos ezt választotta: <b>fupétnál</b>.</p><p>&#10060;</p><p>A válaszaitok <b>nem</b> egyeznek meg.</p>","null","","","","feedback trial","",""
"html-button-response-esp","65","433915","0.0-11.0-0.27","4185","Ez itt egy murdes. Nincs is jobb egy jó...","0","murdesnál","[""murdesnál"",""murdesnél""]","murdesnál","esp trial","4","true"
"html-button-response","66","437455","0.0-11.0-1.27","null","<p>A másik játékos ezt választotta: <b>murdesnál</b>.</p><p>&#x2705;</p><p>A te válaszod és a másik játékos válasza <b>megegyeznek</b>.</p>","null","","","","feedback trial","",""
"html-button-response-esp","67","442884","0.0-11.0-0.28","2482","Ez itt egy humék. Elneveztem a kutyámat...","1","huméknak","[""huméknek"",""huméknak""]","huméknek","esp trial","4","false"
"html-button-response","68","446424","0.0-11.0-1.28","null","<p>A másik játékos ezt választotta: <b>huméknek</b>.</p><p>&#10060;</p><p>A válaszaitok <b>nem</b> egyeznek meg.</p>","null","","","","feedback trial","",""
"html-button-response-esp","69","451854","0.0-11.0-0.29","1313","Ez itt egy vurnel. Elneveztem a kutyámat...","0","vurnelnak","[""vurnelnak"",""vurnelnek""]","vurnelnak","esp trial","4","true"
"html-button-response","70","455394","0.0-11.0-1.29","null","<p>A másik játékos ezt választotta: <b>vurnelnak</b>.</p><p>&#x2705;</p><p>A te válaszod és a másik játékos válasza <b>megegyeznek</b>.</p>","null","","","","feedback trial","",""
"html-button-response-esp","71","460824","0.0-11.0-0.30","1493","Ez itt egy dunkész. Ott vagyunk a...","1","dunkészben","[""dunkészban"",""dunkészben""]","dunkészben","esp trial","4","true"
"html-button-response","72","464364","0.0-11.0-1.30","null","<p>A másik játékos ezt választotta: <b>dunkészben</b>.</p><p>&#x2705;</p><p>A te válaszod és a másik játékos válasza <b>megegyeznek</b>.</p>","null","","","","feedback trial","",""
"html-button-response-esp","73","469794","0.0-11.0-0.31","3941","Ez itt egy dibez. Ott vagyunk a...","1","dibezben","[""dibezban"",""dibezben""]","dibezban","esp trial","4","false"
"html-button-response","74","473334","0.0-11.0-1.31","null","<p>A másik játékos ezt választotta: <b>dibezban</b>.</p><p>&#10060;</p><p>A válaszaitok <b>nem</b> egyeznek meg.</p>","null","","","","feedback trial","",""
"html-button-response-esp","75","478764","0.0-11.0-0.32","2405","Ez itt egy zarcég. Nincs is jobb egy jó...","0","zarcégnél","[""zarcégnél"",""zarcégnál""]","zarcégnál","esp trial","4","false"
"html-button-response","76","482304","0.0-11.0-1.32","null","<p>A másik játékos ezt választotta: <b>zarcégnál</b>.</p><p>&#10060;</p><p>A válaszaitok <b>nem</b> egyeznek meg.</p>","null","","","","feedback trial","",""
"html-button-response-esp","77","487734","0.0-11.0-0.33","3903","Ez itt egy szanéj. Elneveztem a kutyámat...","1","szanéjnek","[""szanéjnak"",""szanéjnek""]","szanéjnek","esp trial","4","true"
"html-button-response","78","491274","0.0-11.0-1.33","null","<p>A másik játékos ezt választotta: <b>szanéjnek</b>.</p><p>&#x2705;</p><p>A te válaszod és a másik játékos válasza <b>megegyeznek</b>.</p>","null","","","","feedback trial","",""
"html-button-response-esp","79","496704","0.0-11.0-0.34","3249","Ez itt egy spivél. Elneveztem a kutyámat...","1","spivélnek","[""spivélnak"",""spivélnek""]","spivélnak","esp trial","4","false"
"html-button-response","80","500244","0.0-11.0-1.34","null","<p>A másik játékos ezt választotta: <b>spivélnak</b>.</p><p>&#10060;</p><p>A válaszaitok <b>nem</b> egyeznek meg.</p>","null","","","","feedback trial","",""
"html-button-response-esp","81","505676","0.0-11.0-0.35","3780","Ez itt egy vismer. Nincs is jobb egy jó...","1","vismernál","[""vismernél"",""vismernál""]","vismernál","esp trial","4","true"
"html-button-response","82","509216","0.0-11.0-1.35","null","<p>A másik játékos ezt választotta: <b>vismernál</b>.</p><p>&#x2705;</p><p>A te válaszod és a másik játékos válasza <b>megegyeznek</b>.</p>","null","","","","feedback trial","",""
"html-button-response-esp","83","514973","0.0-11.0-0.36","5245","Ez itt egy trikép. Ott vagyunk a...","1","triképben","[""triképban"",""triképben""]","triképban","esp trial","4","false"
"html-button-response","84","518477","0.0-11.0-1.36","null","<p>A másik játékos ezt választotta: <b>triképban</b>.</p><p>&#10060;</p><p>A válaszaitok <b>nem</b> egyeznek meg.</p>","null","","","","feedback trial","",""
"html-button-response-esp","85","523924","0.0-11.0-0.37","4944","Ez itt egy kátéd. Nincs is jobb egy jó...","0","kátédnál","[""kátédnál"",""kátédnél""]","kátédnél","esp trial","4","false"
"html-button-response","86","527428","0.0-11.0-1.37","null","<p>A másik játékos ezt választotta: <b>kátédnél</b>.</p><p>&#10060;</p><p>A válaszaitok <b>nem</b> egyeznek meg.</p>","null","","","","feedback trial","",""
"html-button-response-esp","87","532832","0.0-11.0-0.38","2547","Ez itt egy pristél. Ott vagyunk a...","0","pristélben","[""pristélben"",""pristélban""]","pristélban","esp trial","4","false"
"html-button-response","88","536336","0.0-11.0-1.38","null","<p>A másik játékos ezt választotta: <b>pristélban</b>.</p><p>&#10060;</p><p>A válaszaitok <b>nem</b> egyeznek meg.</p>","null","","","","feedback trial","",""
"html-button-response-esp","89","541740","0.0-11.0-0.39","1571","Ez itt egy zuten. Nincs is jobb egy jó...","1","zutennál","[""zutennél"",""zutennál""]","zutennál","esp trial","4","true"
"html-button-response","90","545244","0.0-11.0-1.39","null","<p>A másik játékos ezt választotta: <b>zutennál</b>.</p><p>&#x2705;</p><p>A te válaszod és a másik játékos válasza <b>megegyeznek</b>.</p>","null","","","","feedback trial","",""
"html-button-response-esp","91","550679","0.0-11.0-0.40","2184","Ez itt egy klajrén. Elneveztem a kutyámat...","0","klajrénnak","[""klajrénnak"",""klajrénnek""]","klajrénnek","esp trial","4","false"
"html-button-response","92","554219","0.0-11.0-1.40","null","<p>A másik játékos ezt választotta: <b>klajrénnek</b>.</p><p>&#10060;</p><p>A válaszaitok <b>nem</b> egyeznek meg.</p>","null","","","","feedback trial","",""
"html-button-response-esp","93","559649","0.0-11.0-0.41","1164","Ez itt egy gábéd. Nincs is jobb egy jó...","1","gábédnél","[""gábédnál"",""gábédnél""]","gábédnél","esp trial","4","true"
"html-button-response","94","563189","0.0-11.0-1.41","null","<p>A másik játékos ezt választotta: <b>gábédnél</b>.</p><p>&#x2705;</p><p>A te válaszod és a másik játékos válasza <b>megegyeznek</b>.</p>","null","","","","feedback trial","",""
"html-button-response-esp","95","569295","0.0-11.0-0.42","5595","Ez itt egy cságyelt. Ott vagyunk a...","0","cságyeltban","[""cságyeltban"",""cságyeltben""]","cságyeltban","esp trial","4","true"
"html-button-response","96","572799","0.0-11.0-1.42","null","<p>A másik játékos ezt választotta: <b>cságyeltban</b>.</p><p>&#x2705;</p><p>A te válaszod és a másik játékos válasza <b>megegyeznek</b>.</p>","null","","","","feedback trial","",""
"html-button-response-esp","97","578201","0.0-11.0-0.43","4295","Ez itt egy dajrens. Nincs is jobb egy jó...","1","dajrensnál","[""dajrensnél"",""dajrensnál""]","dajrensnál","esp trial","4","true"
"html-button-response","98","581705","0.0-11.0-1.43","null","<p>A másik játékos ezt választotta: <b>dajrensnál</b>.</p><p>&#x2705;</p><p>A te válaszod és a másik játékos válasza <b>megegyeznek</b>.</p>","null","","","","feedback trial","",""
"html-button-response-esp","99","587109","0.0-11.0-0.44","2838","Ez itt egy tivenc. Ott vagyunk a...","0","tivencban","[""tivencban"",""tivencben""]","tivencban","esp trial","4","true"
"html-button-response","100","590613","0.0-11.0-1.44","null","<p>A másik játékos ezt választotta: <b>tivencban</b>.</p><p>&#x2705;</p><p>A te válaszod és a másik játékos válasza <b>megegyeznek</b>.</p>","null","","","","feedback trial","",""
"html-button-response-esp","101","596040","0.0-11.0-0.45","2677","Ez itt egy bingéj. Elneveztem a kutyámat...","1","bingéjnak","[""bingéjnek"",""bingéjnak""]","bingéjnak","esp trial","4","true"
"html-button-response","102","599579","0.0-11.0-1.45","null","<p>A másik játékos ezt választotta: <b>bingéjnak</b>.</p><p>&#x2705;</p><p>A te válaszod és a másik játékos válasza <b>megegyeznek</b>.</p>","null","","","","feedback trial","",""
"html-button-response-esp","103","605009","0.0-11.0-0.46","2258","Ez itt egy spatel. Elneveztem a kutyámat...","0","spatelnak","[""spatelnak"",""spatelnek""]","spatelnak","esp trial","4","true"
"html-button-response","104","608549","0.0-11.0-1.46","null","<p>A másik játékos ezt választotta: <b>spatelnak</b>.</p><p>&#x2705;</p><p>A te válaszod és a másik játékos válasza <b>megegyeznek</b>.</p>","null","","","","feedback trial","",""
"html-button-response-esp","105","613978","0.0-11.0-0.47","2138","Ez itt egy zsalrén. Elneveztem a kutyámat...","1","zsalrénnak","[""zsalrénnek"",""zsalrénnak""]","zsalrénnak","esp trial","4","true"
"html-button-response","106","617519","0.0-11.0-1.47","null","<p>A másik játékos ezt választotta: <b>zsalrénnak</b>.</p><p>&#x2705;</p><p>A te válaszod és a másik játékos válasza <b>megegyeznek</b>.</p>","null","","","","feedback trial","",""
"html-button-response-esp","107","622949","0.0-11.0-0.48","1753","Ez itt egy lijez. Elneveztem a kutyámat...","0","lijeznak","[""lijeznak"",""lijeznek""]","lijeznak","esp trial","4","true"
"html-button-response","108","626489","0.0-11.0-1.48","null","<p>A másik játékos ezt választotta: <b>lijeznak</b>.</p><p>&#x2705;</p><p>A te válaszod és a másik játékos válasza <b>megegyeznek</b>.</p>","null","","","","feedback trial","",""
"html-button-response-esp","109","631919","0.0-11.0-0.49","2299","Ez itt egy tumély. Nincs is jobb egy jó...","0","tumélynál","[""tumélynál"",""tumélynél""]","tumélynál","esp trial","4","true"
"html-button-response","110","635459","0.0-11.0-1.49","null","<p>A másik játékos ezt választotta: <b>tumélynál</b>.</p><p>&#x2705;</p><p>A te válaszod és a másik játékos válasza <b>megegyeznek</b>.</p>","null","","","","feedback trial","",""
"html-button-response-esp","111","640889","0.0-11.0-0.50","1847","Ez itt egy pazév. Nincs is jobb egy jó...","0","pazévnál","[""pazévnál"",""pazévnél""]","pazévnél","esp trial","4","false"
"html-button-response","112","644429","0.0-11.0-1.50","null","<p>A másik játékos ezt választotta: <b>pazévnél</b>.</p><p>&#10060;</p><p>A válaszaitok <b>nem</b> egyeznek meg.</p>","null","","","","feedback trial","",""
"html-button-response-esp","113","649859","0.0-11.0-0.51","2561","Ez itt egy csublény. Ott vagyunk a...","1","csublényban","[""csublényben"",""csublényban""]","csublényben","esp trial","4","false"
"html-button-response","114","653399","0.0-11.0-1.51","null","<p>A másik játékos ezt választotta: <b>csublényben</b>.</p><p>&#10060;</p><p>A válaszaitok <b>nem</b> egyeznek meg.</p>","null","","","","feedback trial","",""
"html-button-response-esp","115","658829","0.0-11.0-0.52","3575","Ez itt egy fágyép. Nincs is jobb egy jó...","1","fágyépnél","[""fágyépnál"",""fágyépnél""]","fágyépnél","esp trial","4","true"
"html-button-response","116","662369","0.0-11.0-1.52","null","<p>A másik játékos ezt választotta: <b>fágyépnél</b>.</p><p>&#x2705;</p><p>A te válaszod és a másik játékos válasza <b>megegyeznek</b>.</p>","null","","","","feedback trial","",""
"html-button-response-esp","117","667799","0.0-11.0-0.53","2022","Ez itt egy zábény. Elneveztem a kutyámat...","1","zábénynak","[""zábénynek"",""zábénynak""]","zábénynak","esp trial","4","true"
"html-button-response","118","671310","0.0-11.0-1.53","null","<p>A másik játékos ezt választotta: <b>zábénynak</b>.</p><p>&#x2705;</p><p>A te válaszod és a másik játékos válasza <b>megegyeznek</b>.</p>","null","","","","feedback trial","",""
"html-button-response","119","681780","0.0-12.0","9966","<p>A közös játék most véget ért.</p><p>Mielőtt eláruljuk a végső pontszámodat, arra kérlek, játszd a szóválasztós játékot néhány percig egyedül is.</p><p>A feladatod ugyanaz lesz, választani két lehetőség közül.</p><p>Most viszont egyedül kell döntened, hogy te melyiket választanád.</p>","0","","","","","",""
"html-button-response-clever","120","687922","0.0-13.0-0.0","5636","Ez itt egy csimen. Nincs is jobb egy jó...","0","csimennél","[""csimennél"",""csimennál""]","","posttest trial","8",""
"html-button-response-clever","121","693355","0.0-13.0-0.1","4930","Ez itt egy nyábét. Ott vagyunk a...","0","nyábétban","[""nyábétban"",""nyábétben""]","","posttest trial","8",""
"html-button-response-clever","122","698439","0.0-13.0-0.2","4581","Ez itt egy licegy. Ott vagyunk a...","1","licegyben","[""licegyban"",""licegyben""]","","posttest trial","8",""
"html-button-response-clever","123","702338","0.0-13.0-0.3","3397","Ez itt egy jalrény. Nincs is jobb egy jó...","1","jalrénynél","[""jalrénynál"",""jalrénynél""]","","posttest trial","8",""
"html-button-response-clever","124","707289","0.0-13.0-0.4","4448","Ez itt egy brágéd. Elneveztem a kutyámat...","0","brágédnek","[""brágédnek"",""brágédnak""]","","posttest trial","8",""
"html-button-response-clever","125","712189","0.0-13.0-0.5","4397","Ez itt egy szihét. Elneveztem a kutyámat...","0","szihétnek","[""szihétnek"",""szihétnak""]","","posttest trial","8",""
"html-button-response-clever","126","716289","0.0-13.0-0.6","3598","Ez itt egy giheszt. Elneveztem a kutyámat...","1","gihesztnek","[""gihesztnak"",""gihesztnek""]","","posttest trial","8",""
"html-button-response-clever","127","719840","0.0-13.0-0.7","3048","Ez itt egy vodép. Elneveztem a kutyámat...","1","vodépnek","[""vodépnak"",""vodépnek""]","","posttest trial","8",""
"html-button-response-clever","128","724790","0.0-13.0-0.8","4448","Ez itt egy klordény. Elneveztem a kutyámat...","0","klordénynek","[""klordénynek"",""klordénynak""]","","posttest trial","8",""
"html-button-response-clever","129","728740","0.0-13.0-0.9","3448","Ez itt egy bidem. Ott vagyunk a...","0","bidemben","[""bidemben"",""bidemban""]","","posttest trial","8",""
"html-button-response-clever","130","732057","0.0-13.0-0.10","2815","Ez itt egy júder. Elneveztem a kutyámat...","0","júdernek","[""júdernek"",""júdernak""]","","posttest trial","8",""
"html-button-response-clever","131","736975","0.0-13.0-0.11","4415","Ez itt egy kadér. Nincs is jobb egy jó...","1","kadérnél","[""kadérnál"",""kadérnél""]","","posttest trial","8",""
"html-button-response-clever","132","741891","0.0-13.0-0.12","4414","Ez itt egy dingec. Elneveztem a kutyámat...","1","dingecnek","[""dingecnak"",""dingecnek""]","","posttest trial","8",""
"html-button-response-clever","133","744559","0.0-13.0-0.13","2165","Ez itt egy priszkenc. Elneveztem a kutyámat...","0","priszkencnek","[""priszkencnek"",""priszkencnak""]","","posttest trial","8",""
"html-button-response-clever","134","746991","0.0-13.0-0.14","1929","Ez itt egy sporzem. Elneveztem a kutyámat...","0","sporzemnek","[""sporzemnek"",""sporzemnak""]","","posttest trial","8",""
"html-button-response-clever","135","751409","0.0-13.0-0.15","3915","Ez itt egy brigeszt. Elneveztem a kutyámat...","1","brigesztnek","[""brigesztnak"",""brigesztnek""]","","posttest trial","8",""
"html-button-response-clever","136","755009","0.0-13.0-0.16","3097","Ez itt egy kliszer. Nincs is jobb egy jó...","0","kliszernél","[""kliszernél"",""kliszernál""]","","posttest trial","8",""
"html-button-response-clever","137","758926","0.0-13.0-0.17","3414","Ez itt egy jorzég. Elneveztem a kutyámat...","1","jorzégnek","[""jorzégnak"",""jorzégnek""]","","posttest trial","8",""
"html-button-response-clever","138","763043","0.0-13.0-0.18","3615","Ez itt egy navec. Ott vagyunk a...","0","navecben","[""navecben"",""navecban""]","","posttest trial","8",""
"html-button-response-clever","139","766710","0.0-13.0-0.19","3165","Ez itt egy forzéd. Elneveztem a kutyámat...","0","forzédnek","[""forzédnek"",""forzédnak""]","","posttest trial","8",""
"html-button-response-clever","140","769810","0.0-13.0-0.20","2597","Ez itt egy gicéj. Nincs is jobb egy jó...","1","gicéjnél","[""gicéjnál"",""gicéjnél""]","","posttest trial","8",""
"html-button-response-clever","141","773560","0.0-13.0-0.21","3248","Ez itt egy bródesz. Elneveztem a kutyámat...","1","bródesznek","[""bródesznak"",""bródesznek""]","","posttest trial","8",""
"html-button-response-clever","142","776911","0.0-13.0-0.22","2848","Ez itt egy nidét. Ott vagyunk a...","0","nidétben","[""nidétben"",""nidétban""]","","posttest trial","8",""
"html-button-response-clever","143","780144","0.0-13.0-0.23","2732","Ez itt egy nyarcéj. Elneveztem a kutyámat...","0","nyarcéjnek","[""nyarcéjnek"",""nyarcéjnak""]","","posttest trial","8",""
"html-button-response-clever","144","785344","0.0-13.0-0.24","4698","Ez itt egy matéz. Ott vagyunk a...","1","matézban","[""matézben"",""matézban""]","","posttest trial","8",""
"html-button-response-clever","145","790045","0.0-13.0-0.25","4197","Ez itt egy ronvet. Elneveztem a kutyámat...","0","ronvetnek","[""ronvetnek"",""ronvetnak""]","","posttest trial","8",""
"html-button-response-clever","146","792761","0.0-13.0-0.26","2214","Ez itt egy csartény. Elneveztem a kutyámat...","0","csarténynek","[""csarténynek"",""csarténynak""]","","posttest trial","8",""
"html-button-response-clever","147","795528","0.0-13.0-0.27","2264","Ez itt egy prately. Elneveztem a kutyámat...","1","pratelynek","[""pratelynak"",""pratelynek""]","","posttest trial","8",""
"html-button-response-clever","148","798878","0.0-13.0-0.28","2847","Ez itt egy kábesz. Nincs is jobb egy jó...","0","kábesznél","[""kábesznél"",""kábesznál""]","","posttest trial","8",""
"html-button-response-clever","149","803379","0.0-13.0-0.29","3998","Ez itt egy jábéz. Ott vagyunk a...","1","jábézban","[""jábézben"",""jábézban""]","","posttest trial","8",""
"html-button-response-clever","150","807979","0.0-13.0-0.30","4098","Ez itt egy spáten. Elneveztem a kutyámat...","0","spátennek","[""spátennek"",""spátennak""]","","posttest trial","8",""
"html-button-response-clever","151","811479","0.0-13.0-0.31","2997","Ez itt egy buhény. Ott vagyunk a...","1","buhényben","[""buhényban"",""buhényben""]","","posttest trial","8",""
"html-button-response-clever","152","813529","0.0-13.0-0.32","1547","Ez itt egy ikszert. Ott vagyunk a...","0","ikszertban","[""ikszertban"",""ikszertben""]","","posttest trial","8",""
"html-button-response-clever","153","816363","0.0-13.0-0.33","2331","Ez itt egy gótem. Elneveztem a kutyámat...","1","gótemnek","[""gótemnak"",""gótemnek""]","","posttest trial","8",""
"html-button-response-clever","154","819330","0.0-13.0-0.34","2464","Ez itt egy tránély. Elneveztem a kutyámat...","1","tránélynak","[""tránélynek"",""tránélynak""]","","posttest trial","8",""
"html-button-response-clever","155","822180","0.0-13.0-0.35","2347","Ez itt egy brukész. Nincs is jobb egy jó...","0","brukésznél","[""brukésznél"",""brukésznál""]","","posttest trial","8",""
"html-button-response-clever","156","823897","0.0-13.0-0.36","1214","Ez itt egy trapszegy. Nincs is jobb egy jó...","0","trapszegynél","[""trapszegynél"",""trapszegynál""]","","posttest trial","8",""
"html-button-response-clever","157","826964","0.0-13.0-0.37","2564","Ez itt egy sprízem. Nincs is jobb egy jó...","0","sprízemnél","[""sprízemnél"",""sprízemnál""]","","posttest trial","8",""
"html-button-response-clever","158","829980","0.0-13.0-0.38","2514","Ez itt egy trincseg. Ott vagyunk a...","1","trincsegben","[""trincsegban"",""trincsegben""]","","posttest trial","8",""
"html-button-response-clever","159","831997","0.0-13.0-0.39","1515","Ez itt egy szutend. Ott vagyunk a...","1","szutendben","[""szutendban"",""szutendben""]","","posttest trial","8",""
"html-button-response-clever","160","837864","0.0-13.0-0.40","5365","Ez itt egy hóbens. Ott vagyunk a...","1","hóbensben","[""hóbensban"",""hóbensben""]","","posttest trial","8",""
"html-button-response-clever","161","842781","0.0-13.0-0.41","4415","Ez itt egy sartely. Ott vagyunk a...","1","sartelyben","[""sartelyban"",""sartelyben""]","","posttest trial","8",""
"html-button-response-clever","162","846698","0.0-13.0-0.42","3414","Ez itt egy tranék. Ott vagyunk a...","0","tranékben","[""tranékben"",""tranékban""]","","posttest trial","8",""
"html-button-response-clever","163","850698","0.0-13.0-0.43","3498","Ez itt egy gonszék. Nincs is jobb egy jó...","0","gonszéknél","[""gonszéknél"",""gonszéknál""]","","posttest trial","8",""
"html-button-response-clever","164","856999","0.0-13.0-0.44","5798","Ez itt egy brotes. Ott vagyunk a...","1","brotesban","[""brotesben"",""brotesban""]","","posttest trial","8",""
"html-button-response-clever","165","859449","0.0-13.0-0.45","1947","Ez itt egy trigenc. Elneveztem a kutyámat...","0","trigencnak","[""trigencnak"",""trigencnek""]","","posttest trial","8",""
"html-button-response-clever","166","861516","0.0-13.0-0.46","1564","Ez itt egy hivép. Ott vagyunk a...","0","hivépban","[""hivépban"",""hivépben""]","","posttest trial","8",""
"html-button-response-clever","167","864983","0.0-13.0-0.47","2964","Ez itt egy fincek. Nincs is jobb egy jó...","1","finceknél","[""finceknál"",""finceknél""]","","posttest trial","8",""
"html-button-response-clever","168","866783","0.0-13.0-0.48","1297","Ez itt egy csinték. Ott vagyunk a...","1","csintékben","[""csintékban"",""csintékben""]","","posttest trial","8",""
"html-button-response-clever","169","868150","0.0-13.0-0.49","864","Ez itt egy kluhéj. Nincs is jobb egy jó...","1","kluhéjnál","[""kluhéjnél"",""kluhéjnál""]","","posttest trial","8",""
"html-button-response-clever","170","869483","0.0-13.0-0.50","830","Ez itt egy zsopéd. Ott vagyunk a...","1","zsopédban","[""zsopédben"",""zsopédban""]","","posttest trial","8",""
"html-button-response-clever","171","871733","0.0-13.0-0.51","1748","Ez itt egy fádens. Elneveztem a kutyámat...","1","fádensnak","[""fádensnek"",""fádensnak""]","","posttest trial","8",""
"html-button-response-clever","172","873850","0.0-13.0-0.52","1615","Ez itt egy lismév. Ott vagyunk a...","1","lismévben","[""lismévban"",""lismévben""]","","posttest trial","8",""
"html-button-response-clever","173","877350","0.0-13.0-0.53","2997","Ez itt egy vublet. Nincs is jobb egy jó...","1","vubletnél","[""vubletnál"",""vubletnél""]","","posttest trial","8",""
"html-button-response","174","885373","0.0-14.0","7519","<p> Vége a játéknak. A teljes pontszámod 21/54.</p><p> Szép munka! &#128526;&#128526;&#128526;</p><p>A Befejezés gomb megnyomása után bezárhatod a böngészőablakot.</p>","0","","","","","",""
"html-keyboard-response","175","890877","0.0-15.0","null","<div class=""message"">
         <p>Egy kis türelmet kérünk, amíg elmentjük az adatokat...</p>
         </div>","null","","","","","",""
