"trial_type","trial_index","time_elapsed","internal_node_id","rt","stimulus","response","response_string","choices","esp_response","trial_kind","list_number","esp_match"
"pavlovia","0","723","0.0-0.0","","","","","","","","",""
"html-button-response","1","9979","0.0-1.0","8740","<p>Kedves Résztvevő! A Budapesti Műszaki és Gazdaságtudományi Egyetem Kognitív Tudományi Tanszékének kutatásában való részvételed kérjük. A kutatásban azt vizsgáljuk, hogy a magyar anyanyelvűek hogyan használnak bizonyos szóalakokat, és hogy milyen képük van arról, hogy mások hogyan használják, hogyan képzik a szavakat. Ez hozzásegít bennünket ahhoz, hogy jobban megértsük, hogyan dolgozza fel és tárolja a nyelvet az emberi agy, és hogyan működnek, hogyan változnak egy adott közösség nyelvi konvenciói.</p><p>A vizsgálat egy rövid számítógépes feladatból fog állni. A kutatásban való részvétel önkéntes, a részvételi szándék bármikor visszavonható. A résztvevők eredményeit név nélkül kezeljük, így nem beazonosíthatók az adatok feldolgozása során. Minden személyes adatot az EU általános adatvédelmi rendeletének (GDPR) megfelelően kezelünk és legfeljebb öt éven belül megsemmisítünk. A vizsgálat jellemzően húsz percet vesz igénybe.</p><p>Kutatásvezető:</p><p>Dr. Rácz Péter, tudományos munkatárs, BME KTT</p><p>e-mail: racz.peter.marton@ttk.bme.hu</p>","0","","","","","",""
"html-button-response","2","36222","0.0-2.0","25735","<p>A kísérletben szavakat fogsz látni. Ezek között lesznek olyanok, amelyeket ismersz, de előfordulhatnak olyanok is, amelyeket nem ismersz, sőt, vannak köztük kitalált szavak is. Minden szónál látni fogsz toldalékolt alakokat. A te feladatod az lesz, hogy minden szóhoz kiválaszd azt a toldalékolt alakot, amely a te számodra ismerősebben, természetesebben hangzik. Rossz válaszok nincsenek, mert van olyan, hogy különböző embereknek más és más szó tűnik jobb választásnak. A választ úgy tudod majd kiválasztani, ha rákattintasz.</p><p>Ebben a szóválasztós játékban egy másik játékossal együtt veszel majd részt. A másik játékos is minden esetben azok közül a lehetőségek közül válogathat, mint te. Kettőtök feladata az, hogy ugyanazt a lehetőséget válasszátok minden esetben. Ahhoz, hogy ez sikerüljön, neked figyelned kell arra, hogy a másik játékos milyen válaszokat ad, és ennek alapján meg kell tippelned, hogyan választ legközelebb. Ha eltalálod, akkor pontot kapsz.</p>","0","","","","","",""
"html-button-response","3","39544","0.0-3.0","2804","<p>Kérjük, olvasd el az alábbi nyilatkozatot, és amennyiben egyetértesz vele, nyomj a Beleegyezés gombra!</p><p>Kijelentem, hogy magyar anyanyelvű személyként önként veszek részt a BME KTT kísérletében. A kutatás céljával és folyamatával kapcsolatban elegendő tájékoztatást kaptam, lehetőségem volt kérdések feltételére, és esetleges kérdéseimre megfelelő válaszokat kaptam. A tájékoztatás alapján elegendő mennyiségű információ áll a rendelkezésemre, hogy eldönthessem, részt kívánok-e venni a kutatásban.</p><p>Tisztában vagyok vele, hogy részvételi szándékomat és adataimat bármikor, indoklás nélkül visszavonhatom.</p><p>Értem és tudomásul veszem, hogy a kutatás tudományos célokat szolgál, és az általam szolgáltatott adatokat a BME kizárólag kutatási célból használja fel. Tudomásul veszem, hogy eredményeimet a többi résztvevő eredményeivel együtt kezelik, így egyéni teljesítményemről visszajelzést, szakvéleményt nem kapok.</p><p>Megértettem, hogy adataim kezelését illetően a BME az EU általános adatvédelmi rendelete (GDPR), a hatályos adatvédelmi törvény és a nemzetközi kutatás-etikai alapelvek szerint jár el. Eredményeim anonim módon kerülnek feldolgozásra, és a kutatás résztvevői az azonosításomra alkalmas adataimat harmadik félnek nem szolgáltatják ki. Engedélyezem a BME számára a jelen kutatásban felvett adataim feldolgozását és tárolását, beleértve azok későbbi kutatásokhoz való felhasználását is. Személyes adataim kezelésével kapcsolatban tájékoztatást kérhetek a kutatás résztvevőitől, az adatkezelés ellen tiltakozhatok, kérhetem személyes adataim helyesbítését, törlését vagy zárolását, valamint jogorvoslatért a Nemzeti Adatvédelmi és Információszabadság Hatósághoz fordulhatok.</p><p>Kijelentem, hogy a kutatásban való részvételem körülményeiről részletes tájékoztatást kaptam, és a feltételeket elfogadom.</p>","0","","","","","",""
"survey-text","4","61316","0.0-4.0","21263","","{""Q0"":""EKISMJ"",""Q1"":"""",""Q2"":""1987"",""Q3"":""18""}","","","","","",""
"html-button-response","5","76587","0.0-5.0","14757","<p>Ebben a játékban szavakat kell toldalékolni.</p> <p>Minden körben mutatunk majd egy példamondatot, amiben lesz egy szó.</p> <p>Alatta jön egy második mondat, ezt a mondatot neked kell majd befejezni, ugyanezzel a szóval.</p> <p>Nem biztos, hogy a szó eleve ismerős lesz számodra!</p> <p>Minden mondathoz adunk két lehetőséget, ezeket balra és jobbra látod majd.</p> <p>A játék kb. negyedóráig-húsz percig tart.</p>","0","","","","","",""
"html-button-response","6","91539","0.0-6.0","14444","<p>Nézzünk egy példát!</p> <p>A példamondat: ""János imád fláramolni, ezért sokat fláramlik.""</p><p>Neked ezt a mondatot kell befejezned: ""Ti ritkán...""</p><p>A lehetőségek pedig ezek:</p>","0","","","","","",""
"html-button-response","7","99279","0.0-7.0","7232","<p>Nagyon jó.</p><p>Ezt a játékot nem egyedül fogod játszani, hanem egy másik játékossal.</p><p>Mielőtt továbblépünk, összekapcsolunk titeket egymással.</p><p>Ez igénybe vehet néhány másodpercet, amihez szíves türelmed kérjük.</p>","0","","","","","",""
"html-button-response","8","105018","0.0-8.0","null","<p>Csatlakozás a másik játékoshoz...</p>","null","","","","","",""
"html-button-response","9","107539","0.0-9.0","null","<p> Sikeres kapcsolódás!</p>","null","","","","","",""
"html-button-response","10","113634","0.0-10.0","5583","<p>A következőkben ketten játsszátok a szóválasztós játékot.</p><p>A feladatotok az lesz, hogy minden körben <b>ugyanazt</b> a szót válasszátok.</p><p>Minden ilyen egyező válaszért pontot kaptok.</p><p>Próbáld meg kitalálni, mit választ a másik játékos!</p><p>Bármikor választhatsz, a körnek akkor van vége, ha mindketten döntöttetek.</p><p>Sok sikert!</p>","0","","","","","",""
"html-button-response-esp","11","125539","0.0-11.0-0.0","11385","János imád tribejezni, ezért sokat tribejlik. Ti ritkán...","1","tribejeztek","[""tribejletek"",""tribejeztek""]","tribejeztek","esp trial","9","true"
"html-button-response","12","129069","0.0-11.0-1.0","null","<p>A másik játékos ezt választotta: <b>tribejeztek</b>.</p><p>&#x2705;</p><p>A te válaszod és a másik játékos válasza <b>megegyeznek</b>.</p>","null","","","","feedback trial","",""
"html-button-response-esp","13","137911","0.0-11.0-0.1","8326","János imád tágarozni, ezért sokat tágarzik. Mi ritkán...","1","tágarzunk","[""tágarozunk"",""tágarzunk""]","tágarzunk","esp trial","9","true"
"html-button-response","14","141438","0.0-11.0-1.1","null","<p>A másik játékos ezt választotta: <b>tágarzunk</b>.</p><p>&#x2705;</p><p>A te válaszod és a másik játékos válasza <b>megegyeznek</b>.</p>","null","","","","feedback trial","",""
"html-button-response-esp","15","147236","0.0-11.0-0.2","5281","János imád brüszözni, ezért sokat brüszlik. Ti ritkán...","1","brüszöztök","[""brüszlötök"",""brüszöztök""]","brüszlötök","esp trial","9","false"
"html-button-response","16","150752","0.0-11.0-1.2","null","<p>A másik játékos ezt választotta: <b>brüszlötök</b>.</p><p>&#10060;</p><p>A válaszaitok <b>nem</b> egyeznek meg.</p>","null","","","","feedback trial","",""
"html-button-response-esp","17","157210","0.0-11.0-0.3","5943","János imád sztrajozni, ezért sokat sztrajlik. Ők ritkán...","1","sztrajlanak","[""sztrajoznak"",""sztrajlanak""]","sztrajlanak","esp trial","9","true"
"html-button-response","18","160730","0.0-11.0-1.3","null","<p>A másik játékos ezt választotta: <b>sztrajlanak</b>.</p><p>&#x2705;</p><p>A te válaszod és a másik játékos válasza <b>megegyeznek</b>.</p>","null","","","","feedback trial","",""
"html-button-response-esp","19","171440","0.0-11.0-0.4","10196","János imád nágapodni, ezért sokat nágapszik. Ők ritkán...","0","nágapszanak","[""nágapszanak"",""nágapodnak""]","nágapszanak","esp trial","9","true"
"html-button-response","20","174971","0.0-11.0-1.4","null","<p>A másik játékos ezt választotta: <b>nágapszanak</b>.</p><p>&#x2705;</p><p>A te válaszod és a másik játékos válasza <b>megegyeznek</b>.</p>","null","","","","feedback trial","",""
"html-button-response-esp","21","181708","0.0-11.0-0.5","6223","János imád frihegezni, ezért sokat friheglik. Mi ritkán...","0","friheglünk","[""friheglünk"",""frihegezünk""]","friheglünk","esp trial","9","true"
"html-button-response","22","185227","0.0-11.0-1.5","null","<p>A másik játékos ezt választotta: <b>friheglünk</b>.</p><p>&#x2705;</p><p>A te válaszod és a másik játékos válasza <b>megegyeznek</b>.</p>","null","","","","feedback trial","",""
"html-button-response-esp","23","190342","0.0-11.0-0.6","4598","János imád lumozni, ezért sokat lumlik. Ti ritkán...","1","lumlotok","[""lumoztok"",""lumlotok""]","lumoztok","esp trial","9","false"
"html-button-response","24","193859","0.0-11.0-1.6","null","<p>A másik játékos ezt választotta: <b>lumoztok</b>.</p><p>&#10060;</p><p>A válaszaitok <b>nem</b> egyeznek meg.</p>","null","","","","feedback trial","",""
"html-button-response-esp","25","204297","0.0-11.0-0.7","9921","János imád spibamozni, ezért sokat spibamlik. Ők ritkán...","1","spibamlanak","[""spibamoznak"",""spibamlanak""]","spibamlanak","esp trial","9","true"
"html-button-response","26","207816","0.0-11.0-1.7","null","<p>A másik játékos ezt választotta: <b>spibamlanak</b>.</p><p>&#x2705;</p><p>A te válaszod és a másik játékos válasza <b>megegyeznek</b>.</p>","null","","","","feedback trial","",""
"html-button-response-esp","27","217450","0.0-11.0-0.8","9117","János imád frivamozni, ezért sokat frivamlik. Mi ritkán...","0","frivamlunk","[""frivamlunk"",""frivamozunk""]","frivamlunk","esp trial","9","true"
"html-button-response","28","220960","0.0-11.0-1.8","null","<p>A másik játékos ezt választotta: <b>frivamlunk</b>.</p><p>&#x2705;</p><p>A te válaszod és a másik játékos válasza <b>megegyeznek</b>.</p>","null","","","","feedback trial","",""
"html-button-response-esp","29","226641","0.0-11.0-0.9","5171","János imád filányozni, ezért sokat filánylik. Mi ritkán...","0","filánylunk","[""filánylunk"",""filányozunk""]","filánylunk","esp trial","9","true"
"html-button-response","30","230161","0.0-11.0-1.9","null","<p>A másik játékos ezt választotta: <b>filánylunk</b>.</p><p>&#x2705;</p><p>A te válaszod és a másik játékos válasza <b>megegyeznek</b>.</p>","null","","","","feedback trial","",""
"html-button-response-esp","31","235255","0.0-11.0-0.10","4579","János imád vobozni, ezért sokat vobzik. Ti ritkán...","0","voboztok","[""voboztok"",""vobzotok""]","voboztok","esp trial","9","true"
"html-button-response","32","238778","0.0-11.0-1.10","null","<p>A másik játékos ezt választotta: <b>voboztok</b>.</p><p>&#x2705;</p><p>A te válaszod és a másik játékos válasza <b>megegyeznek</b>.</p>","null","","","","feedback trial","",""
"html-button-response-esp","33","245066","0.0-11.0-0.11","5776","János imád küsözni, ezért sokat küslik. Mi ritkán...","1","küslünk","[""küsözünk"",""küslünk""]","küslünk","esp trial","9","true"
"html-button-response","34","248593","0.0-11.0-1.11","null","<p>A másik játékos ezt választotta: <b>küslünk</b>.</p><p>&#x2705;</p><p>A te válaszod és a másik játékos válasza <b>megegyeznek</b>.</p>","null","","","","feedback trial","",""
"html-button-response-esp","35","255725","0.0-11.0-0.12","6617","János imád sztritozni, ezért sokat sztritlik. Ők ritkán...","0","sztritoznak","[""sztritoznak"",""sztritlanak""]","sztritlanak","esp trial","9","false"
"html-button-response","36","259252","0.0-11.0-1.12","null","<p>A másik játékos ezt választotta: <b>sztritlanak</b>.</p><p>&#10060;</p><p>A válaszaitok <b>nem</b> egyeznek meg.</p>","null","","","","feedback trial","",""
"html-button-response-esp","37","268178","0.0-11.0-0.13","8411","János imád spalározni, ezért sokat spalárzik. Ők ritkán...","0","spalárzanak","[""spalárzanak"",""spalároznak""]","spalárzanak","esp trial","9","true"
"html-button-response","38","271705","0.0-11.0-1.13","null","<p>A másik játékos ezt választotta: <b>spalárzanak</b>.</p><p>&#x2705;</p><p>A te válaszod és a másik játékos válasza <b>megegyeznek</b>.</p>","null","","","","feedback trial","",""
"html-button-response-esp","39","278296","0.0-11.0-0.14","6076","János imád livényezni, ezért sokat livénylik. Mi ritkán...","1","livényezünk","[""livénylünk"",""livényezünk""]","livénylünk","esp trial","9","false"
"html-button-response","40","281812","0.0-11.0-1.14","null","<p>A másik játékos ezt választotta: <b>livénylünk</b>.</p><p>&#10060;</p><p>A válaszaitok <b>nem</b> egyeznek meg.</p>","null","","","","feedback trial","",""
"html-button-response-esp","41","289114","0.0-11.0-0.15","6787","János imád kluzozni, ezért sokat kluzlik. Ti ritkán...","1","kluzlotok","[""kluzoztok"",""kluzlotok""]","kluzoztok","esp trial","9","false"
"html-button-response","42","292633","0.0-11.0-1.15","null","<p>A másik játékos ezt választotta: <b>kluzoztok</b>.</p><p>&#10060;</p><p>A válaszaitok <b>nem</b> egyeznek meg.</p>","null","","","","feedback trial","",""
"html-button-response-esp","43","300199","0.0-11.0-0.16","7050","János imád fröjözni, ezért sokat fröjlik. Mi ritkán...","0","fröjözünk","[""fröjözünk"",""fröjlünk""]","fröjlünk","esp trial","9","false"
"html-button-response","44","303722","0.0-11.0-1.16","null","<p>A másik játékos ezt választotta: <b>fröjlünk</b>.</p><p>&#10060;</p><p>A válaszaitok <b>nem</b> egyeznek meg.</p>","null","","","","feedback trial","",""
"html-button-response-esp","45","309270","0.0-11.0-0.17","5046","János imád frésezni, ezért sokat fréslik. Mi ritkán...","1","fréslünk","[""frésezünk"",""fréslünk""]","fréslünk","esp trial","9","true"
"html-button-response","46","312794","0.0-11.0-1.17","null","<p>A másik játékos ezt választotta: <b>fréslünk</b>.</p><p>&#x2705;</p><p>A te válaszod és a másik játékos válasza <b>megegyeznek</b>.</p>","null","","","","feedback trial","",""
"html-button-response-esp","47","317520","0.0-11.0-0.18","4076","János imád sprigozni, ezért sokat sprigzik. Ti ritkán...","1","sprigzotok","[""sprigoztok"",""sprigzotok""]","sprigoztok","esp trial","9","false"
"html-button-response","48","321029","0.0-11.0-1.18","null","<p>A másik játékos ezt választotta: <b>sprigoztok</b>.</p><p>&#10060;</p><p>A válaszaitok <b>nem</b> egyeznek meg.</p>","null","","","","feedback trial","",""
"html-button-response-esp","49","327882","0.0-11.0-0.19","6337","János imád sprimozni, ezért sokat sprimlik. Mi ritkán...","0","sprimlunk","[""sprimlunk"",""sprimozunk""]","sprimlunk","esp trial","9","true"
"html-button-response","50","331402","0.0-11.0-1.19","null","<p>A másik játékos ezt választotta: <b>sprimlunk</b>.</p><p>&#x2705;</p><p>A te válaszod és a másik játékos válasza <b>megegyeznek</b>.</p>","null","","","","feedback trial","",""
"html-button-response-esp","51","339656","0.0-11.0-0.20","7740","János imád gyivepedni, ezért sokat gyivepszik. Ők ritkán...","1","gyivepednek","[""gyivepszenek"",""gyivepednek""]","gyivepszenek","esp trial","9","false"
"html-button-response","52","343183","0.0-11.0-1.20","null","<p>A másik játékos ezt választotta: <b>gyivepszenek</b>.</p><p>&#10060;</p><p>A válaszaitok <b>nem</b> egyeznek meg.</p>","null","","","","feedback trial","",""
"html-button-response-esp","53","347985","0.0-11.0-0.21","4289","János imád tibarozni, ezért sokat tibarzik. Ők ritkán...","0","tibarzanak","[""tibarzanak"",""tibaroznak""]","tibarzanak","esp trial","9","true"
"html-button-response","54","351492","0.0-11.0-1.21","null","<p>A másik játékos ezt választotta: <b>tibarzanak</b>.</p><p>&#x2705;</p><p>A te válaszod és a másik játékos válasza <b>megegyeznek</b>.</p>","null","","","","feedback trial","",""
"html-button-response-esp","55","359413","0.0-11.0-0.22","7419","János imád gatágozni, ezért sokat gatáglik. Mi ritkán...","0","gatáglunk","[""gatáglunk"",""gatágozunk""]","gatágozunk","esp trial","9","false"
"html-button-response","56","362932","0.0-11.0-1.22","null","<p>A másik játékos ezt választotta: <b>gatágozunk</b>.</p><p>&#10060;</p><p>A válaszaitok <b>nem</b> egyeznek meg.</p>","null","","","","feedback trial","",""
"html-button-response-esp","57","368159","0.0-11.0-0.23","4721","János imád sponyozni, ezért sokat sponylik. Ők ritkán...","1","sponylanak","[""sponyoznak"",""sponylanak""]","sponylanak","esp trial","9","true"
"html-button-response","58","371670","0.0-11.0-1.23","null","<p>A másik játékos ezt választotta: <b>sponylanak</b>.</p><p>&#x2705;</p><p>A te válaszod és a másik játékos válasza <b>megegyeznek</b>.</p>","null","","","","feedback trial","",""
"html-button-response-esp","59","377710","0.0-11.0-0.24","5538","János imád brálamozni, ezért sokat brálamlik. Ők ritkán...","0","brálamoznak","[""brálamoznak"",""brálamlanak""]","brálamlanak","esp trial","9","false"
"html-button-response","60","381230","0.0-11.0-1.24","null","<p>A másik játékos ezt választotta: <b>brálamlanak</b>.</p><p>&#10060;</p><p>A válaszaitok <b>nem</b> egyeznek meg.</p>","null","","","","feedback trial","",""
"html-button-response-esp","61","387565","0.0-11.0-0.25","5833","János imád brivágozni, ezért sokat briváglik. Ők ritkán...","0","brivágoznak","[""brivágoznak"",""briváglanak""]","brivágoznak","esp trial","9","true"
"html-button-response","62","391084","0.0-11.0-1.25","null","<p>A másik játékos ezt választotta: <b>brivágoznak</b>.</p><p>&#x2705;</p><p>A te válaszod és a másik játékos válasza <b>megegyeznek</b>.</p>","null","","","","feedback trial","",""
"html-button-response-esp","63","397319","0.0-11.0-0.26","5721","János imád mihágozni, ezért sokat mihágzik. Ti ritkán...","0","mihágoztok","[""mihágoztok"",""mihágzotok""]","mihágoztok","esp trial","9","true"
"html-button-response","64","400831","0.0-11.0-1.26","null","<p>A másik játékos ezt választotta: <b>mihágoztok</b>.</p><p>&#x2705;</p><p>A te válaszod és a másik játékos válasza <b>megegyeznek</b>.</p>","null","","","","feedback trial","",""
"html-button-response-esp","65","405932","0.0-11.0-0.27","4585","János imád hákodni, ezért sokat hákszik. Ők ritkán...","0","hákodnak","[""hákodnak"",""hákszanak""]","hákszanak","esp trial","9","false"
"html-button-response","66","409459","0.0-11.0-1.27","null","<p>A másik játékos ezt választotta: <b>hákszanak</b>.</p><p>&#10060;</p><p>A válaszaitok <b>nem</b> egyeznek meg.</p>","null","","","","feedback trial","",""
"html-button-response-esp","67","414183","0.0-11.0-0.28","3001","János imád trűnyözni, ezért sokat trűnylik. Ők ritkán...","0","trűnylenek","[""trűnylenek"",""trűnyöznek""]","trűnylenek","esp trial","9","true"
"html-button-response","68","417707","0.0-11.0-1.28","null","<p>A másik játékos ezt választotta: <b>trűnylenek</b>.</p><p>&#x2705;</p><p>A te válaszod és a másik játékos válasza <b>megegyeznek</b>.</p>","null","","","","feedback trial","",""
"html-button-response-esp","69","423142","0.0-11.0-0.29","4931","János imád flézezni, ezért sokat flézlik. Ti ritkán...","1","flézletek","[""flézeztek"",""flézletek""]","flézeztek","esp trial","9","false"
"html-button-response","70","426672","0.0-11.0-1.29","null","<p>A másik játékos ezt választotta: <b>flézeztek</b>.</p><p>&#10060;</p><p>A válaszaitok <b>nem</b> egyeznek meg.</p>","null","","","","feedback trial","",""
"html-button-response-esp","71","432620","0.0-11.0-0.30","5435","János imád trírozni, ezért sokat trírzik. Mi ritkán...","1","trírzunk","[""trírozunk"",""trírzunk""]","trírzunk","esp trial","9","true"
"html-button-response","72","436135","0.0-11.0-1.30","null","<p>A másik játékos ezt választotta: <b>trírzunk</b>.</p><p>&#x2705;</p><p>A te válaszod és a másik játékos válasza <b>megegyeznek</b>.</p>","null","","","","feedback trial","",""
"html-button-response-esp","73","446558","0.0-11.0-0.31","9920","János imád flivegezni, ezért sokat flivegzik. Ők ritkán...","1","flivegzenek","[""flivegeznek"",""flivegzenek""]","flivegeznek","esp trial","9","false"
"html-button-response","74","450089","0.0-11.0-1.31","null","<p>A másik játékos ezt választotta: <b>flivegeznek</b>.</p><p>&#10060;</p><p>A válaszaitok <b>nem</b> egyeznek meg.</p>","null","","","","feedback trial","",""
"html-button-response-esp","75","456129","0.0-11.0-0.32","5525","János imád mísozni, ezért sokat míslik. Mi ritkán...","0","míslunk","[""míslunk"",""mísozunk""]","míslunk","esp trial","9","true"
"html-button-response","76","459660","0.0-11.0-1.32","null","<p>A másik játékos ezt választotta: <b>míslunk</b>.</p><p>&#x2705;</p><p>A te válaszod és a másik játékos válasza <b>megegyeznek</b>.</p>","null","","","","feedback trial","",""
"html-button-response-esp","77","464371","0.0-11.0-0.33","4062","János imád spöközni, ezért sokat spöklik. Mi ritkán...","0","spöklünk","[""spöklünk"",""spöközünk""]","spöklünk","esp trial","9","true"
"html-button-response","78","467898","0.0-11.0-1.33","null","<p>A másik játékos ezt választotta: <b>spöklünk</b>.</p><p>&#x2705;</p><p>A te válaszod és a másik játékos válasza <b>megegyeznek</b>.</p>","null","","","","feedback trial","",""
"html-button-response-esp","79","476049","0.0-11.0-0.34","7637","János imád prilepedni, ezért sokat prilepszik. Mi ritkán...","1","prilepszünk","[""prilepedünk"",""prilepszünk""]","prilepszünk","esp trial","9","true"
"html-button-response","80","479570","0.0-11.0-1.34","null","<p>A másik játékos ezt választotta: <b>prilepszünk</b>.</p><p>&#x2705;</p><p>A te válaszod és a másik játékos válasza <b>megegyeznek</b>.</p>","null","","","","feedback trial","",""
"html-button-response-esp","81","486095","0.0-11.0-0.35","6019","János imád brilegezni, ezért sokat brilegzik. Mi ritkán...","1","brilegzünk","[""brilegezünk"",""brilegzünk""]","brilegzünk","esp trial","9","true"
"html-button-response","82","489614","0.0-11.0-1.35","null","<p>A másik játékos ezt választotta: <b>brilegzünk</b>.</p><p>&#x2705;</p><p>A te válaszod és a másik játékos válasza <b>megegyeznek</b>.</p>","null","","","","feedback trial","",""
"html-button-response-esp","83","494820","0.0-11.0-0.36","4692","János imád pekedni, ezért sokat pekszik. Mi ritkán...","0","pekszünk","[""pekszünk"",""pekedünk""]","pekszünk","esp trial","9","true"
"html-button-response","84","498340","0.0-11.0-1.36","null","<p>A másik játékos ezt választotta: <b>pekszünk</b>.</p><p>&#x2705;</p><p>A te válaszod és a másik játékos válasza <b>megegyeznek</b>.</p>","null","","","","feedback trial","",""
"html-button-response-esp","85","507212","0.0-11.0-0.37","8356","János imád flubokozni, ezért sokat fluboklik. Ti ritkán...","1","fluboklotok","[""flubokoztok"",""fluboklotok""]","flubokoztok","esp trial","9","false"
"html-button-response","86","510731","0.0-11.0-1.37","null","<p>A másik játékos ezt választotta: <b>flubokoztok</b>.</p><p>&#10060;</p><p>A válaszaitok <b>nem</b> egyeznek meg.</p>","null","","","","feedback trial","",""
"html-button-response-esp","87","515458","0.0-11.0-0.38","4160","János imád brivepedni, ezért sokat brivepszik. Mi ritkán...","0","brivepszünk","[""brivepszünk"",""brivepedünk""]","brivepszünk","esp trial","9","true"
"html-button-response","88","518978","0.0-11.0-1.38","null","<p>A másik játékos ezt választotta: <b>brivepszünk</b>.</p><p>&#x2705;</p><p>A te válaszod és a másik játékos válasza <b>megegyeznek</b>.</p>","null","","","","feedback trial","",""
"html-button-response-esp","89","524055","0.0-11.0-0.39","4562","János imád míjozni, ezért sokat míjzik. Mi ritkán...","0","míjzunk","[""míjzunk"",""míjozunk""]","míjzunk","esp trial","9","true"
"html-button-response","90","527566","0.0-11.0-1.39","null","<p>A másik játékos ezt választotta: <b>míjzunk</b>.</p><p>&#x2705;</p><p>A te válaszod és a másik játékos válasza <b>megegyeznek</b>.</p>","null","","","","feedback trial","",""
"html-button-response-esp","91","532283","0.0-11.0-0.40","3298","János imád bregezni, ezért sokat bregzik. Mi ritkán...","0","bregzünk","[""bregzünk"",""bregezünk""]","bregzünk","esp trial","9","true"
"html-button-response","92","535794","0.0-11.0-1.40","null","<p>A másik játékos ezt választotta: <b>bregzünk</b>.</p><p>&#x2705;</p><p>A te válaszod és a másik játékos válasza <b>megegyeznek</b>.</p>","null","","","","feedback trial","",""
"html-button-response-esp","93","540523","0.0-11.0-0.41","3878","János imád dirányozni, ezért sokat diránylik. Ők ritkán...","0","diránylanak","[""diránylanak"",""dirányoznak""]","diránylanak","esp trial","9","true"
"html-button-response","94","544046","0.0-11.0-1.41","null","<p>A másik játékos ezt választotta: <b>diránylanak</b>.</p><p>&#x2705;</p><p>A te válaszod és a másik játékos válasza <b>megegyeznek</b>.</p>","null","","","","feedback trial","",""
"html-button-response-esp","95","548766","0.0-11.0-0.42","3826","János imád drojozni, ezért sokat drojzik. Mi ritkán...","0","drojzunk","[""drojzunk"",""drojozunk""]","drojzunk","esp trial","9","true"
"html-button-response","96","552285","0.0-11.0-1.42","null","<p>A másik játékos ezt választotta: <b>drojzunk</b>.</p><p>&#x2705;</p><p>A te válaszod és a másik játékos válasza <b>megegyeznek</b>.</p>","null","","","","feedback trial","",""
"html-button-response-esp","97","556995","0.0-11.0-0.43","3847","János imád gibemezni, ezért sokat gibemlik. Mi ritkán...","1","gibemlünk","[""gibemezünk"",""gibemlünk""]","gibemlünk","esp trial","9","true"
"html-button-response","98","560519","0.0-11.0-1.43","null","<p>A másik játékos ezt választotta: <b>gibemlünk</b>.</p><p>&#x2705;</p><p>A te válaszod és a másik játékos válasza <b>megegyeznek</b>.</p>","null","","","","feedback trial","",""
"html-button-response-esp","99","566936","0.0-11.0-0.44","5901","János imád pehégedni, ezért sokat pehégszik. Ti ritkán...","0","pehégszetek","[""pehégszetek"",""pehégedtek""]","pehégszetek","esp trial","9","true"
"html-button-response","100","570467","0.0-11.0-1.44","null","<p>A másik játékos ezt választotta: <b>pehégszetek</b>.</p><p>&#x2705;</p><p>A te válaszod és a másik játékos válasza <b>megegyeznek</b>.</p>","null","","","","feedback trial","",""
"html-button-response-esp","101","575182","0.0-11.0-0.45","3810","János imád galározni, ezért sokat galárzik. Ők ritkán...","1","galárzanak","[""galároznak"",""galárzanak""]","galároznak","esp trial","9","false"
"html-button-response","102","578707","0.0-11.0-1.45","null","<p>A másik játékos ezt választotta: <b>galároznak</b>.</p><p>&#10060;</p><p>A válaszaitok <b>nem</b> egyeznek meg.</p>","null","","","","feedback trial","",""
"html-button-response-esp","103","585334","0.0-11.0-0.46","6123","János imád tűgözni, ezért sokat tűgzik. Ti ritkán...","0","tűgzötök","[""tűgzötök"",""tűgöztök""]","tűgzötök","esp trial","9","true"
"html-button-response","104","588860","0.0-11.0-1.46","null","<p>A másik játékos ezt választotta: <b>tűgzötök</b>.</p><p>&#x2705;</p><p>A te válaszod és a másik játékos válasza <b>megegyeznek</b>.</p>","null","","","","feedback trial","",""
"html-button-response-esp","105","593949","0.0-11.0-0.47","4579","János imád brározni, ezért sokat brárlik. Ők ritkán...","1","brárlanak","[""brároznak"",""brárlanak""]","brárlanak","esp trial","9","true"
"html-button-response","106","597464","0.0-11.0-1.47","null","<p>A másik játékos ezt választotta: <b>brárlanak</b>.</p><p>&#x2705;</p><p>A te válaszod és a másik játékos válasza <b>megegyeznek</b>.</p>","null","","","","feedback trial","",""
"html-button-response-esp","107","602401","0.0-11.0-0.48","4423","János imád riványozni, ezért sokat riványlik. Ti ritkán...","1","riványlotok","[""riványoztok"",""riványlotok""]","riványlotok","esp trial","9","true"
"html-button-response","108","605924","0.0-11.0-1.48","null","<p>A másik játékos ezt választotta: <b>riványlotok</b>.</p><p>&#x2705;</p><p>A te válaszod és a másik játékos válasza <b>megegyeznek</b>.</p>","null","","","","feedback trial","",""
"html-button-response-esp","109","611006","0.0-11.0-0.49","4567","János imád klarágozni, ezért sokat klarágzik. Ti ritkán...","1","klarágoztok","[""klarágzotok"",""klarágoztok""]","klarágoztok","esp trial","9","true"
"html-button-response","110","614533","0.0-11.0-1.49","null","<p>A másik játékos ezt választotta: <b>klarágoztok</b>.</p><p>&#x2705;</p><p>A te válaszod és a másik játékos válasza <b>megegyeznek</b>.</p>","null","","","","feedback trial","",""
"html-button-response-esp","111","619261","0.0-11.0-0.50","2937","János imád prazozni, ezért sokat prazlik. Mi ritkán...","1","prazlunk","[""prazozunk"",""prazlunk""]","prazlunk","esp trial","9","true"
"html-button-response","112","622788","0.0-11.0-1.50","null","<p>A másik játékos ezt választotta: <b>prazlunk</b>.</p><p>&#x2705;</p><p>A te válaszod és a másik játékos válasza <b>megegyeznek</b>.</p>","null","","","","feedback trial","",""
"html-button-response-esp","113","627497","0.0-11.0-0.51","4052","János imád pörözni, ezért sokat pörzik. Ti ritkán...","0","pöröztök","[""pöröztök"",""pörzötök""]","pöröztök","esp trial","9","true"
"html-button-response","114","631014","0.0-11.0-1.51","null","<p>A másik játékos ezt választotta: <b>pöröztök</b>.</p><p>&#x2705;</p><p>A te válaszod és a másik játékos válasza <b>megegyeznek</b>.</p>","null","","","","feedback trial","",""
"html-button-response-esp","115","636526","0.0-11.0-0.52","4999","János imád lírozni, ezért sokat lírlik. Ők ritkán...","1","líroznak","[""lírlanak"",""líroznak""]","lírlanak","esp trial","9","false"
"html-button-response","116","640041","0.0-11.0-1.52","null","<p>A másik játékos ezt választotta: <b>lírlanak</b>.</p><p>&#10060;</p><p>A válaszaitok <b>nem</b> egyeznek meg.</p>","null","","","","feedback trial","",""
"html-button-response-esp","117","644875","0.0-11.0-0.53","4331","János imád drivegezni, ezért sokat drivegzik. Ti ritkán...","0","drivegeztek","[""drivegeztek"",""drivegzetek""]","drivegeztek","esp trial","9","true"
"html-button-response","118","648382","0.0-11.0-1.53","null","<p>A másik játékos ezt választotta: <b>drivegeztek</b>.</p><p>&#x2705;</p><p>A te válaszod és a másik játékos válasza <b>megegyeznek</b>.</p>","null","","","","feedback trial","",""
"html-button-response","119","657024","0.0-12.0","8127","<p>A közös játék most véget ért.</p><p>Mielőtt eláruljuk a végső pontszámodat, arra kérlek, játszd a szóválasztós játékot néhány percig egyedül is.</p><p>A feladatod ugyanaz lesz, választani két lehetőség közül.</p><p>Most viszont egyedül kell döntened, hogy te melyiket választanád.</p>","0","","","","","",""
"html-button-response-clever","120","666299","0.0-13.0-0.0","8768","János imád hubonyozni, ezért sokat hubonylik. Ti ritkán...","0","hubonylotok","[""hubonylotok"",""hubonyoztok""]","","posttest trial","1",""
"html-button-response-clever","121","671379","0.0-13.0-0.1","4566","János imád frélegezni, ezért sokat frélegzik. Mi ritkán...","1","frélegzünk","[""frélegezünk"",""frélegzünk""]","","posttest trial","1",""
"html-button-response-clever","122","676560","0.0-13.0-0.2","4665","János imád hiragozni, ezért sokat hiragzik. Ők ritkán...","1","hiragzanak","[""hiragoznak"",""hiragzanak""]","","posttest trial","1",""
"html-button-response-clever","123","682249","0.0-13.0-0.3","5182","János imád nyizozni, ezért sokat nyizlik. Mi ritkán...","0","nyizlunk","[""nyizlunk"",""nyizozunk""]","","posttest trial","1",""
"html-button-response-clever","124","688563","0.0-13.0-0.4","5799","János imád vilesezni, ezért sokat vileslik. Mi ritkán...","0","vileslünk","[""vileslünk"",""vilesezünk""]","","posttest trial","1",""
"html-button-response-clever","125","692742","0.0-13.0-0.5","3676","János imád prihegedni, ezért sokat prihegszik. Ők ritkán...","1","prihegszenek","[""prihegednek"",""prihegszenek""]","","posttest trial","1",""
"html-button-response-clever","126","696571","0.0-13.0-0.6","3312","János imád flugonyozni, ezért sokat flugonylik. Ők ritkán...","0","flugonylanak","[""flugonylanak"",""flugonyoznak""]","","posttest trial","1",""
"html-button-response-clever","127","700575","0.0-13.0-0.7","3499","János imád jurozni, ezért sokat jurlik. Mi ritkán...","0","jurlunk","[""jurlunk"",""jurozunk""]","","posttest trial","1",""
"html-button-response-clever","128","704405","0.0-13.0-0.8","3324","János imád döjözni, ezért sokat döjlik. Ők ritkán...","1","döjlenek","[""döjöznek"",""döjlenek""]","","posttest trial","1",""
"html-button-response-clever","129","708805","0.0-13.0-0.9","3888","János imád klűmözni, ezért sokat klűmlik. Ti ritkán...","0","klűmlötök","[""klűmlötök"",""klűmöztök""]","","posttest trial","1",""
"html-button-response-clever","130","714666","0.0-13.0-0.10","5358","János imád klihasozni, ezért sokat klihaslik. Ti ritkán...","1","klihasoztok","[""klihaslotok"",""klihasoztok""]","","posttest trial","1",""
"html-button-response-clever","131","720161","0.0-13.0-0.11","4982","János imád bribasozni, ezért sokat bribaslik. Ők ritkán...","1","bribaslanak","[""bribasoznak"",""bribaslanak""]","","posttest trial","1",""
"html-button-response-clever","132","725688","0.0-13.0-0.12","5017","János imád nyöbözni, ezért sokat nyöbzik. Ők ritkán...","0","nyöbzenek","[""nyöbzenek"",""nyöböznek""]","","posttest trial","1",""
"html-button-response-clever","133","730849","0.0-13.0-0.13","4658","János imád bügözni, ezért sokat bügzik. Ők ritkán...","1","bügzenek","[""bügöznek"",""bügzenek""]","","posttest trial","1",""
"html-button-response-clever","134","734994","0.0-13.0-0.14","3632","János imád sztredezni, ezért sokat sztredlik. Ti ritkán...","0","sztredletek","[""sztredletek"",""sztredeztek""]","","posttest trial","1",""
"html-button-response-clever","135","739331","0.0-13.0-0.15","3828","János imád frorozni, ezért sokat frorlik. Ők ritkán...","0","frorlanak","[""frorlanak"",""froroznak""]","","posttest trial","1",""
"html-button-response-clever","136","743294","0.0-13.0-0.16","3457","János imád flátozni, ezért sokat flátlik. Ti ritkán...","1","flátlotok","[""flátoztok"",""flátlotok""]","","posttest trial","1",""
"html-button-response-clever","137","747754","0.0-13.0-0.17","3952","János imád spivejezni, ezért sokat spivejlik. Ők ritkán...","1","spivejlenek","[""spivejeznek"",""spivejlenek""]","","posttest trial","1",""
"html-button-response-clever","138","752233","0.0-13.0-0.18","3966","János imád géregezni, ezért sokat géreglik. Ti ritkán...","0","géregeztek","[""géregeztek"",""géregletek""]","","posttest trial","1",""
"html-button-response-clever","139","755870","0.0-13.0-0.19","3120","János imád gihamozni, ezért sokat gihamlik. Ők ritkán...","0","gihamlanak","[""gihamlanak"",""gihamoznak""]","","posttest trial","1",""
"html-button-response-clever","140","759152","0.0-13.0-0.20","2778","János imád flerékedni, ezért sokat flerékszik. Mi ritkán...","0","flerékszünk","[""flerékszünk"",""flerékedünk""]","","posttest trial","1",""
"html-button-response-clever","141","762910","0.0-13.0-0.21","3243","János imád trálakozni, ezért sokat trálaklik. Ők ritkán...","1","trálaklanak","[""trálakoznak"",""trálaklanak""]","","posttest trial","1",""
"html-button-response-clever","142","766944","0.0-13.0-0.22","3526","János imád nyülöközni, ezért sokat nyülöklik. Ők ritkán...","1","nyülöklenek","[""nyülököznek"",""nyülöklenek""]","","posttest trial","1",""
"html-button-response-clever","143","772024","0.0-13.0-0.23","4571","János imád dralágozni, ezért sokat dralágzik. Mi ritkán...","0","dralágozunk","[""dralágozunk"",""dralágzunk""]","","posttest trial","1",""
"html-button-response-clever","144","777905","0.0-13.0-0.24","5369","János imád frirozni, ezért sokat frirzik. Mi ritkán...","1","frirzunk","[""frirozunk"",""frirzunk""]","","posttest trial","1",""
"html-button-response-clever","145","782669","0.0-13.0-0.25","4254","János imád dibágozni, ezért sokat dibáglik. Ti ritkán...","0","dibáglotok","[""dibáglotok"",""dibágoztok""]","","posttest trial","1",""
"html-button-response-clever","146","787617","0.0-13.0-0.26","4439","János imád bribékedni, ezért sokat bribékszik. Ti ritkán...","1","bribékedtek","[""bribékszetek"",""bribékedtek""]","","posttest trial","1",""
"html-button-response-clever","147","792119","0.0-13.0-0.27","3998","János imád sprebezni, ezért sokat sprebzik. Ők ritkán...","1","sprebzenek","[""sprebeznek"",""sprebzenek""]","","posttest trial","1",""
"html-button-response-clever","148","794783","0.0-13.0-0.28","2157","János imád vehékedni, ezért sokat vehékszik. Mi ritkán...","1","vehékszünk","[""vehékedünk"",""vehékszünk""]","","posttest trial","1",""
"html-button-response-clever","149","798800","0.0-13.0-0.29","3506","János imád bötőrözni, ezért sokat bötőrzik. Mi ritkán...","1","bötőrzünk","[""bötőrözünk"",""bötőrzünk""]","","posttest trial","1",""
"html-button-response-clever","150","801759","0.0-13.0-0.30","2454","János imád flodozni, ezért sokat flodlik. Ti ritkán...","1","flodlotok","[""flodoztok"",""flodlotok""]","","posttest trial","1",""
"html-button-response-clever","151","804303","0.0-13.0-0.31","2033","János imád frinyozni, ezért sokat frinylik. Mi ritkán...","0","frinylunk","[""frinylunk"",""frinyozunk""]","","posttest trial","1",""
"html-button-response-clever","152","806793","0.0-13.0-0.32","1984","János imád játozni, ezért sokat játlik. Mi ritkán...","0","játlunk","[""játlunk"",""játozunk""]","","posttest trial","1",""
"html-button-response-clever","153","809162","0.0-13.0-0.33","1857","János imád brűközni, ezért sokat brűklik. Ti ritkán...","0","brűklötök","[""brűklötök"",""brűköztök""]","","posttest trial","1",""
"html-button-response-clever","154","813904","0.0-13.0-0.34","4233","János imád spuborozni, ezért sokat spuborzik. Ők ritkán...","0","spuborzanak","[""spuborzanak"",""spuboroznak""]","","posttest trial","1",""
"html-button-response-clever","155","816452","0.0-13.0-0.35","2032","János imád bresezni, ezért sokat breslik. Ők ritkán...","1","breslenek","[""breseznek"",""breslenek""]","","posttest trial","1",""
"html-button-response-clever","156","819432","0.0-13.0-0.36","2473","János imád bejezni, ezért sokat bejzik. Mi ritkán...","1","bejzünk","[""bejezünk"",""bejzünk""]","","posttest trial","1",""
"html-button-response-clever","157","823541","0.0-13.0-0.37","3593","János imád sűjözni, ezért sokat sűjlik. Mi ritkán...","0","sűjlünk","[""sűjlünk"",""sűjözünk""]","","posttest trial","1",""
"html-button-response-clever","158","825890","0.0-13.0-0.38","1841","János imád trálodni, ezért sokat trálszik. Mi ritkán...","1","trálszunk","[""trálodunk"",""trálszunk""]","","posttest trial","1",""
"html-button-response-clever","159","828207","0.0-13.0-0.39","1802","János imád nyádozni, ezért sokat nyádlik. Ők ritkán...","1","nyádlanak","[""nyádoznak"",""nyádlanak""]","","posttest trial","1",""
"html-button-response-clever","160","831227","0.0-13.0-0.40","2513","János imád trukodni, ezért sokat trukszik. Ti ritkán...","1","trukszotok","[""trukodtok"",""trukszotok""]","","posttest trial","1",""
"html-button-response-clever","161","833605","0.0-13.0-0.41","1875","János imád kláragodni, ezért sokat kláragszik. Ti ritkán...","1","kláragszotok","[""kláragodtok"",""kláragszotok""]","","posttest trial","1",""
"html-button-response-clever","162","835913","0.0-13.0-0.42","1799","János imád trilekedni, ezért sokat trilekszik. Ti ritkán...","1","trilekszetek","[""trilekedtek"",""trilekszetek""]","","posttest trial","1",""
"html-button-response-clever","163","837779","0.0-13.0-0.43","1358","János imád prugorozni, ezért sokat prugorzik. Ti ritkán...","1","prugoroztok","[""prugorzotok"",""prugoroztok""]","","posttest trial","1",""
"html-button-response-clever","164","841007","0.0-13.0-0.44","2721","János imád plibozni, ezért sokat plibzik. Ti ritkán...","1","pliboztok","[""plibzotok"",""pliboztok""]","","posttest trial","1",""
"html-button-response-clever","165","844636","0.0-13.0-0.45","3117","János imád nurokozni, ezért sokat nuroklik. Mi ritkán...","1","nuroklunk","[""nurokozunk"",""nuroklunk""]","","posttest trial","1",""
"html-button-response-clever","166","847197","0.0-13.0-0.46","2053","János imád nivározni, ezért sokat nivárzik. Ti ritkán...","1","nivárzotok","[""nivároztok"",""nivárzotok""]","","posttest trial","1",""
"html-button-response-clever","167","849292","0.0-13.0-0.47","1577","János imád vihapodni, ezért sokat vihapszik. Mi ritkán...","1","vihapszunk","[""vihapodunk"",""vihapszunk""]","","posttest trial","1",""
"html-button-response-clever","168","851709","0.0-13.0-0.48","1901","János imád brürözni, ezért sokat brürzik. Ők ritkán...","1","brürzenek","[""brüröznek"",""brürzenek""]","","posttest trial","1",""
"html-button-response-clever","169","855229","0.0-13.0-0.49","3004","János imád metégedni, ezért sokat metégszik. Ők ritkán...","0","metégszenek","[""metégszenek"",""metégednek""]","","posttest trial","1",""
"html-button-response-clever","170","857669","0.0-13.0-0.50","1934","János imád ribegedni, ezért sokat ribegszik. Ti ritkán...","1","ribegszetek","[""ribegedtek"",""ribegszetek""]","","posttest trial","1",""
"html-button-response-clever","171","860545","0.0-13.0-0.51","2365","János imád pibegezni, ezért sokat pibegzik. Ők ritkán...","0","pibegeznek","[""pibegeznek"",""pibegzenek""]","","posttest trial","1",""
"html-button-response-clever","172","862609","0.0-13.0-0.52","1561","János imád tögözni, ezért sokat töglik. Ők ritkán...","1","töglenek","[""tögöznek"",""töglenek""]","","posttest trial","1",""
"html-button-response-clever","173","864762","0.0-13.0-0.53","1640","János imád klégezni, ezért sokat kléglik. Mi ritkán...","0","kléglünk","[""kléglünk"",""klégezünk""]","","posttest trial","1",""
"html-button-response","174","868550","0.0-14.0","3277","<p> Vége a játéknak. A teljes pontszámod 38/54.</p><p> Szép munka! &#128526;&#128526;&#128526;</p><p>A Befejezés gomb megnyomása után bezárhatod a böngészőablakot.</p>","0","","","","","",""
"html-keyboard-response","175","874071","0.0-15.0","null","<div class=""message"">
         <p>Egy kis türelmet kérünk, amíg elmentjük az adatokat...</p>
         </div>","null","","","","","",""
