"trial_type","trial_index","time_elapsed","internal_node_id","rt","stimulus","response","response_string","choices","esp_response","trial_kind","list_number","esp_match"
"pavlovia","0","2294","0.0-0.0","","","","","","","","",""
"html-button-response","1","50016","0.0-1.0","47205","<p>Kedves Résztvevő! A Budapesti Műszaki és Gazdaságtudományi Egyetem Kognitív Tudományi Tanszékének kutatásában való részvételed kérjük. A kutatásban azt vizsgáljuk, hogy a magyar anyanyelvűek hogyan használnak bizonyos szóalakokat, és hogy milyen képük van arról, hogy mások hogyan használják, hogyan képzik a szavakat. Ez hozzásegít bennünket ahhoz, hogy jobban megértsük, hogyan dolgozza fel és tárolja a nyelvet az emberi agy, és hogyan működnek, hogyan változnak egy adott közösség nyelvi konvenciói.</p><p>A vizsgálat egy rövid számítógépes feladatból fog állni. A kutatásban való részvétel önkéntes, a részvételi szándék bármikor visszavonható. A résztvevők eredményeit név nélkül kezeljük, így nem beazonosíthatók az adatok feldolgozása során. Minden személyes adatot az EU általános adatvédelmi rendeletének (GDPR) megfelelően kezelünk és legfeljebb öt éven belül megsemmisítünk. A vizsgálat jellemzően húsz percet vesz igénybe.</p><p>Kutatásvezető:</p><p>Dr. Rácz Péter, tudományos munkatárs, BME KTT</p><p>e-mail: racz.peter.marton@ttk.bme.hu</p>","0","","","","","",""
"html-button-response","2","156443","0.0-2.0","105907","<p>A kísérletben szavakat fogsz látni. Ezek között lesznek olyanok, amelyeket ismersz, de előfordulhatnak olyanok is, amelyeket nem ismersz, sőt, vannak köztük kitalált szavak is. Minden szónál látni fogsz toldalékolt alakokat. A te feladatod az lesz, hogy minden szóhoz kiválaszd azt a toldalékolt alakot, amely a te számodra ismerősebben, természetesebben hangzik. Rossz válaszok nincsenek, mert van olyan, hogy különböző embereknek más és más szó tűnik jobb választásnak. A választ úgy tudod majd kiválasztani, ha rákattintasz.</p><p>Ebben a szóválasztós játékban egy másik játékossal együtt veszel majd részt. A másik játékos is minden esetben azok közül a lehetőségek közül válogathat, mint te. Kettőtök feladata az, hogy ugyanazt a lehetőséget válasszátok minden esetben. Ahhoz, hogy ez sikerüljön, neked figyelned kell arra, hogy a másik játékos milyen válaszokat ad, és ennek alapján meg kell tippelned, hogyan választ legközelebb. Ha eltalálod, akkor pontot kapsz.</p>","0","","","","","",""
"html-button-response","3","163510","0.0-3.0","6561","<p>Kérjük, olvasd el az alábbi nyilatkozatot, és amennyiben egyetértesz vele, nyomj a Beleegyezés gombra!</p><p>Kijelentem, hogy magyar anyanyelvű személyként önként veszek részt a BME KTT kísérletében. A kutatás céljával és folyamatával kapcsolatban elegendő tájékoztatást kaptam, lehetőségem volt kérdések feltételére, és esetleges kérdéseimre megfelelő válaszokat kaptam. A tájékoztatás alapján elegendő mennyiségű információ áll a rendelkezésemre, hogy eldönthessem, részt kívánok-e venni a kutatásban.</p><p>Tisztában vagyok vele, hogy részvételi szándékomat és adataimat bármikor, indoklás nélkül visszavonhatom.</p><p>Értem és tudomásul veszem, hogy a kutatás tudományos célokat szolgál, és az általam szolgáltatott adatokat a BME kizárólag kutatási célból használja fel. Tudomásul veszem, hogy eredményeimet a többi résztvevő eredményeivel együtt kezelik, így egyéni teljesítményemről visszajelzést, szakvéleményt nem kapok.</p><p>Megértettem, hogy adataim kezelését illetően a BME az EU általános adatvédelmi rendelete (GDPR), a hatályos adatvédelmi törvény és a nemzetközi kutatás-etikai alapelvek szerint jár el. Eredményeim anonim módon kerülnek feldolgozásra, és a kutatás résztvevői az azonosításomra alkalmas adataimat harmadik félnek nem szolgáltatják ki. Engedélyezem a BME számára a jelen kutatásban felvett adataim feldolgozását és tárolását, beleértve azok későbbi kutatásokhoz való felhasználását is. Személyes adataim kezelésével kapcsolatban tájékoztatást kérhetek a kutatás résztvevőitől, az adatkezelés ellen tiltakozhatok, kérhetem személyes adataim helyesbítését, törlését vagy zárolását, valamint jogorvoslatért a Nemzeti Adatvédelmi és Információszabadság Hatósághoz fordulhatok.</p><p>Kijelentem, hogy a kutatásban való részvételem körülményeiről részletes tájékoztatást kaptam, és a feltételeket elfogadom.</p>","0","","","","","",""
"survey-text","4","207697","0.0-4.0","43674","","{""Q0"":""E0OHSZ"",""Q1"":""nő"",""Q2"":""1973"",""Q3"":""17""}","","","","","",""
"html-button-response","5","224733","0.0-5.0","16529","<p>Ebben a játékban szavakat kell toldalékolni.</p> <p>Minden körben mutatunk majd egy példamondatot, amiben lesz egy szó.</p> <p>Alatta jön egy második mondat, ezt a mondatot neked kell majd befejezni, ugyanezzel a szóval.</p> <p>Nem biztos, hogy a szó eleve ismerős lesz számodra!</p> <p>Minden mondathoz adunk két lehetőséget, ezeket balra és jobbra látod majd.</p> <p>A játék kb. negyedóráig-húsz percig tart.</p>","0","","","","","",""
"html-button-response","6","245907","0.0-6.0","20660","<p>Nézzünk egy példát!</p> <p>A példamondat: ""Ez itt egy blumbnyeg.""</p><p>Neked ezt a mondatot kell befejezned: ""Ott vagyunk a...""</p><p>A lehetőségek pedig ezek:</p>","0","","","","","",""
"html-button-response","7","254142","0.0-7.0","7726","<p>Nagyon jó.</p><p>Ezt a játékot nem egyedül fogod játszani, hanem egy másik játékossal.</p><p>Mielőtt továbblépünk, összekapcsolunk titeket egymással.</p><p>Ez igénybe vehet néhány másodpercet, amihez szíves türelmed kérjük.</p>","0","","","","","",""
"html-button-response","8","259894","0.0-8.0","null","<p>Csatlakozás a másik játékoshoz...</p>","null","","","","","",""
"html-button-response","9","262417","0.0-9.0","null","<p> Sikeres kapcsolódás!</p>","null","","","","","",""
"html-button-response","10","272940","0.0-10.0","null","<p>A következőkben ketten játsszátok a szóválasztós játékot.</p><p>A feladatotok az lesz, hogy minden körben <b>ugyanazt</b> a szót válasszátok.</p><p>Minden ilyen egyező válaszért pontot kaptok.</p><p>Próbáld meg kitalálni, mit választ a másik játékos!</p><p>Bármikor választhatsz, a körnek akkor van vége, ha mindketten döntöttetek.</p><p>Sok sikert!</p>","null","","","","","",""
"html-button-response-esp","11","282235","0.0-11.0-0.0","8782","Ez itt egy brindez. Elneveztem a kutyámat...","0","brindeznek","[""brindeznek"",""brindeznak""]","brindeznak","esp trial","2","false"
"html-button-response","12","285748","0.0-11.0-1.0","null","<p>A másik játékos ezt választotta: <b>brindeznak</b>.</p><p>&#10060;</p><p>A válaszaitok <b>nem</b> egyeznek meg.</p>","null","","","","feedback trial","",""
"html-button-response-esp","13","293443","0.0-11.0-0.1","7189","Ez itt egy zsáder. Ott vagyunk a...","1","zsáderben","[""zsáderban"",""zsáderben""]","zsáderben","esp trial","2","true"
"html-button-response","14","296966","0.0-11.0-1.1","null","<p>A másik játékos ezt választotta: <b>zsáderben</b>.</p><p>&#x2705;</p><p>A te válaszod és a másik játékos válasza <b>megegyeznek</b>.</p>","null","","","","feedback trial","",""
"html-button-response-esp","15","304788","0.0-11.0-0.2","7305","Ez itt egy lorzens. Nincs is jobb egy jó...","0","lorzensnél","[""lorzensnél"",""lorzensnál""]","lorzensnél","esp trial","2","true"
"html-button-response","16","308314","0.0-11.0-1.2","null","<p>A másik játékos ezt választotta: <b>lorzensnél</b>.</p><p>&#x2705;</p><p>A te válaszod és a másik játékos válasza <b>megegyeznek</b>.</p>","null","","","","feedback trial","",""
"html-button-response-esp","17","315184","0.0-11.0-0.3","4735","Ez itt egy gúden. Ott vagyunk a...","0","gúdenben","[""gúdenben"",""gúdenban""]","gúdenban","esp trial","2","false"
"html-button-response","18","318695","0.0-11.0-1.3","null","<p>A másik játékos ezt választotta: <b>gúdenban</b>.</p><p>&#10060;</p><p>A válaszaitok <b>nem</b> egyeznek meg.</p>","null","","","","feedback trial","",""
"html-button-response-esp","19","325561","0.0-11.0-0.4","5597","Ez itt egy kátel. Elneveztem a kutyámat...","1","kátelnak","[""kátelnek"",""kátelnak""]","kátelnek","esp trial","2","false"
"html-button-response","20","329083","0.0-11.0-1.4","null","<p>A másik játékos ezt választotta: <b>kátelnek</b>.</p><p>&#10060;</p><p>A válaszaitok <b>nem</b> egyeznek meg.</p>","null","","","","feedback trial","",""
"html-button-response-esp","21","335967","0.0-11.0-0.5","5488","Ez itt egy dábegy. Ott vagyunk a...","0","dábegyben","[""dábegyben"",""dábegyban""]","dábegyben","esp trial","2","true"
"html-button-response","22","339499","0.0-11.0-1.5","null","<p>A másik játékos ezt választotta: <b>dábegyben</b>.</p><p>&#x2705;</p><p>A te válaszod és a másik játékos válasza <b>megegyeznek</b>.</p>","null","","","","feedback trial","",""
"html-button-response-esp","23","346379","0.0-11.0-0.6","5453","Ez itt egy spicet. Elneveztem a kutyámat...","0","spicetnek","[""spicetnek"",""spicetnak""]","spicetnak","esp trial","2","false"
"html-button-response","24","349899","0.0-11.0-1.6","null","<p>A másik játékos ezt választotta: <b>spicetnak</b>.</p><p>&#10060;</p><p>A válaszaitok <b>nem</b> egyeznek meg.</p>","null","","","","feedback trial","",""
"html-button-response-esp","25","362053","0.0-11.0-0.7","11651","Ez itt egy spanél. Nincs is jobb egy jó...","1","spanélnél","[""spanélnál"",""spanélnél""]","spanélnél","esp trial","2","true"
"html-button-response","26","365576","0.0-11.0-1.7","null","<p>A másik játékos ezt választotta: <b>spanélnél</b>.</p><p>&#x2705;</p><p>A te válaszod és a másik játékos válasza <b>megegyeznek</b>.</p>","null","","","","feedback trial","",""
"html-button-response-esp","27","374276","0.0-11.0-0.8","8186","Ez itt egy tosély. Ott vagyunk a...","1","tosélyben","[""tosélyban"",""tosélyben""]","tosélyben","esp trial","2","true"
"html-button-response","28","377806","0.0-11.0-1.8","null","<p>A másik játékos ezt választotta: <b>tosélyben</b>.</p><p>&#x2705;</p><p>A te válaszod és a másik játékos válasza <b>megegyeznek</b>.</p>","null","","","","feedback trial","",""
"html-button-response-esp","29","385436","0.0-11.0-0.9","7119","Ez itt egy ronszek. Ott vagyunk a...","0","ronszekben","[""ronszekben"",""ronszekban""]","ronszekben","esp trial","2","true"
"html-button-response","30","388956","0.0-11.0-1.9","null","<p>A másik játékos ezt választotta: <b>ronszekben</b>.</p><p>&#x2705;</p><p>A te válaszod és a másik játékos válasza <b>megegyeznek</b>.</p>","null","","","","feedback trial","",""
"html-button-response-esp","31","396660","0.0-11.0-0.10","7202","Ez itt egy zsádév. Elneveztem a kutyámat...","0","zsádévnek","[""zsádévnek"",""zsádévnak""]","zsádévnek","esp trial","2","true"
"html-button-response","32","400182","0.0-11.0-1.10","null","<p>A másik játékos ezt választotta: <b>zsádévnek</b>.</p><p>&#x2705;</p><p>A te válaszod és a másik játékos válasza <b>megegyeznek</b>.</p>","null","","","","feedback trial","",""
"html-button-response-esp","33","407057","0.0-11.0-0.11","5810","Ez itt egy dorzéj. Elneveztem a kutyámat...","0","dorzéjnek","[""dorzéjnek"",""dorzéjnak""]","dorzéjnek","esp trial","2","true"
"html-button-response","34","410576","0.0-11.0-1.11","null","<p>A másik játékos ezt választotta: <b>dorzéjnek</b>.</p><p>&#x2705;</p><p>A te válaszod és a másik játékos válasza <b>megegyeznek</b>.</p>","null","","","","feedback trial","",""
"html-button-response-esp","35","417451","0.0-11.0-0.12","5414","Ez itt egy klingesz. Ott vagyunk a...","0","klingeszben","[""klingeszben"",""klingeszban""]","klingeszban","esp trial","2","false"
"html-button-response","36","420983","0.0-11.0-1.12","null","<p>A másik játékos ezt választotta: <b>klingeszban</b>.</p><p>&#10060;</p><p>A válaszaitok <b>nem</b> egyeznek meg.</p>","null","","","","feedback trial","",""
"html-button-response-esp","37","428137","0.0-11.0-0.13","6648","Ez itt egy priszec. Ott vagyunk a...","0","priszecben","[""priszecben"",""priszecban""]","priszecban","esp trial","2","false"
"html-button-response","38","431653","0.0-11.0-1.13","null","<p>A másik játékos ezt választotta: <b>priszecban</b>.</p><p>&#10060;</p><p>A válaszaitok <b>nem</b> egyeznek meg.</p>","null","","","","feedback trial","",""
"html-button-response-esp","39","438513","0.0-11.0-0.14","3186","Ez itt egy nyítem. Ott vagyunk a...","1","nyítemban","[""nyítemben"",""nyítemban""]","nyítemban","esp trial","2","true"
"html-button-response","40","442031","0.0-11.0-1.14","null","<p>A másik játékos ezt választotta: <b>nyítemban</b>.</p><p>&#x2705;</p><p>A te válaszod és a másik játékos válasza <b>megegyeznek</b>.</p>","null","","","","feedback trial","",""
"html-button-response-esp","41","450292","0.0-11.0-0.15","7744","Ez itt egy pítend. Ott vagyunk a...","1","pítendben","[""pítendban"",""pítendben""]","pítendban","esp trial","2","false"
"html-button-response","42","453805","0.0-11.0-1.15","null","<p>A másik játékos ezt választotta: <b>pítendban</b>.</p><p>&#10060;</p><p>A válaszaitok <b>nem</b> egyeznek meg.</p>","null","","","","feedback trial","",""
"html-button-response-esp","43","460971","0.0-11.0-0.16","6657","Ez itt egy sortem. Nincs is jobb egy jó...","0","sortemnél","[""sortemnél"",""sortemnál""]","sortemnél","esp trial","2","true"
"html-button-response","44","464498","0.0-11.0-1.16","null","<p>A másik játékos ezt választotta: <b>sortemnél</b>.</p><p>&#x2705;</p><p>A te válaszod és a másik játékos válasza <b>megegyeznek</b>.</p>","null","","","","feedback trial","",""
"html-button-response-esp","45","471360","0.0-11.0-0.17","4767","Ez itt egy fájéz. Ott vagyunk a...","0","fájézban","[""fájézban"",""fájézben""]","fájézben","esp trial","2","false"
"html-button-response","46","474884","0.0-11.0-1.17","null","<p>A másik játékos ezt választotta: <b>fájézben</b>.</p><p>&#10060;</p><p>A válaszaitok <b>nem</b> egyeznek meg.</p>","null","","","","feedback trial","",""
"html-button-response-esp","47","482819","0.0-11.0-0.18","7419","Ez itt egy trájeg. Ott vagyunk a...","1","trájegban","[""trájegben"",""trájegban""]","trájegben","esp trial","2","false"
"html-button-response","48","486327","0.0-11.0-1.18","null","<p>A másik játékos ezt választotta: <b>trájegben</b>.</p><p>&#10060;</p><p>A válaszaitok <b>nem</b> egyeznek meg.</p>","null","","","","feedback trial","",""
"html-button-response-esp","49","493184","0.0-11.0-0.19","3369","Ez itt egy kalréz. Ott vagyunk a...","1","kalrézben","[""kalrézban"",""kalrézben""]","kalrézben","esp trial","2","true"
"html-button-response","50","496710","0.0-11.0-1.19","null","<p>A másik játékos ezt választotta: <b>kalrézben</b>.</p><p>&#x2705;</p><p>A te válaszod és a másik játékos válasza <b>megegyeznek</b>.</p>","null","","","","feedback trial","",""
"html-button-response-esp","51","503575","0.0-11.0-0.20","3476","Ez itt egy narem. Ott vagyunk a...","1","naremben","[""naremban"",""naremben""]","naremben","esp trial","2","true"
"html-button-response","52","507100","0.0-11.0-1.20","null","<p>A másik játékos ezt választotta: <b>naremben</b>.</p><p>&#x2705;</p><p>A te válaszod és a másik játékos válasza <b>megegyeznek</b>.</p>","null","","","","feedback trial","",""
"html-button-response-esp","53","513975","0.0-11.0-0.21","5397","Ez itt egy zopély. Nincs is jobb egy jó...","1","zopélynál","[""zopélynél"",""zopélynál""]","zopélynél","esp trial","2","false"
"html-button-response","54","517490","0.0-11.0-1.21","null","<p>A másik játékos ezt választotta: <b>zopélynél</b>.</p><p>&#10060;</p><p>A válaszaitok <b>nem</b> egyeznek meg.</p>","null","","","","feedback trial","",""
"html-button-response-esp","55","524373","0.0-11.0-0.22","5283","Ez itt egy pijél. Nincs is jobb egy jó...","1","pijélnél","[""pijélnál"",""pijélnél""]","pijélnál","esp trial","2","false"
"html-button-response","56","527902","0.0-11.0-1.22","null","<p>A másik játékos ezt választotta: <b>pijélnál</b>.</p><p>&#10060;</p><p>A válaszaitok <b>nem</b> egyeznek meg.</p>","null","","","","feedback trial","",""
"html-button-response-esp","57","536570","0.0-11.0-0.23","8156","Ez itt egy zsúdel. Elneveztem a kutyámat...","1","zsúdelnek","[""zsúdelnak"",""zsúdelnek""]","zsúdelnek","esp trial","2","true"
"html-button-response","58","540081","0.0-11.0-1.23","null","<p>A másik játékos ezt választotta: <b>zsúdelnek</b>.</p><p>&#x2705;</p><p>A te válaszod és a másik játékos válasza <b>megegyeznek</b>.</p>","null","","","","feedback trial","",""
"html-button-response-esp","59","546954","0.0-11.0-0.24","5559","Ez itt egy vorszen. Nincs is jobb egy jó...","1","vorszennél","[""vorszennál"",""vorszennél""]","vorszennél","esp trial","2","true"
"html-button-response","60","550476","0.0-11.0-1.24","null","<p>A másik játékos ezt választotta: <b>vorszennél</b>.</p><p>&#x2705;</p><p>A te válaszod és a másik játékos válasza <b>megegyeznek</b>.</p>","null","","","","feedback trial","",""
"html-button-response-esp","61","557345","0.0-11.0-0.25","4778","Ez itt egy bupéz. Ott vagyunk a...","1","bupézben","[""bupézban"",""bupézben""]","bupézben","esp trial","2","true"
"html-button-response","62","560857","0.0-11.0-1.25","null","<p>A másik játékos ezt választotta: <b>bupézben</b>.</p><p>&#x2705;</p><p>A te válaszod és a másik játékos válasza <b>megegyeznek</b>.</p>","null","","","","feedback trial","",""
"html-button-response-esp","63","569418","0.0-11.0-0.26","8050","Ez itt egy zsigén. Nincs is jobb egy jó...","1","zsigénnél","[""zsigénnál"",""zsigénnél""]","zsigénnál","esp trial","2","false"
"html-button-response","64","572942","0.0-11.0-1.26","null","<p>A másik játékos ezt választotta: <b>zsigénnál</b>.</p><p>&#10060;</p><p>A válaszaitok <b>nem</b> egyeznek meg.</p>","null","","","","feedback trial","",""
"html-button-response-esp","65","579811","0.0-11.0-0.27","5573","Ez itt egy pivéd. Ott vagyunk a...","0","pivédben","[""pivédben"",""pivédban""]","pivédben","esp trial","2","true"
"html-button-response","66","583334","0.0-11.0-1.27","null","<p>A másik játékos ezt választotta: <b>pivédben</b>.</p><p>&#x2705;</p><p>A te válaszod és a másik játékos válasza <b>megegyeznek</b>.</p>","null","","","","feedback trial","",""
"html-button-response-esp","67","591002","0.0-11.0-0.28","7164","Ez itt egy spábét. Ott vagyunk a...","1","spábétban","[""spábétben"",""spábétban""]","spábétben","esp trial","2","false"
"html-button-response","68","594527","0.0-11.0-1.28","null","<p>A másik játékos ezt választotta: <b>spábétben</b>.</p><p>&#10060;</p><p>A válaszaitok <b>nem</b> egyeznek meg.</p>","null","","","","feedback trial","",""
"html-button-response-esp","69","603120","0.0-11.0-0.29","8084","Ez itt egy jukél. Nincs is jobb egy jó...","1","jukélnál","[""jukélnél"",""jukélnál""]","jukélnél","esp trial","2","false"
"html-button-response","70","606638","0.0-11.0-1.29","null","<p>A másik játékos ezt választotta: <b>jukélnél</b>.</p><p>&#10060;</p><p>A válaszaitok <b>nem</b> egyeznek meg.</p>","null","","","","feedback trial","",""
"html-button-response-esp","71","613648","0.0-11.0-0.30","6507","Ez itt egy jóbec. Elneveztem a kutyámat...","1","jóbecnek","[""jóbecnak"",""jóbecnek""]","jóbecnek","esp trial","2","true"
"html-button-response","72","617177","0.0-11.0-1.30","null","<p>A másik játékos ezt választotta: <b>jóbecnek</b>.</p><p>&#x2705;</p><p>A te válaszod és a másik játékos válasza <b>megegyeznek</b>.</p>","null","","","","feedback trial","",""
"html-button-response-esp","73","624050","0.0-11.0-0.31","5237","Ez itt egy pisély. Ott vagyunk a...","0","pisélyben","[""pisélyben"",""pisélyban""]","pisélyban","esp trial","2","false"
"html-button-response","74","627567","0.0-11.0-1.31","null","<p>A másik játékos ezt választotta: <b>pisélyban</b>.</p><p>&#10060;</p><p>A válaszaitok <b>nem</b> egyeznek meg.</p>","null","","","","feedback trial","",""
"html-button-response-esp","75","638306","0.0-11.0-0.32","10234","Ez itt egy garcép. Nincs is jobb egy jó...","0","garcépnél","[""garcépnél"",""garcépnál""]","garcépnél","esp trial","2","true"
"html-button-response","76","641830","0.0-11.0-1.32","null","<p>A másik játékos ezt választotta: <b>garcépnél</b>.</p><p>&#x2705;</p><p>A te válaszod és a másik játékos válasza <b>megegyeznek</b>.</p>","null","","","","feedback trial","",""
"html-button-response-esp","77","650551","0.0-11.0-0.33","8216","Ez itt egy incéj. Elneveztem a kutyámat...","0","incéjnek","[""incéjnek"",""incéjnak""]","incéjnak","esp trial","2","false"
"html-button-response","78","654078","0.0-11.0-1.33","null","<p>A másik játékos ezt választotta: <b>incéjnak</b>.</p><p>&#10060;</p><p>A válaszaitok <b>nem</b> egyeznek meg.</p>","null","","","","feedback trial","",""
"html-button-response-esp","79","661762","0.0-11.0-0.34","7180","Ez itt egy dihely. Elneveztem a kutyámat...","0","dihelynak","[""dihelynak"",""dihelynek""]","dihelynak","esp trial","2","true"
"html-button-response","80","665282","0.0-11.0-1.34","null","<p>A másik játékos ezt választotta: <b>dihelynak</b>.</p><p>&#x2705;</p><p>A te válaszod és a másik játékos válasza <b>megegyeznek</b>.</p>","null","","","","feedback trial","",""
"html-button-response-esp","81","673061","0.0-11.0-0.35","7271","Ez itt egy zihenc. Elneveztem a kutyámat...","0","zihencnak","[""zihencnak"",""zihencnek""]","zihencnak","esp trial","2","true"
"html-button-response","82","676574","0.0-11.0-1.35","null","<p>A másik játékos ezt választotta: <b>zihencnak</b>.</p><p>&#x2705;</p><p>A te válaszod és a másik játékos válasza <b>megegyeznek</b>.</p>","null","","","","feedback trial","",""
"html-button-response-esp","83","683435","0.0-11.0-0.36","5671","Ez itt egy danét. Nincs is jobb egy jó...","1","danétnél","[""danétnál"",""danétnél""]","danétnél","esp trial","2","true"
"html-button-response","84","686959","0.0-11.0-1.36","null","<p>A másik játékos ezt választotta: <b>danétnél</b>.</p><p>&#x2705;</p><p>A te válaszod és a másik játékos válasza <b>megegyeznek</b>.</p>","null","","","","feedback trial","",""
"html-button-response-esp","85","697231","0.0-11.0-0.37","9764","Ez itt egy trismél. Elneveztem a kutyámat...","1","trismélnak","[""trismélnek"",""trismélnak""]","trismélnak","esp trial","2","true"
"html-button-response","86","700761","0.0-11.0-1.37","null","<p>A másik játékos ezt választotta: <b>trismélnak</b>.</p><p>&#x2705;</p><p>A te válaszod és a másik játékos válasza <b>megegyeznek</b>.</p>","null","","","","feedback trial","",""
"html-button-response-esp","87","707631","0.0-11.0-0.38","6038","Ez itt egy darhén. Ott vagyunk a...","0","darhénben","[""darhénben"",""darhénban""]","darhénben","esp trial","2","true"
"html-button-response","88","711143","0.0-11.0-1.38","null","<p>A másik játékos ezt választotta: <b>darhénben</b>.</p><p>&#x2705;</p><p>A te válaszod és a másik játékos válasza <b>megegyeznek</b>.</p>","null","","","","feedback trial","",""
"html-button-response-esp","89","718127","0.0-11.0-0.39","6482","Ez itt egy kalhész. Elneveztem a kutyámat...","0","kalhésznak","[""kalhésznak"",""kalhésznek""]","kalhésznek","esp trial","2","false"
"html-button-response","90","721645","0.0-11.0-1.39","null","<p>A másik játékos ezt választotta: <b>kalhésznek</b>.</p><p>&#10060;</p><p>A válaszaitok <b>nem</b> egyeznek meg.</p>","null","","","","feedback trial","",""
"html-button-response-esp","91","728524","0.0-11.0-0.40","5785","Ez itt egy kaszép. Elneveztem a kutyámat...","0","kaszépnek","[""kaszépnek"",""kaszépnak""]","kaszépnek","esp trial","2","true"
"html-button-response","92","732036","0.0-11.0-1.40","null","<p>A másik játékos ezt választotta: <b>kaszépnek</b>.</p><p>&#x2705;</p><p>A te válaszod és a másik játékos válasza <b>megegyeznek</b>.</p>","null","","","","feedback trial","",""
"html-button-response-esp","93","738907","0.0-11.0-0.41","5944","Ez itt egy spumény. Elneveztem a kutyámat...","0","spuménynek","[""spuménynek"",""spuménynak""]","spuménynek","esp trial","2","true"
"html-button-response","94","742432","0.0-11.0-1.41","null","<p>A másik játékos ezt választotta: <b>spuménynek</b>.</p><p>&#x2705;</p><p>A te válaszod és a másik játékos válasza <b>megegyeznek</b>.</p>","null","","","","feedback trial","",""
"html-button-response-esp","95","749689","0.0-11.0-0.42","6751","Ez itt egy braszenc. Nincs is jobb egy jó...","1","braszencnél","[""braszencnál"",""braszencnél""]","braszencnél","esp trial","2","true"
"html-button-response","96","753209","0.0-11.0-1.42","null","<p>A másik játékos ezt választotta: <b>braszencnél</b>.</p><p>&#x2705;</p><p>A te válaszod és a másik játékos válasza <b>megegyeznek</b>.</p>","null","","","","feedback trial","",""
"html-button-response-esp","97","760084","0.0-11.0-0.43","6288","Ez itt egy klosét. Elneveztem a kutyámat...","1","klosétnak","[""klosétnek"",""klosétnak""]","klosétnek","esp trial","2","false"
"html-button-response","98","763601","0.0-11.0-1.43","null","<p>A másik játékos ezt választotta: <b>klosétnek</b>.</p><p>&#10060;</p><p>A válaszaitok <b>nem</b> egyeznek meg.</p>","null","","","","feedback trial","",""
"html-button-response-esp","99","770461","0.0-11.0-0.44","5195","Ez itt egy ítens. Ott vagyunk a...","1","ítensben","[""ítensban"",""ítensben""]","ítensben","esp trial","2","true"
"html-button-response","100","773980","0.0-11.0-1.44","null","<p>A másik játékos ezt választotta: <b>ítensben</b>.</p><p>&#x2705;</p><p>A te válaszod és a másik játékos válasza <b>megegyeznek</b>.</p>","null","","","","feedback trial","",""
"html-button-response-esp","101","782888","0.0-11.0-0.45","8392","Ez itt egy sprivenc. Nincs is jobb egy jó...","0","sprivencnél","[""sprivencnél"",""sprivencnál""]","sprivencnál","esp trial","2","false"
"html-button-response","102","786417","0.0-11.0-1.45","null","<p>A másik játékos ezt választotta: <b>sprivencnál</b>.</p><p>&#10060;</p><p>A válaszaitok <b>nem</b> egyeznek meg.</p>","null","","","","feedback trial","",""
"html-button-response-esp","103","794009","0.0-11.0-0.46","7074","Ez itt egy bralkép. Ott vagyunk a...","1","bralképben","[""bralképban"",""bralképben""]","bralképben","esp trial","2","true"
"html-button-response","104","797529","0.0-11.0-1.46","null","<p>A másik játékos ezt választotta: <b>bralképben</b>.</p><p>&#x2705;</p><p>A te válaszod és a másik játékos válasza <b>megegyeznek</b>.</p>","null","","","","feedback trial","",""
"html-button-response-esp","105","805914","0.0-11.0-0.47","7869","Ez itt egy monveg. Nincs is jobb egy jó...","1","monvegnál","[""monvegnél"",""monvegnál""]","monvegnél","esp trial","2","false"
"html-button-response","106","809445","0.0-11.0-1.47","null","<p>A másik játékos ezt választotta: <b>monvegnél</b>.</p><p>&#10060;</p><p>A válaszaitok <b>nem</b> egyeznek meg.</p>","null","","","","feedback trial","",""
"html-button-response-esp","107","816301","0.0-11.0-0.48","4328","Ez itt egy luméz. Ott vagyunk a...","1","lumézben","[""lumézban"",""lumézben""]","lumézben","esp trial","2","true"
"html-button-response","108","819813","0.0-11.0-1.48","null","<p>A másik játékos ezt választotta: <b>lumézben</b>.</p><p>&#x2705;</p><p>A te válaszod és a másik játékos válasza <b>megegyeznek</b>.</p>","null","","","","feedback trial","",""
"html-button-response-esp","109","828259","0.0-11.0-0.49","7933","Ez itt egy nyamet. Ott vagyunk a...","1","nyametben","[""nyametban"",""nyametben""]","nyametben","esp trial","2","true"
"html-button-response","110","831767","0.0-11.0-1.49","null","<p>A másik játékos ezt választotta: <b>nyametben</b>.</p><p>&#x2705;</p><p>A te válaszod és a másik játékos válasza <b>megegyeznek</b>.</p>","null","","","","feedback trial","",""
"html-button-response-esp","111","838724","0.0-11.0-0.50","6452","Ez itt egy dalenc. Nincs is jobb egy jó...","1","dalencnél","[""dalencnál"",""dalencnél""]","dalencnél","esp trial","2","true"
"html-button-response","112","842241","0.0-11.0-1.50","null","<p>A másik játékos ezt választotta: <b>dalencnél</b>.</p><p>&#x2705;</p><p>A te válaszod és a másik játékos válasza <b>megegyeznek</b>.</p>","null","","","","feedback trial","",""
"html-button-response-esp","113","849116","0.0-11.0-0.51","5356","Ez itt egy nyupér. Nincs is jobb egy jó...","0","nyupérnél","[""nyupérnél"",""nyupérnál""]","nyupérnél","esp trial","2","true"
"html-button-response","114","852631","0.0-11.0-1.51","null","<p>A másik játékos ezt választotta: <b>nyupérnél</b>.</p><p>&#x2705;</p><p>A te válaszod és a másik játékos válasza <b>megegyeznek</b>.</p>","null","","","","feedback trial","",""
"html-button-response-esp","115","859497","0.0-11.0-0.52","5041","Ez itt egy hágyét. Elneveztem a kutyámat...","1","hágyétnek","[""hágyétnak"",""hágyétnek""]","hágyétnek","esp trial","2","true"
"html-button-response","116","863014","0.0-11.0-1.52","null","<p>A másik játékos ezt választotta: <b>hágyétnek</b>.</p><p>&#x2705;</p><p>A te válaszod és a másik játékos válasza <b>megegyeznek</b>.</p>","null","","","","feedback trial","",""
"html-button-response-esp","117","869893","0.0-11.0-0.53","5928","Ez itt egy rapszek. Nincs is jobb egy jó...","1","rapszeknél","[""rapszeknál"",""rapszeknél""]","rapszeknél","esp trial","2","true"
"html-button-response","118","873405","0.0-11.0-1.53","null","<p>A másik játékos ezt választotta: <b>rapszeknél</b>.</p><p>&#x2705;</p><p>A te válaszod és a másik játékos válasza <b>megegyeznek</b>.</p>","null","","","","feedback trial","",""
"html-button-response","119","885008","0.0-12.0","11085","<p>A közös játék most véget ért.</p><p>Mielőtt eláruljuk a végső pontszámodat, arra kérlek, játszd a szóválasztós játékot néhány percig egyedül is.</p><p>A feladatod ugyanaz lesz, választani két lehetőség közül.</p><p>Most viszont egyedül kell döntened, hogy te melyiket választanád.</p>","0","","","","","",""
"html-button-response-clever","120","891658","0.0-13.0-0.0","6140","Ez itt egy spizec. Elneveztem a kutyámat...","1","spizecnek","[""spizecnak"",""spizecnek""]","","posttest trial","4",""
"html-button-response-clever","121","899918","0.0-13.0-0.1","7743","Ez itt egy fágyép. Nincs is jobb egy jó...","0","fágyépnél","[""fágyépnél"",""fágyépnál""]","","posttest trial","4",""
"html-button-response-clever","122","907699","0.0-13.0-0.2","7268","Ez itt egy klajrén. Elneveztem a kutyámat...","0","klajrénnek","[""klajrénnek"",""klajrénnak""]","","posttest trial","4",""
"html-button-response-clever","123","914690","0.0-13.0-0.3","6482","Ez itt egy hijegy. Nincs is jobb egy jó...","1","hijegynél","[""hijegynál"",""hijegynél""]","","posttest trial","4",""
"html-button-response-clever","124","921052","0.0-13.0-0.4","5858","Ez itt egy gábéd. Nincs is jobb egy jó...","0","gábédnél","[""gábédnél"",""gábédnál""]","","posttest trial","4",""
"html-button-response-clever","125","926799","0.0-13.0-0.5","5239","Ez itt egy dunkész. Ott vagyunk a...","1","dunkészben","[""dunkészban"",""dunkészben""]","","posttest trial","4",""
"html-button-response-clever","126","932796","0.0-13.0-0.6","5493","Ez itt egy surnegy. Nincs is jobb egy jó...","0","surnegynél","[""surnegynél"",""surnegynál""]","","posttest trial","4",""
"html-button-response-clever","127","938055","0.0-13.0-0.7","4754","Ez itt egy zuten. Nincs is jobb egy jó...","0","zutennél","[""zutennél"",""zutennál""]","","posttest trial","4",""
"html-button-response-clever","128","949419","0.0-13.0-0.8","10855","Ez itt egy fizend. Ott vagyunk a...","0","fizendben","[""fizendben"",""fizendban""]","","posttest trial","4",""
"html-button-response-clever","129","955019","0.0-13.0-0.9","5097","Ez itt egy lijez. Elneveztem a kutyámat...","1","lijeznek","[""lijeznak"",""lijeznek""]","","posttest trial","4",""
"html-button-response-clever","130","959346","0.0-13.0-0.10","3819","Ez itt egy vurnel. Elneveztem a kutyámat...","0","vurnelnek","[""vurnelnek"",""vurnelnak""]","","posttest trial","4",""
"html-button-response-clever","131","964225","0.0-13.0-0.11","4375","Ez itt egy spivél. Elneveztem a kutyámat...","0","spivélnek","[""spivélnek"",""spivélnak""]","","posttest trial","4",""
"html-button-response-clever","132","969920","0.0-13.0-0.12","5178","Ez itt egy vodec. Nincs is jobb egy jó...","1","vodecnél","[""vodecnál"",""vodecnél""]","","posttest trial","4",""
"html-button-response-clever","133","976946","0.0-13.0-0.13","6521","Ez itt egy szanéj. Elneveztem a kutyámat...","0","szanéjnek","[""szanéjnek"",""szanéjnak""]","","posttest trial","4",""
"html-button-response-clever","134","981262","0.0-13.0-0.14","3797","Ez itt egy szibed. Ott vagyunk a...","1","szibedben","[""szibedban"",""szibedben""]","","posttest trial","4",""
"html-button-response-clever","135","988820","0.0-13.0-0.15","7050","Ez itt egy zsalrén. Elneveztem a kutyámat...","0","zsalrénnek","[""zsalrénnek"",""zsalrénnak""]","","posttest trial","4",""
"html-button-response-clever","136","998620","0.0-13.0-0.16","9292","Ez itt egy klazér. Ott vagyunk a...","1","klazérben","[""klazérban"",""klazérben""]","","posttest trial","4",""
"html-button-response-clever","137","1017661","0.0-13.0-0.17","18534","Ez itt egy zábény. Elneveztem a kutyámat...","1","zábénynek","[""zábénynak"",""zábénynek""]","","posttest trial","4",""
"html-button-response-clever","138","1032355","0.0-13.0-0.18","14186","Ez itt egy tumély. Nincs is jobb egy jó...","0","tumélynél","[""tumélynél"",""tumélynál""]","","posttest trial","4",""
"html-button-response-clever","139","1038647","0.0-13.0-0.19","5783","Ez itt egy jurdent. Nincs is jobb egy jó...","0","jurdentnél","[""jurdentnél"",""jurdentnál""]","","posttest trial","4",""
"html-button-response-clever","140","1043824","0.0-13.0-0.20","4674","Ez itt egy kátéd. Nincs is jobb egy jó...","1","kátédnél","[""kátédnál"",""kátédnél""]","","posttest trial","4",""
"html-button-response-clever","141","1048526","0.0-13.0-0.21","4194","Ez itt egy dibez. Ott vagyunk a...","1","dibezben","[""dibezban"",""dibezben""]","","posttest trial","4",""
"html-button-response-clever","142","1054899","0.0-13.0-0.22","5858","Ez itt egy briskéd. Nincs is jobb egy jó...","0","briskédnél","[""briskédnél"",""briskédnál""]","","posttest trial","4",""
"html-button-response-clever","143","1059725","0.0-13.0-0.23","4325","Ez itt egy csublény. Ott vagyunk a...","0","csublényben","[""csublényben"",""csublényban""]","","posttest trial","4",""
"html-button-response-clever","144","1064735","0.0-13.0-0.24","4506","Ez itt egy fupét. Nincs is jobb egy jó...","0","fupétnél","[""fupétnél"",""fupétnál""]","","posttest trial","4",""
"html-button-response-clever","145","1073636","0.0-13.0-0.25","8393","Ez itt egy lingék. Nincs is jobb egy jó...","1","lingéknél","[""lingéknál"",""lingéknél""]","","posttest trial","4",""
"html-button-response-clever","146","1078140","0.0-13.0-0.26","3986","Ez itt egy tivenc. Ott vagyunk a...","0","tivencben","[""tivencben"",""tivencban""]","","posttest trial","4",""
"html-button-response-clever","147","1084479","0.0-13.0-0.27","5826","Ez itt egy dutec. Nincs is jobb egy jó...","0","dutecnél","[""dutecnél"",""dutecnál""]","","posttest trial","4",""
"html-button-response-clever","148","1089383","0.0-13.0-0.28","4387","Ez itt egy humék. Elneveztem a kutyámat...","0","huméknek","[""huméknek"",""huméknak""]","","posttest trial","4",""
"html-button-response-clever","149","1095255","0.0-13.0-0.29","5356","Ez itt egy bingéj. Elneveztem a kutyámat...","0","bingéjnek","[""bingéjnek"",""bingéjnak""]","","posttest trial","4",""
"html-button-response-clever","150","1100739","0.0-13.0-0.30","4976","Ez itt egy zined. Elneveztem a kutyámat...","1","zinednek","[""zinednak"",""zinednek""]","","posttest trial","4",""
"html-button-response-clever","151","1104967","0.0-13.0-0.31","3713","Ez itt egy spatel. Elneveztem a kutyámat...","1","spatelnek","[""spatelnak"",""spatelnek""]","","posttest trial","4",""
"html-button-response-clever","152","1109782","0.0-13.0-0.32","4301","Ez itt egy murdes. Nincs is jobb egy jó...","1","murdesnél","[""murdesnál"",""murdesnél""]","","posttest trial","4",""
"html-button-response-clever","153","1113565","0.0-13.0-0.33","3273","Ez itt egy lihény. Elneveztem a kutyámat...","0","lihénynek","[""lihénynek"",""lihénynak""]","","posttest trial","4",""
"html-button-response-clever","154","1119047","0.0-13.0-0.34","4967","Ez itt egy pristél. Ott vagyunk a...","0","pristélben","[""pristélben"",""pristélban""]","","posttest trial","4",""
"html-button-response-clever","155","1126727","0.0-13.0-0.35","7167","Ez itt egy klítegy. Nincs is jobb egy jó...","1","klítegynél","[""klítegynál"",""klítegynél""]","","posttest trial","4",""
"html-button-response-clever","156","1131890","0.0-13.0-0.36","4649","Ez itt egy dóbem. Elneveztem a kutyámat...","1","dóbemnek","[""dóbemnak"",""dóbemnek""]","","posttest trial","4",""
"html-button-response-clever","157","1137760","0.0-13.0-0.37","5354","Ez itt egy csodeg. Nincs is jobb egy jó...","0","csodegnél","[""csodegnél"",""csodegnál""]","","posttest trial","4",""
"html-button-response-clever","158","1143998","0.0-13.0-0.38","5724","Ez itt egy fojlegy. Elneveztem a kutyámat...","0","fojlegynek","[""fojlegynek"",""fojlegynak""]","","posttest trial","4",""
"html-button-response-clever","159","1156208","0.0-13.0-0.39","11697","Ez itt egy pazév. Nincs is jobb egy jó...","0","pazévnál","[""pazévnál"",""pazévnél""]","","posttest trial","4",""
"html-button-response-clever","160","1165456","0.0-13.0-0.40","8741","Ez itt egy dajrens. Nincs is jobb egy jó...","1","dajrensnél","[""dajrensnál"",""dajrensnél""]","","posttest trial","4",""
"html-button-response-clever","161","1169405","0.0-13.0-0.41","3434","Ez itt egy vismer. Nincs is jobb egy jó...","1","vismernél","[""vismernál"",""vismernél""]","","posttest trial","4",""
"html-button-response-clever","162","1173936","0.0-13.0-0.42","4025","Ez itt egy mádép. Nincs is jobb egy jó...","1","mádépnél","[""mádépnál"",""mádépnél""]","","posttest trial","4",""
"html-button-response-clever","163","1179230","0.0-13.0-0.43","4781","Ez itt egy zatéj. Nincs is jobb egy jó...","0","zatéjnél","[""zatéjnél"",""zatéjnál""]","","posttest trial","4",""
"html-button-response-clever","164","1184234","0.0-13.0-0.44","4491","Ez itt egy jutély. Nincs is jobb egy jó...","0","jutélynél","[""jutélynél"",""jutélynál""]","","posttest trial","4",""
"html-button-response-clever","165","1188196","0.0-13.0-0.45","3452","Ez itt egy zarcég. Nincs is jobb egy jó...","0","zarcégnél","[""zarcégnél"",""zarcégnál""]","","posttest trial","4",""
"html-button-response-clever","166","1213195","0.0-13.0-0.46","24492","Ez itt egy hosét. Elneveztem a kutyámat...","1","hosétnek","[""hosétnak"",""hosétnek""]","","posttest trial","4",""
"html-button-response-clever","167","1219412","0.0-13.0-0.47","5699","Ez itt egy trikép. Ott vagyunk a...","1","triképben","[""triképban"",""triképben""]","","posttest trial","4",""
"html-button-response-clever","168","1226092","0.0-13.0-0.48","6174","Ez itt egy nuhét. Nincs is jobb egy jó...","1","nuhétnél","[""nuhétnál"",""nuhétnél""]","","posttest trial","4",""
"html-button-response-clever","169","1231215","0.0-13.0-0.49","4618","Ez itt egy dinelt. Ott vagyunk a...","1","dineltben","[""dineltban"",""dineltben""]","","posttest trial","4",""
"html-button-response-clever","170","1234993","0.0-13.0-0.50","3273","Ez itt egy sihen. Nincs is jobb egy jó...","1","sihennél","[""sihennál"",""sihennél""]","","posttest trial","4",""
"html-button-response-clever","171","1242329","0.0-13.0-0.51","6820","Ez itt egy tarhéz. Ott vagyunk a...","1","tarhézban","[""tarhézben"",""tarhézban""]","","posttest trial","4",""
"html-button-response-clever","172","1254911","0.0-13.0-0.52","12072","Ez itt egy trodély. Ott vagyunk a...","1","trodélyban","[""trodélyben"",""trodélyban""]","","posttest trial","4",""
"html-button-response-clever","173","1260777","0.0-13.0-0.53","5362","Ez itt egy cságyelt. Ott vagyunk a...","0","cságyeltben","[""cságyeltben"",""cságyeltban""]","","posttest trial","4",""
"html-button-response","174","1266957","0.0-14.0","5672","<p> Vége a játéknak. A teljes pontszámod 34/54.</p><p> Szép munka! &#128526;&#128526;&#128526;</p><p>A Befejezés gomb megnyomása után bezárhatod a böngészőablakot.</p>","0","","","","","",""
"html-keyboard-response","175","1272479","0.0-15.0","null","<div class=""message"">
         <p>Egy kis türelmet kérünk, amíg elmentjük az adatokat...</p>
         </div>","null","","","","","",""
