"trial_type","trial_index","time_elapsed","internal_node_id","rt","stimulus","response","response_string","choices","esp_response","trial_kind","list_number","esp_match"
"pavlovia","0","487","0.0-0.0","","","","","","","","",""
"html-button-response","1","69045","0.0-1.0","68052","<p>Kedves Résztvevő! A Budapesti Műszaki és Gazdaságtudományi Egyetem Kognitív Tudományi Tanszékének kutatásában való részvételed kérjük. A kutatásban azt vizsgáljuk, hogy a magyar anyanyelvűek hogyan használnak bizonyos szóalakokat, és hogy milyen képük van arról, hogy mások hogyan használják, hogyan képzik a szavakat. Ez hozzásegít bennünket ahhoz, hogy jobban megértsük, hogyan dolgozza fel és tárolja a nyelvet az emberi agy, és hogyan működnek, hogyan változnak egy adott közösség nyelvi konvenciói.</p><p>A vizsgálat egy rövid számítógépes feladatból fog állni. A kutatásban való részvétel önkéntes, a részvételi szándék bármikor visszavonható. A résztvevők eredményeit név nélkül kezeljük, így nem beazonosíthatók az adatok feldolgozása során. Minden személyes adatot az EU általános adatvédelmi rendeletének (GDPR) megfelelően kezelünk és legfeljebb öt éven belül megsemmisítünk. A vizsgálat jellemzően húsz percet vesz igénybe.</p><p>Kutatásvezető:</p><p>Dr. Rácz Péter, tudományos munkatárs, BME KTT</p><p>e-mail: racz.peter.marton@ttk.bme.hu</p>","0","","","","","",""
"html-button-response","2","172423","0.0-2.0","102871","<p>A kísérletben szavakat fogsz látni. Ezek között lesznek olyanok, amelyeket ismersz, de előfordulhatnak olyanok is, amelyeket nem ismersz, sőt, vannak köztük kitalált szavak is. Minden szónál látni fogsz toldalékolt alakokat. A te feladatod az lesz, hogy minden szóhoz kiválaszd azt a toldalékolt alakot, amely a te számodra ismerősebben, természetesebben hangzik. Rossz válaszok nincsenek, mert van olyan, hogy különböző embereknek más és más szó tűnik jobb választásnak. A választ úgy tudod majd kiválasztani, ha rákattintasz.</p><p>Ebben a szóválasztós játékban egy másik játékossal együtt veszel majd részt. A másik játékos is minden esetben azok közül a lehetőségek közül válogathat, mint te. Kettőtök feladata az, hogy ugyanazt a lehetőséget válasszátok minden esetben. Ahhoz, hogy ez sikerüljön, neked figyelned kell arra, hogy a másik játékos milyen válaszokat ad, és ennek alapján meg kell tippelned, hogyan választ legközelebb. Ha eltalálod, akkor pontot kapsz.</p>","0","","","","","",""
"html-button-response","3","248490","0.0-3.0","75551","<p>Kérjük, olvasd el az alábbi nyilatkozatot, és amennyiben egyetértesz vele, nyomj a Beleegyezés gombra!</p><p>Kijelentem, hogy magyar anyanyelvű személyként önként veszek részt a BME KTT kísérletében. A kutatás céljával és folyamatával kapcsolatban elegendő tájékoztatást kaptam, lehetőségem volt kérdések feltételére, és esetleges kérdéseimre megfelelő válaszokat kaptam. A tájékoztatás alapján elegendő mennyiségű információ áll a rendelkezésemre, hogy eldönthessem, részt kívánok-e venni a kutatásban.</p><p>Tisztában vagyok vele, hogy részvételi szándékomat és adataimat bármikor, indoklás nélkül visszavonhatom.</p><p>Értem és tudomásul veszem, hogy a kutatás tudományos célokat szolgál, és az általam szolgáltatott adatokat a BME kizárólag kutatási célból használja fel. Tudomásul veszem, hogy eredményeimet a többi résztvevő eredményeivel együtt kezelik, így egyéni teljesítményemről visszajelzést, szakvéleményt nem kapok.</p><p>Megértettem, hogy adataim kezelését illetően a BME az EU általános adatvédelmi rendelete (GDPR), a hatályos adatvédelmi törvény és a nemzetközi kutatás-etikai alapelvek szerint jár el. Eredményeim anonim módon kerülnek feldolgozásra, és a kutatás résztvevői az azonosításomra alkalmas adataimat harmadik félnek nem szolgáltatják ki. Engedélyezem a BME számára a jelen kutatásban felvett adataim feldolgozását és tárolását, beleértve azok későbbi kutatásokhoz való felhasználását is. Személyes adataim kezelésével kapcsolatban tájékoztatást kérhetek a kutatás résztvevőitől, az adatkezelés ellen tiltakozhatok, kérhetem személyes adataim helyesbítését, törlését vagy zárolását, valamint jogorvoslatért a Nemzeti Adatvédelmi és Információszabadság Hatósághoz fordulhatok.</p><p>Kijelentem, hogy a kutatásban való részvételem körülményeiről részletes tájékoztatást kaptam, és a feltételeket elfogadom.</p>","0","","","","","",""
"survey-text","4","283626","0.0-4.0","34621","","{""Q0"":""AC68AH"",""Q1"":""nő"",""Q2"":""2001"",""Q3"":""15""}","","","","","",""
"html-button-response","5","462606","0.0-5.0","178477","<p>Ebben a játékban szavakat kell toldalékolni.</p> <p>Minden körben mutatunk majd egy példamondatot, amiben lesz egy szó.</p> <p>Alatta jön egy második mondat, ezt a mondatot neked kell majd befejezni, ugyanezzel a szóval.</p> <p>Nem biztos, hogy a szó eleve ismerős lesz számodra!</p> <p>Minden mondathoz adunk két lehetőséget, ezeket balra és jobbra látod majd.</p> <p>A játék kb. negyedóráig-húsz percig tart.</p>","0","","","","","",""
"html-button-response","6","480044","0.0-6.0","16932","<p>Nézzünk egy példát!</p> <p>A példamondat: ""Ez itt egy blumbnyeg.""</p><p>Neked ezt a mondatot kell befejezned: ""Ott vagyunk a...""</p><p>A lehetőségek pedig ezek:</p>","0","","","","","",""
"html-button-response","7","487604","0.0-7.0","7046","<p>Nagyon jó.</p><p>Ezt a játékot nem egyedül fogod játszani, hanem egy másik játékossal.</p><p>Mielőtt továbblépünk, összekapcsolunk titeket egymással.</p><p>Ez igénybe vehet néhány másodpercet, amihez szíves türelmed kérjük.</p>","0","","","","","",""
"html-button-response","8","493351","0.0-8.0","null","<p>Csatlakozás a másik játékoshoz...</p>","null","","","","","",""
"html-button-response","9","495878","0.0-9.0","null","<p> Sikeres kapcsolódás!</p>","null","","","","","",""
"html-button-response","10","506402","0.0-10.0","null","<p>A következőkben ketten játsszátok a szóválasztós játékot.</p><p>A feladatotok az lesz, hogy minden körben <b>ugyanazt</b> a szót válasszátok.</p><p>Minden ilyen egyező válaszért pontot kaptok.</p><p>Próbáld meg kitalálni, mit választ a másik játékos!</p><p>Bármikor választhatsz, a körnek akkor van vége, ha mindketten döntöttetek.</p><p>Sok sikert!</p>","null","","","","","",""
"html-button-response-esp","11","514815","0.0-11.0-0.0","5070","Ez itt egy trapszegy. Nincs is jobb egy jó...","1","trapszegynél","[""trapszegynál"",""trapszegynél""]","trapszegynál","esp trial","9","false"
"html-button-response","12","518329","0.0-11.0-1.0","null","<p>A másik játékos ezt választotta: <b>trapszegynál</b>.</p><p>&#10060;</p><p>A válaszaitok <b>nem</b> egyeznek meg.</p>","null","","","","feedback trial","",""
"html-button-response-esp","13","526734","0.0-11.0-0.1","4453","Ez itt egy giheszt. Elneveztem a kutyámat...","1","gihesztnek","[""gihesztnak"",""gihesztnek""]","gihesztnek","esp trial","9","true"
"html-button-response","14","530260","0.0-11.0-1.1","null","<p>A másik játékos ezt választotta: <b>gihesztnek</b>.</p><p>&#x2705;</p><p>A te válaszod és a másik játékos válasza <b>megegyeznek</b>.</p>","null","","","","feedback trial","",""
"html-button-response-esp","15","538663","0.0-11.0-0.2","6516","Ez itt egy brotes. Ott vagyunk a...","0","brotesban","[""brotesban"",""brotesben""]","brotesban","esp trial","9","true"
"html-button-response","16","542175","0.0-11.0-1.2","null","<p>A másik játékos ezt választotta: <b>brotesban</b>.</p><p>&#x2705;</p><p>A te válaszod és a másik játékos válasza <b>megegyeznek</b>.</p>","null","","","","feedback trial","",""
"html-button-response-esp","17","550589","0.0-11.0-0.3","5747","Ez itt egy sporzem. Elneveztem a kutyámat...","1","sporzemnak","[""sporzemnek"",""sporzemnak""]","sporzemnak","esp trial","9","true"
"html-button-response","18","554110","0.0-11.0-1.3","null","<p>A másik játékos ezt választotta: <b>sporzemnak</b>.</p><p>&#x2705;</p><p>A te válaszod és a másik játékos válasza <b>megegyeznek</b>.</p>","null","","","","feedback trial","",""
"html-button-response-esp","19","562517","0.0-11.0-0.4","4122","Ez itt egy forzéd. Elneveztem a kutyámat...","1","forzédnak","[""forzédnek"",""forzédnak""]","forzédnak","esp trial","9","true"
"html-button-response","20","566043","0.0-11.0-1.4","null","<p>A másik játékos ezt választotta: <b>forzédnak</b>.</p><p>&#x2705;</p><p>A te válaszod és a másik játékos válasza <b>megegyeznek</b>.</p>","null","","","","feedback trial","",""
"html-button-response-esp","21","574456","0.0-11.0-0.5","5228","Ez itt egy tránély. Elneveztem a kutyámat...","0","tránélynak","[""tránélynak"",""tránélynek""]","tránélynak","esp trial","9","true"
"html-button-response","22","577977","0.0-11.0-1.5","null","<p>A másik játékos ezt választotta: <b>tránélynak</b>.</p><p>&#x2705;</p><p>A te válaszod és a másik játékos válasza <b>megegyeznek</b>.</p>","null","","","","feedback trial","",""
"html-button-response-esp","23","586380","0.0-11.0-0.6","5993","Ez itt egy jorzég. Elneveztem a kutyámat...","1","jorzégnak","[""jorzégnek"",""jorzégnak""]","jorzégnak","esp trial","9","true"
"html-button-response","24","589896","0.0-11.0-1.6","null","<p>A másik játékos ezt választotta: <b>jorzégnak</b>.</p><p>&#x2705;</p><p>A te válaszod és a másik játékos válasza <b>megegyeznek</b>.</p>","null","","","","feedback trial","",""
"html-button-response-esp","25","598314","0.0-11.0-0.7","4444","Ez itt egy buhény. Ott vagyunk a...","1","buhényban","[""buhényben"",""buhényban""]","buhényban","esp trial","9","true"
"html-button-response","26","601834","0.0-11.0-1.7","null","<p>A másik játékos ezt választotta: <b>buhényban</b>.</p><p>&#x2705;</p><p>A te válaszod és a másik játékos válasza <b>megegyeznek</b>.</p>","null","","","","feedback trial","",""
"html-button-response-esp","27","610247","0.0-11.0-0.8","3942","Ez itt egy csinték. Ott vagyunk a...","0","csintékben","[""csintékben"",""csintékban""]","csintékban","esp trial","9","false"
"html-button-response","28","613760","0.0-11.0-1.8","null","<p>A másik játékos ezt választotta: <b>csintékban</b>.</p><p>&#10060;</p><p>A válaszaitok <b>nem</b> egyeznek meg.</p>","null","","","","feedback trial","",""
"html-button-response-esp","29","622165","0.0-11.0-0.9","4336","Ez itt egy sartely. Ott vagyunk a...","1","sartelyban","[""sartelyben"",""sartelyban""]","sartelyban","esp trial","9","true"
"html-button-response","30","625689","0.0-11.0-1.9","null","<p>A másik játékos ezt választotta: <b>sartelyban</b>.</p><p>&#x2705;</p><p>A te válaszod és a másik játékos válasza <b>megegyeznek</b>.</p>","null","","","","feedback trial","",""
"html-button-response-esp","31","634091","0.0-11.0-0.10","5581","Ez itt egy jalrény. Nincs is jobb egy jó...","0","jalrénynál","[""jalrénynál"",""jalrénynél""]","jalrénynál","esp trial","9","true"
"html-button-response","32","637605","0.0-11.0-1.10","null","<p>A másik játékos ezt választotta: <b>jalrénynál</b>.</p><p>&#x2705;</p><p>A te válaszod és a másik játékos válasza <b>megegyeznek</b>.</p>","null","","","","feedback trial","",""
"html-button-response-esp","33","646016","0.0-11.0-0.11","6532","Ez itt egy csimen. Nincs is jobb egy jó...","1","csimennél","[""csimennál"",""csimennél""]","csimennél","esp trial","9","true"
"html-button-response","34","649534","0.0-11.0-1.11","null","<p>A másik játékos ezt választotta: <b>csimennél</b>.</p><p>&#x2705;</p><p>A te válaszod és a másik játékos válasza <b>megegyeznek</b>.</p>","null","","","","feedback trial","",""
"html-button-response-esp","35","657947","0.0-11.0-0.12","4275","Ez itt egy navec. Ott vagyunk a...","0","navecban","[""navecban"",""navecben""]","navecban","esp trial","9","true"
"html-button-response","36","661470","0.0-11.0-1.12","null","<p>A másik játékos ezt választotta: <b>navecban</b>.</p><p>&#x2705;</p><p>A te válaszod és a másik játékos válasza <b>megegyeznek</b>.</p>","null","","","","feedback trial","",""
"html-button-response-esp","37","669878","0.0-11.0-0.13","4950","Ez itt egy prately. Elneveztem a kutyámat...","0","pratelynak","[""pratelynak"",""pratelynek""]","pratelynak","esp trial","9","true"
"html-button-response","38","673392","0.0-11.0-1.13","null","<p>A másik játékos ezt választotta: <b>pratelynak</b>.</p><p>&#x2705;</p><p>A te válaszod és a másik játékos válasza <b>megegyeznek</b>.</p>","null","","","","feedback trial","",""
"html-button-response-esp","39","681800","0.0-11.0-0.14","3659","Ez itt egy klordény. Elneveztem a kutyámat...","0","klordénynak","[""klordénynak"",""klordénynek""]","klordénynak","esp trial","9","true"
"html-button-response","40","685315","0.0-11.0-1.14","null","<p>A másik játékos ezt választotta: <b>klordénynak</b>.</p><p>&#x2705;</p><p>A te válaszod és a másik játékos válasza <b>megegyeznek</b>.</p>","null","","","","feedback trial","",""
"html-button-response-esp","41","693733","0.0-11.0-0.15","7523","Ez itt egy nidét. Ott vagyunk a...","0","nidétban","[""nidétban"",""nidétben""]","nidétben","esp trial","9","false"
"html-button-response","42","697259","0.0-11.0-1.15","null","<p>A másik játékos ezt választotta: <b>nidétben</b>.</p><p>&#10060;</p><p>A válaszaitok <b>nem</b> egyeznek meg.</p>","null","","","","feedback trial","",""
"html-button-response-esp","43","705664","0.0-11.0-0.16","5452","Ez itt egy ronvet. Elneveztem a kutyámat...","0","ronvetnek","[""ronvetnek"",""ronvetnak""]","ronvetnak","esp trial","9","false"
"html-button-response","44","709179","0.0-11.0-1.16","null","<p>A másik játékos ezt választotta: <b>ronvetnak</b>.</p><p>&#10060;</p><p>A válaszaitok <b>nem</b> egyeznek meg.</p>","null","","","","feedback trial","",""
"html-button-response-esp","45","717595","0.0-11.0-0.17","3828","Ez itt egy tranék. Ott vagyunk a...","0","tranékban","[""tranékban"",""tranékben""]","tranékban","esp trial","9","true"
"html-button-response","46","721110","0.0-11.0-1.17","null","<p>A másik játékos ezt választotta: <b>tranékban</b>.</p><p>&#x2705;</p><p>A te válaszod és a másik játékos válasza <b>megegyeznek</b>.</p>","null","","","","feedback trial","",""
"html-button-response-esp","47","729519","0.0-11.0-0.18","3420","Ez itt egy júder. Elneveztem a kutyámat...","1","júdernak","[""júdernek"",""júdernak""]","júdernak","esp trial","9","true"
"html-button-response","48","733035","0.0-11.0-1.18","null","<p>A másik játékos ezt választotta: <b>júdernak</b>.</p><p>&#x2705;</p><p>A te válaszod és a másik játékos válasza <b>megegyeznek</b>.</p>","null","","","","feedback trial","",""
"html-button-response-esp","49","741449","0.0-11.0-0.19","4297","Ez itt egy jábéz. Ott vagyunk a...","0","jábézban","[""jábézban"",""jábézben""]","jábézban","esp trial","9","true"
"html-button-response","50","744960","0.0-11.0-1.19","null","<p>A másik játékos ezt választotta: <b>jábézban</b>.</p><p>&#x2705;</p><p>A te válaszod és a másik játékos válasza <b>megegyeznek</b>.</p>","null","","","","feedback trial","",""
"html-button-response-esp","51","753367","0.0-11.0-0.20","3072","Ez itt egy zsopéd. Ott vagyunk a...","0","zsopédban","[""zsopédban"",""zsopédben""]","zsopédban","esp trial","9","true"
"html-button-response","52","756879","0.0-11.0-1.20","null","<p>A másik játékos ezt választotta: <b>zsopédban</b>.</p><p>&#x2705;</p><p>A te válaszod és a másik játékos válasza <b>megegyeznek</b>.</p>","null","","","","feedback trial","",""
"html-button-response-esp","53","765283","0.0-11.0-0.21","4250","Ez itt egy spáten. Elneveztem a kutyámat...","0","spátennek","[""spátennek"",""spátennak""]","spátennak","esp trial","9","false"
"html-button-response","54","768795","0.0-11.0-1.21","null","<p>A másik játékos ezt választotta: <b>spátennak</b>.</p><p>&#10060;</p><p>A válaszaitok <b>nem</b> egyeznek meg.</p>","null","","","","feedback trial","",""
"html-button-response-esp","55","777197","0.0-11.0-0.22","5001","Ez itt egy fincek. Nincs is jobb egy jó...","0","finceknél","[""finceknél"",""finceknál""]","finceknál","esp trial","9","false"
"html-button-response","56","780711","0.0-11.0-1.22","null","<p>A másik játékos ezt választotta: <b>finceknál</b>.</p><p>&#10060;</p><p>A válaszaitok <b>nem</b> egyeznek meg.</p>","null","","","","feedback trial","",""
"html-button-response-esp","57","789597","0.0-11.0-0.23","8375","Ez itt egy licegy. Ott vagyunk a...","1","licegyban","[""licegyben"",""licegyban""]","licegyben","esp trial","9","false"
"html-button-response","58","793105","0.0-11.0-1.23","null","<p>A másik játékos ezt választotta: <b>licegyben</b>.</p><p>&#10060;</p><p>A válaszaitok <b>nem</b> egyeznek meg.</p>","null","","","","feedback trial","",""
"html-button-response-esp","59","801518","0.0-11.0-0.24","4998","Ez itt egy sprízem. Nincs is jobb egy jó...","0","sprízemnál","[""sprízemnál"",""sprízemnél""]","sprízemnél","esp trial","9","false"
"html-button-response","60","805039","0.0-11.0-1.24","null","<p>A másik játékos ezt választotta: <b>sprízemnél</b>.</p><p>&#10060;</p><p>A válaszaitok <b>nem</b> egyeznek meg.</p>","null","","","","feedback trial","",""
"html-button-response-esp","61","813443","0.0-11.0-0.25","6775","Ez itt egy hóbens. Ott vagyunk a...","1","hóbensben","[""hóbensban"",""hóbensben""]","hóbensban","esp trial","9","false"
"html-button-response","62","816952","0.0-11.0-1.25","null","<p>A másik játékos ezt választotta: <b>hóbensban</b>.</p><p>&#10060;</p><p>A válaszaitok <b>nem</b> egyeznek meg.</p>","null","","","","feedback trial","",""
"html-button-response-esp","63","825360","0.0-11.0-0.26","5142","Ez itt egy matéz. Ott vagyunk a...","0","matézban","[""matézban"",""matézben""]","matézban","esp trial","9","true"
"html-button-response","64","828885","0.0-11.0-1.26","null","<p>A másik játékos ezt választotta: <b>matézban</b>.</p><p>&#x2705;</p><p>A te válaszod és a másik játékos válasza <b>megegyeznek</b>.</p>","null","","","","feedback trial","",""
"html-button-response-esp","65","837777","0.0-11.0-0.27","8379","Ez itt egy ikszert. Ott vagyunk a...","1","ikszertben","[""ikszertban"",""ikszertben""]","ikszertben","esp trial","9","true"
"html-button-response","66","841296","0.0-11.0-1.27","null","<p>A másik játékos ezt választotta: <b>ikszertben</b>.</p><p>&#x2705;</p><p>A te válaszod és a másik játékos válasza <b>megegyeznek</b>.</p>","null","","","","feedback trial","",""
"html-button-response-esp","67","849710","0.0-11.0-0.28","5240","Ez itt egy vublet. Nincs is jobb egy jó...","1","vubletnál","[""vubletnél"",""vubletnál""]","vubletnál","esp trial","9","true"
"html-button-response","68","853230","0.0-11.0-1.28","null","<p>A másik játékos ezt választotta: <b>vubletnál</b>.</p><p>&#x2705;</p><p>A te válaszod és a másik játékos válasza <b>megegyeznek</b>.</p>","null","","","","feedback trial","",""
"html-button-response-esp","69","861843","0.0-11.0-0.29","8100","Ez itt egy gonszék. Nincs is jobb egy jó...","1","gonszéknél","[""gonszéknál"",""gonszéknél""]","gonszéknál","esp trial","9","false"
"html-button-response","70","865352","0.0-11.0-1.29","null","<p>A másik játékos ezt választotta: <b>gonszéknál</b>.</p><p>&#10060;</p><p>A válaszaitok <b>nem</b> egyeznek meg.</p>","null","","","","feedback trial","",""
"html-button-response-esp","71","876289","0.0-11.0-0.30","10423","Ez itt egy nyábét. Ott vagyunk a...","1","nyábétban","[""nyábétben"",""nyábétban""]","nyábétban","esp trial","9","true"
"html-button-response","72","879811","0.0-11.0-1.30","null","<p>A másik játékos ezt választotta: <b>nyábétban</b>.</p><p>&#x2705;</p><p>A te válaszod és a másik játékos válasza <b>megegyeznek</b>.</p>","null","","","","feedback trial","",""
"html-button-response-esp","73","889305","0.0-11.0-0.31","8984","Ez itt egy dingec. Elneveztem a kutyámat...","1","dingecnek","[""dingecnak"",""dingecnek""]","dingecnek","esp trial","9","true"
"html-button-response","74","892826","0.0-11.0-1.31","null","<p>A másik játékos ezt választotta: <b>dingecnek</b>.</p><p>&#x2705;</p><p>A te válaszod és a másik játékos válasza <b>megegyeznek</b>.</p>","null","","","","feedback trial","",""
"html-button-response-esp","75","901359","0.0-11.0-0.32","8024","Ez itt egy brigeszt. Elneveztem a kutyámat...","0","brigesztnek","[""brigesztnek"",""brigesztnak""]","brigesztnek","esp trial","9","true"
"html-button-response","76","904871","0.0-11.0-1.32","null","<p>A másik játékos ezt választotta: <b>brigesztnek</b>.</p><p>&#x2705;</p><p>A te válaszod és a másik játékos válasza <b>megegyeznek</b>.</p>","null","","","","feedback trial","",""
"html-button-response-esp","77","913289","0.0-11.0-0.33","3917","Ez itt egy gótem. Elneveztem a kutyámat...","1","gótemnek","[""gótemnak"",""gótemnek""]","gótemnak","esp trial","9","false"
"html-button-response","78","916808","0.0-11.0-1.33","null","<p>A másik játékos ezt választotta: <b>gótemnak</b>.</p><p>&#10060;</p><p>A válaszaitok <b>nem</b> egyeznek meg.</p>","null","","","","feedback trial","",""
"html-button-response-esp","79","925220","0.0-11.0-0.34","6699","Ez itt egy bidem. Ott vagyunk a...","0","bidemben","[""bidemben"",""bidemban""]","bidemben","esp trial","9","true"
"html-button-response","80","928736","0.0-11.0-1.34","null","<p>A másik játékos ezt választotta: <b>bidemben</b>.</p><p>&#x2705;</p><p>A te válaszod és a másik játékos válasza <b>megegyeznek</b>.</p>","null","","","","feedback trial","",""
"html-button-response-esp","81","937138","0.0-11.0-0.35","3750","Ez itt egy fádens. Elneveztem a kutyámat...","0","fádensnek","[""fádensnek"",""fádensnak""]","fádensnak","esp trial","9","false"
"html-button-response","82","940652","0.0-11.0-1.35","null","<p>A másik játékos ezt választotta: <b>fádensnak</b>.</p><p>&#10060;</p><p>A válaszaitok <b>nem</b> egyeznek meg.</p>","null","","","","feedback trial","",""
"html-button-response-esp","83","949061","0.0-11.0-0.36","7124","Ez itt egy priszkenc. Elneveztem a kutyámat...","0","priszkencnek","[""priszkencnek"",""priszkencnak""]","priszkencnek","esp trial","9","true"
"html-button-response","84","952576","0.0-11.0-1.36","null","<p>A másik játékos ezt választotta: <b>priszkencnek</b>.</p><p>&#x2705;</p><p>A te válaszod és a másik játékos válasza <b>megegyeznek</b>.</p>","null","","","","feedback trial","",""
"html-button-response-esp","85","960982","0.0-11.0-0.37","5415","Ez itt egy lismév. Ott vagyunk a...","0","lismévben","[""lismévben"",""lismévban""]","lismévban","esp trial","9","false"
"html-button-response","86","964500","0.0-11.0-1.37","null","<p>A másik játékos ezt választotta: <b>lismévban</b>.</p><p>&#10060;</p><p>A válaszaitok <b>nem</b> egyeznek meg.</p>","null","","","","feedback trial","",""
"html-button-response-esp","87","972910","0.0-11.0-0.38","3588","Ez itt egy bródesz. Elneveztem a kutyámat...","0","bródesznak","[""bródesznak"",""bródesznek""]","bródesznak","esp trial","9","true"
"html-button-response","88","976426","0.0-11.0-1.38","null","<p>A másik játékos ezt választotta: <b>bródesznak</b>.</p><p>&#x2705;</p><p>A te válaszod és a másik játékos válasza <b>megegyeznek</b>.</p>","null","","","","feedback trial","",""
"html-button-response-esp","89","984826","0.0-11.0-0.39","3988","Ez itt egy hivép. Ott vagyunk a...","1","hivépben","[""hivépban"",""hivépben""]","hivépban","esp trial","9","false"
"html-button-response","90","988346","0.0-11.0-1.39","null","<p>A másik játékos ezt választotta: <b>hivépban</b>.</p><p>&#10060;</p><p>A válaszaitok <b>nem</b> egyeznek meg.</p>","null","","","","feedback trial","",""
"html-button-response-esp","91","996750","0.0-11.0-0.40","5979","Ez itt egy szihét. Elneveztem a kutyámat...","1","szihétnek","[""szihétnak"",""szihétnek""]","szihétnek","esp trial","9","true"
"html-button-response","92","1000263","0.0-11.0-1.40","null","<p>A másik játékos ezt választotta: <b>szihétnek</b>.</p><p>&#x2705;</p><p>A te válaszod és a másik játékos válasza <b>megegyeznek</b>.</p>","null","","","","feedback trial","",""
"html-button-response-esp","93","1008670","0.0-11.0-0.41","2907","Ez itt egy szutend. Ott vagyunk a...","1","szutendben","[""szutendban"",""szutendben""]","szutendban","esp trial","9","false"
"html-button-response","94","1012189","0.0-11.0-1.41","null","<p>A másik játékos ezt választotta: <b>szutendban</b>.</p><p>&#10060;</p><p>A válaszaitok <b>nem</b> egyeznek meg.</p>","null","","","","feedback trial","",""
"html-button-response-esp","95","1020603","0.0-11.0-0.42","5116","Ez itt egy kliszer. Nincs is jobb egy jó...","1","kliszernél","[""kliszernál"",""kliszernél""]","kliszernél","esp trial","9","true"
"html-button-response","96","1024122","0.0-11.0-1.42","null","<p>A másik játékos ezt választotta: <b>kliszernél</b>.</p><p>&#x2705;</p><p>A te válaszod és a másik játékos válasza <b>megegyeznek</b>.</p>","null","","","","feedback trial","",""
"html-button-response-esp","97","1032536","0.0-11.0-0.43","3929","Ez itt egy brágéd. Elneveztem a kutyámat...","0","brágédnak","[""brágédnak"",""brágédnek""]","brágédnak","esp trial","9","true"
"html-button-response","98","1036061","0.0-11.0-1.43","null","<p>A másik játékos ezt választotta: <b>brágédnak</b>.</p><p>&#x2705;</p><p>A te válaszod és a másik játékos válasza <b>megegyeznek</b>.</p>","null","","","","feedback trial","",""
"html-button-response-esp","99","1044475","0.0-11.0-0.44","7532","Ez itt egy kluhéj. Nincs is jobb egy jó...","0","kluhéjnál","[""kluhéjnál"",""kluhéjnél""]","kluhéjnál","esp trial","9","true"
"html-button-response","100","1048002","0.0-11.0-1.44","null","<p>A másik játékos ezt választotta: <b>kluhéjnál</b>.</p><p>&#x2705;</p><p>A te válaszod és a másik játékos válasza <b>megegyeznek</b>.</p>","null","","","","feedback trial","",""
"html-button-response-esp","101","1056407","0.0-11.0-0.45","6073","Ez itt egy kábesz. Nincs is jobb egy jó...","1","kábesznél","[""kábesznál"",""kábesznél""]","kábesznál","esp trial","9","false"
"html-button-response","102","1059920","0.0-11.0-1.45","null","<p>A másik játékos ezt választotta: <b>kábesznál</b>.</p><p>&#10060;</p><p>A válaszaitok <b>nem</b> egyeznek meg.</p>","null","","","","feedback trial","",""
"html-button-response-esp","103","1069393","0.0-11.0-0.46","8962","Ez itt egy trincseg. Ott vagyunk a...","0","trincsegben","[""trincsegben"",""trincsegban""]","trincsegben","esp trial","9","true"
"html-button-response","104","1072915","0.0-11.0-1.46","null","<p>A másik játékos ezt választotta: <b>trincsegben</b>.</p><p>&#x2705;</p><p>A te válaszod és a másik játékos válasza <b>megegyeznek</b>.</p>","null","","","","feedback trial","",""
"html-button-response-esp","105","1081327","0.0-11.0-0.47","4783","Ez itt egy gicéj. Nincs is jobb egy jó...","0","gicéjnál","[""gicéjnál"",""gicéjnél""]","gicéjnél","esp trial","9","false"
"html-button-response","106","1084841","0.0-11.0-1.47","null","<p>A másik játékos ezt választotta: <b>gicéjnél</b>.</p><p>&#10060;</p><p>A válaszaitok <b>nem</b> egyeznek meg.</p>","null","","","","feedback trial","",""
"html-button-response-esp","107","1093245","0.0-11.0-0.48","5534","Ez itt egy trigenc. Elneveztem a kutyámat...","0","trigencnek","[""trigencnek"",""trigencnak""]","trigencnek","esp trial","9","true"
"html-button-response","108","1096769","0.0-11.0-1.48","null","<p>A másik játékos ezt választotta: <b>trigencnek</b>.</p><p>&#x2705;</p><p>A te válaszod és a másik játékos válasza <b>megegyeznek</b>.</p>","null","","","","feedback trial","",""
"html-button-response-esp","109","1105184","0.0-11.0-0.49","3630","Ez itt egy nyarcéj. Elneveztem a kutyámat...","1","nyarcéjnak","[""nyarcéjnek"",""nyarcéjnak""]","nyarcéjnak","esp trial","9","true"
"html-button-response","110","1108702","0.0-11.0-1.49","null","<p>A másik játékos ezt választotta: <b>nyarcéjnak</b>.</p><p>&#x2705;</p><p>A te válaszod és a másik játékos válasza <b>megegyeznek</b>.</p>","null","","","","feedback trial","",""
"html-button-response-esp","111","1117107","0.0-11.0-0.50","4096","Ez itt egy vodép. Elneveztem a kutyámat...","1","vodépnak","[""vodépnek"",""vodépnak""]","vodépnak","esp trial","9","true"
"html-button-response","112","1120619","0.0-11.0-1.50","null","<p>A másik játékos ezt választotta: <b>vodépnak</b>.</p><p>&#x2705;</p><p>A te válaszod és a másik játékos válasza <b>megegyeznek</b>.</p>","null","","","","feedback trial","",""
"html-button-response-esp","113","1129024","0.0-11.0-0.51","3176","Ez itt egy csartény. Elneveztem a kutyámat...","1","csarténynak","[""csarténynek"",""csarténynak""]","csarténynak","esp trial","9","true"
"html-button-response","114","1132539","0.0-11.0-1.51","null","<p>A másik játékos ezt választotta: <b>csarténynak</b>.</p><p>&#x2705;</p><p>A te válaszod és a másik játékos válasza <b>megegyeznek</b>.</p>","null","","","","feedback trial","",""
"html-button-response-esp","115","1140948","0.0-11.0-0.52","4988","Ez itt egy brukész. Nincs is jobb egy jó...","0","brukésznál","[""brukésznál"",""brukésznél""]","brukésznál","esp trial","9","true"
"html-button-response","116","1144465","0.0-11.0-1.52","null","<p>A másik játékos ezt választotta: <b>brukésznál</b>.</p><p>&#x2705;</p><p>A te válaszod és a másik játékos válasza <b>megegyeznek</b>.</p>","null","","","","feedback trial","",""
"html-button-response-esp","117","1152873","0.0-11.0-0.53","5039","Ez itt egy kadér. Nincs is jobb egy jó...","0","kadérnál","[""kadérnál"",""kadérnél""]","kadérnál","esp trial","9","true"
"html-button-response","118","1156392","0.0-11.0-1.53","null","<p>A másik játékos ezt választotta: <b>kadérnál</b>.</p><p>&#x2705;</p><p>A te válaszod és a másik játékos válasza <b>megegyeznek</b>.</p>","null","","","","feedback trial","",""
"html-button-response","119","1166587","0.0-12.0","9684","<p>A közös játék most véget ért.</p><p>Mielőtt eláruljuk a végső pontszámodat, arra kérlek, játszd a szóválasztós játékot néhány percig egyedül is.</p><p>A feladatod ugyanaz lesz, választani két lehetőség közül.</p><p>Most viszont egyedül kell döntened, hogy te melyiket választanád.</p>","0","","","","","",""
"html-button-response-clever","120","1171381","0.0-13.0-0.0","4287","Ez itt egy sprivenc. Nincs is jobb egy jó...","0","sprivencnél","[""sprivencnél"",""sprivencnál""]","","posttest trial","1",""
"html-button-response-clever","121","1177281","0.0-13.0-0.1","5389","Ez itt egy vorszen. Nincs is jobb egy jó...","0","vorszennél","[""vorszennél"",""vorszennál""]","","posttest trial","1",""
"html-button-response-clever","122","1181921","0.0-13.0-0.2","4130","Ez itt egy dábegy. Ott vagyunk a...","1","dábegyben","[""dábegyban"",""dábegyben""]","","posttest trial","1",""
"html-button-response-clever","123","1186681","0.0-13.0-0.3","4253","Ez itt egy gúden. Ott vagyunk a...","0","gúdenben","[""gúdenben"",""gúdenban""]","","posttest trial","1",""
"html-button-response-clever","124","1192531","0.0-13.0-0.4","5336","Ez itt egy danét. Nincs is jobb egy jó...","0","danétnál","[""danétnál"",""danétnél""]","","posttest trial","1",""
"html-button-response-clever","125","1198672","0.0-13.0-0.5","5633","Ez itt egy klingesz. Ott vagyunk a...","1","klingeszben","[""klingeszban"",""klingeszben""]","","posttest trial","1",""
"html-button-response-clever","126","1207332","0.0-13.0-0.6","8158","Ez itt egy darhén. Ott vagyunk a...","1","darhénban","[""darhénben"",""darhénban""]","","posttest trial","1",""
"html-button-response-clever","127","1211605","0.0-13.0-0.7","3759","Ez itt egy narem. Ott vagyunk a...","1","naremben","[""naremban"",""naremben""]","","posttest trial","1",""
"html-button-response-clever","128","1217817","0.0-13.0-0.8","5706","Ez itt egy dorzéj. Elneveztem a kutyámat...","0","dorzéjnak","[""dorzéjnak"",""dorzéjnek""]","","posttest trial","1",""
"html-button-response-clever","129","1224971","0.0-13.0-0.9","6651","Ez itt egy trismél. Elneveztem a kutyámat...","1","trismélnek","[""trismélnak"",""trismélnek""]","","posttest trial","1",""
"html-button-response-clever","130","1231048","0.0-13.0-0.10","5565","Ez itt egy nyamet. Ott vagyunk a...","1","nyametben","[""nyametban"",""nyametben""]","","posttest trial","1",""
"html-button-response-clever","131","1235321","0.0-13.0-0.11","3765","Ez itt egy lorzens. Nincs is jobb egy jó...","0","lorzensnél","[""lorzensnél"",""lorzensnál""]","","posttest trial","1",""
"html-button-response-clever","132","1239461","0.0-13.0-0.12","3628","Ez itt egy fájéz. Ott vagyunk a...","1","fájézban","[""fájézben"",""fájézban""]","","posttest trial","1",""
"html-button-response-clever","133","1244424","0.0-13.0-0.13","4461","Ez itt egy zsáder. Ott vagyunk a...","1","zsáderban","[""zsáderben"",""zsáderban""]","","posttest trial","1",""
"html-button-response-clever","134","1253007","0.0-13.0-0.14","8071","Ez itt egy braszenc. Nincs is jobb egy jó...","0","braszencnél","[""braszencnél"",""braszencnál""]","","posttest trial","1",""
"html-button-response-clever","135","1257962","0.0-13.0-0.15","4451","Ez itt egy incéj. Elneveztem a kutyámat...","0","incéjnek","[""incéjnek"",""incéjnak""]","","posttest trial","1",""
"html-button-response-clever","136","1262490","0.0-13.0-0.16","4017","Ez itt egy zihenc. Elneveztem a kutyámat...","1","zihencnek","[""zihencnak"",""zihencnek""]","","posttest trial","1",""
"html-button-response-clever","137","1266081","0.0-13.0-0.17","3090","Ez itt egy dihely. Elneveztem a kutyámat...","1","dihelynek","[""dihelynak"",""dihelynek""]","","posttest trial","1",""
"html-button-response-clever","138","1269283","0.0-13.0-0.18","2691","Ez itt egy zopély. Nincs is jobb egy jó...","1","zopélynál","[""zopélynél"",""zopélynál""]","","posttest trial","1",""
"html-button-response-clever","139","1274141","0.0-13.0-0.19","4351","Ez itt egy monveg. Nincs is jobb egy jó...","1","monvegnél","[""monvegnál"",""monvegnél""]","","posttest trial","1",""
"html-button-response-clever","140","1279970","0.0-13.0-0.20","5323","Ez itt egy ítens. Ott vagyunk a...","1","ítensben","[""ítensban"",""ítensben""]","","posttest trial","1",""
"html-button-response-clever","141","1284799","0.0-13.0-0.21","4324","Ez itt egy sortem. Nincs is jobb egy jó...","1","sortemnél","[""sortemnál"",""sortemnél""]","","posttest trial","1",""
"html-button-response-clever","142","1289614","0.0-13.0-0.22","4312","Ez itt egy pijél. Nincs is jobb egy jó...","0","pijélnél","[""pijélnél"",""pijélnál""]","","posttest trial","1",""
"html-button-response-clever","143","1301505","0.0-13.0-0.23","11375","Ez itt egy bupéz. Ott vagyunk a...","1","bupézben","[""bupézban"",""bupézben""]","","posttest trial","1",""
"html-button-response-clever","144","1306159","0.0-13.0-0.24","4150","Ez itt egy jóbec. Elneveztem a kutyámat...","0","jóbecnek","[""jóbecnek"",""jóbecnak""]","","posttest trial","1",""
"html-button-response-clever","145","1310834","0.0-13.0-0.25","4168","Ez itt egy spanél. Nincs is jobb egy jó...","0","spanélnál","[""spanélnál"",""spanélnél""]","","posttest trial","1",""
"html-button-response-clever","146","1314579","0.0-13.0-0.26","3241","Ez itt egy priszec. Ott vagyunk a...","1","priszecben","[""priszecban"",""priszecben""]","","posttest trial","1",""
"html-button-response-clever","147","1320717","0.0-13.0-0.27","5636","Ez itt egy luméz. Ott vagyunk a...","1","lumézben","[""lumézban"",""lumézben""]","","posttest trial","1",""
"html-button-response-clever","148","1326172","0.0-13.0-0.28","4952","Ez itt egy ronszek. Ott vagyunk a...","0","ronszekben","[""ronszekben"",""ronszekban""]","","posttest trial","1",""
"html-button-response-clever","149","1339641","0.0-13.0-0.29","12960","Ez itt egy pisély. Ott vagyunk a...","1","pisélyben","[""pisélyban"",""pisélyben""]","","posttest trial","1",""
"html-button-response-clever","150","1343561","0.0-13.0-0.30","3414","Ez itt egy spumény. Elneveztem a kutyámat...","1","spuménynak","[""spuménynek"",""spuménynak""]","","posttest trial","1",""
"html-button-response-clever","151","1347308","0.0-13.0-0.31","3239","Ez itt egy bralkép. Ott vagyunk a...","1","bralképben","[""bralképban"",""bralképben""]","","posttest trial","1",""
"html-button-response-clever","152","1351758","0.0-13.0-0.32","3934","Ez itt egy kalhész. Elneveztem a kutyámat...","1","kalhésznak","[""kalhésznek"",""kalhésznak""]","","posttest trial","1",""
"html-button-response-clever","153","1355840","0.0-13.0-0.33","3573","Ez itt egy dalenc. Nincs is jobb egy jó...","1","dalencnél","[""dalencnál"",""dalencnél""]","","posttest trial","1",""
"html-button-response-clever","154","1360621","0.0-13.0-0.34","4277","Ez itt egy spábét. Ott vagyunk a...","1","spábétben","[""spábétban"",""spábétben""]","","posttest trial","1",""
"html-button-response-clever","155","1366992","0.0-13.0-0.35","5864","Ez itt egy klosét. Elneveztem a kutyámat...","1","klosétnak","[""klosétnek"",""klosétnak""]","","posttest trial","1",""
"html-button-response-clever","156","1374384","0.0-13.0-0.36","6880","Ez itt egy garcép. Nincs is jobb egy jó...","1","garcépnél","[""garcépnál"",""garcépnél""]","","posttest trial","1",""
"html-button-response-clever","157","1377723","0.0-13.0-0.37","2831","Ez itt egy trájeg. Ott vagyunk a...","0","trájegben","[""trájegben"",""trájegban""]","","posttest trial","1",""
"html-button-response-clever","158","1383369","0.0-13.0-0.38","5144","Ez itt egy nyítem. Ott vagyunk a...","0","nyítemben","[""nyítemben"",""nyítemban""]","","posttest trial","1",""
"html-button-response-clever","159","1388635","0.0-13.0-0.39","4765","Ez itt egy zsúdel. Elneveztem a kutyámat...","1","zsúdelnek","[""zsúdelnak"",""zsúdelnek""]","","posttest trial","1",""
"html-button-response-clever","160","1392535","0.0-13.0-0.40","3393","Ez itt egy zsigén. Nincs is jobb egy jó...","1","zsigénnél","[""zsigénnál"",""zsigénnél""]","","posttest trial","1",""
"html-button-response-clever","161","1397513","0.0-13.0-0.41","4476","Ez itt egy kaszép. Elneveztem a kutyámat...","0","kaszépnak","[""kaszépnak"",""kaszépnek""]","","posttest trial","1",""
"html-button-response-clever","162","1403027","0.0-13.0-0.42","5003","Ez itt egy jukél. Nincs is jobb egy jó...","1","jukélnál","[""jukélnél"",""jukélnál""]","","posttest trial","1",""
"html-button-response-clever","163","1411805","0.0-13.0-0.43","8264","Ez itt egy nyupér. Nincs is jobb egy jó...","1","nyupérnél","[""nyupérnál"",""nyupérnél""]","","posttest trial","1",""
"html-button-response-clever","164","1417353","0.0-13.0-0.44","5044","Ez itt egy brindez. Elneveztem a kutyámat...","0","brindeznek","[""brindeznek"",""brindeznak""]","","posttest trial","1",""
"html-button-response-clever","165","1422119","0.0-13.0-0.45","4255","Ez itt egy hágyét. Elneveztem a kutyámat...","1","hágyétnak","[""hágyétnek"",""hágyétnak""]","","posttest trial","1",""
"html-button-response-clever","166","1427124","0.0-13.0-0.46","4496","Ez itt egy kalréz. Ott vagyunk a...","0","kalrézban","[""kalrézban"",""kalrézben""]","","posttest trial","1",""
"html-button-response-clever","167","1431131","0.0-13.0-0.47","3493","Ez itt egy rapszek. Nincs is jobb egy jó...","0","rapszeknél","[""rapszeknél"",""rapszeknál""]","","posttest trial","1",""
"html-button-response-clever","168","1435305","0.0-13.0-0.48","3658","Ez itt egy kátel. Elneveztem a kutyámat...","0","kátelnek","[""kátelnek"",""kátelnak""]","","posttest trial","1",""
"html-button-response-clever","169","1439564","0.0-13.0-0.49","3757","Ez itt egy pítend. Ott vagyunk a...","0","pítendben","[""pítendben"",""pítendban""]","","posttest trial","1",""
"html-button-response-clever","170","1443626","0.0-13.0-0.50","3560","Ez itt egy zsádév. Elneveztem a kutyámat...","1","zsádévnak","[""zsádévnek"",""zsádévnak""]","","posttest trial","1",""
"html-button-response-clever","171","1447724","0.0-13.0-0.51","3596","Ez itt egy spicet. Elneveztem a kutyámat...","0","spicetnek","[""spicetnek"",""spicetnak""]","","posttest trial","1",""
"html-button-response-clever","172","1451307","0.0-13.0-0.52","3067","Ez itt egy tosély. Ott vagyunk a...","1","tosélyban","[""tosélyben"",""tosélyban""]","","posttest trial","1",""
"html-button-response-clever","173","1454975","0.0-13.0-0.53","3156","Ez itt egy pivéd. Ott vagyunk a...","1","pivédben","[""pivédban"",""pivédben""]","","posttest trial","1",""
"html-button-response","174","1461445","0.0-14.0","5959","<p> Vége a játéknak. A teljes pontszámod 37/54.</p><p> Szép munka! &#128526;&#128526;&#128526;</p><p>A Befejezés gomb megnyomása után bezárhatod a böngészőablakot.</p>","0","","","","","",""
"html-keyboard-response","175","1466955","0.0-15.0","null","<div class=""message"">
         <p>Egy kis türelmet kérünk, amíg elmentjük az adatokat...</p>
         </div>","null","","","","","",""
