"trial_type","trial_index","time_elapsed","internal_node_id","rt","stimulus","response","response_string","choices","esp_response","trial_kind","list_number","esp_match"
"pavlovia","0","739","0.0-0.0","","","","","","","","",""
"html-button-response","1","50146","0.0-1.0","48887","<p>Kedves Résztvevő! A Budapesti Műszaki és Gazdaságtudományi Egyetem Kognitív Tudományi Tanszékének kutatásában való részvételed kérjük. A kutatásban azt vizsgáljuk, hogy a magyar anyanyelvűek hogyan használnak bizonyos szóalakokat, és hogy milyen képük van arról, hogy mások hogyan használják, hogyan képzik a szavakat. Ez hozzásegít bennünket ahhoz, hogy jobban megértsük, hogyan dolgozza fel és tárolja a nyelvet az emberi agy, és hogyan működnek, hogyan változnak egy adott közösség nyelvi konvenciói.</p><p>A vizsgálat egy rövid számítógépes feladatból fog állni. A kutatásban való részvétel önkéntes, a részvételi szándék bármikor visszavonható. A résztvevők eredményeit név nélkül kezeljük, így nem beazonosíthatók az adatok feldolgozása során. Minden személyes adatot az EU általános adatvédelmi rendeletének (GDPR) megfelelően kezelünk és legfeljebb öt éven belül megsemmisítünk. A vizsgálat jellemzően húsz percet vesz igénybe.</p><p>Kutatásvezető:</p><p>Dr. Rácz Péter, tudományos munkatárs, BME KTT</p><p>e-mail: racz.peter.marton@ttk.bme.hu</p>","0","","","","","",""
"html-button-response","2","80074","0.0-2.0","29421","<p>A kísérletben szavakat fogsz látni. Ezek között lesznek olyanok, amelyeket ismersz, de előfordulhatnak olyanok is, amelyeket nem ismersz, sőt, vannak köztük kitalált szavak is. Minden szónál látni fogsz toldalékolt alakokat. A te feladatod az lesz, hogy minden szóhoz kiválaszd azt a toldalékolt alakot, amely a te számodra ismerősebben, természetesebben hangzik. Rossz válaszok nincsenek, mert van olyan, hogy különböző embereknek más és más szó tűnik jobb választásnak. A választ úgy tudod majd kiválasztani, ha rákattintasz.</p><p>Ebben a szóválasztós játékban egy másik játékossal együtt veszel majd részt. A másik játékos is minden esetben azok közül a lehetőségek közül válogathat, mint te. Kettőtök feladata az, hogy ugyanazt a lehetőséget válasszátok minden esetben. Ahhoz, hogy ez sikerüljön, neked figyelned kell arra, hogy a másik játékos milyen válaszokat ad, és ennek alapján meg kell tippelned, hogyan választ legközelebb. Ha eltalálod, akkor pontot kapsz.</p>","0","","","","","",""
"html-button-response","3","101753","0.0-3.0","21164","<p>Kérjük, olvasd el az alábbi nyilatkozatot, és amennyiben egyetértesz vele, nyomj a Beleegyezés gombra!</p><p>Kijelentem, hogy magyar anyanyelvű személyként önként veszek részt a BME KTT kísérletében. A kutatás céljával és folyamatával kapcsolatban elegendő tájékoztatást kaptam, lehetőségem volt kérdések feltételére, és esetleges kérdéseimre megfelelő válaszokat kaptam. A tájékoztatás alapján elegendő mennyiségű információ áll a rendelkezésemre, hogy eldönthessem, részt kívánok-e venni a kutatásban.</p><p>Tisztában vagyok vele, hogy részvételi szándékomat és adataimat bármikor, indoklás nélkül visszavonhatom.</p><p>Értem és tudomásul veszem, hogy a kutatás tudományos célokat szolgál, és az általam szolgáltatott adatokat a BME kizárólag kutatási célból használja fel. Tudomásul veszem, hogy eredményeimet a többi résztvevő eredményeivel együtt kezelik, így egyéni teljesítményemről visszajelzést, szakvéleményt nem kapok.</p><p>Megértettem, hogy adataim kezelését illetően a BME az EU általános adatvédelmi rendelete (GDPR), a hatályos adatvédelmi törvény és a nemzetközi kutatás-etikai alapelvek szerint jár el. Eredményeim anonim módon kerülnek feldolgozásra, és a kutatás résztvevői az azonosításomra alkalmas adataimat harmadik félnek nem szolgáltatják ki. Engedélyezem a BME számára a jelen kutatásban felvett adataim feldolgozását és tárolását, beleértve azok későbbi kutatásokhoz való felhasználását is. Személyes adataim kezelésével kapcsolatban tájékoztatást kérhetek a kutatás résztvevőitől, az adatkezelés ellen tiltakozhatok, kérhetem személyes adataim helyesbítését, törlését vagy zárolását, valamint jogorvoslatért a Nemzeti Adatvédelmi és Információszabadság Hatósághoz fordulhatok.</p><p>Kijelentem, hogy a kutatásban való részvételem körülményeiről részletes tájékoztatást kaptam, és a feltételeket elfogadom.</p>","0","","","","","",""
"survey-text","4","145855","0.0-4.0","43577","","{""Q0"":""ZWPQ96"",""Q1"":""nő"",""Q2"":""1999"",""Q3"":""16""}","","","","","",""
"html-button-response","5","159123","0.0-5.0","12755","<p>Ebben a játékban szavakat kell toldalékolni.</p> <p>Minden körben mutatunk majd egy példamondatot, amiben lesz egy szó.</p> <p>Alatta jön egy második mondat, ezt a mondatot neked kell majd befejezni, ugyanezzel a szóval.</p> <p>Nem biztos, hogy a szó eleve ismerős lesz számodra!</p> <p>Minden mondathoz adunk két lehetőséget, ezeket balra és jobbra látod majd.</p> <p>A játék kb. negyedóráig-húsz percig tart.</p>","0","","","","","",""
"html-button-response","6","171590","0.0-6.0","11946","<p>Nézzünk egy példát!</p> <p>A példamondat: ""János imád fláramolni, ezért sokat fláramlik. Mi ritkán...""</p><p>Neked ezt a mondatot kell befejezned: ""Ti ritkán...""</p><p>A lehetőségek pedig ezek:</p>","0","","","","","",""
"html-button-response","7","178947","0.0-7.0","6848","<p>Nagyon jó.</p><p>Ezt a játékot nem egyedül fogod játszani, hanem egy másik játékossal.</p><p>Mielőtt továbblépünk, összekapcsolunk titeket egymással.</p><p>Ez igénybe vehet néhány másodpercet, amihez szíves türelmed kérjük.</p>","0","","","","","",""
"html-button-response","8","184703","0.0-8.0","null","<p>Csatlakozás a másik játékoshoz...</p>","null","","","","","",""
"html-button-response","9","187235","0.0-9.0","null","<p> Sikeres kapcsolódás!</p>","null","","","","","",""
"html-button-response","10","197756","0.0-10.0","null","<p>A következőkben ketten játsszátok a szóválasztós játékot.</p><p>A feladatotok az lesz, hogy minden körben <b>ugyanazt</b> a szót válasszátok.</p><p>Minden ilyen egyező válaszért pontot kaptok.</p><p>Próbáld meg kitalálni, mit választ a másik játékos!</p><p>Bármikor választhatsz, a körnek akkor van vége, ha mindketten döntöttetek.</p><p>Sok sikert!</p>","null","","","","","",""
"html-button-response-esp","11","206666","0.0-11.0-0.0","8384","János imád frakozni, ezért sokat fraklik. Mi ritkán...","1","fraklunk","[""frakozunk"",""fraklunk""]","fraklunk","esp trial","4","true"
"html-button-response","12","210197","0.0-11.0-1.0","null","<p>A másik játékos ezt választotta: <b>fraklunk</b>.</p><p>&#x2705;</p><p>A te válaszod és a másik játékos válasza <b>megegyeznek</b>.</p>","null","","","","feedback trial","",""
"html-button-response-esp","13","220104","0.0-11.0-0.1","9401","János imád lűközni, ezért sokat lűklik. Ők ritkán...","1","lűköznek","[""lűklenek"",""lűköznek""]","lűklenek","esp trial","4","false"
"html-button-response","14","223630","0.0-11.0-1.1","null","<p>A másik játékos ezt választotta: <b>lűklenek</b>.</p><p>&#10060;</p><p>A válaszaitok <b>nem</b> egyeznek meg.</p>","null","","","","feedback trial","",""
"html-button-response-esp","15","234065","0.0-11.0-0.2","9915","János imád bratározni, ezért sokat bratárzik. Ők ritkán...","0","bratárzanak","[""bratárzanak"",""bratároznak""]","bratárzanak","esp trial","4","true"
"html-button-response","16","237586","0.0-11.0-1.2","null","<p>A másik játékos ezt választotta: <b>bratárzanak</b>.</p><p>&#x2705;</p><p>A te válaszod és a másik játékos válasza <b>megegyeznek</b>.</p>","null","","","","feedback trial","",""
"html-button-response-esp","17","245756","0.0-11.0-0.3","7650","János imád püzözni, ezért sokat püzlik. Ti ritkán...","1","püzöztök","[""püzlötök"",""püzöztök""]","püzlötök","esp trial","4","false"
"html-button-response","18","249283","0.0-11.0-1.3","null","<p>A másik játékos ezt választotta: <b>püzlötök</b>.</p><p>&#10060;</p><p>A válaszaitok <b>nem</b> egyeznek meg.</p>","null","","","","feedback trial","",""
"html-button-response-esp","19","260433","0.0-11.0-0.4","10630","János imád privékedni, ezért sokat privékszik. Ők ritkán...","1","privékszenek","[""privékednek"",""privékszenek""]","privékszenek","esp trial","4","true"
"html-button-response","20","263964","0.0-11.0-1.4","null","<p>A másik játékos ezt választotta: <b>privékszenek</b>.</p><p>&#x2705;</p><p>A te válaszod és a másik játékos válasza <b>megegyeznek</b>.</p>","null","","","","feedback trial","",""
"html-button-response-esp","21","272055","0.0-11.0-0.5","7571","János imád dilakozni, ezért sokat dilaklik. Ti ritkán...","0","dilakoztok","[""dilakoztok"",""dilaklotok""]","dilaklotok","esp trial","4","false"
"html-button-response","22","275578","0.0-11.0-1.5","null","<p>A másik játékos ezt választotta: <b>dilaklotok</b>.</p><p>&#10060;</p><p>A válaszaitok <b>nem</b> egyeznek meg.</p>","null","","","","feedback trial","",""
"html-button-response-esp","23","283991","0.0-11.0-0.6","7895","János imád spiharozni, ezért sokat spiharzik. Ti ritkán...","0","spiharoztok","[""spiharoztok"",""spiharzotok""]","spiharzotok","esp trial","4","false"
"html-button-response","24","287512","0.0-11.0-1.6","null","<p>A másik játékos ezt választotta: <b>spiharzotok</b>.</p><p>&#10060;</p><p>A válaszaitok <b>nem</b> egyeznek meg.</p>","null","","","","feedback trial","",""
"html-button-response-esp","25","296652","0.0-11.0-0.7","8621","János imád frálasozni, ezért sokat frálaslik. Ők ritkán...","1","frálasoznak","[""frálaslanak"",""frálasoznak""]","frálasoznak","esp trial","4","true"
"html-button-response","26","300183","0.0-11.0-1.7","null","<p>A másik játékos ezt választotta: <b>frálasoznak</b>.</p><p>&#x2705;</p><p>A te válaszod és a másik játékos válasza <b>megegyeznek</b>.</p>","null","","","","feedback trial","",""
"html-button-response-esp","27","308266","0.0-11.0-0.8","7566","János imád gihejezni, ezért sokat gihejlik. Mi ritkán...","0","gihejlünk","[""gihejlünk"",""gihejezünk""]","gihejezünk","esp trial","4","false"
"html-button-response","28","311804","0.0-11.0-1.8","null","<p>A másik játékos ezt választotta: <b>gihejezünk</b>.</p><p>&#10060;</p><p>A válaszaitok <b>nem</b> egyeznek meg.</p>","null","","","","feedback trial","",""
"html-button-response-esp","29","320080","0.0-11.0-0.9","7758","János imád spügözni, ezért sokat spügzik. Mi ritkán...","0","spügzünk","[""spügzünk"",""spügözünk""]","spügözünk","esp trial","4","false"
"html-button-response","30","323613","0.0-11.0-1.9","null","<p>A másik játékos ezt választotta: <b>spügözünk</b>.</p><p>&#10060;</p><p>A válaszaitok <b>nem</b> egyeznek meg.</p>","null","","","","feedback trial","",""
"html-button-response-esp","31","330478","0.0-11.0-0.10","5883","János imád spibegezni, ezért sokat spibeglik. Mi ritkán...","1","spibegezünk","[""spibeglünk"",""spibegezünk""]","spibegezünk","esp trial","4","true"
"html-button-response","32","334012","0.0-11.0-1.10","null","<p>A másik játékos ezt választotta: <b>spibegezünk</b>.</p><p>&#x2705;</p><p>A te válaszod és a másik játékos válasza <b>megegyeznek</b>.</p>","null","","","","feedback trial","",""
"html-button-response-esp","33","340885","0.0-11.0-0.11","3818","János imád mülőrözni, ezért sokat mülőrzik. Mi ritkán...","1","mülőrözünk","[""mülőrzünk"",""mülőrözünk""]","mülőrzünk","esp trial","4","false"
"html-button-response","34","344411","0.0-11.0-1.11","null","<p>A másik játékos ezt választotta: <b>mülőrzünk</b>.</p><p>&#10060;</p><p>A válaszaitok <b>nem</b> egyeznek meg.</p>","null","","","","feedback trial","",""
"html-button-response-esp","35","351295","0.0-11.0-0.12","3587","János imád prélemezni, ezért sokat prélemlik. Ők ritkán...","1","prélemeznek","[""prélemlenek"",""prélemeznek""]","prélemlenek","esp trial","4","false"
"html-button-response","36","354829","0.0-11.0-1.12","null","<p>A másik játékos ezt választotta: <b>prélemlenek</b>.</p><p>&#10060;</p><p>A válaszaitok <b>nem</b> egyeznek meg.</p>","null","","","","feedback trial","",""
"html-button-response-esp","37","365018","0.0-11.0-0.13","9684","János imád fröjözni, ezért sokat fröjzik. Ti ritkán...","1","fröjzötök","[""fröjöztök"",""fröjzötök""]","fröjzötök","esp trial","4","true"
"html-button-response","38","368539","0.0-11.0-1.13","null","<p>A másik játékos ezt választotta: <b>fröjzötök</b>.</p><p>&#x2705;</p><p>A te válaszod és a másik játékos válasza <b>megegyeznek</b>.</p>","null","","","","feedback trial","",""
"html-button-response-esp","39","375408","0.0-11.0-0.14","5682","János imád dárakodni, ezért sokat dárakszik. Mi ritkán...","0","dárakszunk","[""dárakszunk"",""dárakodunk""]","dárakszunk","esp trial","4","true"
"html-button-response","40","378936","0.0-11.0-1.14","null","<p>A másik játékos ezt választotta: <b>dárakszunk</b>.</p><p>&#x2705;</p><p>A te válaszod és a másik játékos válasza <b>megegyeznek</b>.</p>","null","","","","feedback trial","",""
"html-button-response-esp","41","385813","0.0-11.0-0.15","5926","János imád dirozni, ezért sokat dirlik. Ti ritkán...","0","diroztok","[""diroztok"",""dirlotok""]","dirlotok","esp trial","4","false"
"html-button-response","42","389328","0.0-11.0-1.15","null","<p>A másik játékos ezt választotta: <b>dirlotok</b>.</p><p>&#10060;</p><p>A válaszaitok <b>nem</b> egyeznek meg.</p>","null","","","","feedback trial","",""
"html-button-response-esp","43","396212","0.0-11.0-0.16","5272","János imád flöközni, ezért sokat flöklik. Ti ritkán...","0","flököztök","[""flököztök"",""flöklötök""]","flöklötök","esp trial","4","false"
"html-button-response","44","399743","0.0-11.0-1.16","null","<p>A másik játékos ezt választotta: <b>flöklötök</b>.</p><p>&#10060;</p><p>A válaszaitok <b>nem</b> egyeznek meg.</p>","null","","","","feedback trial","",""
"html-button-response-esp","45","406615","0.0-11.0-0.17","5962","János imád sprozozni, ezért sokat sprozlik. Ők ritkán...","0","sprozlanak","[""sprozlanak"",""sprozoznak""]","sprozlanak","esp trial","4","true"
"html-button-response","46","410148","0.0-11.0-1.17","null","<p>A másik játékos ezt választotta: <b>sprozlanak</b>.</p><p>&#x2705;</p><p>A te válaszod és a másik játékos válasza <b>megegyeznek</b>.</p>","null","","","","feedback trial","",""
"html-button-response-esp","47","417019","0.0-11.0-0.18","5206","János imád flűgözni, ezért sokat flűgzik. Mi ritkán...","1","flűgözünk","[""flűgzünk"",""flűgözünk""]","flűgzünk","esp trial","4","false"
"html-button-response","48","420551","0.0-11.0-1.18","null","<p>A másik játékos ezt választotta: <b>flűgzünk</b>.</p><p>&#10060;</p><p>A válaszaitok <b>nem</b> egyeznek meg.</p>","null","","","","feedback trial","",""
"html-button-response-esp","49","427440","0.0-11.0-0.19","6086","János imád nyürözni, ezért sokat nyürzik. Ők ritkán...","1","nyürzenek","[""nyüröznek"",""nyürzenek""]","nyürzenek","esp trial","4","true"
"html-button-response","50","430978","0.0-11.0-1.19","null","<p>A másik játékos ezt választotta: <b>nyürzenek</b>.</p><p>&#x2705;</p><p>A te válaszod és a másik játékos válasza <b>megegyeznek</b>.</p>","null","","","","feedback trial","",""
"html-button-response-esp","51","438631","0.0-11.0-0.20","7135","János imád klehényezni, ezért sokat klehénylik. Ti ritkán...","1","klehényletek","[""klehényeztek"",""klehényletek""]","klehényletek","esp trial","4","true"
"html-button-response","52","442153","0.0-11.0-1.20","null","<p>A másik játékos ezt választotta: <b>klehényletek</b>.</p><p>&#x2705;</p><p>A te válaszod és a másik játékos válasza <b>megegyeznek</b>.</p>","null","","","","feedback trial","",""
"html-button-response-esp","53","449031","0.0-11.0-0.21","5062","János imád trikozni, ezért sokat triklik. Ti ritkán...","0","triklotok","[""triklotok"",""trikoztok""]","trikoztok","esp trial","4","false"
"html-button-response","54","452566","0.0-11.0-1.21","null","<p>A másik játékos ezt választotta: <b>trikoztok</b>.</p><p>&#10060;</p><p>A válaszaitok <b>nem</b> egyeznek meg.</p>","null","","","","feedback trial","",""
"html-button-response-esp","55","459458","0.0-11.0-0.22","4739","János imád brözözni, ezért sokat brözlik. Ti ritkán...","1","brözlötök","[""brözöztök"",""brözlötök""]","brözlötök","esp trial","4","true"
"html-button-response","56","462993","0.0-11.0-1.22","null","<p>A másik játékos ezt választotta: <b>brözlötök</b>.</p><p>&#x2705;</p><p>A te válaszod és a másik játékos válasza <b>megegyeznek</b>.</p>","null","","","","feedback trial","",""
"html-button-response-esp","57","469876","0.0-11.0-0.23","5249","János imád frálapodni, ezért sokat frálapszik. Ti ritkán...","1","frálapszotok","[""frálapodtok"",""frálapszotok""]","frálapodtok","esp trial","4","false"
"html-button-response","58","473407","0.0-11.0-1.23","null","<p>A másik játékos ezt választotta: <b>frálapodtok</b>.</p><p>&#10060;</p><p>A válaszaitok <b>nem</b> egyeznek meg.</p>","null","","","","feedback trial","",""
"html-button-response-esp","59","480291","0.0-11.0-0.24","4424","János imád flemezni, ezért sokat flemlik. Mi ritkán...","1","flemlünk","[""flemezünk"",""flemlünk""]","flemlünk","esp trial","4","true"
"html-button-response","60","483846","0.0-11.0-1.24","null","<p>A másik játékos ezt választotta: <b>flemlünk</b>.</p><p>&#x2705;</p><p>A te válaszod és a másik játékos válasza <b>megegyeznek</b>.</p>","null","","","","feedback trial","",""
"html-button-response-esp","61","490721","0.0-11.0-0.25","6155","János imád drilarozni, ezért sokat drilarzik. Mi ritkán...","0","drilarozunk","[""drilarozunk"",""drilarzunk""]","drilarzunk","esp trial","4","false"
"html-button-response","62","494252","0.0-11.0-1.25","null","<p>A másik játékos ezt választotta: <b>drilarzunk</b>.</p><p>&#10060;</p><p>A válaszaitok <b>nem</b> egyeznek meg.</p>","null","","","","feedback trial","",""
"html-button-response-esp","63","501119","0.0-11.0-0.26","4030","János imád csubozni, ezért sokat csubzik. Mi ritkán...","1","csubzunk","[""csubozunk"",""csubzunk""]","csubozunk","esp trial","4","false"
"html-button-response","64","504652","0.0-11.0-1.26","null","<p>A másik játékos ezt választotta: <b>csubozunk</b>.</p><p>&#10060;</p><p>A válaszaitok <b>nem</b> egyeznek meg.</p>","null","","","","feedback trial","",""
"html-button-response-esp","65","511739","0.0-11.0-0.27","6583","János imád brivakozni, ezért sokat brivaklik. Ti ritkán...","0","brivakoztok","[""brivakoztok"",""brivaklotok""]","brivaklotok","esp trial","4","false"
"html-button-response","66","515258","0.0-11.0-1.27","null","<p>A másik játékos ezt választotta: <b>brivaklotok</b>.</p><p>&#10060;</p><p>A válaszaitok <b>nem</b> egyeznek meg.</p>","null","","","","feedback trial","",""
"html-button-response-esp","67","522143","0.0-11.0-0.28","4218","János imád sprudozni, ezért sokat sprudlik. Mi ritkán...","0","sprudlunk","[""sprudlunk"",""sprudozunk""]","sprudlunk","esp trial","4","true"
"html-button-response","68","525671","0.0-11.0-1.28","null","<p>A másik játékos ezt választotta: <b>sprudlunk</b>.</p><p>&#x2705;</p><p>A te válaszod és a másik játékos válasza <b>megegyeznek</b>.</p>","null","","","","feedback trial","",""
"html-button-response-esp","69","532551","0.0-11.0-0.29","5497","János imád lájozni, ezért sokat lájzik. Ti ritkán...","0","lájoztok","[""lájoztok"",""lájzotok""]","lájoztok","esp trial","4","true"
"html-button-response","70","536070","0.0-11.0-1.29","null","<p>A másik játékos ezt választotta: <b>lájoztok</b>.</p><p>&#x2705;</p><p>A te válaszod és a másik játékos válasza <b>megegyeznek</b>.</p>","null","","","","feedback trial","",""
"html-button-response-esp","71","542940","0.0-11.0-0.30","4819","János imád branyozni, ezért sokat branylik. Ők ritkán...","0","branylanak","[""branylanak"",""branyoznak""]","branylanak","esp trial","4","true"
"html-button-response","72","546479","0.0-11.0-1.30","null","<p>A másik játékos ezt választotta: <b>branylanak</b>.</p><p>&#x2705;</p><p>A te válaszod és a másik játékos válasza <b>megegyeznek</b>.</p>","null","","","","feedback trial","",""
"html-button-response-esp","73","553356","0.0-11.0-0.31","4311","János imád dabozni, ezért sokat dabzik. Ti ritkán...","1","dabzotok","[""daboztok"",""dabzotok""]","dabzotok","esp trial","4","true"
"html-button-response","74","556885","0.0-11.0-1.31","null","<p>A másik játékos ezt választotta: <b>dabzotok</b>.</p><p>&#x2705;</p><p>A te válaszod és a másik játékos válasza <b>megegyeznek</b>.</p>","null","","","","feedback trial","",""
"html-button-response-esp","75","563763","0.0-11.0-0.32","5386","János imád mágamozni, ezért sokat mágamlik. Mi ritkán...","0","mágamlunk","[""mágamlunk"",""mágamozunk""]","mágamozunk","esp trial","4","false"
"html-button-response","76","567296","0.0-11.0-1.32","null","<p>A másik játékos ezt választotta: <b>mágamozunk</b>.</p><p>&#10060;</p><p>A válaszaitok <b>nem</b> egyeznek meg.</p>","null","","","","feedback trial","",""
"html-button-response-esp","77","574173","0.0-11.0-0.33","4763","János imád prögözni, ezért sokat prögzik. Ti ritkán...","1","prögöztök","[""prögzötök"",""prögöztök""]","prögzötök","esp trial","4","false"
"html-button-response","78","577713","0.0-11.0-1.33","null","<p>A másik játékos ezt választotta: <b>prögzötök</b>.</p><p>&#10060;</p><p>A válaszaitok <b>nem</b> egyeznek meg.</p>","null","","","","feedback trial","",""
"html-button-response-esp","79","584600","0.0-11.0-0.34","5222","János imád pilégedni, ezért sokat pilégszik. Ők ritkán...","0","pilégszenek","[""pilégszenek"",""pilégednek""]","pilégednek","esp trial","4","false"
"html-button-response","80","588134","0.0-11.0-1.34","null","<p>A másik játékos ezt választotta: <b>pilégednek</b>.</p><p>&#10060;</p><p>A válaszaitok <b>nem</b> egyeznek meg.</p>","null","","","","feedback trial","",""
"html-button-response-esp","81","595001","0.0-11.0-0.35","4915","János imád pragányozni, ezért sokat pragánylik. Ti ritkán...","0","pragánylotok","[""pragánylotok"",""pragányoztok""]","pragánylotok","esp trial","4","true"
"html-button-response","82","598534","0.0-11.0-1.35","null","<p>A másik játékos ezt választotta: <b>pragánylotok</b>.</p><p>&#x2705;</p><p>A te válaszod és a másik játékos válasza <b>megegyeznek</b>.</p>","null","","","","feedback trial","",""
"html-button-response-esp","83","605407","0.0-11.0-0.36","4816","János imád kűdözni, ezért sokat kűdlik. Ők ritkán...","0","kűdlenek","[""kűdlenek"",""kűdöznek""]","kűdöznek","esp trial","4","false"
"html-button-response","84","608946","0.0-11.0-1.36","null","<p>A másik játékos ezt választotta: <b>kűdöznek</b>.</p><p>&#10060;</p><p>A válaszaitok <b>nem</b> egyeznek meg.</p>","null","","","","feedback trial","",""
"html-button-response-esp","85","615819","0.0-11.0-0.37","4848","János imád nyivágozni, ezért sokat nyivágzik. Mi ritkán...","1","nyivágzunk","[""nyivágozunk"",""nyivágzunk""]","nyivágozunk","esp trial","4","false"
"html-button-response","86","619338","0.0-11.0-1.37","null","<p>A másik játékos ezt választotta: <b>nyivágozunk</b>.</p><p>&#10060;</p><p>A válaszaitok <b>nem</b> egyeznek meg.</p>","null","","","","feedback trial","",""
"html-button-response-esp","87","626213","0.0-11.0-0.38","4367","János imád spirágozni, ezért sokat spiráglik. Ti ritkán...","0","spiráglotok","[""spiráglotok"",""spirágoztok""]","spiráglotok","esp trial","4","true"
"html-button-response","88","629737","0.0-11.0-1.38","null","<p>A másik játékos ezt választotta: <b>spiráglotok</b>.</p><p>&#x2705;</p><p>A te válaszod és a másik játékos válasza <b>megegyeznek</b>.</p>","null","","","","feedback trial","",""
"html-button-response-esp","89","636627","0.0-11.0-0.39","4989","János imád dujozni, ezért sokat dujzik. Ők ritkán...","0","dujzanak","[""dujzanak"",""dujoznak""]","dujzanak","esp trial","4","true"
"html-button-response","90","640159","0.0-11.0-1.39","null","<p>A másik játékos ezt választotta: <b>dujzanak</b>.</p><p>&#x2705;</p><p>A te válaszod és a másik játékos válasza <b>megegyeznek</b>.</p>","null","","","","feedback trial","",""
"html-button-response-esp","91","647051","0.0-11.0-0.40","3555","János imád virozni, ezért sokat virzik. Ők ritkán...","0","virzanak","[""virzanak"",""viroznak""]","virzanak","esp trial","4","true"
"html-button-response","92","650578","0.0-11.0-1.40","null","<p>A másik játékos ezt választotta: <b>virzanak</b>.</p><p>&#x2705;</p><p>A te válaszod és a másik játékos válasza <b>megegyeznek</b>.</p>","null","","","","feedback trial","",""
"html-button-response-esp","93","657445","0.0-11.0-0.41","4052","János imád föködni, ezért sokat fökszik. Ők ritkán...","0","fökszenek","[""fökszenek"",""föködnek""]","föködnek","esp trial","4","false"
"html-button-response","94","660963","0.0-11.0-1.41","null","<p>A másik játékos ezt választotta: <b>föködnek</b>.</p><p>&#10060;</p><p>A válaszaitok <b>nem</b> egyeznek meg.</p>","null","","","","feedback trial","",""
"html-button-response-esp","95","667857","0.0-11.0-0.42","4720","János imád brülösözni, ezért sokat brülöslik. Mi ritkán...","1","brülöslünk","[""brülösözünk"",""brülöslünk""]","brülöslünk","esp trial","4","true"
"html-button-response","96","671390","0.0-11.0-1.42","null","<p>A másik játékos ezt választotta: <b>brülöslünk</b>.</p><p>&#x2705;</p><p>A te válaszod és a másik játékos válasza <b>megegyeznek</b>.</p>","null","","","","feedback trial","",""
"html-button-response-esp","97","678265","0.0-11.0-0.43","4227","János imád drűrözni, ezért sokat drűrzik. Ők ritkán...","0","drűrzenek","[""drűrzenek"",""drűröznek""]","drűrzenek","esp trial","4","true"
"html-button-response","98","681797","0.0-11.0-1.43","null","<p>A másik játékos ezt választotta: <b>drűrzenek</b>.</p><p>&#x2705;</p><p>A te válaszod és a másik játékos válasza <b>megegyeznek</b>.</p>","null","","","","feedback trial","",""
"html-button-response-esp","99","688664","0.0-11.0-0.44","4656","János imád trugozni, ezért sokat trugzik. Ők ritkán...","1","trugzanak","[""trugoznak"",""trugzanak""]","trugzanak","esp trial","4","true"
"html-button-response","100","692197","0.0-11.0-1.44","null","<p>A másik játékos ezt választotta: <b>trugzanak</b>.</p><p>&#x2705;</p><p>A te válaszod és a másik játékos válasza <b>megegyeznek</b>.</p>","null","","","","feedback trial","",""
"html-button-response-esp","101","699066","0.0-11.0-0.45","3736","János imád köszözni, ezért sokat köszlik. Ti ritkán...","1","köszlötök","[""köszöztök"",""köszlötök""]","köszlötök","esp trial","4","true"
"html-button-response","102","702594","0.0-11.0-1.45","null","<p>A másik játékos ezt választotta: <b>köszlötök</b>.</p><p>&#x2705;</p><p>A te válaszod és a másik játékos válasza <b>megegyeznek</b>.</p>","null","","","","feedback trial","",""
"html-button-response-esp","103","709478","0.0-11.0-0.46","5668","János imád trugokozni, ezért sokat trugoklik. Ők ritkán...","1","trugoklanak","[""trugokoznak"",""trugoklanak""]","trugoklanak","esp trial","4","true"
"html-button-response","104","713010","0.0-11.0-1.46","null","<p>A másik játékos ezt választotta: <b>trugoklanak</b>.</p><p>&#x2705;</p><p>A te válaszod és a másik játékos válasza <b>megegyeznek</b>.</p>","null","","","","feedback trial","",""
"html-button-response-esp","105","719890","0.0-11.0-0.47","3073","János imád posozni, ezért sokat poslik. Ti ritkán...","0","poslotok","[""poslotok"",""posoztok""]","posoztok","esp trial","4","false"
"html-button-response","106","723423","0.0-11.0-1.47","null","<p>A másik játékos ezt választotta: <b>posoztok</b>.</p><p>&#10060;</p><p>A válaszaitok <b>nem</b> egyeznek meg.</p>","null","","","","feedback trial","",""
"html-button-response-esp","107","733132","0.0-11.0-0.48","9188","János imád gyihegezni, ezért sokat gyihegzik. Ti ritkán...","0","gyihegzetek","[""gyihegzetek"",""gyihegeztek""]","gyihegzetek","esp trial","4","true"
"html-button-response","108","736670","0.0-11.0-1.48","null","<p>A másik játékos ezt választotta: <b>gyihegzetek</b>.</p><p>&#x2705;</p><p>A te válaszod és a másik játékos válasza <b>megegyeznek</b>.</p>","null","","","","feedback trial","",""
"html-button-response-esp","109","744189","0.0-11.0-0.49","7001","János imád csibagozni, ezért sokat csibagzik. Ti ritkán...","1","csibagzotok","[""csibagoztok"",""csibagzotok""]","csibagzotok","esp trial","4","true"
"html-button-response","110","747712","0.0-11.0-1.49","null","<p>A másik játékos ezt választotta: <b>csibagzotok</b>.</p><p>&#x2705;</p><p>A te válaszod és a másik játékos válasza <b>megegyeznek</b>.</p>","null","","","","feedback trial","",""
"html-button-response-esp","111","754603","0.0-11.0-0.50","5286","János imád molodni, ezért sokat molszik. Ti ritkán...","0","molszotok","[""molszotok"",""molodtok""]","molodtok","esp trial","4","false"
"html-button-response","112","758134","0.0-11.0-1.50","null","<p>A másik játékos ezt választotta: <b>molodtok</b>.</p><p>&#10060;</p><p>A válaszaitok <b>nem</b> egyeznek meg.</p>","null","","","","feedback trial","",""
"html-button-response-esp","113","764997","0.0-11.0-0.51","4758","János imád flüröközni, ezért sokat flüröklik. Ti ritkán...","0","flüröklötök","[""flüröklötök"",""flürököztök""]","flüröklötök","esp trial","4","true"
"html-button-response","114","768530","0.0-11.0-1.51","null","<p>A másik játékos ezt választotta: <b>flüröklötök</b>.</p><p>&#x2705;</p><p>A te válaszod és a másik játékos válasza <b>megegyeznek</b>.</p>","null","","","","feedback trial","",""
"html-button-response-esp","115","777380","0.0-11.0-0.52","8344","János imád sprűrözni, ezért sokat sprűrlik. Ők ritkán...","0","sprűrlenek","[""sprűrlenek"",""sprűröznek""]","sprűrlenek","esp trial","4","true"
"html-button-response","116","780912","0.0-11.0-1.52","null","<p>A másik játékos ezt választotta: <b>sprűrlenek</b>.</p><p>&#x2705;</p><p>A te válaszod és a másik játékos válasza <b>megegyeznek</b>.</p>","null","","","","feedback trial","",""
"html-button-response-esp","117","787790","0.0-11.0-0.53","3564","János imád trivakodni, ezért sokat trivakszik. Mi ritkán...","0","trivakszunk","[""trivakszunk"",""trivakodunk""]","trivakszunk","esp trial","4","true"
"html-button-response","118","791309","0.0-11.0-1.53","null","<p>A másik játékos ezt választotta: <b>trivakszunk</b>.</p><p>&#x2705;</p><p>A te válaszod és a másik játékos válasza <b>megegyeznek</b>.</p>","null","","","","feedback trial","",""
"html-button-response","119","801160","0.0-12.0","9327","<p>A közös játék most véget ért.</p><p>Mielőtt eláruljuk a végső pontszámodat, arra kérlek, játszd a szóválasztós játékot néhány percig egyedül is.</p><p>A feladatod ugyanaz lesz, választani két lehetőség közül.</p><p>Most viszont egyedül kell döntened, hogy te melyiket választanád.</p>","0","","","","","",""
"html-button-response-clever","120","807032","0.0-13.0-0.0","5355","János imád sprimozni, ezért sokat sprimlik. Mi ritkán...","0","sprimlunk","[""sprimlunk"",""sprimozunk""]","","posttest trial","8",""
"html-button-response-clever","121","816345","0.0-13.0-0.1","8795","János imád tibarozni, ezért sokat tibarzik. Ők ritkán...","1","tibaroznak","[""tibarzanak"",""tibaroznak""]","","posttest trial","8",""
"html-button-response-clever","122","821331","0.0-13.0-0.2","4464","János imád livényezni, ezért sokat livénylik. Mi ritkán...","0","livénylünk","[""livénylünk"",""livényezünk""]","","posttest trial","8",""
"html-button-response-clever","123","827589","0.0-13.0-0.3","5752","János imád flézezni, ezért sokat flézlik. Ti ritkán...","1","flézletek","[""flézeztek"",""flézletek""]","","posttest trial","8",""
"html-button-response-clever","124","834192","0.0-13.0-0.4","6091","János imád brivágozni, ezért sokat briváglik. Ők ritkán...","0","briváglanak","[""briváglanak"",""brivágoznak""]","","posttest trial","8",""
"html-button-response-clever","125","841112","0.0-13.0-0.5","6402","János imád vobozni, ezért sokat vobzik. Ti ritkán...","0","vobzotok","[""vobzotok"",""voboztok""]","","posttest trial","8",""
"html-button-response-clever","126","846821","0.0-13.0-0.6","5199","János imád sztrajozni, ezért sokat sztrajlik. Ők ritkán...","0","sztrajlanak","[""sztrajlanak"",""sztrajoznak""]","","posttest trial","8",""
"html-button-response-clever","127","850855","0.0-13.0-0.7","3517","János imád dirányozni, ezért sokat diránylik. Ők ritkán...","1","diránylanak","[""dirányoznak"",""diránylanak""]","","posttest trial","8",""
"html-button-response-clever","128","855442","0.0-13.0-0.8","4077","János imád frihegezni, ezért sokat friheglik. Mi ritkán...","0","friheglünk","[""friheglünk"",""frihegezünk""]","","posttest trial","8",""
"html-button-response-clever","129","860445","0.0-13.0-0.9","4491","János imád fröjözni, ezért sokat fröjlik. Mi ritkán...","1","fröjlünk","[""fröjözünk"",""fröjlünk""]","","posttest trial","8",""
"html-button-response-clever","130","869749","0.0-13.0-0.10","8791","János imád pörözni, ezért sokat pörzik. Ti ritkán...","1","pörzötök","[""pöröztök"",""pörzötök""]","","posttest trial","8",""
"html-button-response-clever","131","874606","0.0-13.0-0.11","4353","János imád sponyozni, ezért sokat sponylik. Ők ritkán...","1","sponylanak","[""sponyoznak"",""sponylanak""]","","posttest trial","8",""
"html-button-response-clever","132","878609","0.0-13.0-0.12","3493","János imád nágapodni, ezért sokat nágapszik. Ők ritkán...","1","nágapszanak","[""nágapodnak"",""nágapszanak""]","","posttest trial","8",""
"html-button-response-clever","133","882927","0.0-13.0-0.13","3794","János imád brározni, ezért sokat brárlik. Ők ritkán...","1","brárlanak","[""brároznak"",""brárlanak""]","","posttest trial","8",""
"html-button-response-clever","134","886666","0.0-13.0-0.14","3231","János imád filányozni, ezért sokat filánylik. Mi ritkán...","1","filánylunk","[""filányozunk"",""filánylunk""]","","posttest trial","8",""
"html-button-response-clever","135","891145","0.0-13.0-0.15","3962","János imád drivegezni, ezért sokat drivegzik. Ti ritkán...","1","drivegzetek","[""drivegeztek"",""drivegzetek""]","","posttest trial","8",""
"html-button-response-clever","136","894487","0.0-13.0-0.16","2821","János imád drojozni, ezért sokat drojzik. Mi ritkán...","0","drojzunk","[""drojzunk"",""drojozunk""]","","posttest trial","8",""
"html-button-response-clever","137","898149","0.0-13.0-0.17","3154","János imád klarágozni, ezért sokat klarágzik. Ti ritkán...","0","klarágoztok","[""klarágoztok"",""klarágzotok""]","","posttest trial","8",""
"html-button-response-clever","138","903214","0.0-13.0-0.18","4552","János imád míjozni, ezért sokat míjzik. Mi ritkán...","0","míjzunk","[""míjzunk"",""míjozunk""]","","posttest trial","8",""
"html-button-response-clever","139","908241","0.0-13.0-0.19","4513","János imád frivamozni, ezért sokat frivamlik. Mi ritkán...","0","frivamlunk","[""frivamlunk"",""frivamozunk""]","","posttest trial","8",""
"html-button-response-clever","140","912505","0.0-13.0-0.20","3755","János imád spalározni, ezért sokat spalárzik. Ők ritkán...","1","spalárzanak","[""spalároznak"",""spalárzanak""]","","posttest trial","8",""
"html-button-response-clever","141","916123","0.0-13.0-0.21","3102","János imád sprigozni, ezért sokat sprigzik. Ti ritkán...","1","sprigoztok","[""sprigzotok"",""sprigoztok""]","","posttest trial","8",""
"html-button-response-clever","142","921626","0.0-13.0-0.22","4990","János imád kluzozni, ezért sokat kluzlik. Ti ritkán...","0","kluzlotok","[""kluzlotok"",""kluzoztok""]","","posttest trial","8",""
"html-button-response-clever","143","925290","0.0-13.0-0.23","3154","János imád tűgözni, ezért sokat tűgzik. Ti ritkán...","1","tűgzötök","[""tűgöztök"",""tűgzötök""]","","posttest trial","8",""
"html-button-response-clever","144","928877","0.0-13.0-0.24","3061","János imád pehégedni, ezért sokat pehégszik. Ti ritkán...","1","pehégszetek","[""pehégedtek"",""pehégszetek""]","","posttest trial","8",""
"html-button-response-clever","145","937090","0.0-13.0-0.25","7699","János imád bregezni, ezért sokat bregzik. Mi ritkán...","1","bregzünk","[""bregezünk"",""bregzünk""]","","posttest trial","8",""
"html-button-response-clever","146","941339","0.0-13.0-0.26","3730","János imád prilepedni, ezért sokat prilepszik. Mi ritkán...","0","prilepszünk","[""prilepszünk"",""prilepedünk""]","","posttest trial","8",""
"html-button-response-clever","147","945003","0.0-13.0-0.27","3146","János imád spöközni, ezért sokat spöklik. Mi ritkán...","1","spöklünk","[""spöközünk"",""spöklünk""]","","posttest trial","8",""
"html-button-response-clever","148","948811","0.0-13.0-0.28","3299","János imád gyivepedni, ezért sokat gyivepszik. Ők ritkán...","0","gyivepszenek","[""gyivepszenek"",""gyivepednek""]","","posttest trial","8",""
"html-button-response-clever","149","953423","0.0-13.0-0.29","4100","János imád spibamozni, ezért sokat spibamlik. Ők ritkán...","1","spibamlanak","[""spibamoznak"",""spibamlanak""]","","posttest trial","8",""
"html-button-response-clever","150","958127","0.0-13.0-0.30","4181","János imád tribejezni, ezért sokat tribejlik. Ti ritkán...","0","tribejletek","[""tribejletek"",""tribejeztek""]","","posttest trial","8",""
"html-button-response-clever","151","962144","0.0-13.0-0.31","3513","János imád galározni, ezért sokat galárzik. Ők ritkán...","0","galárzanak","[""galárzanak"",""galároznak""]","","posttest trial","8",""
"html-button-response-clever","152","965147","0.0-13.0-0.32","2483","János imád prazozni, ezért sokat prazlik. Mi ritkán...","1","prazlunk","[""prazozunk"",""prazlunk""]","","posttest trial","8",""
"html-button-response-clever","153","969772","0.0-13.0-0.33","4113","János imád sztritozni, ezért sokat sztritlik. Ők ritkán...","0","sztritlanak","[""sztritlanak"",""sztritoznak""]","","posttest trial","8",""
"html-button-response-clever","154","973490","0.0-13.0-0.34","3199","János imád mihágozni, ezért sokat mihágzik. Ti ritkán...","1","mihágoztok","[""mihágzotok"",""mihágoztok""]","","posttest trial","8",""
"html-button-response-clever","155","976446","0.0-13.0-0.35","2438","János imád gatágozni, ezért sokat gatáglik. Mi ritkán...","0","gatáglunk","[""gatáglunk"",""gatágozunk""]","","posttest trial","8",""
"html-button-response-clever","156","979802","0.0-13.0-0.36","2852","János imád brálamozni, ezért sokat brálamlik. Ők ritkán...","1","brálamlanak","[""brálamoznak"",""brálamlanak""]","","posttest trial","8",""
"html-button-response-clever","157","985498","0.0-13.0-0.37","5186","János imád trírozni, ezért sokat trírzik. Mi ritkán...","0","trírzunk","[""trírzunk"",""trírozunk""]","","posttest trial","8",""
"html-button-response-clever","158","990501","0.0-13.0-0.38","4485","János imád flivegezni, ezért sokat flivegzik. Ők ritkán...","1","flivegzenek","[""flivegeznek"",""flivegzenek""]","","posttest trial","8",""
"html-button-response-clever","159","994550","0.0-13.0-0.39","3538","János imád tágarozni, ezért sokat tágarzik. Mi ritkán...","0","tágarzunk","[""tágarzunk"",""tágarozunk""]","","posttest trial","8",""
"html-button-response-clever","160","997721","0.0-13.0-0.40","2668","János imád hákodni, ezért sokat hákszik. Ők ritkán...","1","hákszanak","[""hákodnak"",""hákszanak""]","","posttest trial","8",""
"html-button-response-clever","161","1002510","0.0-13.0-0.41","4279","János imád lumozni, ezért sokat lumlik. Ti ritkán...","1","lumlotok","[""lumoztok"",""lumlotok""]","","posttest trial","8",""
"html-button-response-clever","162","1005204","0.0-13.0-0.42","2186","János imád flubokozni, ezért sokat fluboklik. Ti ritkán...","1","fluboklotok","[""flubokoztok"",""fluboklotok""]","","posttest trial","8",""
"html-button-response-clever","163","1007951","0.0-13.0-0.43","2241","János imád gibemezni, ezért sokat gibemlik. Mi ritkán...","0","gibemlünk","[""gibemlünk"",""gibemezünk""]","","posttest trial","8",""
"html-button-response-clever","164","1011136","0.0-13.0-0.44","2677","János imád riványozni, ezért sokat riványlik. Ti ritkán...","0","riványlotok","[""riványlotok"",""riványoztok""]","","posttest trial","8",""
"html-button-response-clever","165","1015626","0.0-13.0-0.45","3979","János imád brüszözni, ezért sokat brüszlik. Ti ritkán...","0","brüszlötök","[""brüszlötök"",""brüszöztök""]","","posttest trial","8",""
"html-button-response-clever","166","1018682","0.0-13.0-0.46","2546","János imád frésezni, ezért sokat fréslik. Mi ritkán...","1","fréslünk","[""frésezünk"",""fréslünk""]","","posttest trial","8",""
"html-button-response-clever","167","1021630","0.0-13.0-0.47","2427","János imád trűnyözni, ezért sokat trűnylik. Ők ritkán...","0","trűnylenek","[""trűnylenek"",""trűnyöznek""]","","posttest trial","8",""
"html-button-response-clever","168","1024871","0.0-13.0-0.48","2723","János imád mísozni, ezért sokat míslik. Mi ritkán...","0","míslunk","[""míslunk"",""mísozunk""]","","posttest trial","8",""
"html-button-response-clever","169","1028011","0.0-13.0-0.49","2637","János imád küsözni, ezért sokat küslik. Mi ritkán...","0","küslünk","[""küslünk"",""küsözünk""]","","posttest trial","8",""
"html-button-response-clever","170","1031090","0.0-13.0-0.50","2570","János imád lírozni, ezért sokat lírlik. Ők ritkán...","1","lírlanak","[""líroznak"",""lírlanak""]","","posttest trial","8",""
"html-button-response-clever","171","1037232","0.0-13.0-0.51","5632","János imád brilegezni, ezért sokat brilegzik. Mi ritkán...","1","brilegzünk","[""brilegezünk"",""brilegzünk""]","","posttest trial","8",""
"html-button-response-clever","172","1040766","0.0-13.0-0.52","3022","János imád pekedni, ezért sokat pekszik. Mi ritkán...","1","pekszünk","[""pekedünk"",""pekszünk""]","","posttest trial","8",""
"html-button-response-clever","173","1044538","0.0-13.0-0.53","3266","János imád brivepedni, ezért sokat brivepszik. Mi ritkán...","0","brivepszünk","[""brivepszünk"",""brivepedünk""]","","posttest trial","8",""
"html-button-response","174","1052104","0.0-14.0","7056","<p> Vége a játéknak. A teljes pontszámod 30/54.</p><p> Szép munka! &#128526;&#128526;&#128526;</p><p>A Befejezés gomb megnyomása után bezárhatod a böngészőablakot.</p>","0","","","","","",""
"html-keyboard-response","175","1057631","0.0-15.0","null","<div class=""message"">
         <p>Egy kis türelmet kérünk, amíg elmentjük az adatokat...</p>
         </div>","null","","","","","",""
