"trial_type","trial_index","time_elapsed","internal_node_id","rt","stimulus","response","response_string","choices","esp_response","trial_kind","list_number","esp_match"
"pavlovia","0","984","0.0-0.0","","","","","","","","",""
"html-button-response","1","5724","0.0-1.0","4232","<p>Kedves Résztvevő! A Budapesti Műszaki és Gazdaságtudományi Egyetem Kognitív Tudományi Tanszékének kutatásában való részvételed kérjük. A kutatásban azt vizsgáljuk, hogy a magyar anyanyelvűek hogyan használnak bizonyos szóalakokat, és hogy milyen képük van arról, hogy mások hogyan használják, hogyan képzik a szavakat. Ez hozzásegít bennünket ahhoz, hogy jobban megértsük, hogyan dolgozza fel és tárolja a nyelvet az emberi agy, és hogyan működnek, hogyan változnak egy adott közösség nyelvi konvenciói.</p><p>A vizsgálat egy rövid számítógépes feladatból fog állni. A kutatásban való részvétel önkéntes, a részvételi szándék bármikor visszavonható. A résztvevők eredményeit név nélkül kezeljük, így nem beazonosíthatók az adatok feldolgozása során. Minden személyes adatot az EU általános adatvédelmi rendeletének (GDPR) megfelelően kezelünk és legfeljebb öt éven belül megsemmisítünk. A vizsgálat jellemzően húsz percet vesz igénybe.</p><p>Kutatásvezető:</p><p>Dr. Rácz Péter, tudományos munkatárs, BME KTT</p><p>e-mail: racz.peter.marton@ttk.bme.hu</p>","0","","","","","",""
"html-button-response","2","50820","0.0-2.0","44593","<p>A kísérletben szavakat fogsz látni. Ezek között lesznek olyanok, amelyeket ismersz, de előfordulhatnak olyanok is, amelyeket nem ismersz, sőt, vannak köztük kitalált szavak is. Minden szónál látni fogsz toldalékolt alakokat. A te feladatod az lesz, hogy minden szóhoz kiválaszd azt a toldalékolt alakot, amely a te számodra ismerősebben, természetesebben hangzik. Rossz válaszok nincsenek, mert van olyan, hogy különböző embereknek más és más szó tűnik jobb választásnak. A választ úgy tudod majd kiválasztani, ha rákattintasz.</p><p>Ebben a szóválasztós játékban egy másik játékossal együtt veszel majd részt. A másik játékos is minden esetben azok közül a lehetőségek közül válogathat, mint te. Kettőtök feladata az, hogy ugyanazt a lehetőséget válasszátok minden esetben. Ahhoz, hogy ez sikerüljön, neked figyelned kell arra, hogy a másik játékos milyen válaszokat ad, és ennek alapján meg kell tippelned, hogyan választ legközelebb. Ha eltalálod, akkor pontot kapsz.</p>","0","","","","","",""
"html-button-response","3","53989","0.0-3.0","2664","<p>Kérjük, olvasd el az alábbi nyilatkozatot, és amennyiben egyetértesz vele, nyomj a Beleegyezés gombra!</p><p>Kijelentem, hogy magyar anyanyelvű személyként önként veszek részt a BME KTT kísérletében. A kutatás céljával és folyamatával kapcsolatban elegendő tájékoztatást kaptam, lehetőségem volt kérdések feltételére, és esetleges kérdéseimre megfelelő válaszokat kaptam. A tájékoztatás alapján elegendő mennyiségű információ áll a rendelkezésemre, hogy eldönthessem, részt kívánok-e venni a kutatásban.</p><p>Tisztában vagyok vele, hogy részvételi szándékomat és adataimat bármikor, indoklás nélkül visszavonhatom.</p><p>Értem és tudomásul veszem, hogy a kutatás tudományos célokat szolgál, és az általam szolgáltatott adatokat a BME kizárólag kutatási célból használja fel. Tudomásul veszem, hogy eredményeimet a többi résztvevő eredményeivel együtt kezelik, így egyéni teljesítményemről visszajelzést, szakvéleményt nem kapok.</p><p>Megértettem, hogy adataim kezelését illetően a BME az EU általános adatvédelmi rendelete (GDPR), a hatályos adatvédelmi törvény és a nemzetközi kutatás-etikai alapelvek szerint jár el. Eredményeim anonim módon kerülnek feldolgozásra, és a kutatás résztvevői az azonosításomra alkalmas adataimat harmadik félnek nem szolgáltatják ki. Engedélyezem a BME számára a jelen kutatásban felvett adataim feldolgozását és tárolását, beleértve azok későbbi kutatásokhoz való felhasználását is. Személyes adataim kezelésével kapcsolatban tájékoztatást kérhetek a kutatás résztvevőitől, az adatkezelés ellen tiltakozhatok, kérhetem személyes adataim helyesbítését, törlését vagy zárolását, valamint jogorvoslatért a Nemzeti Adatvédelmi és Információszabadság Hatósághoz fordulhatok.</p><p>Kijelentem, hogy a kutatásban való részvételem körülményeiről részletes tájékoztatást kaptam, és a feltételeket elfogadom.</p>","0","","","","","",""
"survey-text","4","129930","0.0-4.0","75419","","{""Q0"":""KDD5ZX"",""Q1"":"""",""Q2"":""1978.11.10."",""Q3"":""16""}","","","","","",""
"html-button-response","5","166328","0.0-5.0","35891","<p>Ebben a játékban szavakat kell toldalékolni.</p> <p>Minden körben mutatunk majd egy példamondatot, amiben lesz egy szó.</p> <p>Alatta jön egy második mondat, ezt a mondatot neked kell majd befejezni, ugyanezzel a szóval.</p> <p>Nem biztos, hogy a szó eleve ismerős lesz számodra!</p> <p>Minden mondathoz adunk két lehetőséget, ezeket balra és jobbra látod majd.</p> <p>A játék kb. negyedóráig-húsz percig tart.</p>","0","","","","","",""
"html-button-response","6","189866","0.0-6.0","23032","<p>Nézzünk egy példát!</p> <p>A példamondat: ""Ez itt egy blumbnyeg.""</p><p>Neked ezt a mondatot kell befejezned: ""Ott vagyunk a...""</p><p>A lehetőségek pedig ezek:</p>","0","","","","","",""
"html-button-response","7","201303","0.0-7.0","10932","<p>Nagyon jó.</p><p>Ezt a játékot nem egyedül fogod játszani, hanem egy másik játékossal.</p><p>Mielőtt továbblépünk, összekapcsolunk titeket egymással.</p><p>Ez igénybe vehet néhány másodpercet, amihez szíves türelmed kérjük.</p>","0","","","","","",""
"html-button-response","8","207030","0.0-8.0","null","<p>Csatlakozás a másik játékoshoz...</p>","null","","","","","",""
"html-button-response","9","209534","0.0-9.0","null","<p> Sikeres kapcsolódás!</p>","null","","","","","",""
"html-button-response","10","220041","0.0-10.0","null","<p>A következőkben ketten játsszátok a szóválasztós játékot.</p><p>A feladatotok az lesz, hogy minden körben <b>ugyanazt</b> a szót válasszátok.</p><p>Minden ilyen egyező válaszért pontot kaptok.</p><p>Próbáld meg kitalálni, mit választ a másik játékos!</p><p>Bármikor választhatsz, a körnek akkor van vége, ha mindketten döntöttetek.</p><p>Sok sikert!</p>","null","","","","","",""
"html-button-response-esp","11","230710","0.0-11.0-0.0","10154","Ez itt egy gábéd. Nincs is jobb egy jó...","1","gábédnél","[""gábédnál"",""gábédnél""]","gábédnál","esp trial","5","false"
"html-button-response","12","234218","0.0-11.0-1.0","null","<p>A másik játékos ezt választotta: <b>gábédnál</b>.</p><p>&#10060;</p><p>A válaszaitok <b>nem</b> egyeznek meg.</p>","null","","","","feedback trial","",""
"html-button-response-esp","13","242554","0.0-11.0-0.1","7826","Ez itt egy dinelt. Ott vagyunk a...","1","dineltben","[""dineltban"",""dineltben""]","dineltben","esp trial","5","true"
"html-button-response","14","246058","0.0-11.0-1.1","null","<p>A másik játékos ezt választotta: <b>dineltben</b>.</p><p>&#x2705;</p><p>A te válaszod és a másik játékos válasza <b>megegyeznek</b>.</p>","null","","","","feedback trial","",""
"html-button-response-esp","15","250705","0.0-11.0-0.2","4142","Ez itt egy klazér. Ott vagyunk a...","0","klazérben","[""klazérben"",""klazérban""]","klazérban","esp trial","5","false"
"html-button-response","16","254209","0.0-11.0-1.2","null","<p>A másik játékos ezt választotta: <b>klazérban</b>.</p><p>&#10060;</p><p>A válaszaitok <b>nem</b> egyeznek meg.</p>","null","","","","feedback trial","",""
"html-button-response-esp","17","258622","0.0-11.0-0.3","3910","Ez itt egy zuten. Nincs is jobb egy jó...","1","zutennél","[""zutennál"",""zutennél""]","zutennál","esp trial","5","false"
"html-button-response","18","262126","0.0-11.0-1.3","null","<p>A másik játékos ezt választotta: <b>zutennál</b>.</p><p>&#10060;</p><p>A válaszaitok <b>nem</b> egyeznek meg.</p>","null","","","","feedback trial","",""
"html-button-response-esp","19","266925","0.0-11.0-0.4","4295","Ez itt egy csublény. Ott vagyunk a...","0","csublényben","[""csublényben"",""csublényban""]","csublényban","esp trial","5","false"
"html-button-response","20","270429","0.0-11.0-1.4","null","<p>A másik játékos ezt választotta: <b>csublényban</b>.</p><p>&#10060;</p><p>A válaszaitok <b>nem</b> egyeznek meg.</p>","null","","","","feedback trial","",""
"html-button-response-esp","21","277553","0.0-11.0-0.5","6619","Ez itt egy bingéj. Elneveztem a kutyámat...","0","bingéjnak","[""bingéjnak"",""bingéjnek""]","bingéjnak","esp trial","5","true"
"html-button-response","22","281057","0.0-11.0-1.5","null","<p>A másik játékos ezt választotta: <b>bingéjnak</b>.</p><p>&#x2705;</p><p>A te válaszod és a másik játékos válasza <b>megegyeznek</b>.</p>","null","","","","feedback trial","",""
"html-button-response-esp","23","286562","0.0-11.0-0.6","5001","Ez itt egy tumély. Nincs is jobb egy jó...","0","tumélynál","[""tumélynál"",""tumélynél""]","tumélynál","esp trial","5","true"
"html-button-response","24","290065","0.0-11.0-1.6","null","<p>A másik játékos ezt választotta: <b>tumélynál</b>.</p><p>&#x2705;</p><p>A te válaszod és a másik játékos válasza <b>megegyeznek</b>.</p>","null","","","","feedback trial","",""
"html-button-response-esp","25","295473","0.0-11.0-0.7","4904","Ez itt egy fizend. Ott vagyunk a...","0","fizendben","[""fizendben"",""fizendban""]","fizendben","esp trial","5","true"
"html-button-response","26","298978","0.0-11.0-1.7","null","<p>A másik játékos ezt választotta: <b>fizendben</b>.</p><p>&#x2705;</p><p>A te válaszod és a másik játékos válasza <b>megegyeznek</b>.</p>","null","","","","feedback trial","",""
"html-button-response-esp","27","302722","0.0-11.0-0.8","2860","Ez itt egy vodec. Nincs is jobb egy jó...","1","vodecnál","[""vodecnél"",""vodecnál""]","vodecnál","esp trial","5","true"
"html-button-response","28","306228","0.0-11.0-1.8","null","<p>A másik játékos ezt választotta: <b>vodecnál</b>.</p><p>&#x2705;</p><p>A te válaszod és a másik játékos válasza <b>megegyeznek</b>.</p>","null","","","","feedback trial","",""
"html-button-response-esp","29","311026","0.0-11.0-0.9","4294","Ez itt egy tivenc. Ott vagyunk a...","1","tivencben","[""tivencban"",""tivencben""]","tivencban","esp trial","5","false"
"html-button-response","30","314531","0.0-11.0-1.9","null","<p>A másik játékos ezt választotta: <b>tivencban</b>.</p><p>&#10060;</p><p>A válaszaitok <b>nem</b> egyeznek meg.</p>","null","","","","feedback trial","",""
"html-button-response-esp","31","318969","0.0-11.0-0.10","3934","Ez itt egy zarcég. Nincs is jobb egy jó...","1","zarcégnál","[""zarcégnél"",""zarcégnál""]","zarcégnál","esp trial","5","true"
"html-button-response","32","322473","0.0-11.0-1.10","null","<p>A másik játékos ezt választotta: <b>zarcégnál</b>.</p><p>&#x2705;</p><p>A te válaszod és a másik játékos válasza <b>megegyeznek</b>.</p>","null","","","","feedback trial","",""
"html-button-response-esp","33","327579","0.0-11.0-0.11","4602","Ez itt egy zábény. Elneveztem a kutyámat...","1","zábénynak","[""zábénynek"",""zábénynak""]","zábénynak","esp trial","5","true"
"html-button-response","34","331084","0.0-11.0-1.11","null","<p>A másik játékos ezt választotta: <b>zábénynak</b>.</p><p>&#x2705;</p><p>A te válaszod és a másik játékos válasza <b>megegyeznek</b>.</p>","null","","","","feedback trial","",""
"html-button-response-esp","35","335757","0.0-11.0-0.12","4169","Ez itt egy humék. Elneveztem a kutyámat...","1","huméknak","[""huméknek"",""huméknak""]","huméknak","esp trial","5","true"
"html-button-response","36","339261","0.0-11.0-1.12","null","<p>A másik játékos ezt választotta: <b>huméknak</b>.</p><p>&#x2705;</p><p>A te válaszod és a másik játékos válasza <b>megegyeznek</b>.</p>","null","","","","feedback trial","",""
"html-button-response-esp","37","343534","0.0-11.0-0.13","3768","Ez itt egy dunkész. Ott vagyunk a...","1","dunkészban","[""dunkészben"",""dunkészban""]","dunkészban","esp trial","5","true"
"html-button-response","38","347039","0.0-11.0-1.13","null","<p>A másik játékos ezt választotta: <b>dunkészban</b>.</p><p>&#x2705;</p><p>A te válaszod és a másik játékos válasza <b>megegyeznek</b>.</p>","null","","","","feedback trial","",""
"html-button-response-esp","39","351402","0.0-11.0-0.14","3858","Ez itt egy szibed. Ott vagyunk a...","1","szibedben","[""szibedban"",""szibedben""]","szibedben","esp trial","5","true"
"html-button-response","40","354911","0.0-11.0-1.14","null","<p>A másik játékos ezt választotta: <b>szibedben</b>.</p><p>&#x2705;</p><p>A te válaszod és a másik játékos válasza <b>megegyeznek</b>.</p>","null","","","","feedback trial","",""
"html-button-response-esp","41","359020","0.0-11.0-0.15","3604","Ez itt egy kátéd. Nincs is jobb egy jó...","1","kátédnál","[""kátédnél"",""kátédnál""]","kátédnál","esp trial","5","true"
"html-button-response","42","362524","0.0-11.0-1.15","null","<p>A másik játékos ezt választotta: <b>kátédnál</b>.</p><p>&#x2705;</p><p>A te válaszod és a másik játékos válasza <b>megegyeznek</b>.</p>","null","","","","feedback trial","",""
"html-button-response-esp","43","366705","0.0-11.0-0.16","3676","Ez itt egy lihény. Elneveztem a kutyámat...","0","lihénynek","[""lihénynek"",""lihénynak""]","lihénynek","esp trial","5","true"
"html-button-response","44","370209","0.0-11.0-1.16","null","<p>A másik játékos ezt választotta: <b>lihénynek</b>.</p><p>&#x2705;</p><p>A te válaszod és a másik játékos válasza <b>megegyeznek</b>.</p>","null","","","","feedback trial","",""
"html-button-response-esp","45","374480","0.0-11.0-0.17","3767","Ez itt egy spizec. Elneveztem a kutyámat...","1","spizecnak","[""spizecnek"",""spizecnak""]","spizecnek","esp trial","5","false"
"html-button-response","46","377985","0.0-11.0-1.17","null","<p>A másik játékos ezt választotta: <b>spizecnek</b>.</p><p>&#10060;</p><p>A válaszaitok <b>nem</b> egyeznek meg.</p>","null","","","","feedback trial","",""
"html-button-response-esp","47","381743","0.0-11.0-0.18","3255","Ez itt egy lingék. Nincs is jobb egy jó...","1","lingéknél","[""lingéknál"",""lingéknél""]","lingéknél","esp trial","5","true"
"html-button-response","48","385247","0.0-11.0-1.18","null","<p>A másik játékos ezt választotta: <b>lingéknél</b>.</p><p>&#x2705;</p><p>A te válaszod és a másik játékos válasza <b>megegyeznek</b>.</p>","null","","","","feedback trial","",""
"html-button-response-esp","49","389620","0.0-11.0-0.19","3868","Ez itt egy tarhéz. Ott vagyunk a...","1","tarhézban","[""tarhézben"",""tarhézban""]","tarhézban","esp trial","5","true"
"html-button-response","50","393123","0.0-11.0-1.19","null","<p>A másik játékos ezt választotta: <b>tarhézban</b>.</p><p>&#x2705;</p><p>A te válaszod és a másik játékos válasza <b>megegyeznek</b>.</p>","null","","","","feedback trial","",""
"html-button-response-esp","51","396867","0.0-11.0-0.20","3126","Ez itt egy dutec. Nincs is jobb egy jó...","1","dutecnél","[""dutecnál"",""dutecnél""]","dutecnál","esp trial","5","false"
"html-button-response","52","400371","0.0-11.0-1.20","null","<p>A másik játékos ezt választotta: <b>dutecnál</b>.</p><p>&#10060;</p><p>A válaszaitok <b>nem</b> egyeznek meg.</p>","null","","","","feedback trial","",""
"html-button-response-esp","53","404116","0.0-11.0-0.21","2947","Ez itt egy szanéj. Elneveztem a kutyámat...","1","szanéjnek","[""szanéjnak"",""szanéjnek""]","szanéjnak","esp trial","5","false"
"html-button-response","54","407622","0.0-11.0-1.21","null","<p>A másik játékos ezt választotta: <b>szanéjnak</b>.</p><p>&#10060;</p><p>A válaszaitok <b>nem</b> egyeznek meg.</p>","null","","","","feedback trial","",""
"html-button-response-esp","55","411367","0.0-11.0-0.22","3181","Ez itt egy zined. Elneveztem a kutyámat...","0","zinednak","[""zinednak"",""zinednek""]","zinednek","esp trial","5","false"
"html-button-response","56","414871","0.0-11.0-1.22","null","<p>A másik játékos ezt választotta: <b>zinednek</b>.</p><p>&#10060;</p><p>A válaszaitok <b>nem</b> egyeznek meg.</p>","null","","","","feedback trial","",""
"html-button-response-esp","57","425192","0.0-11.0-0.23","9817","Ez itt egy zsalrén. Elneveztem a kutyámat...","1","zsalrénnek","[""zsalrénnak"",""zsalrénnek""]","zsalrénnak","esp trial","5","false"
"html-button-response","58","428696","0.0-11.0-1.23","null","<p>A másik játékos ezt választotta: <b>zsalrénnak</b>.</p><p>&#10060;</p><p>A válaszaitok <b>nem</b> egyeznek meg.</p>","null","","","","feedback trial","",""
"html-button-response-esp","59","432440","0.0-11.0-0.24","2869","Ez itt egy briskéd. Nincs is jobb egy jó...","1","briskédnél","[""briskédnál"",""briskédnél""]","briskédnál","esp trial","5","false"
"html-button-response","60","435946","0.0-11.0-1.24","null","<p>A másik játékos ezt választotta: <b>briskédnál</b>.</p><p>&#10060;</p><p>A válaszaitok <b>nem</b> egyeznek meg.</p>","null","","","","feedback trial","",""
"html-button-response-esp","61","440864","0.0-11.0-0.25","4414","Ez itt egy hijegy. Nincs is jobb egy jó...","0","hijegynél","[""hijegynél"",""hijegynál""]","hijegynél","esp trial","5","true"
"html-button-response","62","444367","0.0-11.0-1.25","null","<p>A másik játékos ezt választotta: <b>hijegynél</b>.</p><p>&#x2705;</p><p>A te válaszod és a másik játékos válasza <b>megegyeznek</b>.</p>","null","","","","feedback trial","",""
"html-button-response-esp","63","448111","0.0-11.0-0.26","3149","Ez itt egy trodély. Ott vagyunk a...","0","trodélyban","[""trodélyban"",""trodélyben""]","trodélyban","esp trial","5","true"
"html-button-response","64","451615","0.0-11.0-1.26","null","<p>A másik játékos ezt választotta: <b>trodélyban</b>.</p><p>&#x2705;</p><p>A te válaszod és a másik játékos válasza <b>megegyeznek</b>.</p>","null","","","","feedback trial","",""
"html-button-response-esp","65","456066","0.0-11.0-0.27","3947","Ez itt egy zatéj. Nincs is jobb egy jó...","1","zatéjnél","[""zatéjnál"",""zatéjnél""]","zatéjnál","esp trial","5","false"
"html-button-response","66","459570","0.0-11.0-1.27","null","<p>A másik játékos ezt választotta: <b>zatéjnál</b>.</p><p>&#10060;</p><p>A válaszaitok <b>nem</b> egyeznek meg.</p>","null","","","","feedback trial","",""
"html-button-response-esp","67","463543","0.0-11.0-0.28","3470","Ez itt egy fupét. Nincs is jobb egy jó...","1","fupétnál","[""fupétnél"",""fupétnál""]","fupétnál","esp trial","5","true"
"html-button-response","68","467047","0.0-11.0-1.28","null","<p>A másik játékos ezt választotta: <b>fupétnál</b>.</p><p>&#x2705;</p><p>A te válaszod és a másik játékos válasza <b>megegyeznek</b>.</p>","null","","","","feedback trial","",""
"html-button-response-esp","69","470791","0.0-11.0-0.29","2785","Ez itt egy klajrén. Elneveztem a kutyámat...","0","klajrénnak","[""klajrénnak"",""klajrénnek""]","klajrénnak","esp trial","5","true"
"html-button-response","70","474297","0.0-11.0-1.29","null","<p>A másik játékos ezt választotta: <b>klajrénnak</b>.</p><p>&#x2705;</p><p>A te válaszod és a másik játékos válasza <b>megegyeznek</b>.</p>","null","","","","feedback trial","",""
"html-button-response-esp","71","478755","0.0-11.0-0.30","3954","Ez itt egy cságyelt. Ott vagyunk a...","0","cságyeltban","[""cságyeltban"",""cságyeltben""]","cságyeltban","esp trial","5","true"
"html-button-response","72","482259","0.0-11.0-1.30","null","<p>A másik játékos ezt választotta: <b>cságyeltban</b>.</p><p>&#x2705;</p><p>A te válaszod és a másik játékos válasza <b>megegyeznek</b>.</p>","null","","","","feedback trial","",""
"html-button-response-esp","73","486002","0.0-11.0-0.31","3152","Ez itt egy murdes. Nincs is jobb egy jó...","1","murdesnál","[""murdesnél"",""murdesnál""]","murdesnál","esp trial","5","true"
"html-button-response","74","489506","0.0-11.0-1.31","null","<p>A másik játékos ezt választotta: <b>murdesnál</b>.</p><p>&#x2705;</p><p>A te válaszod és a másik játékos válasza <b>megegyeznek</b>.</p>","null","","","","feedback trial","",""
"html-button-response-esp","75","493662","0.0-11.0-0.32","3651","Ez itt egy jutély. Nincs is jobb egy jó...","1","jutélynél","[""jutélynál"",""jutélynél""]","jutélynál","esp trial","5","false"
"html-button-response","76","497166","0.0-11.0-1.32","null","<p>A másik játékos ezt választotta: <b>jutélynál</b>.</p><p>&#10060;</p><p>A válaszaitok <b>nem</b> egyeznek meg.</p>","null","","","","feedback trial","",""
"html-button-response-esp","77","501310","0.0-11.0-0.33","3640","Ez itt egy fágyép. Nincs is jobb egy jó...","1","fágyépnél","[""fágyépnál"",""fágyépnél""]","fágyépnál","esp trial","5","false"
"html-button-response","78","504815","0.0-11.0-1.33","null","<p>A másik játékos ezt választotta: <b>fágyépnál</b>.</p><p>&#10060;</p><p>A válaszaitok <b>nem</b> egyeznek meg.</p>","null","","","","feedback trial","",""
"html-button-response-esp","79","509611","0.0-11.0-0.34","4292","Ez itt egy fojlegy. Elneveztem a kutyámat...","0","fojlegynak","[""fojlegynak"",""fojlegynek""]","fojlegynek","esp trial","5","false"
"html-button-response","80","513115","0.0-11.0-1.34","null","<p>A másik játékos ezt választotta: <b>fojlegynek</b>.</p><p>&#10060;</p><p>A válaszaitok <b>nem</b> egyeznek meg.</p>","null","","","","feedback trial","",""
"html-button-response-esp","81","518306","0.0-11.0-0.35","4687","Ez itt egy surnegy. Nincs is jobb egy jó...","1","surnegynél","[""surnegynál"",""surnegynél""]","surnegynál","esp trial","5","false"
"html-button-response","82","521810","0.0-11.0-1.35","null","<p>A másik játékos ezt választotta: <b>surnegynál</b>.</p><p>&#10060;</p><p>A válaszaitok <b>nem</b> egyeznek meg.</p>","null","","","","feedback trial","",""
"html-button-response-esp","83","526301","0.0-11.0-0.36","3983","Ez itt egy csodeg. Nincs is jobb egy jó...","1","csodegnél","[""csodegnál"",""csodegnél""]","csodegnál","esp trial","5","false"
"html-button-response","84","529805","0.0-11.0-1.36","null","<p>A másik játékos ezt választotta: <b>csodegnál</b>.</p><p>&#10060;</p><p>A válaszaitok <b>nem</b> egyeznek meg.</p>","null","","","","feedback trial","",""
"html-button-response-esp","85","533550","0.0-11.0-0.37","2598","Ez itt egy spivél. Elneveztem a kutyámat...","1","spivélnak","[""spivélnek"",""spivélnak""]","spivélnak","esp trial","5","true"
"html-button-response","86","537056","0.0-11.0-1.37","null","<p>A másik játékos ezt választotta: <b>spivélnak</b>.</p><p>&#x2705;</p><p>A te válaszod és a másik játékos válasza <b>megegyeznek</b>.</p>","null","","","","feedback trial","",""
"html-button-response-esp","87","540800","0.0-11.0-0.38","2982","Ez itt egy dóbem. Elneveztem a kutyámat...","1","dóbemnak","[""dóbemnek"",""dóbemnak""]","dóbemnak","esp trial","5","true"
"html-button-response","88","544304","0.0-11.0-1.38","null","<p>A másik játékos ezt választotta: <b>dóbemnak</b>.</p><p>&#x2705;</p><p>A te válaszod és a másik játékos válasza <b>megegyeznek</b>.</p>","null","","","","feedback trial","",""
"html-button-response-esp","89","548210","0.0-11.0-0.39","3402","Ez itt egy vismer. Nincs is jobb egy jó...","0","vismernél","[""vismernél"",""vismernál""]","vismernél","esp trial","5","true"
"html-button-response","90","551713","0.0-11.0-1.39","null","<p>A másik játékos ezt választotta: <b>vismernél</b>.</p><p>&#x2705;</p><p>A te válaszod és a másik játékos válasza <b>megegyeznek</b>.</p>","null","","","","feedback trial","",""
"html-button-response-esp","91","555458","0.0-11.0-0.40","2553","Ez itt egy sihen. Nincs is jobb egy jó...","0","sihennél","[""sihennél"",""sihennál""]","sihennél","esp trial","5","true"
"html-button-response","92","558963","0.0-11.0-1.40","null","<p>A másik játékos ezt választotta: <b>sihennél</b>.</p><p>&#x2705;</p><p>A te válaszod és a másik játékos válasza <b>megegyeznek</b>.</p>","null","","","","feedback trial","",""
"html-button-response-esp","93","562707","0.0-11.0-0.41","2623","Ez itt egy jurdent. Nincs is jobb egy jó...","1","jurdentnél","[""jurdentnál"",""jurdentnél""]","jurdentnál","esp trial","5","false"
"html-button-response","94","566213","0.0-11.0-1.41","null","<p>A másik játékos ezt választotta: <b>jurdentnál</b>.</p><p>&#10060;</p><p>A válaszaitok <b>nem</b> egyeznek meg.</p>","null","","","","feedback trial","",""
"html-button-response-esp","95","570706","0.0-11.0-0.42","3990","Ez itt egy dibez. Ott vagyunk a...","0","dibezben","[""dibezben"",""dibezban""]","dibezben","esp trial","5","true"
"html-button-response","96","574210","0.0-11.0-1.42","null","<p>A másik játékos ezt választotta: <b>dibezben</b>.</p><p>&#x2705;</p><p>A te válaszod és a másik játékos válasza <b>megegyeznek</b>.</p>","null","","","","feedback trial","",""
"html-button-response-esp","97","578192","0.0-11.0-0.43","3479","Ez itt egy mádép. Nincs is jobb egy jó...","0","mádépnél","[""mádépnél"",""mádépnál""]","mádépnál","esp trial","5","false"
"html-button-response","98","581696","0.0-11.0-1.43","null","<p>A másik játékos ezt választotta: <b>mádépnál</b>.</p><p>&#10060;</p><p>A válaszaitok <b>nem</b> egyeznek meg.</p>","null","","","","feedback trial","",""
"html-button-response-esp","99","587794","0.0-11.0-0.44","5594","Ez itt egy trikép. Ott vagyunk a...","0","triképben","[""triképben"",""triképban""]","triképben","esp trial","5","true"
"html-button-response","100","591298","0.0-11.0-1.44","null","<p>A másik játékos ezt választotta: <b>triképben</b>.</p><p>&#x2705;</p><p>A te válaszod és a másik játékos válasza <b>megegyeznek</b>.</p>","null","","","","feedback trial","",""
"html-button-response-esp","101","595041","0.0-11.0-0.45","2661","Ez itt egy pristél. Ott vagyunk a...","1","pristélban","[""pristélben"",""pristélban""]","pristélben","esp trial","5","false"
"html-button-response","102","598548","0.0-11.0-1.45","null","<p>A másik játékos ezt választotta: <b>pristélben</b>.</p><p>&#10060;</p><p>A válaszaitok <b>nem</b> egyeznek meg.</p>","null","","","","feedback trial","",""
"html-button-response-esp","103","602292","0.0-11.0-0.46","2905","Ez itt egy hosét. Elneveztem a kutyámat...","1","hosétnak","[""hosétnek"",""hosétnak""]","hosétnak","esp trial","5","true"
"html-button-response","104","605797","0.0-11.0-1.46","null","<p>A másik játékos ezt választotta: <b>hosétnak</b>.</p><p>&#x2705;</p><p>A te válaszod és a másik játékos válasza <b>megegyeznek</b>.</p>","null","","","","feedback trial","",""
"html-button-response-esp","105","609542","0.0-11.0-0.47","2864","Ez itt egy spatel. Elneveztem a kutyámat...","1","spatelnek","[""spatelnak"",""spatelnek""]","spatelnak","esp trial","5","false"
"html-button-response","106","613048","0.0-11.0-1.47","null","<p>A másik játékos ezt választotta: <b>spatelnak</b>.</p><p>&#10060;</p><p>A válaszaitok <b>nem</b> egyeznek meg.</p>","null","","","","feedback trial","",""
"html-button-response-esp","107","617176","0.0-11.0-0.48","3625","Ez itt egy dajrens. Nincs is jobb egy jó...","1","dajrensnél","[""dajrensnál"",""dajrensnél""]","dajrensnál","esp trial","5","false"
"html-button-response","108","620680","0.0-11.0-1.48","null","<p>A másik játékos ezt választotta: <b>dajrensnál</b>.</p><p>&#10060;</p><p>A válaszaitok <b>nem</b> egyeznek meg.</p>","null","","","","feedback trial","",""
"html-button-response-esp","109","624760","0.0-11.0-0.49","3576","Ez itt egy vurnel. Elneveztem a kutyámat...","1","vurnelnek","[""vurnelnak"",""vurnelnek""]","vurnelnak","esp trial","5","false"
"html-button-response","110","628264","0.0-11.0-1.49","null","<p>A másik játékos ezt választotta: <b>vurnelnak</b>.</p><p>&#10060;</p><p>A válaszaitok <b>nem</b> egyeznek meg.</p>","null","","","","feedback trial","",""
"html-button-response-esp","111","632138","0.0-11.0-0.50","3370","Ez itt egy klítegy. Nincs is jobb egy jó...","1","klítegynál","[""klítegynél"",""klítegynál""]","klítegynál","esp trial","5","true"
"html-button-response","112","635642","0.0-11.0-1.50","null","<p>A másik játékos ezt választotta: <b>klítegynál</b>.</p><p>&#x2705;</p><p>A te válaszod és a másik játékos válasza <b>megegyeznek</b>.</p>","null","","","","feedback trial","",""
"html-button-response-esp","113","639464","0.0-11.0-0.51","3317","Ez itt egy lijez. Elneveztem a kutyámat...","1","lijeznek","[""lijeznak"",""lijeznek""]","lijeznek","esp trial","5","true"
"html-button-response","114","642967","0.0-11.0-1.51","null","<p>A másik játékos ezt választotta: <b>lijeznek</b>.</p><p>&#x2705;</p><p>A te válaszod és a másik játékos válasza <b>megegyeznek</b>.</p>","null","","","","feedback trial","",""
"html-button-response-esp","115","648783","0.0-11.0-0.52","5312","Ez itt egy pazév. Nincs is jobb egy jó...","1","pazévnál","[""pazévnél"",""pazévnál""]","pazévnál","esp trial","5","true"
"html-button-response","116","652286","0.0-11.0-1.52","null","<p>A másik játékos ezt választotta: <b>pazévnál</b>.</p><p>&#x2705;</p><p>A te válaszod és a másik játékos válasza <b>megegyeznek</b>.</p>","null","","","","feedback trial","",""
"html-button-response-esp","117","659070","0.0-11.0-0.53","6279","Ez itt egy nuhét. Nincs is jobb egy jó...","0","nuhétnál","[""nuhétnál"",""nuhétnél""]","nuhétnál","esp trial","5","true"
"html-button-response","118","662574","0.0-11.0-1.53","null","<p>A másik játékos ezt választotta: <b>nuhétnál</b>.</p><p>&#x2705;</p><p>A te válaszod és a másik játékos válasza <b>megegyeznek</b>.</p>","null","","","","feedback trial","",""
"html-button-response","119","678557","0.0-12.0","15478","<p>A közös játék most véget ért.</p><p>Mielőtt eláruljuk a végső pontszámodat, arra kérlek, játszd a szóválasztós játékot néhány percig egyedül is.</p><p>A feladatod ugyanaz lesz, választani két lehetőség közül.</p><p>Most viszont egyedül kell döntened, hogy te melyiket választanád.</p>","0","","","","","",""
"html-button-response-clever","120","683858","0.0-13.0-0.0","4793","Ez itt egy brukész. Nincs is jobb egy jó...","1","brukésznál","[""brukésznél"",""brukésznál""]","","posttest trial","8",""
"html-button-response-clever","121","688894","0.0-13.0-0.1","4531","Ez itt egy hivép. Ott vagyunk a...","1","hivépben","[""hivépban"",""hivépben""]","","posttest trial","8",""
"html-button-response-clever","122","696228","0.0-13.0-0.2","6829","Ez itt egy dingec. Elneveztem a kutyámat...","0","dingecnek","[""dingecnek"",""dingecnak""]","","posttest trial","8",""
"html-button-response-clever","123","701719","0.0-13.0-0.3","4987","Ez itt egy jalrény. Nincs is jobb egy jó...","1","jalrénynál","[""jalrénynél"",""jalrénynál""]","","posttest trial","8",""
"html-button-response-clever","124","706448","0.0-13.0-0.4","4225","Ez itt egy jábéz. Ott vagyunk a...","0","jábézben","[""jábézben"",""jábézban""]","","posttest trial","8",""
"html-button-response-clever","125","712104","0.0-13.0-0.5","5151","Ez itt egy navec. Ott vagyunk a...","1","navecban","[""navecben"",""navecban""]","","posttest trial","8",""
"html-button-response-clever","126","718705","0.0-13.0-0.6","6096","Ez itt egy giheszt. Elneveztem a kutyámat...","1","gihesztnak","[""gihesztnek"",""gihesztnak""]","","posttest trial","8",""
"html-button-response-clever","127","724908","0.0-13.0-0.7","5698","Ez itt egy klordény. Elneveztem a kutyámat...","1","klordénynak","[""klordénynek"",""klordénynak""]","","posttest trial","8",""
"html-button-response-clever","128","730669","0.0-13.0-0.8","5256","Ez itt egy sartely. Ott vagyunk a...","0","sartelyban","[""sartelyban"",""sartelyben""]","","posttest trial","8",""
"html-button-response-clever","129","737228","0.0-13.0-0.9","6055","Ez itt egy priszkenc. Elneveztem a kutyámat...","0","priszkencnak","[""priszkencnak"",""priszkencnek""]","","posttest trial","8",""
"html-button-response-clever","130","743780","0.0-13.0-0.10","6048","Ez itt egy vodép. Elneveztem a kutyámat...","0","vodépnak","[""vodépnak"",""vodépnek""]","","posttest trial","8",""
"html-button-response-clever","131","750729","0.0-13.0-0.11","6446","Ez itt egy zsopéd. Ott vagyunk a...","0","zsopédban","[""zsopédban"",""zsopédben""]","","posttest trial","8",""
"html-button-response-clever","132","758008","0.0-13.0-0.12","6774","Ez itt egy kluhéj. Nincs is jobb egy jó...","1","kluhéjnél","[""kluhéjnál"",""kluhéjnél""]","","posttest trial","8",""
"html-button-response-clever","133","765602","0.0-13.0-0.13","7090","Ez itt egy fincek. Nincs is jobb egy jó...","1","finceknél","[""finceknál"",""finceknél""]","","posttest trial","8",""
"html-button-response-clever","134","772117","0.0-13.0-0.14","6012","Ez itt egy nyarcéj. Elneveztem a kutyámat...","0","nyarcéjnak","[""nyarcéjnak"",""nyarcéjnek""]","","posttest trial","8",""
"html-button-response-clever","135","781227","0.0-13.0-0.15","8606","Ez itt egy kliszer. Nincs is jobb egy jó...","1","kliszernél","[""kliszernál"",""kliszernél""]","","posttest trial","8",""
"html-button-response-clever","136","787006","0.0-13.0-0.16","5272","Ez itt egy csinték. Ott vagyunk a...","1","csintékben","[""csintékban"",""csintékben""]","","posttest trial","8",""
"html-button-response-clever","137","792757","0.0-13.0-0.17","5247","Ez itt egy fádens. Elneveztem a kutyámat...","1","fádensnak","[""fádensnek"",""fádensnak""]","","posttest trial","8",""
"html-button-response-clever","138","798315","0.0-13.0-0.18","5055","Ez itt egy hóbens. Ott vagyunk a...","1","hóbensban","[""hóbensben"",""hóbensban""]","","posttest trial","8",""
"html-button-response-clever","139","803697","0.0-13.0-0.19","4877","Ez itt egy kadér. Nincs is jobb egy jó...","0","kadérnél","[""kadérnél"",""kadérnál""]","","posttest trial","8",""
"html-button-response-clever","140","810453","0.0-13.0-0.20","6252","Ez itt egy forzéd. Elneveztem a kutyámat...","0","forzédnak","[""forzédnak"",""forzédnek""]","","posttest trial","8",""
"html-button-response-clever","141","816620","0.0-13.0-0.21","5663","Ez itt egy júder. Elneveztem a kutyámat...","1","júdernak","[""júdernek"",""júdernak""]","","posttest trial","8",""
"html-button-response-clever","142","822872","0.0-13.0-0.22","5748","Ez itt egy nyábét. Ott vagyunk a...","0","nyábétban","[""nyábétban"",""nyábétben""]","","posttest trial","8",""
"html-button-response-clever","143","827990","0.0-13.0-0.23","4614","Ez itt egy prately. Elneveztem a kutyámat...","1","pratelynek","[""pratelynak"",""pratelynek""]","","posttest trial","8",""
"html-button-response-clever","144","836141","0.0-13.0-0.24","7647","Ez itt egy tránély. Elneveztem a kutyámat...","1","tránélynak","[""tránélynek"",""tránélynak""]","","posttest trial","8",""
"html-button-response-clever","145","844809","0.0-13.0-0.25","8164","Ez itt egy csimen. Nincs is jobb egy jó...","1","csimennél","[""csimennál"",""csimennél""]","","posttest trial","8",""
"html-button-response-clever","146","851002","0.0-13.0-0.26","5689","Ez itt egy brotes. Ott vagyunk a...","1","brotesben","[""brotesban"",""brotesben""]","","posttest trial","8",""
"html-button-response-clever","147","856622","0.0-13.0-0.27","5116","Ez itt egy vublet. Nincs is jobb egy jó...","0","vubletnél","[""vubletnél"",""vubletnál""]","","posttest trial","8",""
"html-button-response-clever","148","860906","0.0-13.0-0.28","3780","Ez itt egy brágéd. Elneveztem a kutyámat...","0","brágédnak","[""brágédnak"",""brágédnek""]","","posttest trial","8",""
"html-button-response-clever","149","867204","0.0-13.0-0.29","5794","Ez itt egy matéz. Ott vagyunk a...","0","matézban","[""matézban"",""matézben""]","","posttest trial","8",""
"html-button-response-clever","150","872408","0.0-13.0-0.30","4700","Ez itt egy spáten. Elneveztem a kutyámat...","1","spátennak","[""spátennek"",""spátennak""]","","posttest trial","8",""
"html-button-response-clever","151","877026","0.0-13.0-0.31","4113","Ez itt egy bidem. Ott vagyunk a...","0","bidemben","[""bidemben"",""bidemban""]","","posttest trial","8",""
"html-button-response-clever","152","887294","0.0-13.0-0.32","9764","Ez itt egy kábesz. Nincs is jobb egy jó...","0","kábesznál","[""kábesznál"",""kábesznél""]","","posttest trial","8",""
"html-button-response-clever","153","893362","0.0-13.0-0.33","5564","Ez itt egy csartény. Elneveztem a kutyámat...","1","csarténynak","[""csarténynek"",""csarténynak""]","","posttest trial","8",""
"html-button-response-clever","154","900338","0.0-13.0-0.34","6472","Ez itt egy nidét. Ott vagyunk a...","0","nidétben","[""nidétben"",""nidétban""]","","posttest trial","8",""
"html-button-response-clever","155","904990","0.0-13.0-0.35","4149","Ez itt egy gótem. Elneveztem a kutyámat...","0","gótemnek","[""gótemnek"",""gótemnak""]","","posttest trial","8",""
"html-button-response-clever","156","908841","0.0-13.0-0.36","3347","Ez itt egy trincseg. Ott vagyunk a...","1","trincsegben","[""trincsegban"",""trincsegben""]","","posttest trial","8",""
"html-button-response-clever","157","912958","0.0-13.0-0.37","3613","Ez itt egy licegy. Ott vagyunk a...","1","licegyben","[""licegyban"",""licegyben""]","","posttest trial","8",""
"html-button-response-clever","158","917510","0.0-13.0-0.38","4047","Ez itt egy ronvet. Elneveztem a kutyámat...","0","ronvetnak","[""ronvetnak"",""ronvetnek""]","","posttest trial","8",""
"html-button-response-clever","159","929135","0.0-13.0-0.39","11120","Ez itt egy sporzem. Elneveztem a kutyámat...","1","sporzemnak","[""sporzemnek"",""sporzemnak""]","","posttest trial","8",""
"html-button-response-clever","160","935647","0.0-13.0-0.40","6008","Ez itt egy trapszegy. Nincs is jobb egy jó...","0","trapszegynél","[""trapszegynél"",""trapszegynál""]","","posttest trial","8",""
"html-button-response-clever","161","942916","0.0-13.0-0.41","6764","Ez itt egy ikszert. Ott vagyunk a...","0","ikszertben","[""ikszertben"",""ikszertban""]","","posttest trial","8",""
"html-button-response-clever","162","948150","0.0-13.0-0.42","4731","Ez itt egy szihét. Elneveztem a kutyámat...","1","szihétnek","[""szihétnak"",""szihétnek""]","","posttest trial","8",""
"html-button-response-clever","163","953030","0.0-13.0-0.43","4376","Ez itt egy buhény. Ott vagyunk a...","1","buhényben","[""buhényban"",""buhényben""]","","posttest trial","8",""
"html-button-response-clever","164","959794","0.0-13.0-0.44","6261","Ez itt egy lismév. Ott vagyunk a...","1","lismévban","[""lismévben"",""lismévban""]","","posttest trial","8",""
"html-button-response-clever","165","964629","0.0-13.0-0.45","4331","Ez itt egy sprízem. Nincs is jobb egy jó...","0","sprízemnál","[""sprízemnál"",""sprízemnél""]","","posttest trial","8",""
"html-button-response-clever","166","970871","0.0-13.0-0.46","5738","Ez itt egy jorzég. Elneveztem a kutyámat...","0","jorzégnek","[""jorzégnek"",""jorzégnak""]","","posttest trial","8",""
"html-button-response-clever","167","980688","0.0-13.0-0.47","9314","Ez itt egy brigeszt. Elneveztem a kutyámat...","0","brigesztnek","[""brigesztnek"",""brigesztnak""]","","posttest trial","8",""
"html-button-response-clever","168","985516","0.0-13.0-0.48","4323","Ez itt egy bródesz. Elneveztem a kutyámat...","1","bródesznak","[""bródesznek"",""bródesznak""]","","posttest trial","8",""
"html-button-response-clever","169","992435","0.0-13.0-0.49","6414","Ez itt egy gicéj. Nincs is jobb egy jó...","1","gicéjnél","[""gicéjnál"",""gicéjnél""]","","posttest trial","8",""
"html-button-response-clever","170","1000226","0.0-13.0-0.50","7288","Ez itt egy tranék. Ott vagyunk a...","0","tranékban","[""tranékban"",""tranékben""]","","posttest trial","8",""
"html-button-response-clever","171","1004913","0.0-13.0-0.51","4183","Ez itt egy szutend. Ott vagyunk a...","0","szutendban","[""szutendban"",""szutendben""]","","posttest trial","8",""
"html-button-response-clever","172","1013480","0.0-13.0-0.52","8061","Ez itt egy trigenc. Elneveztem a kutyámat...","0","trigencnek","[""trigencnek"",""trigencnak""]","","posttest trial","8",""
"html-button-response-clever","173","1021048","0.0-13.0-0.53","7064","Ez itt egy gonszék. Nincs is jobb egy jó...","0","gonszéknél","[""gonszéknél"",""gonszéknál""]","","posttest trial","8",""
"html-button-response","174","1029710","0.0-14.0","8154","<p> Vége a játéknak. A teljes pontszámod 31/54.</p><p> Szép munka! &#128526;&#128526;&#128526;</p><p>A Befejezés gomb megnyomása után bezárhatod a böngészőablakot.</p>","0","","","","","",""
"html-keyboard-response","175","1035215","0.0-15.0","null","<div class=""message"">
         <p>Egy kis türelmet kérünk, amíg elmentjük az adatokat...</p>
         </div>","null","","","","","",""
