"trial_type","trial_index","time_elapsed","internal_node_id","rt","stimulus","response","response_string","choices","esp_response","trial_kind","list_number","esp_match"
"pavlovia","0","557","0.0-0.0","","","","","","","","",""
"html-button-response","1","3861","0.0-1.0","2798","<p>Kedves Résztvevő! A Budapesti Műszaki és Gazdaságtudományi Egyetem Kognitív Tudományi Tanszékének kutatásában való részvételed kérjük. A kutatásban azt vizsgáljuk, hogy a magyar anyanyelvűek hogyan használnak bizonyos szóalakokat, és hogy milyen képük van arról, hogy mások hogyan használják, hogyan képzik a szavakat. Ez hozzásegít bennünket ahhoz, hogy jobban megértsük, hogyan dolgozza fel és tárolja a nyelvet az emberi agy, és hogyan működnek, hogyan változnak egy adott közösség nyelvi konvenciói.</p><p>A vizsgálat egy rövid számítógépes feladatból fog állni. A kutatásban való részvétel önkéntes, a részvételi szándék bármikor visszavonható. A résztvevők eredményeit név nélkül kezeljük, így nem beazonosíthatók az adatok feldolgozása során. Minden személyes adatot az EU általános adatvédelmi rendeletének (GDPR) megfelelően kezelünk és legfeljebb öt éven belül megsemmisítünk. A vizsgálat jellemzően húsz percet vesz igénybe.</p><p>Kutatásvezető:</p><p>Dr. Rácz Péter, tudományos munkatárs, BME KTT</p><p>e-mail: racz.peter.marton@ttk.bme.hu</p>","0","","","","","",""
"html-button-response","2","5381","0.0-2.0","1014","<p>A kísérletben szavakat fogsz látni. Ezek között lesznek olyanok, amelyeket ismersz, de előfordulhatnak olyanok is, amelyeket nem ismersz, sőt, vannak köztük kitalált szavak is. Minden szónál látni fogsz toldalékolt alakokat. A te feladatod az lesz, hogy minden szóhoz kiválaszd azt a toldalékolt alakot, amely a te számodra ismerősebben, természetesebben hangzik. Rossz válaszok nincsenek, mert van olyan, hogy különböző embereknek más és más szó tűnik jobb választásnak. A választ úgy tudod majd kiválasztani, ha rákattintasz.</p><p>Ebben a szóválasztós játékban egy másik játékossal együtt veszel majd részt. A másik játékos is minden esetben azok közül a lehetőségek közül válogathat, mint te. Kettőtök feladata az, hogy ugyanazt a lehetőséget válasszátok minden esetben. Ahhoz, hogy ez sikerüljön, neked figyelned kell arra, hogy a másik játékos milyen válaszokat ad, és ennek alapján meg kell tippelned, hogyan választ legközelebb. Ha eltalálod, akkor pontot kapsz.</p>","0","","","","","",""
"html-button-response","3","7060","0.0-3.0","1170","<p>Kérjük, olvasd el az alábbi nyilatkozatot, és amennyiben egyetértesz vele, nyomj a Beleegyezés gombra!</p><p>Kijelentem, hogy magyar anyanyelvű személyként önként veszek részt a BME KTT kísérletében. A kutatás céljával és folyamatával kapcsolatban elegendő tájékoztatást kaptam, lehetőségem volt kérdések feltételére, és esetleges kérdéseimre megfelelő válaszokat kaptam. A tájékoztatás alapján elegendő mennyiségű információ áll a rendelkezésemre, hogy eldönthessem, részt kívánok-e venni a kutatásban.</p><p>Tisztában vagyok vele, hogy részvételi szándékomat és adataimat bármikor, indoklás nélkül visszavonhatom.</p><p>Értem és tudomásul veszem, hogy a kutatás tudományos célokat szolgál, és az általam szolgáltatott adatokat a BME kizárólag kutatási célból használja fel. Tudomásul veszem, hogy eredményeimet a többi résztvevő eredményeivel együtt kezelik, így egyéni teljesítményemről visszajelzést, szakvéleményt nem kapok.</p><p>Megértettem, hogy adataim kezelését illetően a BME az EU általános adatvédelmi rendelete (GDPR), a hatályos adatvédelmi törvény és a nemzetközi kutatás-etikai alapelvek szerint jár el. Eredményeim anonim módon kerülnek feldolgozásra, és a kutatás résztvevői az azonosításomra alkalmas adataimat harmadik félnek nem szolgáltatják ki. Engedélyezem a BME számára a jelen kutatásban felvett adataim feldolgozását és tárolását, beleértve azok későbbi kutatásokhoz való felhasználását is. Személyes adataim kezelésével kapcsolatban tájékoztatást kérhetek a kutatás résztvevőitől, az adatkezelés ellen tiltakozhatok, kérhetem személyes adataim helyesbítését, törlését vagy zárolását, valamint jogorvoslatért a Nemzeti Adatvédelmi és Információszabadság Hatósághoz fordulhatok.</p><p>Kijelentem, hogy a kutatásban való részvételem körülményeiről részletes tájékoztatást kaptam, és a feltételeket elfogadom.</p>","0","","","","","",""
"survey-text","4","22445","0.0-4.0","14869","","{""Q0"":""F8SM1M"",""Q1"":""férfi"",""Q2"":""1999"",""Q3"":""16""}","","","","","",""
"html-button-response","5","79644","0.0-5.0","56692","<p>Ebben a játékban szavakat kell toldalékolni.</p> <p>Minden körben mutatunk majd egy példamondatot, amiben lesz egy szó.</p> <p>Alatta jön egy második mondat, ezt a mondatot neked kell majd befejezni, ugyanezzel a szóval.</p> <p>Nem biztos, hogy a szó eleve ismerős lesz számodra!</p> <p>Minden mondathoz adunk két lehetőséget, ezeket balra és jobbra látod majd.</p> <p>A játék kb. negyedóráig-húsz percig tart.</p>","0","","","","","",""
"html-button-response","6","95068","0.0-6.0","14920","<p>Nézzünk egy példát!</p> <p>A példamondat: ""János imád fláramolni, ezért sokat fláramlik. Mi ritkán...""</p><p>Neked ezt a mondatot kell befejezned: ""Ti ritkán...""</p><p>A lehetőségek pedig ezek:</p>","0","","","","","",""
"html-button-response","7","102308","0.0-7.0","6735","<p>Nagyon jó.</p><p>Ezt a játékot nem egyedül fogod játszani, hanem egy másik játékossal.</p><p>Mielőtt továbblépünk, összekapcsolunk titeket egymással.</p><p>Ez igénybe vehet néhány másodpercet, amihez szíves türelmed kérjük.</p>","0","","","","","",""
"html-button-response","8","108038","0.0-8.0","null","<p>Csatlakozás a másik játékoshoz...</p>","null","","","","","",""
"html-button-response","9","110559","0.0-9.0","null","<p> Sikeres kapcsolódás!</p>","null","","","","","",""
"html-button-response","10","121072","0.0-10.0","null","<p>A következőkben ketten játsszátok a szóválasztós játékot.</p><p>A feladatotok az lesz, hogy minden körben <b>ugyanazt</b> a szót válasszátok.</p><p>Minden ilyen egyező válaszért pontot kaptok.</p><p>Próbáld meg kitalálni, mit választ a másik játékos!</p><p>Bármikor választhatsz, a körnek akkor van vége, ha mindketten döntöttetek.</p><p>Sok sikert!</p>","null","","","","","",""
"html-button-response-esp","11","132021","0.0-11.0-0.0","10430","János imád virozni, ezért sokat virzik. Ők ritkán...","1","virzanak","[""viroznak"",""virzanak""]","virzanak","esp trial","4","true"
"html-button-response","12","135555","0.0-11.0-1.0","null","<p>A másik játékos ezt választotta: <b>virzanak</b>.</p><p>&#x2705;</p><p>A te válaszod és a másik játékos válasza <b>megegyeznek</b>.</p>","null","","","","feedback trial","",""
"html-button-response-esp","13","142731","0.0-11.0-0.1","6668","János imád prögözni, ezért sokat prögzik. Ti ritkán...","1","prögöztök","[""prögzötök"",""prögöztök""]","prögzötök","esp trial","4","false"
"html-button-response","14","146273","0.0-11.0-1.1","null","<p>A másik játékos ezt választotta: <b>prögzötök</b>.</p><p>&#10060;</p><p>A válaszaitok <b>nem</b> egyeznek meg.</p>","null","","","","feedback trial","",""
"html-button-response-esp","15","152172","0.0-11.0-0.2","5391","János imád trugozni, ezért sokat trugzik. Ők ritkán...","0","trugzanak","[""trugzanak"",""trugoznak""]","trugzanak","esp trial","4","true"
"html-button-response","16","155694","0.0-11.0-1.2","null","<p>A másik játékos ezt választotta: <b>trugzanak</b>.</p><p>&#x2705;</p><p>A te válaszod és a másik játékos válasza <b>megegyeznek</b>.</p>","null","","","","feedback trial","",""
"html-button-response-esp","17","162299","0.0-11.0-0.3","6088","János imád trugokozni, ezért sokat trugoklik. Ők ritkán...","0","trugokoznak","[""trugokoznak"",""trugoklanak""]","trugoklanak","esp trial","4","false"
"html-button-response","18","165825","0.0-11.0-1.3","null","<p>A másik játékos ezt választotta: <b>trugoklanak</b>.</p><p>&#10060;</p><p>A válaszaitok <b>nem</b> egyeznek meg.</p>","null","","","","feedback trial","",""
"html-button-response-esp","19","173356","0.0-11.0-0.4","7017","János imád klehényezni, ezért sokat klehénylik. Ti ritkán...","0","klehényletek","[""klehényletek"",""klehényeztek""]","klehényletek","esp trial","4","true"
"html-button-response","20","176877","0.0-11.0-1.4","null","<p>A másik játékos ezt választotta: <b>klehényletek</b>.</p><p>&#x2705;</p><p>A te válaszod és a másik játékos válasza <b>megegyeznek</b>.</p>","null","","","","feedback trial","",""
"html-button-response-esp","21","186188","0.0-11.0-0.5","8793","János imád köszözni, ezért sokat köszlik. Ti ritkán...","0","köszöztök","[""köszöztök"",""köszlötök""]","köszlötök","esp trial","4","false"
"html-button-response","22","189708","0.0-11.0-1.5","null","<p>A másik játékos ezt választotta: <b>köszlötök</b>.</p><p>&#10060;</p><p>A válaszaitok <b>nem</b> egyeznek meg.</p>","null","","","","feedback trial","",""
"html-button-response-esp","23","193459","0.0-11.0-0.6","663","János imád frakozni, ezért sokat fraklik. Mi ritkán...","1","frakozunk","[""fraklunk"",""frakozunk""]","fraklunk","esp trial","4","false"
"html-button-response","24","196973","0.0-11.0-1.6","null","<p>A másik játékos ezt választotta: <b>fraklunk</b>.</p><p>&#10060;</p><p>A válaszaitok <b>nem</b> egyeznek meg.</p>","null","","","","feedback trial","",""
"html-button-response-esp","25","200732","0.0-11.0-0.7","1046","János imád dujozni, ezért sokat dujzik. Ők ritkán...","0","dujzanak","[""dujzanak"",""dujoznak""]","dujzanak","esp trial","4","true"
"html-button-response","26","204253","0.0-11.0-1.7","null","<p>A másik játékos ezt választotta: <b>dujzanak</b>.</p><p>&#x2705;</p><p>A te válaszod és a másik játékos válasza <b>megegyeznek</b>.</p>","null","","","","feedback trial","",""
"html-button-response-esp","27","208005","0.0-11.0-0.8","341","János imád drilarozni, ezért sokat drilarzik. Mi ritkán...","0","drilarozunk","[""drilarozunk"",""drilarzunk""]","drilarzunk","esp trial","4","false"
"html-button-response","28","211517","0.0-11.0-1.8","null","<p>A másik játékos ezt választotta: <b>drilarzunk</b>.</p><p>&#10060;</p><p>A válaszaitok <b>nem</b> egyeznek meg.</p>","null","","","","feedback trial","",""
"html-button-response-esp","29","215269","0.0-11.0-0.9","2438","János imád flűgözni, ezért sokat flűgzik. Mi ritkán...","0","flűgzünk","[""flűgzünk"",""flűgözünk""]","flűgzünk","esp trial","4","true"
"html-button-response","30","218791","0.0-11.0-1.9","null","<p>A másik játékos ezt választotta: <b>flűgzünk</b>.</p><p>&#x2705;</p><p>A te válaszod és a másik játékos válasza <b>megegyeznek</b>.</p>","null","","","","feedback trial","",""
"html-button-response-esp","31","222535","0.0-11.0-0.10","2998","János imád nyivágozni, ezért sokat nyivágzik. Mi ritkán...","0","nyivágozunk","[""nyivágozunk"",""nyivágzunk""]","nyivágozunk","esp trial","4","true"
"html-button-response","32","226057","0.0-11.0-1.10","null","<p>A másik játékos ezt választotta: <b>nyivágozunk</b>.</p><p>&#x2705;</p><p>A te válaszod és a másik játékos válasza <b>megegyeznek</b>.</p>","null","","","","feedback trial","",""
"html-button-response-esp","33","229828","0.0-11.0-0.11","437","János imád prélemezni, ezért sokat prélemlik. Ők ritkán...","1","prélemlenek","[""prélemeznek"",""prélemlenek""]","prélemlenek","esp trial","4","true"
"html-button-response","34","233364","0.0-11.0-1.11","null","<p>A másik játékos ezt választotta: <b>prélemlenek</b>.</p><p>&#x2705;</p><p>A te válaszod és a másik játékos válasza <b>megegyeznek</b>.</p>","null","","","","feedback trial","",""
"html-button-response-esp","35","237125","0.0-11.0-0.12","334","János imád pilégedni, ezért sokat pilégszik. Ők ritkán...","1","pilégszenek","[""pilégednek"",""pilégszenek""]","pilégednek","esp trial","4","false"
"html-button-response","36","240640","0.0-11.0-1.12","null","<p>A másik játékos ezt választotta: <b>pilégednek</b>.</p><p>&#10060;</p><p>A válaszaitok <b>nem</b> egyeznek meg.</p>","null","","","","feedback trial","",""
"html-button-response-esp","37","244405","0.0-11.0-0.13","854","János imád drűrözni, ezért sokat drűrzik. Ők ritkán...","0","drűrzenek","[""drűrzenek"",""drűröznek""]","drűrzenek","esp trial","4","true"
"html-button-response","38","247925","0.0-11.0-1.13","null","<p>A másik játékos ezt választotta: <b>drűrzenek</b>.</p><p>&#x2705;</p><p>A te válaszod és a másik játékos válasza <b>megegyeznek</b>.</p>","null","","","","feedback trial","",""
"html-button-response-esp","39","251687","0.0-11.0-0.14","1021","János imád flöközni, ezért sokat flöklik. Ti ritkán...","1","flököztök","[""flöklötök"",""flököztök""]","flöklötök","esp trial","4","false"
"html-button-response","40","255208","0.0-11.0-1.14","null","<p>A másik játékos ezt választotta: <b>flöklötök</b>.</p><p>&#10060;</p><p>A válaszaitok <b>nem</b> egyeznek meg.</p>","null","","","","feedback trial","",""
"html-button-response-esp","41","258972","0.0-11.0-0.15","1594","János imád sprozozni, ezért sokat sprozlik. Ők ritkán...","0","sprozoznak","[""sprozoznak"",""sprozlanak""]","sprozlanak","esp trial","4","false"
"html-button-response","42","262486","0.0-11.0-1.15","null","<p>A másik játékos ezt választotta: <b>sprozlanak</b>.</p><p>&#10060;</p><p>A válaszaitok <b>nem</b> egyeznek meg.</p>","null","","","","feedback trial","",""
"html-button-response-esp","43","266260","0.0-11.0-0.16","1161","János imád kűdözni, ezért sokat kűdlik. Ők ritkán...","0","kűdöznek","[""kűdöznek"",""kűdlenek""]","kűdöznek","esp trial","4","true"
"html-button-response","44","269776","0.0-11.0-1.16","null","<p>A másik játékos ezt választotta: <b>kűdöznek</b>.</p><p>&#x2705;</p><p>A te válaszod és a másik játékos válasza <b>megegyeznek</b>.</p>","null","","","","feedback trial","",""
"html-button-response-esp","45","273543","0.0-11.0-0.17","354","János imád lájozni, ezért sokat lájzik. Ti ritkán...","0","lájzotok","[""lájzotok"",""lájoztok""]","lájoztok","esp trial","4","false"
"html-button-response","46","277067","0.0-11.0-1.17","null","<p>A másik játékos ezt választotta: <b>lájoztok</b>.</p><p>&#10060;</p><p>A válaszaitok <b>nem</b> egyeznek meg.</p>","null","","","","feedback trial","",""
"html-button-response-esp","47","280840","0.0-11.0-0.18","325","János imád brülösözni, ezért sokat brülöslik. Mi ritkán...","1","brülösözünk","[""brülöslünk"",""brülösözünk""]","brülöslünk","esp trial","4","false"
"html-button-response","48","284373","0.0-11.0-1.18","null","<p>A másik játékos ezt választotta: <b>brülöslünk</b>.</p><p>&#10060;</p><p>A válaszaitok <b>nem</b> egyeznek meg.</p>","null","","","","feedback trial","",""
"html-button-response-esp","49","288137","0.0-11.0-0.19","278","János imád brözözni, ezért sokat brözlik. Ti ritkán...","1","brözlötök","[""brözöztök"",""brözlötök""]","brözlötök","esp trial","4","true"
"html-button-response","50","291675","0.0-11.0-1.19","null","<p>A másik játékos ezt választotta: <b>brözlötök</b>.</p><p>&#x2705;</p><p>A te válaszod és a másik játékos válasza <b>megegyeznek</b>.</p>","null","","","","feedback trial","",""
"html-button-response-esp","51","295428","0.0-11.0-0.20","552","János imád mágamozni, ezért sokat mágamlik. Mi ritkán...","1","mágamlunk","[""mágamozunk"",""mágamlunk""]","mágamozunk","esp trial","4","false"
"html-button-response","52","298955","0.0-11.0-1.20","null","<p>A másik játékos ezt választotta: <b>mágamozunk</b>.</p><p>&#10060;</p><p>A válaszaitok <b>nem</b> egyeznek meg.</p>","null","","","","feedback trial","",""
"html-button-response-esp","53","302720","0.0-11.0-0.21","1710","János imád frálapodni, ezért sokat frálapszik. Ti ritkán...","1","frálapszotok","[""frálapodtok"",""frálapszotok""]","frálapodtok","esp trial","4","false"
"html-button-response","54","306248","0.0-11.0-1.21","null","<p>A másik játékos ezt választotta: <b>frálapodtok</b>.</p><p>&#10060;</p><p>A válaszaitok <b>nem</b> egyeznek meg.</p>","null","","","","feedback trial","",""
"html-button-response-esp","55","310022","0.0-11.0-0.22","647","János imád püzözni, ezért sokat püzlik. Ti ritkán...","1","püzlötök","[""püzöztök"",""püzlötök""]","püzlötök","esp trial","4","true"
"html-button-response","56","313547","0.0-11.0-1.22","null","<p>A másik játékos ezt választotta: <b>püzlötök</b>.</p><p>&#x2705;</p><p>A te válaszod és a másik játékos válasza <b>megegyeznek</b>.</p>","null","","","","feedback trial","",""
"html-button-response-esp","57","317312","0.0-11.0-0.23","2270","János imád branyozni, ezért sokat branylik. Ők ritkán...","0","branyoznak","[""branyoznak"",""branylanak""]","branylanak","esp trial","4","false"
"html-button-response","58","320829","0.0-11.0-1.23","null","<p>A másik játékos ezt választotta: <b>branylanak</b>.</p><p>&#10060;</p><p>A válaszaitok <b>nem</b> egyeznek meg.</p>","null","","","","feedback trial","",""
"html-button-response-esp","59","324599","0.0-11.0-0.24","1828","János imád spibegezni, ezért sokat spibeglik. Mi ritkán...","0","spibegezünk","[""spibegezünk"",""spibeglünk""]","spibegezünk","esp trial","4","true"
"html-button-response","60","328119","0.0-11.0-1.24","null","<p>A másik játékos ezt választotta: <b>spibegezünk</b>.</p><p>&#x2705;</p><p>A te válaszod és a másik játékos válasza <b>megegyeznek</b>.</p>","null","","","","feedback trial","",""
"html-button-response-esp","61","331891","0.0-11.0-0.25","2223","János imád pragányozni, ezért sokat pragánylik. Ti ritkán...","0","pragányoztok","[""pragányoztok"",""pragánylotok""]","pragánylotok","esp trial","4","false"
"html-button-response","62","335422","0.0-11.0-1.25","null","<p>A másik játékos ezt választotta: <b>pragánylotok</b>.</p><p>&#10060;</p><p>A válaszaitok <b>nem</b> egyeznek meg.</p>","null","","","","feedback trial","",""
"html-button-response-esp","63","339176","0.0-11.0-0.26","498","János imád dabozni, ezért sokat dabzik. Ti ritkán...","1","dabzotok","[""daboztok"",""dabzotok""]","dabzotok","esp trial","4","true"
"html-button-response","64","342702","0.0-11.0-1.26","null","<p>A másik játékos ezt választotta: <b>dabzotok</b>.</p><p>&#x2705;</p><p>A te válaszod és a másik játékos válasza <b>megegyeznek</b>.</p>","null","","","","feedback trial","",""
"html-button-response-esp","65","346467","0.0-11.0-0.27","714","János imád nyürözni, ezért sokat nyürzik. Ők ritkán...","1","nyürzenek","[""nyüröznek"",""nyürzenek""]","nyürzenek","esp trial","4","true"
"html-button-response","66","350004","0.0-11.0-1.27","null","<p>A másik játékos ezt választotta: <b>nyürzenek</b>.</p><p>&#x2705;</p><p>A te válaszod és a másik játékos válasza <b>megegyeznek</b>.</p>","null","","","","feedback trial","",""
"html-button-response-esp","67","353777","0.0-11.0-0.28","517","János imád posozni, ezért sokat poslik. Ti ritkán...","0","poslotok","[""poslotok"",""posoztok""]","posoztok","esp trial","4","false"
"html-button-response","68","357305","0.0-11.0-1.28","null","<p>A másik játékos ezt választotta: <b>posoztok</b>.</p><p>&#10060;</p><p>A válaszaitok <b>nem</b> egyeznek meg.</p>","null","","","","feedback trial","",""
"html-button-response-esp","69","361069","0.0-11.0-0.29","472","János imád spügözni, ezért sokat spügzik. Mi ritkán...","0","spügzünk","[""spügzünk"",""spügözünk""]","spügözünk","esp trial","4","false"
"html-button-response","70","364581","0.0-11.0-1.29","null","<p>A másik játékos ezt választotta: <b>spügözünk</b>.</p><p>&#10060;</p><p>A válaszaitok <b>nem</b> egyeznek meg.</p>","null","","","","feedback trial","",""
"html-button-response-esp","71","368337","0.0-11.0-0.30","620","János imád spiharozni, ezért sokat spiharzik. Ti ritkán...","1","spiharzotok","[""spiharoztok"",""spiharzotok""]","spiharzotok","esp trial","4","true"
"html-button-response","72","371862","0.0-11.0-1.30","null","<p>A másik játékos ezt választotta: <b>spiharzotok</b>.</p><p>&#x2705;</p><p>A te válaszod és a másik játékos válasza <b>megegyeznek</b>.</p>","null","","","","feedback trial","",""
"html-button-response-esp","73","375624","0.0-11.0-0.31","1807","János imád lűközni, ezért sokat lűklik. Ők ritkán...","0","lűklenek","[""lűklenek"",""lűköznek""]","lűklenek","esp trial","4","true"
"html-button-response","74","379139","0.0-11.0-1.31","null","<p>A másik játékos ezt választotta: <b>lűklenek</b>.</p><p>&#x2705;</p><p>A te válaszod és a másik játékos válasza <b>megegyeznek</b>.</p>","null","","","","feedback trial","",""
"html-button-response-esp","75","382897","0.0-11.0-0.32","1199","János imád privékedni, ezért sokat privékszik. Ők ritkán...","0","privékednek","[""privékednek"",""privékszenek""]","privékszenek","esp trial","4","false"
"html-button-response","76","386423","0.0-11.0-1.32","null","<p>A másik játékos ezt választotta: <b>privékszenek</b>.</p><p>&#10060;</p><p>A válaszaitok <b>nem</b> egyeznek meg.</p>","null","","","","feedback trial","",""
"html-button-response-esp","77","390186","0.0-11.0-0.33","694","János imád trivakodni, ezért sokat trivakszik. Mi ritkán...","1","trivakodunk","[""trivakszunk"",""trivakodunk""]","trivakszunk","esp trial","4","false"
"html-button-response","78","393712","0.0-11.0-1.33","null","<p>A másik játékos ezt választotta: <b>trivakszunk</b>.</p><p>&#10060;</p><p>A válaszaitok <b>nem</b> egyeznek meg.</p>","null","","","","feedback trial","",""
"html-button-response-esp","79","397476","0.0-11.0-0.34","2566","János imád trikozni, ezért sokat triklik. Ti ritkán...","0","trikoztok","[""trikoztok"",""triklotok""]","trikoztok","esp trial","4","true"
"html-button-response","80","401003","0.0-11.0-1.34","null","<p>A másik játékos ezt választotta: <b>trikoztok</b>.</p><p>&#x2705;</p><p>A te válaszod és a másik játékos válasza <b>megegyeznek</b>.</p>","null","","","","feedback trial","",""
"html-button-response-esp","81","404763","0.0-11.0-0.35","2281","János imád sprudozni, ezért sokat sprudlik. Mi ritkán...","0","sprudozunk","[""sprudozunk"",""sprudlunk""]","sprudlunk","esp trial","4","false"
"html-button-response","82","408283","0.0-11.0-1.35","null","<p>A másik játékos ezt választotta: <b>sprudlunk</b>.</p><p>&#10060;</p><p>A válaszaitok <b>nem</b> egyeznek meg.</p>","null","","","","feedback trial","",""
"html-button-response-esp","83","412059","0.0-11.0-0.36","1796","János imád dilakozni, ezért sokat dilaklik. Ti ritkán...","0","dilaklotok","[""dilaklotok"",""dilakoztok""]","dilaklotok","esp trial","4","true"
"html-button-response","84","415581","0.0-11.0-1.36","null","<p>A másik játékos ezt választotta: <b>dilaklotok</b>.</p><p>&#x2705;</p><p>A te válaszod és a másik játékos válasza <b>megegyeznek</b>.</p>","null","","","","feedback trial","",""
"html-button-response-esp","85","419330","0.0-11.0-0.37","807","János imád dirozni, ezért sokat dirlik. Ti ritkán...","0","dirlotok","[""dirlotok"",""diroztok""]","dirlotok","esp trial","4","true"
"html-button-response","86","422837","0.0-11.0-1.37","null","<p>A másik játékos ezt választotta: <b>dirlotok</b>.</p><p>&#x2705;</p><p>A te válaszod és a másik játékos válasza <b>megegyeznek</b>.</p>","null","","","","feedback trial","",""
"html-button-response-esp","87","426595","0.0-11.0-0.38","480","János imád bratározni, ezért sokat bratárzik. Ők ritkán...","0","bratároznak","[""bratároznak"",""bratárzanak""]","bratárzanak","esp trial","4","false"
"html-button-response","88","430114","0.0-11.0-1.38","null","<p>A másik játékos ezt választotta: <b>bratárzanak</b>.</p><p>&#10060;</p><p>A válaszaitok <b>nem</b> egyeznek meg.</p>","null","","","","feedback trial","",""
"html-button-response-esp","89","433883","0.0-11.0-0.39","559","János imád flemezni, ezért sokat flemlik. Mi ritkán...","1","flemezünk","[""flemlünk"",""flemezünk""]","flemlünk","esp trial","4","false"
"html-button-response","90","437412","0.0-11.0-1.39","null","<p>A másik játékos ezt választotta: <b>flemlünk</b>.</p><p>&#10060;</p><p>A válaszaitok <b>nem</b> egyeznek meg.</p>","null","","","","feedback trial","",""
"html-button-response-esp","91","441176","0.0-11.0-0.40","590","János imád gyihegezni, ezért sokat gyihegzik. Ti ritkán...","0","gyihegzetek","[""gyihegzetek"",""gyihegeztek""]","gyihegzetek","esp trial","4","true"
"html-button-response","92","444701","0.0-11.0-1.40","null","<p>A másik játékos ezt választotta: <b>gyihegzetek</b>.</p><p>&#x2705;</p><p>A te válaszod és a másik játékos válasza <b>megegyeznek</b>.</p>","null","","","","feedback trial","",""
"html-button-response-esp","93","448452","0.0-11.0-0.41","1471","János imád spirágozni, ezért sokat spiráglik. Ti ritkán...","0","spiráglotok","[""spiráglotok"",""spirágoztok""]","spiráglotok","esp trial","4","true"
"html-button-response","94","451964","0.0-11.0-1.41","null","<p>A másik játékos ezt választotta: <b>spiráglotok</b>.</p><p>&#x2705;</p><p>A te válaszod és a másik játékos válasza <b>megegyeznek</b>.</p>","null","","","","feedback trial","",""
"html-button-response-esp","95","455717","0.0-11.0-0.42","639","János imád gihejezni, ezért sokat gihejlik. Mi ritkán...","1","gihejezünk","[""gihejlünk"",""gihejezünk""]","gihejezünk","esp trial","4","true"
"html-button-response","96","459229","0.0-11.0-1.42","null","<p>A másik játékos ezt választotta: <b>gihejezünk</b>.</p><p>&#x2705;</p><p>A te válaszod és a másik játékos válasza <b>megegyeznek</b>.</p>","null","","","","feedback trial","",""
"html-button-response-esp","97","462985","0.0-11.0-0.43","1535","János imád frálasozni, ezért sokat frálaslik. Ők ritkán...","0","frálaslanak","[""frálaslanak"",""frálasoznak""]","frálasoznak","esp trial","4","false"
"html-button-response","98","466501","0.0-11.0-1.43","null","<p>A másik játékos ezt választotta: <b>frálasoznak</b>.</p><p>&#10060;</p><p>A válaszaitok <b>nem</b> egyeznek meg.</p>","null","","","","feedback trial","",""
"html-button-response-esp","99","470253","0.0-11.0-0.44","2404","János imád flüröközni, ezért sokat flüröklik. Ti ritkán...","1","flürököztök","[""flüröklötök"",""flürököztök""]","flüröklötök","esp trial","4","false"
"html-button-response","100","473773","0.0-11.0-1.44","null","<p>A másik játékos ezt választotta: <b>flüröklötök</b>.</p><p>&#10060;</p><p>A válaszaitok <b>nem</b> egyeznek meg.</p>","null","","","","feedback trial","",""
"html-button-response-esp","101","477526","0.0-11.0-0.45","559","János imád föködni, ezért sokat fökszik. Ők ritkán...","1","fökszenek","[""föködnek"",""fökszenek""]","föködnek","esp trial","4","false"
"html-button-response","102","481049","0.0-11.0-1.45","null","<p>A másik játékos ezt választotta: <b>föködnek</b>.</p><p>&#10060;</p><p>A válaszaitok <b>nem</b> egyeznek meg.</p>","null","","","","feedback trial","",""
"html-button-response-esp","103","487876","0.0-11.0-0.46","6310","János imád csibagozni, ezért sokat csibagzik. Ti ritkán...","0","csibagoztok","[""csibagoztok"",""csibagzotok""]","csibagzotok","esp trial","4","false"
"html-button-response","104","491396","0.0-11.0-1.46","null","<p>A másik játékos ezt választotta: <b>csibagzotok</b>.</p><p>&#10060;</p><p>A válaszaitok <b>nem</b> egyeznek meg.</p>","null","","","","feedback trial","",""
"html-button-response-esp","105","495156","0.0-11.0-0.47","1325","János imád molodni, ezért sokat molszik. Ti ritkán...","1","molszotok","[""molodtok"",""molszotok""]","molodtok","esp trial","4","false"
"html-button-response","106","498682","0.0-11.0-1.47","null","<p>A másik játékos ezt választotta: <b>molodtok</b>.</p><p>&#10060;</p><p>A válaszaitok <b>nem</b> egyeznek meg.</p>","null","","","","feedback trial","",""
"html-button-response-esp","107","502438","0.0-11.0-0.48","1462","János imád mülőrözni, ezért sokat mülőrzik. Mi ritkán...","0","mülőrzünk","[""mülőrzünk"",""mülőrözünk""]","mülőrzünk","esp trial","4","true"
"html-button-response","108","505957","0.0-11.0-1.48","null","<p>A másik játékos ezt választotta: <b>mülőrzünk</b>.</p><p>&#x2705;</p><p>A te válaszod és a másik játékos válasza <b>megegyeznek</b>.</p>","null","","","","feedback trial","",""
"html-button-response-esp","109","509712","0.0-11.0-0.49","317","János imád sprűrözni, ezért sokat sprűrlik. Ők ritkán...","0","sprűrlenek","[""sprűrlenek"",""sprűröznek""]","sprűrlenek","esp trial","4","true"
"html-button-response","110","513220","0.0-11.0-1.49","null","<p>A másik játékos ezt választotta: <b>sprűrlenek</b>.</p><p>&#x2705;</p><p>A te válaszod és a másik játékos válasza <b>megegyeznek</b>.</p>","null","","","","feedback trial","",""
"html-button-response-esp","111","516982","0.0-11.0-0.50","453","János imád fröjözni, ezért sokat fröjzik. Ti ritkán...","0","fröjzötök","[""fröjzötök"",""fröjöztök""]","fröjzötök","esp trial","4","true"
"html-button-response","112","520498","0.0-11.0-1.50","null","<p>A másik játékos ezt választotta: <b>fröjzötök</b>.</p><p>&#x2705;</p><p>A te válaszod és a másik játékos válasza <b>megegyeznek</b>.</p>","null","","","","feedback trial","",""
"html-button-response-esp","113","524264","0.0-11.0-0.51","709","János imád csubozni, ezért sokat csubzik. Mi ritkán...","0","csubzunk","[""csubzunk"",""csubozunk""]","csubozunk","esp trial","4","false"
"html-button-response","114","527788","0.0-11.0-1.51","null","<p>A másik játékos ezt választotta: <b>csubozunk</b>.</p><p>&#10060;</p><p>A válaszaitok <b>nem</b> egyeznek meg.</p>","null","","","","feedback trial","",""
"html-button-response-esp","115","531544","0.0-11.0-0.52","581","János imád dárakodni, ezért sokat dárakszik. Mi ritkán...","1","dárakszunk","[""dárakodunk"",""dárakszunk""]","dárakszunk","esp trial","4","true"
"html-button-response","116","535069","0.0-11.0-1.52","null","<p>A másik játékos ezt választotta: <b>dárakszunk</b>.</p><p>&#x2705;</p><p>A te válaszod és a másik játékos válasza <b>megegyeznek</b>.</p>","null","","","","feedback trial","",""
"html-button-response-esp","117","538829","0.0-11.0-0.53","1046","János imád brivakozni, ezért sokat brivaklik. Ti ritkán...","1","brivaklotok","[""brivakoztok"",""brivaklotok""]","brivaklotok","esp trial","4","true"
"html-button-response","118","542348","0.0-11.0-1.53","null","<p>A másik játékos ezt választotta: <b>brivaklotok</b>.</p><p>&#x2705;</p><p>A te válaszod és a másik játékos válasza <b>megegyeznek</b>.</p>","null","","","","feedback trial","",""
"html-button-response","119","549979","0.0-12.0","7127","<p>A közös játék most véget ért.</p><p>Mielőtt eláruljuk a végső pontszámodat, arra kérlek, játszd a szóválasztós játékot néhány percig egyedül is.</p><p>A feladatod ugyanaz lesz, választani két lehetőség közül.</p><p>Most viszont egyedül kell döntened, hogy te melyiket választanád.</p>","0","","","","","",""
"html-button-response-clever","120","551035","0.0-13.0-0.0","550","János imád tágarozni, ezért sokat tágarzik. Mi ritkán...","0","tágarzunk","[""tágarzunk"",""tágarozunk""]","","posttest trial","8",""
"html-button-response-clever","121","552294","0.0-13.0-0.1","744","János imád bregezni, ezért sokat bregzik. Mi ritkán...","1","bregezünk","[""bregzünk"",""bregezünk""]","","posttest trial","8",""
"html-button-response-clever","122","553110","0.0-13.0-0.2","313","János imád livényezni, ezért sokat livénylik. Mi ritkán...","0","livénylünk","[""livénylünk"",""livényezünk""]","","posttest trial","8",""
"html-button-response-clever","123","553883","0.0-13.0-0.3","255","János imád dirányozni, ezért sokat diránylik. Ők ritkán...","0","diránylanak","[""diránylanak"",""dirányoznak""]","","posttest trial","8",""
"html-button-response-clever","124","554651","0.0-13.0-0.4","260","János imád prilepedni, ezért sokat prilepszik. Mi ritkán...","1","prilepszünk","[""prilepedünk"",""prilepszünk""]","","posttest trial","8",""
"html-button-response-clever","125","555443","0.0-13.0-0.5","284","János imád lírozni, ezért sokat lírlik. Ők ritkán...","0","lírlanak","[""lírlanak"",""líroznak""]","","posttest trial","8",""
"html-button-response-clever","126","556131","0.0-13.0-0.6","181","János imád gyivepedni, ezért sokat gyivepszik. Ők ritkán...","1","gyivepednek","[""gyivepszenek"",""gyivepednek""]","","posttest trial","8",""
"html-button-response-clever","127","556927","0.0-13.0-0.7","283","János imád tűgözni, ezért sokat tűgzik. Ti ritkán...","1","tűgzötök","[""tűgöztök"",""tűgzötök""]","","posttest trial","8",""
"html-button-response-clever","128","559143","0.0-13.0-0.8","1713","János imád flubokozni, ezért sokat fluboklik. Ti ritkán...","0","flubokoztok","[""flubokoztok"",""fluboklotok""]","","posttest trial","8",""
"html-button-response-clever","129","561108","0.0-13.0-0.9","1463","János imád trűnyözni, ezért sokat trűnylik. Ők ritkán...","1","trűnylenek","[""trűnyöznek"",""trűnylenek""]","","posttest trial","8",""
"html-button-response-clever","130","564591","0.0-13.0-0.10","2979","János imád drojozni, ezért sokat drojzik. Mi ritkán...","0","drojozunk","[""drojozunk"",""drojzunk""]","","posttest trial","8",""
"html-button-response-clever","131","566578","0.0-13.0-0.11","1483","János imád pörözni, ezért sokat pörzik. Ti ritkán...","1","pöröztök","[""pörzötök"",""pöröztök""]","","posttest trial","8",""
"html-button-response-clever","132","568211","0.0-13.0-0.12","1119","János imád brilegezni, ezért sokat brilegzik. Mi ritkán...","1","brilegezünk","[""brilegzünk"",""brilegezünk""]","","posttest trial","8",""
"html-button-response-clever","133","569563","0.0-13.0-0.13","845","János imád fröjözni, ezért sokat fröjlik. Mi ritkán...","1","fröjözünk","[""fröjlünk"",""fröjözünk""]","","posttest trial","8",""
"html-button-response-clever","134","570860","0.0-13.0-0.14","781","János imád nágapodni, ezért sokat nágapszik. Ők ritkán...","0","nágapodnak","[""nágapodnak"",""nágapszanak""]","","posttest trial","8",""
"html-button-response-clever","135","572915","0.0-13.0-0.15","1544","János imád spöközni, ezért sokat spöklik. Mi ritkán...","1","spöklünk","[""spöközünk"",""spöklünk""]","","posttest trial","8",""
"html-button-response-clever","136","576089","0.0-13.0-0.16","2666","János imád sprimozni, ezért sokat sprimlik. Mi ritkán...","0","sprimlunk","[""sprimlunk"",""sprimozunk""]","","posttest trial","8",""
"html-button-response-clever","137","579675","0.0-13.0-0.17","3079","János imád filányozni, ezért sokat filánylik. Mi ritkán...","0","filánylunk","[""filánylunk"",""filányozunk""]","","posttest trial","8",""
"html-button-response-clever","138","580538","0.0-13.0-0.18","358","János imád kluzozni, ezért sokat kluzlik. Ti ritkán...","1","kluzoztok","[""kluzlotok"",""kluzoztok""]","","posttest trial","8",""
"html-button-response-clever","139","582686","0.0-13.0-0.19","1640","János imád pehégedni, ezért sokat pehégszik. Ti ritkán...","0","pehégedtek","[""pehégedtek"",""pehégszetek""]","","posttest trial","8",""
"html-button-response-clever","140","584021","0.0-13.0-0.20","833","János imád míjozni, ezért sokat míjzik. Mi ritkán...","1","míjozunk","[""míjzunk"",""míjozunk""]","","posttest trial","8",""
"html-button-response-clever","141","584932","0.0-13.0-0.21","407","János imád brálamozni, ezért sokat brálamlik. Ők ritkán...","0","brálamoznak","[""brálamoznak"",""brálamlanak""]","","posttest trial","8",""
"html-button-response-clever","142","586843","0.0-13.0-0.22","1407","János imád brivágozni, ezért sokat briváglik. Ők ritkán...","1","briváglanak","[""brivágoznak"",""briváglanak""]","","posttest trial","8",""
"html-button-response-clever","143","588275","0.0-13.0-0.23","924","János imád sprigozni, ezért sokat sprigzik. Ti ritkán...","0","sprigzotok","[""sprigzotok"",""sprigoztok""]","","posttest trial","8",""
"html-button-response-clever","144","589611","0.0-13.0-0.24","829","János imád spalározni, ezért sokat spalárzik. Ők ritkán...","1","spalároznak","[""spalárzanak"",""spalároznak""]","","posttest trial","8",""
"html-button-response-clever","145","590452","0.0-13.0-0.25","339","János imád brüszözni, ezért sokat brüszlik. Ti ritkán...","0","brüszöztök","[""brüszöztök"",""brüszlötök""]","","posttest trial","8",""
"html-button-response-clever","146","591501","0.0-13.0-0.26","545","János imád gatágozni, ezért sokat gatáglik. Mi ritkán...","1","gatáglunk","[""gatágozunk"",""gatáglunk""]","","posttest trial","8",""
"html-button-response-clever","147","592718","0.0-13.0-0.27","712","János imád vobozni, ezért sokat vobzik. Ti ritkán...","1","voboztok","[""vobzotok"",""voboztok""]","","posttest trial","8",""
"html-button-response-clever","148","593611","0.0-13.0-0.28","391","János imád küsözni, ezért sokat küslik. Mi ritkán...","1","küslünk","[""küsözünk"",""küslünk""]","","posttest trial","8",""
"html-button-response-clever","149","594868","0.0-13.0-0.29","750","János imád pekedni, ezért sokat pekszik. Mi ritkán...","0","pekszünk","[""pekszünk"",""pekedünk""]","","posttest trial","8",""
"html-button-response-clever","150","595786","0.0-13.0-0.30","413","János imád tibarozni, ezért sokat tibarzik. Ők ritkán...","1","tibaroznak","[""tibarzanak"",""tibaroznak""]","","posttest trial","8",""
"html-button-response-clever","151","596659","0.0-13.0-0.31","366","János imád hákodni, ezért sokat hákszik. Ők ritkán...","0","hákodnak","[""hákodnak"",""hákszanak""]","","posttest trial","8",""
"html-button-response-clever","152","598270","0.0-13.0-0.32","1103","János imád trírozni, ezért sokat trírzik. Mi ritkán...","1","trírzunk","[""trírozunk"",""trírzunk""]","","posttest trial","8",""
"html-button-response-clever","153","599459","0.0-13.0-0.33","675","János imád frihegezni, ezért sokat friheglik. Mi ritkán...","0","friheglünk","[""friheglünk"",""frihegezünk""]","","posttest trial","8",""
"html-button-response-clever","154","600500","0.0-13.0-0.34","525","János imád tribejezni, ezért sokat tribejlik. Ti ritkán...","0","tribejletek","[""tribejletek"",""tribejeztek""]","","posttest trial","8",""
"html-button-response-clever","155","601334","0.0-13.0-0.35","329","János imád galározni, ezért sokat galárzik. Ők ritkán...","1","galárzanak","[""galároznak"",""galárzanak""]","","posttest trial","8",""
"html-button-response-clever","156","602139","0.0-13.0-0.36","303","János imád drivegezni, ezért sokat drivegzik. Ti ritkán...","0","drivegeztek","[""drivegeztek"",""drivegzetek""]","","posttest trial","8",""
"html-button-response-clever","157","603053","0.0-13.0-0.37","407","János imád riványozni, ezért sokat riványlik. Ti ritkán...","1","riványlotok","[""riványoztok"",""riványlotok""]","","posttest trial","8",""
"html-button-response-clever","158","603859","0.0-13.0-0.38","302","János imád frivamozni, ezért sokat frivamlik. Mi ritkán...","1","frivamlunk","[""frivamozunk"",""frivamlunk""]","","posttest trial","8",""
"html-button-response-clever","159","604691","0.0-13.0-0.39","328","János imád sztritozni, ezért sokat sztritlik. Ők ritkán...","1","sztritoznak","[""sztritlanak"",""sztritoznak""]","","posttest trial","8",""
"html-button-response-clever","160","605485","0.0-13.0-0.40","291","János imád brározni, ezért sokat brárlik. Ők ritkán...","0","brároznak","[""brároznak"",""brárlanak""]","","posttest trial","8",""
"html-button-response-clever","161","606138","0.0-13.0-0.41","151","János imád mihágozni, ezért sokat mihágzik. Ti ritkán...","1","mihágzotok","[""mihágoztok"",""mihágzotok""]","","posttest trial","8",""
"html-button-response-clever","162","607003","0.0-13.0-0.42","351","János imád brivepedni, ezért sokat brivepszik. Mi ritkán...","0","brivepszünk","[""brivepszünk"",""brivepedünk""]","","posttest trial","8",""
"html-button-response-clever","163","607818","0.0-13.0-0.43","309","János imád gibemezni, ezért sokat gibemlik. Mi ritkán...","0","gibemezünk","[""gibemezünk"",""gibemlünk""]","","posttest trial","8",""
"html-button-response-clever","164","609139","0.0-13.0-0.44","815","János imád flézezni, ezért sokat flézlik. Ti ritkán...","1","flézeztek","[""flézletek"",""flézeztek""]","","posttest trial","8",""
"html-button-response-clever","165","610723","0.0-13.0-0.45","1077","János imád flivegezni, ezért sokat flivegzik. Ők ritkán...","0","flivegzenek","[""flivegzenek"",""flivegeznek""]","","posttest trial","8",""
"html-button-response-clever","166","611635","0.0-13.0-0.46","405","János imád mísozni, ezért sokat míslik. Mi ritkán...","0","míslunk","[""míslunk"",""mísozunk""]","","posttest trial","8",""
"html-button-response-clever","167","612504","0.0-13.0-0.47","363","János imád sponyozni, ezért sokat sponylik. Ők ritkán...","1","sponylanak","[""sponyoznak"",""sponylanak""]","","posttest trial","8",""
"html-button-response-clever","168","613414","0.0-13.0-0.48","393","János imád sztrajozni, ezért sokat sztrajlik. Ők ritkán...","0","sztrajlanak","[""sztrajlanak"",""sztrajoznak""]","","posttest trial","8",""
"html-button-response-clever","169","614485","0.0-13.0-0.49","568","János imád spibamozni, ezért sokat spibamlik. Ők ritkán...","1","spibamlanak","[""spibamoznak"",""spibamlanak""]","","posttest trial","8",""
"html-button-response-clever","170","615298","0.0-13.0-0.50","296","János imád klarágozni, ezért sokat klarágzik. Ti ritkán...","1","klarágoztok","[""klarágzotok"",""klarágoztok""]","","posttest trial","8",""
"html-button-response-clever","171","616114","0.0-13.0-0.51","300","János imád frésezni, ezért sokat fréslik. Mi ritkán...","1","fréslünk","[""frésezünk"",""fréslünk""]","","posttest trial","8",""
"html-button-response-clever","172","617283","0.0-13.0-0.52","650","János imád prazozni, ezért sokat prazlik. Mi ritkán...","0","prazozunk","[""prazozunk"",""prazlunk""]","","posttest trial","8",""
"html-button-response-clever","173","618187","0.0-13.0-0.53","399","János imád lumozni, ezért sokat lumlik. Ti ritkán...","1","lumlotok","[""lumoztok"",""lumlotok""]","","posttest trial","8",""
"html-button-response","174","622130","0.0-14.0","3439","<p> Vége a játéknak. A teljes pontszámod 27/54.</p><p> Szép munka! &#128526;&#128526;&#128526;</p><p>A Befejezés gomb megnyomása után bezárhatod a böngészőablakot.</p>","0","","","","","",""
"html-keyboard-response","175","627663","0.0-15.0","null","<div class=""message"">
         <p>Egy kis türelmet kérünk, amíg elmentjük az adatokat...</p>
         </div>","null","","","","","",""
