"trial_type","trial_index","time_elapsed","internal_node_id","rt","stimulus","response","response_string","choices","esp_response","trial_kind","list_number","esp_match"
"pavlovia","0","663","0.0-0.0","","","","","","","","",""
"html-button-response","1","8410","0.0-1.0","7229","<p>Kedves Résztvevő! A Budapesti Műszaki és Gazdaságtudományi Egyetem Kognitív Tudományi Tanszékének kutatásában való részvételed kérjük. A kutatásban azt vizsgáljuk, hogy a magyar anyanyelvűek hogyan használnak bizonyos szóalakokat, és hogy milyen képük van arról, hogy mások hogyan használják, hogyan képzik a szavakat. Ez hozzásegít bennünket ahhoz, hogy jobban megértsük, hogyan dolgozza fel és tárolja a nyelvet az emberi agy, és hogyan működnek, hogyan változnak egy adott közösség nyelvi konvenciói.</p><p>A vizsgálat egy rövid számítógépes feladatból fog állni. A kutatásban való részvétel önkéntes, a részvételi szándék bármikor visszavonható. A résztvevők eredményeit név nélkül kezeljük, így nem beazonosíthatók az adatok feldolgozása során. Minden személyes adatot az EU általános adatvédelmi rendeletének (GDPR) megfelelően kezelünk és legfeljebb öt éven belül megsemmisítünk. A vizsgálat jellemzően húsz percet vesz igénybe.</p><p>Kutatásvezető:</p><p>Dr. Rácz Péter, tudományos munkatárs, BME KTT</p><p>e-mail: racz.peter.marton@ttk.bme.hu</p>","0","","","","","",""
"html-button-response","2","50519","0.0-2.0","41598","<p>A kísérletben szavakat fogsz látni. Ezek között lesznek olyanok, amelyeket ismersz, de előfordulhatnak olyanok is, amelyeket nem ismersz, sőt, vannak köztük kitalált szavak is. Minden szónál látni fogsz toldalékolt alakokat. A te feladatod az lesz, hogy minden szóhoz kiválaszd azt a toldalékolt alakot, amely a te számodra ismerősebben, természetesebben hangzik. Rossz válaszok nincsenek, mert van olyan, hogy különböző embereknek más és más szó tűnik jobb választásnak. A választ úgy tudod majd kiválasztani, ha rákattintasz.</p><p>Ebben a szóválasztós játékban egy másik játékossal együtt veszel majd részt. A másik játékos is minden esetben azok közül a lehetőségek közül válogathat, mint te. Kettőtök feladata az, hogy ugyanazt a lehetőséget válasszátok minden esetben. Ahhoz, hogy ez sikerüljön, neked figyelned kell arra, hogy a másik játékos milyen válaszokat ad, és ennek alapján meg kell tippelned, hogyan választ legközelebb. Ha eltalálod, akkor pontot kapsz.</p>","0","","","","","",""
"html-button-response","3","59935","0.0-3.0","8906","<p>Kérjük, olvasd el az alábbi nyilatkozatot, és amennyiben egyetértesz vele, nyomj a Beleegyezés gombra!</p><p>Kijelentem, hogy magyar anyanyelvű személyként önként veszek részt a BME KTT kísérletében. A kutatás céljával és folyamatával kapcsolatban elegendő tájékoztatást kaptam, lehetőségem volt kérdések feltételére, és esetleges kérdéseimre megfelelő válaszokat kaptam. A tájékoztatás alapján elegendő mennyiségű információ áll a rendelkezésemre, hogy eldönthessem, részt kívánok-e venni a kutatásban.</p><p>Tisztában vagyok vele, hogy részvételi szándékomat és adataimat bármikor, indoklás nélkül visszavonhatom.</p><p>Értem és tudomásul veszem, hogy a kutatás tudományos célokat szolgál, és az általam szolgáltatott adatokat a BME kizárólag kutatási célból használja fel. Tudomásul veszem, hogy eredményeimet a többi résztvevő eredményeivel együtt kezelik, így egyéni teljesítményemről visszajelzést, szakvéleményt nem kapok.</p><p>Megértettem, hogy adataim kezelését illetően a BME az EU általános adatvédelmi rendelete (GDPR), a hatályos adatvédelmi törvény és a nemzetközi kutatás-etikai alapelvek szerint jár el. Eredményeim anonim módon kerülnek feldolgozásra, és a kutatás résztvevői az azonosításomra alkalmas adataimat harmadik félnek nem szolgáltatják ki. Engedélyezem a BME számára a jelen kutatásban felvett adataim feldolgozását és tárolását, beleértve azok későbbi kutatásokhoz való felhasználását is. Személyes adataim kezelésével kapcsolatban tájékoztatást kérhetek a kutatás résztvevőitől, az adatkezelés ellen tiltakozhatok, kérhetem személyes adataim helyesbítését, törlését vagy zárolását, valamint jogorvoslatért a Nemzeti Adatvédelmi és Információszabadság Hatósághoz fordulhatok.</p><p>Kijelentem, hogy a kutatásban való részvételem körülményeiről részletes tájékoztatást kaptam, és a feltételeket elfogadom.</p>","0","","","","","",""
"survey-text","4","121879","0.0-4.0","61428","","{""Q0"":""I3XH0V"",""Q1"":"""",""Q2"":""1979"",""Q3"":""16""}","","","","","",""
"html-button-response","5","135597","0.0-5.0","13209","<p>Ebben a játékban szavakat kell toldalékolni.</p> <p>Minden körben mutatunk majd egy példamondatot, amiben lesz egy szó.</p> <p>Alatta jön egy második mondat, ezt a mondatot neked kell majd befejezni, ugyanezzel a szóval.</p> <p>Nem biztos, hogy a szó eleve ismerős lesz számodra!</p> <p>Minden mondathoz adunk két lehetőséget, ezeket balra és jobbra látod majd.</p> <p>A játék kb. negyedóráig-húsz percig tart.</p>","0","","","","","",""
"html-button-response","6","147370","0.0-6.0","11262","<p>Nézzünk egy példát!</p> <p>A példamondat: ""Ez itt egy blumbnyeg.""</p><p>Neked ezt a mondatot kell befejezned: ""Ott vagyunk a...""</p><p>A lehetőségek pedig ezek:</p>","0","","","","","",""
"html-button-response","7","155729","0.0-7.0","7850","<p>Nagyon jó.</p><p>Ezt a játékot nem egyedül fogod játszani, hanem egy másik játékossal.</p><p>Mielőtt továbblépünk, összekapcsolunk titeket egymással.</p><p>Ez igénybe vehet néhány másodpercet, amihez szíves türelmed kérjük.</p>","0","","","","","",""
"html-button-response","8","161470","0.0-8.0","null","<p>Csatlakozás a másik játékoshoz...</p>","null","","","","","",""
"html-button-response","9","163982","0.0-9.0","null","<p> Sikeres kapcsolódás!</p>","null","","","","","",""
"html-button-response","10","174510","0.0-10.0","null","<p>A következőkben ketten játsszátok a szóválasztós játékot.</p><p>A feladatotok az lesz, hogy minden körben <b>ugyanazt</b> a szót válasszátok.</p><p>Minden ilyen egyező válaszért pontot kaptok.</p><p>Próbáld meg kitalálni, mit választ a másik játékos!</p><p>Bármikor választhatsz, a körnek akkor van vége, ha mindketten döntöttetek.</p><p>Sok sikert!</p>","null","","","","","",""
"html-button-response-esp","11","180483","0.0-11.0-0.0","5460","Ez itt egy jorzég. Elneveztem a kutyámat...","1","jorzégnak","[""jorzégnek"",""jorzégnak""]","jorzégnak","esp trial","8","true"
"html-button-response","12","184003","0.0-11.0-1.0","null","<p>A másik játékos ezt választotta: <b>jorzégnak</b>.</p><p>&#x2705;</p><p>A te válaszod és a másik játékos válasza <b>megegyeznek</b>.</p>","null","","","","feedback trial","",""
"html-button-response-esp","13","188399","0.0-11.0-0.1","3885","Ez itt egy brágéd. Elneveztem a kutyámat...","0","brágédnak","[""brágédnak"",""brágédnek""]","brágédnek","esp trial","8","false"
"html-button-response","14","191915","0.0-11.0-1.1","null","<p>A másik játékos ezt választotta: <b>brágédnek</b>.</p><p>&#10060;</p><p>A válaszaitok <b>nem</b> egyeznek meg.</p>","null","","","","feedback trial","",""
"html-button-response-esp","15","196425","0.0-11.0-0.2","4000","Ez itt egy ronvet. Elneveztem a kutyámat...","0","ronvetnek","[""ronvetnek"",""ronvetnak""]","ronvetnak","esp trial","8","false"
"html-button-response","16","199937","0.0-11.0-1.2","null","<p>A másik játékos ezt választotta: <b>ronvetnak</b>.</p><p>&#10060;</p><p>A válaszaitok <b>nem</b> egyeznek meg.</p>","null","","","","feedback trial","",""
"html-button-response-esp","17","204284","0.0-11.0-0.3","3845","Ez itt egy bródesz. Elneveztem a kutyámat...","1","bródesznek","[""bródesznak"",""bródesznek""]","bródesznak","esp trial","8","false"
"html-button-response","18","207798","0.0-11.0-1.3","null","<p>A másik játékos ezt választotta: <b>bródesznak</b>.</p><p>&#10060;</p><p>A válaszaitok <b>nem</b> egyeznek meg.</p>","null","","","","feedback trial","",""
"html-button-response-esp","19","211767","0.0-11.0-0.4","3459","Ez itt egy sporzem. Elneveztem a kutyámat...","1","sporzemnak","[""sporzemnek"",""sporzemnak""]","sporzemnak","esp trial","8","true"
"html-button-response","20","215279","0.0-11.0-1.4","null","<p>A másik játékos ezt választotta: <b>sporzemnak</b>.</p><p>&#x2705;</p><p>A te válaszod és a másik játékos válasza <b>megegyeznek</b>.</p>","null","","","","feedback trial","",""
"html-button-response-esp","21","219533","0.0-11.0-0.5","3746","Ez itt egy navec. Ott vagyunk a...","1","navecben","[""navecban"",""navecben""]","navecban","esp trial","8","false"
"html-button-response","22","223050","0.0-11.0-1.5","null","<p>A másik játékos ezt választotta: <b>navecban</b>.</p><p>&#10060;</p><p>A válaszaitok <b>nem</b> egyeznek meg.</p>","null","","","","feedback trial","",""
"html-button-response-esp","23","226794","0.0-11.0-0.6","3027","Ez itt egy hóbens. Ott vagyunk a...","1","hóbensben","[""hóbensban"",""hóbensben""]","hóbensban","esp trial","8","false"
"html-button-response","24","230312","0.0-11.0-1.6","null","<p>A másik játékos ezt választotta: <b>hóbensban</b>.</p><p>&#10060;</p><p>A válaszaitok <b>nem</b> egyeznek meg.</p>","null","","","","feedback trial","",""
"html-button-response-esp","25","234066","0.0-11.0-0.7","3028","Ez itt egy licegy. Ott vagyunk a...","1","licegyben","[""licegyban"",""licegyben""]","licegyban","esp trial","8","false"
"html-button-response","26","237588","0.0-11.0-1.7","null","<p>A másik játékos ezt választotta: <b>licegyban</b>.</p><p>&#10060;</p><p>A válaszaitok <b>nem</b> egyeznek meg.</p>","null","","","","feedback trial","",""
"html-button-response-esp","27","241493","0.0-11.0-0.8","3393","Ez itt egy spáten. Elneveztem a kutyámat...","0","spátennak","[""spátennak"",""spátennek""]","spátennak","esp trial","8","true"
"html-button-response","28","245010","0.0-11.0-1.8","null","<p>A másik játékos ezt választotta: <b>spátennak</b>.</p><p>&#x2705;</p><p>A te válaszod és a másik játékos válasza <b>megegyeznek</b>.</p>","null","","","","feedback trial","",""
"html-button-response-esp","29","250406","0.0-11.0-0.9","4886","Ez itt egy kliszer. Nincs is jobb egy jó...","0","kliszernél","[""kliszernél"",""kliszernál""]","kliszernál","esp trial","8","false"
"html-button-response","30","253926","0.0-11.0-1.9","null","<p>A másik játékos ezt választotta: <b>kliszernál</b>.</p><p>&#10060;</p><p>A válaszaitok <b>nem</b> egyeznek meg.</p>","null","","","","feedback trial","",""
"html-button-response-esp","31","257685","0.0-11.0-0.10","2599","Ez itt egy szihét. Elneveztem a kutyámat...","0","szihétnak","[""szihétnak"",""szihétnek""]","szihétnak","esp trial","8","true"
"html-button-response","32","261203","0.0-11.0-1.10","null","<p>A másik játékos ezt választotta: <b>szihétnak</b>.</p><p>&#x2705;</p><p>A te válaszod és a másik játékos válasza <b>megegyeznek</b>.</p>","null","","","","feedback trial","",""
"html-button-response-esp","33","265614","0.0-11.0-0.11","3910","Ez itt egy csimen. Nincs is jobb egy jó...","1","csimennál","[""csimennél"",""csimennál""]","csimennál","esp trial","8","true"
"html-button-response","34","269141","0.0-11.0-1.11","null","<p>A másik játékos ezt választotta: <b>csimennál</b>.</p><p>&#x2705;</p><p>A te válaszod és a másik játékos válasza <b>megegyeznek</b>.</p>","null","","","","feedback trial","",""
"html-button-response-esp","35","272896","0.0-11.0-0.12","2135","Ez itt egy sprízem. Nincs is jobb egy jó...","1","sprízemnál","[""sprízemnél"",""sprízemnál""]","sprízemnál","esp trial","8","true"
"html-button-response","36","276400","0.0-11.0-1.12","null","<p>A másik játékos ezt választotta: <b>sprízemnál</b>.</p><p>&#x2705;</p><p>A te válaszod és a másik játékos válasza <b>megegyeznek</b>.</p>","null","","","","feedback trial","",""
"html-button-response-esp","37","280165","0.0-11.0-0.13","3069","Ez itt egy nidét. Ott vagyunk a...","0","nidétban","[""nidétban"",""nidétben""]","nidétban","esp trial","8","true"
"html-button-response","38","283688","0.0-11.0-1.13","null","<p>A másik játékos ezt választotta: <b>nidétban</b>.</p><p>&#x2705;</p><p>A te válaszod és a másik játékos válasza <b>megegyeznek</b>.</p>","null","","","","feedback trial","",""
"html-button-response-esp","39","287451","0.0-11.0-0.14","2497","Ez itt egy trigenc. Elneveztem a kutyámat...","0","trigencnak","[""trigencnak"",""trigencnek""]","trigencnak","esp trial","8","true"
"html-button-response","40","290960","0.0-11.0-1.14","null","<p>A másik játékos ezt választotta: <b>trigencnak</b>.</p><p>&#x2705;</p><p>A te válaszod és a másik játékos válasza <b>megegyeznek</b>.</p>","null","","","","feedback trial","",""
"html-button-response-esp","41","294713","0.0-11.0-0.15","1346","Ez itt egy hivép. Ott vagyunk a...","0","hivépban","[""hivépban"",""hivépben""]","hivépban","esp trial","8","true"
"html-button-response","42","298234","0.0-11.0-1.15","null","<p>A másik játékos ezt választotta: <b>hivépban</b>.</p><p>&#x2705;</p><p>A te válaszod és a másik játékos válasza <b>megegyeznek</b>.</p>","null","","","","feedback trial","",""
"html-button-response-esp","43","301995","0.0-11.0-0.16","1950","Ez itt egy buhény. Ott vagyunk a...","1","buhényban","[""buhényben"",""buhényban""]","buhényben","esp trial","8","false"
"html-button-response","44","305501","0.0-11.0-1.16","null","<p>A másik játékos ezt választotta: <b>buhényben</b>.</p><p>&#10060;</p><p>A válaszaitok <b>nem</b> egyeznek meg.</p>","null","","","","feedback trial","",""
"html-button-response-esp","45","309256","0.0-11.0-0.17","1370","Ez itt egy fincek. Nincs is jobb egy jó...","1","finceknál","[""finceknél"",""finceknál""]","finceknál","esp trial","8","true"
"html-button-response","46","312778","0.0-11.0-1.17","null","<p>A másik játékos ezt választotta: <b>finceknál</b>.</p><p>&#x2705;</p><p>A te válaszod és a másik játékos válasza <b>megegyeznek</b>.</p>","null","","","","feedback trial","",""
"html-button-response-esp","47","316520","0.0-11.0-0.18","1946","Ez itt egy gonszék. Nincs is jobb egy jó...","0","gonszéknál","[""gonszéknál"",""gonszéknél""]","gonszéknál","esp trial","8","true"
"html-button-response","48","320039","0.0-11.0-1.18","null","<p>A másik játékos ezt választotta: <b>gonszéknál</b>.</p><p>&#x2705;</p><p>A te válaszod és a másik játékos válasza <b>megegyeznek</b>.</p>","null","","","","feedback trial","",""
"html-button-response-esp","49","323795","0.0-11.0-0.19","2477","Ez itt egy matéz. Ott vagyunk a...","1","matézban","[""matézben"",""matézban""]","matézben","esp trial","8","false"
"html-button-response","50","327315","0.0-11.0-1.19","null","<p>A másik játékos ezt választotta: <b>matézben</b>.</p><p>&#10060;</p><p>A válaszaitok <b>nem</b> egyeznek meg.</p>","null","","","","feedback trial","",""
"html-button-response-esp","51","332534","0.0-11.0-0.20","4708","Ez itt egy brigeszt. Elneveztem a kutyámat...","0","brigesztnak","[""brigesztnak"",""brigesztnek""]","brigesztnak","esp trial","8","true"
"html-button-response","52","336051","0.0-11.0-1.20","null","<p>A másik játékos ezt választotta: <b>brigesztnak</b>.</p><p>&#x2705;</p><p>A te válaszod és a másik játékos válasza <b>megegyeznek</b>.</p>","null","","","","feedback trial","",""
"html-button-response-esp","53","339796","0.0-11.0-0.21","2117","Ez itt egy lismév. Ott vagyunk a...","0","lismévben","[""lismévben"",""lismévban""]","lismévban","esp trial","8","false"
"html-button-response","54","343319","0.0-11.0-1.21","null","<p>A másik játékos ezt választotta: <b>lismévban</b>.</p><p>&#10060;</p><p>A válaszaitok <b>nem</b> egyeznek meg.</p>","null","","","","feedback trial","",""
"html-button-response-esp","55","347085","0.0-11.0-0.22","1191","Ez itt egy priszkenc. Elneveztem a kutyámat...","0","priszkencnak","[""priszkencnak"",""priszkencnek""]","priszkencnak","esp trial","8","true"
"html-button-response","56","350599","0.0-11.0-1.22","null","<p>A másik játékos ezt választotta: <b>priszkencnak</b>.</p><p>&#x2705;</p><p>A te válaszod és a másik játékos válasza <b>megegyeznek</b>.</p>","null","","","","feedback trial","",""
"html-button-response-esp","57","354359","0.0-11.0-0.23","2712","Ez itt egy trincseg. Ott vagyunk a...","1","trincsegban","[""trincsegben"",""trincsegban""]","trincsegban","esp trial","8","true"
"html-button-response","58","357883","0.0-11.0-1.23","null","<p>A másik játékos ezt választotta: <b>trincsegban</b>.</p><p>&#x2705;</p><p>A te válaszod és a másik játékos válasza <b>megegyeznek</b>.</p>","null","","","","feedback trial","",""
"html-button-response-esp","59","361639","0.0-11.0-0.24","1302","Ez itt egy jalrény. Nincs is jobb egy jó...","1","jalrénynál","[""jalrénynél"",""jalrénynál""]","jalrénynél","esp trial","8","false"
"html-button-response","60","365155","0.0-11.0-1.24","null","<p>A másik játékos ezt választotta: <b>jalrénynél</b>.</p><p>&#10060;</p><p>A válaszaitok <b>nem</b> egyeznek meg.</p>","null","","","","feedback trial","",""
"html-button-response-esp","61","368913","0.0-11.0-0.25","1376","Ez itt egy kábesz. Nincs is jobb egy jó...","1","kábesznél","[""kábesznál"",""kábesznél""]","kábesznál","esp trial","8","false"
"html-button-response","62","372416","0.0-11.0-1.25","null","<p>A másik játékos ezt választotta: <b>kábesznál</b>.</p><p>&#10060;</p><p>A válaszaitok <b>nem</b> egyeznek meg.</p>","null","","","","feedback trial","",""
"html-button-response-esp","63","376164","0.0-11.0-0.26","2259","Ez itt egy prately. Elneveztem a kutyámat...","0","pratelynak","[""pratelynak"",""pratelynek""]","pratelynak","esp trial","8","true"
"html-button-response","64","379693","0.0-11.0-1.26","null","<p>A másik játékos ezt választotta: <b>pratelynak</b>.</p><p>&#x2705;</p><p>A te válaszod és a másik játékos válasza <b>megegyeznek</b>.</p>","null","","","","feedback trial","",""
"html-button-response-esp","65","383451","0.0-11.0-0.27","2695","Ez itt egy júder. Elneveztem a kutyámat...","1","júdernak","[""júdernek"",""júdernak""]","júdernak","esp trial","8","true"
"html-button-response","66","386954","0.0-11.0-1.27","null","<p>A másik játékos ezt választotta: <b>júdernak</b>.</p><p>&#x2705;</p><p>A te válaszod és a másik játékos válasza <b>megegyeznek</b>.</p>","null","","","","feedback trial","",""
"html-button-response-esp","67","390697","0.0-11.0-0.28","2334","Ez itt egy nyábét. Ott vagyunk a...","0","nyábétban","[""nyábétban"",""nyábétben""]","nyábétben","esp trial","8","false"
"html-button-response","68","394220","0.0-11.0-1.28","null","<p>A másik játékos ezt választotta: <b>nyábétben</b>.</p><p>&#10060;</p><p>A válaszaitok <b>nem</b> egyeznek meg.</p>","null","","","","feedback trial","",""
"html-button-response-esp","69","397971","0.0-11.0-0.29","2224","Ez itt egy szutend. Ott vagyunk a...","0","szutendben","[""szutendben"",""szutendban""]","szutendban","esp trial","8","false"
"html-button-response","70","401490","0.0-11.0-1.29","null","<p>A másik játékos ezt választotta: <b>szutendban</b>.</p><p>&#10060;</p><p>A válaszaitok <b>nem</b> egyeznek meg.</p>","null","","","","feedback trial","",""
"html-button-response-esp","71","405247","0.0-11.0-0.30","1315","Ez itt egy vodép. Elneveztem a kutyámat...","0","vodépnek","[""vodépnek"",""vodépnak""]","vodépnak","esp trial","8","false"
"html-button-response","72","408763","0.0-11.0-1.30","null","<p>A másik játékos ezt választotta: <b>vodépnak</b>.</p><p>&#10060;</p><p>A válaszaitok <b>nem</b> egyeznek meg.</p>","null","","","","feedback trial","",""
"html-button-response-esp","73","412522","0.0-11.0-0.31","2216","Ez itt egy jábéz. Ott vagyunk a...","1","jábézban","[""jábézben"",""jábézban""]","jábézben","esp trial","8","false"
"html-button-response","74","416038","0.0-11.0-1.31","null","<p>A másik játékos ezt választotta: <b>jábézben</b>.</p><p>&#10060;</p><p>A válaszaitok <b>nem</b> egyeznek meg.</p>","null","","","","feedback trial","",""
"html-button-response-esp","75","419795","0.0-11.0-0.32","2618","Ez itt egy bidem. Ott vagyunk a...","0","bidemban","[""bidemban"",""bidemben""]","bidemban","esp trial","8","true"
"html-button-response","76","423316","0.0-11.0-1.32","null","<p>A másik játékos ezt választotta: <b>bidemban</b>.</p><p>&#x2705;</p><p>A te válaszod és a másik játékos válasza <b>megegyeznek</b>.</p>","null","","","","feedback trial","",""
"html-button-response-esp","77","427073","0.0-11.0-0.33","1656","Ez itt egy giheszt. Elneveztem a kutyámat...","0","gihesztnak","[""gihesztnak"",""gihesztnek""]","gihesztnak","esp trial","8","true"
"html-button-response","78","430599","0.0-11.0-1.33","null","<p>A másik játékos ezt választotta: <b>gihesztnak</b>.</p><p>&#x2705;</p><p>A te válaszod és a másik játékos válasza <b>megegyeznek</b>.</p>","null","","","","feedback trial","",""
"html-button-response-esp","79","434464","0.0-11.0-0.34","3356","Ez itt egy kadér. Nincs is jobb egy jó...","1","kadérnál","[""kadérnél"",""kadérnál""]","kadérnél","esp trial","8","false"
"html-button-response","80","437988","0.0-11.0-1.34","null","<p>A másik játékos ezt választotta: <b>kadérnél</b>.</p><p>&#10060;</p><p>A válaszaitok <b>nem</b> egyeznek meg.</p>","null","","","","feedback trial","",""
"html-button-response-esp","81","441750","0.0-11.0-0.35","2991","Ez itt egy kluhéj. Nincs is jobb egy jó...","0","kluhéjnél","[""kluhéjnél"",""kluhéjnál""]","kluhéjnél","esp trial","8","true"
"html-button-response","82","445274","0.0-11.0-1.35","null","<p>A másik játékos ezt választotta: <b>kluhéjnél</b>.</p><p>&#x2705;</p><p>A te válaszod és a másik játékos válasza <b>megegyeznek</b>.</p>","null","","","","feedback trial","",""
"html-button-response-esp","83","449868","0.0-11.0-0.36","4091","Ez itt egy csinték. Ott vagyunk a...","0","csintékben","[""csintékben"",""csintékban""]","csintékban","esp trial","8","false"
"html-button-response","84","453391","0.0-11.0-1.36","null","<p>A másik játékos ezt választotta: <b>csintékban</b>.</p><p>&#10060;</p><p>A válaszaitok <b>nem</b> egyeznek meg.</p>","null","","","","feedback trial","",""
"html-button-response-esp","85","457143","0.0-11.0-0.37","2084","Ez itt egy klordény. Elneveztem a kutyámat...","0","klordénynak","[""klordénynak"",""klordénynek""]","klordénynek","esp trial","8","false"
"html-button-response","86","460645","0.0-11.0-1.37","null","<p>A másik játékos ezt választotta: <b>klordénynek</b>.</p><p>&#10060;</p><p>A válaszaitok <b>nem</b> egyeznek meg.</p>","null","","","","feedback trial","",""
"html-button-response-esp","87","464392","0.0-11.0-0.38","2289","Ez itt egy trapszegy. Nincs is jobb egy jó...","1","trapszegynál","[""trapszegynél"",""trapszegynál""]","trapszegynál","esp trial","8","true"
"html-button-response","88","467912","0.0-11.0-1.38","null","<p>A másik játékos ezt választotta: <b>trapszegynál</b>.</p><p>&#x2705;</p><p>A te válaszod és a másik játékos válasza <b>megegyeznek</b>.</p>","null","","","","feedback trial","",""
"html-button-response-esp","89","471665","0.0-11.0-0.39","1602","Ez itt egy csartény. Elneveztem a kutyámat...","1","csarténynak","[""csarténynek"",""csarténynak""]","csarténynek","esp trial","8","false"
"html-button-response","90","475177","0.0-11.0-1.39","null","<p>A másik játékos ezt választotta: <b>csarténynek</b>.</p><p>&#10060;</p><p>A válaszaitok <b>nem</b> egyeznek meg.</p>","null","","","","feedback trial","",""
"html-button-response-esp","91","478919","0.0-11.0-0.40","1850","Ez itt egy sartely. Ott vagyunk a...","0","sartelyban","[""sartelyban"",""sartelyben""]","sartelyban","esp trial","8","true"
"html-button-response","92","482436","0.0-11.0-1.40","null","<p>A másik játékos ezt választotta: <b>sartelyban</b>.</p><p>&#x2705;</p><p>A te válaszod és a másik játékos válasza <b>megegyeznek</b>.</p>","null","","","","feedback trial","",""
"html-button-response-esp","93","486181","0.0-11.0-0.41","2364","Ez itt egy gótem. Elneveztem a kutyámat...","1","gótemnak","[""gótemnek"",""gótemnak""]","gótemnak","esp trial","8","true"
"html-button-response","94","489704","0.0-11.0-1.41","null","<p>A másik játékos ezt választotta: <b>gótemnak</b>.</p><p>&#x2705;</p><p>A te válaszod és a másik játékos válasza <b>megegyeznek</b>.</p>","null","","","","feedback trial","",""
"html-button-response-esp","95","493470","0.0-11.0-0.42","2162","Ez itt egy forzéd. Elneveztem a kutyámat...","0","forzédnak","[""forzédnak"",""forzédnek""]","forzédnak","esp trial","8","true"
"html-button-response","96","496987","0.0-11.0-1.42","null","<p>A másik játékos ezt választotta: <b>forzédnak</b>.</p><p>&#x2705;</p><p>A te válaszod és a másik játékos válasza <b>megegyeznek</b>.</p>","null","","","","feedback trial","",""
"html-button-response-esp","97","500739","0.0-11.0-0.43","2297","Ez itt egy tránély. Elneveztem a kutyámat...","1","tránélynak","[""tránélynek"",""tránélynak""]","tránélynek","esp trial","8","false"
"html-button-response","98","504261","0.0-11.0-1.43","null","<p>A másik játékos ezt választotta: <b>tránélynek</b>.</p><p>&#10060;</p><p>A válaszaitok <b>nem</b> egyeznek meg.</p>","null","","","","feedback trial","",""
"html-button-response-esp","99","508017","0.0-11.0-0.44","2303","Ez itt egy vublet. Nincs is jobb egy jó...","1","vubletnél","[""vubletnál"",""vubletnél""]","vubletnál","esp trial","8","false"
"html-button-response","100","511540","0.0-11.0-1.44","null","<p>A másik játékos ezt választotta: <b>vubletnál</b>.</p><p>&#10060;</p><p>A válaszaitok <b>nem</b> egyeznek meg.</p>","null","","","","feedback trial","",""
"html-button-response-esp","101","515298","0.0-11.0-0.45","2370","Ez itt egy brotes. Ott vagyunk a...","0","brotesban","[""brotesban"",""brotesben""]","brotesben","esp trial","8","false"
"html-button-response","102","518820","0.0-11.0-1.45","null","<p>A másik játékos ezt választotta: <b>brotesben</b>.</p><p>&#10060;</p><p>A válaszaitok <b>nem</b> egyeznek meg.</p>","null","","","","feedback trial","",""
"html-button-response-esp","103","523330","0.0-11.0-0.46","4000","Ez itt egy brukész. Nincs is jobb egy jó...","1","brukésznál","[""brukésznél"",""brukésznál""]","brukésznál","esp trial","8","true"
"html-button-response","104","526842","0.0-11.0-1.46","null","<p>A másik játékos ezt választotta: <b>brukésznál</b>.</p><p>&#x2705;</p><p>A te válaszod és a másik játékos válasza <b>megegyeznek</b>.</p>","null","","","","feedback trial","",""
"html-button-response-esp","105","530596","0.0-11.0-0.47","1795","Ez itt egy dingec. Elneveztem a kutyámat...","1","dingecnak","[""dingecnek"",""dingecnak""]","dingecnak","esp trial","8","true"
"html-button-response","106","534120","0.0-11.0-1.47","null","<p>A másik játékos ezt választotta: <b>dingecnak</b>.</p><p>&#x2705;</p><p>A te válaszod és a másik játékos válasza <b>megegyeznek</b>.</p>","null","","","","feedback trial","",""
"html-button-response-esp","107","540255","0.0-11.0-0.48","5625","Ez itt egy gicéj. Nincs is jobb egy jó...","1","gicéjnél","[""gicéjnál"",""gicéjnél""]","gicéjnál","esp trial","8","false"
"html-button-response","108","543772","0.0-11.0-1.48","null","<p>A másik játékos ezt választotta: <b>gicéjnál</b>.</p><p>&#10060;</p><p>A válaszaitok <b>nem</b> egyeznek meg.</p>","null","","","","feedback trial","",""
"html-button-response-esp","109","547524","0.0-11.0-0.49","1221","Ez itt egy fádens. Elneveztem a kutyámat...","1","fádensnak","[""fádensnek"",""fádensnak""]","fádensnak","esp trial","8","true"
"html-button-response","110","551043","0.0-11.0-1.49","null","<p>A másik játékos ezt választotta: <b>fádensnak</b>.</p><p>&#x2705;</p><p>A te válaszod és a másik játékos válasza <b>megegyeznek</b>.</p>","null","","","","feedback trial","",""
"html-button-response-esp","111","554809","0.0-11.0-0.50","1716","Ez itt egy ikszert. Ott vagyunk a...","1","ikszertban","[""ikszertben"",""ikszertban""]","ikszertban","esp trial","8","true"
"html-button-response","112","558324","0.0-11.0-1.50","null","<p>A másik játékos ezt választotta: <b>ikszertban</b>.</p><p>&#x2705;</p><p>A te válaszod és a másik játékos válasza <b>megegyeznek</b>.</p>","null","","","","feedback trial","",""
"html-button-response-esp","113","562078","0.0-11.0-0.51","2142","Ez itt egy tranék. Ott vagyunk a...","1","tranékban","[""tranékben"",""tranékban""]","tranékben","esp trial","8","false"
"html-button-response","114","565584","0.0-11.0-1.51","null","<p>A másik játékos ezt választotta: <b>tranékben</b>.</p><p>&#10060;</p><p>A válaszaitok <b>nem</b> egyeznek meg.</p>","null","","","","feedback trial","",""
"html-button-response-esp","115","569340","0.0-11.0-0.52","2755","Ez itt egy nyarcéj. Elneveztem a kutyámat...","0","nyarcéjnak","[""nyarcéjnak"",""nyarcéjnek""]","nyarcéjnek","esp trial","8","false"
"html-button-response","116","572851","0.0-11.0-1.52","null","<p>A másik játékos ezt választotta: <b>nyarcéjnek</b>.</p><p>&#10060;</p><p>A válaszaitok <b>nem</b> egyeznek meg.</p>","null","","","","feedback trial","",""
"html-button-response-esp","117","576607","0.0-11.0-0.53","1165","Ez itt egy zsopéd. Ott vagyunk a...","1","zsopédban","[""zsopédben"",""zsopédban""]","zsopédben","esp trial","8","false"
"html-button-response","118","580118","0.0-11.0-1.53","null","<p>A másik játékos ezt választotta: <b>zsopédben</b>.</p><p>&#10060;</p><p>A válaszaitok <b>nem</b> egyeznek meg.</p>","null","","","","feedback trial","",""
"html-button-response","119","591783","0.0-12.0","11164","<p>A közös játék most véget ért.</p><p>Mielőtt eláruljuk a végső pontszámodat, arra kérlek, játszd a szóválasztós játékot néhány percig egyedül is.</p><p>A feladatod ugyanaz lesz, választani két lehetőség közül.</p><p>Most viszont egyedül kell döntened, hogy te melyiket választanád.</p>","0","","","","","",""
"html-button-response-clever","120","597768","0.0-13.0-0.0","5473","Ez itt egy darhén. Ott vagyunk a...","1","darhénban","[""darhénben"",""darhénban""]","","posttest trial","1",""
"html-button-response-clever","121","607163","0.0-13.0-0.1","8886","Ez itt egy fájéz. Ott vagyunk a...","1","fájézban","[""fájézben"",""fájézban""]","","posttest trial","1",""
"html-button-response-clever","122","611036","0.0-13.0-0.2","3361","Ez itt egy dalenc. Nincs is jobb egy jó...","0","dalencnél","[""dalencnél"",""dalencnál""]","","posttest trial","1",""
"html-button-response-clever","123","615845","0.0-13.0-0.3","4299","Ez itt egy zsigén. Nincs is jobb egy jó...","1","zsigénnél","[""zsigénnál"",""zsigénnél""]","","posttest trial","1",""
"html-button-response-clever","124","623308","0.0-13.0-0.4","6957","Ez itt egy ronszek. Ott vagyunk a...","0","ronszekben","[""ronszekben"",""ronszekban""]","","posttest trial","1",""
"html-button-response-clever","125","627481","0.0-13.0-0.5","3665","Ez itt egy zsádév. Elneveztem a kutyámat...","1","zsádévnek","[""zsádévnak"",""zsádévnek""]","","posttest trial","1",""
"html-button-response-clever","126","632390","0.0-13.0-0.6","4397","Ez itt egy monveg. Nincs is jobb egy jó...","0","monvegnél","[""monvegnél"",""monvegnál""]","","posttest trial","1",""
"html-button-response-clever","127","636530","0.0-13.0-0.7","3632","Ez itt egy narem. Ott vagyunk a...","1","naremben","[""naremban"",""naremben""]","","posttest trial","1",""
"html-button-response-clever","128","643162","0.0-13.0-0.8","6122","Ez itt egy spumény. Elneveztem a kutyámat...","0","spuménynek","[""spuménynek"",""spuménynak""]","","posttest trial","1",""
"html-button-response-clever","129","649045","0.0-13.0-0.9","5374","Ez itt egy dorzéj. Elneveztem a kutyámat...","0","dorzéjnek","[""dorzéjnek"",""dorzéjnak""]","","posttest trial","1",""
"html-button-response-clever","130","653649","0.0-13.0-0.10","4095","Ez itt egy garcép. Nincs is jobb egy jó...","0","garcépnél","[""garcépnél"",""garcépnál""]","","posttest trial","1",""
"html-button-response-clever","131","657334","0.0-13.0-0.11","3178","Ez itt egy vorszen. Nincs is jobb egy jó...","0","vorszennél","[""vorszennél"",""vorszennál""]","","posttest trial","1",""
"html-button-response-clever","132","660859","0.0-13.0-0.12","3015","Ez itt egy nyupér. Nincs is jobb egy jó...","1","nyupérnél","[""nyupérnál"",""nyupérnél""]","","posttest trial","1",""
"html-button-response-clever","133","664764","0.0-13.0-0.13","3395","Ez itt egy spábét. Ott vagyunk a...","1","spábétban","[""spábétben"",""spábétban""]","","posttest trial","1",""
"html-button-response-clever","134","670052","0.0-13.0-0.14","4780","Ez itt egy pisély. Ott vagyunk a...","0","pisélyben","[""pisélyben"",""pisélyban""]","","posttest trial","1",""
"html-button-response-clever","135","679070","0.0-13.0-0.15","8509","Ez itt egy braszenc. Nincs is jobb egy jó...","0","braszencnél","[""braszencnél"",""braszencnál""]","","posttest trial","1",""
"html-button-response-clever","136","681895","0.0-13.0-0.16","2319","Ez itt egy rapszek. Nincs is jobb egy jó...","0","rapszeknél","[""rapszeknél"",""rapszeknál""]","","posttest trial","1",""
"html-button-response-clever","137","685315","0.0-13.0-0.17","2909","Ez itt egy pivéd. Ott vagyunk a...","1","pivédben","[""pivédban"",""pivédben""]","","posttest trial","1",""
"html-button-response-clever","138","687884","0.0-13.0-0.18","2059","Ez itt egy jóbec. Elneveztem a kutyámat...","0","jóbecnek","[""jóbecnek"",""jóbecnak""]","","posttest trial","1",""
"html-button-response-clever","139","691094","0.0-13.0-0.19","2700","Ez itt egy nyítem. Ott vagyunk a...","1","nyítemben","[""nyítemban"",""nyítemben""]","","posttest trial","1",""
"html-button-response-clever","140","693845","0.0-13.0-0.20","2242","Ez itt egy zihenc. Elneveztem a kutyámat...","1","zihencnek","[""zihencnak"",""zihencnek""]","","posttest trial","1",""
"html-button-response-clever","141","696904","0.0-13.0-0.21","2550","Ez itt egy klingesz. Ott vagyunk a...","1","klingeszben","[""klingeszban"",""klingeszben""]","","posttest trial","1",""
"html-button-response-clever","142","699249","0.0-13.0-0.22","1836","Ez itt egy kalhész. Elneveztem a kutyámat...","1","kalhésznek","[""kalhésznak"",""kalhésznek""]","","posttest trial","1",""
"html-button-response-clever","143","702853","0.0-13.0-0.23","3093","Ez itt egy kalréz. Ott vagyunk a...","1","kalrézben","[""kalrézban"",""kalrézben""]","","posttest trial","1",""
"html-button-response-clever","144","706660","0.0-13.0-0.24","3298","Ez itt egy dábegy. Ott vagyunk a...","0","dábegyben","[""dábegyben"",""dábegyban""]","","posttest trial","1",""
"html-button-response-clever","145","711311","0.0-13.0-0.25","4143","Ez itt egy bupéz. Ott vagyunk a...","0","bupézban","[""bupézban"",""bupézben""]","","posttest trial","1",""
"html-button-response-clever","146","714837","0.0-13.0-0.26","3017","Ez itt egy spicet. Elneveztem a kutyámat...","1","spicetnek","[""spicetnak"",""spicetnek""]","","posttest trial","1",""
"html-button-response-clever","147","719612","0.0-13.0-0.27","4266","Ez itt egy hágyét. Elneveztem a kutyámat...","0","hágyétnek","[""hágyétnek"",""hágyétnak""]","","posttest trial","1",""
"html-button-response-clever","148","724148","0.0-13.0-0.28","4026","Ez itt egy trismél. Elneveztem a kutyámat...","1","trismélnek","[""trismélnak"",""trismélnek""]","","posttest trial","1",""
"html-button-response-clever","149","728595","0.0-13.0-0.29","3939","Ez itt egy priszec. Ott vagyunk a...","1","priszecben","[""priszecban"",""priszecben""]","","posttest trial","1",""
"html-button-response-clever","150","732089","0.0-13.0-0.30","2984","Ez itt egy incéj. Elneveztem a kutyámat...","0","incéjnek","[""incéjnek"",""incéjnak""]","","posttest trial","1",""
"html-button-response-clever","151","735668","0.0-13.0-0.31","3070","Ez itt egy gúden. Ott vagyunk a...","1","gúdenben","[""gúdenban"",""gúdenben""]","","posttest trial","1",""
"html-button-response-clever","152","739175","0.0-13.0-0.32","2996","Ez itt egy jukél. Nincs is jobb egy jó...","0","jukélnél","[""jukélnél"",""jukélnál""]","","posttest trial","1",""
"html-button-response-clever","153","742456","0.0-13.0-0.33","2770","Ez itt egy sprivenc. Nincs is jobb egy jó...","1","sprivencnél","[""sprivencnál"",""sprivencnél""]","","posttest trial","1",""
"html-button-response-clever","154","745740","0.0-13.0-0.34","2774","Ez itt egy sortem. Nincs is jobb egy jó...","0","sortemnél","[""sortemnél"",""sortemnál""]","","posttest trial","1",""
"html-button-response-clever","155","749281","0.0-13.0-0.35","3032","Ez itt egy zopély. Nincs is jobb egy jó...","1","zopélynél","[""zopélynál"",""zopélynél""]","","posttest trial","1",""
"html-button-response-clever","156","757441","0.0-13.0-0.36","7650","Ez itt egy pítend. Ott vagyunk a...","1","pítendben","[""pítendban"",""pítendben""]","","posttest trial","1",""
"html-button-response-clever","157","763165","0.0-13.0-0.37","5215","Ez itt egy tosély. Ott vagyunk a...","0","tosélyban","[""tosélyban"",""tosélyben""]","","posttest trial","1",""
"html-button-response-clever","158","766823","0.0-13.0-0.38","3147","Ez itt egy trájeg. Ott vagyunk a...","0","trájegben","[""trájegben"",""trájegban""]","","posttest trial","1",""
"html-button-response-clever","159","770255","0.0-13.0-0.39","2922","Ez itt egy kaszép. Elneveztem a kutyámat...","0","kaszépnek","[""kaszépnek"",""kaszépnak""]","","posttest trial","1",""
"html-button-response-clever","160","774047","0.0-13.0-0.40","3283","Ez itt egy klosét. Elneveztem a kutyámat...","1","klosétnek","[""klosétnak"",""klosétnek""]","","posttest trial","1",""
"html-button-response-clever","161","777093","0.0-13.0-0.41","2534","Ez itt egy pijél. Nincs is jobb egy jó...","1","pijélnél","[""pijélnál"",""pijélnél""]","","posttest trial","1",""
"html-button-response-clever","162","782844","0.0-13.0-0.42","5243","Ez itt egy lorzens. Nincs is jobb egy jó...","1","lorzensnél","[""lorzensnál"",""lorzensnél""]","","posttest trial","1",""
"html-button-response-clever","163","788788","0.0-13.0-0.43","5436","Ez itt egy bralkép. Ott vagyunk a...","1","bralképban","[""bralképben"",""bralképban""]","","posttest trial","1",""
"html-button-response-clever","164","792556","0.0-13.0-0.44","3255","Ez itt egy luméz. Ott vagyunk a...","1","lumézben","[""lumézban"",""lumézben""]","","posttest trial","1",""
"html-button-response-clever","165","794916","0.0-13.0-0.45","1852","Ez itt egy kátel. Elneveztem a kutyámat...","0","kátelnek","[""kátelnek"",""kátelnak""]","","posttest trial","1",""
"html-button-response-clever","166","797939","0.0-13.0-0.46","2515","Ez itt egy zsúdel. Elneveztem a kutyámat...","0","zsúdelnek","[""zsúdelnek"",""zsúdelnak""]","","posttest trial","1",""
"html-button-response-clever","167","801277","0.0-13.0-0.47","2829","Ez itt egy zsáder. Ott vagyunk a...","1","zsáderben","[""zsáderban"",""zsáderben""]","","posttest trial","1",""
"html-button-response-clever","168","810208","0.0-13.0-0.48","8425","Ez itt egy dihely. Elneveztem a kutyámat...","1","dihelynek","[""dihelynak"",""dihelynek""]","","posttest trial","1",""
"html-button-response-clever","169","812850","0.0-13.0-0.49","2134","Ez itt egy brindez. Elneveztem a kutyámat...","1","brindeznek","[""brindeznak"",""brindeznek""]","","posttest trial","1",""
"html-button-response-clever","170","815743","0.0-13.0-0.50","2386","Ez itt egy nyamet. Ott vagyunk a...","0","nyametben","[""nyametben"",""nyametban""]","","posttest trial","1",""
"html-button-response-clever","171","818266","0.0-13.0-0.51","2013","Ez itt egy spanél. Nincs is jobb egy jó...","0","spanélnél","[""spanélnél"",""spanélnál""]","","posttest trial","1",""
"html-button-response-clever","172","820657","0.0-13.0-0.52","1881","Ez itt egy ítens. Ott vagyunk a...","0","ítensban","[""ítensban"",""ítensben""]","","posttest trial","1",""
"html-button-response-clever","173","825081","0.0-13.0-0.53","3913","Ez itt egy danét. Nincs is jobb egy jó...","0","danétnél","[""danétnél"",""danétnál""]","","posttest trial","1",""
"html-button-response","174","840182","0.0-14.0","14591","<p> Vége a játéknak. A teljes pontszámod 27/54.</p><p> Szép munka! &#128526;&#128526;&#128526;</p><p>A Befejezés gomb megnyomása után bezárhatod a böngészőablakot.</p>","0","","","","","",""
"html-keyboard-response","175","845706","0.0-15.0","null","<div class=""message"">
         <p>Egy kis türelmet kérünk, amíg elmentjük az adatokat...</p>
         </div>","null","","","","","",""
