"trial_type","trial_index","time_elapsed","internal_node_id","rt","stimulus","response","response_string","choices","esp_response","trial_kind","list_number","esp_match"
"pavlovia","0","795","0.0-0.0","","","","","","","","",""
"html-button-response","1","6975","0.0-1.0","5668","<p>Kedves Résztvevő! A Budapesti Műszaki és Gazdaságtudományi Egyetem Kognitív Tudományi Tanszékének kutatásában való részvételed kérjük. A kutatásban azt vizsgáljuk, hogy a magyar anyanyelvűek hogyan használnak bizonyos szóalakokat, és hogy milyen képük van arról, hogy mások hogyan használják, hogyan képzik a szavakat. Ez hozzásegít bennünket ahhoz, hogy jobban megértsük, hogyan dolgozza fel és tárolja a nyelvet az emberi agy, és hogyan működnek, hogyan változnak egy adott közösség nyelvi konvenciói.</p><p>A vizsgálat egy rövid számítógépes feladatból fog állni. A kutatásban való részvétel önkéntes, a részvételi szándék bármikor visszavonható. A résztvevők eredményeit név nélkül kezeljük, így nem beazonosíthatók az adatok feldolgozása során. Minden személyes adatot az EU általános adatvédelmi rendeletének (GDPR) megfelelően kezelünk és legfeljebb öt éven belül megsemmisítünk. A vizsgálat jellemzően húsz percet vesz igénybe.</p><p>Kutatásvezető:</p><p>Dr. Rácz Péter, tudományos munkatárs, BME KTT</p><p>e-mail: racz.peter.marton@ttk.bme.hu</p>","0","","","","","",""
"html-button-response","2","8858","0.0-2.0","1379","<p>A kísérletben szavakat fogsz látni. Ezek között lesznek olyanok, amelyeket ismersz, de előfordulhatnak olyanok is, amelyeket nem ismersz, sőt, vannak köztük kitalált szavak is. Minden szónál látni fogsz toldalékolt alakokat. A te feladatod az lesz, hogy minden szóhoz kiválaszd azt a toldalékolt alakot, amely a te számodra ismerősebben, természetesebben hangzik. Rossz válaszok nincsenek, mert van olyan, hogy különböző embereknek más és más szó tűnik jobb választásnak. A választ úgy tudod majd kiválasztani, ha rákattintasz.</p><p>Ebben a szóválasztós játékban egy másik játékossal együtt veszel majd részt. A másik játékos is minden esetben azok közül a lehetőségek közül válogathat, mint te. Kettőtök feladata az, hogy ugyanazt a lehetőséget válasszátok minden esetben. Ahhoz, hogy ez sikerüljön, neked figyelned kell arra, hogy a másik játékos milyen válaszokat ad, és ennek alapján meg kell tippelned, hogyan választ legközelebb. Ha eltalálod, akkor pontot kapsz.</p>","0","","","","","",""
"html-button-response","3","11752","0.0-3.0","2379","<p>Kérjük, olvasd el az alábbi nyilatkozatot, és amennyiben egyetértesz vele, nyomj a Beleegyezés gombra!</p><p>Kijelentem, hogy magyar anyanyelvű személyként önként veszek részt a BME KTT kísérletében. A kutatás céljával és folyamatával kapcsolatban elegendő tájékoztatást kaptam, lehetőségem volt kérdések feltételére, és esetleges kérdéseimre megfelelő válaszokat kaptam. A tájékoztatás alapján elegendő mennyiségű információ áll a rendelkezésemre, hogy eldönthessem, részt kívánok-e venni a kutatásban.</p><p>Tisztában vagyok vele, hogy részvételi szándékomat és adataimat bármikor, indoklás nélkül visszavonhatom.</p><p>Értem és tudomásul veszem, hogy a kutatás tudományos célokat szolgál, és az általam szolgáltatott adatokat a BME kizárólag kutatási célból használja fel. Tudomásul veszem, hogy eredményeimet a többi résztvevő eredményeivel együtt kezelik, így egyéni teljesítményemről visszajelzést, szakvéleményt nem kapok.</p><p>Megértettem, hogy adataim kezelését illetően a BME az EU általános adatvédelmi rendelete (GDPR), a hatályos adatvédelmi törvény és a nemzetközi kutatás-etikai alapelvek szerint jár el. Eredményeim anonim módon kerülnek feldolgozásra, és a kutatás résztvevői az azonosításomra alkalmas adataimat harmadik félnek nem szolgáltatják ki. Engedélyezem a BME számára a jelen kutatásban felvett adataim feldolgozását és tárolását, beleértve azok későbbi kutatásokhoz való felhasználását is. Személyes adataim kezelésével kapcsolatban tájékoztatást kérhetek a kutatás résztvevőitől, az adatkezelés ellen tiltakozhatok, kérhetem személyes adataim helyesbítését, törlését vagy zárolását, valamint jogorvoslatért a Nemzeti Adatvédelmi és Információszabadság Hatósághoz fordulhatok.</p><p>Kijelentem, hogy a kutatásban való részvételem körülményeiről részletes tájékoztatást kaptam, és a feltételeket elfogadom.</p>","0","","","","","",""
"survey-text","4","43674","0.0-4.0","31408","","{""Q0"":""D7J4K6"",""Q1"":""nő"",""Q2"":""1992"",""Q3"":""túl sokat""}","","","","","",""
"html-button-response","5","57130","0.0-5.0","12943","<p>Ebben a játékban szavakat kell toldalékolni.</p> <p>Minden körben mutatunk majd egy példamondatot, amiben lesz egy szó.</p> <p>Alatta jön egy második mondat, ezt a mondatot neked kell majd befejezni, ugyanezzel a szóval.</p> <p>Nem biztos, hogy a szó eleve ismerős lesz számodra!</p> <p>Minden mondathoz adunk két lehetőséget, ezeket balra és jobbra látod majd.</p> <p>A játék kb. negyedóráig-húsz percig tart.</p>","0","","","","","",""
"html-button-response","6","69028","0.0-6.0","11385","<p>Nézzünk egy példát!</p> <p>A példamondat: ""Ez itt egy blumbnyeg.""</p><p>Neked ezt a mondatot kell befejezned: ""Ott vagyunk a...""</p><p>A lehetőségek pedig ezek:</p>","0","","","","","",""
"html-button-response","7","75330","0.0-7.0","5800","<p>Nagyon jó.</p><p>Ezt a játékot nem egyedül fogod játszani, hanem egy másik játékossal.</p><p>Mielőtt továbblépünk, összekapcsolunk titeket egymással.</p><p>Ez igénybe vehet néhány másodpercet, amihez szíves türelmed kérjük.</p>","0","","","","","",""
"html-button-response","8","81063","0.0-8.0","null","<p>Csatlakozás a másik játékoshoz...</p>","null","","","","","",""
"html-button-response","9","83579","0.0-9.0","null","<p> Sikeres kapcsolódás!</p>","null","","","","","",""
"html-button-response","10","87317","0.0-10.0","3232","<p>A következőkben ketten játsszátok a szóválasztós játékot.</p><p>A feladatotok az lesz, hogy minden körben <b>ugyanazt</b> a szót válasszátok.</p><p>Minden ilyen egyező válaszért pontot kaptok.</p><p>Próbáld meg kitalálni, mit választ a másik játékos!</p><p>Bármikor választhatsz, a körnek akkor van vége, ha mindketten döntöttetek.</p><p>Sok sikert!</p>","0","","","","","",""
"html-button-response-esp","11","96824","0.0-11.0-0.0","8995","Ez itt egy zsopéd. Ott vagyunk a...","0","zsopédban","[""zsopédban"",""zsopédben""]","zsopédben","esp trial","8","false"
"html-button-response","12","100335","0.0-11.0-1.0","null","<p>A másik játékos ezt választotta: <b>zsopédben</b>.</p><p>&#10060;</p><p>A válaszaitok <b>nem</b> egyeznek meg.</p>","null","","","","feedback trial","",""
"html-button-response-esp","13","107214","0.0-11.0-0.1","5431","Ez itt egy vublet. Nincs is jobb egy jó...","0","vubletnél","[""vubletnél"",""vubletnál""]","vubletnál","esp trial","8","false"
"html-button-response","14","110734","0.0-11.0-1.1","null","<p>A másik játékos ezt választotta: <b>vubletnál</b>.</p><p>&#10060;</p><p>A válaszaitok <b>nem</b> egyeznek meg.</p>","null","","","","feedback trial","",""
"html-button-response-esp","15","122266","0.0-11.0-0.2","11032","Ez itt egy trincseg. Ott vagyunk a...","1","trincsegben","[""trincsegban"",""trincsegben""]","trincsegban","esp trial","8","false"
"html-button-response","16","125780","0.0-11.0-1.2","null","<p>A másik játékos ezt választotta: <b>trincsegban</b>.</p><p>&#10060;</p><p>A válaszaitok <b>nem</b> egyeznek meg.</p>","null","","","","feedback trial","",""
"html-button-response-esp","17","132636","0.0-11.0-0.3","4331","Ez itt egy hivép. Ott vagyunk a...","0","hivépben","[""hivépben"",""hivépban""]","hivépban","esp trial","8","false"
"html-button-response","18","136150","0.0-11.0-1.3","null","<p>A másik játékos ezt választotta: <b>hivépban</b>.</p><p>&#10060;</p><p>A válaszaitok <b>nem</b> egyeznek meg.</p>","null","","","","feedback trial","",""
"html-button-response-esp","19","145238","0.0-11.0-0.4","8573","Ez itt egy jalrény. Nincs is jobb egy jó...","0","jalrénynál","[""jalrénynál"",""jalrénynél""]","jalrénynél","esp trial","8","false"
"html-button-response","20","148754","0.0-11.0-1.4","null","<p>A másik játékos ezt választotta: <b>jalrénynél</b>.</p><p>&#10060;</p><p>A válaszaitok <b>nem</b> egyeznek meg.</p>","null","","","","feedback trial","",""
"html-button-response-esp","21","156285","0.0-11.0-0.5","7017","Ez itt egy spáten. Elneveztem a kutyámat...","1","spátennak","[""spátennek"",""spátennak""]","spátennak","esp trial","8","true"
"html-button-response","22","159797","0.0-11.0-1.5","null","<p>A másik játékos ezt választotta: <b>spátennak</b>.</p><p>&#x2705;</p><p>A te válaszod és a másik játékos válasza <b>megegyeznek</b>.</p>","null","","","","feedback trial","",""
"html-button-response-esp","23","166667","0.0-11.0-0.6","4933","Ez itt egy prately. Elneveztem a kutyámat...","1","pratelynak","[""pratelynek"",""pratelynak""]","pratelynak","esp trial","8","true"
"html-button-response","24","170183","0.0-11.0-1.6","null","<p>A másik játékos ezt választotta: <b>pratelynak</b>.</p><p>&#x2705;</p><p>A te válaszod és a másik játékos válasza <b>megegyeznek</b>.</p>","null","","","","feedback trial","",""
"html-button-response-esp","25","178798","0.0-11.0-0.7","8116","Ez itt egy gicéj. Nincs is jobb egy jó...","0","gicéjnál","[""gicéjnál"",""gicéjnél""]","gicéjnál","esp trial","8","true"
"html-button-response","26","182315","0.0-11.0-1.7","null","<p>A másik játékos ezt választotta: <b>gicéjnál</b>.</p><p>&#x2705;</p><p>A te válaszod és a másik játékos válasza <b>megegyeznek</b>.</p>","null","","","","feedback trial","",""
"html-button-response-esp","27","189182","0.0-11.0-0.8","3730","Ez itt egy gótem. Elneveztem a kutyámat...","1","gótemnak","[""gótemnek"",""gótemnak""]","gótemnak","esp trial","8","true"
"html-button-response","28","192692","0.0-11.0-1.8","null","<p>A másik játékos ezt választotta: <b>gótemnak</b>.</p><p>&#x2705;</p><p>A te válaszod és a másik játékos válasza <b>megegyeznek</b>.</p>","null","","","","feedback trial","",""
"html-button-response-esp","29","199558","0.0-11.0-0.9","2393","Ez itt egy sporzem. Elneveztem a kutyámat...","1","sporzemnak","[""sporzemnek"",""sporzemnak""]","sporzemnak","esp trial","8","true"
"html-button-response","30","203078","0.0-11.0-1.9","null","<p>A másik játékos ezt választotta: <b>sporzemnak</b>.</p><p>&#x2705;</p><p>A te válaszod és a másik játékos válasza <b>megegyeznek</b>.</p>","null","","","","feedback trial","",""
"html-button-response-esp","31","209952","0.0-11.0-0.10","4049","Ez itt egy kadér. Nincs is jobb egy jó...","1","kadérnál","[""kadérnél"",""kadérnál""]","kadérnél","esp trial","8","false"
"html-button-response","32","213472","0.0-11.0-1.10","null","<p>A másik játékos ezt választotta: <b>kadérnél</b>.</p><p>&#10060;</p><p>A válaszaitok <b>nem</b> egyeznek meg.</p>","null","","","","feedback trial","",""
"html-button-response-esp","33","220343","0.0-11.0-0.11","3155","Ez itt egy szihét. Elneveztem a kutyámat...","1","szihétnak","[""szihétnek"",""szihétnak""]","szihétnak","esp trial","8","true"
"html-button-response","34","223847","0.0-11.0-1.11","null","<p>A másik játékos ezt választotta: <b>szihétnak</b>.</p><p>&#x2705;</p><p>A te válaszod és a másik játékos válasza <b>megegyeznek</b>.</p>","null","","","","feedback trial","",""
"html-button-response-esp","35","230720","0.0-11.0-0.12","3269","Ez itt egy tránély. Elneveztem a kutyámat...","1","tránélynak","[""tránélynek"",""tránélynak""]","tránélynek","esp trial","8","false"
"html-button-response","36","234243","0.0-11.0-1.12","null","<p>A másik játékos ezt választotta: <b>tránélynek</b>.</p><p>&#10060;</p><p>A válaszaitok <b>nem</b> egyeznek meg.</p>","null","","","","feedback trial","",""
"html-button-response-esp","37","243294","0.0-11.0-0.13","8542","Ez itt egy brigeszt. Elneveztem a kutyámat...","1","brigesztnek","[""brigesztnak"",""brigesztnek""]","brigesztnak","esp trial","8","false"
"html-button-response","38","246804","0.0-11.0-1.13","null","<p>A másik játékos ezt választotta: <b>brigesztnak</b>.</p><p>&#10060;</p><p>A válaszaitok <b>nem</b> egyeznek meg.</p>","null","","","","feedback trial","",""
"html-button-response-esp","39","253666","0.0-11.0-0.14","4132","Ez itt egy vodép. Elneveztem a kutyámat...","1","vodépnak","[""vodépnek"",""vodépnak""]","vodépnak","esp trial","8","true"
"html-button-response","40","257189","0.0-11.0-1.14","null","<p>A másik játékos ezt választotta: <b>vodépnak</b>.</p><p>&#x2705;</p><p>A te válaszod és a másik játékos válasza <b>megegyeznek</b>.</p>","null","","","","feedback trial","",""
"html-button-response-esp","41","264057","0.0-11.0-0.15","2959","Ez itt egy fádens. Elneveztem a kutyámat...","1","fádensnek","[""fádensnak"",""fádensnek""]","fádensnak","esp trial","8","false"
"html-button-response","42","267562","0.0-11.0-1.15","null","<p>A másik játékos ezt választotta: <b>fádensnak</b>.</p><p>&#10060;</p><p>A válaszaitok <b>nem</b> egyeznek meg.</p>","null","","","","feedback trial","",""
"html-button-response-esp","43","274446","0.0-11.0-0.16","4020","Ez itt egy brukész. Nincs is jobb egy jó...","1","brukésznél","[""brukésznál"",""brukésznél""]","brukésznál","esp trial","8","false"
"html-button-response","44","277969","0.0-11.0-1.16","null","<p>A másik játékos ezt választotta: <b>brukésznál</b>.</p><p>&#10060;</p><p>A válaszaitok <b>nem</b> egyeznek meg.</p>","null","","","","feedback trial","",""
"html-button-response-esp","45","284837","0.0-11.0-0.17","4440","Ez itt egy bidem. Ott vagyunk a...","1","bidemben","[""bidemban"",""bidemben""]","bidemban","esp trial","8","false"
"html-button-response","46","288339","0.0-11.0-1.17","null","<p>A másik játékos ezt választotta: <b>bidemban</b>.</p><p>&#10060;</p><p>A válaszaitok <b>nem</b> egyeznek meg.</p>","null","","","","feedback trial","",""
"html-button-response-esp","47","295207","0.0-11.0-0.18","3111","Ez itt egy gonszék. Nincs is jobb egy jó...","0","gonszéknél","[""gonszéknél"",""gonszéknál""]","gonszéknál","esp trial","8","false"
"html-button-response","48","298725","0.0-11.0-1.18","null","<p>A másik játékos ezt választotta: <b>gonszéknál</b>.</p><p>&#10060;</p><p>A válaszaitok <b>nem</b> egyeznek meg.</p>","null","","","","feedback trial","",""
"html-button-response-esp","49","305600","0.0-11.0-0.19","2869","Ez itt egy forzéd. Elneveztem a kutyámat...","0","forzédnak","[""forzédnak"",""forzédnek""]","forzédnak","esp trial","8","true"
"html-button-response","50","309111","0.0-11.0-1.19","null","<p>A másik játékos ezt választotta: <b>forzédnak</b>.</p><p>&#x2705;</p><p>A te válaszod és a másik játékos válasza <b>megegyeznek</b>.</p>","null","","","","feedback trial","",""
"html-button-response-esp","51","315968","0.0-11.0-0.20","4309","Ez itt egy trapszegy. Nincs is jobb egy jó...","0","trapszegynél","[""trapszegynél"",""trapszegynál""]","trapszegynál","esp trial","8","false"
"html-button-response","52","319483","0.0-11.0-1.20","null","<p>A másik játékos ezt választotta: <b>trapszegynál</b>.</p><p>&#10060;</p><p>A válaszaitok <b>nem</b> egyeznek meg.</p>","null","","","","feedback trial","",""
"html-button-response-esp","53","326352","0.0-11.0-0.21","2657","Ez itt egy nyábét. Ott vagyunk a...","0","nyábétban","[""nyábétban"",""nyábétben""]","nyábétben","esp trial","8","false"
"html-button-response","54","329868","0.0-11.0-1.21","null","<p>A másik játékos ezt választotta: <b>nyábétben</b>.</p><p>&#10060;</p><p>A válaszaitok <b>nem</b> egyeznek meg.</p>","null","","","","feedback trial","",""
"html-button-response-esp","55","336727","0.0-11.0-0.22","5895","Ez itt egy csinték. Ott vagyunk a...","1","csintékban","[""csintékben"",""csintékban""]","csintékban","esp trial","8","true"
"html-button-response","56","340243","0.0-11.0-1.22","null","<p>A másik játékos ezt választotta: <b>csintékban</b>.</p><p>&#x2705;</p><p>A te válaszod és a másik játékos válasza <b>megegyeznek</b>.</p>","null","","","","feedback trial","",""
"html-button-response-esp","57","347108","0.0-11.0-0.23","3027","Ez itt egy jábéz. Ott vagyunk a...","1","jábézban","[""jábézben"",""jábézban""]","jábézben","esp trial","8","false"
"html-button-response","58","350614","0.0-11.0-1.23","null","<p>A másik játékos ezt választotta: <b>jábézben</b>.</p><p>&#10060;</p><p>A válaszaitok <b>nem</b> egyeznek meg.</p>","null","","","","feedback trial","",""
"html-button-response-esp","59","357486","0.0-11.0-0.24","2842","Ez itt egy licegy. Ott vagyunk a...","0","licegyban","[""licegyban"",""licegyben""]","licegyban","esp trial","8","true"
"html-button-response","60","361006","0.0-11.0-1.24","null","<p>A másik játékos ezt választotta: <b>licegyban</b>.</p><p>&#x2705;</p><p>A te válaszod és a másik játékos válasza <b>megegyeznek</b>.</p>","null","","","","feedback trial","",""
"html-button-response-esp","61","367873","0.0-11.0-0.25","2335","Ez itt egy matéz. Ott vagyunk a...","1","matézban","[""matézben"",""matézban""]","matézben","esp trial","8","false"
"html-button-response","62","371401","0.0-11.0-1.25","null","<p>A másik játékos ezt választotta: <b>matézben</b>.</p><p>&#10060;</p><p>A válaszaitok <b>nem</b> egyeznek meg.</p>","null","","","","feedback trial","",""
"html-button-response-esp","63","378253","0.0-11.0-0.26","2590","Ez itt egy lismév. Ott vagyunk a...","1","lismévban","[""lismévben"",""lismévban""]","lismévban","esp trial","8","true"
"html-button-response","64","381758","0.0-11.0-1.26","null","<p>A másik játékos ezt választotta: <b>lismévban</b>.</p><p>&#x2705;</p><p>A te válaszod és a másik játékos válasza <b>megegyeznek</b>.</p>","null","","","","feedback trial","",""
"html-button-response-esp","65","388628","0.0-11.0-0.27","3637","Ez itt egy klordény. Elneveztem a kutyámat...","0","klordénynak","[""klordénynak"",""klordénynek""]","klordénynek","esp trial","8","false"
"html-button-response","66","392141","0.0-11.0-1.27","null","<p>A másik játékos ezt választotta: <b>klordénynek</b>.</p><p>&#10060;</p><p>A válaszaitok <b>nem</b> egyeznek meg.</p>","null","","","","feedback trial","",""
"html-button-response-esp","67","399005","0.0-11.0-0.28","3114","Ez itt egy kliszer. Nincs is jobb egy jó...","1","kliszernél","[""kliszernál"",""kliszernél""]","kliszernál","esp trial","8","false"
"html-button-response","68","402523","0.0-11.0-1.28","null","<p>A másik játékos ezt választotta: <b>kliszernál</b>.</p><p>&#10060;</p><p>A válaszaitok <b>nem</b> egyeznek meg.</p>","null","","","","feedback trial","",""
"html-button-response-esp","69","409378","0.0-11.0-0.29","4723","Ez itt egy júder. Elneveztem a kutyámat...","0","júdernek","[""júdernek"",""júdernak""]","júdernak","esp trial","8","false"
"html-button-response","70","412881","0.0-11.0-1.29","null","<p>A másik játékos ezt választotta: <b>júdernak</b>.</p><p>&#10060;</p><p>A válaszaitok <b>nem</b> egyeznek meg.</p>","null","","","","feedback trial","",""
"html-button-response-esp","71","419757","0.0-11.0-0.30","2474","Ez itt egy trigenc. Elneveztem a kutyámat...","0","trigencnak","[""trigencnak"",""trigencnek""]","trigencnak","esp trial","8","true"
"html-button-response","72","423271","0.0-11.0-1.30","null","<p>A másik játékos ezt választotta: <b>trigencnak</b>.</p><p>&#x2705;</p><p>A te válaszod és a másik játékos válasza <b>megegyeznek</b>.</p>","null","","","","feedback trial","",""
"html-button-response-esp","73","430138","0.0-11.0-0.31","5040","Ez itt egy sprízem. Nincs is jobb egy jó...","1","sprízemnél","[""sprízemnál"",""sprízemnél""]","sprízemnál","esp trial","8","false"
"html-button-response","74","433646","0.0-11.0-1.31","null","<p>A másik játékos ezt választotta: <b>sprízemnál</b>.</p><p>&#10060;</p><p>A válaszaitok <b>nem</b> egyeznek meg.</p>","null","","","","feedback trial","",""
"html-button-response-esp","75","440513","0.0-11.0-0.32","2285","Ez itt egy tranék. Ott vagyunk a...","0","tranékban","[""tranékban"",""tranékben""]","tranékben","esp trial","8","false"
"html-button-response","76","444034","0.0-11.0-1.32","null","<p>A másik játékos ezt választotta: <b>tranékben</b>.</p><p>&#10060;</p><p>A válaszaitok <b>nem</b> egyeznek meg.</p>","null","","","","feedback trial","",""
"html-button-response-esp","77","450910","0.0-11.0-0.33","2299","Ez itt egy brotes. Ott vagyunk a...","0","brotesben","[""brotesben"",""brotesban""]","brotesben","esp trial","8","true"
"html-button-response","78","454434","0.0-11.0-1.33","null","<p>A másik játékos ezt választotta: <b>brotesben</b>.</p><p>&#x2705;</p><p>A te válaszod és a másik játékos válasza <b>megegyeznek</b>.</p>","null","","","","feedback trial","",""
"html-button-response-esp","79","461297","0.0-11.0-0.34","6215","Ez itt egy csartény. Elneveztem a kutyámat...","1","csarténynak","[""csarténynek"",""csarténynak""]","csarténynek","esp trial","8","false"
"html-button-response","80","464814","0.0-11.0-1.34","null","<p>A másik játékos ezt választotta: <b>csarténynek</b>.</p><p>&#10060;</p><p>A válaszaitok <b>nem</b> egyeznek meg.</p>","null","","","","feedback trial","",""
"html-button-response-esp","81","471690","0.0-11.0-0.35","1834","Ez itt egy dingec. Elneveztem a kutyámat...","1","dingecnak","[""dingecnek"",""dingecnak""]","dingecnak","esp trial","8","true"
"html-button-response","82","475202","0.0-11.0-1.35","null","<p>A másik játékos ezt választotta: <b>dingecnak</b>.</p><p>&#x2705;</p><p>A te válaszod és a másik játékos válasza <b>megegyeznek</b>.</p>","null","","","","feedback trial","",""
"html-button-response-esp","83","482055","0.0-11.0-0.36","4519","Ez itt egy buhény. Ott vagyunk a...","1","buhényban","[""buhényben"",""buhényban""]","buhényben","esp trial","8","false"
"html-button-response","84","485560","0.0-11.0-1.36","null","<p>A másik játékos ezt választotta: <b>buhényben</b>.</p><p>&#10060;</p><p>A válaszaitok <b>nem</b> egyeznek meg.</p>","null","","","","feedback trial","",""
"html-button-response-esp","85","492423","0.0-11.0-0.37","2585","Ez itt egy ronvet. Elneveztem a kutyámat...","0","ronvetnak","[""ronvetnak"",""ronvetnek""]","ronvetnak","esp trial","8","true"
"html-button-response","86","495945","0.0-11.0-1.37","null","<p>A másik játékos ezt választotta: <b>ronvetnak</b>.</p><p>&#x2705;</p><p>A te válaszod és a másik játékos válasza <b>megegyeznek</b>.</p>","null","","","","feedback trial","",""
"html-button-response-esp","87","502806","0.0-11.0-0.38","4446","Ez itt egy csimen. Nincs is jobb egy jó...","0","csimennál","[""csimennál"",""csimennél""]","csimennál","esp trial","8","true"
"html-button-response","88","506324","0.0-11.0-1.38","null","<p>A másik játékos ezt választotta: <b>csimennál</b>.</p><p>&#x2705;</p><p>A te válaszod és a másik játékos válasza <b>megegyeznek</b>.</p>","null","","","","feedback trial","",""
"html-button-response-esp","89","513201","0.0-11.0-0.39","1756","Ez itt egy priszkenc. Elneveztem a kutyámat...","0","priszkencnak","[""priszkencnak"",""priszkencnek""]","priszkencnak","esp trial","8","true"
"html-button-response","90","516719","0.0-11.0-1.39","null","<p>A másik játékos ezt választotta: <b>priszkencnak</b>.</p><p>&#x2705;</p><p>A te válaszod és a másik játékos válasza <b>megegyeznek</b>.</p>","null","","","","feedback trial","",""
"html-button-response-esp","91","523587","0.0-11.0-0.40","4604","Ez itt egy fincek. Nincs is jobb egy jó...","0","finceknál","[""finceknál"",""finceknél""]","finceknál","esp trial","8","true"
"html-button-response","92","527103","0.0-11.0-1.40","null","<p>A másik játékos ezt választotta: <b>finceknál</b>.</p><p>&#x2705;</p><p>A te válaszod és a másik játékos válasza <b>megegyeznek</b>.</p>","null","","","","feedback trial","",""
"html-button-response-esp","93","533970","0.0-11.0-0.41","3350","Ez itt egy hóbens. Ott vagyunk a...","1","hóbensban","[""hóbensben"",""hóbensban""]","hóbensban","esp trial","8","true"
"html-button-response","94","537489","0.0-11.0-1.41","null","<p>A másik játékos ezt választotta: <b>hóbensban</b>.</p><p>&#x2705;</p><p>A te válaszod és a másik játékos válasza <b>megegyeznek</b>.</p>","null","","","","feedback trial","",""
"html-button-response-esp","95","544344","0.0-11.0-0.42","2070","Ez itt egy ikszert. Ott vagyunk a...","0","ikszertban","[""ikszertban"",""ikszertben""]","ikszertban","esp trial","8","true"
"html-button-response","96","547870","0.0-11.0-1.42","null","<p>A másik játékos ezt választotta: <b>ikszertban</b>.</p><p>&#x2705;</p><p>A te válaszod és a másik játékos válasza <b>megegyeznek</b>.</p>","null","","","","feedback trial","",""
"html-button-response-esp","97","554723","0.0-11.0-0.43","1522","Ez itt egy kluhéj. Nincs is jobb egy jó...","1","kluhéjnál","[""kluhéjnél"",""kluhéjnál""]","kluhéjnél","esp trial","8","false"
"html-button-response","98","558242","0.0-11.0-1.43","null","<p>A másik játékos ezt választotta: <b>kluhéjnél</b>.</p><p>&#10060;</p><p>A válaszaitok <b>nem</b> egyeznek meg.</p>","null","","","","feedback trial","",""
"html-button-response-esp","99","565108","0.0-11.0-0.44","1426","Ez itt egy szutend. Ott vagyunk a...","0","szutendban","[""szutendban"",""szutendben""]","szutendban","esp trial","8","true"
"html-button-response","100","568624","0.0-11.0-1.44","null","<p>A másik játékos ezt választotta: <b>szutendban</b>.</p><p>&#x2705;</p><p>A te válaszod és a másik játékos válasza <b>megegyeznek</b>.</p>","null","","","","feedback trial","",""
"html-button-response-esp","101","575478","0.0-11.0-0.45","3358","Ez itt egy nyarcéj. Elneveztem a kutyámat...","0","nyarcéjnak","[""nyarcéjnak"",""nyarcéjnek""]","nyarcéjnek","esp trial","8","false"
"html-button-response","102","579004","0.0-11.0-1.45","null","<p>A másik játékos ezt választotta: <b>nyarcéjnek</b>.</p><p>&#10060;</p><p>A válaszaitok <b>nem</b> egyeznek meg.</p>","null","","","","feedback trial","",""
"html-button-response-esp","103","585859","0.0-11.0-0.46","1799","Ez itt egy jorzég. Elneveztem a kutyámat...","0","jorzégnak","[""jorzégnak"",""jorzégnek""]","jorzégnak","esp trial","8","true"
"html-button-response","104","589371","0.0-11.0-1.46","null","<p>A másik játékos ezt választotta: <b>jorzégnak</b>.</p><p>&#x2705;</p><p>A te válaszod és a másik játékos válasza <b>megegyeznek</b>.</p>","null","","","","feedback trial","",""
"html-button-response-esp","105","596235","0.0-11.0-0.47","2050","Ez itt egy sartely. Ott vagyunk a...","1","sartelyban","[""sartelyben"",""sartelyban""]","sartelyban","esp trial","8","true"
"html-button-response","106","599756","0.0-11.0-1.47","null","<p>A másik játékos ezt választotta: <b>sartelyban</b>.</p><p>&#x2705;</p><p>A te válaszod és a másik játékos válasza <b>megegyeznek</b>.</p>","null","","","","feedback trial","",""
"html-button-response-esp","107","606612","0.0-11.0-0.48","1080","Ez itt egy brágéd. Elneveztem a kutyámat...","1","brágédnak","[""brágédnek"",""brágédnak""]","brágédnek","esp trial","8","false"
"html-button-response","108","610113","0.0-11.0-1.48","null","<p>A másik játékos ezt választotta: <b>brágédnek</b>.</p><p>&#10060;</p><p>A válaszaitok <b>nem</b> egyeznek meg.</p>","null","","","","feedback trial","",""
"html-button-response-esp","109","616970","0.0-11.0-0.49","1558","Ez itt egy giheszt. Elneveztem a kutyámat...","0","gihesztnak","[""gihesztnak"",""gihesztnek""]","gihesztnak","esp trial","8","true"
"html-button-response","110","620475","0.0-11.0-1.49","null","<p>A másik játékos ezt választotta: <b>gihesztnak</b>.</p><p>&#x2705;</p><p>A te válaszod és a másik játékos válasza <b>megegyeznek</b>.</p>","null","","","","feedback trial","",""
"html-button-response-esp","111","627343","0.0-11.0-0.50","1160","Ez itt egy bródesz. Elneveztem a kutyámat...","0","bródesznak","[""bródesznak"",""bródesznek""]","bródesznak","esp trial","8","true"
"html-button-response","112","630851","0.0-11.0-1.50","null","<p>A másik játékos ezt választotta: <b>bródesznak</b>.</p><p>&#x2705;</p><p>A te válaszod és a másik játékos válasza <b>megegyeznek</b>.</p>","null","","","","feedback trial","",""
"html-button-response-esp","113","637721","0.0-11.0-0.51","1599","Ez itt egy navec. Ott vagyunk a...","1","navecban","[""navecben"",""navecban""]","navecban","esp trial","8","true"
"html-button-response","114","641226","0.0-11.0-1.51","null","<p>A másik játékos ezt választotta: <b>navecban</b>.</p><p>&#x2705;</p><p>A te válaszod és a másik játékos válasza <b>megegyeznek</b>.</p>","null","","","","feedback trial","",""
"html-button-response-esp","115","648090","0.0-11.0-0.52","4172","Ez itt egy kábesz. Nincs is jobb egy jó...","0","kábesznál","[""kábesznál"",""kábesznél""]","kábesznál","esp trial","8","true"
"html-button-response","116","651605","0.0-11.0-1.52","null","<p>A másik játékos ezt választotta: <b>kábesznál</b>.</p><p>&#x2705;</p><p>A te válaszod és a másik játékos válasza <b>megegyeznek</b>.</p>","null","","","","feedback trial","",""
"html-button-response-esp","117","658489","0.0-11.0-0.53","1522","Ez itt egy nidét. Ott vagyunk a...","1","nidétban","[""nidétben"",""nidétban""]","nidétban","esp trial","8","true"
"html-button-response","118","662015","0.0-11.0-1.53","null","<p>A másik játékos ezt választotta: <b>nidétban</b>.</p><p>&#x2705;</p><p>A te válaszod és a másik játékos válasza <b>megegyeznek</b>.</p>","null","","","","feedback trial","",""
"html-button-response","119","671591","0.0-12.0","9062","<p>A közös játék most véget ért.</p><p>Mielőtt eláruljuk a végső pontszámodat, arra kérlek, játszd a szóválasztós játékot néhány percig egyedül is.</p><p>A feladatod ugyanaz lesz, választani két lehetőség közül.</p><p>Most viszont egyedül kell döntened, hogy te melyiket választanád.</p>","0","","","","","",""
"html-button-response-clever","120","675652","0.0-13.0-0.0","3558","Ez itt egy incéj. Elneveztem a kutyámat...","0","incéjnak","[""incéjnak"",""incéjnek""]","","posttest trial","1",""
"html-button-response-clever","121","677578","0.0-13.0-0.1","1415","Ez itt egy kátel. Elneveztem a kutyámat...","0","kátelnak","[""kátelnak"",""kátelnek""]","","posttest trial","1",""
"html-button-response-clever","122","679457","0.0-13.0-0.2","1365","Ez itt egy dihely. Elneveztem a kutyámat...","1","dihelynak","[""dihelynek"",""dihelynak""]","","posttest trial","1",""
"html-button-response-clever","123","684164","0.0-13.0-0.3","4198","Ez itt egy garcép. Nincs is jobb egy jó...","0","garcépnél","[""garcépnél"",""garcépnál""]","","posttest trial","1",""
"html-button-response-clever","124","687649","0.0-13.0-0.4","2971","Ez itt egy spábét. Ott vagyunk a...","1","spábétban","[""spábétben"",""spábétban""]","","posttest trial","1",""
"html-button-response-clever","125","689908","0.0-13.0-0.5","1750","Ez itt egy pítend. Ott vagyunk a...","1","pítendban","[""pítendben"",""pítendban""]","","posttest trial","1",""
"html-button-response-clever","126","692350","0.0-13.0-0.6","1926","Ez itt egy dorzéj. Elneveztem a kutyámat...","0","dorzéjnak","[""dorzéjnak"",""dorzéjnek""]","","posttest trial","1",""
"html-button-response-clever","127","695334","0.0-13.0-0.7","2472","Ez itt egy luméz. Ott vagyunk a...","0","lumézban","[""lumézban"",""lumézben""]","","posttest trial","1",""
"html-button-response-clever","128","698054","0.0-13.0-0.8","2204","Ez itt egy braszenc. Nincs is jobb egy jó...","0","braszencnál","[""braszencnál"",""braszencnél""]","","posttest trial","1",""
"html-button-response-clever","129","699655","0.0-13.0-0.9","1087","Ez itt egy gúden. Ott vagyunk a...","1","gúdenban","[""gúdenben"",""gúdenban""]","","posttest trial","1",""
"html-button-response-clever","130","701779","0.0-13.0-0.10","1608","Ez itt egy zsádév. Elneveztem a kutyámat...","0","zsádévnak","[""zsádévnak"",""zsádévnek""]","","posttest trial","1",""
"html-button-response-clever","131","704085","0.0-13.0-0.11","1794","Ez itt egy pivéd. Ott vagyunk a...","1","pivédben","[""pivédban"",""pivédben""]","","posttest trial","1",""
"html-button-response-clever","132","707314","0.0-13.0-0.12","2724","Ez itt egy dalenc. Nincs is jobb egy jó...","0","dalencnél","[""dalencnél"",""dalencnál""]","","posttest trial","1",""
"html-button-response-clever","133","710596","0.0-13.0-0.13","2781","Ez itt egy zopély. Nincs is jobb egy jó...","1","zopélynél","[""zopélynál"",""zopélynél""]","","posttest trial","1",""
"html-button-response-clever","134","713310","0.0-13.0-0.14","2205","Ez itt egy klingesz. Ott vagyunk a...","1","klingeszben","[""klingeszban"",""klingeszben""]","","posttest trial","1",""
"html-button-response-clever","135","715542","0.0-13.0-0.15","1713","Ez itt egy lorzens. Nincs is jobb egy jó...","1","lorzensnél","[""lorzensnál"",""lorzensnél""]","","posttest trial","1",""
"html-button-response-clever","136","717802","0.0-13.0-0.16","1755","Ez itt egy sortem. Nincs is jobb egy jó...","0","sortemnél","[""sortemnél"",""sortemnál""]","","posttest trial","1",""
"html-button-response-clever","137","721919","0.0-13.0-0.17","3603","Ez itt egy priszec. Ott vagyunk a...","1","priszecben","[""priszecban"",""priszecben""]","","posttest trial","1",""
"html-button-response-clever","138","724543","0.0-13.0-0.18","2113","Ez itt egy vorszen. Nincs is jobb egy jó...","0","vorszennél","[""vorszennél"",""vorszennál""]","","posttest trial","1",""
"html-button-response-clever","139","727942","0.0-13.0-0.19","2891","Ez itt egy spanél. Nincs is jobb egy jó...","0","spanélnél","[""spanélnél"",""spanélnál""]","","posttest trial","1",""
"html-button-response-clever","140","730276","0.0-13.0-0.20","1827","Ez itt egy kalréz. Ott vagyunk a...","1","kalrézban","[""kalrézben"",""kalrézban""]","","posttest trial","1",""
"html-button-response-clever","141","732017","0.0-13.0-0.21","1228","Ez itt egy zsáder. Ott vagyunk a...","0","zsáderben","[""zsáderben"",""zsáderban""]","","posttest trial","1",""
"html-button-response-clever","142","733162","0.0-13.0-0.22","638","Ez itt egy spicet. Elneveztem a kutyámat...","1","spicetnak","[""spicetnek"",""spicetnak""]","","posttest trial","1",""
"html-button-response-clever","143","734227","0.0-13.0-0.23","563","Ez itt egy trismél. Elneveztem a kutyámat...","0","trismélnek","[""trismélnek"",""trismélnak""]","","posttest trial","1",""
"html-button-response-clever","144","735334","0.0-13.0-0.24","605","Ez itt egy zsúdel. Elneveztem a kutyámat...","1","zsúdelnek","[""zsúdelnak"",""zsúdelnek""]","","posttest trial","1",""
"html-button-response-clever","145","736270","0.0-13.0-0.25","420","Ez itt egy zsigén. Nincs is jobb egy jó...","1","zsigénnél","[""zsigénnál"",""zsigénnél""]","","posttest trial","1",""
"html-button-response-clever","146","736921","0.0-13.0-0.26","149","Ez itt egy brindez. Elneveztem a kutyámat...","1","brindeznek","[""brindeznak"",""brindeznek""]","","posttest trial","1",""
"html-button-response-clever","147","737782","0.0-13.0-0.27","360","Ez itt egy darhén. Ott vagyunk a...","1","darhénban","[""darhénben"",""darhénban""]","","posttest trial","1",""
"html-button-response-clever","148","738575","0.0-13.0-0.28","292","Ez itt egy hágyét. Elneveztem a kutyámat...","0","hágyétnek","[""hágyétnek"",""hágyétnak""]","","posttest trial","1",""
"html-button-response-clever","149","739452","0.0-13.0-0.29","375","Ez itt egy jóbec. Elneveztem a kutyámat...","1","jóbecnak","[""jóbecnek"",""jóbecnak""]","","posttest trial","1",""
"html-button-response-clever","150","740089","0.0-13.0-0.30","136","Ez itt egy tosély. Ott vagyunk a...","0","tosélyben","[""tosélyben"",""tosélyban""]","","posttest trial","1",""
"html-button-response-clever","151","741080","0.0-13.0-0.31","488","Ez itt egy nyítem. Ott vagyunk a...","1","nyítemben","[""nyítemban"",""nyítemben""]","","posttest trial","1",""
"html-button-response-clever","152","742062","0.0-13.0-0.32","466","Ez itt egy narem. Ott vagyunk a...","0","naremban","[""naremban"",""naremben""]","","posttest trial","1",""
"html-button-response-clever","153","743141","0.0-13.0-0.33","569","Ez itt egy monveg. Nincs is jobb egy jó...","0","monvegnél","[""monvegnél"",""monvegnál""]","","posttest trial","1",""
"html-button-response-clever","154","744599","0.0-13.0-0.34","957","Ez itt egy klosét. Elneveztem a kutyámat...","0","klosétnak","[""klosétnak"",""klosétnek""]","","posttest trial","1",""
"html-button-response-clever","155","746444","0.0-13.0-0.35","1330","Ez itt egy nyupér. Nincs is jobb egy jó...","0","nyupérnél","[""nyupérnél"",""nyupérnál""]","","posttest trial","1",""
"html-button-response-clever","156","747639","0.0-13.0-0.36","693","Ez itt egy fájéz. Ott vagyunk a...","0","fájézban","[""fájézban"",""fájézben""]","","posttest trial","1",""
"html-button-response-clever","157","751703","0.0-13.0-0.37","3562","Ez itt egy jukél. Nincs is jobb egy jó...","1","jukélnél","[""jukélnál"",""jukélnél""]","","posttest trial","1",""
"html-button-response-clever","158","753542","0.0-13.0-0.38","1320","Ez itt egy trájeg. Ott vagyunk a...","1","trájegben","[""trájegban"",""trájegben""]","","posttest trial","1",""
"html-button-response-clever","159","754539","0.0-13.0-0.39","491","Ez itt egy ronszek. Ott vagyunk a...","0","ronszekban","[""ronszekban"",""ronszekben""]","","posttest trial","1",""
"html-button-response-clever","160","755659","0.0-13.0-0.40","608","Ez itt egy bupéz. Ott vagyunk a...","1","bupézban","[""bupézben"",""bupézban""]","","posttest trial","1",""
"html-button-response-clever","161","756859","0.0-13.0-0.41","693","Ez itt egy dábegy. Ott vagyunk a...","0","dábegyben","[""dábegyben"",""dábegyban""]","","posttest trial","1",""
"html-button-response-clever","162","758291","0.0-13.0-0.42","922","Ez itt egy danét. Nincs is jobb egy jó...","0","danétnál","[""danétnál"",""danétnél""]","","posttest trial","1",""
"html-button-response-clever","163","759321","0.0-13.0-0.43","517","Ez itt egy zihenc. Elneveztem a kutyámat...","1","zihencnek","[""zihencnak"",""zihencnek""]","","posttest trial","1",""
"html-button-response-clever","164","760041","0.0-13.0-0.44","218","Ez itt egy nyamet. Ott vagyunk a...","0","nyametban","[""nyametban"",""nyametben""]","","posttest trial","1",""
"html-button-response-clever","165","761493","0.0-13.0-0.45","950","Ez itt egy bralkép. Ott vagyunk a...","1","bralképban","[""bralképben"",""bralképban""]","","posttest trial","1",""
"html-button-response-clever","166","762260","0.0-13.0-0.46","261","Ez itt egy ítens. Ott vagyunk a...","1","ítensben","[""ítensban"",""ítensben""]","","posttest trial","1",""
"html-button-response-clever","167","762958","0.0-13.0-0.47","196","Ez itt egy kalhész. Elneveztem a kutyámat...","0","kalhésznak","[""kalhésznak"",""kalhésznek""]","","posttest trial","1",""
"html-button-response-clever","168","763725","0.0-13.0-0.48","258","Ez itt egy pijél. Nincs is jobb egy jó...","1","pijélnál","[""pijélnél"",""pijélnál""]","","posttest trial","1",""
"html-button-response-clever","169","764518","0.0-13.0-0.49","289","Ez itt egy spumény. Elneveztem a kutyámat...","1","spuménynek","[""spuménynak"",""spuménynek""]","","posttest trial","1",""
"html-button-response-clever","170","765170","0.0-13.0-0.50","137","Ez itt egy rapszek. Nincs is jobb egy jó...","1","rapszeknél","[""rapszeknál"",""rapszeknél""]","","posttest trial","1",""
"html-button-response-clever","171","765862","0.0-13.0-0.51","184","Ez itt egy sprivenc. Nincs is jobb egy jó...","1","sprivencnál","[""sprivencnél"",""sprivencnál""]","","posttest trial","1",""
"html-button-response-clever","172","766533","0.0-13.0-0.52","166","Ez itt egy pisély. Ott vagyunk a...","1","pisélyban","[""pisélyben"",""pisélyban""]","","posttest trial","1",""
"html-button-response-clever","173","767246","0.0-13.0-0.53","211","Ez itt egy kaszép. Elneveztem a kutyámat...","0","kaszépnak","[""kaszépnak"",""kaszépnek""]","","posttest trial","1",""
"html-button-response","174","776744","0.0-14.0","8996","<p> Vége a játéknak. A teljes pontszámod 28/54.</p><p> Szép munka! &#128526;&#128526;&#128526;</p><p>A Befejezés gomb megnyomása után bezárhatod a böngészőablakot.</p>","0","","","","","",""
"html-keyboard-response","175","782258","0.0-15.0","null","<div class=""message"">
         <p>Egy kis türelmet kérünk, amíg elmentjük az adatokat...</p>
         </div>","null","","","","","",""
