"trial_type","trial_index","time_elapsed","internal_node_id","rt","stimulus","response","response_string","choices","esp_response","trial_kind","list_number","esp_match"
"pavlovia","0","651","0.0-0.0","","","","","","","","",""
"html-button-response","1","21750","0.0-1.0","20591","<p>Kedves Résztvevő! A Budapesti Műszaki és Gazdaságtudományi Egyetem Kognitív Tudományi Tanszékének kutatásában való részvételed kérjük. A kutatásban azt vizsgáljuk, hogy a magyar anyanyelvűek hogyan használnak bizonyos szóalakokat, és hogy milyen képük van arról, hogy mások hogyan használják, hogyan képzik a szavakat. Ez hozzásegít bennünket ahhoz, hogy jobban megértsük, hogyan dolgozza fel és tárolja a nyelvet az emberi agy, és hogyan működnek, hogyan változnak egy adott közösség nyelvi konvenciói.</p><p>A vizsgálat egy rövid számítógépes feladatból fog állni. A kutatásban való részvétel önkéntes, a részvételi szándék bármikor visszavonható. A résztvevők eredményeit név nélkül kezeljük, így nem beazonosíthatók az adatok feldolgozása során. Minden személyes adatot az EU általános adatvédelmi rendeletének (GDPR) megfelelően kezelünk és legfeljebb öt éven belül megsemmisítünk. A vizsgálat jellemzően húsz percet vesz igénybe.</p><p>Kutatásvezető:</p><p>Dr. Rácz Péter, tudományos munkatárs, BME KTT</p><p>e-mail: racz.peter.marton@ttk.bme.hu</p>","0","","","","","",""
"html-button-response","2","52835","0.0-2.0","30567","<p>A kísérletben szavakat fogsz látni. Ezek között lesznek olyanok, amelyeket ismersz, de előfordulhatnak olyanok is, amelyeket nem ismersz, sőt, vannak köztük kitalált szavak is. Minden szónál látni fogsz toldalékolt alakokat. A te feladatod az lesz, hogy minden szóhoz kiválaszd azt a toldalékolt alakot, amely a te számodra ismerősebben, természetesebben hangzik. Rossz válaszok nincsenek, mert van olyan, hogy különböző embereknek más és más szó tűnik jobb választásnak. A választ úgy tudod majd kiválasztani, ha rákattintasz.</p><p>Ebben a szóválasztós játékban egy másik játékossal együtt veszel majd részt. A másik játékos is minden esetben azok közül a lehetőségek közül válogathat, mint te. Kettőtök feladata az, hogy ugyanazt a lehetőséget válasszátok minden esetben. Ahhoz, hogy ez sikerüljön, neked figyelned kell arra, hogy a másik játékos milyen válaszokat ad, és ennek alapján meg kell tippelned, hogyan választ legközelebb. Ha eltalálod, akkor pontot kapsz.</p>","0","","","","","",""
"html-button-response","3","56618","0.0-3.0","3275","<p>Kérjük, olvasd el az alábbi nyilatkozatot, és amennyiben egyetértesz vele, nyomj a Beleegyezés gombra!</p><p>Kijelentem, hogy magyar anyanyelvű személyként önként veszek részt a BME KTT kísérletében. A kutatás céljával és folyamatával kapcsolatban elegendő tájékoztatást kaptam, lehetőségem volt kérdések feltételére, és esetleges kérdéseimre megfelelő válaszokat kaptam. A tájékoztatás alapján elegendő mennyiségű információ áll a rendelkezésemre, hogy eldönthessem, részt kívánok-e venni a kutatásban.</p><p>Tisztában vagyok vele, hogy részvételi szándékomat és adataimat bármikor, indoklás nélkül visszavonhatom.</p><p>Értem és tudomásul veszem, hogy a kutatás tudományos célokat szolgál, és az általam szolgáltatott adatokat a BME kizárólag kutatási célból használja fel. Tudomásul veszem, hogy eredményeimet a többi résztvevő eredményeivel együtt kezelik, így egyéni teljesítményemről visszajelzést, szakvéleményt nem kapok.</p><p>Megértettem, hogy adataim kezelését illetően a BME az EU általános adatvédelmi rendelete (GDPR), a hatályos adatvédelmi törvény és a nemzetközi kutatás-etikai alapelvek szerint jár el. Eredményeim anonim módon kerülnek feldolgozásra, és a kutatás résztvevői az azonosításomra alkalmas adataimat harmadik félnek nem szolgáltatják ki. Engedélyezem a BME számára a jelen kutatásban felvett adataim feldolgozását és tárolását, beleértve azok későbbi kutatásokhoz való felhasználását is. Személyes adataim kezelésével kapcsolatban tájékoztatást kérhetek a kutatás résztvevőitől, az adatkezelés ellen tiltakozhatok, kérhetem személyes adataim helyesbítését, törlését vagy zárolását, valamint jogorvoslatért a Nemzeti Adatvédelmi és Információszabadság Hatósághoz fordulhatok.</p><p>Kijelentem, hogy a kutatásban való részvételem körülményeiről részletes tájékoztatást kaptam, és a feltételeket elfogadom.</p>","0","","","","","",""
"survey-text","4","80996","0.0-4.0","23866","","{""Q0"":""SD5DQM"",""Q1"":""nő"",""Q2"":""1995"",""Q3"":""16""}","","","","","",""
"html-button-response","5","92560","0.0-5.0","11053","<p>Ebben a játékban szavakat kell toldalékolni.</p> <p>Minden körben mutatunk majd egy példamondatot, amiben lesz egy szó.</p> <p>Alatta jön egy második mondat, ezt a mondatot neked kell majd befejezni, ugyanezzel a szóval.</p> <p>Nem biztos, hogy a szó eleve ismerős lesz számodra!</p> <p>Minden mondathoz adunk két lehetőséget, ezeket balra és jobbra látod majd.</p> <p>A játék kb. negyedóráig-húsz percig tart.</p>","0","","","","","",""
"html-button-response","6","106045","0.0-6.0","12973","<p>Nézzünk egy példát!</p> <p>A példamondat: ""Ez itt egy blumbnyeg.""</p><p>Neked ezt a mondatot kell befejezned: ""Ott vagyunk a...""</p><p>A lehetőségek pedig ezek:</p>","0","","","","","",""
"html-button-response","7","110058","0.0-7.0","3503","<p>Nagyon jó.</p><p>Ezt a játékot nem egyedül fogod játszani, hanem egy másik játékossal.</p><p>Mielőtt továbblépünk, összekapcsolunk titeket egymással.</p><p>Ez igénybe vehet néhány másodpercet, amihez szíves türelmed kérjük.</p>","0","","","","","",""
"html-button-response","8","115797","0.0-8.0","null","<p>Csatlakozás a másik játékoshoz...</p>","null","","","","","",""
"html-button-response","9","118303","0.0-9.0","null","<p> Sikeres kapcsolódás!</p>","null","","","","","",""
"html-button-response","10","127157","0.0-10.0","8349","<p>A következőkben ketten játsszátok a szóválasztós játékot.</p><p>A feladatotok az lesz, hogy minden körben <b>ugyanazt</b> a szót válasszátok.</p><p>Minden ilyen egyező válaszért pontot kaptok.</p><p>Próbáld meg kitalálni, mit választ a másik játékos!</p><p>Bármikor választhatsz, a körnek akkor van vége, ha mindketten döntöttetek.</p><p>Sok sikert!</p>","0","","","","","",""
"html-button-response-esp","11","131875","0.0-11.0-0.0","4088","Ez itt egy lihény. Elneveztem a kutyámat...","1","lihénynek","[""lihénynak"",""lihénynek""]","lihénynak","esp trial","6","false"
"html-button-response","12","135383","0.0-11.0-1.0","null","<p>A másik játékos ezt választotta: <b>lihénynak</b>.</p><p>&#10060;</p><p>A válaszaitok <b>nem</b> egyeznek meg.</p>","null","","","","feedback trial","",""
"html-button-response-esp","13","141487","0.0-11.0-0.1","5596","Ez itt egy surnegy. Nincs is jobb egy jó...","0","surnegynél","[""surnegynél"",""surnegynál""]","surnegynél","esp trial","6","true"
"html-button-response","14","145010","0.0-11.0-1.1","null","<p>A másik játékos ezt választotta: <b>surnegynél</b>.</p><p>&#x2705;</p><p>A te válaszod és a másik játékos válasza <b>megegyeznek</b>.</p>","null","","","","feedback trial","",""
"html-button-response-esp","15","149725","0.0-11.0-0.2","3311","Ez itt egy fizend. Ott vagyunk a...","1","fizendben","[""fizendban"",""fizendben""]","fizendban","esp trial","6","false"
"html-button-response","16","153244","0.0-11.0-1.2","null","<p>A másik játékos ezt választotta: <b>fizendban</b>.</p><p>&#10060;</p><p>A válaszaitok <b>nem</b> egyeznek meg.</p>","null","","","","feedback trial","",""
"html-button-response-esp","17","158766","0.0-11.0-0.3","5006","Ez itt egy zuten. Nincs is jobb egy jó...","1","zutennál","[""zutennél"",""zutennál""]","zutennél","esp trial","6","false"
"html-button-response","18","162287","0.0-11.0-1.3","null","<p>A másik játékos ezt választotta: <b>zutennél</b>.</p><p>&#10060;</p><p>A válaszaitok <b>nem</b> egyeznek meg.</p>","null","","","","feedback trial","",""
"html-button-response-esp","19","168239","0.0-11.0-0.4","5438","Ez itt egy pristél. Ott vagyunk a...","1","pristélben","[""pristélban"",""pristélben""]","pristélban","esp trial","6","false"
"html-button-response","20","171759","0.0-11.0-1.4","null","<p>A másik játékos ezt választotta: <b>pristélban</b>.</p><p>&#10060;</p><p>A válaszaitok <b>nem</b> egyeznek meg.</p>","null","","","","feedback trial","",""
"html-button-response-esp","21","176934","0.0-11.0-0.5","4673","Ez itt egy tivenc. Ott vagyunk a...","1","tivencben","[""tivencban"",""tivencben""]","tivencben","esp trial","6","true"
"html-button-response","22","180444","0.0-11.0-1.5","null","<p>A másik játékos ezt választotta: <b>tivencben</b>.</p><p>&#x2705;</p><p>A te válaszod és a másik játékos válasza <b>megegyeznek</b>.</p>","null","","","","feedback trial","",""
"html-button-response-esp","23","185163","0.0-11.0-0.6","3729","Ez itt egy spatel. Elneveztem a kutyámat...","0","spatelnak","[""spatelnak"",""spatelnek""]","spatelnek","esp trial","6","false"
"html-button-response","24","188672","0.0-11.0-1.6","null","<p>A másik játékos ezt választotta: <b>spatelnek</b>.</p><p>&#10060;</p><p>A válaszaitok <b>nem</b> egyeznek meg.</p>","null","","","","feedback trial","",""
"html-button-response-esp","25","193380","0.0-11.0-0.7","3470","Ez itt egy jurdent. Nincs is jobb egy jó...","1","jurdentnél","[""jurdentnál"",""jurdentnél""]","jurdentnél","esp trial","6","true"
"html-button-response","26","196887","0.0-11.0-1.7","null","<p>A másik játékos ezt választotta: <b>jurdentnél</b>.</p><p>&#x2705;</p><p>A te válaszod és a másik játékos válasza <b>megegyeznek</b>.</p>","null","","","","feedback trial","",""
"html-button-response-esp","27","202030","0.0-11.0-0.8","4616","Ez itt egy sihen. Nincs is jobb egy jó...","1","sihennél","[""sihennál"",""sihennél""]","sihennál","esp trial","6","false"
"html-button-response","28","205543","0.0-11.0-1.8","null","<p>A másik játékos ezt választotta: <b>sihennál</b>.</p><p>&#10060;</p><p>A válaszaitok <b>nem</b> egyeznek meg.</p>","null","","","","feedback trial","",""
"html-button-response-esp","29","210580","0.0-11.0-0.9","4534","Ez itt egy zatéj. Nincs is jobb egy jó...","1","zatéjnál","[""zatéjnél"",""zatéjnál""]","zatéjnél","esp trial","6","false"
"html-button-response","30","214092","0.0-11.0-1.9","null","<p>A másik játékos ezt választotta: <b>zatéjnél</b>.</p><p>&#10060;</p><p>A válaszaitok <b>nem</b> egyeznek meg.</p>","null","","","","feedback trial","",""
"html-button-response-esp","31","219244","0.0-11.0-0.10","4637","Ez itt egy klajrén. Elneveztem a kutyámat...","0","klajrénnak","[""klajrénnak"",""klajrénnek""]","klajrénnek","esp trial","6","false"
"html-button-response","32","222769","0.0-11.0-1.10","null","<p>A másik játékos ezt választotta: <b>klajrénnek</b>.</p><p>&#10060;</p><p>A válaszaitok <b>nem</b> egyeznek meg.</p>","null","","","","feedback trial","",""
"html-button-response-esp","33","227479","0.0-11.0-0.11","3807","Ez itt egy cságyelt. Ott vagyunk a...","1","cságyeltben","[""cságyeltban"",""cságyeltben""]","cságyeltben","esp trial","6","true"
"html-button-response","34","230989","0.0-11.0-1.11","null","<p>A másik játékos ezt választotta: <b>cságyeltben</b>.</p><p>&#x2705;</p><p>A te válaszod és a másik játékos válasza <b>megegyeznek</b>.</p>","null","","","","feedback trial","",""
"html-button-response-esp","35","235696","0.0-11.0-0.12","3348","Ez itt egy fágyép. Nincs is jobb egy jó...","0","fágyépnál","[""fágyépnál"",""fágyépnél""]","fágyépnél","esp trial","6","false"
"html-button-response","36","239218","0.0-11.0-1.12","null","<p>A másik játékos ezt választotta: <b>fágyépnél</b>.</p><p>&#10060;</p><p>A válaszaitok <b>nem</b> egyeznek meg.</p>","null","","","","feedback trial","",""
"html-button-response-esp","37","243936","0.0-11.0-0.13","3484","Ez itt egy zined. Elneveztem a kutyámat...","1","zinednek","[""zinednak"",""zinednek""]","zinednak","esp trial","6","false"
"html-button-response","38","247450","0.0-11.0-1.13","null","<p>A másik játékos ezt választotta: <b>zinednak</b>.</p><p>&#10060;</p><p>A válaszaitok <b>nem</b> egyeznek meg.</p>","null","","","","feedback trial","",""
"html-button-response-esp","39","252165","0.0-11.0-0.14","3909","Ez itt egy lingék. Nincs is jobb egy jó...","0","lingéknél","[""lingéknél"",""lingéknál""]","lingéknál","esp trial","6","false"
"html-button-response","40","255682","0.0-11.0-1.14","null","<p>A másik játékos ezt választotta: <b>lingéknál</b>.</p><p>&#10060;</p><p>A válaszaitok <b>nem</b> egyeznek meg.</p>","null","","","","feedback trial","",""
"html-button-response-esp","41","260393","0.0-11.0-0.15","1658","Ez itt egy nuhét. Nincs is jobb egy jó...","1","nuhétnál","[""nuhétnél"",""nuhétnál""]","nuhétnél","esp trial","6","false"
"html-button-response","42","263917","0.0-11.0-1.15","null","<p>A másik játékos ezt választotta: <b>nuhétnél</b>.</p><p>&#10060;</p><p>A válaszaitok <b>nem</b> egyeznek meg.</p>","null","","","","feedback trial","",""
"html-button-response-esp","43","268773","0.0-11.0-0.16","4347","Ez itt egy klazér. Ott vagyunk a...","0","klazérben","[""klazérben"",""klazérban""]","klazérben","esp trial","6","true"
"html-button-response","44","272284","0.0-11.0-1.16","null","<p>A másik játékos ezt választotta: <b>klazérben</b>.</p><p>&#x2705;</p><p>A te válaszod és a másik játékos válasza <b>megegyeznek</b>.</p>","null","","","","feedback trial","",""
"html-button-response-esp","45","278023","0.0-11.0-0.17","5223","Ez itt egy zábény. Elneveztem a kutyámat...","0","zábénynak","[""zábénynak"",""zábénynek""]","zábénynek","esp trial","6","false"
"html-button-response","46","281546","0.0-11.0-1.17","null","<p>A másik játékos ezt választotta: <b>zábénynek</b>.</p><p>&#10060;</p><p>A válaszaitok <b>nem</b> egyeznek meg.</p>","null","","","","feedback trial","",""
"html-button-response-esp","47","286334","0.0-11.0-0.18","4285","Ez itt egy dinelt. Ott vagyunk a...","0","dineltben","[""dineltben"",""dineltban""]","dineltban","esp trial","6","false"
"html-button-response","48","289856","0.0-11.0-1.18","null","<p>A másik játékos ezt választotta: <b>dineltban</b>.</p><p>&#10060;</p><p>A válaszaitok <b>nem</b> egyeznek meg.</p>","null","","","","feedback trial","",""
"html-button-response-esp","49","294575","0.0-11.0-0.19","3372","Ez itt egy mádép. Nincs is jobb egy jó...","0","mádépnál","[""mádépnál"",""mádépnél""]","mádépnél","esp trial","6","false"
"html-button-response","50","298097","0.0-11.0-1.19","null","<p>A másik játékos ezt választotta: <b>mádépnél</b>.</p><p>&#10060;</p><p>A válaszaitok <b>nem</b> egyeznek meg.</p>","null","","","","feedback trial","",""
"html-button-response-esp","51","302813","0.0-11.0-0.20","2575","Ez itt egy fupét. Nincs is jobb egy jó...","1","fupétnél","[""fupétnál"",""fupétnél""]","fupétnél","esp trial","6","true"
"html-button-response","52","306324","0.0-11.0-1.20","null","<p>A másik játékos ezt választotta: <b>fupétnél</b>.</p><p>&#x2705;</p><p>A te válaszod és a másik játékos válasza <b>megegyeznek</b>.</p>","null","","","","feedback trial","",""
"html-button-response-esp","53","311051","0.0-11.0-0.21","2963","Ez itt egy vismer. Nincs is jobb egy jó...","0","vismernél","[""vismernél"",""vismernál""]","vismernál","esp trial","6","false"
"html-button-response","54","314567","0.0-11.0-1.21","null","<p>A másik játékos ezt választotta: <b>vismernál</b>.</p><p>&#10060;</p><p>A válaszaitok <b>nem</b> egyeznek meg.</p>","null","","","","feedback trial","",""
"html-button-response-esp","55","319289","0.0-11.0-0.22","3406","Ez itt egy fojlegy. Elneveztem a kutyámat...","0","fojlegynek","[""fojlegynek"",""fojlegynak""]","fojlegynak","esp trial","6","false"
"html-button-response","56","322793","0.0-11.0-1.22","null","<p>A másik játékos ezt választotta: <b>fojlegynak</b>.</p><p>&#10060;</p><p>A válaszaitok <b>nem</b> egyeznek meg.</p>","null","","","","feedback trial","",""
"html-button-response-esp","57","327516","0.0-11.0-0.23","3030","Ez itt egy csublény. Ott vagyunk a...","0","csublényben","[""csublényben"",""csublényban""]","csublényben","esp trial","6","true"
"html-button-response","58","331036","0.0-11.0-1.23","null","<p>A másik játékos ezt választotta: <b>csublényben</b>.</p><p>&#x2705;</p><p>A te válaszod és a másik játékos válasza <b>megegyeznek</b>.</p>","null","","","","feedback trial","",""
"html-button-response-esp","59","335760","0.0-11.0-0.24","3468","Ez itt egy zarcég. Nincs is jobb egy jó...","0","zarcégnél","[""zarcégnél"",""zarcégnál""]","zarcégnél","esp trial","6","true"
"html-button-response","60","339272","0.0-11.0-1.24","null","<p>A másik játékos ezt választotta: <b>zarcégnél</b>.</p><p>&#x2705;</p><p>A te válaszod és a másik játékos válasza <b>megegyeznek</b>.</p>","null","","","","feedback trial","",""
"html-button-response-esp","61","343978","0.0-11.0-0.25","2519","Ez itt egy zsalrén. Elneveztem a kutyámat...","0","zsalrénnek","[""zsalrénnek"",""zsalrénnak""]","zsalrénnek","esp trial","6","true"
"html-button-response","62","347494","0.0-11.0-1.25","null","<p>A másik játékos ezt választotta: <b>zsalrénnek</b>.</p><p>&#x2705;</p><p>A te válaszod és a másik játékos válasza <b>megegyeznek</b>.</p>","null","","","","feedback trial","",""
"html-button-response-esp","63","352212","0.0-11.0-0.26","1569","Ez itt egy gábéd. Nincs is jobb egy jó...","0","gábédnél","[""gábédnél"",""gábédnál""]","gábédnél","esp trial","6","true"
"html-button-response","64","355725","0.0-11.0-1.26","null","<p>A másik játékos ezt választotta: <b>gábédnél</b>.</p><p>&#x2705;</p><p>A te válaszod és a másik játékos válasza <b>megegyeznek</b>.</p>","null","","","","feedback trial","",""
"html-button-response-esp","65","360452","0.0-11.0-0.27","2012","Ez itt egy jutély. Nincs is jobb egy jó...","1","jutélynél","[""jutélynál"",""jutélynél""]","jutélynél","esp trial","6","true"
"html-button-response","66","363983","0.0-11.0-1.27","null","<p>A másik játékos ezt választotta: <b>jutélynél</b>.</p><p>&#x2705;</p><p>A te válaszod és a másik játékos válasza <b>megegyeznek</b>.</p>","null","","","","feedback trial","",""
"html-button-response-esp","67","368691","0.0-11.0-0.28","1816","Ez itt egy bingéj. Elneveztem a kutyámat...","1","bingéjnek","[""bingéjnak"",""bingéjnek""]","bingéjnek","esp trial","6","true"
"html-button-response","68","372219","0.0-11.0-1.28","null","<p>A másik játékos ezt választotta: <b>bingéjnek</b>.</p><p>&#x2705;</p><p>A te válaszod és a másik játékos válasza <b>megegyeznek</b>.</p>","null","","","","feedback trial","",""
"html-button-response-esp","69","376931","0.0-11.0-0.29","1665","Ez itt egy vurnel. Elneveztem a kutyámat...","0","vurnelnek","[""vurnelnek"",""vurnelnak""]","vurnelnek","esp trial","6","true"
"html-button-response","70","380448","0.0-11.0-1.29","null","<p>A másik játékos ezt választotta: <b>vurnelnek</b>.</p><p>&#x2705;</p><p>A te válaszod és a másik játékos válasza <b>megegyeznek</b>.</p>","null","","","","feedback trial","",""
"html-button-response-esp","71","385169","0.0-11.0-0.30","1531","Ez itt egy dunkész. Ott vagyunk a...","1","dunkészben","[""dunkészban"",""dunkészben""]","dunkészben","esp trial","6","true"
"html-button-response","72","388671","0.0-11.0-1.30","null","<p>A másik játékos ezt választotta: <b>dunkészben</b>.</p><p>&#x2705;</p><p>A te válaszod és a másik játékos válasza <b>megegyeznek</b>.</p>","null","","","","feedback trial","",""
"html-button-response-esp","73","393397","0.0-11.0-0.31","1958","Ez itt egy murdes. Nincs is jobb egy jó...","0","murdesnél","[""murdesnél"",""murdesnál""]","murdesnél","esp trial","6","true"
"html-button-response","74","396915","0.0-11.0-1.31","null","<p>A másik játékos ezt választotta: <b>murdesnél</b>.</p><p>&#x2705;</p><p>A te válaszod és a másik játékos válasza <b>megegyeznek</b>.</p>","null","","","","feedback trial","",""
"html-button-response-esp","75","401628","0.0-11.0-0.32","1322","Ez itt egy szibed. Ott vagyunk a...","0","szibedben","[""szibedben"",""szibedban""]","szibedban","esp trial","6","false"
"html-button-response","76","405133","0.0-11.0-1.32","null","<p>A másik játékos ezt választotta: <b>szibedban</b>.</p><p>&#10060;</p><p>A válaszaitok <b>nem</b> egyeznek meg.</p>","null","","","","feedback trial","",""
"html-button-response-esp","77","409843","0.0-11.0-0.33","959","Ez itt egy pazév. Nincs is jobb egy jó...","1","pazévnél","[""pazévnál"",""pazévnél""]","pazévnél","esp trial","6","true"
"html-button-response","78","413365","0.0-11.0-1.33","null","<p>A másik játékos ezt választotta: <b>pazévnél</b>.</p><p>&#x2705;</p><p>A te válaszod és a másik játékos válasza <b>megegyeznek</b>.</p>","null","","","","feedback trial","",""
"html-button-response-esp","79","418074","0.0-11.0-0.34","1224","Ez itt egy trikép. Ott vagyunk a...","1","triképben","[""triképban"",""triképben""]","triképban","esp trial","6","false"
"html-button-response","80","421598","0.0-11.0-1.34","null","<p>A másik játékos ezt választotta: <b>triképban</b>.</p><p>&#10060;</p><p>A válaszaitok <b>nem</b> egyeznek meg.</p>","null","","","","feedback trial","",""
"html-button-response-esp","81","426315","0.0-11.0-0.35","1585","Ez itt egy dutec. Nincs is jobb egy jó...","1","dutecnél","[""dutecnál"",""dutecnél""]","dutecnél","esp trial","6","true"
"html-button-response","82","429831","0.0-11.0-1.35","null","<p>A másik játékos ezt választotta: <b>dutecnél</b>.</p><p>&#x2705;</p><p>A te válaszod és a másik játékos válasza <b>megegyeznek</b>.</p>","null","","","","feedback trial","",""
"html-button-response-esp","83","434557","0.0-11.0-0.36","1181","Ez itt egy humék. Elneveztem a kutyámat...","1","huméknek","[""huméknak"",""huméknek""]","huméknek","esp trial","6","true"
"html-button-response","84","438080","0.0-11.0-1.36","null","<p>A másik játékos ezt választotta: <b>huméknek</b>.</p><p>&#x2705;</p><p>A te válaszod és a másik játékos válasza <b>megegyeznek</b>.</p>","null","","","","feedback trial","",""
"html-button-response-esp","85","442801","0.0-11.0-0.37","1520","Ez itt egy tarhéz. Ott vagyunk a...","0","tarhézben","[""tarhézben"",""tarhézban""]","tarhézben","esp trial","6","true"
"html-button-response","86","446317","0.0-11.0-1.37","null","<p>A másik játékos ezt választotta: <b>tarhézben</b>.</p><p>&#x2705;</p><p>A te válaszod és a másik játékos válasza <b>megegyeznek</b>.</p>","null","","","","feedback trial","",""
"html-button-response-esp","87","451035","0.0-11.0-0.38","1185","Ez itt egy klítegy. Nincs is jobb egy jó...","0","klítegynél","[""klítegynél"",""klítegynál""]","klítegynél","esp trial","6","true"
"html-button-response","88","454552","0.0-11.0-1.38","null","<p>A másik játékos ezt választotta: <b>klítegynél</b>.</p><p>&#x2705;</p><p>A te válaszod és a másik játékos válasza <b>megegyeznek</b>.</p>","null","","","","feedback trial","",""
"html-button-response-esp","89","459276","0.0-11.0-0.39","1704","Ez itt egy dibez. Ott vagyunk a...","1","dibezben","[""dibezban"",""dibezben""]","dibezban","esp trial","6","false"
"html-button-response","90","462795","0.0-11.0-1.39","null","<p>A másik játékos ezt választotta: <b>dibezban</b>.</p><p>&#10060;</p><p>A válaszaitok <b>nem</b> egyeznek meg.</p>","null","","","","feedback trial","",""
"html-button-response-esp","91","467504","0.0-11.0-0.40","1337","Ez itt egy dajrens. Nincs is jobb egy jó...","1","dajrensnél","[""dajrensnál"",""dajrensnél""]","dajrensnél","esp trial","6","true"
"html-button-response","92","471023","0.0-11.0-1.40","null","<p>A másik játékos ezt választotta: <b>dajrensnél</b>.</p><p>&#x2705;</p><p>A te válaszod és a másik játékos válasza <b>megegyeznek</b>.</p>","null","","","","feedback trial","",""
"html-button-response-esp","93","475737","0.0-11.0-0.41","1319","Ez itt egy hijegy. Nincs is jobb egy jó...","0","hijegynél","[""hijegynél"",""hijegynál""]","hijegynál","esp trial","6","false"
"html-button-response","94","479259","0.0-11.0-1.41","null","<p>A másik játékos ezt választotta: <b>hijegynál</b>.</p><p>&#10060;</p><p>A válaszaitok <b>nem</b> egyeznek meg.</p>","null","","","","feedback trial","",""
"html-button-response-esp","95","483987","0.0-11.0-0.42","1188","Ez itt egy vodec. Nincs is jobb egy jó...","0","vodecnél","[""vodecnél"",""vodecnál""]","vodecnél","esp trial","6","true"
"html-button-response","96","487496","0.0-11.0-1.42","null","<p>A másik játékos ezt választotta: <b>vodecnél</b>.</p><p>&#x2705;</p><p>A te válaszod és a másik játékos válasza <b>megegyeznek</b>.</p>","null","","","","feedback trial","",""
"html-button-response-esp","97","492217","0.0-11.0-0.43","1156","Ez itt egy trodély. Ott vagyunk a...","0","trodélyben","[""trodélyben"",""trodélyban""]","trodélyben","esp trial","6","true"
"html-button-response","98","495726","0.0-11.0-1.43","null","<p>A másik játékos ezt választotta: <b>trodélyben</b>.</p><p>&#x2705;</p><p>A te válaszod és a másik játékos válasza <b>megegyeznek</b>.</p>","null","","","","feedback trial","",""
"html-button-response-esp","99","500445","0.0-11.0-0.44","822","Ez itt egy tumély. Nincs is jobb egy jó...","0","tumélynél","[""tumélynél"",""tumélynál""]","tumélynél","esp trial","6","true"
"html-button-response","100","503972","0.0-11.0-1.44","null","<p>A másik játékos ezt választotta: <b>tumélynél</b>.</p><p>&#x2705;</p><p>A te válaszod és a másik játékos válasza <b>megegyeznek</b>.</p>","null","","","","feedback trial","",""
"html-button-response-esp","101","508693","0.0-11.0-0.45","1146","Ez itt egy csodeg. Nincs is jobb egy jó...","0","csodegnél","[""csodegnél"",""csodegnál""]","csodegnél","esp trial","6","true"
"html-button-response","102","512220","0.0-11.0-1.45","null","<p>A másik játékos ezt választotta: <b>csodegnél</b>.</p><p>&#x2705;</p><p>A te válaszod és a másik játékos válasza <b>megegyeznek</b>.</p>","null","","","","feedback trial","",""
"html-button-response-esp","103","516929","0.0-11.0-0.46","1593","Ez itt egy spizec. Elneveztem a kutyámat...","1","spizecnek","[""spizecnak"",""spizecnek""]","spizecnak","esp trial","6","false"
"html-button-response","104","520450","0.0-11.0-1.46","null","<p>A másik játékos ezt választotta: <b>spizecnak</b>.</p><p>&#10060;</p><p>A válaszaitok <b>nem</b> egyeznek meg.</p>","null","","","","feedback trial","",""
"html-button-response-esp","105","525159","0.0-11.0-0.47","1350","Ez itt egy szanéj. Elneveztem a kutyámat...","0","szanéjnek","[""szanéjnek"",""szanéjnak""]","szanéjnek","esp trial","6","true"
"html-button-response","106","528683","0.0-11.0-1.47","null","<p>A másik játékos ezt választotta: <b>szanéjnek</b>.</p><p>&#x2705;</p><p>A te válaszod és a másik játékos válasza <b>megegyeznek</b>.</p>","null","","","","feedback trial","",""
"html-button-response-esp","107","533388","0.0-11.0-0.48","1880","Ez itt egy dóbem. Elneveztem a kutyámat...","1","dóbemnek","[""dóbemnak"",""dóbemnek""]","dóbemnek","esp trial","6","true"
"html-button-response","108","536902","0.0-11.0-1.48","null","<p>A másik játékos ezt választotta: <b>dóbemnek</b>.</p><p>&#x2705;</p><p>A te válaszod és a másik játékos válasza <b>megegyeznek</b>.</p>","null","","","","feedback trial","",""
"html-button-response-esp","109","541616","0.0-11.0-0.49","1363","Ez itt egy hosét. Elneveztem a kutyámat...","1","hosétnek","[""hosétnak"",""hosétnek""]","hosétnek","esp trial","6","true"
"html-button-response","110","545132","0.0-11.0-1.49","null","<p>A másik játékos ezt választotta: <b>hosétnek</b>.</p><p>&#x2705;</p><p>A te válaszod és a másik játékos válasza <b>megegyeznek</b>.</p>","null","","","","feedback trial","",""
"html-button-response-esp","111","549850","0.0-11.0-0.50","1230","Ez itt egy lijez. Elneveztem a kutyámat...","0","lijeznek","[""lijeznek"",""lijeznak""]","lijeznak","esp trial","6","false"
"html-button-response","112","553355","0.0-11.0-1.50","null","<p>A másik játékos ezt választotta: <b>lijeznak</b>.</p><p>&#10060;</p><p>A válaszaitok <b>nem</b> egyeznek meg.</p>","null","","","","feedback trial","",""
"html-button-response-esp","113","558072","0.0-11.0-0.51","1334","Ez itt egy briskéd. Nincs is jobb egy jó...","1","briskédnél","[""briskédnál"",""briskédnél""]","briskédnél","esp trial","6","true"
"html-button-response","114","561585","0.0-11.0-1.51","null","<p>A másik játékos ezt választotta: <b>briskédnél</b>.</p><p>&#x2705;</p><p>A te válaszod és a másik játékos válasza <b>megegyeznek</b>.</p>","null","","","","feedback trial","",""
"html-button-response-esp","115","566305","0.0-11.0-0.52","1064","Ez itt egy kátéd. Nincs is jobb egy jó...","1","kátédnél","[""kátédnál"",""kátédnél""]","kátédnél","esp trial","6","true"
"html-button-response","116","569824","0.0-11.0-1.52","null","<p>A másik játékos ezt választotta: <b>kátédnél</b>.</p><p>&#x2705;</p><p>A te válaszod és a másik játékos válasza <b>megegyeznek</b>.</p>","null","","","","feedback trial","",""
"html-button-response-esp","117","574544","0.0-11.0-0.53","1628","Ez itt egy spivél. Elneveztem a kutyámat...","0","spivélnek","[""spivélnek"",""spivélnak""]","spivélnek","esp trial","6","true"
"html-button-response","118","578051","0.0-11.0-1.53","null","<p>A másik játékos ezt választotta: <b>spivélnek</b>.</p><p>&#x2705;</p><p>A te válaszod és a másik játékos válasza <b>megegyeznek</b>.</p>","null","","","","feedback trial","",""
"html-button-response","119","586214","0.0-12.0","7635","<p>A közös játék most véget ért.</p><p>Mielőtt eláruljuk a végső pontszámodat, arra kérlek, játszd a szóválasztós játékot néhány percig egyedül is.</p><p>A feladatod ugyanaz lesz, választani két lehetőség közül.</p><p>Most viszont egyedül kell döntened, hogy te melyiket választanád.</p>","0","","","","","",""
"html-button-response-clever","120","589206","0.0-13.0-0.0","2489","Ez itt egy jábéz. Ott vagyunk a...","0","jábézben","[""jábézben"",""jábézban""]","","posttest trial","8",""
"html-button-response-clever","121","591117","0.0-13.0-0.1","1405","Ez itt egy vublet. Nincs is jobb egy jó...","1","vubletnél","[""vubletnál"",""vubletnél""]","","posttest trial","8",""
"html-button-response-clever","122","593157","0.0-13.0-0.2","1529","Ez itt egy jorzég. Elneveztem a kutyámat...","1","jorzégnek","[""jorzégnak"",""jorzégnek""]","","posttest trial","8",""
"html-button-response-clever","123","595278","0.0-13.0-0.3","1613","Ez itt egy brukész. Nincs is jobb egy jó...","0","brukésznél","[""brukésznél"",""brukésznál""]","","posttest trial","8",""
"html-button-response-clever","124","597428","0.0-13.0-0.4","1647","Ez itt egy szutend. Ott vagyunk a...","0","szutendben","[""szutendben"",""szutendban""]","","posttest trial","8",""
"html-button-response-clever","125","598956","0.0-13.0-0.5","1025","Ez itt egy zsopéd. Ott vagyunk a...","1","zsopédben","[""zsopédban"",""zsopédben""]","","posttest trial","8",""
"html-button-response-clever","126","600437","0.0-13.0-0.6","974","Ez itt egy jalrény. Nincs is jobb egy jó...","1","jalrénynél","[""jalrénynál"",""jalrénynél""]","","posttest trial","8",""
"html-button-response-clever","127","602142","0.0-13.0-0.7","1193","Ez itt egy trincseg. Ott vagyunk a...","0","trincsegben","[""trincsegben"",""trincsegban""]","","posttest trial","8",""
"html-button-response-clever","128","604275","0.0-13.0-0.8","1631","Ez itt egy csartény. Elneveztem a kutyámat...","1","csarténynek","[""csarténynak"",""csarténynek""]","","posttest trial","8",""
"html-button-response-clever","129","605701","0.0-13.0-0.9","920","Ez itt egy kadér. Nincs is jobb egy jó...","1","kadérnél","[""kadérnál"",""kadérnél""]","","posttest trial","8",""
"html-button-response-clever","130","607438","0.0-13.0-0.10","1226","Ez itt egy spáten. Elneveztem a kutyámat...","0","spátennek","[""spátennek"",""spátennak""]","","posttest trial","8",""
"html-button-response-clever","131","609500","0.0-13.0-0.11","1553","Ez itt egy trigenc. Elneveztem a kutyámat...","1","trigencnek","[""trigencnak"",""trigencnek""]","","posttest trial","8",""
"html-button-response-clever","132","611242","0.0-13.0-0.12","1226","Ez itt egy nyábét. Ott vagyunk a...","0","nyábétben","[""nyábétben"",""nyábétban""]","","posttest trial","8",""
"html-button-response-clever","133","613022","0.0-13.0-0.13","1276","Ez itt egy buhény. Ott vagyunk a...","0","buhényben","[""buhényben"",""buhényban""]","","posttest trial","8",""
"html-button-response-clever","134","614574","0.0-13.0-0.14","1038","Ez itt egy gicéj. Nincs is jobb egy jó...","1","gicéjnél","[""gicéjnál"",""gicéjnél""]","","posttest trial","8",""
"html-button-response-clever","135","616692","0.0-13.0-0.15","1606","Ez itt egy matéz. Ott vagyunk a...","0","matézben","[""matézben"",""matézban""]","","posttest trial","8",""
"html-button-response-clever","136","618511","0.0-13.0-0.16","1304","Ez itt egy brágéd. Elneveztem a kutyámat...","1","brágédnek","[""brágédnak"",""brágédnek""]","","posttest trial","8",""
"html-button-response-clever","137","620263","0.0-13.0-0.17","1239","Ez itt egy sprízem. Nincs is jobb egy jó...","1","sprízemnél","[""sprízemnál"",""sprízemnél""]","","posttest trial","8",""
"html-button-response-clever","138","622808","0.0-13.0-0.18","2032","Ez itt egy prately. Elneveztem a kutyámat...","0","pratelynek","[""pratelynek"",""pratelynak""]","","posttest trial","8",""
"html-button-response-clever","139","624474","0.0-13.0-0.19","1164","Ez itt egy fádens. Elneveztem a kutyámat...","0","fádensnek","[""fádensnek"",""fádensnak""]","","posttest trial","8",""
"html-button-response-clever","140","625665","0.0-13.0-0.20","684","Ez itt egy fincek. Nincs is jobb egy jó...","0","finceknél","[""finceknél"",""finceknál""]","","posttest trial","8",""
"html-button-response-clever","141","627355","0.0-13.0-0.21","1179","Ez itt egy brigeszt. Elneveztem a kutyámat...","1","brigesztnek","[""brigesztnak"",""brigesztnek""]","","posttest trial","8",""
"html-button-response-clever","142","628823","0.0-13.0-0.22","964","Ez itt egy gonszék. Nincs is jobb egy jó...","0","gonszéknél","[""gonszéknél"",""gonszéknál""]","","posttest trial","8",""
"html-button-response-clever","143","630304","0.0-13.0-0.23","974","Ez itt egy nidét. Ott vagyunk a...","0","nidétben","[""nidétben"",""nidétban""]","","posttest trial","8",""
"html-button-response-clever","144","631705","0.0-13.0-0.24","894","Ez itt egy priszkenc. Elneveztem a kutyámat...","0","priszkencnek","[""priszkencnek"",""priszkencnak""]","","posttest trial","8",""
"html-button-response-clever","145","633119","0.0-13.0-0.25","908","Ez itt egy tranék. Ott vagyunk a...","0","tranékben","[""tranékben"",""tranékban""]","","posttest trial","8",""
"html-button-response-clever","146","634811","0.0-13.0-0.26","1181","Ez itt egy bródesz. Elneveztem a kutyámat...","1","bródesznek","[""bródesznak"",""bródesznek""]","","posttest trial","8",""
"html-button-response-clever","147","636591","0.0-13.0-0.27","1270","Ez itt egy tránély. Elneveztem a kutyámat...","0","tránélynek","[""tránélynek"",""tránélynak""]","","posttest trial","8",""
"html-button-response-clever","148","638030","0.0-13.0-0.28","936","Ez itt egy sartely. Ott vagyunk a...","0","sartelyben","[""sartelyben"",""sartelyban""]","","posttest trial","8",""
"html-button-response-clever","149","639784","0.0-13.0-0.29","1242","Ez itt egy kábesz. Nincs is jobb egy jó...","1","kábesznél","[""kábesznál"",""kábesznél""]","","posttest trial","8",""
"html-button-response-clever","150","643324","0.0-13.0-0.30","3027","Ez itt egy sporzem. Elneveztem a kutyámat...","1","sporzemnek","[""sporzemnak"",""sporzemnek""]","","posttest trial","8",""
"html-button-response-clever","151","644909","0.0-13.0-0.31","1069","Ez itt egy navec. Ott vagyunk a...","1","navecben","[""navecban"",""navecben""]","","posttest trial","8",""
"html-button-response-clever","152","647064","0.0-13.0-0.32","1644","Ez itt egy nyarcéj. Elneveztem a kutyámat...","1","nyarcéjnek","[""nyarcéjnak"",""nyarcéjnek""]","","posttest trial","8",""
"html-button-response-clever","153","648637","0.0-13.0-0.33","1069","Ez itt egy bidem. Ott vagyunk a...","1","bidemben","[""bidemban"",""bidemben""]","","posttest trial","8",""
"html-button-response-clever","154","650562","0.0-13.0-0.34","1421","Ez itt egy szihét. Elneveztem a kutyámat...","0","szihétnek","[""szihétnek"",""szihétnak""]","","posttest trial","8",""
"html-button-response-clever","155","652425","0.0-13.0-0.35","1353","Ez itt egy júder. Elneveztem a kutyámat...","1","júdernek","[""júdernak"",""júdernek""]","","posttest trial","8",""
"html-button-response-clever","156","654145","0.0-13.0-0.36","1212","Ez itt egy dingec. Elneveztem a kutyámat...","0","dingecnek","[""dingecnek"",""dingecnak""]","","posttest trial","8",""
"html-button-response-clever","157","655875","0.0-13.0-0.37","1219","Ez itt egy ikszert. Ott vagyunk a...","0","ikszertben","[""ikszertben"",""ikszertban""]","","posttest trial","8",""
"html-button-response-clever","158","657983","0.0-13.0-0.38","1593","Ez itt egy csimen. Nincs is jobb egy jó...","0","csimennél","[""csimennél"",""csimennál""]","","posttest trial","8",""
"html-button-response-clever","159","659889","0.0-13.0-0.39","1399","Ez itt egy vodép. Elneveztem a kutyámat...","1","vodépnek","[""vodépnak"",""vodépnek""]","","posttest trial","8",""
"html-button-response-clever","160","661809","0.0-13.0-0.40","1411","Ez itt egy csinték. Ott vagyunk a...","0","csintékben","[""csintékben"",""csintékban""]","","posttest trial","8",""
"html-button-response-clever","161","663689","0.0-13.0-0.41","1367","Ez itt egy forzéd. Elneveztem a kutyámat...","1","forzédnek","[""forzédnak"",""forzédnek""]","","posttest trial","8",""
"html-button-response-clever","162","665529","0.0-13.0-0.42","1324","Ez itt egy trapszegy. Nincs is jobb egy jó...","0","trapszegynél","[""trapszegynél"",""trapszegynál""]","","posttest trial","8",""
"html-button-response-clever","163","667345","0.0-13.0-0.43","1306","Ez itt egy giheszt. Elneveztem a kutyámat...","1","gihesztnek","[""gihesztnak"",""gihesztnek""]","","posttest trial","8",""
"html-button-response-clever","164","668602","0.0-13.0-0.44","755","Ez itt egy kliszer. Nincs is jobb egy jó...","1","kliszernél","[""kliszernál"",""kliszernél""]","","posttest trial","8",""
"html-button-response-clever","165","669816","0.0-13.0-0.45","710","Ez itt egy ronvet. Elneveztem a kutyámat...","1","ronvetnek","[""ronvetnak"",""ronvetnek""]","","posttest trial","8",""
"html-button-response-clever","166","671269","0.0-13.0-0.46","946","Ez itt egy hivép. Ott vagyunk a...","0","hivépben","[""hivépben"",""hivépban""]","","posttest trial","8",""
"html-button-response-clever","167","672575","0.0-13.0-0.47","797","Ez itt egy brotes. Ott vagyunk a...","0","brotesben","[""brotesben"",""brotesban""]","","posttest trial","8",""
"html-button-response-clever","168","673930","0.0-13.0-0.48","841","Ez itt egy klordény. Elneveztem a kutyámat...","0","klordénynek","[""klordénynek"",""klordénynak""]","","posttest trial","8",""
"html-button-response-clever","169","675095","0.0-13.0-0.49","657","Ez itt egy gótem. Elneveztem a kutyámat...","0","gótemnek","[""gótemnek"",""gótemnak""]","","posttest trial","8",""
"html-button-response-clever","170","676867","0.0-13.0-0.50","1262","Ez itt egy hóbens. Ott vagyunk a...","1","hóbensben","[""hóbensban"",""hóbensben""]","","posttest trial","8",""
"html-button-response-clever","171","678097","0.0-13.0-0.51","723","Ez itt egy licegy. Ott vagyunk a...","1","licegyben","[""licegyban"",""licegyben""]","","posttest trial","8",""
"html-button-response-clever","172","679730","0.0-13.0-0.52","1127","Ez itt egy lismév. Ott vagyunk a...","0","lismévben","[""lismévben"",""lismévban""]","","posttest trial","8",""
"html-button-response-clever","173","681596","0.0-13.0-0.53","1358","Ez itt egy kluhéj. Nincs is jobb egy jó...","1","kluhéjnél","[""kluhéjnál"",""kluhéjnél""]","","posttest trial","8",""
"html-button-response","174","691256","0.0-14.0","9152","<p> Vége a játéknak. A teljes pontszámod 31/54.</p><p> Szép munka! &#128526;&#128526;&#128526;</p><p>A Befejezés gomb megnyomása után bezárhatod a böngészőablakot.</p>","0","","","","","",""
"html-keyboard-response","175","696771","0.0-15.0","null","<div class=""message"">
         <p>Egy kis türelmet kérünk, amíg elmentjük az adatokat...</p>
         </div>","null","","","","","",""
