"trial_type","trial_index","time_elapsed","internal_node_id","rt","stimulus","response","response_string","choices","esp_response","trial_kind","list_number","esp_match"
"pavlovia","0","951","0.0-0.0","","","","","","","","",""
"html-button-response","1","27452","0.0-1.0","25981","<p>Kedves Résztvevő! A Budapesti Műszaki és Gazdaságtudományi Egyetem Kognitív Tudományi Tanszékének kutatásában való részvételed kérjük. A kutatásban azt vizsgáljuk, hogy a magyar anyanyelvűek hogyan használnak bizonyos szóalakokat, és hogy milyen képük van arról, hogy mások hogyan használják, hogyan képzik a szavakat. Ez hozzásegít bennünket ahhoz, hogy jobban megértsük, hogyan dolgozza fel és tárolja a nyelvet az emberi agy, és hogyan működnek, hogyan változnak egy adott közösség nyelvi konvenciói.</p><p>A vizsgálat egy rövid számítógépes feladatból fog állni. A kutatásban való részvétel önkéntes, a részvételi szándék bármikor visszavonható. A résztvevők eredményeit név nélkül kezeljük, így nem beazonosíthatók az adatok feldolgozása során. Minden személyes adatot az EU általános adatvédelmi rendeletének (GDPR) megfelelően kezelünk és legfeljebb öt éven belül megsemmisítünk. A vizsgálat jellemzően húsz percet vesz igénybe.</p><p>Kutatásvezető:</p><p>Dr. Rácz Péter, tudományos munkatárs, BME KTT</p><p>e-mail: racz.peter.marton@ttk.bme.hu</p>","0","","","","","",""
"html-button-response","2","67713","0.0-2.0","39751","<p>A kísérletben szavakat fogsz látni. Ezek között lesznek olyanok, amelyeket ismersz, de előfordulhatnak olyanok is, amelyeket nem ismersz, sőt, vannak köztük kitalált szavak is. Minden szónál látni fogsz toldalékolt alakokat. A te feladatod az lesz, hogy minden szóhoz kiválaszd azt a toldalékolt alakot, amely a te számodra ismerősebben, természetesebben hangzik. Rossz válaszok nincsenek, mert van olyan, hogy különböző embereknek más és más szó tűnik jobb választásnak. A választ úgy tudod majd kiválasztani, ha rákattintasz.</p><p>Ebben a szóválasztós játékban egy másik játékossal együtt veszel majd részt. A másik játékos is minden esetben azok közül a lehetőségek közül válogathat, mint te. Kettőtök feladata az, hogy ugyanazt a lehetőséget válasszátok minden esetben. Ahhoz, hogy ez sikerüljön, neked figyelned kell arra, hogy a másik játékos milyen válaszokat ad, és ennek alapján meg kell tippelned, hogyan választ legközelebb. Ha eltalálod, akkor pontot kapsz.</p>","0","","","","","",""
"html-button-response","3","72755","0.0-3.0","4536","<p>Kérjük, olvasd el az alábbi nyilatkozatot, és amennyiben egyetértesz vele, nyomj a Beleegyezés gombra!</p><p>Kijelentem, hogy magyar anyanyelvű személyként önként veszek részt a BME KTT kísérletében. A kutatás céljával és folyamatával kapcsolatban elegendő tájékoztatást kaptam, lehetőségem volt kérdések feltételére, és esetleges kérdéseimre megfelelő válaszokat kaptam. A tájékoztatás alapján elegendő mennyiségű információ áll a rendelkezésemre, hogy eldönthessem, részt kívánok-e venni a kutatásban.</p><p>Tisztában vagyok vele, hogy részvételi szándékomat és adataimat bármikor, indoklás nélkül visszavonhatom.</p><p>Értem és tudomásul veszem, hogy a kutatás tudományos célokat szolgál, és az általam szolgáltatott adatokat a BME kizárólag kutatási célból használja fel. Tudomásul veszem, hogy eredményeimet a többi résztvevő eredményeivel együtt kezelik, így egyéni teljesítményemről visszajelzést, szakvéleményt nem kapok.</p><p>Megértettem, hogy adataim kezelését illetően a BME az EU általános adatvédelmi rendelete (GDPR), a hatályos adatvédelmi törvény és a nemzetközi kutatás-etikai alapelvek szerint jár el. Eredményeim anonim módon kerülnek feldolgozásra, és a kutatás résztvevői az azonosításomra alkalmas adataimat harmadik félnek nem szolgáltatják ki. Engedélyezem a BME számára a jelen kutatásban felvett adataim feldolgozását és tárolását, beleértve azok későbbi kutatásokhoz való felhasználását is. Személyes adataim kezelésével kapcsolatban tájékoztatást kérhetek a kutatás résztvevőitől, az adatkezelés ellen tiltakozhatok, kérhetem személyes adataim helyesbítését, törlését vagy zárolását, valamint jogorvoslatért a Nemzeti Adatvédelmi és Információszabadság Hatósághoz fordulhatok.</p><p>Kijelentem, hogy a kutatásban való részvételem körülményeiről részletes tájékoztatást kaptam, és a feltételeket elfogadom.</p>","0","","","","","",""
"survey-text","4","100166","0.0-4.0","26897","","{""Q0"":""R89NAR"",""Q1"":"""",""Q2"":""1981"",""Q3"":""22""}","","","","","",""
"html-button-response","5","118529","0.0-5.0","17857","<p>Ebben a játékban szavakat kell toldalékolni.</p> <p>Minden körben mutatunk majd egy példamondatot, amiben lesz egy szó.</p> <p>Alatta jön egy második mondat, ezt a mondatot neked kell majd befejezni, ugyanezzel a szóval.</p> <p>Nem biztos, hogy a szó eleve ismerős lesz számodra!</p> <p>Minden mondathoz adunk két lehetőséget, ezeket balra és jobbra látod majd.</p> <p>A játék kb. negyedóráig-húsz percig tart.</p>","0","","","","","",""
"html-button-response","6","129535","0.0-6.0","10502","<p>Nézzünk egy példát!</p> <p>A példamondat: ""Ez itt egy blumbnyeg.""</p><p>Neked ezt a mondatot kell befejezned: ""Ott vagyunk a...""</p><p>A lehetőségek pedig ezek:</p>","0","","","","","",""
"html-button-response","7","135471","0.0-7.0","5426","<p>Nagyon jó.</p><p>Ezt a játékot nem egyedül fogod játszani, hanem egy másik játékossal.</p><p>Mielőtt továbblépünk, összekapcsolunk titeket egymással.</p><p>Ez igénybe vehet néhány másodpercet, amihez szíves türelmed kérjük.</p>","0","","","","","",""
"html-button-response","8","141199","0.0-8.0","null","<p>Csatlakozás a másik játékoshoz...</p>","null","","","","","",""
"html-button-response","9","143714","0.0-9.0","null","<p> Sikeres kapcsolódás!</p>","null","","","","","",""
"html-button-response","10","154226","0.0-10.0","null","<p>A következőkben ketten játsszátok a szóválasztós játékot.</p><p>A feladatotok az lesz, hogy minden körben <b>ugyanazt</b> a szót válasszátok.</p><p>Minden ilyen egyező válaszért pontot kaptok.</p><p>Próbáld meg kitalálni, mit választ a másik játékos!</p><p>Bármikor választhatsz, a körnek akkor van vége, ha mindketten döntöttetek.</p><p>Sok sikert!</p>","null","","","","","",""
"html-button-response-esp","11","160061","0.0-11.0-0.0","5330","Ez itt egy vublet. Nincs is jobb egy jó...","0","vubletnél","[""vubletnél"",""vubletnál""]","vubletnél","esp trial","10","true"
"html-button-response","12","163602","0.0-11.0-1.0","null","<p>A másik játékos ezt választotta: <b>vubletnél</b>.</p><p>&#x2705;</p><p>A te válaszod és a másik játékos válasza <b>megegyeznek</b>.</p>","null","","","","feedback trial","",""
"html-button-response-esp","13","169233","0.0-11.0-0.1","5118","Ez itt egy gótem. Elneveztem a kutyámat...","0","gótemnek","[""gótemnek"",""gótemnak""]","gótemnek","esp trial","10","true"
"html-button-response","14","172744","0.0-11.0-1.1","null","<p>A másik játékos ezt választotta: <b>gótemnek</b>.</p><p>&#x2705;</p><p>A te válaszod és a másik játékos válasza <b>megegyeznek</b>.</p>","null","","","","feedback trial","",""
"html-button-response-esp","15","178653","0.0-11.0-0.2","5405","Ez itt egy sartely. Ott vagyunk a...","0","sartelyben","[""sartelyben"",""sartelyban""]","sartelyben","esp trial","10","true"
"html-button-response","16","182175","0.0-11.0-1.2","null","<p>A másik játékos ezt választotta: <b>sartelyben</b>.</p><p>&#x2705;</p><p>A te válaszod és a másik játékos válasza <b>megegyeznek</b>.</p>","null","","","","feedback trial","",""
"html-button-response-esp","17","187990","0.0-11.0-0.3","5306","Ez itt egy szutend. Ott vagyunk a...","0","szutendben","[""szutendben"",""szutendban""]","szutendben","esp trial","10","true"
"html-button-response","18","191495","0.0-11.0-1.3","null","<p>A másik játékos ezt választotta: <b>szutendben</b>.</p><p>&#x2705;</p><p>A te válaszod és a másik játékos válasza <b>megegyeznek</b>.</p>","null","","","","feedback trial","",""
"html-button-response-esp","19","197698","0.0-11.0-0.4","5683","Ez itt egy kadér. Nincs is jobb egy jó...","1","kadérnél","[""kadérnál"",""kadérnél""]","kadérnél","esp trial","10","true"
"html-button-response","20","201223","0.0-11.0-1.4","null","<p>A másik játékos ezt választotta: <b>kadérnél</b>.</p><p>&#x2705;</p><p>A te válaszod és a másik játékos válasza <b>megegyeznek</b>.</p>","null","","","","feedback trial","",""
"html-button-response-esp","21","208140","0.0-11.0-0.5","6413","Ez itt egy bródesz. Elneveztem a kutyámat...","0","bródesznek","[""bródesznek"",""bródesznak""]","bródesznek","esp trial","10","true"
"html-button-response","22","211669","0.0-11.0-1.5","null","<p>A másik játékos ezt választotta: <b>bródesznek</b>.</p><p>&#x2705;</p><p>A te válaszod és a másik játékos válasza <b>megegyeznek</b>.</p>","null","","","","feedback trial","",""
"html-button-response-esp","23","217097","0.0-11.0-0.6","3701","Ez itt egy navec. Ott vagyunk a...","0","navecben","[""navecben"",""navecban""]","navecben","esp trial","10","true"
"html-button-response","24","220607","0.0-11.0-1.6","null","<p>A másik játékos ezt választotta: <b>navecben</b>.</p><p>&#x2705;</p><p>A te válaszod és a másik játékos válasza <b>megegyeznek</b>.</p>","null","","","","feedback trial","",""
"html-button-response-esp","25","229250","0.0-11.0-0.7","8138","Ez itt egy kliszer. Nincs is jobb egy jó...","0","kliszernél","[""kliszernél"",""kliszernál""]","kliszernál","esp trial","10","false"
"html-button-response","26","232772","0.0-11.0-1.7","null","<p>A másik játékos ezt választotta: <b>kliszernál</b>.</p><p>&#10060;</p><p>A válaszaitok <b>nem</b> egyeznek meg.</p>","null","","","","feedback trial","",""
"html-button-response-esp","27","239618","0.0-11.0-0.8","6335","Ez itt egy brágéd. Elneveztem a kutyámat...","1","brágédnek","[""brágédnak"",""brágédnek""]","brágédnek","esp trial","10","true"
"html-button-response","28","243141","0.0-11.0-1.8","null","<p>A másik játékos ezt választotta: <b>brágédnek</b>.</p><p>&#x2705;</p><p>A te válaszod és a másik játékos válasza <b>megegyeznek</b>.</p>","null","","","","feedback trial","",""
"html-button-response-esp","29","248568","0.0-11.0-0.9","3211","Ez itt egy fádens. Elneveztem a kutyámat...","0","fádensnek","[""fádensnek"",""fádensnak""]","fádensnek","esp trial","10","true"
"html-button-response","30","252101","0.0-11.0-1.9","null","<p>A másik játékos ezt választotta: <b>fádensnek</b>.</p><p>&#x2705;</p><p>A te válaszod és a másik játékos válasza <b>megegyeznek</b>.</p>","null","","","","feedback trial","",""
"html-button-response-esp","31","257509","0.0-11.0-0.10","4540","Ez itt egy fincek. Nincs is jobb egy jó...","1","finceknél","[""finceknál"",""finceknél""]","finceknél","esp trial","10","true"
"html-button-response","32","261030","0.0-11.0-1.10","null","<p>A másik játékos ezt választotta: <b>finceknél</b>.</p><p>&#x2705;</p><p>A te válaszod és a másik játékos válasza <b>megegyeznek</b>.</p>","null","","","","feedback trial","",""
"html-button-response-esp","33","266630","0.0-11.0-0.11","5086","Ez itt egy kluhéj. Nincs is jobb egy jó...","1","kluhéjnél","[""kluhéjnál"",""kluhéjnél""]","kluhéjnél","esp trial","10","true"
"html-button-response","34","270150","0.0-11.0-1.11","null","<p>A másik játékos ezt választotta: <b>kluhéjnél</b>.</p><p>&#x2705;</p><p>A te válaszod és a másik játékos válasza <b>megegyeznek</b>.</p>","null","","","","feedback trial","",""
"html-button-response-esp","35","275572","0.0-11.0-0.12","3271","Ez itt egy júder. Elneveztem a kutyámat...","1","júdernek","[""júdernak"",""júdernek""]","júdernek","esp trial","10","true"
"html-button-response","36","279095","0.0-11.0-1.12","null","<p>A másik játékos ezt választotta: <b>júdernek</b>.</p><p>&#x2705;</p><p>A te válaszod és a másik játékos válasza <b>megegyeznek</b>.</p>","null","","","","feedback trial","",""
"html-button-response-esp","37","284513","0.0-11.0-0.13","3822","Ez itt egy sporzem. Elneveztem a kutyámat...","1","sporzemnek","[""sporzemnak"",""sporzemnek""]","sporzemnek","esp trial","10","true"
"html-button-response","38","288029","0.0-11.0-1.13","null","<p>A másik játékos ezt választotta: <b>sporzemnek</b>.</p><p>&#x2705;</p><p>A te válaszod és a másik játékos válasza <b>megegyeznek</b>.</p>","null","","","","feedback trial","",""
"html-button-response-esp","39","293452","0.0-11.0-0.14","3654","Ez itt egy brotes. Ott vagyunk a...","1","brotesben","[""brotesban"",""brotesben""]","brotesben","esp trial","10","true"
"html-button-response","40","296978","0.0-11.0-1.14","null","<p>A másik játékos ezt választotta: <b>brotesben</b>.</p><p>&#x2705;</p><p>A te válaszod és a másik játékos válasza <b>megegyeznek</b>.</p>","null","","","","feedback trial","",""
"html-button-response-esp","41","302399","0.0-11.0-0.15","3053","Ez itt egy gicéj. Nincs is jobb egy jó...","0","gicéjnél","[""gicéjnél"",""gicéjnál""]","gicéjnál","esp trial","10","false"
"html-button-response","42","305914","0.0-11.0-1.15","null","<p>A másik játékos ezt választotta: <b>gicéjnál</b>.</p><p>&#10060;</p><p>A válaszaitok <b>nem</b> egyeznek meg.</p>","null","","","","feedback trial","",""
"html-button-response-esp","43","311336","0.0-11.0-0.16","4474","Ez itt egy klordény. Elneveztem a kutyámat...","1","klordénynek","[""klordénynak"",""klordénynek""]","klordénynek","esp trial","10","true"
"html-button-response","44","314867","0.0-11.0-1.16","null","<p>A másik játékos ezt választotta: <b>klordénynek</b>.</p><p>&#x2705;</p><p>A te válaszod és a másik játékos válasza <b>megegyeznek</b>.</p>","null","","","","feedback trial","",""
"html-button-response-esp","45","320286","0.0-11.0-0.17","3954","Ez itt egy trincseg. Ott vagyunk a...","1","trincsegben","[""trincsegban"",""trincsegben""]","trincsegban","esp trial","10","false"
"html-button-response","46","323821","0.0-11.0-1.17","null","<p>A másik játékos ezt választotta: <b>trincsegban</b>.</p><p>&#10060;</p><p>A válaszaitok <b>nem</b> egyeznek meg.</p>","null","","","","feedback trial","",""
"html-button-response-esp","47","329247","0.0-11.0-0.18","3722","Ez itt egy trigenc. Elneveztem a kutyámat...","0","trigencnek","[""trigencnek"",""trigencnak""]","trigencnak","esp trial","10","false"
"html-button-response","48","332776","0.0-11.0-1.18","null","<p>A másik játékos ezt választotta: <b>trigencnak</b>.</p><p>&#10060;</p><p>A válaszaitok <b>nem</b> egyeznek meg.</p>","null","","","","feedback trial","",""
"html-button-response-esp","49","340178","0.0-11.0-0.19","6895","Ez itt egy csartény. Elneveztem a kutyámat...","1","csarténynek","[""csarténynak"",""csarténynek""]","csarténynek","esp trial","10","true"
"html-button-response","50","343703","0.0-11.0-1.19","null","<p>A másik játékos ezt választotta: <b>csarténynek</b>.</p><p>&#x2705;</p><p>A te válaszod és a másik játékos válasza <b>megegyeznek</b>.</p>","null","","","","feedback trial","",""
"html-button-response-esp","51","349130","0.0-11.0-0.20","4130","Ez itt egy hóbens. Ott vagyunk a...","0","hóbensben","[""hóbensben"",""hóbensban""]","hóbensben","esp trial","10","true"
"html-button-response","52","352659","0.0-11.0-1.20","null","<p>A másik játékos ezt választotta: <b>hóbensben</b>.</p><p>&#x2705;</p><p>A te válaszod és a másik játékos válasza <b>megegyeznek</b>.</p>","null","","","","feedback trial","",""
"html-button-response-esp","53","360638","0.0-11.0-0.21","7458","Ez itt egy csimen. Nincs is jobb egy jó...","0","csimennél","[""csimennél"",""csimennál""]","csimennál","esp trial","10","false"
"html-button-response","54","364173","0.0-11.0-1.21","null","<p>A másik játékos ezt választotta: <b>csimennál</b>.</p><p>&#10060;</p><p>A válaszaitok <b>nem</b> egyeznek meg.</p>","null","","","","feedback trial","",""
"html-button-response-esp","55","369598","0.0-11.0-0.22","3706","Ez itt egy tranék. Ott vagyunk a...","0","tranékben","[""tranékben"",""tranékban""]","tranékben","esp trial","10","true"
"html-button-response","56","373130","0.0-11.0-1.22","null","<p>A másik játékos ezt választotta: <b>tranékben</b>.</p><p>&#x2705;</p><p>A te válaszod és a másik játékos válasza <b>megegyeznek</b>.</p>","null","","","","feedback trial","",""
"html-button-response-esp","57","378560","0.0-11.0-0.23","3666","Ez itt egy kábesz. Nincs is jobb egy jó...","0","kábesznál","[""kábesznál"",""kábesznél""]","kábesznél","esp trial","10","false"
"html-button-response","58","382073","0.0-11.0-1.23","null","<p>A másik játékos ezt választotta: <b>kábesznél</b>.</p><p>&#10060;</p><p>A válaszaitok <b>nem</b> egyeznek meg.</p>","null","","","","feedback trial","",""
"html-button-response-esp","59","387501","0.0-11.0-0.24","3747","Ez itt egy trapszegy. Nincs is jobb egy jó...","1","trapszegynél","[""trapszegynál"",""trapszegynél""]","trapszegynél","esp trial","10","true"
"html-button-response","60","391014","0.0-11.0-1.24","null","<p>A másik játékos ezt választotta: <b>trapszegynél</b>.</p><p>&#x2705;</p><p>A te válaszod és a másik játékos válasza <b>megegyeznek</b>.</p>","null","","","","feedback trial","",""
"html-button-response-esp","61","396425","0.0-11.0-0.25","4690","Ez itt egy nidét. Ott vagyunk a...","0","nidétben","[""nidétben"",""nidétban""]","nidétban","esp trial","10","false"
"html-button-response","62","399947","0.0-11.0-1.25","null","<p>A másik játékos ezt választotta: <b>nidétban</b>.</p><p>&#10060;</p><p>A válaszaitok <b>nem</b> egyeznek meg.</p>","null","","","","feedback trial","",""
"html-button-response-esp","63","409497","0.0-11.0-0.26","9037","Ez itt egy jorzég. Elneveztem a kutyámat...","0","jorzégnek","[""jorzégnek"",""jorzégnak""]","jorzégnek","esp trial","10","true"
"html-button-response","64","413007","0.0-11.0-1.26","null","<p>A másik játékos ezt választotta: <b>jorzégnek</b>.</p><p>&#x2705;</p><p>A te válaszod és a másik játékos válasza <b>megegyeznek</b>.</p>","null","","","","feedback trial","",""
"html-button-response-esp","65","418426","0.0-11.0-0.27","3964","Ez itt egy lismév. Ott vagyunk a...","0","lismévben","[""lismévben"",""lismévban""]","lismévben","esp trial","10","true"
"html-button-response","66","421942","0.0-11.0-1.27","null","<p>A másik játékos ezt választotta: <b>lismévben</b>.</p><p>&#x2705;</p><p>A te válaszod és a másik játékos válasza <b>megegyeznek</b>.</p>","null","","","","feedback trial","",""
"html-button-response-esp","67","427373","0.0-11.0-0.28","3160","Ez itt egy szihét. Elneveztem a kutyámat...","0","szihétnek","[""szihétnek"",""szihétnak""]","szihétnak","esp trial","10","false"
"html-button-response","68","430892","0.0-11.0-1.28","null","<p>A másik játékos ezt választotta: <b>szihétnak</b>.</p><p>&#10060;</p><p>A válaszaitok <b>nem</b> egyeznek meg.</p>","null","","","","feedback trial","",""
"html-button-response-esp","69","439073","0.0-11.0-0.29","7670","Ez itt egy spáten. Elneveztem a kutyámat...","1","spátennek","[""spátennak"",""spátennek""]","spátennek","esp trial","10","true"
"html-button-response","70","442599","0.0-11.0-1.29","null","<p>A másik játékos ezt választotta: <b>spátennek</b>.</p><p>&#x2705;</p><p>A te válaszod és a másik játékos válasza <b>megegyeznek</b>.</p>","null","","","","feedback trial","",""
"html-button-response-esp","71","448860","0.0-11.0-0.30","5754","Ez itt egy nyarcéj. Elneveztem a kutyámat...","0","nyarcéjnak","[""nyarcéjnak"",""nyarcéjnek""]","nyarcéjnek","esp trial","10","false"
"html-button-response","72","452383","0.0-11.0-1.30","null","<p>A másik játékos ezt választotta: <b>nyarcéjnek</b>.</p><p>&#10060;</p><p>A válaszaitok <b>nem</b> egyeznek meg.</p>","null","","","","feedback trial","",""
"html-button-response-esp","73","457809","0.0-11.0-0.31","3715","Ez itt egy bidem. Ott vagyunk a...","1","bidemben","[""bidemban"",""bidemben""]","bidemban","esp trial","10","false"
"html-button-response","74","461319","0.0-11.0-1.31","null","<p>A másik játékos ezt választotta: <b>bidemban</b>.</p><p>&#10060;</p><p>A válaszaitok <b>nem</b> egyeznek meg.</p>","null","","","","feedback trial","",""
"html-button-response-esp","75","470554","0.0-11.0-0.32","8730","Ez itt egy licegy. Ott vagyunk a...","1","licegyben","[""licegyban"",""licegyben""]","licegyban","esp trial","10","false"
"html-button-response","76","474077","0.0-11.0-1.32","null","<p>A másik játékos ezt választotta: <b>licegyban</b>.</p><p>&#10060;</p><p>A válaszaitok <b>nem</b> egyeznek meg.</p>","null","","","","feedback trial","",""
"html-button-response-esp","77","479489","0.0-11.0-0.33","3804","Ez itt egy hivép. Ott vagyunk a...","0","hivépben","[""hivépben"",""hivépban""]","hivépben","esp trial","10","true"
"html-button-response","78","483025","0.0-11.0-1.33","null","<p>A másik játékos ezt választotta: <b>hivépben</b>.</p><p>&#x2705;</p><p>A te válaszod és a másik játékos válasza <b>megegyeznek</b>.</p>","null","","","","feedback trial","",""
"html-button-response-esp","79","488442","0.0-11.0-0.34","3542","Ez itt egy csinték. Ott vagyunk a...","1","csintékben","[""csintékban"",""csintékben""]","csintékben","esp trial","10","true"
"html-button-response","80","491970","0.0-11.0-1.34","null","<p>A másik játékos ezt választotta: <b>csintékben</b>.</p><p>&#x2705;</p><p>A te válaszod és a másik játékos válasza <b>megegyeznek</b>.</p>","null","","","","feedback trial","",""
"html-button-response-esp","81","497805","0.0-11.0-0.35","5320","Ez itt egy prately. Elneveztem a kutyámat...","0","pratelynek","[""pratelynek"",""pratelynak""]","pratelynek","esp trial","10","true"
"html-button-response","82","501332","0.0-11.0-1.35","null","<p>A másik játékos ezt választotta: <b>pratelynek</b>.</p><p>&#x2705;</p><p>A te válaszod és a másik játékos válasza <b>megegyeznek</b>.</p>","null","","","","feedback trial","",""
"html-button-response-esp","83","506753","0.0-11.0-0.36","4459","Ez itt egy nyábét. Ott vagyunk a...","1","nyábétban","[""nyábétben"",""nyábétban""]","nyábétben","esp trial","10","false"
"html-button-response","84","510283","0.0-11.0-1.36","null","<p>A másik játékos ezt választotta: <b>nyábétben</b>.</p><p>&#10060;</p><p>A válaszaitok <b>nem</b> egyeznek meg.</p>","null","","","","feedback trial","",""
"html-button-response-esp","85","515714","0.0-11.0-0.37","3413","Ez itt egy brukész. Nincs is jobb egy jó...","1","brukésznél","[""brukésznál"",""brukésznél""]","brukésznél","esp trial","10","true"
"html-button-response","86","519243","0.0-11.0-1.37","null","<p>A másik játékos ezt választotta: <b>brukésznél</b>.</p><p>&#x2705;</p><p>A te válaszod és a másik játékos válasza <b>megegyeznek</b>.</p>","null","","","","feedback trial","",""
"html-button-response-esp","87","524668","0.0-11.0-0.38","4071","Ez itt egy ronvet. Elneveztem a kutyámat...","1","ronvetnek","[""ronvetnak"",""ronvetnek""]","ronvetnek","esp trial","10","true"
"html-button-response","88","528186","0.0-11.0-1.38","null","<p>A másik játékos ezt választotta: <b>ronvetnek</b>.</p><p>&#x2705;</p><p>A te válaszod és a másik játékos válasza <b>megegyeznek</b>.</p>","null","","","","feedback trial","",""
"html-button-response-esp","89","533611","0.0-11.0-0.39","2364","Ez itt egy buhény. Ott vagyunk a...","1","buhényban","[""buhényben"",""buhényban""]","buhényben","esp trial","10","false"
"html-button-response","90","537132","0.0-11.0-1.39","null","<p>A másik játékos ezt választotta: <b>buhényben</b>.</p><p>&#10060;</p><p>A válaszaitok <b>nem</b> egyeznek meg.</p>","null","","","","feedback trial","",""
"html-button-response-esp","91","542544","0.0-11.0-0.40","4584","Ez itt egy jalrény. Nincs is jobb egy jó...","0","jalrénynál","[""jalrénynál"",""jalrénynél""]","jalrénynél","esp trial","10","false"
"html-button-response","92","546074","0.0-11.0-1.40","null","<p>A másik játékos ezt választotta: <b>jalrénynél</b>.</p><p>&#10060;</p><p>A válaszaitok <b>nem</b> egyeznek meg.</p>","null","","","","feedback trial","",""
"html-button-response-esp","93","551496","0.0-11.0-0.41","4854","Ez itt egy gonszék. Nincs is jobb egy jó...","1","gonszéknél","[""gonszéknál"",""gonszéknél""]","gonszéknél","esp trial","10","true"
"html-button-response","94","555009","0.0-11.0-1.41","null","<p>A másik játékos ezt választotta: <b>gonszéknél</b>.</p><p>&#x2705;</p><p>A te válaszod és a másik játékos válasza <b>megegyeznek</b>.</p>","null","","","","feedback trial","",""
"html-button-response-esp","95","560428","0.0-11.0-0.42","4286","Ez itt egy brigeszt. Elneveztem a kutyámat...","1","brigesztnek","[""brigesztnak"",""brigesztnek""]","brigesztnak","esp trial","10","false"
"html-button-response","96","563963","0.0-11.0-1.42","null","<p>A másik játékos ezt választotta: <b>brigesztnak</b>.</p><p>&#10060;</p><p>A válaszaitok <b>nem</b> egyeznek meg.</p>","null","","","","feedback trial","",""
"html-button-response-esp","97","569402","0.0-11.0-0.43","3240","Ez itt egy vodép. Elneveztem a kutyámat...","0","vodépnek","[""vodépnek"",""vodépnak""]","vodépnek","esp trial","10","true"
"html-button-response","98","572931","0.0-11.0-1.43","null","<p>A másik játékos ezt választotta: <b>vodépnek</b>.</p><p>&#x2705;</p><p>A te válaszod és a másik játékos válasza <b>megegyeznek</b>.</p>","null","","","","feedback trial","",""
"html-button-response-esp","99","580100","0.0-11.0-0.44","6648","Ez itt egy priszkenc. Elneveztem a kutyámat...","1","priszkencnek","[""priszkencnak"",""priszkencnek""]","priszkencnak","esp trial","10","false"
"html-button-response","100","583621","0.0-11.0-1.44","null","<p>A másik játékos ezt választotta: <b>priszkencnak</b>.</p><p>&#10060;</p><p>A válaszaitok <b>nem</b> egyeznek meg.</p>","null","","","","feedback trial","",""
"html-button-response-esp","101","591186","0.0-11.0-0.45","7058","Ez itt egy matéz. Ott vagyunk a...","0","matézben","[""matézben"",""matézban""]","matézben","esp trial","10","true"
"html-button-response","102","594713","0.0-11.0-1.45","null","<p>A másik játékos ezt választotta: <b>matézben</b>.</p><p>&#x2705;</p><p>A te válaszod és a másik játékos válasza <b>megegyeznek</b>.</p>","null","","","","feedback trial","",""
"html-button-response-esp","103","601242","0.0-11.0-0.46","6024","Ez itt egy ikszert. Ott vagyunk a...","1","ikszertban","[""ikszertben"",""ikszertban""]","ikszertban","esp trial","10","true"
"html-button-response","104","604759","0.0-11.0-1.46","null","<p>A másik játékos ezt választotta: <b>ikszertban</b>.</p><p>&#x2705;</p><p>A te válaszod és a másik játékos válasza <b>megegyeznek</b>.</p>","null","","","","feedback trial","",""
"html-button-response-esp","105","611012","0.0-11.0-0.47","5749","Ez itt egy dingec. Elneveztem a kutyámat...","1","dingecnek","[""dingecnak"",""dingecnek""]","dingecnak","esp trial","10","false"
"html-button-response","106","614534","0.0-11.0-1.47","null","<p>A másik játékos ezt választotta: <b>dingecnak</b>.</p><p>&#10060;</p><p>A válaszaitok <b>nem</b> egyeznek meg.</p>","null","","","","feedback trial","",""
"html-button-response-esp","107","619957","0.0-11.0-0.48","4316","Ez itt egy tránély. Elneveztem a kutyámat...","0","tránélynak","[""tránélynak"",""tránélynek""]","tránélynek","esp trial","10","false"
"html-button-response","108","623479","0.0-11.0-1.48","null","<p>A másik játékos ezt választotta: <b>tránélynek</b>.</p><p>&#10060;</p><p>A válaszaitok <b>nem</b> egyeznek meg.</p>","null","","","","feedback trial","",""
"html-button-response-esp","109","628982","0.0-11.0-0.49","4997","Ez itt egy forzéd. Elneveztem a kutyámat...","1","forzédnak","[""forzédnek"",""forzédnak""]","forzédnek","esp trial","10","false"
"html-button-response","110","632522","0.0-11.0-1.49","null","<p>A másik játékos ezt választotta: <b>forzédnek</b>.</p><p>&#10060;</p><p>A válaszaitok <b>nem</b> egyeznek meg.</p>","null","","","","feedback trial","",""
"html-button-response-esp","111","638160","0.0-11.0-0.50","5119","Ez itt egy jábéz. Ott vagyunk a...","1","jábézban","[""jábézben"",""jábézban""]","jábézben","esp trial","10","false"
"html-button-response","112","641672","0.0-11.0-1.50","null","<p>A másik játékos ezt választotta: <b>jábézben</b>.</p><p>&#10060;</p><p>A válaszaitok <b>nem</b> egyeznek meg.</p>","null","","","","feedback trial","",""
"html-button-response-esp","113","647542","0.0-11.0-0.51","5353","Ez itt egy sprízem. Nincs is jobb egy jó...","0","sprízemnél","[""sprízemnél"",""sprízemnál""]","sprízemnál","esp trial","10","false"
"html-button-response","114","651068","0.0-11.0-1.51","null","<p>A másik játékos ezt választotta: <b>sprízemnál</b>.</p><p>&#10060;</p><p>A válaszaitok <b>nem</b> egyeznek meg.</p>","null","","","","feedback trial","",""
"html-button-response-esp","115","656502","0.0-11.0-0.52","3375","Ez itt egy zsopéd. Ott vagyunk a...","1","zsopédban","[""zsopédben"",""zsopédban""]","zsopédben","esp trial","10","false"
"html-button-response","116","660015","0.0-11.0-1.52","null","<p>A másik játékos ezt választotta: <b>zsopédben</b>.</p><p>&#10060;</p><p>A válaszaitok <b>nem</b> egyeznek meg.</p>","null","","","","feedback trial","",""
"html-button-response-esp","117","665432","0.0-11.0-0.53","4386","Ez itt egy giheszt. Elneveztem a kutyámat...","1","gihesztnek","[""gihesztnak"",""gihesztnek""]","gihesztnak","esp trial","10","false"
"html-button-response","118","668951","0.0-11.0-1.53","null","<p>A másik játékos ezt választotta: <b>gihesztnak</b>.</p><p>&#10060;</p><p>A válaszaitok <b>nem</b> egyeznek meg.</p>","null","","","","feedback trial","",""
"html-button-response","119","681798","0.0-12.0","12341","<p>A közös játék most véget ért.</p><p>Mielőtt eláruljuk a végső pontszámodat, arra kérlek, játszd a szóválasztós játékot néhány percig egyedül is.</p><p>A feladatod ugyanaz lesz, választani két lehetőség közül.</p><p>Most viszont egyedül kell döntened, hogy te melyiket választanád.</p>","0","","","","","",""
"html-button-response-clever","120","685214","0.0-13.0-0.0","2904","Ez itt egy gúden. Ott vagyunk a...","1","gúdenben","[""gúdenban"",""gúdenben""]","","posttest trial","1",""
"html-button-response-clever","121","691626","0.0-13.0-0.1","5895","Ez itt egy sprivenc. Nincs is jobb egy jó...","1","sprivencnél","[""sprivencnál"",""sprivencnél""]","","posttest trial","1",""
"html-button-response-clever","122","696560","0.0-13.0-0.2","4421","Ez itt egy kalhész. Elneveztem a kutyámat...","0","kalhésznak","[""kalhésznak"",""kalhésznek""]","","posttest trial","1",""
"html-button-response-clever","123","701360","0.0-13.0-0.3","4295","Ez itt egy spábét. Ott vagyunk a...","0","spábétben","[""spábétben"",""spábétban""]","","posttest trial","1",""
"html-button-response-clever","124","705004","0.0-13.0-0.4","3126","Ez itt egy darhén. Ott vagyunk a...","0","darhénban","[""darhénban"",""darhénben""]","","posttest trial","1",""
"html-button-response-clever","125","708014","0.0-13.0-0.5","2488","Ez itt egy luméz. Ott vagyunk a...","0","lumézben","[""lumézben"",""lumézban""]","","posttest trial","1",""
"html-button-response-clever","126","711994","0.0-13.0-0.6","3466","Ez itt egy spicet. Elneveztem a kutyámat...","1","spicetnek","[""spicetnak"",""spicetnek""]","","posttest trial","1",""
"html-button-response-clever","127","716066","0.0-13.0-0.7","3567","Ez itt egy incéj. Elneveztem a kutyámat...","0","incéjnek","[""incéjnek"",""incéjnak""]","","posttest trial","1",""
"html-button-response-clever","128","719609","0.0-13.0-0.8","3030","Ez itt egy kátel. Elneveztem a kutyámat...","0","kátelnek","[""kátelnek"",""kátelnak""]","","posttest trial","1",""
"html-button-response-clever","129","722672","0.0-13.0-0.9","2553","Ez itt egy pisély. Ott vagyunk a...","0","pisélyben","[""pisélyben"",""pisélyban""]","","posttest trial","1",""
"html-button-response-clever","130","726058","0.0-13.0-0.10","2877","Ez itt egy zsádév. Elneveztem a kutyámat...","1","zsádévnek","[""zsádévnak"",""zsádévnek""]","","posttest trial","1",""
"html-button-response-clever","131","729076","0.0-13.0-0.11","2511","Ez itt egy klosét. Elneveztem a kutyámat...","1","klosétnek","[""klosétnak"",""klosétnek""]","","posttest trial","1",""
"html-button-response-clever","132","732460","0.0-13.0-0.12","2862","Ez itt egy zsáder. Ott vagyunk a...","0","zsáderben","[""zsáderben"",""zsáderban""]","","posttest trial","1",""
"html-button-response-clever","133","735260","0.0-13.0-0.13","2286","Ez itt egy vorszen. Nincs is jobb egy jó...","1","vorszennél","[""vorszennál"",""vorszennél""]","","posttest trial","1",""
"html-button-response-clever","134","738050","0.0-13.0-0.14","2273","Ez itt egy pítend. Ott vagyunk a...","0","pítendben","[""pítendben"",""pítendban""]","","posttest trial","1",""
"html-button-response-clever","135","740100","0.0-13.0-0.15","1539","Ez itt egy lorzens. Nincs is jobb egy jó...","0","lorzensnél","[""lorzensnél"",""lorzensnál""]","","posttest trial","1",""
"html-button-response-clever","136","742631","0.0-13.0-0.16","2010","Ez itt egy dorzéj. Elneveztem a kutyámat...","0","dorzéjnak","[""dorzéjnak"",""dorzéjnek""]","","posttest trial","1",""
"html-button-response-clever","137","744531","0.0-13.0-0.17","1394","Ez itt egy zihenc. Elneveztem a kutyámat...","0","zihencnak","[""zihencnak"",""zihencnek""]","","posttest trial","1",""
"html-button-response-clever","138","748745","0.0-13.0-0.18","3706","Ez itt egy hágyét. Elneveztem a kutyámat...","1","hágyétnak","[""hágyétnek"",""hágyétnak""]","","posttest trial","1",""
"html-button-response-clever","139","752866","0.0-13.0-0.19","3603","Ez itt egy pijél. Nincs is jobb egy jó...","1","pijélnél","[""pijélnál"",""pijélnél""]","","posttest trial","1",""
"html-button-response-clever","140","756166","0.0-13.0-0.20","2785","Ez itt egy garcép. Nincs is jobb egy jó...","1","garcépnél","[""garcépnál"",""garcépnél""]","","posttest trial","1",""
"html-button-response-clever","141","759348","0.0-13.0-0.21","2676","Ez itt egy brindez. Elneveztem a kutyámat...","0","brindeznak","[""brindeznak"",""brindeznek""]","","posttest trial","1",""
"html-button-response-clever","142","765838","0.0-13.0-0.22","5982","Ez itt egy kaszép. Elneveztem a kutyámat...","0","kaszépnek","[""kaszépnek"",""kaszépnak""]","","posttest trial","1",""
"html-button-response-clever","143","769847","0.0-13.0-0.23","3498","Ez itt egy priszec. Ott vagyunk a...","0","priszecben","[""priszecben"",""priszecban""]","","posttest trial","1",""
"html-button-response-clever","144","775954","0.0-13.0-0.24","5586","Ez itt egy monveg. Nincs is jobb egy jó...","0","monvegnél","[""monvegnél"",""monvegnál""]","","posttest trial","1",""
"html-button-response-clever","145","780114","0.0-13.0-0.25","3652","Ez itt egy nyamet. Ott vagyunk a...","0","nyametben","[""nyametben"",""nyametban""]","","posttest trial","1",""
"html-button-response-clever","146","783686","0.0-13.0-0.26","3057","Ez itt egy tosély. Ott vagyunk a...","1","tosélyban","[""tosélyben"",""tosélyban""]","","posttest trial","1",""
"html-button-response-clever","147","787759","0.0-13.0-0.27","3567","Ez itt egy fájéz. Ott vagyunk a...","0","fájézban","[""fájézban"",""fájézben""]","","posttest trial","1",""
"html-button-response-clever","148","791239","0.0-13.0-0.28","2968","Ez itt egy kalréz. Ott vagyunk a...","1","kalrézban","[""kalrézben"",""kalrézban""]","","posttest trial","1",""
"html-button-response-clever","149","794631","0.0-13.0-0.29","2880","Ez itt egy rapszek. Nincs is jobb egy jó...","0","rapszeknál","[""rapszeknál"",""rapszeknél""]","","posttest trial","1",""
"html-button-response-clever","150","798149","0.0-13.0-0.30","2998","Ez itt egy dábegy. Ott vagyunk a...","0","dábegyban","[""dábegyban"",""dábegyben""]","","posttest trial","1",""
"html-button-response-clever","151","802089","0.0-13.0-0.31","3433","Ez itt egy klingesz. Ott vagyunk a...","1","klingeszben","[""klingeszban"",""klingeszben""]","","posttest trial","1",""
"html-button-response-clever","152","806507","0.0-13.0-0.32","3900","Ez itt egy nyupér. Nincs is jobb egy jó...","0","nyupérnél","[""nyupérnél"",""nyupérnál""]","","posttest trial","1",""
"html-button-response-clever","153","811520","0.0-13.0-0.33","4503","Ez itt egy trájeg. Ott vagyunk a...","0","trájegben","[""trájegben"",""trájegban""]","","posttest trial","1",""
"html-button-response-clever","154","816115","0.0-13.0-0.34","4092","Ez itt egy ítens. Ott vagyunk a...","1","ítensben","[""ítensban"",""ítensben""]","","posttest trial","1",""
"html-button-response-clever","155","820259","0.0-13.0-0.35","3624","Ez itt egy narem. Ott vagyunk a...","0","naremben","[""naremben"",""naremban""]","","posttest trial","1",""
"html-button-response-clever","156","825420","0.0-13.0-0.36","4642","Ez itt egy jóbec. Elneveztem a kutyámat...","1","jóbecnek","[""jóbecnak"",""jóbecnek""]","","posttest trial","1",""
"html-button-response-clever","157","827905","0.0-13.0-0.37","1972","Ez itt egy braszenc. Nincs is jobb egy jó...","1","braszencnél","[""braszencnál"",""braszencnél""]","","posttest trial","1",""
"html-button-response-clever","158","831179","0.0-13.0-0.38","2771","Ez itt egy bupéz. Ott vagyunk a...","1","bupézban","[""bupézben"",""bupézban""]","","posttest trial","1",""
"html-button-response-clever","159","834590","0.0-13.0-0.39","2893","Ez itt egy dalenc. Nincs is jobb egy jó...","1","dalencnél","[""dalencnál"",""dalencnél""]","","posttest trial","1",""
"html-button-response-clever","160","837957","0.0-13.0-0.40","2861","Ez itt egy spanél. Nincs is jobb egy jó...","0","spanélnál","[""spanélnál"",""spanélnél""]","","posttest trial","1",""
"html-button-response-clever","161","842593","0.0-13.0-0.41","4128","Ez itt egy zsigén. Nincs is jobb egy jó...","1","zsigénnál","[""zsigénnél"",""zsigénnál""]","","posttest trial","1",""
"html-button-response-clever","162","848256","0.0-13.0-0.42","5160","Ez itt egy spumény. Elneveztem a kutyámat...","0","spuménynek","[""spuménynek"",""spuménynak""]","","posttest trial","1",""
"html-button-response-clever","163","854575","0.0-13.0-0.43","5815","Ez itt egy bralkép. Ott vagyunk a...","1","bralképben","[""bralképban"",""bralképben""]","","posttest trial","1",""
"html-button-response-clever","164","858679","0.0-13.0-0.44","3590","Ez itt egy zopély. Nincs is jobb egy jó...","0","zopélynél","[""zopélynél"",""zopélynál""]","","posttest trial","1",""
"html-button-response-clever","165","861595","0.0-13.0-0.45","2396","Ez itt egy nyítem. Ott vagyunk a...","0","nyítemben","[""nyítemben"",""nyítemban""]","","posttest trial","1",""
"html-button-response-clever","166","866331","0.0-13.0-0.46","4216","Ez itt egy trismél. Elneveztem a kutyámat...","0","trismélnek","[""trismélnek"",""trismélnak""]","","posttest trial","1",""
"html-button-response-clever","167","872497","0.0-13.0-0.47","5652","Ez itt egy danét. Nincs is jobb egy jó...","0","danétnál","[""danétnál"",""danétnél""]","","posttest trial","1",""
"html-button-response-clever","168","875923","0.0-13.0-0.48","2921","Ez itt egy pivéd. Ott vagyunk a...","0","pivédben","[""pivédben"",""pivédban""]","","posttest trial","1",""
"html-button-response-clever","169","880285","0.0-13.0-0.49","3843","Ez itt egy ronszek. Ott vagyunk a...","0","ronszekben","[""ronszekben"",""ronszekban""]","","posttest trial","1",""
"html-button-response-clever","170","885053","0.0-13.0-0.50","4246","Ez itt egy sortem. Nincs is jobb egy jó...","0","sortemnál","[""sortemnál"",""sortemnél""]","","posttest trial","1",""
"html-button-response-clever","171","888001","0.0-13.0-0.51","2440","Ez itt egy zsúdel. Elneveztem a kutyámat...","1","zsúdelnek","[""zsúdelnak"",""zsúdelnek""]","","posttest trial","1",""
"html-button-response-clever","172","892451","0.0-13.0-0.52","3944","Ez itt egy dihely. Elneveztem a kutyámat...","0","dihelynak","[""dihelynak"",""dihelynek""]","","posttest trial","1",""
"html-button-response-clever","173","897141","0.0-13.0-0.53","4173","Ez itt egy jukél. Nincs is jobb egy jó...","0","jukélnál","[""jukélnál"",""jukélnél""]","","posttest trial","1",""
"html-button-response","174","903579","0.0-14.0","5930","<p> Vége a játéknak. A teljes pontszámod 31/54.</p><p> Szép munka! &#128526;&#128526;&#128526;</p><p>A Befejezés gomb megnyomása után bezárhatod a böngészőablakot.</p>","0","","","","","",""
"html-keyboard-response","175","909109","0.0-15.0","null","<div class=""message"">
         <p>Egy kis türelmet kérünk, amíg elmentjük az adatokat...</p>
         </div>","null","","","","","",""
