"trial_type","trial_index","time_elapsed","internal_node_id","rt","stimulus","response","response_string","choices","esp_response","trial_kind","list_number","esp_match"
"pavlovia","0","609","0.0-0.0","","","","","","","","",""
"html-button-response","1","100621","0.0-1.0","99502","<p>Kedves Résztvevő! A Budapesti Műszaki és Gazdaságtudományi Egyetem Kognitív Tudományi Tanszékének kutatásában való részvételed kérjük. A kutatásban azt vizsgáljuk, hogy a magyar anyanyelvűek hogyan használnak bizonyos szóalakokat, és hogy milyen képük van arról, hogy mások hogyan használják, hogyan képzik a szavakat. Ez hozzásegít bennünket ahhoz, hogy jobban megértsük, hogyan dolgozza fel és tárolja a nyelvet az emberi agy, és hogyan működnek, hogyan változnak egy adott közösség nyelvi konvenciói.</p><p>A vizsgálat egy rövid számítógépes feladatból fog állni. A kutatásban való részvétel önkéntes, a részvételi szándék bármikor visszavonható. A résztvevők eredményeit név nélkül kezeljük, így nem beazonosíthatók az adatok feldolgozása során. Minden személyes adatot az EU általános adatvédelmi rendeletének (GDPR) megfelelően kezelünk és legfeljebb öt éven belül megsemmisítünk. A vizsgálat jellemzően húsz percet vesz igénybe.</p><p>Kutatásvezető:</p><p>Dr. Rácz Péter, tudományos munkatárs, BME KTT</p><p>e-mail: racz.peter.marton@ttk.bme.hu</p>","0","","","","","",""
"html-button-response","2","146532","0.0-2.0","45410","<p>A kísérletben szavakat fogsz látni. Ezek között lesznek olyanok, amelyeket ismersz, de előfordulhatnak olyanok is, amelyeket nem ismersz, sőt, vannak köztük kitalált szavak is. Minden szónál látni fogsz toldalékolt alakokat. A te feladatod az lesz, hogy minden szóhoz kiválaszd azt a toldalékolt alakot, amely a te számodra ismerősebben, természetesebben hangzik. Rossz válaszok nincsenek, mert van olyan, hogy különböző embereknek más és más szó tűnik jobb választásnak. A választ úgy tudod majd kiválasztani, ha rákattintasz.</p><p>Ebben a szóválasztós játékban egy másik játékossal együtt veszel majd részt. A másik játékos is minden esetben azok közül a lehetőségek közül válogathat, mint te. Kettőtök feladata az, hogy ugyanazt a lehetőséget válasszátok minden esetben. Ahhoz, hogy ez sikerüljön, neked figyelned kell arra, hogy a másik játékos milyen válaszokat ad, és ennek alapján meg kell tippelned, hogyan választ legközelebb. Ha eltalálod, akkor pontot kapsz.</p>","0","","","","","",""
"html-button-response","3","150746","0.0-3.0","3712","<p>Kérjük, olvasd el az alábbi nyilatkozatot, és amennyiben egyetértesz vele, nyomj a Beleegyezés gombra!</p><p>Kijelentem, hogy magyar anyanyelvű személyként önként veszek részt a BME KTT kísérletében. A kutatás céljával és folyamatával kapcsolatban elegendő tájékoztatást kaptam, lehetőségem volt kérdések feltételére, és esetleges kérdéseimre megfelelő válaszokat kaptam. A tájékoztatás alapján elegendő mennyiségű információ áll a rendelkezésemre, hogy eldönthessem, részt kívánok-e venni a kutatásban.</p><p>Tisztában vagyok vele, hogy részvételi szándékomat és adataimat bármikor, indoklás nélkül visszavonhatom.</p><p>Értem és tudomásul veszem, hogy a kutatás tudományos célokat szolgál, és az általam szolgáltatott adatokat a BME kizárólag kutatási célból használja fel. Tudomásul veszem, hogy eredményeimet a többi résztvevő eredményeivel együtt kezelik, így egyéni teljesítményemről visszajelzést, szakvéleményt nem kapok.</p><p>Megértettem, hogy adataim kezelését illetően a BME az EU általános adatvédelmi rendelete (GDPR), a hatályos adatvédelmi törvény és a nemzetközi kutatás-etikai alapelvek szerint jár el. Eredményeim anonim módon kerülnek feldolgozásra, és a kutatás résztvevői az azonosításomra alkalmas adataimat harmadik félnek nem szolgáltatják ki. Engedélyezem a BME számára a jelen kutatásban felvett adataim feldolgozását és tárolását, beleértve azok későbbi kutatásokhoz való felhasználását is. Személyes adataim kezelésével kapcsolatban tájékoztatást kérhetek a kutatás résztvevőitől, az adatkezelés ellen tiltakozhatok, kérhetem személyes adataim helyesbítését, törlését vagy zárolását, valamint jogorvoslatért a Nemzeti Adatvédelmi és Információszabadság Hatósághoz fordulhatok.</p><p>Kijelentem, hogy a kutatásban való részvételem körülményeiről részletes tájékoztatást kaptam, és a feltételeket elfogadom.</p>","0","","","","","",""
"survey-text","4","185740","0.0-4.0","34488","","{""Q0"":""BM04T7"",""Q1"":""nő"",""Q2"":""1985"",""Q3"":""20""}","","","","","",""
"html-button-response","5","206072","0.0-5.0","19822","<p>Ebben a játékban szavakat kell toldalékolni.</p> <p>Minden körben mutatunk majd egy példamondatot, amiben lesz egy szó.</p> <p>Alatta jön egy második mondat, ezt a mondatot neked kell majd befejezni, ugyanezzel a szóval.</p> <p>Nem biztos, hogy a szó eleve ismerős lesz számodra!</p> <p>Minden mondathoz adunk két lehetőséget, ezeket balra és jobbra látod majd.</p> <p>A játék kb. negyedóráig-húsz percig tart.</p>","0","","","","","",""
"html-button-response","6","229246","0.0-6.0","22673","<p>Nézzünk egy példát!</p> <p>A példamondat: ""Ez itt egy blumbnyeg.""</p><p>Neked ezt a mondatot kell befejezned: ""Ott vagyunk a...""</p><p>A lehetőségek pedig ezek:</p>","0","","","","","",""
"html-button-response","7","236752","0.0-7.0","6996","<p>Nagyon jó.</p><p>Ezt a játékot nem egyedül fogod játszani, hanem egy másik játékossal.</p><p>Mielőtt továbblépünk, összekapcsolunk titeket egymással.</p><p>Ez igénybe vehet néhány másodpercet, amihez szíves türelmed kérjük.</p>","0","","","","","",""
"html-button-response","8","242483","0.0-8.0","null","<p>Csatlakozás a másik játékoshoz...</p>","null","","","","","",""
"html-button-response","9","245000","0.0-9.0","null","<p> Sikeres kapcsolódás!</p>","null","","","","","",""
"html-button-response","10","255512","0.0-10.0","null","<p>A következőkben ketten játsszátok a szóválasztós játékot.</p><p>A feladatotok az lesz, hogy minden körben <b>ugyanazt</b> a szót válasszátok.</p><p>Minden ilyen egyező válaszért pontot kaptok.</p><p>Próbáld meg kitalálni, mit választ a másik játékos!</p><p>Bármikor választhatsz, a körnek akkor van vége, ha mindketten döntöttetek.</p><p>Sok sikert!</p>","null","","","","","",""
"html-button-response-esp","11","264604","0.0-11.0-0.0","8587","Ez itt egy murdes. Nincs is jobb egy jó...","1","murdesnél","[""murdesnál"",""murdesnél""]","murdesnál","esp trial","4","false"
"html-button-response","12","268120","0.0-11.0-1.0","null","<p>A másik játékos ezt választotta: <b>murdesnál</b>.</p><p>&#10060;</p><p>A válaszaitok <b>nem</b> egyeznek meg.</p>","null","","","","feedback trial","",""
"html-button-response-esp","13","274913","0.0-11.0-0.1","6284","Ez itt egy dutec. Nincs is jobb egy jó...","1","dutecnál","[""dutecnél"",""dutecnál""]","dutecnál","esp trial","4","true"
"html-button-response","14","278418","0.0-11.0-1.1","null","<p>A másik játékos ezt választotta: <b>dutecnál</b>.</p><p>&#x2705;</p><p>A te válaszod és a másik játékos válasza <b>megegyeznek</b>.</p>","null","","","","feedback trial","",""
"html-button-response-esp","15","284430","0.0-11.0-0.2","5379","Ez itt egy fágyép. Nincs is jobb egy jó...","1","fágyépnál","[""fágyépnél"",""fágyépnál""]","fágyépnél","esp trial","4","false"
"html-button-response","16","287940","0.0-11.0-1.2","null","<p>A másik játékos ezt választotta: <b>fágyépnél</b>.</p><p>&#10060;</p><p>A válaszaitok <b>nem</b> egyeznek meg.</p>","null","","","","feedback trial","",""
"html-button-response-esp","17","294557","0.0-11.0-0.3","6100","Ez itt egy fizend. Ott vagyunk a...","0","fizendben","[""fizendben"",""fizendban""]","fizendban","esp trial","4","false"
"html-button-response","18","298076","0.0-11.0-1.3","null","<p>A másik játékos ezt választotta: <b>fizendban</b>.</p><p>&#10060;</p><p>A válaszaitok <b>nem</b> egyeznek meg.</p>","null","","","","feedback trial","",""
"html-button-response-esp","19","304263","0.0-11.0-0.4","5676","Ez itt egy vismer. Nincs is jobb egy jó...","0","vismernél","[""vismernél"",""vismernál""]","vismernál","esp trial","4","false"
"html-button-response","20","307781","0.0-11.0-1.4","null","<p>A másik játékos ezt választotta: <b>vismernál</b>.</p><p>&#10060;</p><p>A válaszaitok <b>nem</b> egyeznek meg.</p>","null","","","","feedback trial","",""
"html-button-response-esp","21","316473","0.0-11.0-0.5","8181","Ez itt egy bingéj. Elneveztem a kutyámat...","1","bingéjnak","[""bingéjnek"",""bingéjnak""]","bingéjnak","esp trial","4","true"
"html-button-response","22","319986","0.0-11.0-1.5","null","<p>A másik játékos ezt választotta: <b>bingéjnak</b>.</p><p>&#x2705;</p><p>A te válaszod és a másik játékos válasza <b>megegyeznek</b>.</p>","null","","","","feedback trial","",""
"html-button-response-esp","23","326806","0.0-11.0-0.6","6316","Ez itt egy zined. Elneveztem a kutyámat...","0","zinednak","[""zinednak"",""zinednek""]","zinednak","esp trial","4","true"
"html-button-response","24","330308","0.0-11.0-1.6","null","<p>A másik játékos ezt választotta: <b>zinednak</b>.</p><p>&#x2705;</p><p>A te válaszod és a másik játékos válasza <b>megegyeznek</b>.</p>","null","","","","feedback trial","",""
"html-button-response-esp","25","338222","0.0-11.0-0.7","7403","Ez itt egy pristél. Ott vagyunk a...","1","pristélban","[""pristélben"",""pristélban""]","pristélban","esp trial","4","true"
"html-button-response","26","341738","0.0-11.0-1.7","null","<p>A másik játékos ezt választotta: <b>pristélban</b>.</p><p>&#x2705;</p><p>A te válaszod és a másik játékos válasza <b>megegyeznek</b>.</p>","null","","","","feedback trial","",""
"html-button-response-esp","27","347763","0.0-11.0-0.8","4207","Ez itt egy lijez. Elneveztem a kutyámat...","0","lijeznak","[""lijeznak"",""lijeznek""]","lijeznak","esp trial","4","true"
"html-button-response","28","351275","0.0-11.0-1.8","null","<p>A másik játékos ezt választotta: <b>lijeznak</b>.</p><p>&#x2705;</p><p>A te válaszod és a másik játékos válasza <b>megegyeznek</b>.</p>","null","","","","feedback trial","",""
"html-button-response-esp","29","362839","0.0-11.0-0.9","11053","Ez itt egy dunkész. Ott vagyunk a...","1","dunkészben","[""dunkészban"",""dunkészben""]","dunkészben","esp trial","4","true"
"html-button-response","30","366362","0.0-11.0-1.9","null","<p>A másik játékos ezt választotta: <b>dunkészben</b>.</p><p>&#x2705;</p><p>A te válaszod és a másik játékos válasza <b>megegyeznek</b>.</p>","null","","","","feedback trial","",""
"html-button-response-esp","31","376741","0.0-11.0-0.10","9865","Ez itt egy humék. Elneveztem a kutyámat...","0","huméknek","[""huméknek"",""huméknak""]","huméknek","esp trial","4","true"
"html-button-response","32","380252","0.0-11.0-1.10","null","<p>A másik játékos ezt választotta: <b>huméknek</b>.</p><p>&#x2705;</p><p>A te válaszod és a másik játékos válasza <b>megegyeznek</b>.</p>","null","","","","feedback trial","",""
"html-button-response-esp","33","386276","0.0-11.0-0.11","3710","Ez itt egy jurdent. Nincs is jobb egy jó...","1","jurdentnél","[""jurdentnál"",""jurdentnél""]","jurdentnál","esp trial","4","false"
"html-button-response","34","389798","0.0-11.0-1.11","null","<p>A másik játékos ezt választotta: <b>jurdentnál</b>.</p><p>&#10060;</p><p>A válaszaitok <b>nem</b> egyeznek meg.</p>","null","","","","feedback trial","",""
"html-button-response-esp","35","399101","0.0-11.0-0.12","8793","Ez itt egy dinelt. Ott vagyunk a...","0","dineltban","[""dineltban"",""dineltben""]","dineltban","esp trial","4","true"
"html-button-response","36","402605","0.0-11.0-1.12","null","<p>A másik játékos ezt választotta: <b>dineltban</b>.</p><p>&#x2705;</p><p>A te válaszod és a másik játékos válasza <b>megegyeznek</b>.</p>","null","","","","feedback trial","",""
"html-button-response-esp","37","409691","0.0-11.0-0.13","6577","Ez itt egy surnegy. Nincs is jobb egy jó...","1","surnegynál","[""surnegynél"",""surnegynál""]","surnegynál","esp trial","4","true"
"html-button-response","38","413199","0.0-11.0-1.13","null","<p>A másik játékos ezt választotta: <b>surnegynál</b>.</p><p>&#x2705;</p><p>A te válaszod és a másik játékos válasza <b>megegyeznek</b>.</p>","null","","","","feedback trial","",""
"html-button-response-esp","39","420107","0.0-11.0-0.14","6397","Ez itt egy lingék. Nincs is jobb egy jó...","0","lingéknál","[""lingéknál"",""lingéknél""]","lingéknál","esp trial","4","true"
"html-button-response","40","423613","0.0-11.0-1.14","null","<p>A másik játékos ezt választotta: <b>lingéknál</b>.</p><p>&#x2705;</p><p>A te válaszod és a másik játékos válasza <b>megegyeznek</b>.</p>","null","","","","feedback trial","",""
"html-button-response-esp","41","430807","0.0-11.0-0.15","6684","Ez itt egy nuhét. Nincs is jobb egy jó...","0","nuhétnál","[""nuhétnál"",""nuhétnél""]","nuhétnál","esp trial","4","true"
"html-button-response","42","434316","0.0-11.0-1.15","null","<p>A másik játékos ezt választotta: <b>nuhétnál</b>.</p><p>&#x2705;</p><p>A te válaszod és a másik játékos válasza <b>megegyeznek</b>.</p>","null","","","","feedback trial","",""
"html-button-response-esp","43","442529","0.0-11.0-0.16","7699","Ez itt egy dóbem. Elneveztem a kutyámat...","1","dóbemnak","[""dóbemnek"",""dóbemnak""]","dóbemnak","esp trial","4","true"
"html-button-response","44","446037","0.0-11.0-1.16","null","<p>A másik játékos ezt választotta: <b>dóbemnak</b>.</p><p>&#x2705;</p><p>A te válaszod és a másik játékos válasza <b>megegyeznek</b>.</p>","null","","","","feedback trial","",""
"html-button-response-esp","45","453733","0.0-11.0-0.17","7187","Ez itt egy zábény. Elneveztem a kutyámat...","0","zábénynak","[""zábénynak"",""zábénynek""]","zábénynak","esp trial","4","true"
"html-button-response","46","457244","0.0-11.0-1.17","null","<p>A másik játékos ezt választotta: <b>zábénynak</b>.</p><p>&#x2705;</p><p>A te válaszod és a másik játékos válasza <b>megegyeznek</b>.</p>","null","","","","feedback trial","",""
"html-button-response-esp","47","463260","0.0-11.0-0.18","2916","Ez itt egy gábéd. Nincs is jobb egy jó...","0","gábédnál","[""gábédnál"",""gábédnél""]","gábédnél","esp trial","4","false"
"html-button-response","48","466764","0.0-11.0-1.18","null","<p>A másik játékos ezt választotta: <b>gábédnél</b>.</p><p>&#10060;</p><p>A válaszaitok <b>nem</b> egyeznek meg.</p>","null","","","","feedback trial","",""
"html-button-response-esp","49","478888","0.0-11.0-0.19","11615","Ez itt egy zuten. Nincs is jobb egy jó...","0","zutennál","[""zutennál"",""zutennél""]","zutennál","esp trial","4","true"
"html-button-response","50","482402","0.0-11.0-1.19","null","<p>A másik játékos ezt választotta: <b>zutennál</b>.</p><p>&#x2705;</p><p>A te válaszod és a másik játékos válasza <b>megegyeznek</b>.</p>","null","","","","feedback trial","",""
"html-button-response-esp","51","489236","0.0-11.0-0.20","6320","Ez itt egy dajrens. Nincs is jobb egy jó...","1","dajrensnál","[""dajrensnél"",""dajrensnál""]","dajrensnál","esp trial","4","true"
"html-button-response","52","492746","0.0-11.0-1.20","null","<p>A másik játékos ezt választotta: <b>dajrensnál</b>.</p><p>&#x2705;</p><p>A te válaszod és a másik játékos válasza <b>megegyeznek</b>.</p>","null","","","","feedback trial","",""
"html-button-response-esp","53","500797","0.0-11.0-0.21","7545","Ez itt egy tarhéz. Ott vagyunk a...","0","tarhézban","[""tarhézban"",""tarhézben""]","tarhézben","esp trial","4","false"
"html-button-response","54","504312","0.0-11.0-1.21","null","<p>A másik játékos ezt választotta: <b>tarhézben</b>.</p><p>&#10060;</p><p>A válaszaitok <b>nem</b> egyeznek meg.</p>","null","","","","feedback trial","",""
"html-button-response-esp","55","511123","0.0-11.0-0.22","6307","Ez itt egy hosét. Elneveztem a kutyámat...","0","hosétnak","[""hosétnak"",""hosétnek""]","hosétnek","esp trial","4","false"
"html-button-response","56","514635","0.0-11.0-1.22","null","<p>A másik játékos ezt választotta: <b>hosétnek</b>.</p><p>&#10060;</p><p>A válaszaitok <b>nem</b> egyeznek meg.</p>","null","","","","feedback trial","",""
"html-button-response-esp","57","520658","0.0-11.0-0.23","2084","Ez itt egy spizec. Elneveztem a kutyámat...","1","spizecnek","[""spizecnak"",""spizecnek""]","spizecnak","esp trial","4","false"
"html-button-response","58","524174","0.0-11.0-1.23","null","<p>A másik játékos ezt választotta: <b>spizecnak</b>.</p><p>&#10060;</p><p>A válaszaitok <b>nem</b> egyeznek meg.</p>","null","","","","feedback trial","",""
"html-button-response-esp","59","530196","0.0-11.0-0.24","4077","Ez itt egy briskéd. Nincs is jobb egy jó...","1","briskédnél","[""briskédnál"",""briskédnél""]","briskédnál","esp trial","4","false"
"html-button-response","60","533713","0.0-11.0-1.24","null","<p>A másik játékos ezt választotta: <b>briskédnál</b>.</p><p>&#10060;</p><p>A válaszaitok <b>nem</b> egyeznek meg.</p>","null","","","","feedback trial","",""
"html-button-response-esp","61","539722","0.0-11.0-0.25","4056","Ez itt egy dibez. Ott vagyunk a...","1","dibezban","[""dibezben"",""dibezban""]","dibezban","esp trial","4","true"
"html-button-response","62","543226","0.0-11.0-1.25","null","<p>A másik játékos ezt választotta: <b>dibezban</b>.</p><p>&#x2705;</p><p>A te válaszod és a másik játékos válasza <b>megegyeznek</b>.</p>","null","","","","feedback trial","",""
"html-button-response-esp","63","549238","0.0-11.0-0.26","4925","Ez itt egy pazév. Nincs is jobb egy jó...","0","pazévnél","[""pazévnél"",""pazévnál""]","pazévnél","esp trial","4","true"
"html-button-response","64","552766","0.0-11.0-1.26","null","<p>A másik játékos ezt választotta: <b>pazévnél</b>.</p><p>&#x2705;</p><p>A te válaszod és a másik játékos válasza <b>megegyeznek</b>.</p>","null","","","","feedback trial","",""
"html-button-response-esp","65","561752","0.0-11.0-0.27","8481","Ez itt egy vurnel. Elneveztem a kutyámat...","1","vurnelnak","[""vurnelnek"",""vurnelnak""]","vurnelnak","esp trial","4","true"
"html-button-response","66","565267","0.0-11.0-1.27","null","<p>A másik játékos ezt választotta: <b>vurnelnak</b>.</p><p>&#x2705;</p><p>A te válaszod és a másik játékos válasza <b>megegyeznek</b>.</p>","null","","","","feedback trial","",""
"html-button-response-esp","67","575513","0.0-11.0-0.28","9733","Ez itt egy klajrén. Elneveztem a kutyámat...","0","klajrénnak","[""klajrénnak"",""klajrénnek""]","klajrénnek","esp trial","4","false"
"html-button-response","68","579028","0.0-11.0-1.28","null","<p>A másik játékos ezt választotta: <b>klajrénnek</b>.</p><p>&#10060;</p><p>A válaszaitok <b>nem</b> egyeznek meg.</p>","null","","","","feedback trial","",""
"html-button-response-esp","69","586065","0.0-11.0-0.29","6527","Ez itt egy szibed. Ott vagyunk a...","0","szibedben","[""szibedben"",""szibedban""]","szibedban","esp trial","4","false"
"html-button-response","70","589576","0.0-11.0-1.29","null","<p>A másik játékos ezt választotta: <b>szibedban</b>.</p><p>&#10060;</p><p>A válaszaitok <b>nem</b> egyeznek meg.</p>","null","","","","feedback trial","",""
"html-button-response-esp","71","595591","0.0-11.0-0.30","3480","Ez itt egy zarcég. Nincs is jobb egy jó...","1","zarcégnél","[""zarcégnál"",""zarcégnél""]","zarcégnál","esp trial","4","false"
"html-button-response","72","599103","0.0-11.0-1.30","null","<p>A másik játékos ezt választotta: <b>zarcégnál</b>.</p><p>&#10060;</p><p>A válaszaitok <b>nem</b> egyeznek meg.</p>","null","","","","feedback trial","",""
"html-button-response-esp","73","605125","0.0-11.0-0.31","2888","Ez itt egy hijegy. Nincs is jobb egy jó...","1","hijegynál","[""hijegynél"",""hijegynál""]","hijegynál","esp trial","4","true"
"html-button-response","74","608645","0.0-11.0-1.31","null","<p>A másik játékos ezt választotta: <b>hijegynál</b>.</p><p>&#x2705;</p><p>A te válaszod és a másik játékos válasza <b>megegyeznek</b>.</p>","null","","","","feedback trial","",""
"html-button-response-esp","75","617707","0.0-11.0-0.32","8547","Ez itt egy fojlegy. Elneveztem a kutyámat...","1","fojlegynak","[""fojlegynek"",""fojlegynak""]","fojlegynak","esp trial","4","true"
"html-button-response","76","621214","0.0-11.0-1.32","null","<p>A másik játékos ezt választotta: <b>fojlegynak</b>.</p><p>&#x2705;</p><p>A te válaszod és a másik játékos válasza <b>megegyeznek</b>.</p>","null","","","","feedback trial","",""
"html-button-response-esp","77","627231","0.0-11.0-0.33","5070","Ez itt egy csodeg. Nincs is jobb egy jó...","1","csodegnél","[""csodegnál"",""csodegnél""]","csodegnál","esp trial","4","false"
"html-button-response","78","630761","0.0-11.0-1.33","null","<p>A másik játékos ezt választotta: <b>csodegnál</b>.</p><p>&#10060;</p><p>A válaszaitok <b>nem</b> egyeznek meg.</p>","null","","","","feedback trial","",""
"html-button-response-esp","79","637760","0.0-11.0-0.34","6476","Ez itt egy mádép. Nincs is jobb egy jó...","1","mádépnál","[""mádépnél"",""mádépnál""]","mádépnél","esp trial","4","false"
"html-button-response","80","641266","0.0-11.0-1.34","null","<p>A másik játékos ezt választotta: <b>mádépnél</b>.</p><p>&#10060;</p><p>A válaszaitok <b>nem</b> egyeznek meg.</p>","null","","","","feedback trial","",""
"html-button-response-esp","81","647294","0.0-11.0-0.35","4076","Ez itt egy vodec. Nincs is jobb egy jó...","0","vodecnél","[""vodecnél"",""vodecnál""]","vodecnál","esp trial","4","false"
"html-button-response","82","650811","0.0-11.0-1.35","null","<p>A másik játékos ezt választotta: <b>vodecnál</b>.</p><p>&#10060;</p><p>A válaszaitok <b>nem</b> egyeznek meg.</p>","null","","","","feedback trial","",""
"html-button-response-esp","83","656835","0.0-11.0-0.36","3014","Ez itt egy tivenc. Ott vagyunk a...","1","tivencben","[""tivencban"",""tivencben""]","tivencban","esp trial","4","false"
"html-button-response","84","660353","0.0-11.0-1.36","null","<p>A másik játékos ezt választotta: <b>tivencban</b>.</p><p>&#10060;</p><p>A válaszaitok <b>nem</b> egyeznek meg.</p>","null","","","","feedback trial","",""
"html-button-response-esp","85","668316","0.0-11.0-0.37","7453","Ez itt egy szanéj. Elneveztem a kutyámat...","1","szanéjnak","[""szanéjnek"",""szanéjnak""]","szanéjnek","esp trial","4","false"
"html-button-response","86","671826","0.0-11.0-1.37","null","<p>A másik játékos ezt választotta: <b>szanéjnek</b>.</p><p>&#10060;</p><p>A válaszaitok <b>nem</b> egyeznek meg.</p>","null","","","","feedback trial","",""
"html-button-response-esp","87","677851","0.0-11.0-0.38","1852","Ez itt egy klazér. Ott vagyunk a...","1","klazérben","[""klazérban"",""klazérben""]","klazérben","esp trial","4","true"
"html-button-response","88","681366","0.0-11.0-1.38","null","<p>A másik játékos ezt választotta: <b>klazérben</b>.</p><p>&#x2705;</p><p>A te válaszod és a másik játékos válasza <b>megegyeznek</b>.</p>","null","","","","feedback trial","",""
"html-button-response-esp","89","687381","0.0-11.0-0.39","3646","Ez itt egy trikép. Ott vagyunk a...","1","triképben","[""triképban"",""triképben""]","triképban","esp trial","4","false"
"html-button-response","90","690897","0.0-11.0-1.39","null","<p>A másik játékos ezt választotta: <b>triképban</b>.</p><p>&#10060;</p><p>A válaszaitok <b>nem</b> egyeznek meg.</p>","null","","","","feedback trial","",""
"html-button-response-esp","91","696919","0.0-11.0-0.40","2889","Ez itt egy spatel. Elneveztem a kutyámat...","1","spatelnak","[""spatelnek"",""spatelnak""]","spatelnak","esp trial","4","true"
"html-button-response","92","700437","0.0-11.0-1.40","null","<p>A másik játékos ezt választotta: <b>spatelnak</b>.</p><p>&#x2705;</p><p>A te válaszod és a másik játékos válasza <b>megegyeznek</b>.</p>","null","","","","feedback trial","",""
"html-button-response-esp","93","706707","0.0-11.0-0.41","5759","Ez itt egy trodély. Ott vagyunk a...","1","trodélyban","[""trodélyben"",""trodélyban""]","trodélyben","esp trial","4","false"
"html-button-response","94","710218","0.0-11.0-1.41","null","<p>A másik játékos ezt választotta: <b>trodélyben</b>.</p><p>&#10060;</p><p>A válaszaitok <b>nem</b> egyeznek meg.</p>","null","","","","feedback trial","",""
"html-button-response-esp","95","716238","0.0-11.0-0.42","2127","Ez itt egy zatéj. Nincs is jobb egy jó...","1","zatéjnél","[""zatéjnál"",""zatéjnél""]","zatéjnál","esp trial","4","false"
"html-button-response","96","719756","0.0-11.0-1.42","null","<p>A másik játékos ezt választotta: <b>zatéjnál</b>.</p><p>&#10060;</p><p>A válaszaitok <b>nem</b> egyeznek meg.</p>","null","","","","feedback trial","",""
"html-button-response-esp","97","725769","0.0-11.0-0.43","5135","Ez itt egy kátéd. Nincs is jobb egy jó...","0","kátédnál","[""kátédnál"",""kátédnél""]","kátédnél","esp trial","4","false"
"html-button-response","98","729295","0.0-11.0-1.43","null","<p>A másik játékos ezt választotta: <b>kátédnél</b>.</p><p>&#10060;</p><p>A válaszaitok <b>nem</b> egyeznek meg.</p>","null","","","","feedback trial","",""
"html-button-response-esp","99","735306","0.0-11.0-0.44","4060","Ez itt egy lihény. Elneveztem a kutyámat...","1","lihénynek","[""lihénynak"",""lihénynek""]","lihénynak","esp trial","4","false"
"html-button-response","100","738825","0.0-11.0-1.44","null","<p>A másik játékos ezt választotta: <b>lihénynak</b>.</p><p>&#10060;</p><p>A válaszaitok <b>nem</b> egyeznek meg.</p>","null","","","","feedback trial","",""
"html-button-response-esp","101","744857","0.0-11.0-0.45","1615","Ez itt egy csublény. Ott vagyunk a...","1","csublényban","[""csublényben"",""csublényban""]","csublényben","esp trial","4","false"
"html-button-response","102","748360","0.0-11.0-1.45","null","<p>A másik játékos ezt választotta: <b>csublényben</b>.</p><p>&#10060;</p><p>A válaszaitok <b>nem</b> egyeznek meg.</p>","null","","","","feedback trial","",""
"html-button-response-esp","103","756433","0.0-11.0-0.46","7572","Ez itt egy tumély. Nincs is jobb egy jó...","0","tumélynál","[""tumélynál"",""tumélynél""]","tumélynál","esp trial","4","true"
"html-button-response","104","759941","0.0-11.0-1.46","null","<p>A másik játékos ezt választotta: <b>tumélynál</b>.</p><p>&#x2705;</p><p>A te válaszod és a másik játékos válasza <b>megegyeznek</b>.</p>","null","","","","feedback trial","",""
"html-button-response-esp","105","766026","0.0-11.0-0.47","5584","Ez itt egy cságyelt. Ott vagyunk a...","0","cságyeltban","[""cságyeltban"",""cságyeltben""]","cságyeltban","esp trial","4","true"
"html-button-response","106","769537","0.0-11.0-1.47","null","<p>A másik játékos ezt választotta: <b>cságyeltban</b>.</p><p>&#x2705;</p><p>A te válaszod és a másik játékos válasza <b>megegyeznek</b>.</p>","null","","","","feedback trial","",""
"html-button-response-esp","107","775986","0.0-11.0-0.48","5948","Ez itt egy sihen. Nincs is jobb egy jó...","0","sihennál","[""sihennál"",""sihennél""]","sihennál","esp trial","4","true"
"html-button-response","108","779512","0.0-11.0-1.48","null","<p>A másik játékos ezt választotta: <b>sihennál</b>.</p><p>&#x2705;</p><p>A te válaszod és a másik játékos válasza <b>megegyeznek</b>.</p>","null","","","","feedback trial","",""
"html-button-response-esp","109","794490","0.0-11.0-0.49","14463","Ez itt egy zsalrén. Elneveztem a kutyámat...","1","zsalrénnak","[""zsalrénnek"",""zsalrénnak""]","zsalrénnak","esp trial","4","true"
"html-button-response","110","798017","0.0-11.0-1.49","null","<p>A másik játékos ezt választotta: <b>zsalrénnak</b>.</p><p>&#x2705;</p><p>A te válaszod és a másik játékos válasza <b>megegyeznek</b>.</p>","null","","","","feedback trial","",""
"html-button-response-esp","111","804045","0.0-11.0-0.50","4597","Ez itt egy klítegy. Nincs is jobb egy jó...","1","klítegynél","[""klítegynál"",""klítegynél""]","klítegynál","esp trial","4","false"
"html-button-response","112","807558","0.0-11.0-1.50","null","<p>A másik játékos ezt választotta: <b>klítegynál</b>.</p><p>&#10060;</p><p>A válaszaitok <b>nem</b> egyeznek meg.</p>","null","","","","feedback trial","",""
"html-button-response-esp","113","813577","0.0-11.0-0.51","3996","Ez itt egy spivél. Elneveztem a kutyámat...","0","spivélnak","[""spivélnak"",""spivélnek""]","spivélnak","esp trial","4","true"
"html-button-response","114","817097","0.0-11.0-1.51","null","<p>A másik játékos ezt választotta: <b>spivélnak</b>.</p><p>&#x2705;</p><p>A te válaszod és a másik játékos válasza <b>megegyeznek</b>.</p>","null","","","","feedback trial","",""
"html-button-response-esp","115","823127","0.0-11.0-0.52","2806","Ez itt egy fupét. Nincs is jobb egy jó...","0","fupétnál","[""fupétnál"",""fupétnél""]","fupétnál","esp trial","4","true"
"html-button-response","116","826642","0.0-11.0-1.52","null","<p>A másik játékos ezt választotta: <b>fupétnál</b>.</p><p>&#x2705;</p><p>A te válaszod és a másik játékos válasza <b>megegyeznek</b>.</p>","null","","","","feedback trial","",""
"html-button-response-esp","117","832659","0.0-11.0-0.53","2010","Ez itt egy jutély. Nincs is jobb egy jó...","0","jutélynál","[""jutélynál"",""jutélynél""]","jutélynél","esp trial","4","false"
"html-button-response","118","836173","0.0-11.0-1.53","null","<p>A másik játékos ezt választotta: <b>jutélynél</b>.</p><p>&#10060;</p><p>A válaszaitok <b>nem</b> egyeznek meg.</p>","null","","","","feedback trial","",""
"html-button-response","119","845730","0.0-12.0","9047","<p>A közös játék most véget ért.</p><p>Mielőtt eláruljuk a végső pontszámodat, arra kérlek, játszd a szóválasztós játékot néhány percig egyedül is.</p><p>A feladatod ugyanaz lesz, választani két lehetőség közül.</p><p>Most viszont egyedül kell döntened, hogy te melyiket választanád.</p>","0","","","","","",""
"html-button-response-clever","120","851854","0.0-13.0-0.0","5621","Ez itt egy fádens. Elneveztem a kutyámat...","0","fádensnek","[""fádensnek"",""fádensnak""]","","posttest trial","8",""
"html-button-response-clever","121","856776","0.0-13.0-0.1","4412","Ez itt egy szutend. Ott vagyunk a...","1","szutendben","[""szutendban"",""szutendben""]","","posttest trial","8",""
"html-button-response-clever","122","862445","0.0-13.0-0.2","5169","Ez itt egy spáten. Elneveztem a kutyámat...","1","spátennek","[""spátennak"",""spátennek""]","","posttest trial","8",""
"html-button-response-clever","123","867071","0.0-13.0-0.3","4115","Ez itt egy brágéd. Elneveztem a kutyámat...","0","brágédnek","[""brágédnek"",""brágédnak""]","","posttest trial","8",""
"html-button-response-clever","124","873069","0.0-13.0-0.4","5486","Ez itt egy trapszegy. Nincs is jobb egy jó...","0","trapszegynél","[""trapszegynél"",""trapszegynál""]","","posttest trial","8",""
"html-button-response-clever","125","878167","0.0-13.0-0.5","4590","Ez itt egy sporzem. Elneveztem a kutyámat...","0","sporzemnek","[""sporzemnek"",""sporzemnak""]","","posttest trial","8",""
"html-button-response-clever","126","881669","0.0-13.0-0.6","2989","Ez itt egy csimen. Nincs is jobb egy jó...","0","csimennél","[""csimennél"",""csimennál""]","","posttest trial","8",""
"html-button-response-clever","127","889270","0.0-13.0-0.7","7088","Ez itt egy kadér. Nincs is jobb egy jó...","1","kadérnél","[""kadérnál"",""kadérnél""]","","posttest trial","8",""
"html-button-response-clever","128","898511","0.0-13.0-0.8","8732","Ez itt egy forzéd. Elneveztem a kutyámat...","0","forzédnek","[""forzédnek"",""forzédnak""]","","posttest trial","8",""
"html-button-response-clever","129","903893","0.0-13.0-0.9","4878","Ez itt egy priszkenc. Elneveztem a kutyámat...","0","priszkencnek","[""priszkencnek"",""priszkencnak""]","","posttest trial","8",""
"html-button-response-clever","130","907579","0.0-13.0-0.10","3176","Ez itt egy vodép. Elneveztem a kutyámat...","0","vodépnek","[""vodépnek"",""vodépnak""]","","posttest trial","8",""
"html-button-response-clever","131","912941","0.0-13.0-0.11","4848","Ez itt egy jábéz. Ott vagyunk a...","0","jábézban","[""jábézban"",""jábézben""]","","posttest trial","8",""
"html-button-response-clever","132","916139","0.0-13.0-0.12","2695","Ez itt egy nidét. Ott vagyunk a...","0","nidétben","[""nidétben"",""nidétban""]","","posttest trial","8",""
"html-button-response-clever","133","919643","0.0-13.0-0.13","2994","Ez itt egy prately. Elneveztem a kutyámat...","1","pratelynek","[""pratelynak"",""pratelynek""]","","posttest trial","8",""
"html-button-response-clever","134","922829","0.0-13.0-0.14","2683","Ez itt egy hóbens. Ott vagyunk a...","0","hóbensben","[""hóbensben"",""hóbensban""]","","posttest trial","8",""
"html-button-response-clever","135","924943","0.0-13.0-0.15","1604","Ez itt egy sartely. Ott vagyunk a...","0","sartelyben","[""sartelyben"",""sartelyban""]","","posttest trial","8",""
"html-button-response-clever","136","927309","0.0-13.0-0.16","1859","Ez itt egy jalrény. Nincs is jobb egy jó...","0","jalrénynél","[""jalrénynél"",""jalrénynál""]","","posttest trial","8",""
"html-button-response-clever","137","930097","0.0-13.0-0.17","2282","Ez itt egy licegy. Ott vagyunk a...","1","licegyben","[""licegyban"",""licegyben""]","","posttest trial","8",""
"html-button-response-clever","138","933107","0.0-13.0-0.18","2509","Ez itt egy trincseg. Ott vagyunk a...","1","trincsegben","[""trincsegban"",""trincsegben""]","","posttest trial","8",""
"html-button-response-clever","139","936193","0.0-13.0-0.19","2574","Ez itt egy tránély. Elneveztem a kutyámat...","0","tránélynek","[""tránélynek"",""tránélynak""]","","posttest trial","8",""
"html-button-response-clever","140","940749","0.0-13.0-0.20","4052","Ez itt egy klordény. Elneveztem a kutyámat...","0","klordénynek","[""klordénynek"",""klordénynak""]","","posttest trial","8",""
"html-button-response-clever","141","943013","0.0-13.0-0.21","1756","Ez itt egy buhény. Ott vagyunk a...","0","buhényben","[""buhényben"",""buhényban""]","","posttest trial","8",""
"html-button-response-clever","142","945651","0.0-13.0-0.22","2136","Ez itt egy nyarcéj. Elneveztem a kutyámat...","0","nyarcéjnek","[""nyarcéjnek"",""nyarcéjnak""]","","posttest trial","8",""
"html-button-response-clever","143","949355","0.0-13.0-0.23","3190","Ez itt egy nyábét. Ott vagyunk a...","0","nyábétben","[""nyábétben"",""nyábétban""]","","posttest trial","8",""
"html-button-response-clever","144","952615","0.0-13.0-0.24","2752","Ez itt egy sprízem. Nincs is jobb egy jó...","1","sprízemnél","[""sprízemnál"",""sprízemnél""]","","posttest trial","8",""
"html-button-response-clever","145","955643","0.0-13.0-0.25","2526","Ez itt egy gicéj. Nincs is jobb egy jó...","0","gicéjnél","[""gicéjnél"",""gicéjnál""]","","posttest trial","8",""
"html-button-response-clever","146","958621","0.0-13.0-0.26","2464","Ez itt egy ronvet. Elneveztem a kutyámat...","1","ronvetnek","[""ronvetnak"",""ronvetnek""]","","posttest trial","8",""
"html-button-response-clever","147","962609","0.0-13.0-0.27","3486","Ez itt egy brigeszt. Elneveztem a kutyámat...","1","brigesztnek","[""brigesztnak"",""brigesztnek""]","","posttest trial","8",""
"html-button-response-clever","148","964949","0.0-13.0-0.28","1825","Ez itt egy dingec. Elneveztem a kutyámat...","0","dingecnek","[""dingecnek"",""dingecnak""]","","posttest trial","8",""
"html-button-response-clever","149","967129","0.0-13.0-0.29","1668","Ez itt egy csartény. Elneveztem a kutyámat...","0","csarténynek","[""csarténynek"",""csarténynak""]","","posttest trial","8",""
"html-button-response-clever","150","970983","0.0-13.0-0.30","3338","Ez itt egy navec. Ott vagyunk a...","1","navecben","[""navecban"",""navecben""]","","posttest trial","8",""
"html-button-response-clever","151","973751","0.0-13.0-0.31","2253","Ez itt egy brukész. Nincs is jobb egy jó...","0","brukésznél","[""brukésznél"",""brukésznál""]","","posttest trial","8",""
"html-button-response-clever","152","980573","0.0-13.0-0.32","6308","Ez itt egy lismév. Ott vagyunk a...","0","lismévben","[""lismévben"",""lismévban""]","","posttest trial","8",""
"html-button-response-clever","153","984255","0.0-13.0-0.33","3174","Ez itt egy tranék. Ott vagyunk a...","1","tranékben","[""tranékban"",""tranékben""]","","posttest trial","8",""
"html-button-response-clever","154","986857","0.0-13.0-0.34","2087","Ez itt egy trigenc. Elneveztem a kutyámat...","1","trigencnek","[""trigencnak"",""trigencnek""]","","posttest trial","8",""
"html-button-response-clever","155","990259","0.0-13.0-0.35","2889","Ez itt egy jorzég. Elneveztem a kutyámat...","0","jorzégnek","[""jorzégnek"",""jorzégnak""]","","posttest trial","8",""
"html-button-response-clever","156","993089","0.0-13.0-0.36","2319","Ez itt egy hivép. Ott vagyunk a...","1","hivépben","[""hivépban"",""hivépben""]","","posttest trial","8",""
"html-button-response-clever","157","995809","0.0-13.0-0.37","2205","Ez itt egy kluhéj. Nincs is jobb egy jó...","1","kluhéjnél","[""kluhéjnál"",""kluhéjnél""]","","posttest trial","8",""
"html-button-response-clever","158","998937","0.0-13.0-0.38","2627","Ez itt egy gótem. Elneveztem a kutyámat...","0","gótemnek","[""gótemnek"",""gótemnak""]","","posttest trial","8",""
"html-button-response-clever","159","1002031","0.0-13.0-0.39","2585","Ez itt egy kábesz. Nincs is jobb egy jó...","1","kábesznél","[""kábesznál"",""kábesznél""]","","posttest trial","8",""
"html-button-response-clever","160","1005533","0.0-13.0-0.40","2991","Ez itt egy júder. Elneveztem a kutyámat...","1","júdernek","[""júdernak"",""júdernek""]","","posttest trial","8",""
"html-button-response-clever","161","1008679","0.0-13.0-0.41","2641","Ez itt egy fincek. Nincs is jobb egy jó...","0","finceknél","[""finceknél"",""finceknál""]","","posttest trial","8",""
"html-button-response-clever","162","1011325","0.0-13.0-0.42","2143","Ez itt egy brotes. Ott vagyunk a...","0","brotesben","[""brotesben"",""brotesban""]","","posttest trial","8",""
"html-button-response-clever","163","1014041","0.0-13.0-0.43","2201","Ez itt egy gonszék. Nincs is jobb egy jó...","0","gonszéknél","[""gonszéknél"",""gonszéknál""]","","posttest trial","8",""
"html-button-response-clever","164","1016513","0.0-13.0-0.44","1957","Ez itt egy bidem. Ott vagyunk a...","1","bidemben","[""bidemban"",""bidemben""]","","posttest trial","8",""
"html-button-response-clever","165","1019769","0.0-13.0-0.45","2755","Ez itt egy ikszert. Ott vagyunk a...","1","ikszertben","[""ikszertban"",""ikszertben""]","","posttest trial","8",""
"html-button-response-clever","166","1022925","0.0-13.0-0.46","2655","Ez itt egy bródesz. Elneveztem a kutyámat...","1","bródesznek","[""bródesznak"",""bródesznek""]","","posttest trial","8",""
"html-button-response-clever","167","1028579","0.0-13.0-0.47","5153","Ez itt egy matéz. Ott vagyunk a...","1","matézben","[""matézban"",""matézben""]","","posttest trial","8",""
"html-button-response-clever","168","1031761","0.0-13.0-0.48","2680","Ez itt egy giheszt. Elneveztem a kutyámat...","1","gihesztnek","[""gihesztnak"",""gihesztnek""]","","posttest trial","8",""
"html-button-response-clever","169","1034689","0.0-13.0-0.49","2427","Ez itt egy vublet. Nincs is jobb egy jó...","0","vubletnél","[""vubletnél"",""vubletnál""]","","posttest trial","8",""
"html-button-response-clever","170","1037041","0.0-13.0-0.50","1839","Ez itt egy kliszer. Nincs is jobb egy jó...","0","kliszernél","[""kliszernél"",""kliszernál""]","","posttest trial","8",""
"html-button-response-clever","171","1039645","0.0-13.0-0.51","2091","Ez itt egy csinték. Ott vagyunk a...","1","csintékben","[""csintékban"",""csintékben""]","","posttest trial","8",""
"html-button-response-clever","172","1043517","0.0-13.0-0.52","3370","Ez itt egy zsopéd. Ott vagyunk a...","1","zsopédben","[""zsopédban"",""zsopédben""]","","posttest trial","8",""
"html-button-response-clever","173","1047541","0.0-13.0-0.53","3508","Ez itt egy szihét. Elneveztem a kutyámat...","1","szihétnek","[""szihétnak"",""szihétnek""]","","posttest trial","8",""
"html-button-response","174","1054101","0.0-14.0","6058","<p> Vége a játéknak. A teljes pontszámod 28/54.</p><p> Szép munka! &#128526;&#128526;&#128526;</p><p>A Befejezés gomb megnyomása után bezárhatod a böngészőablakot.</p>","0","","","","","",""
"html-keyboard-response","175","1059633","0.0-15.0","null","<div class=""message"">
         <p>Egy kis türelmet kérünk, amíg elmentjük az adatokat...</p>
         </div>","null","","","","","",""
