"trial_type","trial_index","time_elapsed","internal_node_id","rt","stimulus","response","response_string","choices","esp_response","trial_kind","list_number","esp_match"
"pavlovia","0","1679","0.0-0.0","","","","","","","","",""
"html-button-response","1","34955","0.0-1.0","32765","<p>Kedves Résztvevő! A Budapesti Műszaki és Gazdaságtudományi Egyetem Kognitív Tudományi Tanszékének kutatásában való részvételed kérjük. A kutatásban azt vizsgáljuk, hogy a magyar anyanyelvűek hogyan használnak bizonyos szóalakokat, és hogy milyen képük van arról, hogy mások hogyan használják, hogyan képzik a szavakat. Ez hozzásegít bennünket ahhoz, hogy jobban megértsük, hogyan dolgozza fel és tárolja a nyelvet az emberi agy, és hogyan működnek, hogyan változnak egy adott közösség nyelvi konvenciói.</p><p>A vizsgálat egy rövid számítógépes feladatból fog állni. A kutatásban való részvétel önkéntes, a részvételi szándék bármikor visszavonható. A résztvevők eredményeit név nélkül kezeljük, így nem beazonosíthatók az adatok feldolgozása során. Minden személyes adatot az EU általános adatvédelmi rendeletének (GDPR) megfelelően kezelünk és legfeljebb öt éven belül megsemmisítünk. A vizsgálat jellemzően húsz percet vesz igénybe.</p><p>Kutatásvezető:</p><p>Dr. Rácz Péter, tudományos munkatárs, BME KTT</p><p>e-mail: racz.peter.marton@ttk.bme.hu</p>","0","","","","","",""
"html-button-response","2","88377","0.0-2.0","52909","<p>A kísérletben szavakat fogsz látni. Ezek között lesznek olyanok, amelyeket ismersz, de előfordulhatnak olyanok is, amelyeket nem ismersz, sőt, vannak köztük kitalált szavak is. Minden szónál látni fogsz toldalékolt alakokat. A te feladatod az lesz, hogy minden szóhoz kiválaszd azt a toldalékolt alakot, amely a te számodra ismerősebben, természetesebben hangzik. Rossz válaszok nincsenek, mert van olyan, hogy különböző embereknek más és más szó tűnik jobb választásnak. A választ úgy tudod majd kiválasztani, ha rákattintasz.</p><p>Ebben a szóválasztós játékban egy másik játékossal együtt veszel majd részt. A másik játékos is minden esetben azok közül a lehetőségek közül válogathat, mint te. Kettőtök feladata az, hogy ugyanazt a lehetőséget válasszátok minden esetben. Ahhoz, hogy ez sikerüljön, neked figyelned kell arra, hogy a másik játékos milyen válaszokat ad, és ennek alapján meg kell tippelned, hogyan választ legközelebb. Ha eltalálod, akkor pontot kapsz.</p>","0","","","","","",""
"html-button-response","3","139539","0.0-3.0","50653","<p>Kérjük, olvasd el az alábbi nyilatkozatot, és amennyiben egyetértesz vele, nyomj a Beleegyezés gombra!</p><p>Kijelentem, hogy magyar anyanyelvű személyként önként veszek részt a BME KTT kísérletében. A kutatás céljával és folyamatával kapcsolatban elegendő tájékoztatást kaptam, lehetőségem volt kérdések feltételére, és esetleges kérdéseimre megfelelő válaszokat kaptam. A tájékoztatás alapján elegendő mennyiségű információ áll a rendelkezésemre, hogy eldönthessem, részt kívánok-e venni a kutatásban.</p><p>Tisztában vagyok vele, hogy részvételi szándékomat és adataimat bármikor, indoklás nélkül visszavonhatom.</p><p>Értem és tudomásul veszem, hogy a kutatás tudományos célokat szolgál, és az általam szolgáltatott adatokat a BME kizárólag kutatási célból használja fel. Tudomásul veszem, hogy eredményeimet a többi résztvevő eredményeivel együtt kezelik, így egyéni teljesítményemről visszajelzést, szakvéleményt nem kapok.</p><p>Megértettem, hogy adataim kezelését illetően a BME az EU általános adatvédelmi rendelete (GDPR), a hatályos adatvédelmi törvény és a nemzetközi kutatás-etikai alapelvek szerint jár el. Eredményeim anonim módon kerülnek feldolgozásra, és a kutatás résztvevői az azonosításomra alkalmas adataimat harmadik félnek nem szolgáltatják ki. Engedélyezem a BME számára a jelen kutatásban felvett adataim feldolgozását és tárolását, beleértve azok későbbi kutatásokhoz való felhasználását is. Személyes adataim kezelésével kapcsolatban tájékoztatást kérhetek a kutatás résztvevőitől, az adatkezelés ellen tiltakozhatok, kérhetem személyes adataim helyesbítését, törlését vagy zárolását, valamint jogorvoslatért a Nemzeti Adatvédelmi és Információszabadság Hatósághoz fordulhatok.</p><p>Kijelentem, hogy a kutatásban való részvételem körülményeiről részletes tájékoztatást kaptam, és a feltételeket elfogadom.</p>","0","","","","","",""
"survey-text","4","200602","0.0-4.0","60542","","{""Q0"":""SN211"",""Q1"":""nő"",""Q2"":""2001"",""Q3"":""13""}","","","","","",""
"html-button-response","5","220442","0.0-5.0","19328","<p>Ebben a játékban szavakat kell toldalékolni.</p> <p>Minden körben mutatunk majd egy példamondatot, amiben lesz egy szó.</p> <p>Alatta jön egy második mondat, ezt a mondatot neked kell majd befejezni, ugyanezzel a szóval.</p> <p>Nem biztos, hogy a szó eleve ismerős lesz számodra!</p> <p>Minden mondathoz adunk két lehetőséget, ezeket balra és jobbra látod majd.</p> <p>A játék kb. negyedóráig-húsz percig tart.</p>","0","","","","","",""
"html-button-response","6","250268","0.0-6.0","29302","<p>Nézzünk egy példát!</p> <p>A példamondat: ""János imád fláramolni, ezért sokat fláramlik. Mi ritkán...""</p><p>Neked ezt a mondatot kell befejezned: ""Ti ritkán...""</p><p>A lehetőségek pedig ezek:</p>","1","","","","","",""
"html-button-response","7","257612","0.0-7.0","6820","<p>Nagyon jó.</p><p>Ezt a játékot nem egyedül fogod játszani, hanem egy másik játékossal.</p><p>Mielőtt továbblépünk, összekapcsolunk titeket egymással.</p><p>Ez igénybe vehet néhány másodpercet, amihez szíves türelmed kérjük.</p>","0","","","","","",""
"html-button-response","8","263356","0.0-8.0","null","<p>Csatlakozás a másik játékoshoz...</p>","null","","","","","",""
"html-button-response","9","265889","0.0-9.0","null","<p> Sikeres kapcsolódás!</p>","null","","","","","",""
"html-button-response","10","276425","0.0-10.0","null","<p>A következőkben ketten játsszátok a szóválasztós játékot.</p><p>A feladatotok az lesz, hogy minden körben <b>ugyanazt</b> a szót válasszátok.</p><p>Minden ilyen egyező válaszért pontot kaptok.</p><p>Próbáld meg kitalálni, mit választ a másik játékos!</p><p>Bármikor választhatsz, a körnek akkor van vége, ha mindketten döntöttetek.</p><p>Sok sikert!</p>","null","","","","","",""
"html-button-response-esp","11","292138","0.0-11.0-0.0","15194","János imád nivározni, ezért sokat nivárzik. Ti ritkán...","1","nivárzotok","[""nivároztok"",""nivárzotok""]","nivárzotok","esp trial","2","true"
"html-button-response","12","295669","0.0-11.0-1.0","null","<p>A másik játékos ezt választotta: <b>nivárzotok</b>.</p><p>&#x2705;</p><p>A te válaszod és a másik játékos válasza <b>megegyeznek</b>.</p>","null","","","","feedback trial","",""
"html-button-response-esp","13","305889","0.0-11.0-0.1","9718","János imád pibegezni, ezért sokat pibegzik. Ők ritkán...","1","pibegzenek","[""pibegeznek"",""pibegzenek""]","pibegzenek","esp trial","2","true"
"html-button-response","14","309419","0.0-11.0-1.1","null","<p>A másik játékos ezt választotta: <b>pibegzenek</b>.</p><p>&#x2705;</p><p>A te válaszod és a másik játékos válasza <b>megegyeznek</b>.</p>","null","","","","feedback trial","",""
"html-button-response-esp","15","315457","0.0-11.0-0.2","3924","János imád játozni, ezért sokat játlik. Mi ritkán...","1","játlunk","[""játozunk"",""játlunk""]","játozunk","esp trial","2","false"
"html-button-response","16","318999","0.0-11.0-1.2","null","<p>A másik játékos ezt választotta: <b>játozunk</b>.</p><p>&#10060;</p><p>A válaszaitok <b>nem</b> egyeznek meg.</p>","null","","","","feedback trial","",""
"html-button-response-esp","17","328112","0.0-11.0-0.3","8610","János imád gihamozni, ezért sokat gihamlik. Ők ritkán...","1","gihamoznak","[""gihamlanak"",""gihamoznak""]","gihamoznak","esp trial","2","true"
"html-button-response","18","331645","0.0-11.0-1.3","null","<p>A másik játékos ezt választotta: <b>gihamoznak</b>.</p><p>&#x2705;</p><p>A te válaszod és a másik játékos válasza <b>megegyeznek</b>.</p>","null","","","","feedback trial","",""
"html-button-response-esp","19","342500","0.0-11.0-0.4","10347","János imád sprebezni, ezért sokat sprebzik. Ők ritkán...","0","sprebeznek","[""sprebeznek"",""sprebzenek""]","sprebeznek","esp trial","2","true"
"html-button-response","20","346026","0.0-11.0-1.4","null","<p>A másik játékos ezt választotta: <b>sprebeznek</b>.</p><p>&#x2705;</p><p>A te válaszod és a másik játékos válasza <b>megegyeznek</b>.</p>","null","","","","feedback trial","",""
"html-button-response-esp","21","353723","0.0-11.0-0.5","7182","János imád klihasozni, ezért sokat klihaslik. Ti ritkán...","0","klihasoztok","[""klihasoztok"",""klihaslotok""]","klihaslotok","esp trial","2","false"
"html-button-response","22","357251","0.0-11.0-1.5","null","<p>A másik játékos ezt választotta: <b>klihaslotok</b>.</p><p>&#10060;</p><p>A válaszaitok <b>nem</b> egyeznek meg.</p>","null","","","","feedback trial","",""
"html-button-response-esp","23","368899","0.0-11.0-0.6","11134","János imád brűközni, ezért sokat brűklik. Ti ritkán...","0","brűköztök","[""brűköztök"",""brűklötök""]","brűköztök","esp trial","2","true"
"html-button-response","24","372434","0.0-11.0-1.6","null","<p>A másik játékos ezt választotta: <b>brűköztök</b>.</p><p>&#x2705;</p><p>A te válaszod és a másik játékos válasza <b>megegyeznek</b>.</p>","null","","","","feedback trial","",""
"html-button-response-esp","25","378779","0.0-11.0-0.7","5830","János imád plibozni, ezért sokat plibzik. Ti ritkán...","0","pliboztok","[""pliboztok"",""plibzotok""]","plibzotok","esp trial","2","false"
"html-button-response","26","382295","0.0-11.0-1.7","null","<p>A másik játékos ezt választotta: <b>plibzotok</b>.</p><p>&#10060;</p><p>A válaszaitok <b>nem</b> egyeznek meg.</p>","null","","","","feedback trial","",""
"html-button-response-esp","27","388821","0.0-11.0-0.8","6008","János imád trálodni, ezért sokat trálszik. Mi ritkán...","0","trálodunk","[""trálodunk"",""trálszunk""]","trálodunk","esp trial","2","true"
"html-button-response","28","392348","0.0-11.0-1.8","null","<p>A másik játékos ezt választotta: <b>trálodunk</b>.</p><p>&#x2705;</p><p>A te válaszod és a másik játékos válasza <b>megegyeznek</b>.</p>","null","","","","feedback trial","",""
"html-button-response-esp","29","398374","0.0-11.0-0.9","5467","János imád nyizozni, ezért sokat nyizlik. Mi ritkán...","0","nyizozunk","[""nyizozunk"",""nyizlunk""]","nyizozunk","esp trial","2","true"
"html-button-response","30","401888","0.0-11.0-1.9","null","<p>A másik játékos ezt választotta: <b>nyizozunk</b>.</p><p>&#x2705;</p><p>A te válaszod és a másik játékos válasza <b>megegyeznek</b>.</p>","null","","","","feedback trial","",""
"html-button-response-esp","31","409607","0.0-11.0-0.10","7202","János imád prihegedni, ezért sokat prihegszik. Ők ritkán...","1","prihegszenek","[""prihegednek"",""prihegszenek""]","prihegednek","esp trial","2","false"
"html-button-response","32","413136","0.0-11.0-1.10","null","<p>A másik játékos ezt választotta: <b>prihegednek</b>.</p><p>&#10060;</p><p>A válaszaitok <b>nem</b> egyeznek meg.</p>","null","","","","feedback trial","",""
"html-button-response-esp","33","421562","0.0-11.0-0.11","7906","János imád nurokozni, ezért sokat nuroklik. Mi ritkán...","1","nurokozunk","[""nuroklunk"",""nurokozunk""]","nurokozunk","esp trial","2","true"
"html-button-response","34","425095","0.0-11.0-1.11","null","<p>A másik játékos ezt választotta: <b>nurokozunk</b>.</p><p>&#x2705;</p><p>A te válaszod és a másik játékos válasza <b>megegyeznek</b>.</p>","null","","","","feedback trial","",""
"html-button-response-esp","35","435989","0.0-11.0-0.12","10385","János imád spuborozni, ezért sokat spuborzik. Ők ritkán...","0","spuboroznak","[""spuboroznak"",""spuborzanak""]","spuborzanak","esp trial","2","false"
"html-button-response","36","439522","0.0-11.0-1.12","null","<p>A másik játékos ezt választotta: <b>spuborzanak</b>.</p><p>&#10060;</p><p>A válaszaitok <b>nem</b> egyeznek meg.</p>","null","","","","feedback trial","",""
"html-button-response-esp","37","446835","0.0-11.0-0.13","6793","János imád frélegezni, ezért sokat frélegzik. Mi ritkán...","0","frélegzünk","[""frélegzünk"",""frélegezünk""]","frélegezünk","esp trial","2","false"
"html-button-response","38","450366","0.0-11.0-1.13","null","<p>A másik játékos ezt választotta: <b>frélegezünk</b>.</p><p>&#10060;</p><p>A válaszaitok <b>nem</b> egyeznek meg.</p>","null","","","","feedback trial","",""
"html-button-response-esp","39","460833","0.0-11.0-0.14","9940","János imád ribegedni, ezért sokat ribegszik. Ti ritkán...","1","ribegszetek","[""ribegedtek"",""ribegszetek""]","ribegszetek","esp trial","2","true"
"html-button-response","40","464367","0.0-11.0-1.14","null","<p>A másik játékos ezt választotta: <b>ribegszetek</b>.</p><p>&#x2705;</p><p>A te válaszod és a másik játékos válasza <b>megegyeznek</b>.</p>","null","","","","feedback trial","",""
"html-button-response-esp","41","470389","0.0-11.0-0.15","4007","János imád vehékedni, ezért sokat vehékszik. Mi ritkán...","0","vehékszünk","[""vehékszünk"",""vehékedünk""]","vehékedünk","esp trial","2","false"
"html-button-response","42","473923","0.0-11.0-1.15","null","<p>A másik játékos ezt választotta: <b>vehékedünk</b>.</p><p>&#10060;</p><p>A válaszaitok <b>nem</b> egyeznek meg.</p>","null","","","","feedback trial","",""
"html-button-response-esp","43","490905","0.0-11.0-0.16","16467","János imád kláragodni, ezért sokat kláragszik. Ti ritkán...","0","kláragszotok","[""kláragszotok"",""kláragodtok""]","kláragodtok","esp trial","2","false"
"html-button-response","44","494439","0.0-11.0-1.16","null","<p>A másik játékos ezt választotta: <b>kláragodtok</b>.</p><p>&#10060;</p><p>A válaszaitok <b>nem</b> egyeznek meg.</p>","null","","","","feedback trial","",""
"html-button-response-esp","45","500942","0.0-11.0-0.17","5984","János imád hiragozni, ezért sokat hiragzik. Ők ritkán...","0","hiragzanak","[""hiragzanak"",""hiragoznak""]","hiragoznak","esp trial","2","false"
"html-button-response","46","504473","0.0-11.0-1.17","null","<p>A másik játékos ezt választotta: <b>hiragoznak</b>.</p><p>&#10060;</p><p>A válaszaitok <b>nem</b> egyeznek meg.</p>","null","","","","feedback trial","",""
"html-button-response-esp","47","520131","0.0-11.0-0.18","15145","János imád flátozni, ezért sokat flátlik. Ti ritkán...","0","flátoztok","[""flátoztok"",""flátlotok""]","flátlotok","esp trial","2","false"
"html-button-response","48","523667","0.0-11.0-1.18","null","<p>A másik játékos ezt választotta: <b>flátlotok</b>.</p><p>&#10060;</p><p>A válaszaitok <b>nem</b> egyeznek meg.</p>","null","","","","feedback trial","",""
"html-button-response-esp","49","529702","0.0-11.0-0.19","4615","János imád trilekedni, ezért sokat trilekszik. Ti ritkán...","1","trilekedtek","[""trilekszetek"",""trilekedtek""]","trilekedtek","esp trial","2","true"
"html-button-response","50","533235","0.0-11.0-1.19","null","<p>A másik játékos ezt választotta: <b>trilekedtek</b>.</p><p>&#x2705;</p><p>A te válaszod és a másik játékos válasza <b>megegyeznek</b>.</p>","null","","","","feedback trial","",""
"html-button-response-esp","51","546232","0.0-11.0-0.20","12480","János imád bügözni, ezért sokat bügzik. Ők ritkán...","1","bügzenek","[""bügöznek"",""bügzenek""]","bügöznek","esp trial","2","false"
"html-button-response","52","549750","0.0-11.0-1.20","null","<p>A másik játékos ezt választotta: <b>bügöznek</b>.</p><p>&#10060;</p><p>A válaszaitok <b>nem</b> egyeznek meg.</p>","null","","","","feedback trial","",""
"html-button-response-esp","53","556419","0.0-11.0-0.21","6165","János imád klűmözni, ezért sokat klűmlik. Ti ritkán...","1","klűmöztök","[""klűmlötök"",""klűmöztök""]","klűmlötök","esp trial","2","false"
"html-button-response","54","559954","0.0-11.0-1.21","null","<p>A másik játékos ezt választotta: <b>klűmlötök</b>.</p><p>&#10060;</p><p>A válaszaitok <b>nem</b> egyeznek meg.</p>","null","","","","feedback trial","",""
"html-button-response-esp","55","565987","0.0-11.0-0.22","4678","János imád flugonyozni, ezért sokat flugonylik. Ők ritkán...","1","flugonylanak","[""flugonyoznak"",""flugonylanak""]","flugonyoznak","esp trial","2","false"
"html-button-response","56","569513","0.0-11.0-1.22","null","<p>A másik játékos ezt választotta: <b>flugonyoznak</b>.</p><p>&#10060;</p><p>A válaszaitok <b>nem</b> egyeznek meg.</p>","null","","","","feedback trial","",""
"html-button-response-esp","57","589180","0.0-11.0-0.23","19149","János imád nyöbözni, ezért sokat nyöbzik. Ők ritkán...","1","nyöböznek","[""nyöbzenek"",""nyöböznek""]","nyöböznek","esp trial","2","true"
"html-button-response","58","592695","0.0-11.0-1.23","null","<p>A másik játékos ezt választotta: <b>nyöböznek</b>.</p><p>&#x2705;</p><p>A te válaszod és a másik játékos válasza <b>megegyeznek</b>.</p>","null","","","","feedback trial","",""
"html-button-response-esp","59","603615","0.0-11.0-0.24","10412","János imád tögözni, ezért sokat töglik. Ők ritkán...","1","tögöznek","[""töglenek"",""tögöznek""]","tögöznek","esp trial","2","true"
"html-button-response","60","607153","0.0-11.0-1.24","null","<p>A másik játékos ezt választotta: <b>tögöznek</b>.</p><p>&#x2705;</p><p>A te válaszod és a másik játékos válasza <b>megegyeznek</b>.</p>","null","","","","feedback trial","",""
"html-button-response-esp","61","613168","0.0-11.0-0.25","4552","János imád frorozni, ezért sokat frorlik. Ők ritkán...","1","froroznak","[""frorlanak"",""froroznak""]","froroznak","esp trial","2","true"
"html-button-response","62","616680","0.0-11.0-1.25","null","<p>A másik játékos ezt választotta: <b>froroznak</b>.</p><p>&#x2705;</p><p>A te válaszod és a másik játékos válasza <b>megegyeznek</b>.</p>","null","","","","feedback trial","",""
"html-button-response-esp","63","623081","0.0-11.0-0.26","5898","János imád bötőrözni, ezért sokat bötőrzik. Mi ritkán...","0","bötőrzünk","[""bötőrzünk"",""bötőrözünk""]","bötőrözünk","esp trial","2","false"
"html-button-response","64","626612","0.0-11.0-1.26","null","<p>A másik játékos ezt választotta: <b>bötőrözünk</b>.</p><p>&#10060;</p><p>A válaszaitok <b>nem</b> egyeznek meg.</p>","null","","","","feedback trial","",""
"html-button-response-esp","65","632644","0.0-11.0-0.27","5274","János imád metégedni, ezért sokat metégszik. Ők ritkán...","1","metégednek","[""metégszenek"",""metégednek""]","metégednek","esp trial","2","true"
"html-button-response","66","636169","0.0-11.0-1.27","null","<p>A másik játékos ezt választotta: <b>metégednek</b>.</p><p>&#x2705;</p><p>A te válaszod és a másik játékos válasza <b>megegyeznek</b>.</p>","null","","","","feedback trial","",""
"html-button-response-esp","67","642189","0.0-11.0-0.28","3755","János imád spivejezni, ezért sokat spivejlik. Ők ritkán...","0","spivejeznek","[""spivejeznek"",""spivejlenek""]","spivejlenek","esp trial","2","false"
"html-button-response","68","645701","0.0-11.0-1.28","null","<p>A másik játékos ezt választotta: <b>spivejlenek</b>.</p><p>&#10060;</p><p>A válaszaitok <b>nem</b> egyeznek meg.</p>","null","","","","feedback trial","",""
"html-button-response-esp","69","653989","0.0-11.0-0.29","7774","János imád brürözni, ezért sokat brürzik. Ők ritkán...","0","brüröznek","[""brüröznek"",""brürzenek""]","brüröznek","esp trial","2","true"
"html-button-response","70","657510","0.0-11.0-1.29","null","<p>A másik játékos ezt választotta: <b>brüröznek</b>.</p><p>&#x2705;</p><p>A te válaszod és a másik játékos válasza <b>megegyeznek</b>.</p>","null","","","","feedback trial","",""
"html-button-response-esp","71","663539","0.0-11.0-0.30","5290","János imád vihapodni, ezért sokat vihapszik. Mi ritkán...","0","vihapszunk","[""vihapszunk"",""vihapodunk""]","vihapodunk","esp trial","2","false"
"html-button-response","72","667061","0.0-11.0-1.30","null","<p>A másik játékos ezt választotta: <b>vihapodunk</b>.</p><p>&#10060;</p><p>A válaszaitok <b>nem</b> egyeznek meg.</p>","null","","","","feedback trial","",""
"html-button-response-esp","73","679246","0.0-11.0-0.31","11666","János imád dralágozni, ezért sokat dralágzik. Mi ritkán...","1","dralágozunk","[""dralágzunk"",""dralágozunk""]","dralágozunk","esp trial","2","true"
"html-button-response","74","682778","0.0-11.0-1.31","null","<p>A másik játékos ezt választotta: <b>dralágozunk</b>.</p><p>&#x2705;</p><p>A te válaszod és a másik játékos válasza <b>megegyeznek</b>.</p>","null","","","","feedback trial","",""
"html-button-response-esp","75","688801","0.0-11.0-0.32","4778","János imád bejezni, ezért sokat bejzik. Mi ritkán...","1","bejezünk","[""bejzünk"",""bejezünk""]","bejezünk","esp trial","2","true"
"html-button-response","76","692317","0.0-11.0-1.32","null","<p>A másik játékos ezt választotta: <b>bejezünk</b>.</p><p>&#x2705;</p><p>A te válaszod és a másik játékos válasza <b>megegyeznek</b>.</p>","null","","","","feedback trial","",""
"html-button-response-esp","77","700556","0.0-11.0-0.33","7734","János imád géregezni, ezért sokat géreglik. Ti ritkán...","1","géregeztek","[""géregletek"",""géregeztek""]","géregletek","esp trial","2","false"
"html-button-response","78","704098","0.0-11.0-1.33","null","<p>A másik játékos ezt választotta: <b>géregletek</b>.</p><p>&#10060;</p><p>A válaszaitok <b>nem</b> egyeznek meg.</p>","null","","","","feedback trial","",""
"html-button-response-esp","79","710615","0.0-11.0-0.34","6006","János imád nyülöközni, ezért sokat nyülöklik. Ők ritkán...","1","nyülököznek","[""nyülöklenek"",""nyülököznek""]","nyülököznek","esp trial","2","true"
"html-button-response","80","714133","0.0-11.0-1.34","null","<p>A másik játékos ezt választotta: <b>nyülököznek</b>.</p><p>&#x2705;</p><p>A te válaszod és a másik játékos válasza <b>megegyeznek</b>.</p>","null","","","","feedback trial","",""
"html-button-response-esp","81","720159","0.0-11.0-0.35","3994","János imád döjözni, ezért sokat döjlik. Ők ritkán...","0","döjöznek","[""döjöznek"",""döjlenek""]","döjöznek","esp trial","2","true"
"html-button-response","82","723680","0.0-11.0-1.35","null","<p>A másik játékos ezt választotta: <b>döjöznek</b>.</p><p>&#x2705;</p><p>A te válaszod és a másik játékos válasza <b>megegyeznek</b>.</p>","null","","","","feedback trial","",""
"html-button-response-esp","83","729699","0.0-11.0-0.36","5436","János imád frinyozni, ezért sokat frinylik. Mi ritkán...","1","frinylunk","[""frinyozunk"",""frinylunk""]","frinyozunk","esp trial","2","false"
"html-button-response","84","733242","0.0-11.0-1.36","null","<p>A másik játékos ezt választotta: <b>frinyozunk</b>.</p><p>&#10060;</p><p>A válaszaitok <b>nem</b> egyeznek meg.</p>","null","","","","feedback trial","",""
"html-button-response-esp","85","739259","0.0-11.0-0.37","4282","János imád nyádozni, ezért sokat nyádlik. Ők ritkán...","1","nyádoznak","[""nyádlanak"",""nyádoznak""]","nyádoznak","esp trial","2","true"
"html-button-response","86","742803","0.0-11.0-1.37","null","<p>A másik játékos ezt választotta: <b>nyádoznak</b>.</p><p>&#x2705;</p><p>A te válaszod és a másik játékos válasza <b>megegyeznek</b>.</p>","null","","","","feedback trial","",""
"html-button-response-esp","87","748832","0.0-11.0-0.38","4861","János imád trukodni, ezért sokat trukszik. Ti ritkán...","0","trukodtok","[""trukodtok"",""trukszotok""]","trukodtok","esp trial","2","true"
"html-button-response","88","752351","0.0-11.0-1.38","null","<p>A másik játékos ezt választotta: <b>trukodtok</b>.</p><p>&#x2705;</p><p>A te válaszod és a másik játékos válasza <b>megegyeznek</b>.</p>","null","","","","feedback trial","",""
"html-button-response-esp","89","758363","0.0-11.0-0.39","5336","János imád dibágozni, ezért sokat dibáglik. Ti ritkán...","0","dibágoztok","[""dibágoztok"",""dibáglotok""]","dibágoztok","esp trial","2","true"
"html-button-response","90","761891","0.0-11.0-1.39","null","<p>A másik játékos ezt választotta: <b>dibágoztok</b>.</p><p>&#x2705;</p><p>A te válaszod és a másik játékos válasza <b>megegyeznek</b>.</p>","null","","","","feedback trial","",""
"html-button-response-esp","91","767914","0.0-11.0-0.40","4105","János imád trálakozni, ezért sokat trálaklik. Ők ritkán...","0","trálakoznak","[""trálakoznak"",""trálaklanak""]","trálakoznak","esp trial","2","true"
"html-button-response","92","771432","0.0-11.0-1.40","null","<p>A másik játékos ezt választotta: <b>trálakoznak</b>.</p><p>&#x2705;</p><p>A te válaszod és a másik játékos válasza <b>megegyeznek</b>.</p>","null","","","","feedback trial","",""
"html-button-response-esp","93","777441","0.0-11.0-0.41","3703","János imád flodozni, ezért sokat flodlik. Ti ritkán...","0","flodoztok","[""flodoztok"",""flodlotok""]","flodlotok","esp trial","2","false"
"html-button-response","94","780958","0.0-11.0-1.41","null","<p>A másik játékos ezt választotta: <b>flodlotok</b>.</p><p>&#10060;</p><p>A válaszaitok <b>nem</b> egyeznek meg.</p>","null","","","","feedback trial","",""
"html-button-response-esp","95","790400","0.0-11.0-0.42","8925","János imád prugorozni, ezért sokat prugorzik. Ti ritkán...","1","prugoroztok","[""prugorzotok"",""prugoroztok""]","prugorzotok","esp trial","2","false"
"html-button-response","96","793921","0.0-11.0-1.42","null","<p>A másik játékos ezt választotta: <b>prugorzotok</b>.</p><p>&#10060;</p><p>A válaszaitok <b>nem</b> egyeznek meg.</p>","null","","","","feedback trial","",""
"html-button-response-esp","97","800489","0.0-11.0-0.43","6051","János imád klégezni, ezért sokat kléglik. Mi ritkán...","0","kléglünk","[""kléglünk"",""klégezünk""]","klégezünk","esp trial","2","false"
"html-button-response","98","804019","0.0-11.0-1.43","null","<p>A másik játékos ezt választotta: <b>klégezünk</b>.</p><p>&#10060;</p><p>A válaszaitok <b>nem</b> egyeznek meg.</p>","null","","","","feedback trial","",""
"html-button-response-esp","99","816213","0.0-11.0-0.44","11679","János imád flerékedni, ezért sokat flerékszik. Mi ritkán...","0","flerékedünk","[""flerékedünk"",""flerékszünk""]","flerékedünk","esp trial","2","true"
"html-button-response","100","819733","0.0-11.0-1.44","null","<p>A másik játékos ezt választotta: <b>flerékedünk</b>.</p><p>&#x2705;</p><p>A te válaszod és a másik játékos válasza <b>megegyeznek</b>.</p>","null","","","","feedback trial","",""
"html-button-response-esp","101","825759","0.0-11.0-0.45","4603","János imád frirozni, ezért sokat frirzik. Mi ritkán...","1","frirozunk","[""frirzunk"",""frirozunk""]","frirzunk","esp trial","2","false"
"html-button-response","102","829283","0.0-11.0-1.45","null","<p>A másik játékos ezt választotta: <b>frirzunk</b>.</p><p>&#10060;</p><p>A válaszaitok <b>nem</b> egyeznek meg.</p>","null","","","","feedback trial","",""
"html-button-response-esp","103","838291","0.0-11.0-0.46","8503","János imád vilesezni, ezért sokat vileslik. Mi ritkán...","1","vilesezünk","[""vileslünk"",""vilesezünk""]","vilesezünk","esp trial","2","true"
"html-button-response","104","841809","0.0-11.0-1.46","null","<p>A másik játékos ezt választotta: <b>vilesezünk</b>.</p><p>&#x2705;</p><p>A te válaszod és a másik játékos válasza <b>megegyeznek</b>.</p>","null","","","","feedback trial","",""
"html-button-response-esp","105","847844","0.0-11.0-0.47","4190","János imád sztredezni, ezért sokat sztredlik. Ti ritkán...","1","sztredeztek","[""sztredletek"",""sztredeztek""]","sztredeztek","esp trial","2","true"
"html-button-response","106","851376","0.0-11.0-1.47","null","<p>A másik játékos ezt választotta: <b>sztredeztek</b>.</p><p>&#x2705;</p><p>A te válaszod és a másik játékos válasza <b>megegyeznek</b>.</p>","null","","","","feedback trial","",""
"html-button-response-esp","107","857414","0.0-11.0-0.48","4787","János imád sűjözni, ezért sokat sűjlik. Mi ritkán...","1","sűjözünk","[""sűjlünk"",""sűjözünk""]","sűjözünk","esp trial","2","true"
"html-button-response","108","860942","0.0-11.0-1.48","null","<p>A másik játékos ezt választotta: <b>sűjözünk</b>.</p><p>&#x2705;</p><p>A te válaszod és a másik játékos válasza <b>megegyeznek</b>.</p>","null","","","","feedback trial","",""
"html-button-response-esp","109","866973","0.0-11.0-0.49","3600","János imád jurozni, ezért sokat jurlik. Mi ritkán...","1","jurozunk","[""jurlunk"",""jurozunk""]","jurozunk","esp trial","2","true"
"html-button-response","110","870499","0.0-11.0-1.49","null","<p>A másik játékos ezt választotta: <b>jurozunk</b>.</p><p>&#x2705;</p><p>A te válaszod és a másik játékos válasza <b>megegyeznek</b>.</p>","null","","","","feedback trial","",""
"html-button-response-esp","111","876541","0.0-11.0-0.50","4938","János imád bribasozni, ezért sokat bribaslik. Ők ritkán...","1","bribasoznak","[""bribaslanak"",""bribasoznak""]","bribaslanak","esp trial","2","false"
"html-button-response","112","880060","0.0-11.0-1.50","null","<p>A másik játékos ezt választotta: <b>bribaslanak</b>.</p><p>&#10060;</p><p>A válaszaitok <b>nem</b> egyeznek meg.</p>","null","","","","feedback trial","",""
"html-button-response-esp","113","886096","0.0-11.0-0.51","5257","János imád bresezni, ezért sokat breslik. Ők ritkán...","0","breseznek","[""breseznek"",""breslenek""]","breseznek","esp trial","2","true"
"html-button-response","114","889627","0.0-11.0-1.51","null","<p>A másik játékos ezt választotta: <b>breseznek</b>.</p><p>&#x2705;</p><p>A te válaszod és a másik játékos válasza <b>megegyeznek</b>.</p>","null","","","","feedback trial","",""
"html-button-response-esp","115","901408","0.0-11.0-0.52","11269","János imád bribékedni, ezért sokat bribékszik. Ti ritkán...","1","bribékedtek","[""bribékszetek"",""bribékedtek""]","bribékedtek","esp trial","2","true"
"html-button-response","116","904932","0.0-11.0-1.52","null","<p>A másik játékos ezt választotta: <b>bribékedtek</b>.</p><p>&#x2705;</p><p>A te válaszod és a másik játékos válasza <b>megegyeznek</b>.</p>","null","","","","feedback trial","",""
"html-button-response-esp","117","910948","0.0-11.0-0.53","3713","János imád hubonyozni, ezért sokat hubonylik. Ti ritkán...","1","hubonyoztok","[""hubonylotok"",""hubonyoztok""]","hubonylotok","esp trial","2","false"
"html-button-response","118","914482","0.0-11.0-1.53","null","<p>A másik játékos ezt választotta: <b>hubonylotok</b>.</p><p>&#10060;</p><p>A válaszaitok <b>nem</b> egyeznek meg.</p>","null","","","","feedback trial","",""
"html-button-response","119","928032","0.0-12.0","13033","<p>A közös játék most véget ért.</p><p>Mielőtt eláruljuk a végső pontszámodat, arra kérlek, játszd a szóválasztós játékot néhány percig egyedül is.</p><p>A feladatod ugyanaz lesz, választani két lehetőség közül.</p><p>Most viszont egyedül kell döntened, hogy te melyiket választanád.</p>","0","","","","","",""
"html-button-response-clever","120","946543","0.0-13.0-0.0","17993","János imád brivakozni, ezért sokat brivaklik. Ti ritkán...","0","brivaklotok","[""brivaklotok"",""brivakoztok""]","","posttest trial","4",""
"html-button-response-clever","121","953233","0.0-13.0-0.1","6188","János imád molodni, ezért sokat molszik. Ti ritkán...","0","molszotok","[""molszotok"",""molodtok""]","","posttest trial","4",""
"html-button-response-clever","122","960025","0.0-13.0-0.2","6279","János imád frakozni, ezért sokat fraklik. Mi ritkán...","1","fraklunk","[""frakozunk"",""fraklunk""]","","posttest trial","4",""
"html-button-response-clever","123","968777","0.0-13.0-0.3","8236","János imád trugokozni, ezért sokat trugoklik. Ők ritkán...","1","trugokoznak","[""trugoklanak"",""trugokoznak""]","","posttest trial","4",""
"html-button-response-clever","124","976830","0.0-13.0-0.4","7531","János imád fröjözni, ezért sokat fröjzik. Ti ritkán...","0","fröjzötök","[""fröjzötök"",""fröjöztök""]","","posttest trial","4",""
"html-button-response-clever","125","982673","0.0-13.0-0.5","5339","János imád pragányozni, ezért sokat pragánylik. Ti ritkán...","1","pragánylotok","[""pragányoztok"",""pragánylotok""]","","posttest trial","4",""
"html-button-response-clever","126","988984","0.0-13.0-0.6","5794","János imád prélemezni, ezért sokat prélemlik. Ők ritkán...","1","prélemlenek","[""prélemeznek"",""prélemlenek""]","","posttest trial","4",""
"html-button-response-clever","127","993738","0.0-13.0-0.7","4236","János imád dilakozni, ezért sokat dilaklik. Ti ritkán...","0","dilakoztok","[""dilakoztok"",""dilaklotok""]","","posttest trial","4",""
"html-button-response-clever","128","999236","0.0-13.0-0.8","4989","János imád spibegezni, ezért sokat spibeglik. Mi ritkán...","0","spibeglünk","[""spibeglünk"",""spibegezünk""]","","posttest trial","4",""
"html-button-response-clever","129","1003576","0.0-13.0-0.9","3836","János imád lűközni, ezért sokat lűklik. Ők ritkán...","0","lűklenek","[""lűklenek"",""lűköznek""]","","posttest trial","4",""
"html-button-response-clever","130","1009333","0.0-13.0-0.10","5240","János imád csibagozni, ezért sokat csibagzik. Ti ritkán...","1","csibagzotok","[""csibagoztok"",""csibagzotok""]","","posttest trial","4",""
"html-button-response-clever","131","1013267","0.0-13.0-0.11","3419","János imád dujozni, ezért sokat dujzik. Ők ritkán...","1","dujzanak","[""dujoznak"",""dujzanak""]","","posttest trial","4",""
"html-button-response-clever","132","1017657","0.0-13.0-0.12","3877","János imád frálasozni, ezért sokat frálaslik. Ők ritkán...","0","frálaslanak","[""frálaslanak"",""frálasoznak""]","","posttest trial","4",""
"html-button-response-clever","133","1021335","0.0-13.0-0.13","3154","János imád spügözni, ezért sokat spügzik. Mi ritkán...","0","spügzünk","[""spügzünk"",""spügözünk""]","","posttest trial","4",""
"html-button-response-clever","134","1026569","0.0-13.0-0.14","4712","János imád sprudozni, ezért sokat sprudlik. Mi ritkán...","1","sprudlunk","[""sprudozunk"",""sprudlunk""]","","posttest trial","4",""
"html-button-response-clever","135","1030761","0.0-13.0-0.15","3673","János imád gihejezni, ezért sokat gihejlik. Mi ritkán...","1","gihejlünk","[""gihejezünk"",""gihejlünk""]","","posttest trial","4",""
"html-button-response-clever","136","1035754","0.0-13.0-0.16","4476","János imád brülösözni, ezért sokat brülöslik. Mi ritkán...","1","brülöslünk","[""brülösözünk"",""brülöslünk""]","","posttest trial","4",""
"html-button-response-clever","137","1040953","0.0-13.0-0.17","4692","János imád drűrözni, ezért sokat drűrzik. Ők ritkán...","1","drűrzenek","[""drűröznek"",""drűrzenek""]","","posttest trial","4",""
"html-button-response-clever","138","1046388","0.0-13.0-0.18","4930","János imád dárakodni, ezért sokat dárakszik. Mi ritkán...","0","dárakszunk","[""dárakszunk"",""dárakodunk""]","","posttest trial","4",""
"html-button-response-clever","139","1058247","0.0-13.0-0.19","11348","János imád püzözni, ezért sokat püzlik. Ti ritkán...","0","püzöztök","[""püzöztök"",""püzlötök""]","","posttest trial","4",""
"html-button-response-clever","140","1062068","0.0-13.0-0.20","3317","János imád virozni, ezért sokat virzik. Ők ritkán...","1","virzanak","[""viroznak"",""virzanak""]","","posttest trial","4",""
"html-button-response-clever","141","1067799","0.0-13.0-0.21","5222","János imád köszözni, ezért sokat köszlik. Ti ritkán...","1","köszöztök","[""köszlötök"",""köszöztök""]","","posttest trial","4",""
"html-button-response-clever","142","1072418","0.0-13.0-0.22","4115","János imád flűgözni, ezért sokat flűgzik. Mi ritkán...","1","flűgzünk","[""flűgözünk"",""flűgzünk""]","","posttest trial","4",""
"html-button-response-clever","143","1077302","0.0-13.0-0.23","4374","János imád brözözni, ezért sokat brözlik. Ti ritkán...","0","brözlötök","[""brözlötök"",""brözöztök""]","","posttest trial","4",""
"html-button-response-clever","144","1081536","0.0-13.0-0.24","3731","János imád föködni, ezért sokat fökszik. Ők ritkán...","1","fökszenek","[""föködnek"",""fökszenek""]","","posttest trial","4",""
"html-button-response-clever","145","1086858","0.0-13.0-0.25","4808","János imád frálapodni, ezért sokat frálapszik. Ti ritkán...","1","frálapszotok","[""frálapodtok"",""frálapszotok""]","","posttest trial","4",""
"html-button-response-clever","146","1090809","0.0-13.0-0.26","3437","János imád branyozni, ezért sokat branylik. Ők ritkán...","1","branylanak","[""branyoznak"",""branylanak""]","","posttest trial","4",""
"html-button-response-clever","147","1095555","0.0-13.0-0.27","4242","János imád gyihegezni, ezért sokat gyihegzik. Ti ritkán...","0","gyihegzetek","[""gyihegzetek"",""gyihegeztek""]","","posttest trial","4",""
"html-button-response-clever","148","1099261","0.0-13.0-0.28","3193","János imád nyürözni, ezért sokat nyürzik. Ők ritkán...","1","nyürzenek","[""nyüröznek"",""nyürzenek""]","","posttest trial","4",""
"html-button-response-clever","149","1103963","0.0-13.0-0.29","4197","János imád trikozni, ezért sokat triklik. Ti ritkán...","0","triklotok","[""triklotok"",""trikoztok""]","","posttest trial","4",""
"html-button-response-clever","150","1108066","0.0-13.0-0.30","3598","János imád nyivágozni, ezért sokat nyivágzik. Mi ritkán...","0","nyivágzunk","[""nyivágzunk"",""nyivágozunk""]","","posttest trial","4",""
"html-button-response-clever","151","1112244","0.0-13.0-0.31","3673","János imád kűdözni, ezért sokat kűdlik. Ők ritkán...","1","kűdlenek","[""kűdöznek"",""kűdlenek""]","","posttest trial","4",""
"html-button-response-clever","152","1116137","0.0-13.0-0.32","3386","János imád privékedni, ezért sokat privékszik. Ők ritkán...","1","privékednek","[""privékszenek"",""privékednek""]","","posttest trial","4",""
"html-button-response-clever","153","1119779","0.0-13.0-0.33","3134","János imád spirágozni, ezért sokat spiráglik. Ti ritkán...","0","spiráglotok","[""spiráglotok"",""spirágoztok""]","","posttest trial","4",""
"html-button-response-clever","154","1125350","0.0-13.0-0.34","5063","János imád bratározni, ezért sokat bratárzik. Ők ritkán...","0","bratárzanak","[""bratárzanak"",""bratároznak""]","","posttest trial","4",""
"html-button-response-clever","155","1130391","0.0-13.0-0.35","4518","János imád sprozozni, ezért sokat sprozlik. Ők ritkán...","0","sprozlanak","[""sprozlanak"",""sprozoznak""]","","posttest trial","4",""
"html-button-response-clever","156","1137643","0.0-13.0-0.36","6737","János imád drilarozni, ezért sokat drilarzik. Mi ritkán...","0","drilarzunk","[""drilarzunk"",""drilarozunk""]","","posttest trial","4",""
"html-button-response-clever","157","1142970","0.0-13.0-0.37","4805","János imád flüröközni, ezért sokat flüröklik. Ti ritkán...","0","flüröklötök","[""flüröklötök"",""flürököztök""]","","posttest trial","4",""
"html-button-response-clever","158","1158226","0.0-13.0-0.38","14751","János imád klehényezni, ezért sokat klehénylik. Ti ritkán...","0","klehényeztek","[""klehényeztek"",""klehényletek""]","","posttest trial","4",""
"html-button-response-clever","159","1168067","0.0-13.0-0.39","9327","János imád pilégedni, ezért sokat pilégszik. Ők ritkán...","0","pilégszenek","[""pilégszenek"",""pilégednek""]","","posttest trial","4",""
"html-button-response-clever","160","1173001","0.0-13.0-0.40","4419","János imád spiharozni, ezért sokat spiharzik. Ti ritkán...","1","spiharzotok","[""spiharoztok"",""spiharzotok""]","","posttest trial","4",""
"html-button-response-clever","161","1178744","0.0-13.0-0.41","5230","János imád dabozni, ezért sokat dabzik. Ti ritkán...","0","daboztok","[""daboztok"",""dabzotok""]","","posttest trial","4",""
"html-button-response-clever","162","1183951","0.0-13.0-0.42","4700","János imád trugozni, ezért sokat trugzik. Ők ritkán...","1","trugzanak","[""trugoznak"",""trugzanak""]","","posttest trial","4",""
"html-button-response-clever","163","1188053","0.0-13.0-0.43","3596","János imád mülőrözni, ezért sokat mülőrzik. Mi ritkán...","1","mülőrzünk","[""mülőrözünk"",""mülőrzünk""]","","posttest trial","4",""
"html-button-response-clever","164","1192908","0.0-13.0-0.44","4348","János imád flöközni, ezért sokat flöklik. Ti ritkán...","0","flöklötök","[""flöklötök"",""flököztök""]","","posttest trial","4",""
"html-button-response-clever","165","1197722","0.0-13.0-0.45","4308","János imád sprűrözni, ezért sokat sprűrlik. Ők ritkán...","1","sprűrlenek","[""sprűröznek"",""sprűrlenek""]","","posttest trial","4",""
"html-button-response-clever","166","1204722","0.0-13.0-0.46","6487","János imád prögözni, ezért sokat prögzik. Ti ritkán...","1","prögzötök","[""prögöztök"",""prögzötök""]","","posttest trial","4",""
"html-button-response-clever","167","1208620","0.0-13.0-0.47","3373","János imád lájozni, ezért sokat lájzik. Ti ritkán...","1","lájzotok","[""lájoztok"",""lájzotok""]","","posttest trial","4",""
"html-button-response-clever","168","1212738","0.0-13.0-0.48","3597","János imád trivakodni, ezért sokat trivakszik. Mi ritkán...","1","trivakszunk","[""trivakodunk"",""trivakszunk""]","","posttest trial","4",""
"html-button-response-clever","169","1223552","0.0-13.0-0.49","10303","János imád flemezni, ezért sokat flemlik. Mi ritkán...","0","flemlünk","[""flemlünk"",""flemezünk""]","","posttest trial","4",""
"html-button-response-clever","170","1229855","0.0-13.0-0.50","5786","János imád posozni, ezért sokat poslik. Ti ritkán...","0","posoztok","[""posoztok"",""poslotok""]","","posttest trial","4",""
"html-button-response-clever","171","1234953","0.0-13.0-0.51","4592","János imád csubozni, ezért sokat csubzik. Mi ritkán...","1","csubzunk","[""csubozunk"",""csubzunk""]","","posttest trial","4",""
"html-button-response-clever","172","1239832","0.0-13.0-0.52","4369","János imád mágamozni, ezért sokat mágamlik. Mi ritkán...","1","mágamlunk","[""mágamozunk"",""mágamlunk""]","","posttest trial","4",""
"html-button-response-clever","173","1243622","0.0-13.0-0.53","3289","János imád dirozni, ezért sokat dirlik. Ti ritkán...","1","dirlotok","[""diroztok"",""dirlotok""]","","posttest trial","4",""
"html-button-response","174","1266918","0.0-14.0","22791","<p> Vége a játéknak. A teljes pontszámod 30/54.</p><p> Szép munka! &#128526;&#128526;&#128526;</p><p>A Befejezés gomb megnyomása után bezárhatod a böngészőablakot.</p>","0","","","","","",""
"html-keyboard-response","175","1272453","0.0-15.0","null","<div class=""message"">
         <p>Egy kis türelmet kérünk, amíg elmentjük az adatokat...</p>
         </div>","null","","","","","",""
