"trial_type","trial_index","time_elapsed","internal_node_id","rt","stimulus","response","response_string","choices","esp_response","trial_kind","list_number","esp_match"
"pavlovia","0","1033","0.0-0.0","","","","","","","","",""
"html-button-response","1","22114","0.0-1.0","20574","<p>Kedves Résztvevő! A Budapesti Műszaki és Gazdaságtudományi Egyetem Kognitív Tudományi Tanszékének kutatásában való részvételed kérjük. A kutatásban azt vizsgáljuk, hogy a magyar anyanyelvűek hogyan használnak bizonyos szóalakokat, és hogy milyen képük van arról, hogy mások hogyan használják, hogyan képzik a szavakat. Ez hozzásegít bennünket ahhoz, hogy jobban megértsük, hogyan dolgozza fel és tárolja a nyelvet az emberi agy, és hogyan működnek, hogyan változnak egy adott közösség nyelvi konvenciói.</p><p>A vizsgálat egy rövid számítógépes feladatból fog állni. A kutatásban való részvétel önkéntes, a részvételi szándék bármikor visszavonható. A résztvevők eredményeit név nélkül kezeljük, így nem beazonosíthatók az adatok feldolgozása során. Minden személyes adatot az EU általános adatvédelmi rendeletének (GDPR) megfelelően kezelünk és legfeljebb öt éven belül megsemmisítünk. A vizsgálat jellemzően húsz percet vesz igénybe.</p><p>Kutatásvezető:</p><p>Dr. Rácz Péter, tudományos munkatárs, BME KTT</p><p>e-mail: racz.peter.marton@ttk.bme.hu</p>","0","","","","","",""
"html-button-response","2","345112","0.0-2.0","322484","<p>A kísérletben szavakat fogsz látni. Ezek között lesznek olyanok, amelyeket ismersz, de előfordulhatnak olyanok is, amelyeket nem ismersz, sőt, vannak köztük kitalált szavak is. Minden szónál látni fogsz toldalékolt alakokat. A te feladatod az lesz, hogy minden szóhoz kiválaszd azt a toldalékolt alakot, amely a te számodra ismerősebben, természetesebben hangzik. Rossz válaszok nincsenek, mert van olyan, hogy különböző embereknek más és más szó tűnik jobb választásnak. A választ úgy tudod majd kiválasztani, ha rákattintasz.</p><p>Ebben a szóválasztós játékban egy másik játékossal együtt veszel majd részt. A másik játékos is minden esetben azok közül a lehetőségek közül válogathat, mint te. Kettőtök feladata az, hogy ugyanazt a lehetőséget válasszátok minden esetben. Ahhoz, hogy ez sikerüljön, neked figyelned kell arra, hogy a másik játékos milyen válaszokat ad, és ennek alapján meg kell tippelned, hogyan választ legközelebb. Ha eltalálod, akkor pontot kapsz.</p>","0","","","","","",""
"html-button-response","3","352851","0.0-3.0","7237","<p>Kérjük, olvasd el az alábbi nyilatkozatot, és amennyiben egyetértesz vele, nyomj a Beleegyezés gombra!</p><p>Kijelentem, hogy magyar anyanyelvű személyként önként veszek részt a BME KTT kísérletében. A kutatás céljával és folyamatával kapcsolatban elegendő tájékoztatást kaptam, lehetőségem volt kérdések feltételére, és esetleges kérdéseimre megfelelő válaszokat kaptam. A tájékoztatás alapján elegendő mennyiségű információ áll a rendelkezésemre, hogy eldönthessem, részt kívánok-e venni a kutatásban.</p><p>Tisztában vagyok vele, hogy részvételi szándékomat és adataimat bármikor, indoklás nélkül visszavonhatom.</p><p>Értem és tudomásul veszem, hogy a kutatás tudományos célokat szolgál, és az általam szolgáltatott adatokat a BME kizárólag kutatási célból használja fel. Tudomásul veszem, hogy eredményeimet a többi résztvevő eredményeivel együtt kezelik, így egyéni teljesítményemről visszajelzést, szakvéleményt nem kapok.</p><p>Megértettem, hogy adataim kezelését illetően a BME az EU általános adatvédelmi rendelete (GDPR), a hatályos adatvédelmi törvény és a nemzetközi kutatás-etikai alapelvek szerint jár el. Eredményeim anonim módon kerülnek feldolgozásra, és a kutatás résztvevői az azonosításomra alkalmas adataimat harmadik félnek nem szolgáltatják ki. Engedélyezem a BME számára a jelen kutatásban felvett adataim feldolgozását és tárolását, beleértve azok későbbi kutatásokhoz való felhasználását is. Személyes adataim kezelésével kapcsolatban tájékoztatást kérhetek a kutatás résztvevőitől, az adatkezelés ellen tiltakozhatok, kérhetem személyes adataim helyesbítését, törlését vagy zárolását, valamint jogorvoslatért a Nemzeti Adatvédelmi és Információszabadság Hatósághoz fordulhatok.</p><p>Kijelentem, hogy a kutatásban való részvételem körülményeiről részletes tájékoztatást kaptam, és a feltételeket elfogadom.</p>","0","","","","","",""
"survey-text","4","392728","0.0-4.0","39329","","{""Q0"":""K0IVER"",""Q1"":""nő"",""Q2"":""2001"",""Q3"":""15""}","","","","","",""
"html-button-response","5","417139","0.0-5.0","23908","<p>Ebben a játékban szavakat kell toldalékolni.</p> <p>Minden körben mutatunk majd egy példamondatot, amiben lesz egy szó.</p> <p>Alatta jön egy második mondat, ezt a mondatot neked kell majd befejezni, ugyanezzel a szóval.</p> <p>Nem biztos, hogy a szó eleve ismerős lesz számodra!</p> <p>Minden mondathoz adunk két lehetőséget, ezeket balra és jobbra látod majd.</p> <p>A játék kb. negyedóráig-húsz percig tart.</p>","0","","","","","",""
"html-button-response","6","428350","0.0-6.0","10710","<p>Nézzünk egy példát!</p> <p>A példamondat: ""János nagyon szeret rancsúrozni.""</p><p>Neked ezt a mondatot kell befejezned: ""Én is szívesen...""</p><p>A lehetőségek pedig ezek:</p>","1","","","","","",""
"html-button-response","7","434038","0.0-7.0","5185","<p>Nagyon jó.</p><p>Ezt a játékot nem egyedül fogod játszani, hanem egy másik játékossal.</p><p>Mielőtt továbblépünk, összekapcsolunk titeket egymással.</p><p>Ez igénybe vehet néhány másodpercet, amihez szíves türelmed kérjük.</p>","0","","","","","",""
"html-button-response","8","439764","0.0-8.0","null","<p>Csatlakozás a másik játékoshoz...</p>","null","","","","","",""
"html-button-response","9","442270","0.0-9.0","null","<p> Sikeres kapcsolódás!</p>","null","","","","","",""
"html-button-response","10","452771","0.0-10.0","null","<p>A következőkben ketten játsszátok a szóválasztós játékot.</p><p>A feladatotok az lesz, hogy minden körben <b>ugyanazt</b> a szót válasszátok.</p><p>Minden ilyen egyező válaszért pontot kaptok.</p><p>Próbáld meg kitalálni, mit választ a másik játékos!</p><p>Bármikor választhatsz, a körnek akkor van vége, ha mindketten döntöttetek.</p><p>Sok sikert!</p>","null","","","","","",""
"html-button-response-esp","11","468006","0.0-11.0-0.0","14731","Te bizony sokat bivejlesz. Én is sokat...","0","bivejlek","[""bivejlek"",""bivejlem""]","bivejlem","esp trial","8","false"
"html-button-response","12","471511","0.0-11.0-1.0","null","<p>A másik játékos ezt választotta: <b>bivejlem</b>.</p><p>&#10060;</p><p>A válaszaitok <b>nem</b> egyeznek meg.</p>","null","","","","feedback trial","",""
"html-button-response-esp","13","479156","0.0-11.0-0.1","7142","Te bizony sokat spírzol. Én is sokat...","1","spírzom","[""spírzok"",""spírzom""]","spírzok","esp trial","8","false"
"html-button-response","14","482661","0.0-11.0-1.1","null","<p>A másik játékos ezt választotta: <b>spírzok</b>.</p><p>&#10060;</p><p>A válaszaitok <b>nem</b> egyeznek meg.</p>","null","","","","feedback trial","",""
"html-button-response-esp","15","488668","0.0-11.0-0.2","4547","Te bizony sokat mékszel. Én is sokat...","0","mékszek","[""mékszek"",""mékszem""]","mékszek","esp trial","8","true"
"html-button-response","16","492174","0.0-11.0-1.2","null","<p>A másik játékos ezt választotta: <b>mékszek</b>.</p><p>&#x2705;</p><p>A te válaszod és a másik játékos válasza <b>megegyeznek</b>.</p>","null","","","","feedback trial","",""
"html-button-response-esp","17","500540","0.0-11.0-0.3","7864","Te bizony sokat csólorzol. Én is sokat...","0","csólorzom","[""csólorzom"",""csólorzok""]","csólorzok","esp trial","8","false"
"html-button-response","18","504045","0.0-11.0-1.3","null","<p>A másik játékos ezt választotta: <b>csólorzok</b>.</p><p>&#10060;</p><p>A válaszaitok <b>nem</b> egyeznek meg.</p>","null","","","","feedback trial","",""
"html-button-response-esp","19","512303","0.0-11.0-0.4","7755","Te bizony sokat zödlesz. Én is sokat...","0","zödlöm","[""zödlöm"",""zödlök""]","zödlöm","esp trial","8","true"
"html-button-response","20","515806","0.0-11.0-1.4","null","<p>A másik játékos ezt választotta: <b>zödlöm</b>.</p><p>&#x2705;</p><p>A te válaszod és a másik játékos válasza <b>megegyeznek</b>.</p>","null","","","","feedback trial","",""
"html-button-response-esp","21","521812","0.0-11.0-0.5","5175","Te bizony sokat tuboklasz. Én is sokat...","0","tuboklom","[""tuboklom"",""tuboklok""]","tuboklok","esp trial","8","false"
"html-button-response","22","525319","0.0-11.0-1.5","null","<p>A másik játékos ezt választotta: <b>tuboklok</b>.</p><p>&#10060;</p><p>A válaszaitok <b>nem</b> egyeznek meg.</p>","null","","","","feedback trial","",""
"html-button-response-esp","23","531476","0.0-11.0-0.6","5655","Te bizony sokat friszlasz. Én is sokat...","0","friszlok","[""friszlok"",""friszlom""]","friszlok","esp trial","8","true"
"html-button-response","24","534980","0.0-11.0-1.6","null","<p>A másik játékos ezt választotta: <b>friszlok</b>.</p><p>&#x2705;</p><p>A te válaszod és a másik játékos válasza <b>megegyeznek</b>.</p>","null","","","","feedback trial","",""
"html-button-response-esp","25","540983","0.0-11.0-0.7","2665","Te bizony sokat gilárzol. Én is sokat...","1","gilárzom","[""gilárzok"",""gilárzom""]","gilárzok","esp trial","8","false"
"html-button-response","26","544488","0.0-11.0-1.7","null","<p>A másik játékos ezt választotta: <b>gilárzok</b>.</p><p>&#10060;</p><p>A válaszaitok <b>nem</b> egyeznek meg.</p>","null","","","","feedback trial","",""
"html-button-response-esp","27","550495","0.0-11.0-0.8","5332","Te bizony sokat sztruglasz. Én is sokat...","1","sztruglok","[""sztruglom"",""sztruglok""]","sztruglok","esp trial","8","true"
"html-button-response","28","553998","0.0-11.0-1.8","null","<p>A másik játékos ezt választotta: <b>sztruglok</b>.</p><p>&#x2705;</p><p>A te válaszod és a másik játékos válasza <b>megegyeznek</b>.</p>","null","","","","feedback trial","",""
"html-button-response-esp","29","577338","0.0-11.0-0.9","22809","Te bizony sokat spülöklesz. Én is sokat...","1","spülöklök","[""spülöklöm"",""spülöklök""]","spülöklök","esp trial","8","true"
"html-button-response","30","580841","0.0-11.0-1.9","null","<p>A másik játékos ezt választotta: <b>spülöklök</b>.</p><p>&#x2705;</p><p>A te válaszod és a másik játékos válasza <b>megegyeznek</b>.</p>","null","","","","feedback trial","",""
"html-button-response-esp","31","586847","0.0-11.0-0.10","2864","Te bizony sokat flibekszel. Én is sokat...","0","flibekszek","[""flibekszek"",""flibekszem""]","flibekszek","esp trial","8","true"
"html-button-response","32","590351","0.0-11.0-1.10","null","<p>A másik játékos ezt választotta: <b>flibekszek</b>.</p><p>&#x2705;</p><p>A te válaszod és a másik játékos válasza <b>megegyeznek</b>.</p>","null","","","","feedback trial","",""
"html-button-response-esp","33","596357","0.0-11.0-0.11","4371","Te bizony sokat táklasz. Én is sokat...","0","táklok","[""táklok"",""táklom""]","táklok","esp trial","8","true"
"html-button-response","34","599864","0.0-11.0-1.11","null","<p>A másik játékos ezt választotta: <b>táklok</b>.</p><p>&#x2705;</p><p>A te válaszod és a másik játékos válasza <b>megegyeznek</b>.</p>","null","","","","feedback trial","",""
"html-button-response-esp","35","609117","0.0-11.0-0.12","8750","Te bizony sokat flérlesz. Én is sokat...","0","flérlek","[""flérlek"",""flérlem""]","flérlem","esp trial","8","false"
"html-button-response","36","612620","0.0-11.0-1.12","null","<p>A másik játékos ezt választotta: <b>flérlem</b>.</p><p>&#10060;</p><p>A válaszaitok <b>nem</b> egyeznek meg.</p>","null","","","","feedback trial","",""
"html-button-response-esp","37","618624","0.0-11.0-0.13","610","Te bizony sokat spatszol. Én is sokat...","0","spatszom","[""spatszom"",""spatszok""]","spatszok","esp trial","8","false"
"html-button-response","38","622130","0.0-11.0-1.13","null","<p>A másik játékos ezt választotta: <b>spatszok</b>.</p><p>&#10060;</p><p>A válaszaitok <b>nem</b> egyeznek meg.</p>","null","","","","feedback trial","",""
"html-button-response-esp","39","628134","0.0-11.0-0.14","554","Te bizony sokat aglasz. Én is sokat...","0","aglok","[""aglok"",""aglom""]","aglok","esp trial","8","true"
"html-button-response","40","631638","0.0-11.0-1.14","null","<p>A másik játékos ezt választotta: <b>aglok</b>.</p><p>&#x2705;</p><p>A te válaszod és a másik játékos válasza <b>megegyeznek</b>.</p>","null","","","","feedback trial","",""
"html-button-response-esp","41","637687","0.0-11.0-0.15","1094","Te bizony sokat plágadzol. Én is sokat...","1","plágadzom","[""plágadzok"",""plágadzom""]","plágadzok","esp trial","8","false"
"html-button-response","42","641226","0.0-11.0-1.15","null","<p>A másik játékos ezt választotta: <b>plágadzok</b>.</p><p>&#10060;</p><p>A válaszaitok <b>nem</b> egyeznek meg.</p>","null","","","","feedback trial","",""
"html-button-response-esp","43","647256","0.0-11.0-0.16","958","Te bizony sokat fliraklasz. Én is sokat...","0","fliraklok","[""fliraklok"",""fliraklom""]","fliraklok","esp trial","8","true"
"html-button-response","44","650798","0.0-11.0-1.16","null","<p>A másik játékos ezt választotta: <b>fliraklok</b>.</p><p>&#x2705;</p><p>A te válaszod és a másik játékos válasza <b>megegyeznek</b>.</p>","null","","","","feedback trial","",""
"html-button-response-esp","45","656825","0.0-11.0-0.17","816","Te bizony sokat frágapszol. Én is sokat...","0","frágapszom","[""frágapszom"",""frágapszok""]","frágapszok","esp trial","8","false"
"html-button-response","46","660366","0.0-11.0-1.17","null","<p>A másik játékos ezt választotta: <b>frágapszok</b>.</p><p>&#10060;</p><p>A válaszaitok <b>nem</b> egyeznek meg.</p>","null","","","","feedback trial","",""
"html-button-response-esp","47","672232","0.0-11.0-0.18","11357","Te bizony sokat pugoslasz. Én is sokat...","0","pugoslom","[""pugoslom"",""pugoslok""]","pugoslom","esp trial","8","true"
"html-button-response","48","675738","0.0-11.0-1.18","null","<p>A másik játékos ezt választotta: <b>pugoslom</b>.</p><p>&#x2705;</p><p>A te válaszod és a másik játékos válasza <b>megegyeznek</b>.</p>","null","","","","feedback trial","",""
"html-button-response-esp","49","681744","0.0-11.0-0.19","1594","Te bizony sokat livaklasz. Én is sokat...","1","livaklok","[""livaklom"",""livaklok""]","livaklok","esp trial","8","true"
"html-button-response","50","685253","0.0-11.0-1.19","null","<p>A másik játékos ezt választotta: <b>livaklok</b>.</p><p>&#x2705;</p><p>A te válaszod és a másik játékos válasza <b>megegyeznek</b>.</p>","null","","","","feedback trial","",""
"html-button-response-esp","51","691259","0.0-11.0-0.20","1638","Te bizony sokat gyibakszol. Én is sokat...","0","gyibakszok","[""gyibakszok"",""gyibakszom""]","gyibakszok","esp trial","8","true"
"html-button-response","52","694763","0.0-11.0-1.20","null","<p>A másik játékos ezt választotta: <b>gyibakszok</b>.</p><p>&#x2705;</p><p>A te válaszod és a másik játékos válasza <b>megegyeznek</b>.</p>","null","","","","feedback trial","",""
"html-button-response-esp","53","700803","0.0-11.0-0.21","781","Te bizony sokat trihagzol. Én is sokat...","0","trihagzom","[""trihagzom"",""trihagzok""]","trihagzok","esp trial","8","false"
"html-button-response","54","704343","0.0-11.0-1.21","null","<p>A másik játékos ezt választotta: <b>trihagzok</b>.</p><p>&#10060;</p><p>A válaszaitok <b>nem</b> egyeznek meg.</p>","null","","","","feedback trial","",""
"html-button-response-esp","55","710374","0.0-11.0-0.22","600","Te bizony sokat ibáglasz. Én is sokat...","0","ibáglom","[""ibáglom"",""ibáglok""]","ibáglok","esp trial","8","false"
"html-button-response","56","713913","0.0-11.0-1.22","null","<p>A másik játékos ezt választotta: <b>ibáglok</b>.</p><p>&#10060;</p><p>A válaszaitok <b>nem</b> egyeznek meg.</p>","null","","","","feedback trial","",""
"html-button-response-esp","57","719943","0.0-11.0-0.23","558","Te bizony sokat prihekszel. Én is sokat...","0","prihekszem","[""prihekszem"",""prihekszek""]","prihekszek","esp trial","8","false"
"html-button-response","58","723485","0.0-11.0-1.23","null","<p>A másik játékos ezt választotta: <b>prihekszek</b>.</p><p>&#10060;</p><p>A válaszaitok <b>nem</b> egyeznek meg.</p>","null","","","","feedback trial","",""
"html-button-response-esp","59","729515","0.0-11.0-0.24","1518","Te bizony sokat féjzel. Én is sokat...","0","féjzem","[""féjzem"",""féjzek""]","féjzek","esp trial","8","false"
"html-button-response","60","733053","0.0-11.0-1.24","null","<p>A másik játékos ezt választotta: <b>féjzek</b>.</p><p>&#10060;</p><p>A válaszaitok <b>nem</b> egyeznek meg.</p>","null","","","","feedback trial","",""
"html-button-response-esp","61","739083","0.0-11.0-0.25","4304","Te bizony sokat lihadzol. Én is sokat...","0","lihadzok","[""lihadzok"",""lihadzom""]","lihadzok","esp trial","8","true"
"html-button-response","62","742622","0.0-11.0-1.25","null","<p>A másik játékos ezt választotta: <b>lihadzok</b>.</p><p>&#x2705;</p><p>A te válaszod és a másik játékos válasza <b>megegyeznek</b>.</p>","null","","","","feedback trial","",""
"html-button-response-esp","63","748652","0.0-11.0-0.26","946","Te bizony sokat brarlasz. Én is sokat...","0","brarlok","[""brarlok"",""brarlom""]","brarlom","esp trial","8","false"
"html-button-response","64","752192","0.0-11.0-1.26","null","<p>A másik játékos ezt választotta: <b>brarlom</b>.</p><p>&#10060;</p><p>A válaszaitok <b>nem</b> egyeznek meg.</p>","null","","","","feedback trial","",""
"html-button-response-esp","65","764265","0.0-11.0-0.27","11563","Te bizony sokat szűslesz. Én is sokat...","1","szűslöm","[""szűslök"",""szűslöm""]","szűslöm","esp trial","8","true"
"html-button-response","66","767768","0.0-11.0-1.27","null","<p>A másik játékos ezt választotta: <b>szűslöm</b>.</p><p>&#x2705;</p><p>A te válaszod és a másik játékos válasza <b>megegyeznek</b>.</p>","null","","","","feedback trial","",""
"html-button-response-esp","67","773771","0.0-11.0-0.28","895","Te bizony sokat sprálszol. Én is sokat...","1","sprálszok","[""sprálszom"",""sprálszok""]","sprálszok","esp trial","8","true"
"html-button-response","68","777276","0.0-11.0-1.28","null","<p>A másik játékos ezt választotta: <b>sprálszok</b>.</p><p>&#x2705;</p><p>A te válaszod és a másik játékos válasza <b>megegyeznek</b>.</p>","null","","","","feedback trial","",""
"html-button-response-esp","69","783279","0.0-11.0-0.29","548","Te bizony sokat gerénylesz. Én is sokat...","1","gerénylek","[""gerénylem"",""gerénylek""]","gerénylem","esp trial","8","false"
"html-button-response","70","786787","0.0-11.0-1.29","null","<p>A másik játékos ezt választotta: <b>gerénylem</b>.</p><p>&#10060;</p><p>A válaszaitok <b>nem</b> egyeznek meg.</p>","null","","","","feedback trial","",""
"html-button-response-esp","71","792811","0.0-11.0-0.30","3136","Te bizony sokat frivajlasz. Én is sokat...","1","frivajlok","[""frivajlom"",""frivajlok""]","frivajlom","esp trial","8","false"
"html-button-response","72","796350","0.0-11.0-1.30","null","<p>A másik játékos ezt választotta: <b>frivajlom</b>.</p><p>&#10060;</p><p>A válaszaitok <b>nem</b> egyeznek meg.</p>","null","","","","feedback trial","",""
"html-button-response-esp","73","802381","0.0-11.0-0.31","1174","Te bizony sokat flözlesz. Én is sokat...","0","flözlöm","[""flözlöm"",""flözlök""]","flözlöm","esp trial","8","true"
"html-button-response","74","805920","0.0-11.0-1.31","null","<p>A másik játékos ezt választotta: <b>flözlöm</b>.</p><p>&#x2705;</p><p>A te válaszod és a másik játékos válasza <b>megegyeznek</b>.</p>","null","","","","feedback trial","",""
"html-button-response-esp","75","863116","0.0-11.0-0.32","56685","Te bizony sokat prohódzol. Én is sokat...","0","prohódzok","[""prohódzok"",""prohódzom""]","prohódzok","esp trial","8","true"
"html-button-response","76","866622","0.0-11.0-1.32","null","<p>A másik játékos ezt választotta: <b>prohódzok</b>.</p><p>&#x2705;</p><p>A te válaszod és a másik játékos válasza <b>megegyeznek</b>.</p>","null","","","","feedback trial","",""
"html-button-response-esp","77","872625","0.0-11.0-0.33","854","Te bizony sokat spélszel. Én is sokat...","1","spélszek","[""spélszem"",""spélszek""]","spélszek","esp trial","8","true"
"html-button-response","78","876132","0.0-11.0-1.33","null","<p>A másik játékos ezt választotta: <b>spélszek</b>.</p><p>&#x2705;</p><p>A te válaszod és a másik játékos válasza <b>megegyeznek</b>.</p>","null","","","","feedback trial","",""
"html-button-response-esp","79","882137","0.0-11.0-0.34","575","Te bizony sokat sprédlesz. Én is sokat...","1","sprédlek","[""sprédlem"",""sprédlek""]","sprédlem","esp trial","8","false"
"html-button-response","80","885643","0.0-11.0-1.34","null","<p>A másik játékos ezt választotta: <b>sprédlem</b>.</p><p>&#10060;</p><p>A válaszaitok <b>nem</b> egyeznek meg.</p>","null","","","","feedback trial","",""
"html-button-response-esp","81","891688","0.0-11.0-0.35","2283","Te bizony sokat péleslesz. Én is sokat...","1","péleslek","[""péleslem"",""péleslek""]","péleslek","esp trial","8","true"
"html-button-response","82","895228","0.0-11.0-1.35","null","<p>A másik játékos ezt választotta: <b>péleslek</b>.</p><p>&#x2705;</p><p>A te válaszod és a másik játékos válasza <b>megegyeznek</b>.</p>","null","","","","feedback trial","",""
"html-button-response-esp","83","901258","0.0-11.0-0.36","597","Te bizony sokat vűjlesz. Én is sokat...","1","vűjlök","[""vűjlöm"",""vűjlök""]","vűjlöm","esp trial","8","false"
"html-button-response","84","904797","0.0-11.0-1.36","null","<p>A másik játékos ezt választotta: <b>vűjlöm</b>.</p><p>&#10060;</p><p>A válaszaitok <b>nem</b> egyeznek meg.</p>","null","","","","feedback trial","",""
"html-button-response-esp","85","910829","0.0-11.0-0.37","501","Te bizony sokat spibádzol. Én is sokat...","1","spibádzok","[""spibádzom"",""spibádzok""]","spibádzok","esp trial","8","true"
"html-button-response","86","914367","0.0-11.0-1.37","null","<p>A másik játékos ezt választotta: <b>spibádzok</b>.</p><p>&#x2705;</p><p>A te válaszod és a másik játékos válasza <b>megegyeznek</b>.</p>","null","","","","feedback trial","",""
"html-button-response-esp","87","920397","0.0-11.0-0.38","737","Te bizony sokat fivénylesz. Én is sokat...","1","fivénylek","[""fivénylem"",""fivénylek""]","fivénylek","esp trial","8","true"
"html-button-response","88","923937","0.0-11.0-1.38","null","<p>A másik játékos ezt választotta: <b>fivénylek</b>.</p><p>&#x2705;</p><p>A te válaszod és a másik játékos válasza <b>megegyeznek</b>.</p>","null","","","","feedback trial","",""
"html-button-response-esp","89","929966","0.0-11.0-0.39","1257","Te bizony sokat floglasz. Én is sokat...","1","floglok","[""floglom"",""floglok""]","floglok","esp trial","8","true"
"html-button-response","90","933509","0.0-11.0-1.39","null","<p>A másik játékos ezt választotta: <b>floglok</b>.</p><p>&#x2705;</p><p>A te válaszod és a másik játékos válasza <b>megegyeznek</b>.</p>","null","","","","feedback trial","",""
"html-button-response-esp","91","939536","0.0-11.0-0.40","948","Te bizony sokat plövőrzöl. Én is sokat...","1","plövőrzöm","[""plövőrzök"",""plövőrzöm""]","plövőrzök","esp trial","8","false"
"html-button-response","92","943078","0.0-11.0-1.40","null","<p>A másik játékos ezt választotta: <b>plövőrzök</b>.</p><p>&#10060;</p><p>A válaszaitok <b>nem</b> egyeznek meg.</p>","null","","","","feedback trial","",""
"html-button-response-esp","93","949106","0.0-11.0-0.41","1230","Te bizony sokat klidlasz. Én is sokat...","1","klidlom","[""klidlok"",""klidlom""]","klidlom","esp trial","8","true"
"html-button-response","94","952646","0.0-11.0-1.41","null","<p>A másik játékos ezt választotta: <b>klidlom</b>.</p><p>&#x2705;</p><p>A te válaszod és a másik játékos válasza <b>megegyeznek</b>.</p>","null","","","","feedback trial","",""
"html-button-response-esp","95","960013","0.0-11.0-0.42","6857","Te bizony sokat huklasz. Én is sokat...","1","huklok","[""huklom"",""huklok""]","huklok","esp trial","8","true"
"html-button-response","96","963517","0.0-11.0-1.42","null","<p>A másik játékos ezt választotta: <b>huklok</b>.</p><p>&#x2705;</p><p>A te válaszod és a másik játékos válasza <b>megegyeznek</b>.</p>","null","","","","feedback trial","",""
"html-button-response-esp","97","969521","0.0-11.0-0.43","3887","Te bizony sokat préleglesz. Én is sokat...","1","préleglem","[""préleglek"",""préleglem""]","préleglek","esp trial","8","false"
"html-button-response","98","973029","0.0-11.0-1.43","null","<p>A másik játékos ezt választotta: <b>préleglek</b>.</p><p>&#10060;</p><p>A válaszaitok <b>nem</b> egyeznek meg.</p>","null","","","","feedback trial","",""
"html-button-response-esp","99","985470","0.0-11.0-0.44","11939","Te bizony sokat praslasz. Én is sokat...","1","praslom","[""praslok"",""praslom""]","praslom","esp trial","8","true"
"html-button-response","100","988973","0.0-11.0-1.44","null","<p>A másik játékos ezt választotta: <b>praslom</b>.</p><p>&#x2705;</p><p>A te válaszod és a másik játékos válasza <b>megegyeznek</b>.</p>","null","","","","feedback trial","",""
"html-button-response-esp","101","1004578","0.0-11.0-0.45","15103","Te bizony sokat vihepszel. Én is sokat...","1","vihepszem","[""vihepszek"",""vihepszem""]","vihepszek","esp trial","8","false"
"html-button-response","102","1008083","0.0-11.0-1.45","null","<p>A másik játékos ezt választotta: <b>vihepszek</b>.</p><p>&#10060;</p><p>A válaszaitok <b>nem</b> egyeznek meg.</p>","null","","","","feedback trial","",""
"html-button-response-esp","103","1014089","0.0-11.0-0.46","1170","Te bizony sokat prezlesz. Én is sokat...","1","prezlek","[""prezlem"",""prezlek""]","prezlem","esp trial","8","false"
"html-button-response","104","1017595","0.0-11.0-1.46","null","<p>A másik játékos ezt választotta: <b>prezlem</b>.</p><p>&#10060;</p><p>A válaszaitok <b>nem</b> egyeznek meg.</p>","null","","","","feedback trial","",""
"html-button-response-esp","105","1023600","0.0-11.0-0.47","149","Te bizony sokat kumlasz. Én is sokat...","1","kumlok","[""kumlom"",""kumlok""]","kumlom","esp trial","8","false"
"html-button-response","106","1027103","0.0-11.0-1.47","null","<p>A másik játékos ezt választotta: <b>kumlom</b>.</p><p>&#10060;</p><p>A válaszaitok <b>nem</b> egyeznek meg.</p>","null","","","","feedback trial","",""
"html-button-response-esp","107","1033133","0.0-11.0-0.48","469","Te bizony sokat gyivádzol. Én is sokat...","1","gyivádzok","[""gyivádzom"",""gyivádzok""]","gyivádzok","esp trial","8","true"
"html-button-response","108","1036674","0.0-11.0-1.48","null","<p>A másik játékos ezt választotta: <b>gyivádzok</b>.</p><p>&#x2705;</p><p>A te válaszod és a másik játékos válasza <b>megegyeznek</b>.</p>","null","","","","feedback trial","",""
"html-button-response-esp","109","1042704","0.0-11.0-0.49","471","Te bizony sokat spüszlesz. Én is sokat...","1","spüszlöm","[""spüszlök"",""spüszlöm""]","spüszlök","esp trial","8","false"
"html-button-response","110","1046243","0.0-11.0-1.49","null","<p>A másik játékos ezt választotta: <b>spüszlök</b>.</p><p>&#10060;</p><p>A válaszaitok <b>nem</b> egyeznek meg.</p>","null","","","","feedback trial","",""
"html-button-response-esp","111","1052274","0.0-11.0-0.50","777","Te bizony sokat spülőrzöl. Én is sokat...","1","spülőrzöm","[""spülőrzök"",""spülőrzöm""]","spülőrzök","esp trial","8","false"
"html-button-response","112","1055813","0.0-11.0-1.50","null","<p>A másik játékos ezt választotta: <b>spülőrzök</b>.</p><p>&#10060;</p><p>A válaszaitok <b>nem</b> egyeznek meg.</p>","null","","","","feedback trial","",""
"html-button-response-esp","113","1061842","0.0-11.0-0.51","1979","Te bizony sokat fligzol. Én is sokat...","1","fligzom","[""fligzok"",""fligzom""]","fligzok","esp trial","8","false"
"html-button-response","114","1065382","0.0-11.0-1.51","null","<p>A másik játékos ezt választotta: <b>fligzok</b>.</p><p>&#10060;</p><p>A válaszaitok <b>nem</b> egyeznek meg.</p>","null","","","","feedback trial","",""
"html-button-response-esp","115","1071411","0.0-11.0-0.52","556","Te bizony sokat klárzol. Én is sokat...","0","klárzok","[""klárzok"",""klárzom""]","klárzok","esp trial","8","true"
"html-button-response","116","1074951","0.0-11.0-1.52","null","<p>A másik játékos ezt választotta: <b>klárzok</b>.</p><p>&#x2705;</p><p>A te válaszod és a másik játékos válasza <b>megegyeznek</b>.</p>","null","","","","feedback trial","",""
"html-button-response-esp","117","1080982","0.0-11.0-0.53","184","Te bizony sokat drügzöl. Én is sokat...","0","drügzök","[""drügzök"",""drügzöm""]","drügzök","esp trial","8","true"
"html-button-response","118","1084522","0.0-11.0-1.53","null","<p>A másik játékos ezt választotta: <b>drügzök</b>.</p><p>&#x2705;</p><p>A te válaszod és a másik játékos válasza <b>megegyeznek</b>.</p>","null","","","","feedback trial","",""
"html-button-response","119","1111883","0.0-12.0","26852","<p>A közös játék most véget ért.</p><p>Mielőtt eláruljuk a végső pontszámodat, arra kérlek, játszd a szóválasztós játékot néhány percig egyedül is.</p><p>A feladatod ugyanaz lesz, választani két lehetőség közül.</p><p>Most viszont egyedül kell döntened, hogy te melyiket választanád.</p>","0","","","","","",""
"html-button-response-clever","120","1115028","0.0-13.0-0.0","2641","Te bizony sokat narjárzol. Én is sokat...","1","narjárzom","[""narjárzok"",""narjárzom""]","","posttest trial","1",""
"html-button-response-clever","121","1117089","0.0-13.0-0.1","1559","Te bizony sokat ruslasz. Én is sokat...","1","ruslok","[""ruslom"",""ruslok""]","","posttest trial","1",""
"html-button-response-clever","122","1118839","0.0-13.0-0.2","1248","Te bizony sokat málapszol. Én is sokat...","1","málapszom","[""málapszok"",""málapszom""]","","posttest trial","1",""
"html-button-response-clever","123","1120739","0.0-13.0-0.3","1398","Te bizony sokat tiregzel. Én is sokat...","1","tiregzek","[""tiregzem"",""tiregzek""]","","posttest trial","1",""
"html-button-response-clever","124","1123502","0.0-13.0-0.4","2261","Te bizony sokat prilegzel. Én is sokat...","1","prilegzek","[""prilegzem"",""prilegzek""]","","posttest trial","1",""
"html-button-response-clever","125","1125170","0.0-13.0-0.5","1164","Te bizony sokat sprogzol. Én is sokat...","1","sprogzom","[""sprogzok"",""sprogzom""]","","posttest trial","1",""
"html-button-response-clever","126","1126853","0.0-13.0-0.6","1181","Te bizony sokat spibaklasz. Én is sokat...","1","spibaklom","[""spibaklok"",""spibaklom""]","","posttest trial","1",""
"html-button-response-clever","127","1128776","0.0-13.0-0.7","1420","Te bizony sokat spilágzol. Én is sokat...","1","spilágzok","[""spilágzom"",""spilágzok""]","","posttest trial","1",""
"html-button-response-clever","128","1130497","0.0-13.0-0.8","1219","Te bizony sokat marzol. Én is sokat...","1","marzom","[""marzok"",""marzom""]","","posttest trial","1",""
"html-button-response-clever","129","1132104","0.0-13.0-0.9","1105","Te bizony sokat prűrlesz. Én is sokat...","1","prűrlök","[""prűrlöm"",""prűrlök""]","","posttest trial","1",""
"html-button-response-clever","130","1134036","0.0-13.0-0.10","1427","Te bizony sokat drubódzol. Én is sokat...","1","drubódzok","[""drubódzom"",""drubódzok""]","","posttest trial","1",""
"html-button-response-clever","131","1136852","0.0-13.0-0.11","2314","Te bizony sokat hilarzol. Én is sokat...","1","hilarzom","[""hilarzok"",""hilarzom""]","","posttest trial","1",""
"html-button-response-clever","132","1138585","0.0-13.0-0.12","1231","Te bizony sokat siladzol. Én is sokat...","1","siladzok","[""siladzom"",""siladzok""]","","posttest trial","1",""
"html-button-response-clever","133","1139724","0.0-13.0-0.13","637","Te bizony sokat ribegzel. Én is sokat...","1","ribegzem","[""ribegzek"",""ribegzem""]","","posttest trial","1",""
"html-button-response-clever","134","1140993","0.0-13.0-0.14","769","Te bizony sokat frilegszel. Én is sokat...","1","frilegszem","[""frilegszek"",""frilegszem""]","","posttest trial","1",""
"html-button-response-clever","135","1145112","0.0-13.0-0.15","3617","Te bizony sokat klörlesz. Én is sokat...","1","klörlök","[""klörlöm"",""klörlök""]","","posttest trial","1",""
"html-button-response-clever","136","1146194","0.0-13.0-0.16","579","Te bizony sokat sojzol. Én is sokat...","1","sojzom","[""sojzok"",""sojzom""]","","posttest trial","1",""
"html-button-response-clever","137","1147249","0.0-13.0-0.17","551","Te bizony sokat büglesz. Én is sokat...","1","büglök","[""büglöm"",""büglök""]","","posttest trial","1",""
"html-button-response-clever","138","1148182","0.0-13.0-0.18","431","Te bizony sokat flagánylasz. Én is sokat...","1","flagánylok","[""flagánylom"",""flagánylok""]","","posttest trial","1",""
"html-button-response-clever","139","1149410","0.0-13.0-0.19","725","Te bizony sokat ribzol. Én is sokat...","0","ribzom","[""ribzom"",""ribzok""]","","posttest trial","1",""
"html-button-response-clever","140","1150342","0.0-13.0-0.20","429","Te bizony sokat herégszel. Én is sokat...","0","herégszem","[""herégszem"",""herégszek""]","","posttest trial","1",""
"html-button-response-clever","141","1151322","0.0-13.0-0.21","477","Te bizony sokat flüröslesz. Én is sokat...","0","flüröslöm","[""flüröslöm"",""flüröslök""]","","posttest trial","1",""
"html-button-response-clever","142","1152281","0.0-13.0-0.22","457","Te bizony sokat lorjódzol. Én is sokat...","0","lorjódzok","[""lorjódzok"",""lorjódzom""]","","posttest trial","1",""
"html-button-response-clever","143","1153073","0.0-13.0-0.23","289","Te bizony sokat driládzol. Én is sokat...","0","driládzok","[""driládzok"",""driládzom""]","","posttest trial","1",""
"html-button-response-clever","144","1154038","0.0-13.0-0.24","462","Te bizony sokat pratánylasz. Én is sokat...","0","pratánylok","[""pratánylok"",""pratánylom""]","","posttest trial","1",""
"html-button-response-clever","145","1155007","0.0-13.0-0.25","468","Te bizony sokat szirlasz. Én is sokat...","0","szirlom","[""szirlom"",""szirlok""]","","posttest trial","1",""
"html-button-response-clever","146","1155876","0.0-13.0-0.26","366","Te bizony sokat bölszöl. Én is sokat...","0","bölszöm","[""bölszöm"",""bölszök""]","","posttest trial","1",""
"html-button-response-clever","147","1156780","0.0-13.0-0.27","402","Te bizony sokat femlesz. Én is sokat...","0","femlem","[""femlem"",""femlek""]","","posttest trial","1",""
"html-button-response-clever","148","1157553","0.0-13.0-0.28","269","Te bizony sokat feténylesz. Én is sokat...","0","feténylek","[""feténylek"",""feténylem""]","","posttest trial","1",""
"html-button-response-clever","149","1158388","0.0-13.0-0.29","332","Te bizony sokat nyáslasz. Én is sokat...","0","nyáslom","[""nyáslom"",""nyáslok""]","","posttest trial","1",""
"html-button-response-clever","150","1159144","0.0-13.0-0.30","254","Te bizony sokat spatárzol. Én is sokat...","0","spatárzok","[""spatárzok"",""spatárzom""]","","posttest trial","1",""
"html-button-response-clever","151","1160455","0.0-13.0-0.31","809","Te bizony sokat klibamlasz. Én is sokat...","1","klibamlom","[""klibamlok"",""klibamlom""]","","posttest trial","1",""
"html-button-response-clever","152","1161377","0.0-13.0-0.32","420","Te bizony sokat fibamlasz. Én is sokat...","1","fibamlom","[""fibamlok"",""fibamlom""]","","posttest trial","1",""
"html-button-response-clever","153","1162093","0.0-13.0-0.33","212","Te bizony sokat sűzlesz. Én is sokat...","1","sűzlöm","[""sűzlök"",""sűzlöm""]","","posttest trial","1",""
"html-button-response-clever","154","1162993","0.0-13.0-0.34","399","Te bizony sokat vilakszol. Én is sokat...","1","vilakszom","[""vilakszok"",""vilakszom""]","","posttest trial","1",""
"html-button-response-clever","155","1163646","0.0-13.0-0.35","150","Te bizony sokat flűröklesz. Én is sokat...","1","flűröklök","[""flűröklöm"",""flűröklök""]","","posttest trial","1",""
"html-button-response-clever","156","1164290","0.0-13.0-0.36","141","Te bizony sokat tínylasz. Én is sokat...","1","tínylom","[""tínylok"",""tínylom""]","","posttest trial","1",""
"html-button-response-clever","157","1164940","0.0-13.0-0.37","147","Te bizony sokat flagárzol. Én is sokat...","1","flagárzok","[""flagárzom"",""flagárzok""]","","posttest trial","1",""
"html-button-response-clever","158","1165579","0.0-13.0-0.38","138","Te bizony sokat juszlasz. Én is sokat...","1","juszlom","[""juszlok"",""juszlom""]","","posttest trial","1",""
"html-button-response-clever","159","1166482","0.0-13.0-0.39","402","Te bizony sokat csíszlasz. Én is sokat...","1","csíszlom","[""csíszlok"",""csíszlom""]","","posttest trial","1",""
"html-button-response-clever","160","1167491","0.0-13.0-0.40","507","Te bizony sokat spűmlesz. Én is sokat...","0","spűmlök","[""spűmlök"",""spűmlöm""]","","posttest trial","1",""
"html-button-response-clever","161","1168196","0.0-13.0-0.41","200","Te bizony sokat brüjlesz. Én is sokat...","0","brüjlöm","[""brüjlöm"",""brüjlök""]","","posttest trial","1",""
"html-button-response-clever","162","1169181","0.0-13.0-0.42","483","Te bizony sokat fretszel. Én is sokat...","0","fretszek","[""fretszek"",""fretszem""]","","posttest trial","1",""
"html-button-response-clever","163","1169958","0.0-13.0-0.43","274","Te bizony sokat sprökszöl. Én is sokat...","0","sprökszök","[""sprökszök"",""sprökszöm""]","","posttest trial","1",""
"html-button-response-clever","164","1170836","0.0-13.0-0.44","376","Te bizony sokat jüslesz. Én is sokat...","0","jüslöm","[""jüslöm"",""jüslök""]","","posttest trial","1",""
"html-button-response-clever","165","1171568","0.0-13.0-0.45","229","Te bizony sokat pebzel. Én is sokat...","0","pebzem","[""pebzem"",""pebzek""]","","posttest trial","1",""
"html-button-response-clever","166","1172227","0.0-13.0-0.46","157","Te bizony sokat tomlasz. Én is sokat...","0","tomlom","[""tomlom"",""tomlok""]","","posttest trial","1",""
"html-button-response-clever","167","1172858","0.0-13.0-0.47","130","Te bizony sokat pivegszel. Én is sokat...","0","pivegszek","[""pivegszek"",""pivegszem""]","","posttest trial","1",""
"html-button-response-clever","168","1173486","0.0-13.0-0.48","125","Te bizony sokat böjzöl. Én is sokat...","0","böjzöm","[""böjzöm"",""böjzök""]","","posttest trial","1",""
"html-button-response-clever","169","1174622","0.0-13.0-0.49","633","Te bizony sokat piragszol. Én is sokat...","1","piragszom","[""piragszok"",""piragszom""]","","posttest trial","1",""
"html-button-response-clever","170","1175283","0.0-13.0-0.50","158","Te bizony sokat sztremlesz. Én is sokat...","1","sztremlek","[""sztremlem"",""sztremlek""]","","posttest trial","1",""
"html-button-response-clever","171","1176012","0.0-13.0-0.51","227","Te bizony sokat brágaklasz. Én is sokat...","1","brágaklok","[""brágaklom"",""brágaklok""]","","posttest trial","1",""
"html-button-response-clever","172","1176825","0.0-13.0-0.52","311","Te bizony sokat trilszol. Én is sokat...","1","trilszom","[""trilszok"",""trilszom""]","","posttest trial","1",""
"html-button-response-clever","173","1177619","0.0-13.0-0.53","292","Te bizony sokat spéslesz. Én is sokat...","1","spéslem","[""spéslek"",""spéslem""]","","posttest trial","1",""
"html-button-response","174","1182709","0.0-14.0","4586","<p> Vége a játéknak. A teljes pontszámod 28/54.</p><p> Szép munka! &#128526;&#128526;&#128526;</p><p>A Befejezés gomb megnyomása után bezárhatod a böngészőablakot.</p>","0","","","","","",""
"html-keyboard-response","175","1188214","0.0-15.0","null","<div class=""message"">
         <p>Egy kis türelmet kérünk, amíg elmentjük az adatokat...</p>
         </div>","null","","","","","",""
