"trial_type","trial_index","time_elapsed","internal_node_id","rt","stimulus","response","response_string","choices","esp_response","trial_kind","list_number","esp_match"
"pavlovia","0","910","0.0-0.0","","","","","","","","",""
"html-button-response","1","21484","0.0-1.0","20057","<p>Kedves Résztvevő! A Budapesti Műszaki és Gazdaságtudományi Egyetem Kognitív Tudományi Tanszékének kutatásában való részvételed kérjük. A kutatásban azt vizsgáljuk, hogy a magyar anyanyelvűek hogyan használnak bizonyos szóalakokat, és hogy milyen képük van arról, hogy mások hogyan használják, hogyan képzik a szavakat. Ez hozzásegít bennünket ahhoz, hogy jobban megértsük, hogyan dolgozza fel és tárolja a nyelvet az emberi agy, és hogyan működnek, hogyan változnak egy adott közösség nyelvi konvenciói.</p><p>A vizsgálat egy rövid számítógépes feladatból fog állni. A kutatásban való részvétel önkéntes, a részvételi szándék bármikor visszavonható. A résztvevők eredményeit név nélkül kezeljük, így nem beazonosíthatók az adatok feldolgozása során. Minden személyes adatot az EU általános adatvédelmi rendeletének (GDPR) megfelelően kezelünk és legfeljebb öt éven belül megsemmisítünk. A vizsgálat jellemzően húsz percet vesz igénybe.</p><p>Kutatásvezető:</p><p>Dr. Rácz Péter, tudományos munkatárs, BME KTT</p><p>e-mail: racz.peter.marton@ttk.bme.hu</p>","0","","","","","",""
"html-button-response","2","34620","0.0-2.0","12632","<p>A kísérletben szavakat fogsz látni. Ezek között lesznek olyanok, amelyeket ismersz, de előfordulhatnak olyanok is, amelyeket nem ismersz, sőt, vannak köztük kitalált szavak is. Minden szónál látni fogsz toldalékolt alakokat. A te feladatod az lesz, hogy minden szóhoz kiválaszd azt a toldalékolt alakot, amely a te számodra ismerősebben, természetesebben hangzik. Rossz válaszok nincsenek, mert van olyan, hogy különböző embereknek más és más szó tűnik jobb választásnak. A választ úgy tudod majd kiválasztani, ha rákattintasz.</p><p>Ebben a szóválasztós játékban egy másik játékossal együtt veszel majd részt. A másik játékos is minden esetben azok közül a lehetőségek közül válogathat, mint te. Kettőtök feladata az, hogy ugyanazt a lehetőséget válasszátok minden esetben. Ahhoz, hogy ez sikerüljön, neked figyelned kell arra, hogy a másik játékos milyen válaszokat ad, és ennek alapján meg kell tippelned, hogyan választ legközelebb. Ha eltalálod, akkor pontot kapsz.</p>","0","","","","","",""
"html-button-response","3","41025","0.0-3.0","5897","<p>Kérjük, olvasd el az alábbi nyilatkozatot, és amennyiben egyetértesz vele, nyomj a Beleegyezés gombra!</p><p>Kijelentem, hogy magyar anyanyelvű személyként önként veszek részt a BME KTT kísérletében. A kutatás céljával és folyamatával kapcsolatban elegendő tájékoztatást kaptam, lehetőségem volt kérdések feltételére, és esetleges kérdéseimre megfelelő válaszokat kaptam. A tájékoztatás alapján elegendő mennyiségű információ áll a rendelkezésemre, hogy eldönthessem, részt kívánok-e venni a kutatásban.</p><p>Tisztában vagyok vele, hogy részvételi szándékomat és adataimat bármikor, indoklás nélkül visszavonhatom.</p><p>Értem és tudomásul veszem, hogy a kutatás tudományos célokat szolgál, és az általam szolgáltatott adatokat a BME kizárólag kutatási célból használja fel. Tudomásul veszem, hogy eredményeimet a többi résztvevő eredményeivel együtt kezelik, így egyéni teljesítményemről visszajelzést, szakvéleményt nem kapok.</p><p>Megértettem, hogy adataim kezelését illetően a BME az EU általános adatvédelmi rendelete (GDPR), a hatályos adatvédelmi törvény és a nemzetközi kutatás-etikai alapelvek szerint jár el. Eredményeim anonim módon kerülnek feldolgozásra, és a kutatás résztvevői az azonosításomra alkalmas adataimat harmadik félnek nem szolgáltatják ki. Engedélyezem a BME számára a jelen kutatásban felvett adataim feldolgozását és tárolását, beleértve azok későbbi kutatásokhoz való felhasználását is. Személyes adataim kezelésével kapcsolatban tájékoztatást kérhetek a kutatás résztvevőitől, az adatkezelés ellen tiltakozhatok, kérhetem személyes adataim helyesbítését, törlését vagy zárolását, valamint jogorvoslatért a Nemzeti Adatvédelmi és Információszabadság Hatósághoz fordulhatok.</p><p>Kijelentem, hogy a kutatásban való részvételem körülményeiről részletes tájékoztatást kaptam, és a feltételeket elfogadom.</p>","0","","","","","",""
"survey-text","4","71255","0.0-4.0","29708","","{""Q0"":""BOKMWO"",""Q1"":"""",""Q2"":""1979"",""Q3"":""20""}","","","","","",""
"html-button-response","5","78108","0.0-5.0","6345","<p>Ebben a játékban szavakat kell toldalékolni.</p> <p>Minden körben mutatunk majd egy példamondatot, amiben lesz egy szó.</p> <p>Alatta jön egy második mondat, ezt a mondatot neked kell majd befejezni, ugyanezzel a szóval.</p> <p>Nem biztos, hogy a szó eleve ismerős lesz számodra!</p> <p>Minden mondathoz adunk két lehetőséget, ezeket balra és jobbra látod majd.</p> <p>A játék kb. negyedóráig-húsz percig tart.</p>","0","","","","","",""
"html-button-response","6","86482","0.0-6.0","7865","<p>Nézzünk egy példát!</p> <p>A példamondat: ""Ez itt egy blumbnyeg.""</p><p>Neked ezt a mondatot kell befejezned: ""Ott vagyunk a...""</p><p>A lehetőségek pedig ezek:</p>","0","","","","","",""
"html-button-response","7","91963","0.0-7.0","4975","<p>Nagyon jó.</p><p>Ezt a játékot nem egyedül fogod játszani, hanem egy másik játékossal.</p><p>Mielőtt továbblépünk, összekapcsolunk titeket egymással.</p><p>Ez igénybe vehet néhány másodpercet, amihez szíves türelmed kérjük.</p>","0","","","","","",""
"html-button-response","8","97695","0.0-8.0","null","<p>Csatlakozás a másik játékoshoz...</p>","null","","","","","",""
"html-button-response","9","100215","0.0-9.0","null","<p> Sikeres kapcsolódás!</p>","null","","","","","",""
"html-button-response","10","104642","0.0-10.0","3916","<p>A következőkben ketten játsszátok a szóválasztós játékot.</p><p>A feladatotok az lesz, hogy minden körben <b>ugyanazt</b> a szót válasszátok.</p><p>Minden ilyen egyező válaszért pontot kaptok.</p><p>Próbáld meg kitalálni, mit választ a másik játékos!</p><p>Bármikor választhatsz, a körnek akkor van vége, ha mindketten döntöttetek.</p><p>Sok sikert!</p>","0","","","","","",""
"html-button-response-esp","11","109465","0.0-11.0-0.0","4305","Ez itt egy surnegy. Nincs is jobb egy jó...","0","surnegynél","[""surnegynél"",""surnegynál""]","surnegynál","esp trial","5","false"
"html-button-response","12","112980","0.0-11.0-1.0","null","<p>A másik játékos ezt választotta: <b>surnegynál</b>.</p><p>&#10060;</p><p>A válaszaitok <b>nem</b> egyeznek meg.</p>","null","","","","feedback trial","",""
"html-button-response-esp","13","117187","0.0-11.0-0.1","3698","Ez itt egy klazér. Ott vagyunk a...","1","klazérban","[""klazérben"",""klazérban""]","klazérban","esp trial","5","true"
"html-button-response","14","120706","0.0-11.0-1.1","null","<p>A másik játékos ezt választotta: <b>klazérban</b>.</p><p>&#x2705;</p><p>A te válaszod és a másik játékos válasza <b>megegyeznek</b>.</p>","null","","","","feedback trial","",""
"html-button-response-esp","15","125382","0.0-11.0-0.2","4173","Ez itt egy fojlegy. Elneveztem a kutyámat...","0","fojlegynek","[""fojlegynek"",""fojlegynak""]","fojlegynek","esp trial","5","true"
"html-button-response","16","128891","0.0-11.0-1.2","null","<p>A másik játékos ezt választotta: <b>fojlegynek</b>.</p><p>&#x2705;</p><p>A te válaszod és a másik játékos válasza <b>megegyeznek</b>.</p>","null","","","","feedback trial","",""
"html-button-response-esp","17","137631","0.0-11.0-0.3","8234","Ez itt egy dóbem. Elneveztem a kutyámat...","0","dóbemnek","[""dóbemnek"",""dóbemnak""]","dóbemnak","esp trial","5","false"
"html-button-response","18","141146","0.0-11.0-1.3","null","<p>A másik játékos ezt választotta: <b>dóbemnak</b>.</p><p>&#10060;</p><p>A válaszaitok <b>nem</b> egyeznek meg.</p>","null","","","","feedback trial","",""
"html-button-response-esp","19","144907","0.0-11.0-0.4","3116","Ez itt egy zábény. Elneveztem a kutyámat...","1","zábénynak","[""zábénynek"",""zábénynak""]","zábénynak","esp trial","5","true"
"html-button-response","20","148436","0.0-11.0-1.4","null","<p>A másik játékos ezt választotta: <b>zábénynak</b>.</p><p>&#x2705;</p><p>A te válaszod és a másik játékos válasza <b>megegyeznek</b>.</p>","null","","","","feedback trial","",""
"html-button-response-esp","21","152229","0.0-11.0-0.5","3282","Ez itt egy csublény. Ott vagyunk a...","0","csublényban","[""csublényban"",""csublényben""]","csublényban","esp trial","5","true"
"html-button-response","22","155735","0.0-11.0-1.5","null","<p>A másik játékos ezt választotta: <b>csublényban</b>.</p><p>&#x2705;</p><p>A te válaszod és a másik játékos válasza <b>megegyeznek</b>.</p>","null","","","","feedback trial","",""
"html-button-response-esp","23","160861","0.0-11.0-0.6","4624","Ez itt egy szanéj. Elneveztem a kutyámat...","1","szanéjnak","[""szanéjnek"",""szanéjnak""]","szanéjnak","esp trial","5","true"
"html-button-response","24","164376","0.0-11.0-1.6","null","<p>A másik játékos ezt választotta: <b>szanéjnak</b>.</p><p>&#x2705;</p><p>A te válaszod és a másik játékos válasza <b>megegyeznek</b>.</p>","null","","","","feedback trial","",""
"html-button-response-esp","25","170283","0.0-11.0-0.7","5401","Ez itt egy dibez. Ott vagyunk a...","1","dibezben","[""dibezban"",""dibezben""]","dibezben","esp trial","5","true"
"html-button-response","26","173806","0.0-11.0-1.7","null","<p>A másik játékos ezt választotta: <b>dibezben</b>.</p><p>&#x2705;</p><p>A te válaszod és a másik játékos válasza <b>megegyeznek</b>.</p>","null","","","","feedback trial","",""
"html-button-response-esp","27","177567","0.0-11.0-0.8","2521","Ez itt egy trikép. Ott vagyunk a...","0","triképben","[""triképben"",""triképban""]","triképben","esp trial","5","true"
"html-button-response","28","181081","0.0-11.0-1.8","null","<p>A másik játékos ezt választotta: <b>triképben</b>.</p><p>&#x2705;</p><p>A te válaszod és a másik játékos válasza <b>megegyeznek</b>.</p>","null","","","","feedback trial","",""
"html-button-response-esp","29","185039","0.0-11.0-0.9","3452","Ez itt egy vurnel. Elneveztem a kutyámat...","0","vurnelnek","[""vurnelnek"",""vurnelnak""]","vurnelnak","esp trial","5","false"
"html-button-response","30","188546","0.0-11.0-1.9","null","<p>A másik játékos ezt választotta: <b>vurnelnak</b>.</p><p>&#10060;</p><p>A válaszaitok <b>nem</b> egyeznek meg.</p>","null","","","","feedback trial","",""
"html-button-response-esp","31","194000","0.0-11.0-0.10","4948","Ez itt egy dinelt. Ott vagyunk a...","0","dineltben","[""dineltben"",""dineltban""]","dineltben","esp trial","5","true"
"html-button-response","32","197521","0.0-11.0-1.10","null","<p>A másik játékos ezt választotta: <b>dineltben</b>.</p><p>&#x2705;</p><p>A te válaszod és a másik játékos válasza <b>megegyeznek</b>.</p>","null","","","","feedback trial","",""
"html-button-response-esp","33","201275","0.0-11.0-0.11","2866","Ez itt egy vodec. Nincs is jobb egy jó...","1","vodecnél","[""vodecnál"",""vodecnél""]","vodecnál","esp trial","5","false"
"html-button-response","34","204796","0.0-11.0-1.11","null","<p>A másik játékos ezt választotta: <b>vodecnál</b>.</p><p>&#10060;</p><p>A válaszaitok <b>nem</b> egyeznek meg.</p>","null","","","","feedback trial","",""
"html-button-response-esp","35","208556","0.0-11.0-0.12","2792","Ez itt egy kátéd. Nincs is jobb egy jó...","1","kátédnál","[""kátédnél"",""kátédnál""]","kátédnál","esp trial","5","true"
"html-button-response","36","212075","0.0-11.0-1.12","null","<p>A másik játékos ezt választotta: <b>kátédnál</b>.</p><p>&#x2705;</p><p>A te válaszod és a másik játékos válasza <b>megegyeznek</b>.</p>","null","","","","feedback trial","",""
"html-button-response-esp","37","215836","0.0-11.0-0.13","2783","Ez itt egy dunkész. Ott vagyunk a...","1","dunkészban","[""dunkészben"",""dunkészban""]","dunkészban","esp trial","5","true"
"html-button-response","38","219356","0.0-11.0-1.13","null","<p>A másik játékos ezt választotta: <b>dunkészban</b>.</p><p>&#x2705;</p><p>A te válaszod és a másik játékos válasza <b>megegyeznek</b>.</p>","null","","","","feedback trial","",""
"html-button-response-esp","39","223116","0.0-11.0-0.14","3169","Ez itt egy lihény. Elneveztem a kutyámat...","0","lihénynek","[""lihénynek"",""lihénynak""]","lihénynek","esp trial","5","true"
"html-button-response","40","226631","0.0-11.0-1.14","null","<p>A másik játékos ezt választotta: <b>lihénynek</b>.</p><p>&#x2705;</p><p>A te válaszod és a másik játékos válasza <b>megegyeznek</b>.</p>","null","","","","feedback trial","",""
"html-button-response-esp","41","232235","0.0-11.0-0.15","5099","Ez itt egy zuten. Nincs is jobb egy jó...","0","zutennél","[""zutennél"",""zutennál""]","zutennál","esp trial","5","false"
"html-button-response","42","235741","0.0-11.0-1.15","null","<p>A másik játékos ezt választotta: <b>zutennál</b>.</p><p>&#10060;</p><p>A válaszaitok <b>nem</b> egyeznek meg.</p>","null","","","","feedback trial","",""
"html-button-response-esp","43","239864","0.0-11.0-0.16","3617","Ez itt egy pazév. Nincs is jobb egy jó...","1","pazévnél","[""pazévnál"",""pazévnél""]","pazévnál","esp trial","5","false"
"html-button-response","44","243387","0.0-11.0-1.16","null","<p>A másik játékos ezt választotta: <b>pazévnál</b>.</p><p>&#10060;</p><p>A válaszaitok <b>nem</b> egyeznek meg.</p>","null","","","","feedback trial","",""
"html-button-response-esp","45","247729","0.0-11.0-0.17","3832","Ez itt egy spivél. Elneveztem a kutyámat...","1","spivélnek","[""spivélnak"",""spivélnek""]","spivélnak","esp trial","5","false"
"html-button-response","46","251247","0.0-11.0-1.17","null","<p>A másik játékos ezt választotta: <b>spivélnak</b>.</p><p>&#10060;</p><p>A válaszaitok <b>nem</b> egyeznek meg.</p>","null","","","","feedback trial","",""
"html-button-response-esp","47","255243","0.0-11.0-0.18","3486","Ez itt egy csodeg. Nincs is jobb egy jó...","0","csodegnél","[""csodegnél"",""csodegnál""]","csodegnál","esp trial","5","false"
"html-button-response","48","258762","0.0-11.0-1.18","null","<p>A másik játékos ezt választotta: <b>csodegnál</b>.</p><p>&#10060;</p><p>A válaszaitok <b>nem</b> egyeznek meg.</p>","null","","","","feedback trial","",""
"html-button-response-esp","49","263991","0.0-11.0-0.19","4724","Ez itt egy pristél. Ott vagyunk a...","1","pristélben","[""pristélban"",""pristélben""]","pristélben","esp trial","5","true"
"html-button-response","50","267496","0.0-11.0-1.19","null","<p>A másik játékos ezt választotta: <b>pristélben</b>.</p><p>&#x2705;</p><p>A te válaszod és a másik játékos válasza <b>megegyeznek</b>.</p>","null","","","","feedback trial","",""
"html-button-response-esp","51","271534","0.0-11.0-0.20","3527","Ez itt egy jurdent. Nincs is jobb egy jó...","1","jurdentnál","[""jurdentnél"",""jurdentnál""]","jurdentnál","esp trial","5","true"
"html-button-response","52","275042","0.0-11.0-1.20","null","<p>A másik játékos ezt választotta: <b>jurdentnál</b>.</p><p>&#x2705;</p><p>A te válaszod és a másik játékos válasza <b>megegyeznek</b>.</p>","null","","","","feedback trial","",""
"html-button-response-esp","53","278792","0.0-11.0-0.21","2756","Ez itt egy vismer. Nincs is jobb egy jó...","0","vismernél","[""vismernél"",""vismernál""]","vismernél","esp trial","5","true"
"html-button-response","54","282311","0.0-11.0-1.21","null","<p>A másik játékos ezt választotta: <b>vismernél</b>.</p><p>&#x2705;</p><p>A te válaszod és a másik játékos válasza <b>megegyeznek</b>.</p>","null","","","","feedback trial","",""
"html-button-response-esp","55","287137","0.0-11.0-0.22","4319","Ez itt egy humék. Elneveztem a kutyámat...","1","huméknek","[""huméknak"",""huméknek""]","huméknak","esp trial","5","false"
"html-button-response","56","290656","0.0-11.0-1.22","null","<p>A másik játékos ezt választotta: <b>huméknak</b>.</p><p>&#10060;</p><p>A válaszaitok <b>nem</b> egyeznek meg.</p>","null","","","","feedback trial","",""
"html-button-response-esp","57","294422","0.0-11.0-0.23","3264","Ez itt egy fizend. Ott vagyunk a...","0","fizendben","[""fizendben"",""fizendban""]","fizendben","esp trial","5","true"
"html-button-response","58","297936","0.0-11.0-1.23","null","<p>A másik játékos ezt választotta: <b>fizendben</b>.</p><p>&#x2705;</p><p>A te válaszod és a másik játékos válasza <b>megegyeznek</b>.</p>","null","","","","feedback trial","",""
"html-button-response-esp","59","301696","0.0-11.0-0.24","3174","Ez itt egy lijez. Elneveztem a kutyámat...","1","lijeznek","[""lijeznak"",""lijeznek""]","lijeznek","esp trial","5","true"
"html-button-response","60","305216","0.0-11.0-1.24","null","<p>A másik játékos ezt választotta: <b>lijeznek</b>.</p><p>&#x2705;</p><p>A te válaszod és a másik játékos válasza <b>megegyeznek</b>.</p>","null","","","","feedback trial","",""
"html-button-response-esp","61","309422","0.0-11.0-0.25","3695","Ez itt egy cságyelt. Ott vagyunk a...","1","cságyeltben","[""cságyeltban"",""cságyeltben""]","cságyeltban","esp trial","5","false"
"html-button-response","62","312936","0.0-11.0-1.25","null","<p>A másik játékos ezt választotta: <b>cságyeltban</b>.</p><p>&#10060;</p><p>A válaszaitok <b>nem</b> egyeznek meg.</p>","null","","","","feedback trial","",""
"html-button-response-esp","63","317251","0.0-11.0-0.26","3804","Ez itt egy trodély. Ott vagyunk a...","1","trodélyban","[""trodélyben"",""trodélyban""]","trodélyban","esp trial","5","true"
"html-button-response","64","320776","0.0-11.0-1.26","null","<p>A másik játékos ezt választotta: <b>trodélyban</b>.</p><p>&#x2705;</p><p>A te válaszod és a másik játékos válasza <b>megegyeznek</b>.</p>","null","","","","feedback trial","",""
"html-button-response-esp","65","324532","0.0-11.0-0.27","2791","Ez itt egy szibed. Ott vagyunk a...","0","szibedben","[""szibedben"",""szibedban""]","szibedben","esp trial","5","true"
"html-button-response","66","328038","0.0-11.0-1.27","null","<p>A másik játékos ezt választotta: <b>szibedben</b>.</p><p>&#x2705;</p><p>A te válaszod és a másik játékos válasza <b>megegyeznek</b>.</p>","null","","","","feedback trial","",""
"html-button-response-esp","67","332287","0.0-11.0-0.28","3744","Ez itt egy hosét. Elneveztem a kutyámat...","1","hosétnak","[""hosétnek"",""hosétnak""]","hosétnak","esp trial","5","true"
"html-button-response","68","335806","0.0-11.0-1.28","null","<p>A másik játékos ezt választotta: <b>hosétnak</b>.</p><p>&#x2705;</p><p>A te válaszod és a másik játékos válasza <b>megegyeznek</b>.</p>","null","","","","feedback trial","",""
"html-button-response-esp","69","339566","0.0-11.0-0.29","3197","Ez itt egy dutec. Nincs is jobb egy jó...","0","dutecnél","[""dutecnél"",""dutecnál""]","dutecnál","esp trial","5","false"
"html-button-response","70","343082","0.0-11.0-1.29","null","<p>A másik játékos ezt választotta: <b>dutecnál</b>.</p><p>&#10060;</p><p>A válaszaitok <b>nem</b> egyeznek meg.</p>","null","","","","feedback trial","",""
"html-button-response-esp","71","347249","0.0-11.0-0.30","3662","Ez itt egy spizec. Elneveztem a kutyámat...","0","spizecnek","[""spizecnek"",""spizecnak""]","spizecnek","esp trial","5","true"
"html-button-response","72","350776","0.0-11.0-1.30","null","<p>A másik játékos ezt választotta: <b>spizecnek</b>.</p><p>&#x2705;</p><p>A te válaszod és a másik játékos válasza <b>megegyeznek</b>.</p>","null","","","","feedback trial","",""
"html-button-response-esp","73","354786","0.0-11.0-0.31","3499","Ez itt egy tivenc. Ott vagyunk a...","1","tivencben","[""tivencban"",""tivencben""]","tivencban","esp trial","5","false"
"html-button-response","74","358306","0.0-11.0-1.31","null","<p>A másik játékos ezt választotta: <b>tivencban</b>.</p><p>&#10060;</p><p>A válaszaitok <b>nem</b> egyeznek meg.</p>","null","","","","feedback trial","",""
"html-button-response-esp","75","362057","0.0-11.0-0.32","2761","Ez itt egy zarcég. Nincs is jobb egy jó...","1","zarcégnál","[""zarcégnél"",""zarcégnál""]","zarcégnál","esp trial","5","true"
"html-button-response","76","365571","0.0-11.0-1.32","null","<p>A másik játékos ezt választotta: <b>zarcégnál</b>.</p><p>&#x2705;</p><p>A te válaszod és a másik játékos válasza <b>megegyeznek</b>.</p>","null","","","","feedback trial","",""
"html-button-response-esp","77","369327","0.0-11.0-0.33","2842","Ez itt egy tarhéz. Ott vagyunk a...","1","tarhézban","[""tarhézben"",""tarhézban""]","tarhézban","esp trial","5","true"
"html-button-response","78","372846","0.0-11.0-1.33","null","<p>A másik játékos ezt választotta: <b>tarhézban</b>.</p><p>&#x2705;</p><p>A te válaszod és a másik játékos válasza <b>megegyeznek</b>.</p>","null","","","","feedback trial","",""
"html-button-response-esp","79","376606","0.0-11.0-0.34","3164","Ez itt egy spatel. Elneveztem a kutyámat...","0","spatelnek","[""spatelnek"",""spatelnak""]","spatelnak","esp trial","5","false"
"html-button-response","80","380126","0.0-11.0-1.34","null","<p>A másik játékos ezt választotta: <b>spatelnak</b>.</p><p>&#10060;</p><p>A válaszaitok <b>nem</b> egyeznek meg.</p>","null","","","","feedback trial","",""
"html-button-response-esp","81","384070","0.0-11.0-0.35","3433","Ez itt egy zined. Elneveztem a kutyámat...","1","zinednek","[""zinednak"",""zinednek""]","zinednek","esp trial","5","true"
"html-button-response","82","387576","0.0-11.0-1.35","null","<p>A másik játékos ezt választotta: <b>zinednek</b>.</p><p>&#x2705;</p><p>A te válaszod és a másik játékos válasza <b>megegyeznek</b>.</p>","null","","","","feedback trial","",""
"html-button-response-esp","83","391336","0.0-11.0-0.36","3047","Ez itt egy fágyép. Nincs is jobb egy jó...","1","fágyépnál","[""fágyépnél"",""fágyépnál""]","fágyépnál","esp trial","5","true"
"html-button-response","84","394856","0.0-11.0-1.36","null","<p>A másik játékos ezt választotta: <b>fágyépnál</b>.</p><p>&#x2705;</p><p>A te válaszod és a másik játékos válasza <b>megegyeznek</b>.</p>","null","","","","feedback trial","",""
"html-button-response-esp","85","398615","0.0-11.0-0.37","3209","Ez itt egy nuhét. Nincs is jobb egy jó...","1","nuhétnál","[""nuhétnél"",""nuhétnál""]","nuhétnál","esp trial","5","true"
"html-button-response","86","402136","0.0-11.0-1.37","null","<p>A másik játékos ezt választotta: <b>nuhétnál</b>.</p><p>&#x2705;</p><p>A te válaszod és a másik játékos válasza <b>megegyeznek</b>.</p>","null","","","","feedback trial","",""
"html-button-response-esp","87","406155","0.0-11.0-0.38","3509","Ez itt egy klítegy. Nincs is jobb egy jó...","0","klítegynél","[""klítegynél"",""klítegynál""]","klítegynál","esp trial","5","false"
"html-button-response","88","409666","0.0-11.0-1.38","null","<p>A másik játékos ezt választotta: <b>klítegynál</b>.</p><p>&#10060;</p><p>A válaszaitok <b>nem</b> egyeznek meg.</p>","null","","","","feedback trial","",""
"html-button-response-esp","89","414442","0.0-11.0-0.39","4265","Ez itt egy dajrens. Nincs is jobb egy jó...","0","dajrensnél","[""dajrensnél"",""dajrensnál""]","dajrensnál","esp trial","5","false"
"html-button-response","90","417956","0.0-11.0-1.39","null","<p>A másik játékos ezt választotta: <b>dajrensnál</b>.</p><p>&#10060;</p><p>A válaszaitok <b>nem</b> egyeznek meg.</p>","null","","","","feedback trial","",""
"html-button-response-esp","91","421978","0.0-11.0-0.40","3511","Ez itt egy zsalrén. Elneveztem a kutyámat...","1","zsalrénnak","[""zsalrénnek"",""zsalrénnak""]","zsalrénnak","esp trial","5","true"
"html-button-response","92","425496","0.0-11.0-1.40","null","<p>A másik játékos ezt választotta: <b>zsalrénnak</b>.</p><p>&#x2705;</p><p>A te válaszod és a másik játékos válasza <b>megegyeznek</b>.</p>","null","","","","feedback trial","",""
"html-button-response-esp","93","429266","0.0-11.0-0.41","2549","Ez itt egy klajrén. Elneveztem a kutyámat...","1","klajrénnak","[""klajrénnek"",""klajrénnak""]","klajrénnak","esp trial","5","true"
"html-button-response","94","432786","0.0-11.0-1.41","null","<p>A másik játékos ezt választotta: <b>klajrénnak</b>.</p><p>&#x2705;</p><p>A te válaszod és a másik játékos válasza <b>megegyeznek</b>.</p>","null","","","","feedback trial","",""
"html-button-response-esp","95","437107","0.0-11.0-0.42","3811","Ez itt egy fupét. Nincs is jobb egy jó...","0","fupétnál","[""fupétnál"",""fupétnél""]","fupétnál","esp trial","5","true"
"html-button-response","96","440626","0.0-11.0-1.42","null","<p>A másik játékos ezt választotta: <b>fupétnál</b>.</p><p>&#x2705;</p><p>A te válaszod és a másik játékos válasza <b>megegyeznek</b>.</p>","null","","","","feedback trial","",""
"html-button-response-esp","97","445095","0.0-11.0-0.43","3959","Ez itt egy mádép. Nincs is jobb egy jó...","0","mádépnál","[""mádépnál"",""mádépnél""]","mádépnál","esp trial","5","true"
"html-button-response","98","448606","0.0-11.0-1.43","null","<p>A másik játékos ezt választotta: <b>mádépnál</b>.</p><p>&#x2705;</p><p>A te válaszod és a másik játékos válasza <b>megegyeznek</b>.</p>","null","","","","feedback trial","",""
"html-button-response-esp","99","454917","0.0-11.0-0.44","5800","Ez itt egy lingék. Nincs is jobb egy jó...","1","lingéknél","[""lingéknál"",""lingéknél""]","lingéknél","esp trial","5","true"
"html-button-response","100","458435","0.0-11.0-1.44","null","<p>A másik játékos ezt választotta: <b>lingéknél</b>.</p><p>&#x2705;</p><p>A te válaszod és a másik játékos válasza <b>megegyeznek</b>.</p>","null","","","","feedback trial","",""
"html-button-response-esp","101","462495","0.0-11.0-0.45","3548","Ez itt egy briskéd. Nincs is jobb egy jó...","1","briskédnél","[""briskédnál"",""briskédnél""]","briskédnál","esp trial","5","false"
"html-button-response","102","466016","0.0-11.0-1.45","null","<p>A másik játékos ezt választotta: <b>briskédnál</b>.</p><p>&#10060;</p><p>A válaszaitok <b>nem</b> egyeznek meg.</p>","null","","","","feedback trial","",""
"html-button-response-esp","103","469775","0.0-11.0-0.46","3000","Ez itt egy hijegy. Nincs is jobb egy jó...","1","hijegynél","[""hijegynál"",""hijegynél""]","hijegynél","esp trial","5","true"
"html-button-response","104","473296","0.0-11.0-1.46","null","<p>A másik játékos ezt választotta: <b>hijegynél</b>.</p><p>&#x2705;</p><p>A te válaszod és a másik játékos válasza <b>megegyeznek</b>.</p>","null","","","","feedback trial","",""
"html-button-response-esp","105","477796","0.0-11.0-0.47","3990","Ez itt egy tumély. Nincs is jobb egy jó...","0","tumélynál","[""tumélynál"",""tumélynél""]","tumélynál","esp trial","5","true"
"html-button-response","106","481311","0.0-11.0-1.47","null","<p>A másik játékos ezt választotta: <b>tumélynál</b>.</p><p>&#x2705;</p><p>A te válaszod és a másik játékos válasza <b>megegyeznek</b>.</p>","null","","","","feedback trial","",""
"html-button-response-esp","107","485374","0.0-11.0-0.48","3558","Ez itt egy gábéd. Nincs is jobb egy jó...","0","gábédnál","[""gábédnál"",""gábédnél""]","gábédnál","esp trial","5","true"
"html-button-response","108","488886","0.0-11.0-1.48","null","<p>A másik játékos ezt választotta: <b>gábédnál</b>.</p><p>&#x2705;</p><p>A te válaszod és a másik játékos válasza <b>megegyeznek</b>.</p>","null","","","","feedback trial","",""
"html-button-response-esp","109","494796","0.0-11.0-0.49","5399","Ez itt egy murdes. Nincs is jobb egy jó...","0","murdesnél","[""murdesnél"",""murdesnál""]","murdesnál","esp trial","5","false"
"html-button-response","110","498316","0.0-11.0-1.49","null","<p>A másik játékos ezt választotta: <b>murdesnál</b>.</p><p>&#10060;</p><p>A válaszaitok <b>nem</b> egyeznek meg.</p>","null","","","","feedback trial","",""
"html-button-response-esp","111","502077","0.0-11.0-0.50","2924","Ez itt egy bingéj. Elneveztem a kutyámat...","1","bingéjnek","[""bingéjnak"",""bingéjnek""]","bingéjnak","esp trial","5","false"
"html-button-response","112","505596","0.0-11.0-1.50","null","<p>A másik játékos ezt választotta: <b>bingéjnak</b>.</p><p>&#10060;</p><p>A válaszaitok <b>nem</b> egyeznek meg.</p>","null","","","","feedback trial","",""
"html-button-response-esp","113","510068","0.0-11.0-0.51","3961","Ez itt egy jutély. Nincs is jobb egy jó...","1","jutélynál","[""jutélynél"",""jutélynál""]","jutélynál","esp trial","5","true"
"html-button-response","114","513586","0.0-11.0-1.51","null","<p>A másik játékos ezt választotta: <b>jutélynál</b>.</p><p>&#x2705;</p><p>A te válaszod és a másik játékos válasza <b>megegyeznek</b>.</p>","null","","","","feedback trial","",""
"html-button-response-esp","115","517336","0.0-11.0-0.52","2882","Ez itt egy sihen. Nincs is jobb egy jó...","0","sihennél","[""sihennél"",""sihennál""]","sihennél","esp trial","5","true"
"html-button-response","116","520857","0.0-11.0-1.52","null","<p>A másik játékos ezt választotta: <b>sihennél</b>.</p><p>&#x2705;</p><p>A te válaszod és a másik játékos válasza <b>megegyeznek</b>.</p>","null","","","","feedback trial","",""
"html-button-response-esp","117","524616","0.0-11.0-0.53","3114","Ez itt egy zatéj. Nincs is jobb egy jó...","1","zatéjnál","[""zatéjnél"",""zatéjnál""]","zatéjnál","esp trial","5","true"
"html-button-response","118","528129","0.0-11.0-1.53","null","<p>A másik játékos ezt választotta: <b>zatéjnál</b>.</p><p>&#x2705;</p><p>A te válaszod és a másik játékos válasza <b>megegyeznek</b>.</p>","null","","","","feedback trial","",""
"html-button-response","119","533700","0.0-12.0","5063","<p>A közös játék most véget ért.</p><p>Mielőtt eláruljuk a végső pontszámodat, arra kérlek, játszd a szóválasztós játékot néhány percig egyedül is.</p><p>A feladatod ugyanaz lesz, választani két lehetőség közül.</p><p>Most viszont egyedül kell döntened, hogy te melyiket választanád.</p>","0","","","","","",""
"html-button-response-clever","120","537089","0.0-13.0-0.0","2870","Ez itt egy nidét. Ott vagyunk a...","1","nidétben","[""nidétban"",""nidétben""]","","posttest trial","8",""
"html-button-response-clever","121","540914","0.0-13.0-0.1","3314","Ez itt egy vodép. Elneveztem a kutyámat...","1","vodépnek","[""vodépnak"",""vodépnek""]","","posttest trial","8",""
"html-button-response-clever","122","543872","0.0-13.0-0.2","2448","Ez itt egy navec. Ott vagyunk a...","0","navecben","[""navecben"",""navecban""]","","posttest trial","8",""
"html-button-response-clever","123","547039","0.0-13.0-0.3","2655","Ez itt egy trigenc. Elneveztem a kutyámat...","1","trigencnek","[""trigencnak"",""trigencnek""]","","posttest trial","8",""
"html-button-response-clever","124","550161","0.0-13.0-0.4","2613","Ez itt egy bródesz. Elneveztem a kutyámat...","1","bródesznek","[""bródesznak"",""bródesznek""]","","posttest trial","8",""
"html-button-response-clever","125","553529","0.0-13.0-0.5","2861","Ez itt egy nyarcéj. Elneveztem a kutyámat...","0","nyarcéjnak","[""nyarcéjnak"",""nyarcéjnek""]","","posttest trial","8",""
"html-button-response-clever","126","560457","0.0-13.0-0.6","6418","Ez itt egy hóbens. Ott vagyunk a...","0","hóbensben","[""hóbensben"",""hóbensban""]","","posttest trial","8",""
"html-button-response-clever","127","564483","0.0-13.0-0.7","3514","Ez itt egy fádens. Elneveztem a kutyámat...","0","fádensnek","[""fádensnek"",""fádensnak""]","","posttest trial","8",""
"html-button-response-clever","128","567010","0.0-13.0-0.8","2022","Ez itt egy licegy. Ott vagyunk a...","1","licegyben","[""licegyban"",""licegyben""]","","posttest trial","8",""
"html-button-response-clever","129","570486","0.0-13.0-0.9","2958","Ez itt egy sprízem. Nincs is jobb egy jó...","0","sprízemnél","[""sprízemnél"",""sprízemnál""]","","posttest trial","8",""
"html-button-response-clever","130","572828","0.0-13.0-0.10","1830","Ez itt egy spáten. Elneveztem a kutyámat...","1","spátennek","[""spátennak"",""spátennek""]","","posttest trial","8",""
"html-button-response-clever","131","577083","0.0-13.0-0.11","3749","Ez itt egy forzéd. Elneveztem a kutyámat...","1","forzédnak","[""forzédnek"",""forzédnak""]","","posttest trial","8",""
"html-button-response-clever","132","581017","0.0-13.0-0.12","3423","Ez itt egy brotes. Ott vagyunk a...","0","brotesben","[""brotesben"",""brotesban""]","","posttest trial","8",""
"html-button-response-clever","133","585091","0.0-13.0-0.13","3563","Ez itt egy sporzem. Elneveztem a kutyámat...","1","sporzemnek","[""sporzemnak"",""sporzemnek""]","","posttest trial","8",""
"html-button-response-clever","134","587542","0.0-13.0-0.14","1943","Ez itt egy jorzég. Elneveztem a kutyámat...","1","jorzégnak","[""jorzégnek"",""jorzégnak""]","","posttest trial","8",""
"html-button-response-clever","135","591961","0.0-13.0-0.15","3913","Ez itt egy gicéj. Nincs is jobb egy jó...","0","gicéjnál","[""gicéjnál"",""gicéjnél""]","","posttest trial","8",""
"html-button-response-clever","136","595279","0.0-13.0-0.16","2810","Ez itt egy csartény. Elneveztem a kutyámat...","1","csarténynak","[""csarténynek"",""csarténynak""]","","posttest trial","8",""
"html-button-response-clever","137","598039","0.0-13.0-0.17","2250","Ez itt egy jalrény. Nincs is jobb egy jó...","1","jalrénynál","[""jalrénynél"",""jalrénynál""]","","posttest trial","8",""
"html-button-response-clever","138","602085","0.0-13.0-0.18","3538","Ez itt egy dingec. Elneveztem a kutyámat...","0","dingecnek","[""dingecnek"",""dingecnak""]","","posttest trial","8",""
"html-button-response-clever","139","605116","0.0-13.0-0.19","2516","Ez itt egy priszkenc. Elneveztem a kutyámat...","1","priszkencnek","[""priszkencnak"",""priszkencnek""]","","posttest trial","8",""
"html-button-response-clever","140","607716","0.0-13.0-0.20","2087","Ez itt egy zsopéd. Ott vagyunk a...","0","zsopédban","[""zsopédban"",""zsopédben""]","","posttest trial","8",""
"html-button-response-clever","141","610745","0.0-13.0-0.21","2527","Ez itt egy júder. Elneveztem a kutyámat...","1","júdernek","[""júdernak"",""júdernek""]","","posttest trial","8",""
"html-button-response-clever","142","612470","0.0-13.0-0.22","1213","Ez itt egy giheszt. Elneveztem a kutyámat...","1","gihesztnak","[""gihesztnek"",""gihesztnak""]","","posttest trial","8",""
"html-button-response-clever","143","615458","0.0-13.0-0.23","2470","Ez itt egy matéz. Ott vagyunk a...","1","matézban","[""matézben"",""matézban""]","","posttest trial","8",""
"html-button-response-clever","144","617908","0.0-13.0-0.24","1940","Ez itt egy kadér. Nincs is jobb egy jó...","0","kadérnál","[""kadérnál"",""kadérnél""]","","posttest trial","8",""
"html-button-response-clever","145","620702","0.0-13.0-0.25","2284","Ez itt egy hivép. Ott vagyunk a...","0","hivépben","[""hivépben"",""hivépban""]","","posttest trial","8",""
"html-button-response-clever","146","623825","0.0-13.0-0.26","2617","Ez itt egy ronvet. Elneveztem a kutyámat...","1","ronvetnek","[""ronvetnak"",""ronvetnek""]","","posttest trial","8",""
"html-button-response-clever","147","626612","0.0-13.0-0.27","2274","Ez itt egy nyábét. Ott vagyunk a...","0","nyábétban","[""nyábétban"",""nyábétben""]","","posttest trial","8",""
"html-button-response-clever","148","629513","0.0-13.0-0.28","2395","Ez itt egy buhény. Ott vagyunk a...","0","buhényban","[""buhényban"",""buhényben""]","","posttest trial","8",""
"html-button-response-clever","149","632306","0.0-13.0-0.29","2289","Ez itt egy sartely. Ott vagyunk a...","0","sartelyban","[""sartelyban"",""sartelyben""]","","posttest trial","8",""
"html-button-response-clever","150","634392","0.0-13.0-0.30","1575","Ez itt egy szihét. Elneveztem a kutyámat...","0","szihétnek","[""szihétnek"",""szihétnak""]","","posttest trial","8",""
"html-button-response-clever","151","636248","0.0-13.0-0.31","1340","Ez itt egy bidem. Ott vagyunk a...","0","bidemben","[""bidemben"",""bidemban""]","","posttest trial","8",""
"html-button-response-clever","152","639808","0.0-13.0-0.32","3051","Ez itt egy trincseg. Ott vagyunk a...","1","trincsegben","[""trincsegban"",""trincsegben""]","","posttest trial","8",""
"html-button-response-clever","153","642688","0.0-13.0-0.33","2370","Ez itt egy lismév. Ott vagyunk a...","0","lismévben","[""lismévben"",""lismévban""]","","posttest trial","8",""
"html-button-response-clever","154","645202","0.0-13.0-0.34","2004","Ez itt egy fincek. Nincs is jobb egy jó...","0","finceknél","[""finceknél"",""finceknál""]","","posttest trial","8",""
"html-button-response-clever","155","647774","0.0-13.0-0.35","2055","Ez itt egy kluhéj. Nincs is jobb egy jó...","0","kluhéjnél","[""kluhéjnél"",""kluhéjnál""]","","posttest trial","8",""
"html-button-response-clever","156","649830","0.0-13.0-0.36","1552","Ez itt egy vublet. Nincs is jobb egy jó...","0","vubletnél","[""vubletnél"",""vubletnál""]","","posttest trial","8",""
"html-button-response-clever","157","652180","0.0-13.0-0.37","1837","Ez itt egy trapszegy. Nincs is jobb egy jó...","1","trapszegynél","[""trapszegynál"",""trapszegynél""]","","posttest trial","8",""
"html-button-response-clever","158","655310","0.0-13.0-0.38","2627","Ez itt egy csinték. Ott vagyunk a...","0","csintékben","[""csintékben"",""csintékban""]","","posttest trial","8",""
"html-button-response-clever","159","657989","0.0-13.0-0.39","2171","Ez itt egy gótem. Elneveztem a kutyámat...","0","gótemnek","[""gótemnek"",""gótemnak""]","","posttest trial","8",""
"html-button-response-clever","160","659902","0.0-13.0-0.40","1409","Ez itt egy jábéz. Ott vagyunk a...","0","jábézban","[""jábézban"",""jábézben""]","","posttest trial","8",""
"html-button-response-clever","161","661621","0.0-13.0-0.41","1214","Ez itt egy tranék. Ott vagyunk a...","0","tranékban","[""tranékban"",""tranékben""]","","posttest trial","8",""
"html-button-response-clever","162","663949","0.0-13.0-0.42","1811","Ez itt egy ikszert. Ott vagyunk a...","1","ikszertben","[""ikszertban"",""ikszertben""]","","posttest trial","8",""
"html-button-response-clever","163","666178","0.0-13.0-0.43","1720","Ez itt egy prately. Elneveztem a kutyámat...","0","pratelynek","[""pratelynek"",""pratelynak""]","","posttest trial","8",""
"html-button-response-clever","164","670878","0.0-13.0-0.44","4189","Ez itt egy csimen. Nincs is jobb egy jó...","0","csimennél","[""csimennél"",""csimennál""]","","posttest trial","8",""
"html-button-response-clever","165","672941","0.0-13.0-0.45","1553","Ez itt egy kábesz. Nincs is jobb egy jó...","0","kábesznél","[""kábesznél"",""kábesznál""]","","posttest trial","8",""
"html-button-response-clever","166","675528","0.0-13.0-0.46","2080","Ez itt egy brigeszt. Elneveztem a kutyámat...","0","brigesztnek","[""brigesztnek"",""brigesztnak""]","","posttest trial","8",""
"html-button-response-clever","167","678335","0.0-13.0-0.47","2297","Ez itt egy kliszer. Nincs is jobb egy jó...","0","kliszernál","[""kliszernál"",""kliszernél""]","","posttest trial","8",""
"html-button-response-clever","168","682777","0.0-13.0-0.48","3938","Ez itt egy brágéd. Elneveztem a kutyámat...","0","brágédnak","[""brágédnak"",""brágédnek""]","","posttest trial","8",""
"html-button-response-clever","169","684296","0.0-13.0-0.49","1012","Ez itt egy szutend. Ott vagyunk a...","0","szutendben","[""szutendben"",""szutendban""]","","posttest trial","8",""
"html-button-response-clever","170","685419","0.0-13.0-0.50","616","Ez itt egy brukész. Nincs is jobb egy jó...","1","brukésznál","[""brukésznél"",""brukésznál""]","","posttest trial","8",""
"html-button-response-clever","171","686366","0.0-13.0-0.51","438","Ez itt egy tránély. Elneveztem a kutyámat...","1","tránélynek","[""tránélynak"",""tránélynek""]","","posttest trial","8",""
"html-button-response-clever","172","687340","0.0-13.0-0.52","471","Ez itt egy gonszék. Nincs is jobb egy jó...","0","gonszéknál","[""gonszéknál"",""gonszéknél""]","","posttest trial","8",""
"html-button-response-clever","173","688249","0.0-13.0-0.53","406","Ez itt egy klordény. Elneveztem a kutyámat...","1","klordénynek","[""klordénynak"",""klordénynek""]","","posttest trial","8",""
"html-button-response","174","692297","0.0-14.0","3539","<p> Vége a játéknak. A teljes pontszámod 36/54.</p><p> Szép munka! &#128526;&#128526;&#128526;</p><p>A Befejezés gomb megnyomása után bezárhatod a böngészőablakot.</p>","0","","","","","",""
"html-keyboard-response","175","697807","0.0-15.0","null","<div class=""message"">
         <p>Egy kis türelmet kérünk, amíg elmentjük az adatokat...</p>
         </div>","null","","","","","",""
