"trial_type","trial_index","time_elapsed","internal_node_id","rt","stimulus","response","response_string","choices","esp_response","trial_kind","list_number","esp_match"
"pavlovia","0","600","0.0-0.0","","","","","","","","",""
"html-button-response","1","50460","0.0-1.0","49356","<p>Kedves Résztvevő! A Budapesti Műszaki és Gazdaságtudományi Egyetem Kognitív Tudományi Tanszékének kutatásában való részvételed kérjük. A kutatásban azt vizsgáljuk, hogy a magyar anyanyelvűek hogyan használnak bizonyos szóalakokat, és hogy milyen képük van arról, hogy mások hogyan használják, hogyan képzik a szavakat. Ez hozzásegít bennünket ahhoz, hogy jobban megértsük, hogyan dolgozza fel és tárolja a nyelvet az emberi agy, és hogyan működnek, hogyan változnak egy adott közösség nyelvi konvenciói.</p><p>A vizsgálat egy rövid számítógépes feladatból fog állni. A kutatásban való részvétel önkéntes, a részvételi szándék bármikor visszavonható. A résztvevők eredményeit név nélkül kezeljük, így nem beazonosíthatók az adatok feldolgozása során. Minden személyes adatot az EU általános adatvédelmi rendeletének (GDPR) megfelelően kezelünk és legfeljebb öt éven belül megsemmisítünk. A vizsgálat jellemzően húsz percet vesz igénybe.</p><p>Kutatásvezető:</p><p>Dr. Rácz Péter, tudományos munkatárs, BME KTT</p><p>e-mail: racz.peter.marton@ttk.bme.hu</p>","0","","","","","",""
"html-button-response","2","106218","0.0-2.0","55250","<p>A kísérletben szavakat fogsz látni. Ezek között lesznek olyanok, amelyeket ismersz, de előfordulhatnak olyanok is, amelyeket nem ismersz, sőt, vannak köztük kitalált szavak is. Minden szónál látni fogsz toldalékolt alakokat. A te feladatod az lesz, hogy minden szóhoz kiválaszd azt a toldalékolt alakot, amely a te számodra ismerősebben, természetesebben hangzik. Rossz válaszok nincsenek, mert van olyan, hogy különböző embereknek más és más szó tűnik jobb választásnak. A választ úgy tudod majd kiválasztani, ha rákattintasz.</p><p>Ebben a szóválasztós játékban egy másik játékossal együtt veszel majd részt. A másik játékos is minden esetben azok közül a lehetőségek közül válogathat, mint te. Kettőtök feladata az, hogy ugyanazt a lehetőséget válasszátok minden esetben. Ahhoz, hogy ez sikerüljön, neked figyelned kell arra, hogy a másik játékos milyen válaszokat ad, és ennek alapján meg kell tippelned, hogyan választ legközelebb. Ha eltalálod, akkor pontot kapsz.</p>","0","","","","","",""
"html-button-response","3","186330","0.0-3.0","79607","<p>Kérjük, olvasd el az alábbi nyilatkozatot, és amennyiben egyetértesz vele, nyomj a Beleegyezés gombra!</p><p>Kijelentem, hogy magyar anyanyelvű személyként önként veszek részt a BME KTT kísérletében. A kutatás céljával és folyamatával kapcsolatban elegendő tájékoztatást kaptam, lehetőségem volt kérdések feltételére, és esetleges kérdéseimre megfelelő válaszokat kaptam. A tájékoztatás alapján elegendő mennyiségű információ áll a rendelkezésemre, hogy eldönthessem, részt kívánok-e venni a kutatásban.</p><p>Tisztában vagyok vele, hogy részvételi szándékomat és adataimat bármikor, indoklás nélkül visszavonhatom.</p><p>Értem és tudomásul veszem, hogy a kutatás tudományos célokat szolgál, és az általam szolgáltatott adatokat a BME kizárólag kutatási célból használja fel. Tudomásul veszem, hogy eredményeimet a többi résztvevő eredményeivel együtt kezelik, így egyéni teljesítményemről visszajelzést, szakvéleményt nem kapok.</p><p>Megértettem, hogy adataim kezelését illetően a BME az EU általános adatvédelmi rendelete (GDPR), a hatályos adatvédelmi törvény és a nemzetközi kutatás-etikai alapelvek szerint jár el. Eredményeim anonim módon kerülnek feldolgozásra, és a kutatás résztvevői az azonosításomra alkalmas adataimat harmadik félnek nem szolgáltatják ki. Engedélyezem a BME számára a jelen kutatásban felvett adataim feldolgozását és tárolását, beleértve azok későbbi kutatásokhoz való felhasználását is. Személyes adataim kezelésével kapcsolatban tájékoztatást kérhetek a kutatás résztvevőitől, az adatkezelés ellen tiltakozhatok, kérhetem személyes adataim helyesbítését, törlését vagy zárolását, valamint jogorvoslatért a Nemzeti Adatvédelmi és Információszabadság Hatósághoz fordulhatok.</p><p>Kijelentem, hogy a kutatásban való részvételem körülményeiről részletes tájékoztatást kaptam, és a feltételeket elfogadom.</p>","0","","","","","",""
"survey-text","4","235339","0.0-4.0","48501","","{""Q0"":""BY64VC"",""Q1"":""férfi"",""Q2"":""1999"",""Q3"":""17""}","","","","","",""
"html-button-response","5","253635","0.0-5.0","17788","<p>Ebben a játékban szavakat kell toldalékolni.</p> <p>Minden körben mutatunk majd egy példamondatot, amiben lesz egy szó.</p> <p>Alatta jön egy második mondat, ezt a mondatot neked kell majd befejezni, ugyanezzel a szóval.</p> <p>Nem biztos, hogy a szó eleve ismerős lesz számodra!</p> <p>Minden mondathoz adunk két lehetőséget, ezeket balra és jobbra látod majd.</p> <p>A játék kb. negyedóráig-húsz percig tart.</p>","0","","","","","",""
"html-button-response","6","283954","0.0-6.0","29811","<p>Nézzünk egy példát!</p> <p>A példamondat: ""János imád fláramolni, ezért sokat fláramlik.""</p><p>Neked ezt a mondatot kell befejezned: ""Ti ritkán...""</p><p>A lehetőségek pedig ezek:</p>","0","","","","","",""
"html-button-response","7","292706","0.0-7.0","8248","<p>Nagyon jó.</p><p>Ezt a játékot nem egyedül fogod játszani, hanem egy másik játékossal.</p><p>Mielőtt továbblépünk, összekapcsolunk titeket egymással.</p><p>Ez igénybe vehet néhány másodpercet, amihez szíves türelmed kérjük.</p>","0","","","","","",""
"html-button-response","8","298439","0.0-8.0","null","<p>Csatlakozás a másik játékoshoz...</p>","null","","","","","",""
"html-button-response","9","300959","0.0-9.0","null","<p> Sikeres kapcsolódás!</p>","null","","","","","",""
"html-button-response","10","311468","0.0-10.0","null","<p>A következőkben ketten játsszátok a szóválasztós játékot.</p><p>A feladatotok az lesz, hogy minden körben <b>ugyanazt</b> a szót válasszátok.</p><p>Minden ilyen egyező válaszért pontot kaptok.</p><p>Próbáld meg kitalálni, mit választ a másik játékos!</p><p>Bármikor választhatsz, a körnek akkor van vége, ha mindketten döntöttetek.</p><p>Sok sikert!</p>","null","","","","","",""
"html-button-response-esp","11","321014","0.0-11.0-0.0","5654","János imád hiragozni, ezért sokat hiragzik. Ők ritkán...","0","hiragoznak","[""hiragoznak"",""hiragzanak""]","hiragzanak","esp trial","1","false"
"html-button-response","12","324526","0.0-11.0-1.0","null","<p>A másik játékos ezt választotta: <b>hiragzanak</b>.</p><p>&#10060;</p><p>A válaszaitok <b>nem</b> egyeznek meg.</p>","null","","","","feedback trial","",""
"html-button-response-esp","13","334063","0.0-11.0-0.1","6437","János imád prugorozni, ezért sokat prugorzik. Ti ritkán...","1","prugorzotok","[""prugoroztok"",""prugorzotok""]","prugoroztok","esp trial","1","false"
"html-button-response","14","337573","0.0-11.0-1.1","null","<p>A másik játékos ezt választotta: <b>prugoroztok</b>.</p><p>&#10060;</p><p>A válaszaitok <b>nem</b> egyeznek meg.</p>","null","","","","feedback trial","",""
"html-button-response-esp","15","347128","0.0-11.0-0.2","7283","János imád klégezni, ezért sokat kléglik. Mi ritkán...","0","klégezünk","[""klégezünk"",""kléglünk""]","kléglünk","esp trial","1","false"
"html-button-response","16","350638","0.0-11.0-1.2","null","<p>A másik játékos ezt választotta: <b>kléglünk</b>.</p><p>&#10060;</p><p>A válaszaitok <b>nem</b> egyeznek meg.</p>","null","","","","feedback trial","",""
"html-button-response-esp","17","360184","0.0-11.0-0.3","1938","János imád plibozni, ezért sokat plibzik. Ti ritkán...","0","pliboztok","[""pliboztok"",""plibzotok""]","pliboztok","esp trial","1","true"
"html-button-response","18","363684","0.0-11.0-1.3","null","<p>A másik játékos ezt választotta: <b>pliboztok</b>.</p><p>&#x2705;</p><p>A te válaszod és a másik játékos válasza <b>megegyeznek</b>.</p>","null","","","","feedback trial","",""
"html-button-response-esp","19","373224","0.0-11.0-0.4","4224","János imád géregezni, ezért sokat géreglik. Ti ritkán...","1","géregeztek","[""géregletek"",""géregeztek""]","géregeztek","esp trial","1","true"
"html-button-response","20","376743","0.0-11.0-1.4","null","<p>A másik játékos ezt választotta: <b>géregeztek</b>.</p><p>&#x2705;</p><p>A te válaszod és a másik játékos válasza <b>megegyeznek</b>.</p>","null","","","","feedback trial","",""
"html-button-response-esp","21","386283","0.0-11.0-0.5","5701","János imád flerékedni, ezért sokat flerékszik. Mi ritkán...","0","flerékszünk","[""flerékszünk"",""flerékedünk""]","flerékszünk","esp trial","1","true"
"html-button-response","22","389806","0.0-11.0-1.5","null","<p>A másik játékos ezt választotta: <b>flerékszünk</b>.</p><p>&#x2705;</p><p>A te válaszod és a másik játékos válasza <b>megegyeznek</b>.</p>","null","","","","feedback trial","",""
"html-button-response-esp","23","399349","0.0-11.0-0.6","3705","János imád nivározni, ezért sokat nivárzik. Ti ritkán...","1","nivárzotok","[""nivároztok"",""nivárzotok""]","nivároztok","esp trial","1","false"
"html-button-response","24","402862","0.0-11.0-1.6","null","<p>A másik játékos ezt választotta: <b>nivároztok</b>.</p><p>&#10060;</p><p>A válaszaitok <b>nem</b> egyeznek meg.</p>","null","","","","feedback trial","",""
"html-button-response-esp","25","412414","0.0-11.0-0.7","3514","János imád bügözni, ezért sokat bügzik. Ők ritkán...","0","bügöznek","[""bügöznek"",""bügzenek""]","bügzenek","esp trial","1","false"
"html-button-response","26","415924","0.0-11.0-1.7","null","<p>A másik játékos ezt választotta: <b>bügzenek</b>.</p><p>&#10060;</p><p>A válaszaitok <b>nem</b> egyeznek meg.</p>","null","","","","feedback trial","",""
"html-button-response-esp","27","425459","0.0-11.0-0.8","4270","János imád vilesezni, ezért sokat vileslik. Mi ritkán...","0","vileslünk","[""vileslünk"",""vilesezünk""]","vileslünk","esp trial","1","true"
"html-button-response","28","428983","0.0-11.0-1.8","null","<p>A másik játékos ezt választotta: <b>vileslünk</b>.</p><p>&#x2705;</p><p>A te válaszod és a másik játékos válasza <b>megegyeznek</b>.</p>","null","","","","feedback trial","",""
"html-button-response-esp","29","438539","0.0-11.0-0.9","7587","János imád bresezni, ezért sokat breslik. Ők ritkán...","0","breslenek","[""breslenek"",""breseznek""]","breslenek","esp trial","1","true"
"html-button-response","30","442060","0.0-11.0-1.9","null","<p>A másik játékos ezt választotta: <b>breslenek</b>.</p><p>&#x2705;</p><p>A te válaszod és a másik játékos válasza <b>megegyeznek</b>.</p>","null","","","","feedback trial","",""
"html-button-response-esp","31","451615","0.0-11.0-0.10","6103","János imád prihegedni, ezért sokat prihegszik. Ők ritkán...","1","prihegednek","[""prihegszenek"",""prihegednek""]","prihegszenek","esp trial","1","false"
"html-button-response","32","455140","0.0-11.0-1.10","null","<p>A másik játékos ezt választotta: <b>prihegszenek</b>.</p><p>&#10060;</p><p>A válaszaitok <b>nem</b> egyeznek meg.</p>","null","","","","feedback trial","",""
"html-button-response-esp","33","464698","0.0-11.0-0.11","6261","János imád klűmözni, ezért sokat klűmlik. Ti ritkán...","1","klűmöztök","[""klűmlötök"",""klűmöztök""]","klűmöztök","esp trial","1","true"
"html-button-response","34","468224","0.0-11.0-1.11","null","<p>A másik játékos ezt választotta: <b>klűmöztök</b>.</p><p>&#x2705;</p><p>A te válaszod és a másik játékos válasza <b>megegyeznek</b>.</p>","null","","","","feedback trial","",""
"html-button-response-esp","35","477768","0.0-11.0-0.12","6779","János imád sprebezni, ezért sokat sprebzik. Ők ritkán...","1","sprebeznek","[""sprebzenek"",""sprebeznek""]","sprebzenek","esp trial","1","false"
"html-button-response","36","481273","0.0-11.0-1.12","null","<p>A másik játékos ezt választotta: <b>sprebzenek</b>.</p><p>&#10060;</p><p>A válaszaitok <b>nem</b> egyeznek meg.</p>","null","","","","feedback trial","",""
"html-button-response-esp","37","490818","0.0-11.0-0.13","6229","János imád döjözni, ezért sokat döjlik. Ők ritkán...","1","döjlenek","[""döjöznek"",""döjlenek""]","döjlenek","esp trial","1","true"
"html-button-response","38","494338","0.0-11.0-1.13","null","<p>A másik játékos ezt választotta: <b>döjlenek</b>.</p><p>&#x2705;</p><p>A te válaszod és a másik játékos válasza <b>megegyeznek</b>.</p>","null","","","","feedback trial","",""
"html-button-response-esp","39","503889","0.0-11.0-0.14","5705","János imád flátozni, ezért sokat flátlik. Ti ritkán...","0","flátlotok","[""flátlotok"",""flátoztok""]","flátoztok","esp trial","1","false"
"html-button-response","40","507404","0.0-11.0-1.14","null","<p>A másik játékos ezt választotta: <b>flátoztok</b>.</p><p>&#10060;</p><p>A válaszaitok <b>nem</b> egyeznek meg.</p>","null","","","","feedback trial","",""
"html-button-response-esp","41","516953","0.0-11.0-0.15","7924","János imád nyizozni, ezért sokat nyizlik. Mi ritkán...","0","nyizlunk","[""nyizlunk"",""nyizozunk""]","nyizlunk","esp trial","1","true"
"html-button-response","42","520460","0.0-11.0-1.15","null","<p>A másik játékos ezt választotta: <b>nyizlunk</b>.</p><p>&#x2705;</p><p>A te válaszod és a másik játékos válasza <b>megegyeznek</b>.</p>","null","","","","feedback trial","",""
"html-button-response-esp","43","530008","0.0-11.0-0.16","5948","János imád frirozni, ezért sokat frirzik. Mi ritkán...","1","frirzunk","[""frirozunk"",""frirzunk""]","frirozunk","esp trial","1","false"
"html-button-response","44","533523","0.0-11.0-1.16","null","<p>A másik játékos ezt választotta: <b>frirozunk</b>.</p><p>&#10060;</p><p>A válaszaitok <b>nem</b> egyeznek meg.</p>","null","","","","feedback trial","",""
"html-button-response-esp","45","543064","0.0-11.0-0.17","6138","János imád vehékedni, ezért sokat vehékszik. Mi ritkán...","0","vehékszünk","[""vehékszünk"",""vehékedünk""]","vehékszünk","esp trial","1","true"
"html-button-response","46","546583","0.0-11.0-1.17","null","<p>A másik játékos ezt választotta: <b>vehékszünk</b>.</p><p>&#x2705;</p><p>A te válaszod és a másik játékos válasza <b>megegyeznek</b>.</p>","null","","","","feedback trial","",""
"html-button-response-esp","47","556132","0.0-11.0-0.18","4321","János imád játozni, ezért sokat játlik. Mi ritkán...","0","játlunk","[""játlunk"",""játozunk""]","játlunk","esp trial","1","true"
"html-button-response","48","559646","0.0-11.0-1.18","null","<p>A másik játékos ezt választotta: <b>játlunk</b>.</p><p>&#x2705;</p><p>A te válaszod és a másik játékos válasza <b>megegyeznek</b>.</p>","null","","","","feedback trial","",""
"html-button-response-esp","49","569199","0.0-11.0-0.19","5467","János imád flugonyozni, ezért sokat flugonylik. Ők ritkán...","1","flugonyoznak","[""flugonylanak"",""flugonyoznak""]","flugonylanak","esp trial","1","false"
"html-button-response","50","572712","0.0-11.0-1.19","null","<p>A másik játékos ezt választotta: <b>flugonylanak</b>.</p><p>&#10060;</p><p>A válaszaitok <b>nem</b> egyeznek meg.</p>","null","","","","feedback trial","",""
"html-button-response-esp","51","583346","0.0-11.0-0.20","10122","János imád ribegedni, ezért sokat ribegszik. Ti ritkán...","1","ribegszetek","[""ribegedtek"",""ribegszetek""]","ribegedtek","esp trial","1","false"
"html-button-response","52","586864","0.0-11.0-1.20","null","<p>A másik játékos ezt választotta: <b>ribegedtek</b>.</p><p>&#10060;</p><p>A válaszaitok <b>nem</b> egyeznek meg.</p>","null","","","","feedback trial","",""
"html-button-response-esp","53","596409","0.0-11.0-0.21","7330","János imád spuborozni, ezért sokat spuborzik. Ők ritkán...","1","spuboroznak","[""spuborzanak"",""spuboroznak""]","spuboroznak","esp trial","1","true"
"html-button-response","54","599936","0.0-11.0-1.21","null","<p>A másik játékos ezt választotta: <b>spuboroznak</b>.</p><p>&#x2705;</p><p>A te válaszod és a másik játékos válasza <b>megegyeznek</b>.</p>","null","","","","feedback trial","",""
"html-button-response-esp","55","609478","0.0-11.0-0.22","5836","János imád brűközni, ezért sokat brűklik. Ti ritkán...","1","brűköztök","[""brűklötök"",""brűköztök""]","brűklötök","esp trial","1","false"
"html-button-response","56","612993","0.0-11.0-1.22","null","<p>A másik játékos ezt választotta: <b>brűklötök</b>.</p><p>&#10060;</p><p>A válaszaitok <b>nem</b> egyeznek meg.</p>","null","","","","feedback trial","",""
"html-button-response-esp","57","622541","0.0-11.0-0.23","4313","János imád trukodni, ezért sokat trukszik. Ti ritkán...","1","trukszotok","[""trukodtok"",""trukszotok""]","trukszotok","esp trial","1","true"
"html-button-response","58","626053","0.0-11.0-1.23","null","<p>A másik játékos ezt választotta: <b>trukszotok</b>.</p><p>&#x2705;</p><p>A te válaszod és a másik játékos válasza <b>megegyeznek</b>.</p>","null","","","","feedback trial","",""
"html-button-response-esp","59","635607","0.0-11.0-0.24","7269","János imád bejezni, ezért sokat bejzik. Mi ritkán...","0","bejzünk","[""bejzünk"",""bejezünk""]","bejzünk","esp trial","1","true"
"html-button-response","60","639122","0.0-11.0-1.24","null","<p>A másik játékos ezt választotta: <b>bejzünk</b>.</p><p>&#x2705;</p><p>A te válaszod és a másik játékos válasza <b>megegyeznek</b>.</p>","null","","","","feedback trial","",""
"html-button-response-esp","61","652834","0.0-11.0-0.25","13212","János imád trálakozni, ezért sokat trálaklik. Ők ritkán...","0","trálakoznak","[""trálakoznak"",""trálaklanak""]","trálaklanak","esp trial","1","false"
"html-button-response","62","656352","0.0-11.0-1.25","null","<p>A másik játékos ezt választotta: <b>trálaklanak</b>.</p><p>&#10060;</p><p>A válaszaitok <b>nem</b> egyeznek meg.</p>","null","","","","feedback trial","",""
"html-button-response-esp","63","665896","0.0-11.0-0.26","7596","János imád nyülöközni, ezért sokat nyülöklik. Ők ritkán...","1","nyülöklenek","[""nyülököznek"",""nyülöklenek""]","nyülöklenek","esp trial","1","true"
"html-button-response","64","669412","0.0-11.0-1.26","null","<p>A másik játékos ezt választotta: <b>nyülöklenek</b>.</p><p>&#x2705;</p><p>A te válaszod és a másik játékos válasza <b>megegyeznek</b>.</p>","null","","","","feedback trial","",""
"html-button-response-esp","65","678958","0.0-11.0-0.27","4462","János imád gihamozni, ezért sokat gihamlik. Ők ritkán...","1","gihamlanak","[""gihamoznak"",""gihamlanak""]","gihamlanak","esp trial","1","true"
"html-button-response","66","682468","0.0-11.0-1.27","null","<p>A másik játékos ezt választotta: <b>gihamlanak</b>.</p><p>&#x2705;</p><p>A te válaszod és a másik játékos válasza <b>megegyeznek</b>.</p>","null","","","","feedback trial","",""
"html-button-response-esp","67","692020","0.0-11.0-0.28","5941","János imád tögözni, ezért sokat töglik. Ők ritkán...","1","töglenek","[""tögöznek"",""töglenek""]","töglenek","esp trial","1","true"
"html-button-response","68","695534","0.0-11.0-1.28","null","<p>A másik játékos ezt választotta: <b>töglenek</b>.</p><p>&#x2705;</p><p>A te válaszod és a másik játékos válasza <b>megegyeznek</b>.</p>","null","","","","feedback trial","",""
"html-button-response-esp","69","705079","0.0-11.0-0.29","7698","János imád frorozni, ezért sokat frorlik. Ők ritkán...","1","froroznak","[""frorlanak"",""froroznak""]","frorlanak","esp trial","1","false"
"html-button-response","70","708599","0.0-11.0-1.29","null","<p>A másik játékos ezt választotta: <b>frorlanak</b>.</p><p>&#10060;</p><p>A válaszaitok <b>nem</b> egyeznek meg.</p>","null","","","","feedback trial","",""
"html-button-response-esp","71","718133","0.0-11.0-0.30","5795","János imád spivejezni, ezért sokat spivejlik. Ők ritkán...","1","spivejeznek","[""spivejlenek"",""spivejeznek""]","spivejeznek","esp trial","1","true"
"html-button-response","72","721654","0.0-11.0-1.30","null","<p>A másik játékos ezt választotta: <b>spivejeznek</b>.</p><p>&#x2705;</p><p>A te válaszod és a másik játékos válasza <b>megegyeznek</b>.</p>","null","","","","feedback trial","",""
"html-button-response-esp","73","731197","0.0-11.0-0.31","4926","János imád hubonyozni, ezért sokat hubonylik. Ti ritkán...","0","hubonylotok","[""hubonylotok"",""hubonyoztok""]","hubonyoztok","esp trial","1","false"
"html-button-response","74","734714","0.0-11.0-1.31","null","<p>A másik játékos ezt választotta: <b>hubonyoztok</b>.</p><p>&#10060;</p><p>A válaszaitok <b>nem</b> egyeznek meg.</p>","null","","","","feedback trial","",""
"html-button-response-esp","75","745346","0.0-11.0-0.32","10120","János imád brürözni, ezért sokat brürzik. Ők ritkán...","0","brürzenek","[""brürzenek"",""brüröznek""]","brürzenek","esp trial","1","true"
"html-button-response","76","748864","0.0-11.0-1.32","null","<p>A másik játékos ezt választotta: <b>brürzenek</b>.</p><p>&#x2705;</p><p>A te válaszod és a másik játékos válasza <b>megegyeznek</b>.</p>","null","","","","feedback trial","",""
"html-button-response-esp","77","758414","0.0-11.0-0.33","9011","János imád nyádozni, ezért sokat nyádlik. Ők ritkán...","0","nyádoznak","[""nyádoznak"",""nyádlanak""]","nyádlanak","esp trial","1","false"
"html-button-response","78","761936","0.0-11.0-1.33","null","<p>A másik játékos ezt választotta: <b>nyádlanak</b>.</p><p>&#10060;</p><p>A válaszaitok <b>nem</b> egyeznek meg.</p>","null","","","","feedback trial","",""
"html-button-response-esp","79","772210","0.0-11.0-0.34","9762","János imád bötőrözni, ezért sokat bötőrzik. Mi ritkán...","1","bötőrözünk","[""bötőrzünk"",""bötőrözünk""]","bötőrzünk","esp trial","1","false"
"html-button-response","80","775728","0.0-11.0-1.34","null","<p>A másik játékos ezt választotta: <b>bötőrzünk</b>.</p><p>&#10060;</p><p>A válaszaitok <b>nem</b> egyeznek meg.</p>","null","","","","feedback trial","",""
"html-button-response-esp","81","787514","0.0-11.0-0.35","11286","János imád trálodni, ezért sokat trálszik. Mi ritkán...","0","trálodunk","[""trálodunk"",""trálszunk""]","trálszunk","esp trial","1","false"
"html-button-response","82","791023","0.0-11.0-1.35","null","<p>A másik játékos ezt választotta: <b>trálszunk</b>.</p><p>&#10060;</p><p>A válaszaitok <b>nem</b> egyeznek meg.</p>","null","","","","feedback trial","",""
"html-button-response-esp","83","800564","0.0-11.0-0.36","4473","János imád bribékedni, ezért sokat bribékszik. Ti ritkán...","0","bribékszetek","[""bribékszetek"",""bribékedtek""]","bribékszetek","esp trial","1","true"
"html-button-response","84","804079","0.0-11.0-1.36","null","<p>A másik játékos ezt választotta: <b>bribékszetek</b>.</p><p>&#x2705;</p><p>A te válaszod és a másik játékos válasza <b>megegyeznek</b>.</p>","null","","","","feedback trial","",""
"html-button-response-esp","85","813628","0.0-11.0-0.37","4259","János imád frinyozni, ezért sokat frinylik. Mi ritkán...","1","frinylunk","[""frinyozunk"",""frinylunk""]","frinylunk","esp trial","1","true"
"html-button-response","86","817148","0.0-11.0-1.37","null","<p>A másik játékos ezt választotta: <b>frinylunk</b>.</p><p>&#x2705;</p><p>A te válaszod és a másik játékos válasza <b>megegyeznek</b>.</p>","null","","","","feedback trial","",""
"html-button-response-esp","87","826693","0.0-11.0-0.38","7353","János imád dibágozni, ezért sokat dibáglik. Ti ritkán...","0","dibáglotok","[""dibáglotok"",""dibágoztok""]","dibáglotok","esp trial","1","true"
"html-button-response","88","830218","0.0-11.0-1.38","null","<p>A másik játékos ezt választotta: <b>dibáglotok</b>.</p><p>&#x2705;</p><p>A te válaszod és a másik játékos válasza <b>megegyeznek</b>.</p>","null","","","","feedback trial","",""
"html-button-response-esp","89","839755","0.0-11.0-0.39","4971","János imád frélegezni, ezért sokat frélegzik. Mi ritkán...","1","frélegzünk","[""frélegezünk"",""frélegzünk""]","frélegzünk","esp trial","1","true"
"html-button-response","90","843278","0.0-11.0-1.39","null","<p>A másik játékos ezt választotta: <b>frélegzünk</b>.</p><p>&#x2705;</p><p>A te válaszod és a másik játékos válasza <b>megegyeznek</b>.</p>","null","","","","feedback trial","",""
"html-button-response-esp","91","854274","0.0-11.0-0.40","10485","János imád kláragodni, ezért sokat kláragszik. Ti ritkán...","1","kláragodtok","[""kláragszotok"",""kláragodtok""]","kláragszotok","esp trial","1","false"
"html-button-response","92","857793","0.0-11.0-1.40","null","<p>A másik játékos ezt választotta: <b>kláragszotok</b>.</p><p>&#10060;</p><p>A válaszaitok <b>nem</b> egyeznek meg.</p>","null","","","","feedback trial","",""
"html-button-response-esp","93","867348","0.0-11.0-0.41","5142","János imád flodozni, ezért sokat flodlik. Ti ritkán...","1","flodoztok","[""flodlotok"",""flodoztok""]","flodoztok","esp trial","1","true"
"html-button-response","94","870864","0.0-11.0-1.41","null","<p>A másik játékos ezt választotta: <b>flodoztok</b>.</p><p>&#x2705;</p><p>A te válaszod és a másik játékos válasza <b>megegyeznek</b>.</p>","null","","","","feedback trial","",""
"html-button-response-esp","95","880408","0.0-11.0-0.42","4890","János imád nyöbözni, ezért sokat nyöbzik. Ők ritkán...","0","nyöbzenek","[""nyöbzenek"",""nyöböznek""]","nyöbzenek","esp trial","1","true"
"html-button-response","96","883927","0.0-11.0-1.42","null","<p>A másik játékos ezt választotta: <b>nyöbzenek</b>.</p><p>&#x2705;</p><p>A te válaszod és a másik játékos válasza <b>megegyeznek</b>.</p>","null","","","","feedback trial","",""
"html-button-response-esp","97","893469","0.0-11.0-0.43","8007","János imád trilekedni, ezért sokat trilekszik. Ti ritkán...","0","trilekedtek","[""trilekedtek"",""trilekszetek""]","trilekszetek","esp trial","1","false"
"html-button-response","98","896989","0.0-11.0-1.43","null","<p>A másik játékos ezt választotta: <b>trilekszetek</b>.</p><p>&#10060;</p><p>A válaszaitok <b>nem</b> egyeznek meg.</p>","null","","","","feedback trial","",""
"html-button-response-esp","99","906533","0.0-11.0-0.44","4420","János imád pibegezni, ezért sokat pibegzik. Ők ritkán...","0","pibegzenek","[""pibegzenek"",""pibegeznek""]","pibegeznek","esp trial","1","false"
"html-button-response","100","910059","0.0-11.0-1.44","null","<p>A másik játékos ezt választotta: <b>pibegeznek</b>.</p><p>&#10060;</p><p>A válaszaitok <b>nem</b> egyeznek meg.</p>","null","","","","feedback trial","",""
"html-button-response-esp","101","919603","0.0-11.0-0.45","6581","János imád dralágozni, ezért sokat dralágzik. Mi ritkán...","1","dralágzunk","[""dralágozunk"",""dralágzunk""]","dralágzunk","esp trial","1","true"
"html-button-response","102","923108","0.0-11.0-1.45","null","<p>A másik játékos ezt választotta: <b>dralágzunk</b>.</p><p>&#x2705;</p><p>A te válaszod és a másik játékos válasza <b>megegyeznek</b>.</p>","null","","","","feedback trial","",""
"html-button-response-esp","103","932653","0.0-11.0-0.46","6173","János imád sztredezni, ezért sokat sztredlik. Ti ritkán...","0","sztredeztek","[""sztredeztek"",""sztredletek""]","sztredletek","esp trial","1","false"
"html-button-response","104","936168","0.0-11.0-1.46","null","<p>A másik játékos ezt választotta: <b>sztredletek</b>.</p><p>&#10060;</p><p>A válaszaitok <b>nem</b> egyeznek meg.</p>","null","","","","feedback trial","",""
"html-button-response-esp","105","949642","0.0-11.0-0.47","12964","János imád metégedni, ezért sokat metégszik. Ők ritkán...","0","metégszenek","[""metégszenek"",""metégednek""]","metégszenek","esp trial","1","true"
"html-button-response","106","953156","0.0-11.0-1.47","null","<p>A másik játékos ezt választotta: <b>metégszenek</b>.</p><p>&#x2705;</p><p>A te válaszod és a másik játékos válasza <b>megegyeznek</b>.</p>","null","","","","feedback trial","",""
"html-button-response-esp","107","962713","0.0-11.0-0.48","8429","János imád nurokozni, ezért sokat nuroklik. Mi ritkán...","0","nurokozunk","[""nurokozunk"",""nuroklunk""]","nuroklunk","esp trial","1","false"
"html-button-response","108","966215","0.0-11.0-1.48","null","<p>A másik játékos ezt választotta: <b>nuroklunk</b>.</p><p>&#10060;</p><p>A válaszaitok <b>nem</b> egyeznek meg.</p>","null","","","","feedback trial","",""
"html-button-response-esp","109","977010","0.0-11.0-0.49","10291","János imád jurozni, ezért sokat jurlik. Mi ritkán...","0","jurozunk","[""jurozunk"",""jurlunk""]","jurlunk","esp trial","1","false"
"html-button-response","110","980523","0.0-11.0-1.49","null","<p>A másik játékos ezt választotta: <b>jurlunk</b>.</p><p>&#10060;</p><p>A válaszaitok <b>nem</b> egyeznek meg.</p>","null","","","","feedback trial","",""
"html-button-response-esp","111","990058","0.0-11.0-0.50","7418","János imád sűjözni, ezért sokat sűjlik. Mi ritkán...","1","sűjlünk","[""sűjözünk"",""sűjlünk""]","sűjlünk","esp trial","1","true"
"html-button-response","112","993579","0.0-11.0-1.50","null","<p>A másik játékos ezt választotta: <b>sűjlünk</b>.</p><p>&#x2705;</p><p>A te válaszod és a másik játékos válasza <b>megegyeznek</b>.</p>","null","","","","feedback trial","",""
"html-button-response-esp","113","1003117","0.0-11.0-0.51","5302","János imád vihapodni, ezért sokat vihapszik. Mi ritkán...","1","vihapszunk","[""vihapodunk"",""vihapszunk""]","vihapszunk","esp trial","1","true"
"html-button-response","114","1006642","0.0-11.0-1.51","null","<p>A másik játékos ezt választotta: <b>vihapszunk</b>.</p><p>&#x2705;</p><p>A te válaszod és a másik játékos válasza <b>megegyeznek</b>.</p>","null","","","","feedback trial","",""
"html-button-response-esp","115","1016195","0.0-11.0-0.52","5564","János imád bribasozni, ezért sokat bribaslik. Ők ritkán...","1","bribasoznak","[""bribaslanak"",""bribasoznak""]","bribasoznak","esp trial","1","true"
"html-button-response","116","1019711","0.0-11.0-1.52","null","<p>A másik játékos ezt választotta: <b>bribasoznak</b>.</p><p>&#x2705;</p><p>A te válaszod és a másik játékos válasza <b>megegyeznek</b>.</p>","null","","","","feedback trial","",""
"html-button-response-esp","117","1029259","0.0-11.0-0.53","8539","János imád klihasozni, ezért sokat klihaslik. Ti ritkán...","0","klihaslotok","[""klihaslotok"",""klihasoztok""]","klihasoztok","esp trial","1","false"
"html-button-response","118","1032783","0.0-11.0-1.53","null","<p>A másik játékos ezt választotta: <b>klihasoztok</b>.</p><p>&#10060;</p><p>A válaszaitok <b>nem</b> egyeznek meg.</p>","null","","","","feedback trial","",""
"html-button-response","119","1044282","0.0-12.0","10990","<p>A közös játék most véget ért.</p><p>Mielőtt eláruljuk a végső pontszámodat, arra kérlek, játszd a szóválasztós játékot néhány percig egyedül is.</p><p>A feladatod ugyanaz lesz, választani két lehetőség közül.</p><p>Most viszont egyedül kell döntened, hogy te melyiket választanád.</p>","0","","","","","",""
"html-button-response-clever","120","1050250","0.0-13.0-0.0","5459","János imád drűrözni, ezért sokat drűrzik. Ők ritkán...","0","drűrzenek","[""drűrzenek"",""drűröznek""]","","posttest trial","4",""
"html-button-response-clever","121","1055938","0.0-13.0-0.1","5179","János imád brivakozni, ezért sokat brivaklik. Ti ritkán...","1","brivakoztok","[""brivaklotok"",""brivakoztok""]","","posttest trial","4",""
"html-button-response-clever","122","1060386","0.0-13.0-0.2","3947","János imád molodni, ezért sokat molszik. Ti ritkán...","0","molodtok","[""molodtok"",""molszotok""]","","posttest trial","4",""
"html-button-response-clever","123","1065162","0.0-13.0-0.3","4269","János imád virozni, ezért sokat virzik. Ők ritkán...","0","virzanak","[""virzanak"",""viroznak""]","","posttest trial","4",""
"html-button-response-clever","124","1069537","0.0-13.0-0.4","3874","János imád trugozni, ezért sokat trugzik. Ők ritkán...","0","trugoznak","[""trugoznak"",""trugzanak""]","","posttest trial","4",""
"html-button-response-clever","125","1074482","0.0-13.0-0.5","4442","János imád dujozni, ezért sokat dujzik. Ők ritkán...","1","dujzanak","[""dujoznak"",""dujzanak""]","","posttest trial","4",""
"html-button-response-clever","126","1081146","0.0-13.0-0.6","6157","János imád frálasozni, ezért sokat frálaslik. Ők ritkán...","1","frálasoznak","[""frálaslanak"",""frálasoznak""]","","posttest trial","4",""
"html-button-response-clever","127","1089194","0.0-13.0-0.7","7536","János imád gyihegezni, ezért sokat gyihegzik. Ti ritkán...","1","gyihegzetek","[""gyihegeztek"",""gyihegzetek""]","","posttest trial","4",""
"html-button-response-clever","128","1094810","0.0-13.0-0.8","5109","János imád gihejezni, ezért sokat gihejlik. Mi ritkán...","1","gihejlünk","[""gihejezünk"",""gihejlünk""]","","posttest trial","4",""
"html-button-response-clever","129","1100418","0.0-13.0-0.9","5099","János imád sprudozni, ezért sokat sprudlik. Mi ritkán...","0","sprudozunk","[""sprudozunk"",""sprudlunk""]","","posttest trial","4",""
"html-button-response-clever","130","1107722","0.0-13.0-0.10","6791","János imád köszözni, ezért sokat köszlik. Ti ritkán...","0","köszlötök","[""köszlötök"",""köszöztök""]","","posttest trial","4",""
"html-button-response-clever","131","1117074","0.0-13.0-0.11","8840","János imád mülőrözni, ezért sokat mülőrzik. Mi ritkán...","1","mülőrözünk","[""mülőrzünk"",""mülőrözünk""]","","posttest trial","4",""
"html-button-response-clever","132","1123089","0.0-13.0-0.12","5502","János imád prélemezni, ezért sokat prélemlik. Ők ritkán...","0","prélemlenek","[""prélemlenek"",""prélemeznek""]","","posttest trial","4",""
"html-button-response-clever","133","1127850","0.0-13.0-0.13","4247","János imád dirozni, ezért sokat dirlik. Ti ritkán...","1","dirlotok","[""diroztok"",""dirlotok""]","","posttest trial","4",""
"html-button-response-clever","134","1142930","0.0-13.0-0.14","14568","János imád trugokozni, ezért sokat trugoklik. Ők ritkán...","1","trugokoznak","[""trugoklanak"",""trugokoznak""]","","posttest trial","4",""
"html-button-response-clever","135","1145249","0.0-13.0-0.15","1816","János imád flűgözni, ezért sokat flűgzik. Mi ritkán...","1","flűgzünk","[""flűgözünk"",""flűgzünk""]","","posttest trial","4",""
"html-button-response-clever","136","1146138","0.0-13.0-0.16","374","János imád fröjözni, ezért sokat fröjzik. Ti ritkán...","0","fröjöztök","[""fröjöztök"",""fröjzötök""]","","posttest trial","4",""
"html-button-response-clever","137","1146809","0.0-13.0-0.17","171","János imád bratározni, ezért sokat bratárzik. Ők ritkán...","1","bratárzanak","[""bratároznak"",""bratárzanak""]","","posttest trial","4",""
"html-button-response-clever","138","1148034","0.0-13.0-0.18","712","János imád pragányozni, ezért sokat pragánylik. Ti ritkán...","0","pragánylotok","[""pragánylotok"",""pragányoztok""]","","posttest trial","4",""
"html-button-response-clever","139","1149050","0.0-13.0-0.19","502","János imád dilakozni, ezért sokat dilaklik. Ti ritkán...","0","dilaklotok","[""dilaklotok"",""dilakoztok""]","","posttest trial","4",""
"html-button-response-clever","140","1149747","0.0-13.0-0.20","190","János imád spirágozni, ezért sokat spiráglik. Ti ritkán...","1","spiráglotok","[""spirágoztok"",""spiráglotok""]","","posttest trial","4",""
"html-button-response-clever","141","1150553","0.0-13.0-0.21","300","János imád spügözni, ezért sokat spügzik. Mi ritkán...","0","spügözünk","[""spügözünk"",""spügzünk""]","","posttest trial","4",""
"html-button-response-clever","142","1151250","0.0-13.0-0.22","192","János imád brülösözni, ezért sokat brülöslik. Mi ritkán...","1","brülöslünk","[""brülösözünk"",""brülöslünk""]","","posttest trial","4",""
"html-button-response-clever","143","1152073","0.0-13.0-0.23","317","János imád sprozozni, ezért sokat sprozlik. Ők ritkán...","1","sprozlanak","[""sprozoznak"",""sprozlanak""]","","posttest trial","4",""
"html-button-response-clever","144","1153162","0.0-13.0-0.24","584","János imád trivakodni, ezért sokat trivakszik. Mi ritkán...","0","trivakszunk","[""trivakszunk"",""trivakodunk""]","","posttest trial","4",""
"html-button-response-clever","145","1153890","0.0-13.0-0.25","215","János imád frakozni, ezért sokat fraklik. Mi ritkán...","0","fraklunk","[""fraklunk"",""frakozunk""]","","posttest trial","4",""
"html-button-response-clever","146","1154722","0.0-13.0-0.26","331","János imád drilarozni, ezért sokat drilarzik. Mi ritkán...","1","drilarzunk","[""drilarozunk"",""drilarzunk""]","","posttest trial","4",""
"html-button-response-clever","147","1155625","0.0-13.0-0.27","400","János imád püzözni, ezért sokat püzlik. Ti ritkán...","1","püzlötök","[""püzöztök"",""püzlötök""]","","posttest trial","4",""
"html-button-response-clever","148","1156537","0.0-13.0-0.28","409","János imád privékedni, ezért sokat privékszik. Ők ritkán...","0","privékednek","[""privékednek"",""privékszenek""]","","posttest trial","4",""
"html-button-response-clever","149","1158361","0.0-13.0-0.29","1320","János imád dárakodni, ezért sokat dárakszik. Mi ritkán...","0","dárakszunk","[""dárakszunk"",""dárakodunk""]","","posttest trial","4",""
"html-button-response-clever","150","1161210","0.0-13.0-0.30","2342","János imád csibagozni, ezért sokat csibagzik. Ti ritkán...","1","csibagoztok","[""csibagzotok"",""csibagoztok""]","","posttest trial","4",""
"html-button-response-clever","151","1163826","0.0-13.0-0.31","2113","János imád mágamozni, ezért sokat mágamlik. Mi ritkán...","0","mágamlunk","[""mágamlunk"",""mágamozunk""]","","posttest trial","4",""
"html-button-response-clever","152","1166867","0.0-13.0-0.32","2533","János imád branyozni, ezért sokat branylik. Ők ritkán...","1","branylanak","[""branyoznak"",""branylanak""]","","posttest trial","4",""
"html-button-response-clever","153","1171113","0.0-13.0-0.33","3732","János imád klehényezni, ezért sokat klehénylik. Ti ritkán...","1","klehényletek","[""klehényeztek"",""klehényletek""]","","posttest trial","4",""
"html-button-response-clever","154","1174337","0.0-13.0-0.34","2719","János imád csubozni, ezért sokat csubzik. Mi ritkán...","1","csubozunk","[""csubzunk"",""csubozunk""]","","posttest trial","4",""
"html-button-response-clever","155","1178826","0.0-13.0-0.35","3983","János imád spibegezni, ezért sokat spibeglik. Mi ritkán...","1","spibeglünk","[""spibegezünk"",""spibeglünk""]","","posttest trial","4",""
"html-button-response-clever","156","1183458","0.0-13.0-0.36","4121","János imád frálapodni, ezért sokat frálapszik. Ti ritkán...","1","frálapodtok","[""frálapszotok"",""frálapodtok""]","","posttest trial","4",""
"html-button-response-clever","157","1187570","0.0-13.0-0.37","3612","János imád nyivágozni, ezért sokat nyivágzik. Mi ritkán...","1","nyivágzunk","[""nyivágozunk"",""nyivágzunk""]","","posttest trial","4",""
"html-button-response-clever","158","1193290","0.0-13.0-0.38","5211","János imád spiharozni, ezért sokat spiharzik. Ti ritkán...","1","spiharzotok","[""spiharoztok"",""spiharzotok""]","","posttest trial","4",""
"html-button-response-clever","159","1198074","0.0-13.0-0.39","4281","János imád flemezni, ezért sokat flemlik. Mi ritkán...","1","flemlünk","[""flemezünk"",""flemlünk""]","","posttest trial","4",""
"html-button-response-clever","160","1204073","0.0-13.0-0.40","5490","János imád lájozni, ezért sokat lájzik. Ti ritkán...","1","lájzotok","[""lájoztok"",""lájzotok""]","","posttest trial","4",""
"html-button-response-clever","161","1207354","0.0-13.0-0.41","2778","János imád prögözni, ezért sokat prögzik. Ti ritkán...","0","prögzötök","[""prögzötök"",""prögöztök""]","","posttest trial","4",""
"html-button-response-clever","162","1210530","0.0-13.0-0.42","2675","János imád trikozni, ezért sokat triklik. Ti ritkán...","1","triklotok","[""trikoztok"",""triklotok""]","","posttest trial","4",""
"html-button-response-clever","163","1213722","0.0-13.0-0.43","2689","János imád sprűrözni, ezért sokat sprűrlik. Ők ritkán...","0","sprűrlenek","[""sprűrlenek"",""sprűröznek""]","","posttest trial","4",""
"html-button-response-clever","164","1219969","0.0-13.0-0.44","5735","János imád föködni, ezért sokat fökszik. Ők ritkán...","1","föködnek","[""fökszenek"",""föködnek""]","","posttest trial","4",""
"html-button-response-clever","165","1222570","0.0-13.0-0.45","2092","János imád nyürözni, ezért sokat nyürzik. Ők ritkán...","1","nyürzenek","[""nyüröznek"",""nyürzenek""]","","posttest trial","4",""
"html-button-response-clever","166","1224874","0.0-13.0-0.46","1791","János imád kűdözni, ezért sokat kűdlik. Ők ritkán...","0","kűdlenek","[""kűdlenek"",""kűdöznek""]","","posttest trial","4",""
"html-button-response-clever","167","1229394","0.0-13.0-0.47","4005","János imád pilégedni, ezért sokat pilégszik. Ők ritkán...","1","pilégszenek","[""pilégednek"",""pilégszenek""]","","posttest trial","4",""
"html-button-response-clever","168","1233106","0.0-13.0-0.48","3198","János imád flöközni, ezért sokat flöklik. Ti ritkán...","0","flöklötök","[""flöklötök"",""flököztök""]","","posttest trial","4",""
"html-button-response-clever","169","1238362","0.0-13.0-0.49","4754","János imád flüröközni, ezért sokat flüröklik. Ti ritkán...","1","flürököztök","[""flüröklötök"",""flürököztök""]","","posttest trial","4",""
"html-button-response-clever","170","1241817","0.0-13.0-0.50","2941","János imád posozni, ezért sokat poslik. Ti ritkán...","0","poslotok","[""poslotok"",""posoztok""]","","posttest trial","4",""
"html-button-response-clever","171","1246297","0.0-13.0-0.51","3968","János imád dabozni, ezért sokat dabzik. Ti ritkán...","0","daboztok","[""daboztok"",""dabzotok""]","","posttest trial","4",""
"html-button-response-clever","172","1250362","0.0-13.0-0.52","3552","János imád lűközni, ezért sokat lűklik. Ők ritkán...","1","lűköznek","[""lűklenek"",""lűköznek""]","","posttest trial","4",""
"html-button-response-clever","173","1254298","0.0-13.0-0.53","3434","János imád brözözni, ezért sokat brözlik. Ti ritkán...","1","brözlötök","[""brözöztök"",""brözlötök""]","","posttest trial","4",""
"html-button-response","174","1263242","0.0-14.0","8433","<p> Vége a játéknak. A teljes pontszámod 29/54.</p><p> Szép munka! &#128526;&#128526;&#128526;</p><p>A Befejezés gomb megnyomása után bezárhatod a böngészőablakot.</p>","0","","","","","",""
"html-keyboard-response","175","1268760","0.0-15.0","null","<div class=""message"">
         <p>Egy kis türelmet kérünk, amíg elmentjük az adatokat...</p>
         </div>","null","","","","","",""
