"trial_type","trial_index","time_elapsed","internal_node_id","rt","stimulus","response","response_string","choices","esp_response","trial_kind","list_number","esp_match"
"pavlovia","0","574","0.0-0.0","","","","","","","","",""
"html-button-response","1","25524","0.0-1.0","24445","<p>Kedves Résztvevő! A Budapesti Műszaki és Gazdaságtudományi Egyetem Kognitív Tudományi Tanszékének kutatásában való részvételed kérjük. A kutatásban azt vizsgáljuk, hogy a magyar anyanyelvűek hogyan használnak bizonyos szóalakokat, és hogy milyen képük van arról, hogy mások hogyan használják, hogyan képzik a szavakat. Ez hozzásegít bennünket ahhoz, hogy jobban megértsük, hogyan dolgozza fel és tárolja a nyelvet az emberi agy, és hogyan működnek, hogyan változnak egy adott közösség nyelvi konvenciói.</p><p>A vizsgálat egy rövid számítógépes feladatból fog állni. A kutatásban való részvétel önkéntes, a részvételi szándék bármikor visszavonható. A résztvevők eredményeit név nélkül kezeljük, így nem beazonosíthatók az adatok feldolgozása során. Minden személyes adatot az EU általános adatvédelmi rendeletének (GDPR) megfelelően kezelünk és legfeljebb öt éven belül megsemmisítünk. A vizsgálat jellemzően húsz percet vesz igénybe.</p><p>Kutatásvezető:</p><p>Dr. Rácz Péter, tudományos munkatárs, BME KTT</p><p>e-mail: racz.peter.marton@ttk.bme.hu</p>","0","","","","","",""
"html-button-response","2","49003","0.0-2.0","22977","<p>A kísérletben szavakat fogsz látni. Ezek között lesznek olyanok, amelyeket ismersz, de előfordulhatnak olyanok is, amelyeket nem ismersz, sőt, vannak köztük kitalált szavak is. Minden szónál látni fogsz toldalékolt alakokat. A te feladatod az lesz, hogy minden szóhoz kiválaszd azt a toldalékolt alakot, amely a te számodra ismerősebben, természetesebben hangzik. Rossz válaszok nincsenek, mert van olyan, hogy különböző embereknek más és más szó tűnik jobb választásnak. A választ úgy tudod majd kiválasztani, ha rákattintasz.</p><p>Ebben a szóválasztós játékban egy másik játékossal együtt veszel majd részt. A másik játékos is minden esetben azok közül a lehetőségek közül válogathat, mint te. Kettőtök feladata az, hogy ugyanazt a lehetőséget válasszátok minden esetben. Ahhoz, hogy ez sikerüljön, neked figyelned kell arra, hogy a másik játékos milyen válaszokat ad, és ennek alapján meg kell tippelned, hogyan választ legközelebb. Ha eltalálod, akkor pontot kapsz.</p>","0","","","","","",""
"html-button-response","3","62811","0.0-3.0","13305","<p>Kérjük, olvasd el az alábbi nyilatkozatot, és amennyiben egyetértesz vele, nyomj a Beleegyezés gombra!</p><p>Kijelentem, hogy magyar anyanyelvű személyként önként veszek részt a BME KTT kísérletében. A kutatás céljával és folyamatával kapcsolatban elegendő tájékoztatást kaptam, lehetőségem volt kérdések feltételére, és esetleges kérdéseimre megfelelő válaszokat kaptam. A tájékoztatás alapján elegendő mennyiségű információ áll a rendelkezésemre, hogy eldönthessem, részt kívánok-e venni a kutatásban.</p><p>Tisztában vagyok vele, hogy részvételi szándékomat és adataimat bármikor, indoklás nélkül visszavonhatom.</p><p>Értem és tudomásul veszem, hogy a kutatás tudományos célokat szolgál, és az általam szolgáltatott adatokat a BME kizárólag kutatási célból használja fel. Tudomásul veszem, hogy eredményeimet a többi résztvevő eredményeivel együtt kezelik, így egyéni teljesítményemről visszajelzést, szakvéleményt nem kapok.</p><p>Megértettem, hogy adataim kezelését illetően a BME az EU általános adatvédelmi rendelete (GDPR), a hatályos adatvédelmi törvény és a nemzetközi kutatás-etikai alapelvek szerint jár el. Eredményeim anonim módon kerülnek feldolgozásra, és a kutatás résztvevői az azonosításomra alkalmas adataimat harmadik félnek nem szolgáltatják ki. Engedélyezem a BME számára a jelen kutatásban felvett adataim feldolgozását és tárolását, beleértve azok későbbi kutatásokhoz való felhasználását is. Személyes adataim kezelésével kapcsolatban tájékoztatást kérhetek a kutatás résztvevőitől, az adatkezelés ellen tiltakozhatok, kérhetem személyes adataim helyesbítését, törlését vagy zárolását, valamint jogorvoslatért a Nemzeti Adatvédelmi és Információszabadság Hatósághoz fordulhatok.</p><p>Kijelentem, hogy a kutatásban való részvételem körülményeiről részletes tájékoztatást kaptam, és a feltételeket elfogadom.</p>","0","","","","","",""
"survey-text","4","85716","0.0-4.0","22397","","{""Q0"":""COZTQV"",""Q1"":"""",""Q2"":""2002"",""Q3"":""14""}","","","","","",""
"html-button-response","5","100939","0.0-5.0","14720","<p>Ebben a játékban szavakat kell toldalékolni.</p> <p>Minden körben mutatunk majd egy példamondatot, amiben lesz egy szó.</p> <p>Alatta jön egy második mondat, ezt a mondatot neked kell majd befejezni, ugyanezzel a szóval.</p> <p>Nem biztos, hogy a szó eleve ismerős lesz számodra!</p> <p>Minden mondathoz adunk két lehetőséget, ezeket balra és jobbra látod majd.</p> <p>A játék kb. negyedóráig-húsz percig tart.</p>","0","","","","","",""
"html-button-response","6","110203","0.0-6.0","8760","<p>Nézzünk egy példát!</p> <p>A példamondat: ""János nagyon szeret rancsúrozni.""</p><p>Neked ezt a mondatot kell befejezned: ""Én is szívesen...""</p><p>A lehetőségek pedig ezek:</p>","0","","","","","",""
"html-button-response","7","116019","0.0-7.0","5313","<p>Nagyon jó.</p><p>Ezt a játékot nem egyedül fogod játszani, hanem egy másik játékossal.</p><p>Mielőtt továbblépünk, összekapcsolunk titeket egymással.</p><p>Ez igénybe vehet néhány másodpercet, amihez szíves türelmed kérjük.</p>","0","","","","","",""
"html-button-response","8","121745","0.0-8.0","null","<p>Csatlakozás a másik játékoshoz...</p>","null","","","","","",""
"html-button-response","9","124257","0.0-9.0","null","<p> Sikeres kapcsolódás!</p>","null","","","","","",""
"html-button-response","10","132674","0.0-10.0","7912","<p>A következőkben ketten játsszátok a szóválasztós játékot.</p><p>A feladatotok az lesz, hogy minden körben <b>ugyanazt</b> a szót válasszátok.</p><p>Minden ilyen egyező válaszért pontot kaptok.</p><p>Próbáld meg kitalálni, mit választ a másik játékos!</p><p>Bármikor választhatsz, a körnek akkor van vége, ha mindketten döntöttetek.</p><p>Sok sikert!</p>","0","","","","","",""
"html-button-response-esp","11","142217","0.0-11.0-0.0","3359","Te bizony sokat driládzol. Én is sokat...","0","driládzom","[""driládzom"",""driládzok""]","driládzom","esp trial","1","true"
"html-button-response","12","145729","0.0-11.0-1.0","null","<p>A másik játékos ezt választotta: <b>driládzom</b>.</p><p>&#x2705;</p><p>A te válaszod és a másik játékos válasza <b>megegyeznek</b>.</p>","null","","","","feedback trial","",""
"html-button-response-esp","13","155265","0.0-11.0-0.1","4168","Te bizony sokat drubódzol. Én is sokat...","0","drubódzom","[""drubódzom"",""drubódzok""]","drubódzom","esp trial","1","true"
"html-button-response","14","158777","0.0-11.0-1.1","null","<p>A másik játékos ezt választotta: <b>drubódzom</b>.</p><p>&#x2705;</p><p>A te válaszod és a másik játékos válasza <b>megegyeznek</b>.</p>","null","","","","feedback trial","",""
"html-button-response-esp","15","168313","0.0-11.0-0.2","2433","Te bizony sokat vilakszol. Én is sokat...","0","vilakszom","[""vilakszom"",""vilakszok""]","vilakszom","esp trial","1","true"
"html-button-response","16","171825","0.0-11.0-1.2","null","<p>A másik játékos ezt választotta: <b>vilakszom</b>.</p><p>&#x2705;</p><p>A te válaszod és a másik játékos válasza <b>megegyeznek</b>.</p>","null","","","","feedback trial","",""
"html-button-response-esp","17","181361","0.0-11.0-0.3","3576","Te bizony sokat flagánylasz. Én is sokat...","0","flagánylom","[""flagánylom"",""flagánylok""]","flagánylok","esp trial","1","false"
"html-button-response","18","184865","0.0-11.0-1.3","null","<p>A másik játékos ezt választotta: <b>flagánylok</b>.</p><p>&#10060;</p><p>A válaszaitok <b>nem</b> egyeznek meg.</p>","null","","","","feedback trial","",""
"html-button-response-esp","19","194401","0.0-11.0-0.4","3568","Te bizony sokat juszlasz. Én is sokat...","0","juszlok","[""juszlok"",""juszlom""]","juszlok","esp trial","1","true"
"html-button-response","20","197913","0.0-11.0-1.4","null","<p>A másik játékos ezt választotta: <b>juszlok</b>.</p><p>&#x2705;</p><p>A te válaszod és a másik játékos válasza <b>megegyeznek</b>.</p>","null","","","","feedback trial","",""
"html-button-response-esp","21","207449","0.0-11.0-0.5","3792","Te bizony sokat hilarzol. Én is sokat...","1","hilarzok","[""hilarzom"",""hilarzok""]","hilarzok","esp trial","1","true"
"html-button-response","22","210961","0.0-11.0-1.5","null","<p>A másik játékos ezt választotta: <b>hilarzok</b>.</p><p>&#x2705;</p><p>A te válaszod és a másik játékos válasza <b>megegyeznek</b>.</p>","null","","","","feedback trial","",""
"html-button-response-esp","23","220504","0.0-11.0-0.6","2727","Te bizony sokat málapszol. Én is sokat...","0","málapszom","[""málapszom"",""málapszok""]","málapszok","esp trial","1","false"
"html-button-response","24","224017","0.0-11.0-1.6","null","<p>A másik játékos ezt választotta: <b>málapszok</b>.</p><p>&#10060;</p><p>A válaszaitok <b>nem</b> egyeznek meg.</p>","null","","","","feedback trial","",""
"html-button-response-esp","25","233553","0.0-11.0-0.7","2192","Te bizony sokat ribzol. Én is sokat...","1","ribzok","[""ribzom"",""ribzok""]","ribzom","esp trial","1","false"
"html-button-response","26","237065","0.0-11.0-1.7","null","<p>A másik játékos ezt választotta: <b>ribzom</b>.</p><p>&#10060;</p><p>A válaszaitok <b>nem</b> egyeznek meg.</p>","null","","","","feedback trial","",""
"html-button-response-esp","27","246601","0.0-11.0-0.8","3832","Te bizony sokat ruslasz. Én is sokat...","1","ruslok","[""ruslom"",""ruslok""]","ruslok","esp trial","1","true"
"html-button-response","28","250113","0.0-11.0-1.8","null","<p>A másik játékos ezt választotta: <b>ruslok</b>.</p><p>&#x2705;</p><p>A te válaszod és a másik játékos válasza <b>megegyeznek</b>.</p>","null","","","","feedback trial","",""
"html-button-response-esp","29","259649","0.0-11.0-0.9","3824","Te bizony sokat jüslesz. Én is sokat...","1","jüslök","[""jüslöm"",""jüslök""]","jüslök","esp trial","1","true"
"html-button-response","30","263161","0.0-11.0-1.9","null","<p>A másik játékos ezt választotta: <b>jüslök</b>.</p><p>&#x2705;</p><p>A te válaszod és a másik játékos válasza <b>megegyeznek</b>.</p>","null","","","","feedback trial","",""
"html-button-response-esp","31","272697","0.0-11.0-0.10","2807","Te bizony sokat femlesz. Én is sokat...","0","femlek","[""femlek"",""femlem""]","femlek","esp trial","1","true"
"html-button-response","32","276209","0.0-11.0-1.10","null","<p>A másik játékos ezt választotta: <b>femlek</b>.</p><p>&#x2705;</p><p>A te válaszod és a másik játékos válasza <b>megegyeznek</b>.</p>","null","","","","feedback trial","",""
"html-button-response-esp","33","285744","0.0-11.0-0.11","2648","Te bizony sokat bölszöl. Én is sokat...","0","bölszök","[""bölszök"",""bölszöm""]","bölszök","esp trial","1","true"
"html-button-response","34","289257","0.0-11.0-1.11","null","<p>A másik játékos ezt választotta: <b>bölszök</b>.</p><p>&#x2705;</p><p>A te válaszod és a másik játékos válasza <b>megegyeznek</b>.</p>","null","","","","feedback trial","",""
"html-button-response-esp","35","298793","0.0-11.0-0.12","4223","Te bizony sokat tiregzel. Én is sokat...","1","tiregzek","[""tiregzem"",""tiregzek""]","tiregzek","esp trial","1","true"
"html-button-response","36","302305","0.0-11.0-1.12","null","<p>A másik játékos ezt választotta: <b>tiregzek</b>.</p><p>&#x2705;</p><p>A te válaszod és a másik játékos válasza <b>megegyeznek</b>.</p>","null","","","","feedback trial","",""
"html-button-response-esp","37","311842","0.0-11.0-0.13","2391","Te bizony sokat sűzlesz. Én is sokat...","0","sűzlök","[""sűzlök"",""sűzlöm""]","sűzlök","esp trial","1","true"
"html-button-response","38","315353","0.0-11.0-1.13","null","<p>A másik játékos ezt választotta: <b>sűzlök</b>.</p><p>&#x2705;</p><p>A te válaszod és a másik játékos válasza <b>megegyeznek</b>.</p>","null","","","","feedback trial","",""
"html-button-response-esp","39","324889","0.0-11.0-0.14","3808","Te bizony sokat piragszol. Én is sokat...","0","piragszok","[""piragszok"",""piragszom""]","piragszom","esp trial","1","false"
"html-button-response","40","328402","0.0-11.0-1.14","null","<p>A másik játékos ezt választotta: <b>piragszom</b>.</p><p>&#10060;</p><p>A válaszaitok <b>nem</b> egyeznek meg.</p>","null","","","","feedback trial","",""
"html-button-response-esp","41","337938","0.0-11.0-0.15","4614","Te bizony sokat siladzol. Én is sokat...","1","siladzom","[""siladzok"",""siladzom""]","siladzom","esp trial","1","true"
"html-button-response","42","341449","0.0-11.0-1.15","null","<p>A másik játékos ezt választotta: <b>siladzom</b>.</p><p>&#x2705;</p><p>A te válaszod és a másik játékos válasza <b>megegyeznek</b>.</p>","null","","","","feedback trial","",""
"html-button-response-esp","43","350985","0.0-11.0-0.16","2559","Te bizony sokat tomlasz. Én is sokat...","1","tomlok","[""tomlom"",""tomlok""]","tomlok","esp trial","1","true"
"html-button-response","44","354497","0.0-11.0-1.16","null","<p>A másik játékos ezt választotta: <b>tomlok</b>.</p><p>&#x2705;</p><p>A te válaszod és a másik játékos válasza <b>megegyeznek</b>.</p>","null","","","","feedback trial","",""
"html-button-response-esp","45","364032","0.0-11.0-0.17","3735","Te bizony sokat spéslesz. Én is sokat...","1","spéslek","[""spéslem"",""spéslek""]","spéslek","esp trial","1","true"
"html-button-response","46","367545","0.0-11.0-1.17","null","<p>A másik játékos ezt választotta: <b>spéslek</b>.</p><p>&#x2705;</p><p>A te válaszod és a másik játékos válasza <b>megegyeznek</b>.</p>","null","","","","feedback trial","",""
"html-button-response-esp","47","377081","0.0-11.0-0.18","2478","Te bizony sokat marzol. Én is sokat...","0","marzok","[""marzok"",""marzom""]","marzok","esp trial","1","true"
"html-button-response","48","380592","0.0-11.0-1.18","null","<p>A másik játékos ezt választotta: <b>marzok</b>.</p><p>&#x2705;</p><p>A te válaszod és a másik játékos válasza <b>megegyeznek</b>.</p>","null","","","","feedback trial","",""
"html-button-response-esp","49","390129","0.0-11.0-0.19","3317","Te bizony sokat trilszol. Én is sokat...","0","trilszom","[""trilszom"",""trilszok""]","trilszok","esp trial","1","false"
"html-button-response","50","393641","0.0-11.0-1.19","null","<p>A másik játékos ezt választotta: <b>trilszok</b>.</p><p>&#10060;</p><p>A válaszaitok <b>nem</b> egyeznek meg.</p>","null","","","","feedback trial","",""
"html-button-response-esp","51","403177","0.0-11.0-0.20","3886","Te bizony sokat klibamlasz. Én is sokat...","1","klibamlok","[""klibamlom"",""klibamlok""]","klibamlok","esp trial","1","true"
"html-button-response","52","406689","0.0-11.0-1.20","null","<p>A másik játékos ezt választotta: <b>klibamlok</b>.</p><p>&#x2705;</p><p>A te válaszod és a másik játékos válasza <b>megegyeznek</b>.</p>","null","","","","feedback trial","",""
"html-button-response-esp","53","416225","0.0-11.0-0.21","3141","Te bizony sokat narjárzol. Én is sokat...","0","narjárzom","[""narjárzom"",""narjárzok""]","narjárzok","esp trial","1","false"
"html-button-response","54","419737","0.0-11.0-1.21","null","<p>A másik játékos ezt választotta: <b>narjárzok</b>.</p><p>&#10060;</p><p>A válaszaitok <b>nem</b> egyeznek meg.</p>","null","","","","feedback trial","",""
"html-button-response-esp","55","429273","0.0-11.0-0.22","2814","Te bizony sokat tínylasz. Én is sokat...","0","tínylok","[""tínylok"",""tínylom""]","tínylok","esp trial","1","true"
"html-button-response","56","432785","0.0-11.0-1.22","null","<p>A másik játékos ezt választotta: <b>tínylok</b>.</p><p>&#x2705;</p><p>A te válaszod és a másik játékos válasza <b>megegyeznek</b>.</p>","null","","","","feedback trial","",""
"html-button-response-esp","57","442321","0.0-11.0-0.23","3461","Te bizony sokat frilegszel. Én is sokat...","0","frilegszem","[""frilegszem"",""frilegszek""]","frilegszem","esp trial","1","true"
"html-button-response","58","445832","0.0-11.0-1.23","null","<p>A másik játékos ezt választotta: <b>frilegszem</b>.</p><p>&#x2705;</p><p>A te válaszod és a másik játékos válasza <b>megegyeznek</b>.</p>","null","","","","feedback trial","",""
"html-button-response-esp","59","455370","0.0-11.0-0.24","2349","Te bizony sokat szirlasz. Én is sokat...","0","szirlok","[""szirlok"",""szirlom""]","szirlok","esp trial","1","true"
"html-button-response","60","458881","0.0-11.0-1.24","null","<p>A másik játékos ezt választotta: <b>szirlok</b>.</p><p>&#x2705;</p><p>A te válaszod és a másik játékos válasza <b>megegyeznek</b>.</p>","null","","","","feedback trial","",""
"html-button-response-esp","61","468417","0.0-11.0-0.25","2021","Te bizony sokat flűröklesz. Én is sokat...","0","flűröklök","[""flűröklök"",""flűröklöm""]","flűröklök","esp trial","1","true"
"html-button-response","62","471930","0.0-11.0-1.25","null","<p>A másik játékos ezt választotta: <b>flűröklök</b>.</p><p>&#x2705;</p><p>A te válaszod és a másik játékos válasza <b>megegyeznek</b>.</p>","null","","","","feedback trial","",""
"html-button-response-esp","63","481465","0.0-11.0-0.26","2949","Te bizony sokat pivegszel. Én is sokat...","1","pivegszem","[""pivegszek"",""pivegszem""]","pivegszem","esp trial","1","true"
"html-button-response","64","484976","0.0-11.0-1.26","null","<p>A másik játékos ezt választotta: <b>pivegszem</b>.</p><p>&#x2705;</p><p>A te válaszod és a másik játékos válasza <b>megegyeznek</b>.</p>","null","","","","feedback trial","",""
"html-button-response-esp","65","494512","0.0-11.0-0.27","3149","Te bizony sokat herégszel. Én is sokat...","0","herégszek","[""herégszek"",""herégszem""]","herégszem","esp trial","1","false"
"html-button-response","66","498024","0.0-11.0-1.27","null","<p>A másik játékos ezt választotta: <b>herégszem</b>.</p><p>&#10060;</p><p>A válaszaitok <b>nem</b> egyeznek meg.</p>","null","","","","feedback trial","",""
"html-button-response-esp","67","507562","0.0-11.0-0.28","2029","Te bizony sokat csíszlasz. Én is sokat...","0","csíszlok","[""csíszlok"",""csíszlom""]","csíszlok","esp trial","1","true"
"html-button-response","68","511069","0.0-11.0-1.28","null","<p>A másik játékos ezt választotta: <b>csíszlok</b>.</p><p>&#x2705;</p><p>A te válaszod és a másik játékos válasza <b>megegyeznek</b>.</p>","null","","","","feedback trial","",""
"html-button-response-esp","69","520608","0.0-11.0-0.29","2301","Te bizony sokat pratánylasz. Én is sokat...","0","pratánylom","[""pratánylom"",""pratánylok""]","pratánylok","esp trial","1","false"
"html-button-response","70","524121","0.0-11.0-1.29","null","<p>A másik játékos ezt választotta: <b>pratánylok</b>.</p><p>&#10060;</p><p>A válaszaitok <b>nem</b> egyeznek meg.</p>","null","","","","feedback trial","",""
"html-button-response-esp","71","533656","0.0-11.0-0.30","3900","Te bizony sokat flagárzol. Én is sokat...","0","flagárzok","[""flagárzok"",""flagárzom""]","flagárzok","esp trial","1","true"
"html-button-response","72","537169","0.0-11.0-1.30","null","<p>A másik játékos ezt választotta: <b>flagárzok</b>.</p><p>&#x2705;</p><p>A te válaszod és a másik játékos válasza <b>megegyeznek</b>.</p>","null","","","","feedback trial","",""
"html-button-response-esp","73","546705","0.0-11.0-0.31","2396","Te bizony sokat nyáslasz. Én is sokat...","0","nyáslok","[""nyáslok"",""nyáslom""]","nyáslok","esp trial","1","true"
"html-button-response","74","550217","0.0-11.0-1.31","null","<p>A másik játékos ezt választotta: <b>nyáslok</b>.</p><p>&#x2705;</p><p>A te válaszod és a másik játékos válasza <b>megegyeznek</b>.</p>","null","","","","feedback trial","",""
"html-button-response-esp","75","559753","0.0-11.0-0.32","3500","Te bizony sokat spibaklasz. Én is sokat...","0","spibaklom","[""spibaklom"",""spibaklok""]","spibaklok","esp trial","1","false"
"html-button-response","76","563264","0.0-11.0-1.32","null","<p>A másik játékos ezt választotta: <b>spibaklok</b>.</p><p>&#10060;</p><p>A válaszaitok <b>nem</b> egyeznek meg.</p>","null","","","","feedback trial","",""
"html-button-response-esp","77","572801","0.0-11.0-0.33","1916","Te bizony sokat sprogzol. Én is sokat...","0","sprogzok","[""sprogzok"",""sprogzom""]","sprogzom","esp trial","1","false"
"html-button-response","78","576312","0.0-11.0-1.33","null","<p>A másik játékos ezt választotta: <b>sprogzom</b>.</p><p>&#10060;</p><p>A válaszaitok <b>nem</b> egyeznek meg.</p>","null","","","","feedback trial","",""
"html-button-response-esp","79","585849","0.0-11.0-0.34","3000","Te bizony sokat klörlesz. Én is sokat...","0","klörlök","[""klörlök"",""klörlöm""]","klörlök","esp trial","1","true"
"html-button-response","80","589361","0.0-11.0-1.34","null","<p>A másik játékos ezt választotta: <b>klörlök</b>.</p><p>&#x2705;</p><p>A te válaszod és a másik játékos válasza <b>megegyeznek</b>.</p>","null","","","","feedback trial","",""
"html-button-response-esp","81","598897","0.0-11.0-0.35","1939","Te bizony sokat büglesz. Én is sokat...","1","büglök","[""büglöm"",""büglök""]","büglök","esp trial","1","true"
"html-button-response","82","602409","0.0-11.0-1.35","null","<p>A másik játékos ezt választotta: <b>büglök</b>.</p><p>&#x2705;</p><p>A te válaszod és a másik játékos válasza <b>megegyeznek</b>.</p>","null","","","","feedback trial","",""
"html-button-response-esp","83","611945","0.0-11.0-0.36","3436","Te bizony sokat fretszel. Én is sokat...","0","fretszek","[""fretszek"",""fretszem""]","fretszek","esp trial","1","true"
"html-button-response","84","615457","0.0-11.0-1.36","null","<p>A másik játékos ezt választotta: <b>fretszek</b>.</p><p>&#x2705;</p><p>A te válaszod és a másik játékos válasza <b>megegyeznek</b>.</p>","null","","","","feedback trial","",""
"html-button-response-esp","85","624993","0.0-11.0-0.37","2227","Te bizony sokat lorjódzol. Én is sokat...","1","lorjódzom","[""lorjódzok"",""lorjódzom""]","lorjódzok","esp trial","1","false"
"html-button-response","86","628505","0.0-11.0-1.37","null","<p>A másik játékos ezt választotta: <b>lorjódzok</b>.</p><p>&#10060;</p><p>A válaszaitok <b>nem</b> egyeznek meg.</p>","null","","","","feedback trial","",""
"html-button-response-esp","87","638041","0.0-11.0-0.38","3315","Te bizony sokat pebzel. Én is sokat...","0","pebzek","[""pebzek"",""pebzem""]","pebzek","esp trial","1","true"
"html-button-response","88","641553","0.0-11.0-1.38","null","<p>A másik játékos ezt választotta: <b>pebzek</b>.</p><p>&#x2705;</p><p>A te válaszod és a másik játékos válasza <b>megegyeznek</b>.</p>","null","","","","feedback trial","",""
"html-button-response-esp","89","651089","0.0-11.0-0.39","2451","Te bizony sokat sojzol. Én is sokat...","0","sojzok","[""sojzok"",""sojzom""]","sojzom","esp trial","1","false"
"html-button-response","90","654601","0.0-11.0-1.39","null","<p>A másik játékos ezt választotta: <b>sojzom</b>.</p><p>&#10060;</p><p>A válaszaitok <b>nem</b> egyeznek meg.</p>","null","","","","feedback trial","",""
"html-button-response-esp","91","664137","0.0-11.0-0.40","2266","Te bizony sokat spatárzol. Én is sokat...","1","spatárzok","[""spatárzom"",""spatárzok""]","spatárzok","esp trial","1","true"
"html-button-response","92","667649","0.0-11.0-1.40","null","<p>A másik játékos ezt választotta: <b>spatárzok</b>.</p><p>&#x2705;</p><p>A te válaszod és a másik játékos válasza <b>megegyeznek</b>.</p>","null","","","","feedback trial","",""
"html-button-response-esp","93","677184","0.0-11.0-0.41","3843","Te bizony sokat fibamlasz. Én is sokat...","0","fibamlok","[""fibamlok"",""fibamlom""]","fibamlok","esp trial","1","true"
"html-button-response","94","680696","0.0-11.0-1.41","null","<p>A másik játékos ezt választotta: <b>fibamlok</b>.</p><p>&#x2705;</p><p>A te válaszod és a másik játékos válasza <b>megegyeznek</b>.</p>","null","","","","feedback trial","",""
"html-button-response-esp","95","690241","0.0-11.0-0.42","4313","Te bizony sokat ribegzel. Én is sokat...","1","ribegzem","[""ribegzek"",""ribegzem""]","ribegzek","esp trial","1","false"
"html-button-response","96","693753","0.0-11.0-1.42","null","<p>A másik játékos ezt választotta: <b>ribegzek</b>.</p><p>&#10060;</p><p>A válaszaitok <b>nem</b> egyeznek meg.</p>","null","","","","feedback trial","",""
"html-button-response-esp","97","703288","0.0-11.0-0.43","4884","Te bizony sokat prilegzel. Én is sokat...","0","prilegzek","[""prilegzek"",""prilegzem""]","prilegzem","esp trial","1","false"
"html-button-response","98","706801","0.0-11.0-1.43","null","<p>A másik játékos ezt választotta: <b>prilegzem</b>.</p><p>&#10060;</p><p>A válaszaitok <b>nem</b> egyeznek meg.</p>","null","","","","feedback trial","",""
"html-button-response-esp","99","716337","0.0-11.0-0.44","1971","Te bizony sokat brágaklasz. Én is sokat...","1","brágaklok","[""brágaklom"",""brágaklok""]","brágaklom","esp trial","1","false"
"html-button-response","100","719849","0.0-11.0-1.44","null","<p>A másik játékos ezt választotta: <b>brágaklom</b>.</p><p>&#10060;</p><p>A válaszaitok <b>nem</b> egyeznek meg.</p>","null","","","","feedback trial","",""
"html-button-response-esp","101","729385","0.0-11.0-0.45","3938","Te bizony sokat flüröslesz. Én is sokat...","1","flüröslök","[""flüröslöm"",""flüröslök""]","flüröslök","esp trial","1","true"
"html-button-response","102","732891","0.0-11.0-1.45","null","<p>A másik játékos ezt választotta: <b>flüröslök</b>.</p><p>&#x2705;</p><p>A te válaszod és a másik játékos válasza <b>megegyeznek</b>.</p>","null","","","","feedback trial","",""
"html-button-response-esp","103","742424","0.0-11.0-0.46","2858","Te bizony sokat spűmlesz. Én is sokat...","1","spűmlök","[""spűmlöm"",""spűmlök""]","spűmlök","esp trial","1","true"
"html-button-response","104","745938","0.0-11.0-1.46","null","<p>A másik játékos ezt választotta: <b>spűmlök</b>.</p><p>&#x2705;</p><p>A te válaszod és a másik játékos válasza <b>megegyeznek</b>.</p>","null","","","","feedback trial","",""
"html-button-response-esp","105","755473","0.0-11.0-0.47","2394","Te bizony sokat brüjlesz. Én is sokat...","1","brüjlöm","[""brüjlök"",""brüjlöm""]","brüjlök","esp trial","1","false"
"html-button-response","106","758984","0.0-11.0-1.47","null","<p>A másik játékos ezt választotta: <b>brüjlök</b>.</p><p>&#10060;</p><p>A válaszaitok <b>nem</b> egyeznek meg.</p>","null","","","","feedback trial","",""
"html-button-response-esp","107","768521","0.0-11.0-0.48","2305","Te bizony sokat böjzöl. Én is sokat...","1","böjzök","[""böjzöm"",""böjzök""]","böjzök","esp trial","1","true"
"html-button-response","108","772032","0.0-11.0-1.48","null","<p>A másik játékos ezt választotta: <b>böjzök</b>.</p><p>&#x2705;</p><p>A te válaszod és a másik játékos válasza <b>megegyeznek</b>.</p>","null","","","","feedback trial","",""
"html-button-response-esp","109","781576","0.0-11.0-0.49","3336","Te bizony sokat sprökszöl. Én is sokat...","1","sprökszöm","[""sprökszök"",""sprökszöm""]","sprökszöm","esp trial","1","true"
"html-button-response","110","785089","0.0-11.0-1.49","null","<p>A másik játékos ezt választotta: <b>sprökszöm</b>.</p><p>&#x2705;</p><p>A te válaszod és a másik játékos válasza <b>megegyeznek</b>.</p>","null","","","","feedback trial","",""
"html-button-response-esp","111","794625","0.0-11.0-0.50","2585","Te bizony sokat prűrlesz. Én is sokat...","1","prűrlök","[""prűrlöm"",""prűrlök""]","prűrlök","esp trial","1","true"
"html-button-response","112","798137","0.0-11.0-1.50","null","<p>A másik játékos ezt választotta: <b>prűrlök</b>.</p><p>&#x2705;</p><p>A te válaszod és a másik játékos válasza <b>megegyeznek</b>.</p>","null","","","","feedback trial","",""
"html-button-response-esp","113","807673","0.0-11.0-0.51","2328","Te bizony sokat spilágzol. Én is sokat...","1","spilágzom","[""spilágzok"",""spilágzom""]","spilágzom","esp trial","1","true"
"html-button-response","114","811185","0.0-11.0-1.51","null","<p>A másik játékos ezt választotta: <b>spilágzom</b>.</p><p>&#x2705;</p><p>A te válaszod és a másik játékos válasza <b>megegyeznek</b>.</p>","null","","","","feedback trial","",""
"html-button-response-esp","115","820721","0.0-11.0-0.52","2641","Te bizony sokat sztremlesz. Én is sokat...","0","sztremlek","[""sztremlek"",""sztremlem""]","sztremlek","esp trial","1","true"
"html-button-response","116","824232","0.0-11.0-1.52","null","<p>A másik játékos ezt választotta: <b>sztremlek</b>.</p><p>&#x2705;</p><p>A te válaszod és a másik játékos válasza <b>megegyeznek</b>.</p>","null","","","","feedback trial","",""
"html-button-response-esp","117","833777","0.0-11.0-0.53","2736","Te bizony sokat feténylesz. Én is sokat...","1","feténylek","[""feténylem"",""feténylek""]","feténylek","esp trial","1","true"
"html-button-response","118","837289","0.0-11.0-1.53","null","<p>A másik játékos ezt választotta: <b>feténylek</b>.</p><p>&#x2705;</p><p>A te válaszod és a másik játékos válasza <b>megegyeznek</b>.</p>","null","","","","feedback trial","",""
"html-button-response","119","844010","0.0-12.0","6216","<p>A közös játék most véget ért.</p><p>Mielőtt eláruljuk a végső pontszámodat, arra kérlek, játszd a szóválasztós játékot néhány percig egyedül is.</p><p>A feladatod ugyanaz lesz, választani két lehetőség közül.</p><p>Most viszont egyedül kell döntened, hogy te melyiket választanád.</p>","0","","","","","",""
"html-button-response-clever","120","846610","0.0-13.0-0.0","2096","Te bizony sokat flehénylesz. Én is sokat...","0","flehénylek","[""flehénylek"",""flehénylem""]","","posttest trial","4",""
"html-button-response-clever","121","850050","0.0-13.0-0.1","2936","Te bizony sokat rokszol. Én is sokat...","0","rokszom","[""rokszom"",""rokszok""]","","posttest trial","4",""
"html-button-response-clever","122","852914","0.0-13.0-0.2","2360","Te bizony sokat salárzol. Én is sokat...","1","salárzok","[""salárzom"",""salárzok""]","","posttest trial","4",""
"html-button-response-clever","123","855866","0.0-13.0-0.3","2449","Te bizony sokat vanylasz. Én is sokat...","1","vanylok","[""vanylom"",""vanylok""]","","posttest trial","4",""
"html-button-response-clever","124","858642","0.0-13.0-0.4","2272","Te bizony sokat bűtszöl. Én is sokat...","1","bűtszök","[""bűtszöm"",""bűtszök""]","","posttest trial","4",""
"html-button-response-clever","125","861394","0.0-13.0-0.5","2248","Te bizony sokat brubzol. Én is sokat...","0","brubzom","[""brubzom"",""brubzok""]","","posttest trial","4",""
"html-button-response-clever","126","864074","0.0-13.0-0.6","2175","Te bizony sokat sztrozlasz. Én is sokat...","1","sztrozlok","[""sztrozlom"",""sztrozlok""]","","posttest trial","4",""
"html-button-response-clever","127","866321","0.0-13.0-0.7","1743","Te bizony sokat flitlasz. Én is sokat...","1","flitlok","[""flitlom"",""flitlok""]","","posttest trial","4",""
"html-button-response-clever","128","868489","0.0-13.0-0.8","1664","Te bizony sokat píjlasz. Én is sokat...","0","píjlok","[""píjlok"",""píjlom""]","","posttest trial","4",""
"html-button-response-clever","129","870793","0.0-13.0-0.9","1800","Te bizony sokat spihegzel. Én is sokat...","1","spihegzem","[""spihegzek"",""spihegzem""]","","posttest trial","4",""
"html-button-response-clever","130","873545","0.0-13.0-0.10","2248","Te bizony sokat spubonylasz. Én is sokat...","0","spubonylok","[""spubonylok"",""spubonylom""]","","posttest trial","4",""
"html-button-response-clever","131","875889","0.0-13.0-0.11","1839","Te bizony sokat spüjzöl. Én is sokat...","1","spüjzök","[""spüjzöm"",""spüjzök""]","","posttest trial","4",""
"html-button-response-clever","132","878065","0.0-13.0-0.12","1672","Te bizony sokat nűröklesz. Én is sokat...","1","nűröklök","[""nűröklöm"",""nűröklök""]","","posttest trial","4",""
"html-button-response-clever","133","879841","0.0-13.0-0.13","1272","Te bizony sokat trádlasz. Én is sokat...","0","trádlok","[""trádlok"",""trádlom""]","","posttest trial","4",""
"html-button-response-clever","134","881841","0.0-13.0-0.14","1496","Te bizony sokat flűmlesz. Én is sokat...","0","flűmlök","[""flűmlök"",""flűmlöm""]","","posttest trial","4",""
"html-button-response-clever","135","885105","0.0-13.0-0.15","2759","Te bizony sokat klétszel. Én is sokat...","0","klétszem","[""klétszem"",""klétszek""]","","posttest trial","4",""
"html-button-response-clever","136","886761","0.0-13.0-0.16","1151","Te bizony sokat tragzol. Én is sokat...","1","tragzom","[""tragzok"",""tragzom""]","","posttest trial","4",""
"html-button-response-clever","137","890937","0.0-13.0-0.17","3672","Te bizony sokat flátszol. Én is sokat...","1","flátszom","[""flátszok"",""flátszom""]","","posttest trial","4",""
"html-button-response-clever","138","892665","0.0-13.0-0.18","1224","Te bizony sokat pítszol. Én is sokat...","1","pítszok","[""pítszom"",""pítszok""]","","posttest trial","4",""
"html-button-response-clever","139","895009","0.0-13.0-0.19","1840","Te bizony sokat vülődzöl. Én is sokat...","1","vülődzök","[""vülődzöm"",""vülődzök""]","","posttest trial","4",""
"html-button-response-clever","140","898937","0.0-13.0-0.20","3423","Te bizony sokat lörűdzöl. Én is sokat...","1","lörűdzöm","[""lörűdzök"",""lörűdzöm""]","","posttest trial","4",""
"html-button-response-clever","141","901297","0.0-13.0-0.21","1855","Te bizony sokat düjzöl. Én is sokat...","1","düjzök","[""düjzöm"",""düjzök""]","","posttest trial","4",""
"html-button-response-clever","142","903745","0.0-13.0-0.22","1943","Te bizony sokat narádzol. Én is sokat...","1","narádzok","[""narádzom"",""narádzok""]","","posttest trial","4",""
"html-button-response-clever","143","906281","0.0-13.0-0.23","2032","Te bizony sokat prínylasz. Én is sokat...","0","prínylok","[""prínylok"",""prínylom""]","","posttest trial","4",""
"html-button-response-clever","144","909073","0.0-13.0-0.24","2288","Te bizony sokat spröbzöl. Én is sokat...","0","spröbzöm","[""spröbzöm"",""spröbzök""]","","posttest trial","4",""
"html-button-response-clever","145","911041","0.0-13.0-0.25","1463","Te bizony sokat spihemlesz. Én is sokat...","0","spihemlek","[""spihemlek"",""spihemlem""]","","posttest trial","4",""
"html-button-response-clever","146","913369","0.0-13.0-0.26","1823","Te bizony sokat filágzol. Én is sokat...","0","filágzom","[""filágzom"",""filágzok""]","","posttest trial","4",""
"html-button-response-clever","147","915737","0.0-13.0-0.27","1863","Te bizony sokat figlasz. Én is sokat...","1","figlok","[""figlom"",""figlok""]","","posttest trial","4",""
"html-button-response-clever","148","918009","0.0-13.0-0.28","1767","Te bizony sokat hurjorzol. Én is sokat...","0","hurjorzom","[""hurjorzom"",""hurjorzok""]","","posttest trial","4",""
"html-button-response-clever","149","919913","0.0-13.0-0.29","1399","Te bizony sokat sztrijzol. Én is sokat...","1","sztrijzok","[""sztrijzom"",""sztrijzok""]","","posttest trial","4",""
"html-button-response-clever","150","921529","0.0-13.0-0.30","1111","Te bizony sokat treglesz. Én is sokat...","0","treglek","[""treglek"",""treglem""]","","posttest trial","4",""
"html-button-response-clever","151","923657","0.0-13.0-0.31","1623","Te bizony sokat klivaslasz. Én is sokat...","0","klivaslok","[""klivaslok"",""klivaslom""]","","posttest trial","4",""
"html-button-response-clever","152","928217","0.0-13.0-0.32","4054","Te bizony sokat spülűdzöl. Én is sokat...","0","spülűdzök","[""spülűdzök"",""spülűdzöm""]","","posttest trial","4",""
"html-button-response-clever","153","931329","0.0-13.0-0.33","2607","Te bizony sokat plűbzöl. Én is sokat...","0","plűbzök","[""plűbzök"",""plűbzöm""]","","posttest trial","4",""
"html-button-response-clever","154","934665","0.0-13.0-0.34","2830","Te bizony sokat gyibeslesz. Én is sokat...","0","gyibeslem","[""gyibeslem"",""gyibeslek""]","","posttest trial","4",""
"html-button-response-clever","155","937097","0.0-13.0-0.35","1927","Te bizony sokat pribagszol. Én is sokat...","1","pribagszom","[""pribagszok"",""pribagszom""]","","posttest trial","4",""
"html-button-response-clever","156","939169","0.0-13.0-0.36","1567","Te bizony sokat huroslasz. Én is sokat...","0","huroslok","[""huroslok"",""huroslom""]","","posttest trial","4",""
"html-button-response-clever","157","941561","0.0-13.0-0.37","1887","Te bizony sokat szibánylasz. Én is sokat...","0","szibánylok","[""szibánylok"",""szibánylom""]","","posttest trial","4",""
"html-button-response-clever","158","944057","0.0-13.0-0.38","1991","Te bizony sokat brobódzol. Én is sokat...","1","brobódzom","[""brobódzok"",""brobódzom""]","","posttest trial","4",""
"html-button-response-clever","159","946873","0.0-13.0-0.39","2311","Te bizony sokat plugzol. Én is sokat...","0","plugzok","[""plugzok"",""plugzom""]","","posttest trial","4",""
"html-button-response-clever","160","948897","0.0-13.0-0.40","1519","Te bizony sokat brivegzel. Én is sokat...","0","brivegzek","[""brivegzek"",""brivegzem""]","","posttest trial","4",""
"html-button-response-clever","161","951049","0.0-13.0-0.41","1647","Te bizony sokat jonylasz. Én is sokat...","1","jonylom","[""jonylok"",""jonylom""]","","posttest trial","4",""
"html-button-response-clever","162","953161","0.0-13.0-0.42","1607","Te bizony sokat spáraklasz. Én is sokat...","0","spáraklok","[""spáraklok"",""spáraklom""]","","posttest trial","4",""
"html-button-response-clever","163","955208","0.0-13.0-0.43","1543","Te bizony sokat flehékszel. Én is sokat...","0","flehékszek","[""flehékszek"",""flehékszem""]","","posttest trial","4",""
"html-button-response-clever","164","957657","0.0-13.0-0.44","1943","Te bizony sokat hűgzöl. Én is sokat...","1","hűgzök","[""hűgzöm"",""hűgzök""]","","posttest trial","4",""
"html-button-response-clever","165","960009","0.0-13.0-0.45","1846","Te bizony sokat sztrűkszöl. Én is sokat...","1","sztrűkszöm","[""sztrűkszök"",""sztrűkszöm""]","","posttest trial","4",""
"html-button-response-clever","166","963041","0.0-13.0-0.46","2527","Te bizony sokat ibékszel. Én is sokat...","1","ibékszem","[""ibékszek"",""ibékszem""]","","posttest trial","4",""
"html-button-response-clever","167","965512","0.0-13.0-0.47","1966","Te bizony sokat bivégszel. Én is sokat...","1","bivégszek","[""bivégszem"",""bivégszek""]","","posttest trial","4",""
"html-button-response-clever","168","968825","0.0-13.0-0.48","2807","Te bizony sokat pribemlesz. Én is sokat...","1","pribemlek","[""pribemlem"",""pribemlek""]","","posttest trial","4",""
"html-button-response-clever","169","970705","0.0-13.0-0.49","1375","Te bizony sokat frodlasz. Én is sokat...","0","frodlok","[""frodlok"",""frodlom""]","","posttest trial","4",""
"html-button-response-clever","170","973864","0.0-13.0-0.50","2655","Te bizony sokat rájzol. Én is sokat...","0","rájzok","[""rájzok"",""rájzom""]","","posttest trial","4",""
"html-button-response-clever","171","977752","0.0-13.0-0.51","3383","Te bizony sokat klaráglasz. Én is sokat...","0","klaráglom","[""klaráglom"",""klaráglok""]","","posttest trial","4",""
"html-button-response-clever","172","980736","0.0-13.0-0.52","2478","Te bizony sokat trehégszel. Én is sokat...","1","trehégszem","[""trehégszek"",""trehégszem""]","","posttest trial","4",""
"html-button-response-clever","173","982528","0.0-13.0-0.53","1286","Te bizony sokat bihánylasz. Én is sokat...","0","bihánylok","[""bihánylok"",""bihánylom""]","","posttest trial","4",""
"html-button-response","174","987640","0.0-14.0","4605","<p> Vége a játéknak. A teljes pontszámod 38/54.</p><p> Szép munka! &#128526;&#128526;&#128526;</p><p>A Befejezés gomb megnyomása után bezárhatod a böngészőablakot.</p>","0","","","","","",""
"html-keyboard-response","175","993153","0.0-15.0","null","<div class=""message"">
         <p>Egy kis türelmet kérünk, amíg elmentjük az adatokat...</p>
         </div>","null","","","","","",""
