"trial_type","trial_index","time_elapsed","internal_node_id","rt","stimulus","response","response_string","choices","esp_response","trial_kind","list_number","esp_match"
"pavlovia","0","1353","0.0-0.0","","","","","","","","",""
"html-button-response","1","57015","0.0-1.0","55158","<p>Kedves Résztvevő! A Budapesti Műszaki és Gazdaságtudományi Egyetem Kognitív Tudományi Tanszékének kutatásában való részvételed kérjük. A kutatásban azt vizsgáljuk, hogy a magyar anyanyelvűek hogyan használnak bizonyos szóalakokat, és hogy milyen képük van arról, hogy mások hogyan használják, hogyan képzik a szavakat. Ez hozzásegít bennünket ahhoz, hogy jobban megértsük, hogyan dolgozza fel és tárolja a nyelvet az emberi agy, és hogyan működnek, hogyan változnak egy adott közösség nyelvi konvenciói.</p><p>A vizsgálat egy rövid számítógépes feladatból fog állni. A kutatásban való részvétel önkéntes, a részvételi szándék bármikor visszavonható. A résztvevők eredményeit név nélkül kezeljük, így nem beazonosíthatók az adatok feldolgozása során. Minden személyes adatot az EU általános adatvédelmi rendeletének (GDPR) megfelelően kezelünk és legfeljebb öt éven belül megsemmisítünk. A vizsgálat jellemzően húsz percet vesz igénybe.</p><p>Kutatásvezető:</p><p>Dr. Rácz Péter, tudományos munkatárs, BME KTT</p><p>e-mail: racz.peter.marton@ttk.bme.hu</p>","0","","","","","",""
"html-button-response","2","103065","0.0-2.0","45538","<p>A kísérletben szavakat fogsz látni. Ezek között lesznek olyanok, amelyeket ismersz, de előfordulhatnak olyanok is, amelyeket nem ismersz, sőt, vannak köztük kitalált szavak is. Minden szónál látni fogsz toldalékolt alakokat. A te feladatod az lesz, hogy minden szóhoz kiválaszd azt a toldalékolt alakot, amely a te számodra ismerősebben, természetesebben hangzik. Rossz válaszok nincsenek, mert van olyan, hogy különböző embereknek más és más szó tűnik jobb választásnak. A választ úgy tudod majd kiválasztani, ha rákattintasz.</p><p>Ebben a szóválasztós játékban egy másik játékossal együtt veszel majd részt. A másik játékos is minden esetben azok közül a lehetőségek közül válogathat, mint te. Kettőtök feladata az, hogy ugyanazt a lehetőséget válasszátok minden esetben. Ahhoz, hogy ez sikerüljön, neked figyelned kell arra, hogy a másik játékos milyen válaszokat ad, és ennek alapján meg kell tippelned, hogyan választ legközelebb. Ha eltalálod, akkor pontot kapsz.</p>","0","","","","","",""
"html-button-response","3","118836","0.0-3.0","15260","<p>Kérjük, olvasd el az alábbi nyilatkozatot, és amennyiben egyetértesz vele, nyomj a Beleegyezés gombra!</p><p>Kijelentem, hogy magyar anyanyelvű személyként önként veszek részt a BME KTT kísérletében. A kutatás céljával és folyamatával kapcsolatban elegendő tájékoztatást kaptam, lehetőségem volt kérdések feltételére, és esetleges kérdéseimre megfelelő válaszokat kaptam. A tájékoztatás alapján elegendő mennyiségű információ áll a rendelkezésemre, hogy eldönthessem, részt kívánok-e venni a kutatásban.</p><p>Tisztában vagyok vele, hogy részvételi szándékomat és adataimat bármikor, indoklás nélkül visszavonhatom.</p><p>Értem és tudomásul veszem, hogy a kutatás tudományos célokat szolgál, és az általam szolgáltatott adatokat a BME kizárólag kutatási célból használja fel. Tudomásul veszem, hogy eredményeimet a többi résztvevő eredményeivel együtt kezelik, így egyéni teljesítményemről visszajelzést, szakvéleményt nem kapok.</p><p>Megértettem, hogy adataim kezelését illetően a BME az EU általános adatvédelmi rendelete (GDPR), a hatályos adatvédelmi törvény és a nemzetközi kutatás-etikai alapelvek szerint jár el. Eredményeim anonim módon kerülnek feldolgozásra, és a kutatás résztvevői az azonosításomra alkalmas adataimat harmadik félnek nem szolgáltatják ki. Engedélyezem a BME számára a jelen kutatásban felvett adataim feldolgozását és tárolását, beleértve azok későbbi kutatásokhoz való felhasználását is. Személyes adataim kezelésével kapcsolatban tájékoztatást kérhetek a kutatás résztvevőitől, az adatkezelés ellen tiltakozhatok, kérhetem személyes adataim helyesbítését, törlését vagy zárolását, valamint jogorvoslatért a Nemzeti Adatvédelmi és Információszabadság Hatósághoz fordulhatok.</p><p>Kijelentem, hogy a kutatásban való részvételem körülményeiről részletes tájékoztatást kaptam, és a feltételeket elfogadom.</p>","0","","","","","",""
"survey-text","4","186039","0.0-4.0","66665","","{""Q0"":""N8IJ31"",""Q1"":""nő"",""Q2"":""1999"",""Q3"":""15""}","","","","","",""
"html-button-response","5","216384","0.0-5.0","29827","<p>Ebben a játékban szavakat kell toldalékolni.</p> <p>Minden körben mutatunk majd egy példamondatot, amiben lesz egy szó.</p> <p>Alatta jön egy második mondat, ezt a mondatot neked kell majd befejezni, ugyanezzel a szóval.</p> <p>Nem biztos, hogy a szó eleve ismerős lesz számodra!</p> <p>Minden mondathoz adunk két lehetőséget, ezeket balra és jobbra látod majd.</p> <p>A játék kb. negyedóráig-húsz percig tart.</p>","0","","","","","",""
"html-button-response","6","229488","0.0-6.0","12595","<p>Nézzünk egy példát!</p> <p>A példamondat: ""Ez itt egy blumbnyeg.""</p><p>Neked ezt a mondatot kell befejezned: ""Ott vagyunk a...""</p><p>A lehetőségek pedig ezek:</p>","0","","","","","",""
"html-button-response","7","239113","0.0-7.0","9123","<p>Nagyon jó.</p><p>Ezt a játékot nem egyedül fogod játszani, hanem egy másik játékossal.</p><p>Mielőtt továbblépünk, összekapcsolunk titeket egymással.</p><p>Ez igénybe vehet néhány másodpercet, amihez szíves türelmed kérjük.</p>","0","","","","","",""
"html-button-response","8","244848","0.0-8.0","null","<p>Csatlakozás a másik játékoshoz...</p>","null","","","","","",""
"html-button-response","9","247362","0.0-9.0","null","<p> Sikeres kapcsolódás!</p>","null","","","","","",""
"html-button-response","10","257875","0.0-10.0","null","<p>A következőkben ketten játsszátok a szóválasztós játékot.</p><p>A feladatotok az lesz, hogy minden körben <b>ugyanazt</b> a szót válasszátok.</p><p>Minden ilyen egyező válaszért pontot kaptok.</p><p>Próbáld meg kitalálni, mit választ a másik játékos!</p><p>Bármikor választhatsz, a körnek akkor van vége, ha mindketten döntöttetek.</p><p>Sok sikert!</p>","null","","","","","",""
"html-button-response-esp","11","263897","0.0-11.0-0.0","4766","Ez itt egy szihét. Elneveztem a kutyámat...","0","szihétnek","[""szihétnek"",""szihétnak""]","szihétnak","esp trial","10","false"
"html-button-response","12","267423","0.0-11.0-1.0","null","<p>A másik játékos ezt választotta: <b>szihétnak</b>.</p><p>&#10060;</p><p>A válaszaitok <b>nem</b> egyeznek meg.</p>","null","","","","feedback trial","",""
"html-button-response-esp","13","273437","0.0-11.0-0.1","4737","Ez itt egy kadér. Nincs is jobb egy jó...","0","kadérnál","[""kadérnál"",""kadérnél""]","kadérnél","esp trial","10","false"
"html-button-response","14","276945","0.0-11.0-1.1","null","<p>A másik játékos ezt választotta: <b>kadérnél</b>.</p><p>&#10060;</p><p>A válaszaitok <b>nem</b> egyeznek meg.</p>","null","","","","feedback trial","",""
"html-button-response-esp","15","282951","0.0-11.0-0.2","4364","Ez itt egy brotes. Ott vagyunk a...","1","brotesban","[""brotesben"",""brotesban""]","brotesben","esp trial","10","false"
"html-button-response","16","286463","0.0-11.0-1.2","null","<p>A másik játékos ezt választotta: <b>brotesben</b>.</p><p>&#10060;</p><p>A válaszaitok <b>nem</b> egyeznek meg.</p>","null","","","","feedback trial","",""
"html-button-response-esp","17","292484","0.0-11.0-0.3","4913","Ez itt egy lismév. Ott vagyunk a...","0","lismévben","[""lismévben"",""lismévban""]","lismévben","esp trial","10","true"
"html-button-response","18","296011","0.0-11.0-1.3","null","<p>A másik játékos ezt választotta: <b>lismévben</b>.</p><p>&#x2705;</p><p>A te válaszod és a másik játékos válasza <b>megegyeznek</b>.</p>","null","","","","feedback trial","",""
"html-button-response-esp","19","302025","0.0-11.0-0.4","5204","Ez itt egy ronvet. Elneveztem a kutyámat...","0","ronvetnak","[""ronvetnak"",""ronvetnek""]","ronvetnek","esp trial","10","false"
"html-button-response","20","305548","0.0-11.0-1.4","null","<p>A másik játékos ezt választotta: <b>ronvetnek</b>.</p><p>&#10060;</p><p>A válaszaitok <b>nem</b> egyeznek meg.</p>","null","","","","feedback trial","",""
"html-button-response-esp","21","311552","0.0-11.0-0.5","4812","Ez itt egy tranék. Ott vagyunk a...","0","tranékban","[""tranékban"",""tranékben""]","tranékben","esp trial","10","false"
"html-button-response","22","315062","0.0-11.0-1.5","null","<p>A másik játékos ezt választotta: <b>tranékben</b>.</p><p>&#10060;</p><p>A válaszaitok <b>nem</b> egyeznek meg.</p>","null","","","","feedback trial","",""
"html-button-response-esp","23","321080","0.0-11.0-0.6","3548","Ez itt egy hóbens. Ott vagyunk a...","1","hóbensben","[""hóbensban"",""hóbensben""]","hóbensben","esp trial","10","true"
"html-button-response","24","324590","0.0-11.0-1.6","null","<p>A másik játékos ezt választotta: <b>hóbensben</b>.</p><p>&#x2705;</p><p>A te válaszod és a másik játékos válasza <b>megegyeznek</b>.</p>","null","","","","feedback trial","",""
"html-button-response-esp","25","331409","0.0-11.0-0.7","6316","Ez itt egy jalrény. Nincs is jobb egy jó...","0","jalrénynél","[""jalrénynél"",""jalrénynál""]","jalrénynél","esp trial","10","true"
"html-button-response","26","334921","0.0-11.0-1.7","null","<p>A másik játékos ezt választotta: <b>jalrénynél</b>.</p><p>&#x2705;</p><p>A te válaszod és a másik játékos válasza <b>megegyeznek</b>.</p>","null","","","","feedback trial","",""
"html-button-response-esp","27","340938","0.0-11.0-0.8","3675","Ez itt egy bidem. Ott vagyunk a...","0","bidemben","[""bidemben"",""bidemban""]","bidemban","esp trial","10","false"
"html-button-response","28","344469","0.0-11.0-1.8","null","<p>A másik játékos ezt választotta: <b>bidemban</b>.</p><p>&#10060;</p><p>A válaszaitok <b>nem</b> egyeznek meg.</p>","null","","","","feedback trial","",""
"html-button-response-esp","29","350473","0.0-11.0-0.9","5455","Ez itt egy buhény. Ott vagyunk a...","0","buhényban","[""buhényban"",""buhényben""]","buhényben","esp trial","10","false"
"html-button-response","30","353999","0.0-11.0-1.9","null","<p>A másik játékos ezt választotta: <b>buhényben</b>.</p><p>&#10060;</p><p>A válaszaitok <b>nem</b> egyeznek meg.</p>","null","","","","feedback trial","",""
"html-button-response-esp","31","360027","0.0-11.0-0.10","3923","Ez itt egy trigenc. Elneveztem a kutyámat...","1","trigencnek","[""trigencnak"",""trigencnek""]","trigencnak","esp trial","10","false"
"html-button-response","32","363533","0.0-11.0-1.10","null","<p>A másik játékos ezt választotta: <b>trigencnak</b>.</p><p>&#10060;</p><p>A válaszaitok <b>nem</b> egyeznek meg.</p>","null","","","","feedback trial","",""
"html-button-response-esp","33","372423","0.0-11.0-0.11","8369","Ez itt egy klordény. Elneveztem a kutyámat...","0","klordénynak","[""klordénynak"",""klordénynek""]","klordénynek","esp trial","10","false"
"html-button-response","34","375933","0.0-11.0-1.11","null","<p>A másik játékos ezt választotta: <b>klordénynek</b>.</p><p>&#10060;</p><p>A válaszaitok <b>nem</b> egyeznek meg.</p>","null","","","","feedback trial","",""
"html-button-response-esp","35","381945","0.0-11.0-0.12","3246","Ez itt egy dingec. Elneveztem a kutyámat...","1","dingecnek","[""dingecnak"",""dingecnek""]","dingecnak","esp trial","10","false"
"html-button-response","36","385462","0.0-11.0-1.12","null","<p>A másik játékos ezt választotta: <b>dingecnak</b>.</p><p>&#10060;</p><p>A válaszaitok <b>nem</b> egyeznek meg.</p>","null","","","","feedback trial","",""
"html-button-response-esp","37","391479","0.0-11.0-0.13","4227","Ez itt egy nyarcéj. Elneveztem a kutyámat...","1","nyarcéjnak","[""nyarcéjnek"",""nyarcéjnak""]","nyarcéjnek","esp trial","10","false"
"html-button-response","38","395000","0.0-11.0-1.13","null","<p>A másik játékos ezt választotta: <b>nyarcéjnek</b>.</p><p>&#10060;</p><p>A válaszaitok <b>nem</b> egyeznek meg.</p>","null","","","","feedback trial","",""
"html-button-response-esp","39","401018","0.0-11.0-0.14","4973","Ez itt egy szutend. Ott vagyunk a...","1","szutendben","[""szutendban"",""szutendben""]","szutendben","esp trial","10","true"
"html-button-response","40","404539","0.0-11.0-1.14","null","<p>A másik játékos ezt választotta: <b>szutendben</b>.</p><p>&#x2705;</p><p>A te válaszod és a másik játékos válasza <b>megegyeznek</b>.</p>","null","","","","feedback trial","",""
"html-button-response-esp","41","410554","0.0-11.0-0.15","3558","Ez itt egy navec. Ott vagyunk a...","1","navecban","[""navecben"",""navecban""]","navecben","esp trial","10","false"
"html-button-response","42","414071","0.0-11.0-1.15","null","<p>A másik játékos ezt választotta: <b>navecben</b>.</p><p>&#10060;</p><p>A válaszaitok <b>nem</b> egyeznek meg.</p>","null","","","","feedback trial","",""
"html-button-response-esp","43","420791","0.0-11.0-0.16","6219","Ez itt egy sporzem. Elneveztem a kutyámat...","1","sporzemnek","[""sporzemnak"",""sporzemnek""]","sporzemnek","esp trial","10","true"
"html-button-response","44","424295","0.0-11.0-1.16","null","<p>A másik játékos ezt választotta: <b>sporzemnek</b>.</p><p>&#x2705;</p><p>A te válaszod és a másik játékos válasza <b>megegyeznek</b>.</p>","null","","","","feedback trial","",""
"html-button-response-esp","45","431924","0.0-11.0-0.17","7112","Ez itt egy sprízem. Nincs is jobb egy jó...","1","sprízemnél","[""sprízemnál"",""sprízemnél""]","sprízemnál","esp trial","10","false"
"html-button-response","46","435435","0.0-11.0-1.17","null","<p>A másik játékos ezt választotta: <b>sprízemnál</b>.</p><p>&#10060;</p><p>A válaszaitok <b>nem</b> egyeznek meg.</p>","null","","","","feedback trial","",""
"html-button-response-esp","47","443445","0.0-11.0-0.18","7506","Ez itt egy jorzég. Elneveztem a kutyámat...","0","jorzégnek","[""jorzégnek"",""jorzégnak""]","jorzégnek","esp trial","10","true"
"html-button-response","48","446962","0.0-11.0-1.18","null","<p>A másik játékos ezt választotta: <b>jorzégnek</b>.</p><p>&#x2705;</p><p>A te válaszod és a másik játékos válasza <b>megegyeznek</b>.</p>","null","","","","feedback trial","",""
"html-button-response-esp","49","452975","0.0-11.0-0.19","4820","Ez itt egy zsopéd. Ott vagyunk a...","1","zsopédban","[""zsopédben"",""zsopédban""]","zsopédben","esp trial","10","false"
"html-button-response","50","456501","0.0-11.0-1.19","null","<p>A másik játékos ezt választotta: <b>zsopédben</b>.</p><p>&#10060;</p><p>A válaszaitok <b>nem</b> egyeznek meg.</p>","null","","","","feedback trial","",""
"html-button-response-esp","51","462911","0.0-11.0-0.20","5908","Ez itt egy fincek. Nincs is jobb egy jó...","1","finceknál","[""finceknél"",""finceknál""]","finceknél","esp trial","10","false"
"html-button-response","52","466420","0.0-11.0-1.20","null","<p>A másik játékos ezt választotta: <b>finceknél</b>.</p><p>&#10060;</p><p>A válaszaitok <b>nem</b> egyeznek meg.</p>","null","","","","feedback trial","",""
"html-button-response-esp","53","472431","0.0-11.0-0.21","2626","Ez itt egy trincseg. Ott vagyunk a...","0","trincsegben","[""trincsegben"",""trincsegban""]","trincsegban","esp trial","10","false"
"html-button-response","54","475940","0.0-11.0-1.21","null","<p>A másik játékos ezt választotta: <b>trincsegban</b>.</p><p>&#10060;</p><p>A válaszaitok <b>nem</b> egyeznek meg.</p>","null","","","","feedback trial","",""
"html-button-response-esp","55","481959","0.0-11.0-0.22","4298","Ez itt egy hivép. Ott vagyunk a...","0","hivépben","[""hivépben"",""hivépban""]","hivépben","esp trial","10","true"
"html-button-response","56","485474","0.0-11.0-1.22","null","<p>A másik játékos ezt választotta: <b>hivépben</b>.</p><p>&#x2705;</p><p>A te válaszod és a másik játékos válasza <b>megegyeznek</b>.</p>","null","","","","feedback trial","",""
"html-button-response-esp","57","491488","0.0-11.0-0.23","3793","Ez itt egy brágéd. Elneveztem a kutyámat...","1","brágédnak","[""brágédnek"",""brágédnak""]","brágédnek","esp trial","10","false"
"html-button-response","58","494999","0.0-11.0-1.23","null","<p>A másik játékos ezt választotta: <b>brágédnek</b>.</p><p>&#10060;</p><p>A válaszaitok <b>nem</b> egyeznek meg.</p>","null","","","","feedback trial","",""
"html-button-response-esp","59","502433","0.0-11.0-0.24","6931","Ez itt egy kluhéj. Nincs is jobb egy jó...","1","kluhéjnál","[""kluhéjnél"",""kluhéjnál""]","kluhéjnél","esp trial","10","false"
"html-button-response","60","505952","0.0-11.0-1.24","null","<p>A másik játékos ezt választotta: <b>kluhéjnél</b>.</p><p>&#10060;</p><p>A válaszaitok <b>nem</b> egyeznek meg.</p>","null","","","","feedback trial","",""
"html-button-response-esp","61","524196","0.0-11.0-0.25","17742","Ez itt egy nyábét. Ott vagyunk a...","1","nyábétban","[""nyábétben"",""nyábétban""]","nyábétben","esp trial","10","false"
"html-button-response","62","527712","0.0-11.0-1.25","null","<p>A másik játékos ezt választotta: <b>nyábétben</b>.</p><p>&#10060;</p><p>A válaszaitok <b>nem</b> egyeznek meg.</p>","null","","","","feedback trial","",""
"html-button-response-esp","63","533745","0.0-11.0-0.26","4204","Ez itt egy jábéz. Ott vagyunk a...","1","jábézban","[""jábézben"",""jábézban""]","jábézben","esp trial","10","false"
"html-button-response","64","537265","0.0-11.0-1.26","null","<p>A másik játékos ezt választotta: <b>jábézben</b>.</p><p>&#10060;</p><p>A válaszaitok <b>nem</b> egyeznek meg.</p>","null","","","","feedback trial","",""
"html-button-response-esp","65","543270","0.0-11.0-0.27","3342","Ez itt egy nidét. Ott vagyunk a...","0","nidétben","[""nidétben"",""nidétban""]","nidétban","esp trial","10","false"
"html-button-response","66","546781","0.0-11.0-1.27","null","<p>A másik játékos ezt választotta: <b>nidétban</b>.</p><p>&#10060;</p><p>A válaszaitok <b>nem</b> egyeznek meg.</p>","null","","","","feedback trial","",""
"html-button-response-esp","67","552793","0.0-11.0-0.28","3182","Ez itt egy brigeszt. Elneveztem a kutyámat...","0","brigesztnek","[""brigesztnek"",""brigesztnak""]","brigesztnak","esp trial","10","false"
"html-button-response","68","556320","0.0-11.0-1.28","null","<p>A másik játékos ezt választotta: <b>brigesztnak</b>.</p><p>&#10060;</p><p>A válaszaitok <b>nem</b> egyeznek meg.</p>","null","","","","feedback trial","",""
"html-button-response-esp","69","562353","0.0-11.0-0.29","5001","Ez itt egy fádens. Elneveztem a kutyámat...","1","fádensnak","[""fádensnek"",""fádensnak""]","fádensnek","esp trial","10","false"
"html-button-response","70","565880","0.0-11.0-1.29","null","<p>A másik játékos ezt választotta: <b>fádensnek</b>.</p><p>&#10060;</p><p>A válaszaitok <b>nem</b> egyeznek meg.</p>","null","","","","feedback trial","",""
"html-button-response-esp","71","571894","0.0-11.0-0.30","2550","Ez itt egy vodép. Elneveztem a kutyámat...","0","vodépnek","[""vodépnek"",""vodépnak""]","vodépnek","esp trial","10","true"
"html-button-response","72","575397","0.0-11.0-1.30","null","<p>A másik játékos ezt választotta: <b>vodépnek</b>.</p><p>&#x2705;</p><p>A te válaszod és a másik játékos válasza <b>megegyeznek</b>.</p>","null","","","","feedback trial","",""
"html-button-response-esp","73","583023","0.0-11.0-0.31","7110","Ez itt egy júder. Elneveztem a kutyámat...","1","júdernek","[""júdernak"",""júdernek""]","júdernek","esp trial","10","true"
"html-button-response","74","586542","0.0-11.0-1.31","null","<p>A másik játékos ezt választotta: <b>júdernek</b>.</p><p>&#x2705;</p><p>A te válaszod és a másik játékos válasza <b>megegyeznek</b>.</p>","null","","","","feedback trial","",""
"html-button-response-esp","75","592572","0.0-11.0-0.32","3912","Ez itt egy sartely. Ott vagyunk a...","0","sartelyban","[""sartelyban"",""sartelyben""]","sartelyben","esp trial","10","false"
"html-button-response","76","596096","0.0-11.0-1.32","null","<p>A másik játékos ezt választotta: <b>sartelyben</b>.</p><p>&#10060;</p><p>A válaszaitok <b>nem</b> egyeznek meg.</p>","null","","","","feedback trial","",""
"html-button-response-esp","77","602106","0.0-11.0-0.33","3861","Ez itt egy csimen. Nincs is jobb egy jó...","0","csimennél","[""csimennél"",""csimennál""]","csimennál","esp trial","10","false"
"html-button-response","78","605642","0.0-11.0-1.33","null","<p>A másik játékos ezt választotta: <b>csimennál</b>.</p><p>&#10060;</p><p>A válaszaitok <b>nem</b> egyeznek meg.</p>","null","","","","feedback trial","",""
"html-button-response-esp","79","611667","0.0-11.0-0.34","4268","Ez itt egy gonszék. Nincs is jobb egy jó...","0","gonszéknél","[""gonszéknél"",""gonszéknál""]","gonszéknél","esp trial","10","true"
"html-button-response","80","615190","0.0-11.0-1.34","null","<p>A másik játékos ezt választotta: <b>gonszéknél</b>.</p><p>&#x2705;</p><p>A te válaszod és a másik játékos válasza <b>megegyeznek</b>.</p>","null","","","","feedback trial","",""
"html-button-response-esp","81","621201","0.0-11.0-0.35","3093","Ez itt egy giheszt. Elneveztem a kutyámat...","1","gihesztnek","[""gihesztnak"",""gihesztnek""]","gihesztnak","esp trial","10","false"
"html-button-response","82","624713","0.0-11.0-1.35","null","<p>A másik játékos ezt választotta: <b>gihesztnak</b>.</p><p>&#10060;</p><p>A válaszaitok <b>nem</b> egyeznek meg.</p>","null","","","","feedback trial","",""
"html-button-response-esp","83","630723","0.0-11.0-0.36","3637","Ez itt egy csartény. Elneveztem a kutyámat...","0","csarténynak","[""csarténynak"",""csarténynek""]","csarténynek","esp trial","10","false"
"html-button-response","84","634236","0.0-11.0-1.36","null","<p>A másik játékos ezt választotta: <b>csarténynek</b>.</p><p>&#10060;</p><p>A válaszaitok <b>nem</b> egyeznek meg.</p>","null","","","","feedback trial","",""
"html-button-response-esp","85","640266","0.0-11.0-0.37","3172","Ez itt egy spáten. Elneveztem a kutyámat...","1","spátennek","[""spátennak"",""spátennek""]","spátennek","esp trial","10","true"
"html-button-response","86","643789","0.0-11.0-1.37","null","<p>A másik játékos ezt választotta: <b>spátennek</b>.</p><p>&#x2705;</p><p>A te válaszod és a másik játékos válasza <b>megegyeznek</b>.</p>","null","","","","feedback trial","",""
"html-button-response-esp","87","649807","0.0-11.0-0.38","4001","Ez itt egy forzéd. Elneveztem a kutyámat...","0","forzédnek","[""forzédnek"",""forzédnak""]","forzédnek","esp trial","10","true"
"html-button-response","88","653319","0.0-11.0-1.38","null","<p>A másik játékos ezt választotta: <b>forzédnek</b>.</p><p>&#x2705;</p><p>A te válaszod és a másik játékos válasza <b>megegyeznek</b>.</p>","null","","","","feedback trial","",""
"html-button-response-esp","89","659334","0.0-11.0-0.39","2652","Ez itt egy vublet. Nincs is jobb egy jó...","1","vubletnél","[""vubletnál"",""vubletnél""]","vubletnél","esp trial","10","true"
"html-button-response","90","662862","0.0-11.0-1.39","null","<p>A másik játékos ezt választotta: <b>vubletnél</b>.</p><p>&#x2705;</p><p>A te válaszod és a másik játékos válasza <b>megegyeznek</b>.</p>","null","","","","feedback trial","",""
"html-button-response-esp","91","668880","0.0-11.0-0.40","4027","Ez itt egy brukész. Nincs is jobb egy jó...","0","brukésznél","[""brukésznél"",""brukésznál""]","brukésznél","esp trial","10","true"
"html-button-response","92","672405","0.0-11.0-1.40","null","<p>A másik játékos ezt választotta: <b>brukésznél</b>.</p><p>&#x2705;</p><p>A te válaszod és a másik játékos válasza <b>megegyeznek</b>.</p>","null","","","","feedback trial","",""
"html-button-response-esp","93","678424","0.0-11.0-0.41","3635","Ez itt egy csinték. Ott vagyunk a...","1","csintékben","[""csintékban"",""csintékben""]","csintékben","esp trial","10","true"
"html-button-response","94","681950","0.0-11.0-1.41","null","<p>A másik játékos ezt választotta: <b>csintékben</b>.</p><p>&#x2705;</p><p>A te válaszod és a másik játékos válasza <b>megegyeznek</b>.</p>","null","","","","feedback trial","",""
"html-button-response-esp","95","687971","0.0-11.0-0.42","2947","Ez itt egy licegy. Ott vagyunk a...","1","licegyben","[""licegyban"",""licegyben""]","licegyban","esp trial","10","false"
"html-button-response","96","691489","0.0-11.0-1.42","null","<p>A másik játékos ezt választotta: <b>licegyban</b>.</p><p>&#10060;</p><p>A válaszaitok <b>nem</b> egyeznek meg.</p>","null","","","","feedback trial","",""
"html-button-response-esp","97","697496","0.0-11.0-0.43","2329","Ez itt egy gicéj. Nincs is jobb egy jó...","1","gicéjnél","[""gicéjnál"",""gicéjnél""]","gicéjnál","esp trial","10","false"
"html-button-response","98","701013","0.0-11.0-1.43","null","<p>A másik játékos ezt választotta: <b>gicéjnál</b>.</p><p>&#10060;</p><p>A válaszaitok <b>nem</b> egyeznek meg.</p>","null","","","","feedback trial","",""
"html-button-response-esp","99","707854","0.0-11.0-0.44","6324","Ez itt egy prately. Elneveztem a kutyámat...","1","pratelynak","[""pratelynek"",""pratelynak""]","pratelynek","esp trial","10","false"
"html-button-response","100","711384","0.0-11.0-1.44","null","<p>A másik játékos ezt választotta: <b>pratelynek</b>.</p><p>&#10060;</p><p>A válaszaitok <b>nem</b> egyeznek meg.</p>","null","","","","feedback trial","",""
"html-button-response-esp","101","717409","0.0-11.0-0.45","4966","Ez itt egy trapszegy. Nincs is jobb egy jó...","0","trapszegynél","[""trapszegynél"",""trapszegynál""]","trapszegynél","esp trial","10","true"
"html-button-response","102","720926","0.0-11.0-1.45","null","<p>A másik játékos ezt választotta: <b>trapszegynél</b>.</p><p>&#x2705;</p><p>A te válaszod és a másik játékos válasza <b>megegyeznek</b>.</p>","null","","","","feedback trial","",""
"html-button-response-esp","103","726937","0.0-11.0-0.46","2013","Ez itt egy kábesz. Nincs is jobb egy jó...","0","kábesznél","[""kábesznél"",""kábesznál""]","kábesznél","esp trial","10","true"
"html-button-response","104","730447","0.0-11.0-1.46","null","<p>A másik játékos ezt választotta: <b>kábesznél</b>.</p><p>&#x2705;</p><p>A te válaszod és a másik játékos válasza <b>megegyeznek</b>.</p>","null","","","","feedback trial","",""
"html-button-response-esp","105","736460","0.0-11.0-0.47","3915","Ez itt egy tránély. Elneveztem a kutyámat...","0","tránélynek","[""tránélynek"",""tránélynak""]","tránélynek","esp trial","10","true"
"html-button-response","106","739980","0.0-11.0-1.47","null","<p>A másik játékos ezt választotta: <b>tránélynek</b>.</p><p>&#x2705;</p><p>A te válaszod és a másik játékos válasza <b>megegyeznek</b>.</p>","null","","","","feedback trial","",""
"html-button-response-esp","107","745989","0.0-11.0-0.48","4878","Ez itt egy matéz. Ott vagyunk a...","1","matézben","[""matézban"",""matézben""]","matézben","esp trial","10","true"
"html-button-response","108","749492","0.0-11.0-1.48","null","<p>A másik játékos ezt választotta: <b>matézben</b>.</p><p>&#x2705;</p><p>A te válaszod és a másik játékos válasza <b>megegyeznek</b>.</p>","null","","","","feedback trial","",""
"html-button-response-esp","109","755503","0.0-11.0-0.49","2999","Ez itt egy gótem. Elneveztem a kutyámat...","0","gótemnek","[""gótemnek"",""gótemnak""]","gótemnek","esp trial","10","true"
"html-button-response","110","759012","0.0-11.0-1.49","null","<p>A másik játékos ezt választotta: <b>gótemnek</b>.</p><p>&#x2705;</p><p>A te válaszod és a másik játékos válasza <b>megegyeznek</b>.</p>","null","","","","feedback trial","",""
"html-button-response-esp","111","765026","0.0-11.0-0.50","4702","Ez itt egy ikszert. Ott vagyunk a...","1","ikszertben","[""ikszertban"",""ikszertben""]","ikszertban","esp trial","10","false"
"html-button-response","112","768542","0.0-11.0-1.50","null","<p>A másik játékos ezt választotta: <b>ikszertban</b>.</p><p>&#10060;</p><p>A válaszaitok <b>nem</b> egyeznek meg.</p>","null","","","","feedback trial","",""
"html-button-response-esp","113","774561","0.0-11.0-0.51","3073","Ez itt egy kliszer. Nincs is jobb egy jó...","0","kliszernél","[""kliszernél"",""kliszernál""]","kliszernál","esp trial","10","false"
"html-button-response","114","778071","0.0-11.0-1.51","null","<p>A másik játékos ezt választotta: <b>kliszernál</b>.</p><p>&#10060;</p><p>A válaszaitok <b>nem</b> egyeznek meg.</p>","null","","","","feedback trial","",""
"html-button-response-esp","115","785687","0.0-11.0-0.52","7114","Ez itt egy priszkenc. Elneveztem a kutyámat...","0","priszkencnek","[""priszkencnek"",""priszkencnak""]","priszkencnak","esp trial","10","false"
"html-button-response","116","789209","0.0-11.0-1.52","null","<p>A másik játékos ezt választotta: <b>priszkencnak</b>.</p><p>&#10060;</p><p>A válaszaitok <b>nem</b> egyeznek meg.</p>","null","","","","feedback trial","",""
"html-button-response-esp","117","795229","0.0-11.0-0.53","3833","Ez itt egy bródesz. Elneveztem a kutyámat...","0","bródesznek","[""bródesznek"",""bródesznak""]","bródesznek","esp trial","10","true"
"html-button-response","118","798743","0.0-11.0-1.53","null","<p>A másik játékos ezt választotta: <b>bródesznek</b>.</p><p>&#x2705;</p><p>A te válaszod és a másik játékos válasza <b>megegyeznek</b>.</p>","null","","","","feedback trial","",""
"html-button-response","119","812565","0.0-12.0","13293","<p>A közös játék most véget ért.</p><p>Mielőtt eláruljuk a végső pontszámodat, arra kérlek, játszd a szóválasztós játékot néhány percig egyedül is.</p><p>A feladatod ugyanaz lesz, választani két lehetőség közül.</p><p>Most viszont egyedül kell döntened, hogy te melyiket választanád.</p>","0","","","","","",""
"html-button-response-clever","120","816591","0.0-13.0-0.0","3515","Ez itt egy ronszek. Ott vagyunk a...","0","ronszekben","[""ronszekben"",""ronszekban""]","","posttest trial","1",""
"html-button-response-clever","121","821267","0.0-13.0-0.1","4158","Ez itt egy spicet. Elneveztem a kutyámat...","1","spicetnek","[""spicetnak"",""spicetnek""]","","posttest trial","1",""
"html-button-response-clever","122","824291","0.0-13.0-0.2","2512","Ez itt egy brindez. Elneveztem a kutyámat...","1","brindeznek","[""brindeznak"",""brindeznek""]","","posttest trial","1",""
"html-button-response-clever","123","829802","0.0-13.0-0.3","5001","Ez itt egy danét. Nincs is jobb egy jó...","1","danétnél","[""danétnál"",""danétnél""]","","posttest trial","1",""
"html-button-response-clever","124","832909","0.0-13.0-0.4","2592","Ez itt egy incéj. Elneveztem a kutyámat...","1","incéjnek","[""incéjnak"",""incéjnek""]","","posttest trial","1",""
"html-button-response-clever","125","837397","0.0-13.0-0.5","3982","Ez itt egy spumény. Elneveztem a kutyámat...","1","spuménynek","[""spuménynak"",""spuménynek""]","","posttest trial","1",""
"html-button-response-clever","126","844865","0.0-13.0-0.6","6951","Ez itt egy jóbec. Elneveztem a kutyámat...","0","jóbecnek","[""jóbecnek"",""jóbecnak""]","","posttest trial","1",""
"html-button-response-clever","127","850062","0.0-13.0-0.7","4686","Ez itt egy klosét. Elneveztem a kutyámat...","1","klosétnak","[""klosétnek"",""klosétnak""]","","posttest trial","1",""
"html-button-response-clever","128","855782","0.0-13.0-0.8","5209","Ez itt egy monveg. Nincs is jobb egy jó...","1","monvegnél","[""monvegnál"",""monvegnél""]","","posttest trial","1",""
"html-button-response-clever","129","860808","0.0-13.0-0.9","4517","Ez itt egy zsúdel. Elneveztem a kutyámat...","1","zsúdelnek","[""zsúdelnak"",""zsúdelnek""]","","posttest trial","1",""
"html-button-response-clever","130","867640","0.0-13.0-0.10","6328","Ez itt egy trájeg. Ott vagyunk a...","0","trájegben","[""trájegben"",""trájegban""]","","posttest trial","1",""
"html-button-response-clever","131","873002","0.0-13.0-0.11","4850","Ez itt egy dorzéj. Elneveztem a kutyámat...","0","dorzéjnak","[""dorzéjnak"",""dorzéjnek""]","","posttest trial","1",""
"html-button-response-clever","132","878416","0.0-13.0-0.12","4910","Ez itt egy lorzens. Nincs is jobb egy jó...","0","lorzensnél","[""lorzensnél"",""lorzensnál""]","","posttest trial","1",""
"html-button-response-clever","133","882912","0.0-13.0-0.13","3993","Ez itt egy spábét. Ott vagyunk a...","0","spábétben","[""spábétben"",""spábétban""]","","posttest trial","1",""
"html-button-response-clever","134","889654","0.0-13.0-0.14","6224","Ez itt egy bupéz. Ott vagyunk a...","1","bupézban","[""bupézben"",""bupézban""]","","posttest trial","1",""
"html-button-response-clever","135","894651","0.0-13.0-0.15","4491","Ez itt egy dalenc. Nincs is jobb egy jó...","1","dalencnél","[""dalencnál"",""dalencnél""]","","posttest trial","1",""
"html-button-response-clever","136","898608","0.0-13.0-0.16","3442","Ez itt egy pivéd. Ott vagyunk a...","1","pivédben","[""pivédban"",""pivédben""]","","posttest trial","1",""
"html-button-response-clever","137","905127","0.0-13.0-0.17","6013","Ez itt egy bralkép. Ott vagyunk a...","0","bralképben","[""bralképben"",""bralképban""]","","posttest trial","1",""
"html-button-response-clever","138","908562","0.0-13.0-0.18","2928","Ez itt egy nyamet. Ott vagyunk a...","1","nyametben","[""nyametban"",""nyametben""]","","posttest trial","1",""
"html-button-response-clever","139","911370","0.0-13.0-0.19","2298","Ez itt egy tosély. Ott vagyunk a...","0","tosélyben","[""tosélyben"",""tosélyban""]","","posttest trial","1",""
"html-button-response-clever","140","915895","0.0-13.0-0.20","4013","Ez itt egy kátel. Elneveztem a kutyámat...","1","kátelnek","[""kátelnak"",""kátelnek""]","","posttest trial","1",""
"html-button-response-clever","141","919233","0.0-13.0-0.21","2824","Ez itt egy zsáder. Ott vagyunk a...","1","zsáderben","[""zsáderban"",""zsáderben""]","","posttest trial","1",""
"html-button-response-clever","142","924864","0.0-13.0-0.22","5117","Ez itt egy braszenc. Nincs is jobb egy jó...","0","braszencnél","[""braszencnél"",""braszencnál""]","","posttest trial","1",""
"html-button-response-clever","143","928038","0.0-13.0-0.23","2666","Ez itt egy pisély. Ott vagyunk a...","1","pisélyben","[""pisélyban"",""pisélyben""]","","posttest trial","1",""
"html-button-response-clever","144","931398","0.0-13.0-0.24","2853","Ez itt egy hágyét. Elneveztem a kutyámat...","1","hágyétnek","[""hágyétnak"",""hágyétnek""]","","posttest trial","1",""
"html-button-response-clever","145","935543","0.0-13.0-0.25","3638","Ez itt egy nyítem. Ott vagyunk a...","1","nyítemben","[""nyítemban"",""nyítemben""]","","posttest trial","1",""
"html-button-response-clever","146","938821","0.0-13.0-0.26","2761","Ez itt egy zsádév. Elneveztem a kutyámat...","0","zsádévnek","[""zsádévnek"",""zsádévnak""]","","posttest trial","1",""
"html-button-response-clever","147","941577","0.0-13.0-0.27","2254","Ez itt egy pijél. Nincs is jobb egy jó...","0","pijélnél","[""pijélnél"",""pijélnál""]","","posttest trial","1",""
"html-button-response-clever","148","945460","0.0-13.0-0.28","3368","Ez itt egy narem. Ott vagyunk a...","0","naremben","[""naremben"",""naremban""]","","posttest trial","1",""
"html-button-response-clever","149","948343","0.0-13.0-0.29","2377","Ez itt egy trismél. Elneveztem a kutyámat...","1","trismélnek","[""trismélnak"",""trismélnek""]","","posttest trial","1",""
"html-button-response-clever","150","952278","0.0-13.0-0.30","3407","Ez itt egy zsigén. Nincs is jobb egy jó...","1","zsigénnél","[""zsigénnál"",""zsigénnél""]","","posttest trial","1",""
"html-button-response-clever","151","956266","0.0-13.0-0.31","3480","Ez itt egy ítens. Ott vagyunk a...","0","ítensben","[""ítensben"",""ítensban""]","","posttest trial","1",""
"html-button-response-clever","152","960545","0.0-13.0-0.32","3771","Ez itt egy fájéz. Ott vagyunk a...","1","fájézban","[""fájézben"",""fájézban""]","","posttest trial","1",""
"html-button-response-clever","153","965944","0.0-13.0-0.33","4888","Ez itt egy kaszép. Elneveztem a kutyámat...","1","kaszépnak","[""kaszépnek"",""kaszépnak""]","","posttest trial","1",""
"html-button-response-clever","154","968811","0.0-13.0-0.34","2350","Ez itt egy zihenc. Elneveztem a kutyámat...","0","zihencnek","[""zihencnek"",""zihencnak""]","","posttest trial","1",""
"html-button-response-clever","155","971858","0.0-13.0-0.35","2539","Ez itt egy pítend. Ott vagyunk a...","0","pítendben","[""pítendben"",""pítendban""]","","posttest trial","1",""
"html-button-response-clever","156","977459","0.0-13.0-0.36","5088","Ez itt egy nyupér. Nincs is jobb egy jó...","0","nyupérnál","[""nyupérnál"",""nyupérnél""]","","posttest trial","1",""
"html-button-response-clever","157","981872","0.0-13.0-0.37","3902","Ez itt egy sprivenc. Nincs is jobb egy jó...","1","sprivencnél","[""sprivencnál"",""sprivencnél""]","","posttest trial","1",""
"html-button-response-clever","158","986868","0.0-13.0-0.38","4488","Ez itt egy rapszek. Nincs is jobb egy jó...","1","rapszeknél","[""rapszeknál"",""rapszeknél""]","","posttest trial","1",""
"html-button-response-clever","159","993268","0.0-13.0-0.39","5891","Ez itt egy kalhész. Elneveztem a kutyámat...","0","kalhésznak","[""kalhésznak"",""kalhésznek""]","","posttest trial","1",""
"html-button-response-clever","160","999049","0.0-13.0-0.40","5258","Ez itt egy priszec. Ott vagyunk a...","0","priszecben","[""priszecben"",""priszecban""]","","posttest trial","1",""
"html-button-response-clever","161","1002760","0.0-13.0-0.41","3199","Ez itt egy sortem. Nincs is jobb egy jó...","0","sortemnél","[""sortemnél"",""sortemnál""]","","posttest trial","1",""
"html-button-response-clever","162","1005889","0.0-13.0-0.42","2618","Ez itt egy dábegy. Ott vagyunk a...","0","dábegyben","[""dábegyben"",""dábegyban""]","","posttest trial","1",""
"html-button-response-clever","163","1009929","0.0-13.0-0.43","3532","Ez itt egy luméz. Ott vagyunk a...","1","lumézban","[""lumézben"",""lumézban""]","","posttest trial","1",""
"html-button-response-clever","164","1013491","0.0-13.0-0.44","3057","Ez itt egy vorszen. Nincs is jobb egy jó...","0","vorszennél","[""vorszennél"",""vorszennál""]","","posttest trial","1",""
"html-button-response-clever","165","1018016","0.0-13.0-0.45","4010","Ez itt egy jukél. Nincs is jobb egy jó...","0","jukélnál","[""jukélnál"",""jukélnél""]","","posttest trial","1",""
"html-button-response-clever","166","1024371","0.0-13.0-0.46","5840","Ez itt egy darhén. Ott vagyunk a...","0","darhénban","[""darhénban"",""darhénben""]","","posttest trial","1",""
"html-button-response-clever","167","1029674","0.0-13.0-0.47","4789","Ez itt egy gúden. Ott vagyunk a...","0","gúdenben","[""gúdenben"",""gúdenban""]","","posttest trial","1",""
"html-button-response-clever","168","1032541","0.0-13.0-0.48","2362","Ez itt egy dihely. Elneveztem a kutyámat...","0","dihelynek","[""dihelynek"",""dihelynak""]","","posttest trial","1",""
"html-button-response-clever","169","1038083","0.0-13.0-0.49","5027","Ez itt egy kalréz. Ott vagyunk a...","1","kalrézben","[""kalrézban"",""kalrézben""]","","posttest trial","1",""
"html-button-response-clever","170","1041533","0.0-13.0-0.50","2937","Ez itt egy garcép. Nincs is jobb egy jó...","0","garcépnél","[""garcépnél"",""garcépnál""]","","posttest trial","1",""
"html-button-response-clever","171","1046388","0.0-13.0-0.51","4348","Ez itt egy spanél. Nincs is jobb egy jó...","0","spanélnél","[""spanélnél"",""spanélnál""]","","posttest trial","1",""
"html-button-response-clever","172","1049973","0.0-13.0-0.52","3074","Ez itt egy klingesz. Ott vagyunk a...","1","klingeszben","[""klingeszban"",""klingeszben""]","","posttest trial","1",""
"html-button-response-clever","173","1052922","0.0-13.0-0.53","2429","Ez itt egy zopély. Nincs is jobb egy jó...","1","zopélynél","[""zopélynál"",""zopélynél""]","","posttest trial","1",""
"html-button-response","174","1060570","0.0-14.0","7138","<p> Vége a játéknak. A teljes pontszámod 21/54.</p><p> Szép munka! &#128526;&#128526;&#128526;</p><p>A Befejezés gomb megnyomása után bezárhatod a böngészőablakot.</p>","0","","","","","",""
"html-keyboard-response","175","1066098","0.0-15.0","null","<div class=""message"">
         <p>Egy kis türelmet kérünk, amíg elmentjük az adatokat...</p>
         </div>","null","","","","","",""
