"trial_type","trial_index","time_elapsed","internal_node_id","rt","stimulus","response","response_string","choices","esp_response","trial_kind","list_number","esp_match"
"pavlovia","0","996","0.0-0.0","","","","","","","","",""
"html-button-response","1","2172726","0.0-1.0","2170796","<p>Kedves Résztvevő! A Budapesti Műszaki és Gazdaságtudományi Egyetem Kognitív Tudományi Tanszékének kutatásában való részvételed kérjük. A kutatásban azt vizsgáljuk, hogy a magyar anyanyelvűek hogyan használnak bizonyos szóalakokat, és hogy milyen képük van arról, hogy mások hogyan használják, hogyan képzik a szavakat. Ez hozzásegít bennünket ahhoz, hogy jobban megértsük, hogyan dolgozza fel és tárolja a nyelvet az emberi agy, és hogyan működnek, hogyan változnak egy adott közösség nyelvi konvenciói.</p><p>A vizsgálat egy rövid számítógépes feladatból fog állni. A kutatásban való részvétel önkéntes, a részvételi szándék bármikor visszavonható. A résztvevők eredményeit név nélkül kezeljük, így nem beazonosíthatók az adatok feldolgozása során. Minden személyes adatot az EU általános adatvédelmi rendeletének (GDPR) megfelelően kezelünk és legfeljebb öt éven belül megsemmisítünk. A vizsgálat jellemzően húsz percet vesz igénybe.</p><p>Kutatásvezető:</p><p>Dr. Rácz Péter, tudományos munkatárs, BME KTT</p><p>e-mail: racz.peter.marton@ttk.bme.hu</p>","0","","","","","",""
"html-button-response","2","2235053","0.0-2.0","61810","<p>A kísérletben szavakat fogsz látni. Ezek között lesznek olyanok, amelyeket ismersz, de előfordulhatnak olyanok is, amelyeket nem ismersz, sőt, vannak köztük kitalált szavak is. Minden szónál látni fogsz toldalékolt alakokat. A te feladatod az lesz, hogy minden szóhoz kiválaszd azt a toldalékolt alakot, amely a te számodra ismerősebben, természetesebben hangzik. Rossz válaszok nincsenek, mert van olyan, hogy különböző embereknek más és más szó tűnik jobb választásnak. A választ úgy tudod majd kiválasztani, ha rákattintasz.</p><p>Ebben a szóválasztós játékban egy másik játékossal együtt veszel majd részt. A másik játékos is minden esetben azok közül a lehetőségek közül válogathat, mint te. Kettőtök feladata az, hogy ugyanazt a lehetőséget válasszátok minden esetben. Ahhoz, hogy ez sikerüljön, neked figyelned kell arra, hogy a másik játékos milyen válaszokat ad, és ennek alapján meg kell tippelned, hogyan választ legközelebb. Ha eltalálod, akkor pontot kapsz.</p>","0","","","","","",""
"html-button-response","3","2252796","0.0-3.0","17226","<p>Kérjük, olvasd el az alábbi nyilatkozatot, és amennyiben egyetértesz vele, nyomj a Beleegyezés gombra!</p><p>Kijelentem, hogy magyar anyanyelvű személyként önként veszek részt a BME KTT kísérletében. A kutatás céljával és folyamatával kapcsolatban elegendő tájékoztatást kaptam, lehetőségem volt kérdések feltételére, és esetleges kérdéseimre megfelelő válaszokat kaptam. A tájékoztatás alapján elegendő mennyiségű információ áll a rendelkezésemre, hogy eldönthessem, részt kívánok-e venni a kutatásban.</p><p>Tisztában vagyok vele, hogy részvételi szándékomat és adataimat bármikor, indoklás nélkül visszavonhatom.</p><p>Értem és tudomásul veszem, hogy a kutatás tudományos célokat szolgál, és az általam szolgáltatott adatokat a BME kizárólag kutatási célból használja fel. Tudomásul veszem, hogy eredményeimet a többi résztvevő eredményeivel együtt kezelik, így egyéni teljesítményemről visszajelzést, szakvéleményt nem kapok.</p><p>Megértettem, hogy adataim kezelését illetően a BME az EU általános adatvédelmi rendelete (GDPR), a hatályos adatvédelmi törvény és a nemzetközi kutatás-etikai alapelvek szerint jár el. Eredményeim anonim módon kerülnek feldolgozásra, és a kutatás résztvevői az azonosításomra alkalmas adataimat harmadik félnek nem szolgáltatják ki. Engedélyezem a BME számára a jelen kutatásban felvett adataim feldolgozását és tárolását, beleértve azok későbbi kutatásokhoz való felhasználását is. Személyes adataim kezelésével kapcsolatban tájékoztatást kérhetek a kutatás résztvevőitől, az adatkezelés ellen tiltakozhatok, kérhetem személyes adataim helyesbítését, törlését vagy zárolását, valamint jogorvoslatért a Nemzeti Adatvédelmi és Információszabadság Hatósághoz fordulhatok.</p><p>Kijelentem, hogy a kutatásban való részvételem körülményeiről részletes tájékoztatást kaptam, és a feltételeket elfogadom.</p>","0","","","","","",""
"survey-text","4","2295325","0.0-4.0","41997","","{""Q0"":""L5NKGM"",""Q1"":""nő"",""Q2"":""2001"",""Q3"":""13""}","","","","","",""
"html-button-response","5","2310516","0.0-5.0","14676","<p>Ebben a játékban szavakat kell toldalékolni.</p> <p>Minden körben mutatunk majd egy példamondatot, amiben lesz egy szó.</p> <p>Alatta jön egy második mondat, ezt a mondatot neked kell majd befejezni, ugyanezzel a szóval.</p> <p>Nem biztos, hogy a szó eleve ismerős lesz számodra!</p> <p>Minden mondathoz adunk két lehetőséget, ezeket balra és jobbra látod majd.</p> <p>A játék kb. negyedóráig-húsz percig tart.</p>","0","","","","","",""
"html-button-response","6","2321748","0.0-6.0","10720","<p>Nézzünk egy példát!</p> <p>A példamondat: ""János nagyon szeret rancsúrozni.""</p><p>Neked ezt a mondatot kell befejezned: ""Én is szívesen...""</p><p>A lehetőségek pedig ezek:</p>","1","","","","","",""
"html-button-response","7","2328756","0.0-7.0","6489","<p>Nagyon jó.</p><p>Ezt a játékot nem egyedül fogod játszani, hanem egy másik játékossal.</p><p>Mielőtt továbblépünk, összekapcsolunk titeket egymással.</p><p>Ez igénybe vehet néhány másodpercet, amihez szíves türelmed kérjük.</p>","0","","","","","",""
"html-button-response","8","2334517","0.0-8.0","null","<p>Csatlakozás a másik játékoshoz...</p>","null","","","","","",""
"html-button-response","9","2337051","0.0-9.0","null","<p> Sikeres kapcsolódás!</p>","null","","","","","",""
"html-button-response","10","2347579","0.0-10.0","null","<p>A következőkben ketten játsszátok a szóválasztós játékot.</p><p>A feladatotok az lesz, hogy minden körben <b>ugyanazt</b> a szót válasszátok.</p><p>Minden ilyen egyező válaszért pontot kaptok.</p><p>Próbáld meg kitalálni, mit választ a másik játékos!</p><p>Bármikor választhatsz, a körnek akkor van vége, ha mindketten döntöttetek.</p><p>Sok sikert!</p>","null","","","","","",""
"html-button-response-esp","11","2354077","0.0-11.0-0.0","5979","Te bizony sokat táklasz. Én is sokat...","1","táklok","[""táklom"",""táklok""]","táklom","esp trial","11","false"
"html-button-response","12","2357590","0.0-11.0-1.0","null","<p>A másik játékos ezt választotta: <b>táklom</b>.</p><p>&#10060;</p><p>A válaszaitok <b>nem</b> egyeznek meg.</p>","null","","","","feedback trial","",""
"html-button-response-esp","13","2363598","0.0-11.0-0.1","5499","Te bizony sokat gerénylesz. Én is sokat...","0","gerénylek","[""gerénylek"",""gerénylem""]","gerénylek","esp trial","11","true"
"html-button-response","14","2367118","0.0-11.0-1.1","null","<p>A másik játékos ezt választotta: <b>gerénylek</b>.</p><p>&#x2705;</p><p>A te válaszod és a másik játékos válasza <b>megegyeznek</b>.</p>","null","","","","feedback trial","",""
"html-button-response-esp","15","2373134","0.0-11.0-0.2","4608","Te bizony sokat spülőrzöl. Én is sokat...","1","spülőrzök","[""spülőrzöm"",""spülőrzök""]","spülőrzöm","esp trial","11","false"
"html-button-response","16","2376658","0.0-11.0-1.2","null","<p>A másik játékos ezt választotta: <b>spülőrzöm</b>.</p><p>&#10060;</p><p>A válaszaitok <b>nem</b> egyeznek meg.</p>","null","","","","feedback trial","",""
"html-button-response-esp","17","2382670","0.0-11.0-0.3","3711","Te bizony sokat tuboklasz. Én is sokat...","1","tuboklom","[""tuboklok"",""tuboklom""]","tuboklom","esp trial","11","true"
"html-button-response","18","2386207","0.0-11.0-1.3","null","<p>A másik játékos ezt választotta: <b>tuboklom</b>.</p><p>&#x2705;</p><p>A te válaszod és a másik játékos válasza <b>megegyeznek</b>.</p>","null","","","","feedback trial","",""
"html-button-response-esp","19","2392236","0.0-11.0-0.4","2826","Te bizony sokat sprédlesz. Én is sokat...","1","sprédlek","[""sprédlem"",""sprédlek""]","sprédlek","esp trial","11","true"
"html-button-response","20","2395765","0.0-11.0-1.4","null","<p>A másik játékos ezt választotta: <b>sprédlek</b>.</p><p>&#x2705;</p><p>A te válaszod és a másik játékos válasza <b>megegyeznek</b>.</p>","null","","","","feedback trial","",""
"html-button-response-esp","21","2401781","0.0-11.0-0.5","3882","Te bizony sokat floglasz. Én is sokat...","1","floglom","[""floglok"",""floglom""]","floglom","esp trial","11","true"
"html-button-response","22","2405306","0.0-11.0-1.5","null","<p>A másik játékos ezt választotta: <b>floglom</b>.</p><p>&#x2705;</p><p>A te válaszod és a másik játékos válasza <b>megegyeznek</b>.</p>","null","","","","feedback trial","",""
"html-button-response-esp","23","2411340","0.0-11.0-0.6","2768","Te bizony sokat vűjlesz. Én is sokat...","0","vűjlöm","[""vűjlöm"",""vűjlök""]","vűjlök","esp trial","11","false"
"html-button-response","24","2414865","0.0-11.0-1.6","null","<p>A másik játékos ezt választotta: <b>vűjlök</b>.</p><p>&#10060;</p><p>A válaszaitok <b>nem</b> egyeznek meg.</p>","null","","","","feedback trial","",""
"html-button-response-esp","25","2421611","0.0-11.0-0.7","6242","Te bizony sokat brarlasz. Én is sokat...","0","brarlok","[""brarlok"",""brarlom""]","brarlok","esp trial","11","true"
"html-button-response","26","2425137","0.0-11.0-1.7","null","<p>A másik játékos ezt választotta: <b>brarlok</b>.</p><p>&#x2705;</p><p>A te válaszod és a másik játékos válasza <b>megegyeznek</b>.</p>","null","","","","feedback trial","",""
"html-button-response-esp","27","2431163","0.0-11.0-0.8","3908","Te bizony sokat drügzöl. Én is sokat...","1","drügzök","[""drügzöm"",""drügzök""]","drügzöm","esp trial","11","false"
"html-button-response","28","2434694","0.0-11.0-1.8","null","<p>A másik játékos ezt választotta: <b>drügzöm</b>.</p><p>&#10060;</p><p>A válaszaitok <b>nem</b> egyeznek meg.</p>","null","","","","feedback trial","",""
"html-button-response-esp","29","2440722","0.0-11.0-0.9","3874","Te bizony sokat flözlesz. Én is sokat...","0","flözlök","[""flözlök"",""flözlöm""]","flözlök","esp trial","11","true"
"html-button-response","30","2444254","0.0-11.0-1.9","null","<p>A másik játékos ezt választotta: <b>flözlök</b>.</p><p>&#x2705;</p><p>A te válaszod és a másik játékos válasza <b>megegyeznek</b>.</p>","null","","","","feedback trial","",""
"html-button-response-esp","31","2450273","0.0-11.0-0.10","3607","Te bizony sokat sztruglasz. Én is sokat...","1","sztruglok","[""sztruglom"",""sztruglok""]","sztruglom","esp trial","11","false"
"html-button-response","32","2453792","0.0-11.0-1.10","null","<p>A másik játékos ezt választotta: <b>sztruglom</b>.</p><p>&#10060;</p><p>A válaszaitok <b>nem</b> egyeznek meg.</p>","null","","","","feedback trial","",""
"html-button-response-esp","33","2459823","0.0-11.0-0.11","5315","Te bizony sokat vihepszel. Én is sokat...","1","vihepszek","[""vihepszem"",""vihepszek""]","vihepszem","esp trial","11","false"
"html-button-response","34","2463358","0.0-11.0-1.11","null","<p>A másik játékos ezt választotta: <b>vihepszem</b>.</p><p>&#10060;</p><p>A válaszaitok <b>nem</b> egyeznek meg.</p>","null","","","","feedback trial","",""
"html-button-response-esp","35","2469388","0.0-11.0-0.12","2493","Te bizony sokat spatszol. Én is sokat...","0","spatszom","[""spatszom"",""spatszok""]","spatszom","esp trial","11","true"
"html-button-response","36","2472913","0.0-11.0-1.12","null","<p>A másik játékos ezt választotta: <b>spatszom</b>.</p><p>&#x2705;</p><p>A te válaszod és a másik játékos válasza <b>megegyeznek</b>.</p>","null","","","","feedback trial","",""
"html-button-response-esp","37","2478939","0.0-11.0-0.13","3980","Te bizony sokat péleslesz. Én is sokat...","0","péleslem","[""péleslem"",""péleslek""]","péleslem","esp trial","11","true"
"html-button-response","38","2482471","0.0-11.0-1.13","null","<p>A másik játékos ezt választotta: <b>péleslem</b>.</p><p>&#x2705;</p><p>A te válaszod és a másik játékos válasza <b>megegyeznek</b>.</p>","null","","","","feedback trial","",""
"html-button-response-esp","39","2488499","0.0-11.0-0.14","4038","Te bizony sokat mékszel. Én is sokat...","0","mékszem","[""mékszem"",""mékszek""]","mékszem","esp trial","11","true"
"html-button-response","40","2492038","0.0-11.0-1.14","null","<p>A másik játékos ezt választotta: <b>mékszem</b>.</p><p>&#x2705;</p><p>A te válaszod és a másik játékos válasza <b>megegyeznek</b>.</p>","null","","","","feedback trial","",""
"html-button-response-esp","41","2498061","0.0-11.0-0.15","3790","Te bizony sokat csólorzol. Én is sokat...","1","csólorzom","[""csólorzok"",""csólorzom""]","csólorzom","esp trial","11","true"
"html-button-response","42","2501580","0.0-11.0-1.15","null","<p>A másik játékos ezt választotta: <b>csólorzom</b>.</p><p>&#x2705;</p><p>A te válaszod és a másik játékos válasza <b>megegyeznek</b>.</p>","null","","","","feedback trial","",""
"html-button-response-esp","43","2507610","0.0-11.0-0.16","2514","Te bizony sokat friszlasz. Én is sokat...","0","friszlom","[""friszlom"",""friszlok""]","friszlom","esp trial","11","true"
"html-button-response","44","2511141","0.0-11.0-1.16","null","<p>A másik játékos ezt választotta: <b>friszlom</b>.</p><p>&#x2705;</p><p>A te válaszod és a másik játékos válasza <b>megegyeznek</b>.</p>","null","","","","feedback trial","",""
"html-button-response-esp","45","2517174","0.0-11.0-0.17","2486","Te bizony sokat fligzol. Én is sokat...","0","fligzom","[""fligzom"",""fligzok""]","fligzom","esp trial","11","true"
"html-button-response","46","2520693","0.0-11.0-1.17","null","<p>A másik játékos ezt választotta: <b>fligzom</b>.</p><p>&#x2705;</p><p>A te válaszod és a másik játékos válasza <b>megegyeznek</b>.</p>","null","","","","feedback trial","",""
"html-button-response-esp","47","2526723","0.0-11.0-0.18","2652","Te bizony sokat ibáglasz. Én is sokat...","0","ibáglom","[""ibáglom"",""ibáglok""]","ibáglom","esp trial","11","true"
"html-button-response","48","2530261","0.0-11.0-1.18","null","<p>A másik játékos ezt választotta: <b>ibáglom</b>.</p><p>&#x2705;</p><p>A te válaszod és a másik játékos válasza <b>megegyeznek</b>.</p>","null","","","","feedback trial","",""
"html-button-response-esp","49","2536708","0.0-11.0-0.19","5929","Te bizony sokat sprálszol. Én is sokat...","0","sprálszok","[""sprálszok"",""sprálszom""]","sprálszom","esp trial","11","false"
"html-button-response","50","2540228","0.0-11.0-1.19","null","<p>A másik játékos ezt választotta: <b>sprálszom</b>.</p><p>&#10060;</p><p>A válaszaitok <b>nem</b> egyeznek meg.</p>","null","","","","feedback trial","",""
"html-button-response-esp","51","2546460","0.0-11.0-0.20","5722","Te bizony sokat plövőrzöl. Én is sokat...","1","plövőrzöm","[""plövőrzök"",""plövőrzöm""]","plövőrzöm","esp trial","11","true"
"html-button-response","52","2549985","0.0-11.0-1.20","null","<p>A másik játékos ezt választotta: <b>plövőrzöm</b>.</p><p>&#x2705;</p><p>A te válaszod és a másik játékos válasza <b>megegyeznek</b>.</p>","null","","","","feedback trial","",""
"html-button-response-esp","53","2556005","0.0-11.0-0.21","4053","Te bizony sokat gyivádzol. Én is sokat...","0","gyivádzok","[""gyivádzok"",""gyivádzom""]","gyivádzom","esp trial","11","false"
"html-button-response","54","2559528","0.0-11.0-1.21","null","<p>A másik játékos ezt választotta: <b>gyivádzom</b>.</p><p>&#10060;</p><p>A válaszaitok <b>nem</b> egyeznek meg.</p>","null","","","","feedback trial","",""
"html-button-response-esp","55","2565556","0.0-11.0-0.22","1840","Te bizony sokat livaklasz. Én is sokat...","1","livaklom","[""livaklok"",""livaklom""]","livaklom","esp trial","11","true"
"html-button-response","56","2569094","0.0-11.0-1.22","null","<p>A másik játékos ezt választotta: <b>livaklom</b>.</p><p>&#x2705;</p><p>A te válaszod és a másik játékos válasza <b>megegyeznek</b>.</p>","null","","","","feedback trial","",""
"html-button-response-esp","57","2575580","0.0-11.0-0.23","5967","Te bizony sokat klárzol. Én is sokat...","0","klárzom","[""klárzom"",""klárzok""]","klárzom","esp trial","11","true"
"html-button-response","58","2579111","0.0-11.0-1.23","null","<p>A másik játékos ezt választotta: <b>klárzom</b>.</p><p>&#x2705;</p><p>A te válaszod és a másik játékos válasza <b>megegyeznek</b>.</p>","null","","","","feedback trial","",""
"html-button-response-esp","59","2585146","0.0-11.0-0.24","2558","Te bizony sokat frivajlasz. Én is sokat...","1","frivajlok","[""frivajlom"",""frivajlok""]","frivajlok","esp trial","11","true"
"html-button-response","60","2588681","0.0-11.0-1.24","null","<p>A másik játékos ezt választotta: <b>frivajlok</b>.</p><p>&#x2705;</p><p>A te válaszod és a másik játékos válasza <b>megegyeznek</b>.</p>","null","","","","feedback trial","",""
"html-button-response-esp","61","2594718","0.0-11.0-0.25","2396","Te bizony sokat spüszlesz. Én is sokat...","1","spüszlök","[""spüszlöm"",""spüszlök""]","spüszlöm","esp trial","11","false"
"html-button-response","62","2598241","0.0-11.0-1.25","null","<p>A másik játékos ezt választotta: <b>spüszlöm</b>.</p><p>&#10060;</p><p>A válaszaitok <b>nem</b> egyeznek meg.</p>","null","","","","feedback trial","",""
"html-button-response-esp","63","2604273","0.0-11.0-0.26","1732","Te bizony sokat gilárzol. Én is sokat...","0","gilárzok","[""gilárzok"",""gilárzom""]","gilárzom","esp trial","11","false"
"html-button-response","64","2607797","0.0-11.0-1.26","null","<p>A másik játékos ezt választotta: <b>gilárzom</b>.</p><p>&#10060;</p><p>A válaszaitok <b>nem</b> egyeznek meg.</p>","null","","","","feedback trial","",""
"html-button-response-esp","65","2613829","0.0-11.0-0.27","1445","Te bizony sokat lihadzol. Én is sokat...","0","lihadzok","[""lihadzok"",""lihadzom""]","lihadzom","esp trial","11","false"
"html-button-response","66","2617365","0.0-11.0-1.27","null","<p>A másik játékos ezt választotta: <b>lihadzom</b>.</p><p>&#10060;</p><p>A válaszaitok <b>nem</b> egyeznek meg.</p>","null","","","","feedback trial","",""
"html-button-response-esp","67","2623393","0.0-11.0-0.28","2070","Te bizony sokat gyibakszol. Én is sokat...","0","gyibakszom","[""gyibakszom"",""gyibakszok""]","gyibakszom","esp trial","11","true"
"html-button-response","68","2626915","0.0-11.0-1.28","null","<p>A másik játékos ezt választotta: <b>gyibakszom</b>.</p><p>&#x2705;</p><p>A te válaszod és a másik játékos válasza <b>megegyeznek</b>.</p>","null","","","","feedback trial","",""
"html-button-response-esp","69","2632940","0.0-11.0-0.29","1338","Te bizony sokat frágapszol. Én is sokat...","0","frágapszom","[""frágapszom"",""frágapszok""]","frágapszom","esp trial","11","true"
"html-button-response","70","2636478","0.0-11.0-1.29","null","<p>A másik játékos ezt választotta: <b>frágapszom</b>.</p><p>&#x2705;</p><p>A te válaszod és a másik játékos válasza <b>megegyeznek</b>.</p>","null","","","","feedback trial","",""
"html-button-response-esp","71","2642509","0.0-11.0-0.30","1107","Te bizony sokat spülöklesz. Én is sokat...","1","spülöklök","[""spülöklöm"",""spülöklök""]","spülöklöm","esp trial","11","false"
"html-button-response","72","2646055","0.0-11.0-1.30","null","<p>A másik játékos ezt választotta: <b>spülöklöm</b>.</p><p>&#10060;</p><p>A válaszaitok <b>nem</b> egyeznek meg.</p>","null","","","","feedback trial","",""
"html-button-response-esp","73","2652076","0.0-11.0-0.31","670","Te bizony sokat spírzol. Én is sokat...","0","spírzom","[""spírzom"",""spírzok""]","spírzom","esp trial","11","true"
"html-button-response","74","2655608","0.0-11.0-1.31","null","<p>A másik játékos ezt választotta: <b>spírzom</b>.</p><p>&#x2705;</p><p>A te válaszod és a másik játékos válasza <b>megegyeznek</b>.</p>","null","","","","feedback trial","",""
"html-button-response-esp","75","2662683","0.0-11.0-0.32","6569","Te bizony sokat prezlesz. Én is sokat...","0","prezlem","[""prezlem"",""prezlek""]","prezlek","esp trial","11","false"
"html-button-response","76","2666202","0.0-11.0-1.32","null","<p>A másik játékos ezt választotta: <b>prezlek</b>.</p><p>&#10060;</p><p>A válaszaitok <b>nem</b> egyeznek meg.</p>","null","","","","feedback trial","",""
"html-button-response-esp","77","2675819","0.0-11.0-0.33","9096","Te bizony sokat spibádzol. Én is sokat...","0","spibádzom","[""spibádzom"",""spibádzok""]","spibádzom","esp trial","11","true"
"html-button-response","78","2679357","0.0-11.0-1.33","null","<p>A másik játékos ezt választotta: <b>spibádzom</b>.</p><p>&#x2705;</p><p>A te válaszod és a másik játékos válasza <b>megegyeznek</b>.</p>","null","","","","feedback trial","",""
"html-button-response-esp","79","2685392","0.0-11.0-0.34","4471","Te bizony sokat szűslesz. Én is sokat...","1","szűslöm","[""szűslök"",""szűslöm""]","szűslök","esp trial","11","false"
"html-button-response","80","2688928","0.0-11.0-1.34","null","<p>A másik játékos ezt választotta: <b>szűslök</b>.</p><p>&#10060;</p><p>A válaszaitok <b>nem</b> egyeznek meg.</p>","null","","","","feedback trial","",""
"html-button-response-esp","81","2695195","0.0-11.0-0.35","5760","Te bizony sokat fliraklasz. Én is sokat...","0","fliraklom","[""fliraklom"",""fliraklok""]","fliraklom","esp trial","11","true"
"html-button-response","82","2698717","0.0-11.0-1.35","null","<p>A másik játékos ezt választotta: <b>fliraklom</b>.</p><p>&#x2705;</p><p>A te válaszod és a másik játékos válasza <b>megegyeznek</b>.</p>","null","","","","feedback trial","",""
"html-button-response-esp","83","2704748","0.0-11.0-0.36","3886","Te bizony sokat féjzel. Én is sokat...","1","féjzem","[""féjzek"",""féjzem""]","féjzem","esp trial","11","true"
"html-button-response","84","2708275","0.0-11.0-1.36","null","<p>A másik játékos ezt választotta: <b>féjzem</b>.</p><p>&#x2705;</p><p>A te válaszod és a másik játékos válasza <b>megegyeznek</b>.</p>","null","","","","feedback trial","",""
"html-button-response-esp","85","2714310","0.0-11.0-0.37","3728","Te bizony sokat flérlesz. Én is sokat...","1","flérlem","[""flérlek"",""flérlem""]","flérlek","esp trial","11","false"
"html-button-response","86","2717851","0.0-11.0-1.37","null","<p>A másik játékos ezt választotta: <b>flérlek</b>.</p><p>&#10060;</p><p>A válaszaitok <b>nem</b> egyeznek meg.</p>","null","","","","feedback trial","",""
"html-button-response-esp","87","2723881","0.0-11.0-0.38","2275","Te bizony sokat pugoslasz. Én is sokat...","0","pugoslok","[""pugoslok"",""pugoslom""]","pugoslok","esp trial","11","true"
"html-button-response","88","2727417","0.0-11.0-1.38","null","<p>A másik játékos ezt választotta: <b>pugoslok</b>.</p><p>&#x2705;</p><p>A te válaszod és a másik játékos válasza <b>megegyeznek</b>.</p>","null","","","","feedback trial","",""
"html-button-response-esp","89","2733441","0.0-11.0-0.39","2676","Te bizony sokat bivejlesz. Én is sokat...","1","bivejlek","[""bivejlem"",""bivejlek""]","bivejlek","esp trial","11","true"
"html-button-response","90","2736962","0.0-11.0-1.39","null","<p>A másik játékos ezt választotta: <b>bivejlek</b>.</p><p>&#x2705;</p><p>A te válaszod és a másik játékos válasza <b>megegyeznek</b>.</p>","null","","","","feedback trial","",""
"html-button-response-esp","91","2742990","0.0-11.0-0.40","1247","Te bizony sokat prihekszel. Én is sokat...","1","prihekszek","[""prihekszem"",""prihekszek""]","prihekszem","esp trial","11","false"
"html-button-response","92","2746513","0.0-11.0-1.40","null","<p>A másik játékos ezt választotta: <b>prihekszem</b>.</p><p>&#10060;</p><p>A válaszaitok <b>nem</b> egyeznek meg.</p>","null","","","","feedback trial","",""
"html-button-response-esp","93","2752867","0.0-11.0-0.41","5848","Te bizony sokat spélszel. Én is sokat...","1","spélszek","[""spélszem"",""spélszek""]","spélszem","esp trial","11","false"
"html-button-response","94","2756386","0.0-11.0-1.41","null","<p>A másik játékos ezt választotta: <b>spélszem</b>.</p><p>&#10060;</p><p>A válaszaitok <b>nem</b> egyeznek meg.</p>","null","","","","feedback trial","",""
"html-button-response-esp","95","2764467","0.0-11.0-0.42","7575","Te bizony sokat klidlasz. Én is sokat...","1","klidlok","[""klidlom"",""klidlok""]","klidlok","esp trial","11","true"
"html-button-response","96","2767983","0.0-11.0-1.42","null","<p>A másik játékos ezt választotta: <b>klidlok</b>.</p><p>&#x2705;</p><p>A te válaszod és a másik játékos válasza <b>megegyeznek</b>.</p>","null","","","","feedback trial","",""
"html-button-response-esp","97","2774007","0.0-11.0-0.43","5034","Te bizony sokat zödlesz. Én is sokat...","0","zödlök","[""zödlök"",""zödlöm""]","zödlök","esp trial","11","true"
"html-button-response","98","2777530","0.0-11.0-1.43","null","<p>A másik játékos ezt választotta: <b>zödlök</b>.</p><p>&#x2705;</p><p>A te válaszod és a másik játékos válasza <b>megegyeznek</b>.</p>","null","","","","feedback trial","",""
"html-button-response-esp","99","2783546","0.0-11.0-0.44","3825","Te bizony sokat aglasz. Én is sokat...","0","aglom","[""aglom"",""aglok""]","aglom","esp trial","11","true"
"html-button-response","100","2787083","0.0-11.0-1.44","null","<p>A másik játékos ezt választotta: <b>aglom</b>.</p><p>&#x2705;</p><p>A te válaszod és a másik játékos válasza <b>megegyeznek</b>.</p>","null","","","","feedback trial","",""
"html-button-response-esp","101","2793104","0.0-11.0-0.45","1897","Te bizony sokat huklasz. Én is sokat...","1","huklom","[""huklok"",""huklom""]","huklom","esp trial","11","true"
"html-button-response","102","2796651","0.0-11.0-1.45","null","<p>A másik játékos ezt választotta: <b>huklom</b>.</p><p>&#x2705;</p><p>A te válaszod és a másik játékos válasza <b>megegyeznek</b>.</p>","null","","","","feedback trial","",""
"html-button-response-esp","103","2802670","0.0-11.0-0.46","3417","Te bizony sokat plágadzol. Én is sokat...","0","plágadzom","[""plágadzom"",""plágadzok""]","plágadzom","esp trial","11","true"
"html-button-response","104","2806200","0.0-11.0-1.46","null","<p>A másik játékos ezt választotta: <b>plágadzom</b>.</p><p>&#x2705;</p><p>A te válaszod és a másik játékos válasza <b>megegyeznek</b>.</p>","null","","","","feedback trial","",""
"html-button-response-esp","105","2812216","0.0-11.0-0.47","2262","Te bizony sokat préleglesz. Én is sokat...","0","préleglem","[""préleglem"",""préleglek""]","préleglem","esp trial","11","true"
"html-button-response","106","2815737","0.0-11.0-1.47","null","<p>A másik játékos ezt választotta: <b>préleglem</b>.</p><p>&#x2705;</p><p>A te válaszod és a másik játékos válasza <b>megegyeznek</b>.</p>","null","","","","feedback trial","",""
"html-button-response-esp","107","2821778","0.0-11.0-0.48","2915","Te bizony sokat kumlasz. Én is sokat...","1","kumlom","[""kumlok"",""kumlom""]","kumlok","esp trial","11","false"
"html-button-response","108","2825311","0.0-11.0-1.48","null","<p>A másik játékos ezt választotta: <b>kumlok</b>.</p><p>&#10060;</p><p>A válaszaitok <b>nem</b> egyeznek meg.</p>","null","","","","feedback trial","",""
"html-button-response-esp","109","2831345","0.0-11.0-0.49","2227","Te bizony sokat fivénylesz. Én is sokat...","0","fivénylem","[""fivénylem"",""fivénylek""]","fivénylem","esp trial","11","true"
"html-button-response","110","2834875","0.0-11.0-1.49","null","<p>A másik játékos ezt választotta: <b>fivénylem</b>.</p><p>&#x2705;</p><p>A te válaszod és a másik játékos válasza <b>megegyeznek</b>.</p>","null","","","","feedback trial","",""
"html-button-response-esp","111","2840897","0.0-11.0-0.50","3867","Te bizony sokat prohódzol. Én is sokat...","0","prohódzok","[""prohódzok"",""prohódzom""]","prohódzom","esp trial","11","false"
"html-button-response","112","2844417","0.0-11.0-1.50","null","<p>A másik játékos ezt választotta: <b>prohódzom</b>.</p><p>&#10060;</p><p>A válaszaitok <b>nem</b> egyeznek meg.</p>","null","","","","feedback trial","",""
"html-button-response-esp","113","2850452","0.0-11.0-0.51","1428","Te bizony sokat praslasz. Én is sokat...","0","praslom","[""praslom"",""praslok""]","praslok","esp trial","11","false"
"html-button-response","114","2853990","0.0-11.0-1.51","null","<p>A másik játékos ezt választotta: <b>praslok</b>.</p><p>&#10060;</p><p>A válaszaitok <b>nem</b> egyeznek meg.</p>","null","","","","feedback trial","",""
"html-button-response-esp","115","2860018","0.0-11.0-0.52","1669","Te bizony sokat flibekszel. Én is sokat...","0","flibekszem","[""flibekszem"",""flibekszek""]","flibekszem","esp trial","11","true"
"html-button-response","116","2863545","0.0-11.0-1.52","null","<p>A másik játékos ezt választotta: <b>flibekszem</b>.</p><p>&#x2705;</p><p>A te válaszod és a másik játékos válasza <b>megegyeznek</b>.</p>","null","","","","feedback trial","",""
"html-button-response-esp","117","2869577","0.0-11.0-0.53","2212","Te bizony sokat trihagzol. Én is sokat...","0","trihagzok","[""trihagzok"",""trihagzom""]","trihagzom","esp trial","11","false"
"html-button-response","118","2873106","0.0-11.0-1.53","null","<p>A másik játékos ezt választotta: <b>trihagzom</b>.</p><p>&#10060;</p><p>A válaszaitok <b>nem</b> egyeznek meg.</p>","null","","","","feedback trial","",""
"html-button-response","119","2883627","0.0-12.0","10017","<p>A közös játék most véget ért.</p><p>Mielőtt eláruljuk a végső pontszámodat, arra kérlek, játszd a szóválasztós játékot néhány percig egyedül is.</p><p>A feladatod ugyanaz lesz, választani két lehetőség közül.</p><p>Most viszont egyedül kell döntened, hogy te melyiket választanád.</p>","0","","","","","",""
"html-button-response-clever","120","2888667","0.0-13.0-0.0","4530","Te bizony sokat vilakszol. Én is sokat...","1","vilakszom","[""vilakszok"",""vilakszom""]","","posttest trial","1",""
"html-button-response-clever","121","2891275","0.0-13.0-0.1","2103","Te bizony sokat spűmlesz. Én is sokat...","1","spűmlöm","[""spűmlök"",""spűmlöm""]","","posttest trial","1",""
"html-button-response-clever","122","2895291","0.0-13.0-0.2","3499","Te bizony sokat herégszel. Én is sokat...","1","herégszem","[""herégszek"",""herégszem""]","","posttest trial","1",""
"html-button-response-clever","123","2896411","0.0-13.0-0.3","602","Te bizony sokat tínylasz. Én is sokat...","1","tínylom","[""tínylok"",""tínylom""]","","posttest trial","1",""
"html-button-response-clever","124","2897675","0.0-13.0-0.4","756","Te bizony sokat böjzöl. Én is sokat...","1","böjzök","[""böjzöm"",""böjzök""]","","posttest trial","1",""
"html-button-response-clever","125","2898739","0.0-13.0-0.5","560","Te bizony sokat ribegzel. Én is sokat...","1","ribegzem","[""ribegzek"",""ribegzem""]","","posttest trial","1",""
"html-button-response-clever","126","2900275","0.0-13.0-0.6","1027","Te bizony sokat prilegzel. Én is sokat...","0","prilegzem","[""prilegzem"",""prilegzek""]","","posttest trial","1",""
"html-button-response-clever","127","2901275","0.0-13.0-0.7","496","Te bizony sokat siladzol. Én is sokat...","1","siladzom","[""siladzok"",""siladzom""]","","posttest trial","1",""
"html-button-response-clever","128","2902379","0.0-13.0-0.8","595","Te bizony sokat flüröslesz. Én is sokat...","1","flüröslöm","[""flüröslök"",""flüröslöm""]","","posttest trial","1",""
"html-button-response-clever","129","2904075","0.0-13.0-0.9","1185","Te bizony sokat brüjlesz. Én is sokat...","0","brüjlöm","[""brüjlöm"",""brüjlök""]","","posttest trial","1",""
"html-button-response-clever","130","2905411","0.0-13.0-0.10","827","Te bizony sokat spibaklasz. Én is sokat...","0","spibaklok","[""spibaklok"",""spibaklom""]","","posttest trial","1",""
"html-button-response-clever","131","2906259","0.0-13.0-0.11","343","Te bizony sokat sprökszöl. Én is sokat...","1","sprökszöm","[""sprökszök"",""sprökszöm""]","","posttest trial","1",""
"html-button-response-clever","132","2907139","0.0-13.0-0.12","372","Te bizony sokat pivegszel. Én is sokat...","0","pivegszem","[""pivegszem"",""pivegszek""]","","posttest trial","1",""
"html-button-response-clever","133","2908027","0.0-13.0-0.13","378","Te bizony sokat piragszol. Én is sokat...","1","piragszom","[""piragszok"",""piragszom""]","","posttest trial","1",""
"html-button-response-clever","134","2908859","0.0-13.0-0.14","319","Te bizony sokat klörlesz. Én is sokat...","0","klörlöm","[""klörlöm"",""klörlök""]","","posttest trial","1",""
"html-button-response-clever","135","2909755","0.0-13.0-0.15","383","Te bizony sokat pratánylasz. Én is sokat...","1","pratánylok","[""pratánylom"",""pratánylok""]","","posttest trial","1",""
"html-button-response-clever","136","2910603","0.0-13.0-0.16","330","Te bizony sokat juszlasz. Én is sokat...","0","juszlom","[""juszlom"",""juszlok""]","","posttest trial","1",""
"html-button-response-clever","137","2911539","0.0-13.0-0.17","432","Te bizony sokat nyáslasz. Én is sokat...","1","nyáslom","[""nyáslok"",""nyáslom""]","","posttest trial","1",""
"html-button-response-clever","138","2912403","0.0-13.0-0.18","347","Te bizony sokat frilegszel. Én is sokat...","1","frilegszek","[""frilegszem"",""frilegszek""]","","posttest trial","1",""
"html-button-response-clever","139","2913395","0.0-13.0-0.19","486","Te bizony sokat feténylesz. Én is sokat...","1","feténylem","[""feténylek"",""feténylem""]","","posttest trial","1",""
"html-button-response-clever","140","2914826","0.0-13.0-0.20","913","Te bizony sokat málapszol. Én is sokat...","0","málapszom","[""málapszom"",""málapszok""]","","posttest trial","1",""
"html-button-response-clever","141","2915675","0.0-13.0-0.21","343","Te bizony sokat spilágzol. Én is sokat...","1","spilágzom","[""spilágzok"",""spilágzom""]","","posttest trial","1",""
"html-button-response-clever","142","2916579","0.0-13.0-0.22","384","Te bizony sokat fibamlasz. Én is sokat...","1","fibamlom","[""fibamlok"",""fibamlom""]","","posttest trial","1",""
"html-button-response-clever","143","2917467","0.0-13.0-0.23","370","Te bizony sokat tiregzel. Én is sokat...","1","tiregzem","[""tiregzek"",""tiregzem""]","","posttest trial","1",""
"html-button-response-clever","144","2918323","0.0-13.0-0.24","332","Te bizony sokat femlesz. Én is sokat...","0","femlem","[""femlem"",""femlek""]","","posttest trial","1",""
"html-button-response-clever","145","2919267","0.0-13.0-0.25","440","Te bizony sokat prűrlesz. Én is sokat...","1","prűrlök","[""prűrlöm"",""prűrlök""]","","posttest trial","1",""
"html-button-response-clever","146","2920435","0.0-13.0-0.26","654","Te bizony sokat drubódzol. Én is sokat...","0","drubódzok","[""drubódzok"",""drubódzom""]","","posttest trial","1",""
"html-button-response-clever","147","2921331","0.0-13.0-0.27","377","Te bizony sokat ruslasz. Én is sokat...","1","ruslom","[""ruslok"",""ruslom""]","","posttest trial","1",""
"html-button-response-clever","148","2922011","0.0-13.0-0.28","165","Te bizony sokat pebzel. Én is sokat...","1","pebzek","[""pebzem"",""pebzek""]","","posttest trial","1",""
"html-button-response-clever","149","2922938","0.0-13.0-0.29","404","Te bizony sokat narjárzol. Én is sokat...","1","narjárzom","[""narjárzok"",""narjárzom""]","","posttest trial","1",""
"html-button-response-clever","150","2927707","0.0-13.0-0.30","4250","Te bizony sokat sűzlesz. Én is sokat...","1","sűzlök","[""sűzlöm"",""sűzlök""]","","posttest trial","1",""
"html-button-response-clever","151","2928731","0.0-13.0-0.31","520","Te bizony sokat ribzol. Én is sokat...","1","ribzom","[""ribzok"",""ribzom""]","","posttest trial","1",""
"html-button-response-clever","152","2929827","0.0-13.0-0.32","583","Te bizony sokat spéslesz. Én is sokat...","1","spéslem","[""spéslek"",""spéslem""]","","posttest trial","1",""
"html-button-response-clever","153","2930547","0.0-13.0-0.33","204","Te bizony sokat fretszel. Én is sokat...","1","fretszem","[""fretszek"",""fretszem""]","","posttest trial","1",""
"html-button-response-clever","154","2931291","0.0-13.0-0.34","229","Te bizony sokat sztremlesz. Én is sokat...","1","sztremlem","[""sztremlek"",""sztremlem""]","","posttest trial","1",""
"html-button-response-clever","155","2932099","0.0-13.0-0.35","293","Te bizony sokat spatárzol. Én is sokat...","1","spatárzok","[""spatárzom"",""spatárzok""]","","posttest trial","1",""
"html-button-response-clever","156","2932931","0.0-13.0-0.36","321","Te bizony sokat büglesz. Én is sokat...","1","büglök","[""büglöm"",""büglök""]","","posttest trial","1",""
"html-button-response-clever","157","2933835","0.0-13.0-0.37","386","Te bizony sokat flűröklesz. Én is sokat...","1","flűröklök","[""flűröklöm"",""flűröklök""]","","posttest trial","1",""
"html-button-response-clever","158","2934731","0.0-13.0-0.38","391","Te bizony sokat bölszöl. Én is sokat...","1","bölszök","[""bölszöm"",""bölszök""]","","posttest trial","1",""
"html-button-response-clever","159","2935523","0.0-13.0-0.39","279","Te bizony sokat hilarzol. Én is sokat...","1","hilarzom","[""hilarzok"",""hilarzom""]","","posttest trial","1",""
"html-button-response-clever","160","2936452","0.0-13.0-0.40","420","Te bizony sokat brágaklasz. Én is sokat...","1","brágaklom","[""brágaklok"",""brágaklom""]","","posttest trial","1",""
"html-button-response-clever","161","2955195","0.0-13.0-0.41","18238","Te bizony sokat klibamlasz. Én is sokat...","0","klibamlom","[""klibamlom"",""klibamlok""]","","posttest trial","1",""
"html-button-response-clever","162","2964210","0.0-13.0-0.42","8509","Te bizony sokat szirlasz. Én is sokat...","0","szirlok","[""szirlok"",""szirlom""]","","posttest trial","1",""
"html-button-response-clever","163","2965459","0.0-13.0-0.43","742","Te bizony sokat tomlasz. Én is sokat...","1","tomlok","[""tomlom"",""tomlok""]","","posttest trial","1",""
"html-button-response-clever","164","2969802","0.0-13.0-0.44","3833","Te bizony sokat flagárzol. Én is sokat...","1","flagárzok","[""flagárzom"",""flagárzok""]","","posttest trial","1",""
"html-button-response-clever","165","2970706","0.0-13.0-0.45","399","Te bizony sokat jüslesz. Én is sokat...","1","jüslök","[""jüslöm"",""jüslök""]","","posttest trial","1",""
"html-button-response-clever","166","2971970","0.0-13.0-0.46","755","Te bizony sokat flagánylasz. Én is sokat...","1","flagánylok","[""flagánylom"",""flagánylok""]","","posttest trial","1",""
"html-button-response-clever","167","2972867","0.0-13.0-0.47","377","Te bizony sokat driládzol. Én is sokat...","1","driládzom","[""driládzok"",""driládzom""]","","posttest trial","1",""
"html-button-response-clever","168","2973698","0.0-13.0-0.48","324","Te bizony sokat trilszol. Én is sokat...","1","trilszok","[""trilszom"",""trilszok""]","","posttest trial","1",""
"html-button-response-clever","169","2974834","0.0-13.0-0.49","619","Te bizony sokat lorjódzol. Én is sokat...","0","lorjódzok","[""lorjódzok"",""lorjódzom""]","","posttest trial","1",""
"html-button-response-clever","170","2975690","0.0-13.0-0.50","339","Te bizony sokat sprogzol. Én is sokat...","0","sprogzom","[""sprogzom"",""sprogzok""]","","posttest trial","1",""
"html-button-response-clever","171","2976538","0.0-13.0-0.51","343","Te bizony sokat csíszlasz. Én is sokat...","1","csíszlom","[""csíszlok"",""csíszlom""]","","posttest trial","1",""
"html-button-response-clever","172","2977818","0.0-13.0-0.52","771","Te bizony sokat marzol. Én is sokat...","1","marzok","[""marzom"",""marzok""]","","posttest trial","1",""
"html-button-response-clever","173","2980290","0.0-13.0-0.53","1964","Te bizony sokat sojzol. Én is sokat...","1","sojzok","[""sojzom"",""sojzok""]","","posttest trial","1",""
"html-button-response","174","2984986","0.0-14.0","4181","<p> Vége a játéknak. A teljes pontszámod 33/54.</p><p> Szép munka! &#128526;&#128526;&#128526;</p><p>A Befejezés gomb megnyomása után bezárhatod a böngészőablakot.</p>","0","","","","","",""
"html-keyboard-response","175","2990497","0.0-15.0","null","<div class=""message"">
         <p>Egy kis türelmet kérünk, amíg elmentjük az adatokat...</p>
         </div>","null","","","","","",""
