"trial_type","trial_index","time_elapsed","internal_node_id","rt","stimulus","response","response_string","choices","esp_response","trial_kind","list_number","esp_match"
"pavlovia","0","789","0.0-0.0","","","","","","","","",""
"html-button-response","1","5812","0.0-1.0","4514","<p>Kedves Résztvevő! A Budapesti Műszaki és Gazdaságtudományi Egyetem Kognitív Tudományi Tanszékének kutatásában való részvételed kérjük. A kutatásban azt vizsgáljuk, hogy a magyar anyanyelvűek hogyan használnak bizonyos szóalakokat, és hogy milyen képük van arról, hogy mások hogyan használják, hogyan képzik a szavakat. Ez hozzásegít bennünket ahhoz, hogy jobban megértsük, hogyan dolgozza fel és tárolja a nyelvet az emberi agy, és hogyan működnek, hogyan változnak egy adott közösség nyelvi konvenciói.</p><p>A vizsgálat egy rövid számítógépes feladatból fog állni. A kutatásban való részvétel önkéntes, a részvételi szándék bármikor visszavonható. A résztvevők eredményeit név nélkül kezeljük, így nem beazonosíthatók az adatok feldolgozása során. Minden személyes adatot az EU általános adatvédelmi rendeletének (GDPR) megfelelően kezelünk és legfeljebb öt éven belül megsemmisítünk. A vizsgálat jellemzően húsz percet vesz igénybe.</p><p>Kutatásvezető:</p><p>Dr. Rácz Péter, tudományos munkatárs, BME KTT</p><p>e-mail: racz.peter.marton@ttk.bme.hu</p>","0","","","","","",""
"html-button-response","2","18897","0.0-2.0","12573","<p>A kísérletben szavakat fogsz látni. Ezek között lesznek olyanok, amelyeket ismersz, de előfordulhatnak olyanok is, amelyeket nem ismersz, sőt, vannak köztük kitalált szavak is. Minden szónál látni fogsz toldalékolt alakokat. A te feladatod az lesz, hogy minden szóhoz kiválaszd azt a toldalékolt alakot, amely a te számodra ismerősebben, természetesebben hangzik. Rossz válaszok nincsenek, mert van olyan, hogy különböző embereknek más és más szó tűnik jobb választásnak. A választ úgy tudod majd kiválasztani, ha rákattintasz.</p><p>Ebben a szóválasztós játékban egy másik játékossal együtt veszel majd részt. A másik játékos is minden esetben azok közül a lehetőségek közül válogathat, mint te. Kettőtök feladata az, hogy ugyanazt a lehetőséget válasszátok minden esetben. Ahhoz, hogy ez sikerüljön, neked figyelned kell arra, hogy a másik játékos milyen válaszokat ad, és ennek alapján meg kell tippelned, hogyan választ legközelebb. Ha eltalálod, akkor pontot kapsz.</p>","0","","","","","",""
"html-button-response","3","21695","0.0-3.0","2287","<p>Kérjük, olvasd el az alábbi nyilatkozatot, és amennyiben egyetértesz vele, nyomj a Beleegyezés gombra!</p><p>Kijelentem, hogy magyar anyanyelvű személyként önként veszek részt a BME KTT kísérletében. A kutatás céljával és folyamatával kapcsolatban elegendő tájékoztatást kaptam, lehetőségem volt kérdések feltételére, és esetleges kérdéseimre megfelelő válaszokat kaptam. A tájékoztatás alapján elegendő mennyiségű információ áll a rendelkezésemre, hogy eldönthessem, részt kívánok-e venni a kutatásban.</p><p>Tisztában vagyok vele, hogy részvételi szándékomat és adataimat bármikor, indoklás nélkül visszavonhatom.</p><p>Értem és tudomásul veszem, hogy a kutatás tudományos célokat szolgál, és az általam szolgáltatott adatokat a BME kizárólag kutatási célból használja fel. Tudomásul veszem, hogy eredményeimet a többi résztvevő eredményeivel együtt kezelik, így egyéni teljesítményemről visszajelzést, szakvéleményt nem kapok.</p><p>Megértettem, hogy adataim kezelését illetően a BME az EU általános adatvédelmi rendelete (GDPR), a hatályos adatvédelmi törvény és a nemzetközi kutatás-etikai alapelvek szerint jár el. Eredményeim anonim módon kerülnek feldolgozásra, és a kutatás résztvevői az azonosításomra alkalmas adataimat harmadik félnek nem szolgáltatják ki. Engedélyezem a BME számára a jelen kutatásban felvett adataim feldolgozását és tárolását, beleértve azok későbbi kutatásokhoz való felhasználását is. Személyes adataim kezelésével kapcsolatban tájékoztatást kérhetek a kutatás résztvevőitől, az adatkezelés ellen tiltakozhatok, kérhetem személyes adataim helyesbítését, törlését vagy zárolását, valamint jogorvoslatért a Nemzeti Adatvédelmi és Információszabadság Hatósághoz fordulhatok.</p><p>Kijelentem, hogy a kutatásban való részvételem körülményeiről részletes tájékoztatást kaptam, és a feltételeket elfogadom.</p>","0","","","","","",""
"survey-text","4","52143","0.0-4.0","29913","","{""Q0"":""NVV5q6"",""Q1"":""nő"",""Q2"":"""",""Q3"":""15""}","","","","","",""
"html-button-response","5","61457","0.0-5.0","8798","<p>Ebben a játékban szavakat kell toldalékolni.</p> <p>Minden körben mutatunk majd egy példamondatot, amiben lesz egy szó.</p> <p>Alatta jön egy második mondat, ezt a mondatot neked kell majd befejezni, ugyanezzel a szóval.</p> <p>Nem biztos, hogy a szó eleve ismerős lesz számodra!</p> <p>Minden mondathoz adunk két lehetőséget, ezeket balra és jobbra látod majd.</p> <p>A játék kb. negyedóráig-húsz percig tart.</p>","0","","","","","",""
"html-button-response","6","68807","0.0-6.0","6836","<p>Nézzünk egy példát!</p> <p>A példamondat: ""Ez itt egy blumbnyeg.""</p><p>Neked ezt a mondatot kell befejezned: ""Ott vagyunk a...""</p><p>A lehetőségek pedig ezek:</p>","0","","","","","",""
"html-button-response","7","74273","0.0-7.0","4954","<p>Nagyon jó.</p><p>Ezt a játékot nem egyedül fogod játszani, hanem egy másik játékossal.</p><p>Mielőtt továbblépünk, összekapcsolunk titeket egymással.</p><p>Ez igénybe vehet néhány másodpercet, amihez szíves türelmed kérjük.</p>","0","","","","","",""
"html-button-response","8","80018","0.0-8.0","null","<p>Csatlakozás a másik játékoshoz...</p>","null","","","","","",""
"html-button-response","9","82536","0.0-9.0","null","<p> Sikeres kapcsolódás!</p>","null","","","","","",""
"html-button-response","10","89022","0.0-10.0","5973","<p>A következőkben ketten játsszátok a szóválasztós játékot.</p><p>A feladatotok az lesz, hogy minden körben <b>ugyanazt</b> a szót válasszátok.</p><p>Minden ilyen egyező válaszért pontot kaptok.</p><p>Próbáld meg kitalálni, mit választ a másik játékos!</p><p>Bármikor választhatsz, a körnek akkor van vége, ha mindketten döntöttetek.</p><p>Sok sikert!</p>","0","","","","","",""
"html-button-response-esp","11","95893","0.0-11.0-0.0","3530","Ez itt egy trájeg. Ott vagyunk a...","0","trájegben","[""trájegben"",""trájegban""]","trájegben","esp trial","3","true"
"html-button-response","12","99415","0.0-11.0-1.0","null","<p>A másik játékos ezt választotta: <b>trájegben</b>.</p><p>&#x2705;</p><p>A te válaszod és a másik játékos válasza <b>megegyeznek</b>.</p>","null","","","","feedback trial","",""
"html-button-response-esp","13","106273","0.0-11.0-0.1","3871","Ez itt egy jukél. Nincs is jobb egy jó...","1","jukélnél","[""jukélnál"",""jukélnél""]","jukélnél","esp trial","3","true"
"html-button-response","14","109780","0.0-11.0-1.1","null","<p>A másik játékos ezt választotta: <b>jukélnél</b>.</p><p>&#x2705;</p><p>A te válaszod és a másik játékos válasza <b>megegyeznek</b>.</p>","null","","","","feedback trial","",""
"html-button-response-esp","15","116655","0.0-11.0-0.2","3924","Ez itt egy sortem. Nincs is jobb egy jó...","1","sortemnál","[""sortemnél"",""sortemnál""]","sortemnél","esp trial","3","false"
"html-button-response","16","120161","0.0-11.0-1.2","null","<p>A másik játékos ezt választotta: <b>sortemnél</b>.</p><p>&#10060;</p><p>A válaszaitok <b>nem</b> egyeznek meg.</p>","null","","","","feedback trial","",""
"html-button-response-esp","17","127022","0.0-11.0-0.3","4400","Ez itt egy pítend. Ott vagyunk a...","0","pítendben","[""pítendben"",""pítendban""]","pítendben","esp trial","3","true"
"html-button-response","18","130530","0.0-11.0-1.3","null","<p>A másik játékos ezt választotta: <b>pítendben</b>.</p><p>&#x2705;</p><p>A te válaszod és a másik játékos válasza <b>megegyeznek</b>.</p>","null","","","","feedback trial","",""
"html-button-response-esp","19","137391","0.0-11.0-0.4","5065","Ez itt egy hágyét. Elneveztem a kutyámat...","0","hágyétnek","[""hágyétnek"",""hágyétnak""]","hágyétnak","esp trial","3","false"
"html-button-response","20","140898","0.0-11.0-1.4","null","<p>A másik játékos ezt választotta: <b>hágyétnak</b>.</p><p>&#10060;</p><p>A válaszaitok <b>nem</b> egyeznek meg.</p>","null","","","","feedback trial","",""
"html-button-response-esp","21","147763","0.0-11.0-0.5","4680","Ez itt egy bupéz. Ott vagyunk a...","1","bupézben","[""bupézban"",""bupézben""]","bupézban","esp trial","3","false"
"html-button-response","22","151294","0.0-11.0-1.5","null","<p>A másik játékos ezt választotta: <b>bupézban</b>.</p><p>&#10060;</p><p>A válaszaitok <b>nem</b> egyeznek meg.</p>","null","","","","feedback trial","",""
"html-button-response-esp","23","158160","0.0-11.0-0.6","4857","Ez itt egy vorszen. Nincs is jobb egy jó...","0","vorszennál","[""vorszennál"",""vorszennél""]","vorszennél","esp trial","3","false"
"html-button-response","24","161675","0.0-11.0-1.6","null","<p>A másik játékos ezt választotta: <b>vorszennél</b>.</p><p>&#10060;</p><p>A válaszaitok <b>nem</b> egyeznek meg.</p>","null","","","","feedback trial","",""
"html-button-response-esp","25","168535","0.0-11.0-0.7","5619","Ez itt egy nyamet. Ott vagyunk a...","0","nyametben","[""nyametben"",""nyametban""]","nyametben","esp trial","3","true"
"html-button-response","26","172058","0.0-11.0-1.7","null","<p>A másik játékos ezt választotta: <b>nyametben</b>.</p><p>&#x2705;</p><p>A te válaszod és a másik játékos válasza <b>megegyeznek</b>.</p>","null","","","","feedback trial","",""
"html-button-response-esp","27","178915","0.0-11.0-0.8","5036","Ez itt egy sprivenc. Nincs is jobb egy jó...","0","sprivencnél","[""sprivencnél"",""sprivencnál""]","sprivencnél","esp trial","3","true"
"html-button-response","28","182423","0.0-11.0-1.8","null","<p>A másik játékos ezt választotta: <b>sprivencnél</b>.</p><p>&#x2705;</p><p>A te válaszod és a másik játékos válasza <b>megegyeznek</b>.</p>","null","","","","feedback trial","",""
"html-button-response-esp","29","189324","0.0-11.0-0.9","6398","Ez itt egy kátel. Elneveztem a kutyámat...","1","kátelnek","[""kátelnak"",""kátelnek""]","kátelnek","esp trial","3","true"
"html-button-response","30","192835","0.0-11.0-1.9","null","<p>A másik játékos ezt választotta: <b>kátelnek</b>.</p><p>&#x2705;</p><p>A te válaszod és a másik játékos válasza <b>megegyeznek</b>.</p>","null","","","","feedback trial","",""
"html-button-response-esp","31","200776","0.0-11.0-0.10","7437","Ez itt egy tosély. Ott vagyunk a...","0","tosélyben","[""tosélyben"",""tosélyban""]","tosélyban","esp trial","3","false"
"html-button-response","32","204299","0.0-11.0-1.10","null","<p>A másik játékos ezt választotta: <b>tosélyban</b>.</p><p>&#10060;</p><p>A válaszaitok <b>nem</b> egyeznek meg.</p>","null","","","","feedback trial","",""
"html-button-response-esp","33","211158","0.0-11.0-0.11","2675","Ez itt egy pisély. Ott vagyunk a...","1","pisélyben","[""pisélyban"",""pisélyben""]","pisélyben","esp trial","3","true"
"html-button-response","34","214676","0.0-11.0-1.11","null","<p>A másik játékos ezt választotta: <b>pisélyben</b>.</p><p>&#x2705;</p><p>A te válaszod és a másik játékos válasza <b>megegyeznek</b>.</p>","null","","","","feedback trial","",""
"html-button-response-esp","35","221537","0.0-11.0-0.12","3136","Ez itt egy fájéz. Ott vagyunk a...","1","fájézben","[""fájézban"",""fájézben""]","fájézban","esp trial","3","false"
"html-button-response","36","225044","0.0-11.0-1.12","null","<p>A másik játékos ezt választotta: <b>fájézban</b>.</p><p>&#10060;</p><p>A válaszaitok <b>nem</b> egyeznek meg.</p>","null","","","","feedback trial","",""
"html-button-response-esp","37","231905","0.0-11.0-0.13","2740","Ez itt egy kalréz. Ott vagyunk a...","1","kalrézban","[""kalrézben"",""kalrézban""]","kalrézban","esp trial","3","true"
"html-button-response","38","235412","0.0-11.0-1.13","null","<p>A másik játékos ezt választotta: <b>kalrézban</b>.</p><p>&#x2705;</p><p>A te válaszod és a másik játékos válasza <b>megegyeznek</b>.</p>","null","","","","feedback trial","",""
"html-button-response-esp","39","242272","0.0-11.0-0.14","3790","Ez itt egy incéj. Elneveztem a kutyámat...","0","incéjnek","[""incéjnek"",""incéjnak""]","incéjnek","esp trial","3","true"
"html-button-response","40","245777","0.0-11.0-1.14","null","<p>A másik játékos ezt választotta: <b>incéjnek</b>.</p><p>&#x2705;</p><p>A te válaszod és a másik játékos válasza <b>megegyeznek</b>.</p>","null","","","","feedback trial","",""
"html-button-response-esp","41","252637","0.0-11.0-0.15","3618","Ez itt egy klosét. Elneveztem a kutyámat...","0","klosétnak","[""klosétnak"",""klosétnek""]","klosétnak","esp trial","3","true"
"html-button-response","42","256153","0.0-11.0-1.15","null","<p>A másik játékos ezt választotta: <b>klosétnak</b>.</p><p>&#x2705;</p><p>A te válaszod és a másik játékos válasza <b>megegyeznek</b>.</p>","null","","","","feedback trial","",""
"html-button-response-esp","43","263015","0.0-11.0-0.16","2647","Ez itt egy klingesz. Ott vagyunk a...","0","klingeszben","[""klingeszben"",""klingeszban""]","klingeszben","esp trial","3","true"
"html-button-response","44","266522","0.0-11.0-1.16","null","<p>A másik játékos ezt választotta: <b>klingeszben</b>.</p><p>&#x2705;</p><p>A te válaszod és a másik játékos válasza <b>megegyeznek</b>.</p>","null","","","","feedback trial","",""
"html-button-response-esp","45","275800","0.0-11.0-0.17","8771","Ez itt egy spábét. Ott vagyunk a...","1","spábétben","[""spábétban"",""spábétben""]","spábétban","esp trial","3","false"
"html-button-response","46","279323","0.0-11.0-1.17","null","<p>A másik játékos ezt választotta: <b>spábétban</b>.</p><p>&#10060;</p><p>A válaszaitok <b>nem</b> egyeznek meg.</p>","null","","","","feedback trial","",""
"html-button-response-esp","47","286193","0.0-11.0-0.18","4379","Ez itt egy nyítem. Ott vagyunk a...","1","nyítemban","[""nyítemben"",""nyítemban""]","nyítemben","esp trial","3","false"
"html-button-response","48","289717","0.0-11.0-1.18","null","<p>A másik játékos ezt választotta: <b>nyítemben</b>.</p><p>&#10060;</p><p>A válaszaitok <b>nem</b> egyeznek meg.</p>","null","","","","feedback trial","",""
"html-button-response-esp","49","296577","0.0-11.0-0.19","2038","Ez itt egy zopély. Nincs is jobb egy jó...","0","zopélynál","[""zopélynál"",""zopélynél""]","zopélynál","esp trial","3","true"
"html-button-response","50","300086","0.0-11.0-1.19","null","<p>A másik játékos ezt választotta: <b>zopélynál</b>.</p><p>&#x2705;</p><p>A te válaszod és a másik játékos válasza <b>megegyeznek</b>.</p>","null","","","","feedback trial","",""
"html-button-response-esp","51","306944","0.0-11.0-0.20","3355","Ez itt egy zsáder. Ott vagyunk a...","1","zsáderben","[""zsáderban"",""zsáderben""]","zsáderben","esp trial","3","true"
"html-button-response","52","310453","0.0-11.0-1.20","null","<p>A másik játékos ezt választotta: <b>zsáderben</b>.</p><p>&#x2705;</p><p>A te válaszod és a másik játékos válasza <b>megegyeznek</b>.</p>","null","","","","feedback trial","",""
"html-button-response-esp","53","317310","0.0-11.0-0.21","3586","Ez itt egy luméz. Ott vagyunk a...","1","lumézben","[""lumézban"",""lumézben""]","lumézban","esp trial","3","false"
"html-button-response","54","320818","0.0-11.0-1.21","null","<p>A másik játékos ezt választotta: <b>lumézban</b>.</p><p>&#10060;</p><p>A válaszaitok <b>nem</b> egyeznek meg.</p>","null","","","","feedback trial","",""
"html-button-response-esp","55","328732","0.0-11.0-0.22","7408","Ez itt egy zsigén. Nincs is jobb egy jó...","0","zsigénnál","[""zsigénnál"",""zsigénnél""]","zsigénnél","esp trial","3","false"
"html-button-response","56","332250","0.0-11.0-1.22","null","<p>A másik játékos ezt választotta: <b>zsigénnél</b>.</p><p>&#10060;</p><p>A válaszaitok <b>nem</b> egyeznek meg.</p>","null","","","","feedback trial","",""
"html-button-response-esp","57","343495","0.0-11.0-0.23","10738","Ez itt egy zihenc. Elneveztem a kutyámat...","1","zihencnek","[""zihencnak"",""zihencnek""]","zihencnek","esp trial","3","true"
"html-button-response","58","347013","0.0-11.0-1.23","null","<p>A másik játékos ezt választotta: <b>zihencnek</b>.</p><p>&#x2705;</p><p>A te válaszod és a másik játékos válasza <b>megegyeznek</b>.</p>","null","","","","feedback trial","",""
"html-button-response-esp","59","353886","0.0-11.0-0.24","3162","Ez itt egy ítens. Ott vagyunk a...","1","ítensben","[""ítensban"",""ítensben""]","ítensben","esp trial","3","true"
"html-button-response","60","357409","0.0-11.0-1.24","null","<p>A másik játékos ezt választotta: <b>ítensben</b>.</p><p>&#x2705;</p><p>A te válaszod és a másik játékos válasza <b>megegyeznek</b>.</p>","null","","","","feedback trial","",""
"html-button-response-esp","61","364266","0.0-11.0-0.25","3461","Ez itt egy spanél. Nincs is jobb egy jó...","0","spanélnél","[""spanélnél"",""spanélnál""]","spanélnál","esp trial","3","false"
"html-button-response","62","367773","0.0-11.0-1.25","null","<p>A másik játékos ezt választotta: <b>spanélnál</b>.</p><p>&#10060;</p><p>A válaszaitok <b>nem</b> egyeznek meg.</p>","null","","","","feedback trial","",""
"html-button-response-esp","63","374631","0.0-11.0-0.26","5979","Ez itt egy zsádév. Elneveztem a kutyámat...","1","zsádévnek","[""zsádévnak"",""zsádévnek""]","zsádévnak","esp trial","3","false"
"html-button-response","64","378138","0.0-11.0-1.26","null","<p>A másik játékos ezt választotta: <b>zsádévnak</b>.</p><p>&#10060;</p><p>A válaszaitok <b>nem</b> egyeznek meg.</p>","null","","","","feedback trial","",""
"html-button-response-esp","65","384996","0.0-11.0-0.27","4199","Ez itt egy dorzéj. Elneveztem a kutyámat...","1","dorzéjnek","[""dorzéjnak"",""dorzéjnek""]","dorzéjnek","esp trial","3","true"
"html-button-response","66","388504","0.0-11.0-1.27","null","<p>A másik játékos ezt választotta: <b>dorzéjnek</b>.</p><p>&#x2705;</p><p>A te válaszod és a másik játékos válasza <b>megegyeznek</b>.</p>","null","","","","feedback trial","",""
"html-button-response-esp","67","395361","0.0-11.0-0.28","3580","Ez itt egy rapszek. Nincs is jobb egy jó...","1","rapszeknél","[""rapszeknál"",""rapszeknél""]","rapszeknél","esp trial","3","true"
"html-button-response","68","398866","0.0-11.0-1.28","null","<p>A másik játékos ezt választotta: <b>rapszeknél</b>.</p><p>&#x2705;</p><p>A te válaszod és a másik játékos válasza <b>megegyeznek</b>.</p>","null","","","","feedback trial","",""
"html-button-response-esp","69","405724","0.0-11.0-0.29","4969","Ez itt egy kalhész. Elneveztem a kutyámat...","1","kalhésznak","[""kalhésznek"",""kalhésznak""]","kalhésznek","esp trial","3","false"
"html-button-response","70","409247","0.0-11.0-1.29","null","<p>A másik játékos ezt választotta: <b>kalhésznek</b>.</p><p>&#10060;</p><p>A válaszaitok <b>nem</b> egyeznek meg.</p>","null","","","","feedback trial","",""
"html-button-response-esp","71","416107","0.0-11.0-0.30","4089","Ez itt egy ronszek. Ott vagyunk a...","0","ronszekben","[""ronszekben"",""ronszekban""]","ronszekben","esp trial","3","true"
"html-button-response","72","419615","0.0-11.0-1.30","null","<p>A másik játékos ezt választotta: <b>ronszekben</b>.</p><p>&#x2705;</p><p>A te válaszod és a másik játékos válasza <b>megegyeznek</b>.</p>","null","","","","feedback trial","",""
"html-button-response-esp","73","426473","0.0-11.0-0.31","4072","Ez itt egy dihely. Elneveztem a kutyámat...","1","dihelynek","[""dihelynak"",""dihelynek""]","dihelynek","esp trial","3","true"
"html-button-response","74","429995","0.0-11.0-1.31","null","<p>A másik játékos ezt választotta: <b>dihelynek</b>.</p><p>&#x2705;</p><p>A te válaszod és a másik játékos válasza <b>megegyeznek</b>.</p>","null","","","","feedback trial","",""
"html-button-response-esp","75","436855","0.0-11.0-0.32","4011","Ez itt egy bralkép. Ott vagyunk a...","0","bralképben","[""bralképben"",""bralképban""]","bralképben","esp trial","3","true"
"html-button-response","76","440362","0.0-11.0-1.32","null","<p>A másik játékos ezt választotta: <b>bralképben</b>.</p><p>&#x2705;</p><p>A te válaszod és a másik játékos válasza <b>megegyeznek</b>.</p>","null","","","","feedback trial","",""
"html-button-response-esp","77","447223","0.0-11.0-0.33","3631","Ez itt egy pivéd. Ott vagyunk a...","0","pivédben","[""pivédben"",""pivédban""]","pivédben","esp trial","3","true"
"html-button-response","78","450745","0.0-11.0-1.33","null","<p>A másik játékos ezt választotta: <b>pivédben</b>.</p><p>&#x2705;</p><p>A te válaszod és a másik játékos válasza <b>megegyeznek</b>.</p>","null","","","","feedback trial","",""
"html-button-response-esp","79","457613","0.0-11.0-0.34","3718","Ez itt egy pijél. Nincs is jobb egy jó...","1","pijélnél","[""pijélnál"",""pijélnél""]","pijélnél","esp trial","3","true"
"html-button-response","80","461138","0.0-11.0-1.34","null","<p>A másik játékos ezt választotta: <b>pijélnél</b>.</p><p>&#x2705;</p><p>A te válaszod és a másik játékos válasza <b>megegyeznek</b>.</p>","null","","","","feedback trial","",""
"html-button-response-esp","81","467998","0.0-11.0-0.35","2977","Ez itt egy trismél. Elneveztem a kutyámat...","1","trismélnek","[""trismélnak"",""trismélnek""]","trismélnek","esp trial","3","true"
"html-button-response","82","471520","0.0-11.0-1.35","null","<p>A másik játékos ezt választotta: <b>trismélnek</b>.</p><p>&#x2705;</p><p>A te válaszod és a másik játékos válasza <b>megegyeznek</b>.</p>","null","","","","feedback trial","",""
"html-button-response-esp","83","481742","0.0-11.0-0.36","9719","Ez itt egy gúden. Ott vagyunk a...","0","gúdenben","[""gúdenben"",""gúdenban""]","gúdenben","esp trial","3","true"
"html-button-response","84","485252","0.0-11.0-1.36","null","<p>A másik játékos ezt választotta: <b>gúdenben</b>.</p><p>&#x2705;</p><p>A te válaszod és a másik játékos válasza <b>megegyeznek</b>.</p>","null","","","","feedback trial","",""
"html-button-response-esp","85","492111","0.0-11.0-0.37","2903","Ez itt egy priszec. Ott vagyunk a...","1","priszecben","[""priszecban"",""priszecben""]","priszecben","esp trial","3","true"
"html-button-response","86","495616","0.0-11.0-1.37","null","<p>A másik játékos ezt választotta: <b>priszecben</b>.</p><p>&#x2705;</p><p>A te válaszod és a másik játékos válasza <b>megegyeznek</b>.</p>","null","","","","feedback trial","",""
"html-button-response-esp","87","502473","0.0-11.0-0.38","5221","Ez itt egy spumény. Elneveztem a kutyámat...","0","spuménynek","[""spuménynek"",""spuménynak""]","spuménynek","esp trial","3","true"
"html-button-response","88","505980","0.0-11.0-1.38","null","<p>A másik játékos ezt választotta: <b>spuménynek</b>.</p><p>&#x2705;</p><p>A te válaszod és a másik játékos válasza <b>megegyeznek</b>.</p>","null","","","","feedback trial","",""
"html-button-response-esp","89","512842","0.0-11.0-0.39","6220","Ez itt egy garcép. Nincs is jobb egy jó...","0","garcépnál","[""garcépnál"",""garcépnél""]","garcépnál","esp trial","3","true"
"html-button-response","90","516364","0.0-11.0-1.39","null","<p>A másik játékos ezt választotta: <b>garcépnál</b>.</p><p>&#x2705;</p><p>A te válaszod és a másik játékos válasza <b>megegyeznek</b>.</p>","null","","","","feedback trial","",""
"html-button-response-esp","91","523221","0.0-11.0-0.40","4054","Ez itt egy zsúdel. Elneveztem a kutyámat...","1","zsúdelnek","[""zsúdelnak"",""zsúdelnek""]","zsúdelnek","esp trial","3","true"
"html-button-response","92","526727","0.0-11.0-1.40","null","<p>A másik játékos ezt választotta: <b>zsúdelnek</b>.</p><p>&#x2705;</p><p>A te válaszod és a másik játékos válasza <b>megegyeznek</b>.</p>","null","","","","feedback trial","",""
"html-button-response-esp","93","533586","0.0-11.0-0.41","5620","Ez itt egy kaszép. Elneveztem a kutyámat...","1","kaszépnak","[""kaszépnek"",""kaszépnak""]","kaszépnek","esp trial","3","false"
"html-button-response","94","537092","0.0-11.0-1.41","null","<p>A másik játékos ezt választotta: <b>kaszépnek</b>.</p><p>&#10060;</p><p>A válaszaitok <b>nem</b> egyeznek meg.</p>","null","","","","feedback trial","",""
"html-button-response-esp","95","543954","0.0-11.0-0.42","3220","Ez itt egy dalenc. Nincs is jobb egy jó...","0","dalencnél","[""dalencnél"",""dalencnál""]","dalencnél","esp trial","3","true"
"html-button-response","96","547462","0.0-11.0-1.42","null","<p>A másik játékos ezt választotta: <b>dalencnél</b>.</p><p>&#x2705;</p><p>A te válaszod és a másik játékos válasza <b>megegyeznek</b>.</p>","null","","","","feedback trial","",""
"html-button-response-esp","97","554321","0.0-11.0-0.43","4054","Ez itt egy darhén. Ott vagyunk a...","0","darhénben","[""darhénben"",""darhénban""]","darhénban","esp trial","3","false"
"html-button-response","98","557829","0.0-11.0-1.43","null","<p>A másik játékos ezt választotta: <b>darhénban</b>.</p><p>&#10060;</p><p>A válaszaitok <b>nem</b> egyeznek meg.</p>","null","","","","feedback trial","",""
"html-button-response-esp","99","564687","0.0-11.0-0.44","3671","Ez itt egy nyupér. Nincs is jobb egy jó...","0","nyupérnél","[""nyupérnél"",""nyupérnál""]","nyupérnál","esp trial","3","false"
"html-button-response","100","568195","0.0-11.0-1.44","null","<p>A másik játékos ezt választotta: <b>nyupérnál</b>.</p><p>&#10060;</p><p>A válaszaitok <b>nem</b> egyeznek meg.</p>","null","","","","feedback trial","",""
"html-button-response-esp","101","575054","0.0-11.0-0.45","4219","Ez itt egy dábegy. Ott vagyunk a...","1","dábegyben","[""dábegyban"",""dábegyben""]","dábegyben","esp trial","3","true"
"html-button-response","102","578560","0.0-11.0-1.45","null","<p>A másik játékos ezt választotta: <b>dábegyben</b>.</p><p>&#x2705;</p><p>A te válaszod és a másik játékos válasza <b>megegyeznek</b>.</p>","null","","","","feedback trial","",""
"html-button-response-esp","103","585421","0.0-11.0-0.46","4451","Ez itt egy monveg. Nincs is jobb egy jó...","0","monvegnál","[""monvegnál"",""monvegnél""]","monvegnél","esp trial","3","false"
"html-button-response","104","588927","0.0-11.0-1.46","null","<p>A másik játékos ezt választotta: <b>monvegnél</b>.</p><p>&#10060;</p><p>A válaszaitok <b>nem</b> egyeznek meg.</p>","null","","","","feedback trial","",""
"html-button-response-esp","105","595786","0.0-11.0-0.47","3133","Ez itt egy danét. Nincs is jobb egy jó...","0","danétnél","[""danétnél"",""danétnál""]","danétnál","esp trial","3","false"
"html-button-response","106","599312","0.0-11.0-1.47","null","<p>A másik játékos ezt választotta: <b>danétnál</b>.</p><p>&#10060;</p><p>A válaszaitok <b>nem</b> egyeznek meg.</p>","null","","","","feedback trial","",""
"html-button-response-esp","107","606188","0.0-11.0-0.48","6164","Ez itt egy spicet. Elneveztem a kutyámat...","1","spicetnek","[""spicetnak"",""spicetnek""]","spicetnek","esp trial","3","true"
"html-button-response","108","609722","0.0-11.0-1.48","null","<p>A másik játékos ezt választotta: <b>spicetnek</b>.</p><p>&#x2705;</p><p>A te válaszod és a másik játékos válasza <b>megegyeznek</b>.</p>","null","","","","feedback trial","",""
"html-button-response-esp","109","616587","0.0-11.0-0.49","3749","Ez itt egy braszenc. Nincs is jobb egy jó...","1","braszencnál","[""braszencnél"",""braszencnál""]","braszencnél","esp trial","3","false"
"html-button-response","110","620104","0.0-11.0-1.49","null","<p>A másik játékos ezt választotta: <b>braszencnél</b>.</p><p>&#10060;</p><p>A válaszaitok <b>nem</b> egyeznek meg.</p>","null","","","","feedback trial","",""
"html-button-response-esp","111","626970","0.0-11.0-0.50","3296","Ez itt egy jóbec. Elneveztem a kutyámat...","1","jóbecnek","[""jóbecnak"",""jóbecnek""]","jóbecnek","esp trial","3","true"
"html-button-response","112","630498","0.0-11.0-1.50","null","<p>A másik játékos ezt választotta: <b>jóbecnek</b>.</p><p>&#x2705;</p><p>A te válaszod és a másik játékos válasza <b>megegyeznek</b>.</p>","null","","","","feedback trial","",""
"html-button-response-esp","113","637368","0.0-11.0-0.51","3906","Ez itt egy narem. Ott vagyunk a...","0","naremben","[""naremben"",""naremban""]","naremben","esp trial","3","true"
"html-button-response","114","640892","0.0-11.0-1.51","null","<p>A másik játékos ezt választotta: <b>naremben</b>.</p><p>&#x2705;</p><p>A te válaszod és a másik játékos válasza <b>megegyeznek</b>.</p>","null","","","","feedback trial","",""
"html-button-response-esp","115","647756","0.0-11.0-0.52","2768","Ez itt egy brindez. Elneveztem a kutyámat...","1","brindeznek","[""brindeznak"",""brindeznek""]","brindeznek","esp trial","3","true"
"html-button-response","116","651282","0.0-11.0-1.52","null","<p>A másik játékos ezt választotta: <b>brindeznek</b>.</p><p>&#x2705;</p><p>A te válaszod és a másik játékos válasza <b>megegyeznek</b>.</p>","null","","","","feedback trial","",""
"html-button-response-esp","117","658145","0.0-11.0-0.53","3213","Ez itt egy lorzens. Nincs is jobb egy jó...","0","lorzensnál","[""lorzensnál"",""lorzensnél""]","lorzensnél","esp trial","3","false"
"html-button-response","118","661658","0.0-11.0-1.53","null","<p>A másik játékos ezt választotta: <b>lorzensnél</b>.</p><p>&#10060;</p><p>A válaszaitok <b>nem</b> egyeznek meg.</p>","null","","","","feedback trial","",""
"html-button-response","119","666151","0.0-12.0","3992","<p>A közös játék most véget ért.</p><p>Mielőtt eláruljuk a végső pontszámodat, arra kérlek, játszd a szóválasztós játékot néhány percig egyedül is.</p><p>A feladatod ugyanaz lesz, választani két lehetőség közül.</p><p>Most viszont egyedül kell döntened, hogy te melyiket választanád.</p>","0","","","","","",""
"html-button-response-clever","120","670801","0.0-13.0-0.0","4141","Ez itt egy pristél. Ott vagyunk a...","1","pristélben","[""pristélban"",""pristélben""]","","posttest trial","4",""
"html-button-response-clever","121","674649","0.0-13.0-0.1","3331","Ez itt egy lijez. Elneveztem a kutyámat...","0","lijeznek","[""lijeznek"",""lijeznak""]","","posttest trial","4",""
"html-button-response-clever","122","677800","0.0-13.0-0.2","2635","Ez itt egy jurdent. Nincs is jobb egy jó...","1","jurdentnél","[""jurdentnál"",""jurdentnél""]","","posttest trial","4",""
"html-button-response-clever","123","682915","0.0-13.0-0.3","4599","Ez itt egy zsalrén. Elneveztem a kutyámat...","0","zsalrénnek","[""zsalrénnek"",""zsalrénnak""]","","posttest trial","4",""
"html-button-response-clever","124","686332","0.0-13.0-0.4","2901","Ez itt egy klajrén. Elneveztem a kutyámat...","0","klajrénnek","[""klajrénnek"",""klajrénnak""]","","posttest trial","4",""
"html-button-response-clever","125","689498","0.0-13.0-0.5","2650","Ez itt egy briskéd. Nincs is jobb egy jó...","1","briskédnél","[""briskédnál"",""briskédnél""]","","posttest trial","4",""
"html-button-response-clever","126","692706","0.0-13.0-0.6","2703","Ez itt egy vodec. Nincs is jobb egy jó...","1","vodecnál","[""vodecnél"",""vodecnál""]","","posttest trial","4",""
"html-button-response-clever","127","696231","0.0-13.0-0.7","3015","Ez itt egy zined. Elneveztem a kutyámat...","1","zinednek","[""zinednak"",""zinednek""]","","posttest trial","4",""
"html-button-response-clever","128","700145","0.0-13.0-0.8","3398","Ez itt egy fágyép. Nincs is jobb egy jó...","1","fágyépnél","[""fágyépnál"",""fágyépnél""]","","posttest trial","4",""
"html-button-response-clever","129","703299","0.0-13.0-0.9","2638","Ez itt egy bingéj. Elneveztem a kutyámat...","1","bingéjnek","[""bingéjnak"",""bingéjnek""]","","posttest trial","4",""
"html-button-response-clever","130","706101","0.0-13.0-0.10","2286","Ez itt egy klazér. Ott vagyunk a...","1","klazérban","[""klazérben"",""klazérban""]","","posttest trial","4",""
"html-button-response-clever","131","710217","0.0-13.0-0.11","3605","Ez itt egy vismer. Nincs is jobb egy jó...","0","vismernél","[""vismernél"",""vismernál""]","","posttest trial","4",""
"html-button-response-clever","132","713388","0.0-13.0-0.12","2655","Ez itt egy vurnel. Elneveztem a kutyámat...","1","vurnelnek","[""vurnelnak"",""vurnelnek""]","","posttest trial","4",""
"html-button-response-clever","133","716112","0.0-13.0-0.13","2218","Ez itt egy pazév. Nincs is jobb egy jó...","1","pazévnél","[""pazévnál"",""pazévnél""]","","posttest trial","4",""
"html-button-response-clever","134","719744","0.0-13.0-0.14","3116","Ez itt egy jutély. Nincs is jobb egy jó...","1","jutélynél","[""jutélynál"",""jutélynél""]","","posttest trial","4",""
"html-button-response-clever","135","722543","0.0-13.0-0.15","2282","Ez itt egy csodeg. Nincs is jobb egy jó...","1","csodegnél","[""csodegnál"",""csodegnél""]","","posttest trial","4",""
"html-button-response-clever","136","724776","0.0-13.0-0.16","1716","Ez itt egy fizend. Ott vagyunk a...","0","fizendban","[""fizendban"",""fizendben""]","","posttest trial","4",""
"html-button-response-clever","137","728099","0.0-13.0-0.17","2806","Ez itt egy dajrens. Nincs is jobb egy jó...","1","dajrensnál","[""dajrensnél"",""dajrensnál""]","","posttest trial","4",""
"html-button-response-clever","138","731296","0.0-13.0-0.18","2686","Ez itt egy dóbem. Elneveztem a kutyámat...","0","dóbemnek","[""dóbemnek"",""dóbemnak""]","","posttest trial","4",""
"html-button-response-clever","139","735393","0.0-13.0-0.19","3584","Ez itt egy fupét. Nincs is jobb egy jó...","0","fupétnál","[""fupétnál"",""fupétnél""]","","posttest trial","4",""
"html-button-response-clever","140","738981","0.0-13.0-0.20","3072","Ez itt egy klítegy. Nincs is jobb egy jó...","0","klítegynél","[""klítegynél"",""klítegynál""]","","posttest trial","4",""
"html-button-response-clever","141","742076","0.0-13.0-0.21","2585","Ez itt egy zatéj. Nincs is jobb egy jó...","0","zatéjnál","[""zatéjnál"",""zatéjnél""]","","posttest trial","4",""
"html-button-response-clever","142","745109","0.0-13.0-0.22","2514","Ez itt egy szibed. Ott vagyunk a...","1","szibedben","[""szibedban"",""szibedben""]","","posttest trial","4",""
"html-button-response-clever","143","748350","0.0-13.0-0.23","2724","Ez itt egy mádép. Nincs is jobb egy jó...","0","mádépnél","[""mádépnél"",""mádépnál""]","","posttest trial","4",""
"html-button-response-clever","144","751624","0.0-13.0-0.24","2767","Ez itt egy zarcég. Nincs is jobb egy jó...","0","zarcégnél","[""zarcégnél"",""zarcégnál""]","","posttest trial","4",""
"html-button-response-clever","145","754922","0.0-13.0-0.25","2789","Ez itt egy fojlegy. Elneveztem a kutyámat...","1","fojlegynek","[""fojlegynak"",""fojlegynek""]","","posttest trial","4",""
"html-button-response-clever","146","758073","0.0-13.0-0.26","2636","Ez itt egy zábény. Elneveztem a kutyámat...","1","zábénynek","[""zábénynak"",""zábénynek""]","","posttest trial","4",""
"html-button-response-clever","147","761540","0.0-13.0-0.27","2960","Ez itt egy szanéj. Elneveztem a kutyámat...","0","szanéjnak","[""szanéjnak"",""szanéjnek""]","","posttest trial","4",""
"html-button-response-clever","148","765155","0.0-13.0-0.28","3101","Ez itt egy lingék. Nincs is jobb egy jó...","0","lingéknél","[""lingéknél"",""lingéknál""]","","posttest trial","4",""
"html-button-response-clever","149","768472","0.0-13.0-0.29","2800","Ez itt egy humék. Elneveztem a kutyámat...","0","huméknek","[""huméknek"",""huméknak""]","","posttest trial","4",""
"html-button-response-clever","150","771060","0.0-13.0-0.30","2071","Ez itt egy sihen. Nincs is jobb egy jó...","1","sihennél","[""sihennál"",""sihennél""]","","posttest trial","4",""
"html-button-response-clever","151","775129","0.0-13.0-0.31","3557","Ez itt egy cságyelt. Ott vagyunk a...","0","cságyeltben","[""cságyeltben"",""cságyeltban""]","","posttest trial","4",""
"html-button-response-clever","152","778156","0.0-13.0-0.32","2518","Ez itt egy spivél. Elneveztem a kutyámat...","1","spivélnek","[""spivélnak"",""spivélnek""]","","posttest trial","4",""
"html-button-response-clever","153","781491","0.0-13.0-0.33","2822","Ez itt egy surnegy. Nincs is jobb egy jó...","1","surnegynél","[""surnegynál"",""surnegynél""]","","posttest trial","4",""
"html-button-response-clever","154","784037","0.0-13.0-0.34","2034","Ez itt egy dinelt. Ott vagyunk a...","0","dineltben","[""dineltben"",""dineltban""]","","posttest trial","4",""
"html-button-response-clever","155","786889","0.0-13.0-0.35","2336","Ez itt egy tivenc. Ott vagyunk a...","0","tivencben","[""tivencben"",""tivencban""]","","posttest trial","4",""
"html-button-response-clever","156","789870","0.0-13.0-0.36","2468","Ez itt egy dunkész. Ott vagyunk a...","0","dunkészben","[""dunkészben"",""dunkészban""]","","posttest trial","4",""
"html-button-response-clever","157","792725","0.0-13.0-0.37","2341","Ez itt egy gábéd. Nincs is jobb egy jó...","0","gábédnél","[""gábédnél"",""gábédnál""]","","posttest trial","4",""
"html-button-response-clever","158","796719","0.0-13.0-0.38","3482","Ez itt egy hosét. Elneveztem a kutyámat...","0","hosétnek","[""hosétnek"",""hosétnak""]","","posttest trial","4",""
"html-button-response-clever","159","799397","0.0-13.0-0.39","2162","Ez itt egy kátéd. Nincs is jobb egy jó...","1","kátédnál","[""kátédnél"",""kátédnál""]","","posttest trial","4",""
"html-button-response-clever","160","802435","0.0-13.0-0.40","2533","Ez itt egy tumély. Nincs is jobb egy jó...","0","tumélynál","[""tumélynál"",""tumélynél""]","","posttest trial","4",""
"html-button-response-clever","161","805535","0.0-13.0-0.41","2584","Ez itt egy spatel. Elneveztem a kutyámat...","0","spatelnek","[""spatelnek"",""spatelnak""]","","posttest trial","4",""
"html-button-response-clever","162","808103","0.0-13.0-0.42","2063","Ez itt egy nuhét. Nincs is jobb egy jó...","1","nuhétnál","[""nuhétnél"",""nuhétnál""]","","posttest trial","4",""
"html-button-response-clever","163","812536","0.0-13.0-0.43","3919","Ez itt egy csublény. Ott vagyunk a...","0","csublényban","[""csublényban"",""csublényben""]","","posttest trial","4",""
"html-button-response-clever","164","814960","0.0-13.0-0.44","1910","Ez itt egy murdes. Nincs is jobb egy jó...","0","murdesnél","[""murdesnél"",""murdesnál""]","","posttest trial","4",""
"html-button-response-clever","165","818151","0.0-13.0-0.45","2686","Ez itt egy spizec. Elneveztem a kutyámat...","1","spizecnek","[""spizecnak"",""spizecnek""]","","posttest trial","4",""
"html-button-response-clever","166","821645","0.0-13.0-0.46","2979","Ez itt egy zuten. Nincs is jobb egy jó...","0","zutennál","[""zutennál"",""zutennél""]","","posttest trial","4",""
"html-button-response-clever","167","825733","0.0-13.0-0.47","3584","Ez itt egy trikép. Ott vagyunk a...","0","triképben","[""triképben"",""triképban""]","","posttest trial","4",""
"html-button-response-clever","168","828650","0.0-13.0-0.48","2401","Ez itt egy tarhéz. Ott vagyunk a...","1","tarhézban","[""tarhézben"",""tarhézban""]","","posttest trial","4",""
"html-button-response-clever","169","831132","0.0-13.0-0.49","1966","Ez itt egy dibez. Ott vagyunk a...","1","dibezban","[""dibezben"",""dibezban""]","","posttest trial","4",""
"html-button-response-clever","170","833232","0.0-13.0-0.50","1584","Ez itt egy trodély. Ott vagyunk a...","0","trodélyban","[""trodélyban"",""trodélyben""]","","posttest trial","4",""
"html-button-response-clever","171","835756","0.0-13.0-0.51","2019","Ez itt egy dutec. Nincs is jobb egy jó...","0","dutecnél","[""dutecnél"",""dutecnál""]","","posttest trial","4",""
"html-button-response-clever","172","838299","0.0-13.0-0.52","2036","Ez itt egy lihény. Elneveztem a kutyámat...","1","lihénynek","[""lihénynak"",""lihénynek""]","","posttest trial","4",""
"html-button-response-clever","173","841048","0.0-13.0-0.53","2234","Ez itt egy hijegy. Nincs is jobb egy jó...","1","hijegynél","[""hijegynál"",""hijegynél""]","","posttest trial","4",""
"html-button-response","174","845400","0.0-14.0","3847","<p> Vége a játéknak. A teljes pontszámod 34/54.</p><p> Szép munka! &#128526;&#128526;&#128526;</p><p>A Befejezés gomb megnyomása után bezárhatod a böngészőablakot.</p>","0","","","","","",""
"html-keyboard-response","175","850927","0.0-15.0","null","<div class=""message"">
         <p>Egy kis türelmet kérünk, amíg elmentjük az adatokat...</p>
         </div>","null","","","","","",""
