"trial_type","trial_index","time_elapsed","internal_node_id","rt","stimulus","response","response_string","choices","esp_response","trial_kind","list_number","esp_match"
"pavlovia","0","616","0.0-0.0","","","","","","","","",""
"html-button-response","1","19385","0.0-1.0","18262","<p>Kedves Résztvevő! A Budapesti Műszaki és Gazdaságtudományi Egyetem Kognitív Tudományi Tanszékének kutatásában való részvételed kérjük. A kutatásban azt vizsgáljuk, hogy a magyar anyanyelvűek hogyan használnak bizonyos szóalakokat, és hogy milyen képük van arról, hogy mások hogyan használják, hogyan képzik a szavakat. Ez hozzásegít bennünket ahhoz, hogy jobban megértsük, hogyan dolgozza fel és tárolja a nyelvet az emberi agy, és hogyan működnek, hogyan változnak egy adott közösség nyelvi konvenciói.</p><p>A vizsgálat egy rövid számítógépes feladatból fog állni. A kutatásban való részvétel önkéntes, a részvételi szándék bármikor visszavonható. A résztvevők eredményeit név nélkül kezeljük, így nem beazonosíthatók az adatok feldolgozása során. Minden személyes adatot az EU általános adatvédelmi rendeletének (GDPR) megfelelően kezelünk és legfeljebb öt éven belül megsemmisítünk. A vizsgálat jellemzően húsz percet vesz igénybe.</p><p>Kutatásvezető:</p><p>Dr. Rácz Péter, tudományos munkatárs, BME KTT</p><p>e-mail: racz.peter.marton@ttk.bme.hu</p>","0","","","","","",""
"html-button-response","2","63500","0.0-2.0","43612","<p>A kísérletben szavakat fogsz látni. Ezek között lesznek olyanok, amelyeket ismersz, de előfordulhatnak olyanok is, amelyeket nem ismersz, sőt, vannak köztük kitalált szavak is. Minden szónál látni fogsz toldalékolt alakokat. A te feladatod az lesz, hogy minden szóhoz kiválaszd azt a toldalékolt alakot, amely a te számodra ismerősebben, természetesebben hangzik. Rossz válaszok nincsenek, mert van olyan, hogy különböző embereknek más és más szó tűnik jobb választásnak. A választ úgy tudod majd kiválasztani, ha rákattintasz.</p><p>Ebben a szóválasztós játékban egy másik játékossal együtt veszel majd részt. A másik játékos is minden esetben azok közül a lehetőségek közül válogathat, mint te. Kettőtök feladata az, hogy ugyanazt a lehetőséget válasszátok minden esetben. Ahhoz, hogy ez sikerüljön, neked figyelned kell arra, hogy a másik játékos milyen válaszokat ad, és ennek alapján meg kell tippelned, hogyan választ legközelebb. Ha eltalálod, akkor pontot kapsz.</p>","0","","","","","",""
"html-button-response","3","80723","0.0-3.0","16719","<p>Kérjük, olvasd el az alábbi nyilatkozatot, és amennyiben egyetértesz vele, nyomj a Beleegyezés gombra!</p><p>Kijelentem, hogy magyar anyanyelvű személyként önként veszek részt a BME KTT kísérletében. A kutatás céljával és folyamatával kapcsolatban elegendő tájékoztatást kaptam, lehetőségem volt kérdések feltételére, és esetleges kérdéseimre megfelelő válaszokat kaptam. A tájékoztatás alapján elegendő mennyiségű információ áll a rendelkezésemre, hogy eldönthessem, részt kívánok-e venni a kutatásban.</p><p>Tisztában vagyok vele, hogy részvételi szándékomat és adataimat bármikor, indoklás nélkül visszavonhatom.</p><p>Értem és tudomásul veszem, hogy a kutatás tudományos célokat szolgál, és az általam szolgáltatott adatokat a BME kizárólag kutatási célból használja fel. Tudomásul veszem, hogy eredményeimet a többi résztvevő eredményeivel együtt kezelik, így egyéni teljesítményemről visszajelzést, szakvéleményt nem kapok.</p><p>Megértettem, hogy adataim kezelését illetően a BME az EU általános adatvédelmi rendelete (GDPR), a hatályos adatvédelmi törvény és a nemzetközi kutatás-etikai alapelvek szerint jár el. Eredményeim anonim módon kerülnek feldolgozásra, és a kutatás résztvevői az azonosításomra alkalmas adataimat harmadik félnek nem szolgáltatják ki. Engedélyezem a BME számára a jelen kutatásban felvett adataim feldolgozását és tárolását, beleértve azok későbbi kutatásokhoz való felhasználását is. Személyes adataim kezelésével kapcsolatban tájékoztatást kérhetek a kutatás résztvevőitől, az adatkezelés ellen tiltakozhatok, kérhetem személyes adataim helyesbítését, törlését vagy zárolását, valamint jogorvoslatért a Nemzeti Adatvédelmi és Információszabadság Hatósághoz fordulhatok.</p><p>Kijelentem, hogy a kutatásban való részvételem körülményeiről részletes tájékoztatást kaptam, és a feltételeket elfogadom.</p>","0","","","","","",""
"survey-text","4","128106","0.0-4.0","46864","","{""Q0"":""AR6Y3F"",""Q1"":""nő"",""Q2"":""1998"",""Q3"":""17""}","","","","","",""
"html-button-response","5","147333","0.0-5.0","18725","<p>Ebben a játékban szavakat kell toldalékolni.</p> <p>Minden körben mutatunk majd egy példamondatot, amiben lesz egy szó.</p> <p>Alatta jön egy második mondat, ezt a mondatot neked kell majd befejezni, ugyanezzel a szóval.</p> <p>Nem biztos, hogy a szó eleve ismerős lesz számodra!</p> <p>Minden mondathoz adunk két lehetőséget, ezeket balra és jobbra látod majd.</p> <p>A játék kb. negyedóráig-húsz percig tart.</p>","0","","","","","",""
"html-button-response","6","185813","0.0-6.0","37976","<p>Nézzünk egy példát!</p> <p>A példamondat: ""János nagyon szeret rancsúrozni.""</p><p>Neked ezt a mondatot kell befejezned: ""Én is szívesen...""</p><p>A lehetőségek pedig ezek:</p>","0","","","","","",""
"html-button-response","7","193076","0.0-7.0","6760","<p>Nagyon jó.</p><p>Ezt a játékot nem egyedül fogod játszani, hanem egy másik játékossal.</p><p>Mielőtt továbblépünk, összekapcsolunk titeket egymással.</p><p>Ez igénybe vehet néhány másodpercet, amihez szíves türelmed kérjük.</p>","0","","","","","",""
"html-button-response","8","198800","0.0-8.0","null","<p>Csatlakozás a másik játékoshoz...</p>","null","","","","","",""
"html-button-response","9","201304","0.0-9.0","null","<p> Sikeres kapcsolódás!</p>","null","","","","","",""
"html-button-response","10","211808","0.0-10.0","null","<p>A következőkben ketten játsszátok a szóválasztós játékot.</p><p>A feladatotok az lesz, hogy minden körben <b>ugyanazt</b> a szót válasszátok.</p><p>Minden ilyen egyező válaszért pontot kaptok.</p><p>Próbáld meg kitalálni, mit választ a másik játékos!</p><p>Bármikor választhatsz, a körnek akkor van vége, ha mindketten döntöttetek.</p><p>Sok sikert!</p>","null","","","","","",""
"html-button-response-esp","11","220206","0.0-11.0-0.0","5063","Te bizony sokat klaráglasz. Én is sokat...","1","klaráglok","[""klaráglom"",""klaráglok""]","klaráglom","esp trial","6","false"
"html-button-response","12","223712","0.0-11.0-1.0","null","<p>A másik játékos ezt választotta: <b>klaráglom</b>.</p><p>&#10060;</p><p>A válaszaitok <b>nem</b> egyeznek meg.</p>","null","","","","feedback trial","",""
"html-button-response-esp","13","232107","0.0-11.0-0.1","6056","Te bizony sokat spihegzel. Én is sokat...","0","spihegzek","[""spihegzek"",""spihegzem""]","spihegzem","esp trial","6","false"
"html-button-response","14","235611","0.0-11.0-1.1","null","<p>A másik játékos ezt választotta: <b>spihegzem</b>.</p><p>&#10060;</p><p>A válaszaitok <b>nem</b> egyeznek meg.</p>","null","","","","feedback trial","",""
"html-button-response-esp","15","244006","0.0-11.0-0.2","6047","Te bizony sokat bivégszel. Én is sokat...","0","bivégszem","[""bivégszem"",""bivégszek""]","bivégszek","esp trial","6","false"
"html-button-response","16","247511","0.0-11.0-1.2","null","<p>A másik játékos ezt választotta: <b>bivégszek</b>.</p><p>&#10060;</p><p>A válaszaitok <b>nem</b> egyeznek meg.</p>","null","","","","feedback trial","",""
"html-button-response-esp","17","263568","0.0-11.0-0.3","15554","Te bizony sokat spubonylasz. Én is sokat...","1","spubonylok","[""spubonylom"",""spubonylok""]","spubonylom","esp trial","6","false"
"html-button-response","18","267072","0.0-11.0-1.3","null","<p>A másik játékos ezt választotta: <b>spubonylom</b>.</p><p>&#10060;</p><p>A válaszaitok <b>nem</b> egyeznek meg.</p>","null","","","","feedback trial","",""
"html-button-response-esp","19","275466","0.0-11.0-0.4","7040","Te bizony sokat flitlasz. Én is sokat...","0","flitlok","[""flitlok"",""flitlom""]","flitlom","esp trial","6","false"
"html-button-response","20","278970","0.0-11.0-1.4","null","<p>A másik játékos ezt választotta: <b>flitlom</b>.</p><p>&#10060;</p><p>A válaszaitok <b>nem</b> egyeznek meg.</p>","null","","","","feedback trial","",""
"html-button-response-esp","21","287365","0.0-11.0-0.5","4185","Te bizony sokat vülődzöl. Én is sokat...","0","vülődzök","[""vülődzök"",""vülődzöm""]","vülődzöm","esp trial","6","false"
"html-button-response","22","290869","0.0-11.0-1.5","null","<p>A másik játékos ezt választotta: <b>vülődzöm</b>.</p><p>&#10060;</p><p>A válaszaitok <b>nem</b> egyeznek meg.</p>","null","","","","feedback trial","",""
"html-button-response-esp","23","299265","0.0-11.0-0.6","4155","Te bizony sokat huroslasz. Én is sokat...","0","huroslom","[""huroslom"",""huroslok""]","huroslom","esp trial","6","true"
"html-button-response","24","302769","0.0-11.0-1.6","null","<p>A másik játékos ezt választotta: <b>huroslom</b>.</p><p>&#x2705;</p><p>A te válaszod és a másik játékos válasza <b>megegyeznek</b>.</p>","null","","","","feedback trial","",""
"html-button-response-esp","25","311672","0.0-11.0-0.7","8399","Te bizony sokat figlasz. Én is sokat...","1","figlom","[""figlok"",""figlom""]","figlom","esp trial","6","true"
"html-button-response","26","315176","0.0-11.0-1.7","null","<p>A másik játékos ezt választotta: <b>figlom</b>.</p><p>&#x2705;</p><p>A te válaszod és a másik játékos válasza <b>megegyeznek</b>.</p>","null","","","","feedback trial","",""
"html-button-response-esp","27","323571","0.0-11.0-0.8","1256","Te bizony sokat brobódzol. Én is sokat...","1","brobódzom","[""brobódzok"",""brobódzom""]","brobódzok","esp trial","6","false"
"html-button-response","28","327074","0.0-11.0-1.8","null","<p>A másik játékos ezt választotta: <b>brobódzok</b>.</p><p>&#10060;</p><p>A válaszaitok <b>nem</b> egyeznek meg.</p>","null","","","","feedback trial","",""
"html-button-response-esp","29","335468","0.0-11.0-0.9","6242","Te bizony sokat sztrűkszöl. Én is sokat...","1","sztrűkszök","[""sztrűkszöm"",""sztrűkszök""]","sztrűkszök","esp trial","6","true"
"html-button-response","30","338972","0.0-11.0-1.9","null","<p>A másik játékos ezt választotta: <b>sztrűkszök</b>.</p><p>&#x2705;</p><p>A te válaszod és a másik játékos válasza <b>megegyeznek</b>.</p>","null","","","","feedback trial","",""
"html-button-response-esp","31","347367","0.0-11.0-0.10","6412","Te bizony sokat klivaslasz. Én is sokat...","0","klivaslok","[""klivaslok"",""klivaslom""]","klivaslom","esp trial","6","false"
"html-button-response","32","350871","0.0-11.0-1.10","null","<p>A másik játékos ezt választotta: <b>klivaslom</b>.</p><p>&#10060;</p><p>A válaszaitok <b>nem</b> egyeznek meg.</p>","null","","","","feedback trial","",""
"html-button-response-esp","33","359265","0.0-11.0-0.11","4314","Te bizony sokat spröbzöl. Én is sokat...","1","spröbzök","[""spröbzöm"",""spröbzök""]","spröbzöm","esp trial","6","false"
"html-button-response","34","362768","0.0-11.0-1.11","null","<p>A másik játékos ezt választotta: <b>spröbzöm</b>.</p><p>&#10060;</p><p>A válaszaitok <b>nem</b> egyeznek meg.</p>","null","","","","feedback trial","",""
"html-button-response-esp","35","371160","0.0-11.0-0.12","4571","Te bizony sokat treglesz. Én is sokat...","0","treglek","[""treglek"",""treglem""]","treglem","esp trial","6","false"
"html-button-response","36","374659","0.0-11.0-1.12","null","<p>A másik játékos ezt választotta: <b>treglem</b>.</p><p>&#10060;</p><p>A válaszaitok <b>nem</b> egyeznek meg.</p>","null","","","","feedback trial","",""
"html-button-response-esp","37","383046","0.0-11.0-0.13","4838","Te bizony sokat klétszel. Én is sokat...","1","klétszek","[""klétszem"",""klétszek""]","klétszek","esp trial","6","true"
"html-button-response","38","386548","0.0-11.0-1.13","null","<p>A másik játékos ezt választotta: <b>klétszek</b>.</p><p>&#x2705;</p><p>A te válaszod és a másik játékos válasza <b>megegyeznek</b>.</p>","null","","","","feedback trial","",""
"html-button-response-esp","39","394938","0.0-11.0-0.14","6580","Te bizony sokat rokszol. Én is sokat...","1","rokszok","[""rokszom"",""rokszok""]","rokszok","esp trial","6","true"
"html-button-response","40","398440","0.0-11.0-1.14","null","<p>A másik játékos ezt választotta: <b>rokszok</b>.</p><p>&#x2705;</p><p>A te válaszod és a másik játékos válasza <b>megegyeznek</b>.</p>","null","","","","feedback trial","",""
"html-button-response-esp","41","406832","0.0-11.0-0.15","7616","Te bizony sokat pribemlesz. Én is sokat...","1","pribemlek","[""pribemlem"",""pribemlek""]","pribemlem","esp trial","6","false"
"html-button-response","42","410335","0.0-11.0-1.15","null","<p>A másik játékos ezt választotta: <b>pribemlem</b>.</p><p>&#10060;</p><p>A válaszaitok <b>nem</b> egyeznek meg.</p>","null","","","","feedback trial","",""
"html-button-response-esp","43","418730","0.0-11.0-0.16","5494","Te bizony sokat frodlasz. Én is sokat...","1","frodlok","[""frodlom"",""frodlok""]","frodlom","esp trial","6","false"
"html-button-response","44","422234","0.0-11.0-1.16","null","<p>A másik játékos ezt választotta: <b>frodlom</b>.</p><p>&#10060;</p><p>A válaszaitok <b>nem</b> egyeznek meg.</p>","null","","","","feedback trial","",""
"html-button-response-esp","45","430628","0.0-11.0-0.17","7522","Te bizony sokat spüjzöl. Én is sokat...","0","spüjzöm","[""spüjzöm"",""spüjzök""]","spüjzöm","esp trial","6","true"
"html-button-response","46","434131","0.0-11.0-1.17","null","<p>A másik játékos ezt választotta: <b>spüjzöm</b>.</p><p>&#x2705;</p><p>A te válaszod és a másik játékos válasza <b>megegyeznek</b>.</p>","null","","","","feedback trial","",""
"html-button-response-esp","47","442525","0.0-11.0-0.18","7751","Te bizony sokat pítszol. Én is sokat...","1","pítszom","[""pítszok"",""pítszom""]","pítszok","esp trial","6","false"
"html-button-response","48","446029","0.0-11.0-1.18","null","<p>A másik játékos ezt választotta: <b>pítszok</b>.</p><p>&#10060;</p><p>A válaszaitok <b>nem</b> egyeznek meg.</p>","null","","","","feedback trial","",""
"html-button-response-esp","49","454423","0.0-11.0-0.19","4913","Te bizony sokat plűbzöl. Én is sokat...","0","plűbzök","[""plűbzök"",""plűbzöm""]","plűbzöm","esp trial","6","false"
"html-button-response","50","457927","0.0-11.0-1.19","null","<p>A másik játékos ezt választotta: <b>plűbzöm</b>.</p><p>&#10060;</p><p>A válaszaitok <b>nem</b> egyeznek meg.</p>","null","","","","feedback trial","",""
"html-button-response-esp","51","466321","0.0-11.0-0.20","7267","Te bizony sokat filágzol. Én is sokat...","1","filágzom","[""filágzok"",""filágzom""]","filágzok","esp trial","6","false"
"html-button-response","52","469826","0.0-11.0-1.20","null","<p>A másik játékos ezt választotta: <b>filágzok</b>.</p><p>&#10060;</p><p>A válaszaitok <b>nem</b> egyeznek meg.</p>","null","","","","feedback trial","",""
"html-button-response-esp","53","478220","0.0-11.0-0.21","4460","Te bizony sokat nűröklesz. Én is sokat...","1","nűröklöm","[""nűröklök"",""nűröklöm""]","nűröklöm","esp trial","6","true"
"html-button-response","54","481725","0.0-11.0-1.21","null","<p>A másik játékos ezt választotta: <b>nűröklöm</b>.</p><p>&#x2705;</p><p>A te válaszod és a másik játékos válasza <b>megegyeznek</b>.</p>","null","","","","feedback trial","",""
"html-button-response-esp","55","490476","0.0-11.0-0.22","8248","Te bizony sokat trehégszel. Én is sokat...","1","trehégszek","[""trehégszem"",""trehégszek""]","trehégszek","esp trial","6","true"
"html-button-response","56","493980","0.0-11.0-1.22","null","<p>A másik játékos ezt választotta: <b>trehégszek</b>.</p><p>&#x2705;</p><p>A te válaszod és a másik játékos válasza <b>megegyeznek</b>.</p>","null","","","","feedback trial","",""
"html-button-response-esp","57","502374","0.0-11.0-0.23","3950","Te bizony sokat hűgzöl. Én is sokat...","1","hűgzök","[""hűgzöm"",""hűgzök""]","hűgzöm","esp trial","6","false"
"html-button-response","58","505883","0.0-11.0-1.23","null","<p>A másik játékos ezt választotta: <b>hűgzöm</b>.</p><p>&#10060;</p><p>A válaszaitok <b>nem</b> egyeznek meg.</p>","null","","","","feedback trial","",""
"html-button-response-esp","59","514279","0.0-11.0-0.24","4166","Te bizony sokat plugzol. Én is sokat...","0","plugzok","[""plugzok"",""plugzom""]","plugzok","esp trial","6","true"
"html-button-response","60","517785","0.0-11.0-1.24","null","<p>A másik játékos ezt választotta: <b>plugzok</b>.</p><p>&#x2705;</p><p>A te válaszod és a másik játékos válasza <b>megegyeznek</b>.</p>","null","","","","feedback trial","",""
"html-button-response-esp","61","526400","0.0-11.0-0.25","8112","Te bizony sokat brivegzel. Én is sokat...","0","brivegzek","[""brivegzek"",""brivegzem""]","brivegzek","esp trial","6","true"
"html-button-response","62","529905","0.0-11.0-1.25","null","<p>A másik játékos ezt választotta: <b>brivegzek</b>.</p><p>&#x2705;</p><p>A te válaszod és a másik játékos válasza <b>megegyeznek</b>.</p>","null","","","","feedback trial","",""
"html-button-response-esp","63","538298","0.0-11.0-0.26","7833","Te bizony sokat bihánylasz. Én is sokat...","1","bihánylok","[""bihánylom"",""bihánylok""]","bihánylom","esp trial","6","false"
"html-button-response","64","541802","0.0-11.0-1.26","null","<p>A másik játékos ezt választotta: <b>bihánylom</b>.</p><p>&#10060;</p><p>A válaszaitok <b>nem</b> egyeznek meg.</p>","null","","","","feedback trial","",""
"html-button-response-esp","65","553680","0.0-11.0-0.27","11375","Te bizony sokat pribagszol. Én is sokat...","1","pribagszok","[""pribagszom"",""pribagszok""]","pribagszok","esp trial","6","true"
"html-button-response","66","557184","0.0-11.0-1.27","null","<p>A másik játékos ezt választotta: <b>pribagszok</b>.</p><p>&#x2705;</p><p>A te válaszod és a másik játékos válasza <b>megegyeznek</b>.</p>","null","","","","feedback trial","",""
"html-button-response-esp","67","566624","0.0-11.0-0.28","8937","Te bizony sokat flátszol. Én is sokat...","1","flátszom","[""flátszok"",""flátszom""]","flátszok","esp trial","6","false"
"html-button-response","68","570128","0.0-11.0-1.28","null","<p>A másik játékos ezt választotta: <b>flátszok</b>.</p><p>&#10060;</p><p>A válaszaitok <b>nem</b> egyeznek meg.</p>","null","","","","feedback trial","",""
"html-button-response-esp","69","578521","0.0-11.0-0.29","4706","Te bizony sokat píjlasz. Én is sokat...","1","píjlok","[""píjlom"",""píjlok""]","píjlom","esp trial","6","false"
"html-button-response","70","582025","0.0-11.0-1.29","null","<p>A másik játékos ezt választotta: <b>píjlom</b>.</p><p>&#10060;</p><p>A válaszaitok <b>nem</b> egyeznek meg.</p>","null","","","","feedback trial","",""
"html-button-response-esp","71","592883","0.0-11.0-0.30","10355","Te bizony sokat flehékszel. Én is sokat...","1","flehékszem","[""flehékszek"",""flehékszem""]","flehékszek","esp trial","6","false"
"html-button-response","72","596386","0.0-11.0-1.30","null","<p>A másik játékos ezt választotta: <b>flehékszek</b>.</p><p>&#10060;</p><p>A válaszaitok <b>nem</b> egyeznek meg.</p>","null","","","","feedback trial","",""
"html-button-response-esp","73","604780","0.0-11.0-0.31","4316","Te bizony sokat flehénylesz. Én is sokat...","1","flehénylek","[""flehénylem"",""flehénylek""]","flehénylem","esp trial","6","false"
"html-button-response","74","608285","0.0-11.0-1.31","null","<p>A másik játékos ezt választotta: <b>flehénylem</b>.</p><p>&#10060;</p><p>A válaszaitok <b>nem</b> egyeznek meg.</p>","null","","","","feedback trial","",""
"html-button-response-esp","75","616679","0.0-11.0-0.32","6260","Te bizony sokat vanylasz. Én is sokat...","0","vanylom","[""vanylom"",""vanylok""]","vanylom","esp trial","6","true"
"html-button-response","76","620183","0.0-11.0-1.32","null","<p>A másik játékos ezt választotta: <b>vanylom</b>.</p><p>&#x2705;</p><p>A te válaszod és a másik játékos válasza <b>megegyeznek</b>.</p>","null","","","","feedback trial","",""
"html-button-response-esp","77","629609","0.0-11.0-0.33","8924","Te bizony sokat sztrijzol. Én is sokat...","1","sztrijzom","[""sztrijzok"",""sztrijzom""]","sztrijzom","esp trial","6","true"
"html-button-response","78","633114","0.0-11.0-1.33","null","<p>A másik játékos ezt választotta: <b>sztrijzom</b>.</p><p>&#x2705;</p><p>A te válaszod és a másik játékos válasza <b>megegyeznek</b>.</p>","null","","","","feedback trial","",""
"html-button-response-esp","79","641508","0.0-11.0-0.34","3121","Te bizony sokat brubzol. Én is sokat...","1","brubzom","[""brubzok"",""brubzom""]","brubzom","esp trial","6","true"
"html-button-response","80","645013","0.0-11.0-1.34","null","<p>A másik játékos ezt választotta: <b>brubzom</b>.</p><p>&#x2705;</p><p>A te válaszod és a másik játékos válasza <b>megegyeznek</b>.</p>","null","","","","feedback trial","",""
"html-button-response-esp","81","653408","0.0-11.0-0.35","6869","Te bizony sokat spáraklasz. Én is sokat...","0","spáraklok","[""spáraklok"",""spáraklom""]","spáraklom","esp trial","6","false"
"html-button-response","82","656911","0.0-11.0-1.35","null","<p>A másik játékos ezt választotta: <b>spáraklom</b>.</p><p>&#10060;</p><p>A válaszaitok <b>nem</b> egyeznek meg.</p>","null","","","","feedback trial","",""
"html-button-response-esp","83","668871","0.0-11.0-0.36","11457","Te bizony sokat prínylasz. Én is sokat...","1","prínylom","[""prínylok"",""prínylom""]","prínylom","esp trial","6","true"
"html-button-response","84","672373","0.0-11.0-1.36","null","<p>A másik játékos ezt választotta: <b>prínylom</b>.</p><p>&#x2705;</p><p>A te válaszod és a másik játékos válasza <b>megegyeznek</b>.</p>","null","","","","feedback trial","",""
"html-button-response-esp","85","680768","0.0-11.0-0.37","7332","Te bizony sokat salárzol. Én is sokat...","0","salárzom","[""salárzom"",""salárzok""]","salárzom","esp trial","6","true"
"html-button-response","86","684272","0.0-11.0-1.37","null","<p>A másik játékos ezt választotta: <b>salárzom</b>.</p><p>&#x2705;</p><p>A te válaszod és a másik játékos válasza <b>megegyeznek</b>.</p>","null","","","","feedback trial","",""
"html-button-response-esp","87","692666","0.0-11.0-0.38","5263","Te bizony sokat gyibeslesz. Én is sokat...","0","gyibeslek","[""gyibeslek"",""gyibeslem""]","gyibeslem","esp trial","6","false"
"html-button-response","88","696171","0.0-11.0-1.38","null","<p>A másik játékos ezt választotta: <b>gyibeslem</b>.</p><p>&#10060;</p><p>A válaszaitok <b>nem</b> egyeznek meg.</p>","null","","","","feedback trial","",""
"html-button-response-esp","89","704564","0.0-11.0-0.39","5897","Te bizony sokat rájzol. Én is sokat...","1","rájzom","[""rájzok"",""rájzom""]","rájzom","esp trial","6","true"
"html-button-response","90","708068","0.0-11.0-1.39","null","<p>A másik játékos ezt választotta: <b>rájzom</b>.</p><p>&#x2705;</p><p>A te válaszod és a másik játékos válasza <b>megegyeznek</b>.</p>","null","","","","feedback trial","",""
"html-button-response-esp","91","718322","0.0-11.0-0.40","9750","Te bizony sokat szibánylasz. Én is sokat...","0","szibánylom","[""szibánylom"",""szibánylok""]","szibánylom","esp trial","6","true"
"html-button-response","92","721826","0.0-11.0-1.40","null","<p>A másik játékos ezt választotta: <b>szibánylom</b>.</p><p>&#x2705;</p><p>A te válaszod és a másik játékos válasza <b>megegyeznek</b>.</p>","null","","","","feedback trial","",""
"html-button-response-esp","93","732583","0.0-11.0-0.41","10254","Te bizony sokat spülűdzöl. Én is sokat...","0","spülűdzöm","[""spülűdzöm"",""spülűdzök""]","spülűdzöm","esp trial","6","true"
"html-button-response","94","736087","0.0-11.0-1.41","null","<p>A másik játékos ezt választotta: <b>spülűdzöm</b>.</p><p>&#x2705;</p><p>A te válaszod és a másik játékos válasza <b>megegyeznek</b>.</p>","null","","","","feedback trial","",""
"html-button-response-esp","95","745959","0.0-11.0-0.42","9369","Te bizony sokat trádlasz. Én is sokat...","1","trádlom","[""trádlok"",""trádlom""]","trádlom","esp trial","6","true"
"html-button-response","96","749463","0.0-11.0-1.42","null","<p>A másik játékos ezt választotta: <b>trádlom</b>.</p><p>&#x2705;</p><p>A te válaszod és a másik játékos válasza <b>megegyeznek</b>.</p>","null","","","","feedback trial","",""
"html-button-response-esp","97","757857","0.0-11.0-0.43","4825","Te bizony sokat jonylasz. Én is sokat...","0","jonylom","[""jonylom"",""jonylok""]","jonylom","esp trial","6","true"
"html-button-response","98","761362","0.0-11.0-1.43","null","<p>A másik játékos ezt választotta: <b>jonylom</b>.</p><p>&#x2705;</p><p>A te válaszod és a másik játékos válasza <b>megegyeznek</b>.</p>","null","","","","feedback trial","",""
"html-button-response-esp","99","769756","0.0-11.0-0.44","1832","Te bizony sokat düjzöl. Én is sokat...","1","düjzöm","[""düjzök"",""düjzöm""]","düjzöm","esp trial","6","true"
"html-button-response","100","773259","0.0-11.0-1.44","null","<p>A másik játékos ezt választotta: <b>düjzöm</b>.</p><p>&#x2705;</p><p>A te válaszod és a másik játékos válasza <b>megegyeznek</b>.</p>","null","","","","feedback trial","",""
"html-button-response-esp","101","781653","0.0-11.0-0.45","5239","Te bizony sokat lörűdzöl. Én is sokat...","1","lörűdzöm","[""lörűdzök"",""lörűdzöm""]","lörűdzöm","esp trial","6","true"
"html-button-response","102","785157","0.0-11.0-1.45","null","<p>A másik játékos ezt választotta: <b>lörűdzöm</b>.</p><p>&#x2705;</p><p>A te válaszod és a másik játékos válasza <b>megegyeznek</b>.</p>","null","","","","feedback trial","",""
"html-button-response-esp","103","793552","0.0-11.0-0.46","1700","Te bizony sokat spihemlesz. Én is sokat...","1","spihemlem","[""spihemlek"",""spihemlem""]","spihemlem","esp trial","6","true"
"html-button-response","104","797057","0.0-11.0-1.46","null","<p>A másik játékos ezt választotta: <b>spihemlem</b>.</p><p>&#x2705;</p><p>A te válaszod és a másik játékos válasza <b>megegyeznek</b>.</p>","null","","","","feedback trial","",""
"html-button-response-esp","105","805451","0.0-11.0-0.47","4455","Te bizony sokat ibékszel. Én is sokat...","0","ibékszem","[""ibékszem"",""ibékszek""]","ibékszek","esp trial","6","false"
"html-button-response","106","808955","0.0-11.0-1.47","null","<p>A másik játékos ezt választotta: <b>ibékszek</b>.</p><p>&#10060;</p><p>A válaszaitok <b>nem</b> egyeznek meg.</p>","null","","","","feedback trial","",""
"html-button-response-esp","107","817349","0.0-11.0-0.48","4944","Te bizony sokat bűtszöl. Én is sokat...","1","bűtszök","[""bűtszöm"",""bűtszök""]","bűtszöm","esp trial","6","false"
"html-button-response","108","820852","0.0-11.0-1.48","null","<p>A másik játékos ezt választotta: <b>bűtszöm</b>.</p><p>&#10060;</p><p>A válaszaitok <b>nem</b> egyeznek meg.</p>","null","","","","feedback trial","",""
"html-button-response-esp","109","829286","0.0-11.0-0.49","7931","Te bizony sokat hurjorzol. Én is sokat...","0","hurjorzok","[""hurjorzok"",""hurjorzom""]","hurjorzom","esp trial","6","false"
"html-button-response","110","832789","0.0-11.0-1.49","null","<p>A másik játékos ezt választotta: <b>hurjorzom</b>.</p><p>&#10060;</p><p>A válaszaitok <b>nem</b> egyeznek meg.</p>","null","","","","feedback trial","",""
"html-button-response-esp","111","841184","0.0-11.0-0.50","3516","Te bizony sokat tragzol. Én is sokat...","0","tragzom","[""tragzom"",""tragzok""]","tragzom","esp trial","6","true"
"html-button-response","112","844688","0.0-11.0-1.50","null","<p>A másik játékos ezt választotta: <b>tragzom</b>.</p><p>&#x2705;</p><p>A te válaszod és a másik játékos válasza <b>megegyeznek</b>.</p>","null","","","","feedback trial","",""
"html-button-response-esp","113","858369","0.0-11.0-0.51","13178","Te bizony sokat sztrozlasz. Én is sokat...","1","sztrozlok","[""sztrozlom"",""sztrozlok""]","sztrozlom","esp trial","6","false"
"html-button-response","114","861873","0.0-11.0-1.51","null","<p>A másik játékos ezt választotta: <b>sztrozlom</b>.</p><p>&#10060;</p><p>A válaszaitok <b>nem</b> egyeznek meg.</p>","null","","","","feedback trial","",""
"html-button-response-esp","115","870267","0.0-11.0-0.52","4775","Te bizony sokat narádzol. Én is sokat...","0","narádzok","[""narádzok"",""narádzom""]","narádzok","esp trial","6","true"
"html-button-response","116","873771","0.0-11.0-1.52","null","<p>A másik játékos ezt választotta: <b>narádzok</b>.</p><p>&#x2705;</p><p>A te válaszod és a másik játékos válasza <b>megegyeznek</b>.</p>","null","","","","feedback trial","",""
"html-button-response-esp","117","882165","0.0-11.0-0.53","5598","Te bizony sokat flűmlesz. Én is sokat...","0","flűmlök","[""flűmlök"",""flűmlöm""]","flűmlöm","esp trial","6","false"
"html-button-response","118","885670","0.0-11.0-1.53","null","<p>A másik játékos ezt választotta: <b>flűmlöm</b>.</p><p>&#10060;</p><p>A válaszaitok <b>nem</b> egyeznek meg.</p>","null","","","","feedback trial","",""
"html-button-response","119","896545","0.0-12.0","10373","<p>A közös játék most véget ért.</p><p>Mielőtt eláruljuk a végső pontszámodat, arra kérlek, játszd a szóválasztós játékot néhány percig egyedül is.</p><p>A feladatod ugyanaz lesz, választani két lehetőség közül.</p><p>Most viszont egyedül kell döntened, hogy te melyiket választanád.</p>","0","","","","","",""
"html-button-response-clever","120","901998","0.0-13.0-0.0","4950","Te bizony sokat praslasz. Én is sokat...","1","praslom","[""praslok"",""praslom""]","","posttest trial","8",""
"html-button-response-clever","121","908541","0.0-13.0-0.1","6041","Te bizony sokat gerénylesz. Én is sokat...","0","gerénylek","[""gerénylek"",""gerénylem""]","","posttest trial","8",""
"html-button-response-clever","122","914217","0.0-13.0-0.2","5172","Te bizony sokat gilárzol. Én is sokat...","1","gilárzom","[""gilárzok"",""gilárzom""]","","posttest trial","8",""
"html-button-response-clever","123","919799","0.0-13.0-0.3","5078","Te bizony sokat gyivádzol. Én is sokat...","1","gyivádzom","[""gyivádzok"",""gyivádzom""]","","posttest trial","8",""
"html-button-response-clever","124","924480","0.0-13.0-0.4","4178","Te bizony sokat sprédlesz. Én is sokat...","0","sprédlek","[""sprédlek"",""sprédlem""]","","posttest trial","8",""
"html-button-response-clever","125","928504","0.0-13.0-0.5","3520","Te bizony sokat táklasz. Én is sokat...","0","táklok","[""táklok"",""táklom""]","","posttest trial","8",""
"html-button-response-clever","126","940896","0.0-13.0-0.6","11889","Te bizony sokat prihekszel. Én is sokat...","0","prihekszem","[""prihekszem"",""prihekszek""]","","posttest trial","8",""
"html-button-response-clever","127","960063","0.0-13.0-0.7","18663","Te bizony sokat frágapszol. Én is sokat...","1","frágapszom","[""frágapszok"",""frágapszom""]","","posttest trial","8",""
"html-button-response-clever","128","964837","0.0-13.0-0.8","4271","Te bizony sokat spüszlesz. Én is sokat...","1","spüszlök","[""spüszlöm"",""spüszlök""]","","posttest trial","8",""
"html-button-response-clever","129","969612","0.0-13.0-0.9","4273","Te bizony sokat lihadzol. Én is sokat...","0","lihadzom","[""lihadzom"",""lihadzok""]","","posttest trial","8",""
"html-button-response-clever","130","975166","0.0-13.0-0.10","5051","Te bizony sokat csólorzol. Én is sokat...","1","csólorzok","[""csólorzom"",""csólorzok""]","","posttest trial","8",""
"html-button-response-clever","131","981232","0.0-13.0-0.11","5563","Te bizony sokat sprálszol. Én is sokat...","0","sprálszom","[""sprálszom"",""sprálszok""]","","posttest trial","8",""
"html-button-response-clever","132","985628","0.0-13.0-0.12","3893","Te bizony sokat friszlasz. Én is sokat...","1","friszlok","[""friszlom"",""friszlok""]","","posttest trial","8",""
"html-button-response-clever","133","989782","0.0-13.0-0.13","3652","Te bizony sokat préleglesz. Én is sokat...","0","préleglem","[""préleglem"",""préleglek""]","","posttest trial","8",""
"html-button-response-clever","134","999364","0.0-13.0-0.14","9080","Te bizony sokat flözlesz. Én is sokat...","1","flözlök","[""flözlöm"",""flözlök""]","","posttest trial","8",""
"html-button-response-clever","135","1003909","0.0-13.0-0.15","4042","Te bizony sokat fligzol. Én is sokat...","0","fligzom","[""fligzom"",""fligzok""]","","posttest trial","8",""
"html-button-response-clever","136","1009261","0.0-13.0-0.16","4849","Te bizony sokat féjzel. Én is sokat...","1","féjzek","[""féjzem"",""féjzek""]","","posttest trial","8",""
"html-button-response-clever","137","1016374","0.0-13.0-0.17","6610","Te bizony sokat bivejlesz. Én is sokat...","1","bivejlem","[""bivejlek"",""bivejlem""]","","posttest trial","8",""
"html-button-response-clever","138","1019589","0.0-13.0-0.18","2711","Te bizony sokat spibádzol. Én is sokat...","1","spibádzom","[""spibádzok"",""spibádzom""]","","posttest trial","8",""
"html-button-response-clever","139","1023862","0.0-13.0-0.19","3770","Te bizony sokat trihagzol. Én is sokat...","0","trihagzom","[""trihagzom"",""trihagzok""]","","posttest trial","8",""
"html-button-response-clever","140","1028916","0.0-13.0-0.20","4552","Te bizony sokat spülöklesz. Én is sokat...","1","spülöklöm","[""spülöklök"",""spülöklöm""]","","posttest trial","8",""
"html-button-response-clever","141","1032052","0.0-13.0-0.21","2633","Te bizony sokat floglasz. Én is sokat...","1","floglok","[""floglom"",""floglok""]","","posttest trial","8",""
"html-button-response-clever","142","1035532","0.0-13.0-0.22","2978","Te bizony sokat kumlasz. Én is sokat...","1","kumlok","[""kumlom"",""kumlok""]","","posttest trial","8",""
"html-button-response-clever","143","1042413","0.0-13.0-0.23","6378","Te bizony sokat prohódzol. Én is sokat...","0","prohódzom","[""prohódzom"",""prohódzok""]","","posttest trial","8",""
"html-button-response-clever","144","1047470","0.0-13.0-0.24","4553","Te bizony sokat vihepszel. Én is sokat...","0","vihepszek","[""vihepszek"",""vihepszem""]","","posttest trial","8",""
"html-button-response-clever","145","1052718","0.0-13.0-0.25","4745","Te bizony sokat frivajlasz. Én is sokat...","0","frivajlok","[""frivajlok"",""frivajlom""]","","posttest trial","8",""
"html-button-response-clever","146","1056061","0.0-13.0-0.26","2840","Te bizony sokat livaklasz. Én is sokat...","1","livaklom","[""livaklok"",""livaklom""]","","posttest trial","8",""
"html-button-response-clever","147","1059884","0.0-13.0-0.27","3320","Te bizony sokat prezlesz. Én is sokat...","0","prezlek","[""prezlek"",""prezlem""]","","posttest trial","8",""
"html-button-response-clever","148","1064269","0.0-13.0-0.28","3881","Te bizony sokat plágadzol. Én is sokat...","1","plágadzom","[""plágadzok"",""plágadzom""]","","posttest trial","8",""
"html-button-response-clever","149","1068837","0.0-13.0-0.29","4065","Te bizony sokat spatszol. Én is sokat...","0","spatszok","[""spatszok"",""spatszom""]","","posttest trial","8",""
"html-button-response-clever","150","1073133","0.0-13.0-0.30","3791","Te bizony sokat fivénylesz. Én is sokat...","0","fivénylek","[""fivénylek"",""fivénylem""]","","posttest trial","8",""
"html-button-response-clever","151","1075710","0.0-13.0-0.31","2074","Te bizony sokat aglasz. Én is sokat...","1","aglom","[""aglok"",""aglom""]","","posttest trial","8",""
"html-button-response-clever","152","1079831","0.0-13.0-0.32","3619","Te bizony sokat pugoslasz. Én is sokat...","1","pugoslom","[""pugoslok"",""pugoslom""]","","posttest trial","8",""
"html-button-response-clever","153","1084813","0.0-13.0-0.33","4479","Te bizony sokat zödlesz. Én is sokat...","0","zödlök","[""zödlök"",""zödlöm""]","","posttest trial","8",""
"html-button-response-clever","154","1090396","0.0-13.0-0.34","5080","Te bizony sokat fliraklasz. Én is sokat...","1","fliraklom","[""fliraklok"",""fliraklom""]","","posttest trial","8",""
"html-button-response-clever","155","1095004","0.0-13.0-0.35","4105","Te bizony sokat flérlesz. Én is sokat...","1","flérlek","[""flérlem"",""flérlek""]","","posttest trial","8",""
"html-button-response-clever","156","1100828","0.0-13.0-0.36","5321","Te bizony sokat spülőrzöl. Én is sokat...","0","spülőrzök","[""spülőrzök"",""spülőrzöm""]","","posttest trial","8",""
"html-button-response-clever","157","1105548","0.0-13.0-0.37","4217","Te bizony sokat klárzol. Én is sokat...","0","klárzok","[""klárzok"",""klárzom""]","","posttest trial","8",""
"html-button-response-clever","158","1118124","0.0-13.0-0.38","12074","Te bizony sokat huklasz. Én is sokat...","0","huklok","[""huklok"",""huklom""]","","posttest trial","8",""
"html-button-response-clever","159","1121752","0.0-13.0-0.39","3126","Te bizony sokat mékszel. Én is sokat...","1","mékszek","[""mékszem"",""mékszek""]","","posttest trial","8",""
"html-button-response-clever","160","1125443","0.0-13.0-0.40","3189","Te bizony sokat plövőrzöl. Én is sokat...","1","plövőrzöm","[""plövőrzök"",""plövőrzöm""]","","posttest trial","8",""
"html-button-response-clever","161","1129812","0.0-13.0-0.41","3867","Te bizony sokat klidlasz. Én is sokat...","0","klidlok","[""klidlok"",""klidlom""]","","posttest trial","8",""
"html-button-response-clever","162","1133134","0.0-13.0-0.42","2820","Te bizony sokat drügzöl. Én is sokat...","1","drügzöm","[""drügzök"",""drügzöm""]","","posttest trial","8",""
"html-button-response-clever","163","1138501","0.0-13.0-0.43","4864","Te bizony sokat flibekszel. Én is sokat...","1","flibekszek","[""flibekszem"",""flibekszek""]","","posttest trial","8",""
"html-button-response-clever","164","1145180","0.0-13.0-0.44","6176","Te bizony sokat brarlasz. Én is sokat...","1","brarlok","[""brarlom"",""brarlok""]","","posttest trial","8",""
"html-button-response-clever","165","1151726","0.0-13.0-0.45","6043","Te bizony sokat péleslesz. Én is sokat...","0","péleslek","[""péleslek"",""péleslem""]","","posttest trial","8",""
"html-button-response-clever","166","1155323","0.0-13.0-0.46","3094","Te bizony sokat sztruglasz. Én is sokat...","1","sztruglom","[""sztruglok"",""sztruglom""]","","posttest trial","8",""
"html-button-response-clever","167","1159743","0.0-13.0-0.47","3918","Te bizony sokat spélszel. Én is sokat...","0","spélszem","[""spélszem"",""spélszek""]","","posttest trial","8",""
"html-button-response-clever","168","1164596","0.0-13.0-0.48","4352","Te bizony sokat spírzol. Én is sokat...","0","spírzom","[""spírzom"",""spírzok""]","","posttest trial","8",""
"html-button-response-clever","169","1168646","0.0-13.0-0.49","3548","Te bizony sokat gyibakszol. Én is sokat...","0","gyibakszok","[""gyibakszok"",""gyibakszom""]","","posttest trial","8",""
"html-button-response-clever","170","1172795","0.0-13.0-0.50","3646","Te bizony sokat tuboklasz. Én is sokat...","1","tuboklok","[""tuboklom"",""tuboklok""]","","posttest trial","8",""
"html-button-response-clever","171","1181251","0.0-13.0-0.51","7953","Te bizony sokat szűslesz. Én is sokat...","1","szűslöm","[""szűslök"",""szűslöm""]","","posttest trial","8",""
"html-button-response-clever","172","1187919","0.0-13.0-0.52","6165","Te bizony sokat ibáglasz. Én is sokat...","1","ibáglom","[""ibáglok"",""ibáglom""]","","posttest trial","8",""
"html-button-response-clever","173","1191756","0.0-13.0-0.53","3334","Te bizony sokat vűjlesz. Én is sokat...","0","vűjlök","[""vűjlök"",""vűjlöm""]","","posttest trial","8",""
"html-button-response","174","1198309","0.0-14.0","6049","<p> Vége a játéknak. A teljes pontszámod 26/54.</p><p> Szép munka! &#128526;&#128526;&#128526;</p><p>A Befejezés gomb megnyomása után bezárhatod a böngészőablakot.</p>","0","","","","","",""
"html-keyboard-response","175","1203815","0.0-15.0","null","<div class=""message"">
         <p>Egy kis türelmet kérünk, amíg elmentjük az adatokat...</p>
         </div>","null","","","","","",""
