"trial_type","trial_index","time_elapsed","internal_node_id","rt","stimulus","response","response_string","choices","esp_response","trial_kind","list_number","esp_match"
"pavlovia","0","566","0.0-0.0","","","","","","","","",""
"html-button-response","1","315521","0.0-1.0","313563","<p>Kedves Résztvevő! A Budapesti Műszaki és Gazdaságtudományi Egyetem Kognitív Tudományi Tanszékének kutatásában való részvételed kérjük. A kutatásban azt vizsgáljuk, hogy a magyar anyanyelvűek hogyan használnak bizonyos szóalakokat, és hogy milyen képük van arról, hogy mások hogyan használják, hogyan képzik a szavakat. Ez hozzásegít bennünket ahhoz, hogy jobban megértsük, hogyan dolgozza fel és tárolja a nyelvet az emberi agy, és hogyan működnek, hogyan változnak egy adott közösség nyelvi konvenciói.</p><p>A vizsgálat egy rövid számítógépes feladatból fog állni. A kutatásban való részvétel önkéntes, a részvételi szándék bármikor visszavonható. A résztvevők eredményeit név nélkül kezeljük, így nem beazonosíthatók az adatok feldolgozása során. Minden személyes adatot az EU általános adatvédelmi rendeletének (GDPR) megfelelően kezelünk és legfeljebb öt éven belül megsemmisítünk. A vizsgálat jellemzően húsz percet vesz igénybe.</p><p>Kutatásvezető:</p><p>Dr. Rácz Péter, tudományos munkatárs, BME KTT</p><p>e-mail: racz.peter.marton@ttk.bme.hu</p>","0","","","","","",""
"html-button-response","2","317383","0.0-2.0","1360","<p>A kísérletben szavakat fogsz látni. Ezek között lesznek olyanok, amelyeket ismersz, de előfordulhatnak olyanok is, amelyeket nem ismersz, sőt, vannak köztük kitalált szavak is. Minden szónál látni fogsz toldalékolt alakokat. A te feladatod az lesz, hogy minden szóhoz kiválaszd azt a toldalékolt alakot, amely a te számodra ismerősebben, természetesebben hangzik. Rossz válaszok nincsenek, mert van olyan, hogy különböző embereknek más és más szó tűnik jobb választásnak. A választ úgy tudod majd kiválasztani, ha rákattintasz.</p><p>Ebben a szóválasztós játékban egy másik játékossal együtt veszel majd részt. A másik játékos is minden esetben azok közül a lehetőségek közül válogathat, mint te. Kettőtök feladata az, hogy ugyanazt a lehetőséget válasszátok minden esetben. Ahhoz, hogy ez sikerüljön, neked figyelned kell arra, hogy a másik játékos milyen válaszokat ad, és ennek alapján meg kell tippelned, hogyan választ legközelebb. Ha eltalálod, akkor pontot kapsz.</p>","0","","","","","",""
"html-button-response","3","319382","0.0-3.0","1487","<p>Kérjük, olvasd el az alábbi nyilatkozatot, és amennyiben egyetértesz vele, nyomj a Beleegyezés gombra!</p><p>Kijelentem, hogy magyar anyanyelvű személyként önként veszek részt a BME KTT kísérletében. A kutatás céljával és folyamatával kapcsolatban elegendő tájékoztatást kaptam, lehetőségem volt kérdések feltételére, és esetleges kérdéseimre megfelelő válaszokat kaptam. A tájékoztatás alapján elegendő mennyiségű információ áll a rendelkezésemre, hogy eldönthessem, részt kívánok-e venni a kutatásban.</p><p>Tisztában vagyok vele, hogy részvételi szándékomat és adataimat bármikor, indoklás nélkül visszavonhatom.</p><p>Értem és tudomásul veszem, hogy a kutatás tudományos célokat szolgál, és az általam szolgáltatott adatokat a BME kizárólag kutatási célból használja fel. Tudomásul veszem, hogy eredményeimet a többi résztvevő eredményeivel együtt kezelik, így egyéni teljesítményemről visszajelzést, szakvéleményt nem kapok.</p><p>Megértettem, hogy adataim kezelését illetően a BME az EU általános adatvédelmi rendelete (GDPR), a hatályos adatvédelmi törvény és a nemzetközi kutatás-etikai alapelvek szerint jár el. Eredményeim anonim módon kerülnek feldolgozásra, és a kutatás résztvevői az azonosításomra alkalmas adataimat harmadik félnek nem szolgáltatják ki. Engedélyezem a BME számára a jelen kutatásban felvett adataim feldolgozását és tárolását, beleértve azok későbbi kutatásokhoz való felhasználását is. Személyes adataim kezelésével kapcsolatban tájékoztatást kérhetek a kutatás résztvevőitől, az adatkezelés ellen tiltakozhatok, kérhetem személyes adataim helyesbítését, törlését vagy zárolását, valamint jogorvoslatért a Nemzeti Adatvédelmi és Információszabadság Hatósághoz fordulhatok.</p><p>Kijelentem, hogy a kutatásban való részvételem körülményeiről részletes tájékoztatást kaptam, és a feltételeket elfogadom.</p>","0","","","","","",""
"survey-text","4","359837","0.0-4.0","39938","","{""Q0"":"""",""Q1"":""Férfi"",""Q2"":""2001"",""Q3"":""15""}","","","","","",""
"html-button-response","5","368432","0.0-5.0","8094","<p>Ebben a játékban szavakat kell toldalékolni.</p> <p>Minden körben mutatunk majd egy példamondatot, amiben lesz egy szó.</p> <p>Alatta jön egy második mondat, ezt a mondatot neked kell majd befejezni, ugyanezzel a szóval.</p> <p>Nem biztos, hogy a szó eleve ismerős lesz számodra!</p> <p>Minden mondathoz adunk két lehetőséget, ezeket balra és jobbra látod majd.</p> <p>A játék kb. negyedóráig-húsz percig tart.</p>","0","","","","","",""
"html-button-response","6","379969","0.0-6.0","11036","<p>Nézzünk egy példát!</p> <p>A példamondat: ""Ez itt egy blumbnyeg.""</p><p>Neked ezt a mondatot kell befejezned: ""Ott vagyunk a...""</p><p>A lehetőségek pedig ezek:</p>","0","","","","","",""
"html-button-response","7","381843","0.0-7.0","1367","<p>Nagyon jó.</p><p>Ezt a játékot nem egyedül fogod játszani, hanem egy másik játékossal.</p><p>Mielőtt továbblépünk, összekapcsolunk titeket egymással.</p><p>Ez igénybe vehet néhány másodpercet, amihez szíves türelmed kérjük.</p>","0","","","","","",""
"html-button-response","8","387581","0.0-8.0","null","<p>Csatlakozás a másik játékoshoz...</p>","null","","","","","",""
"html-button-response","9","390105","0.0-9.0","null","<p> Sikeres kapcsolódás!</p>","null","","","","","",""
"html-button-response","10","397794","0.0-10.0","7175","<p>A következőkben ketten játsszátok a szóválasztós játékot.</p><p>A feladatotok az lesz, hogy minden körben <b>ugyanazt</b> a szót válasszátok.</p><p>Minden ilyen egyező válaszért pontot kaptok.</p><p>Próbáld meg kitalálni, mit választ a másik játékos!</p><p>Bármikor választhatsz, a körnek akkor van vége, ha mindketten döntöttetek.</p><p>Sok sikert!</p>","0","","","","","",""
"html-button-response-esp","11","405843","0.0-11.0-0.0","7532","Ez itt egy lihény. Elneveztem a kutyámat...","0","lihénynek","[""lihénynek"",""lihénynak""]","lihénynak","esp trial","4","false"
"html-button-response","12","409355","0.0-11.0-1.0","null","<p>A másik játékos ezt választotta: <b>lihénynak</b>.</p><p>&#10060;</p><p>A válaszaitok <b>nem</b> egyeznek meg.</p>","null","","","","feedback trial","",""
"html-button-response-esp","13","416150","0.0-11.0-0.1","6281","Ez itt egy fupét. Nincs is jobb egy jó...","0","fupétnél","[""fupétnél"",""fupétnál""]","fupétnál","esp trial","4","false"
"html-button-response","14","419664","0.0-11.0-1.1","null","<p>A másik játékos ezt választotta: <b>fupétnál</b>.</p><p>&#10060;</p><p>A válaszaitok <b>nem</b> egyeznek meg.</p>","null","","","","feedback trial","",""
"html-button-response-esp","15","424947","0.0-11.0-0.2","4778","Ez itt egy dutec. Nincs is jobb egy jó...","1","dutecnél","[""dutecnál"",""dutecnél""]","dutecnál","esp trial","4","false"
"html-button-response","16","428471","0.0-11.0-1.2","null","<p>A másik játékos ezt választotta: <b>dutecnál</b>.</p><p>&#10060;</p><p>A válaszaitok <b>nem</b> egyeznek meg.</p>","null","","","","feedback trial","",""
"html-button-response-esp","17","433183","0.0-11.0-0.3","3810","Ez itt egy zatéj. Nincs is jobb egy jó...","1","zatéjnél","[""zatéjnál"",""zatéjnél""]","zatéjnál","esp trial","4","false"
"html-button-response","18","436710","0.0-11.0-1.3","null","<p>A másik játékos ezt választotta: <b>zatéjnál</b>.</p><p>&#10060;</p><p>A válaszaitok <b>nem</b> egyeznek meg.</p>","null","","","","feedback trial","",""
"html-button-response-esp","19","444193","0.0-11.0-0.4","6969","Ez itt egy spatel. Elneveztem a kutyámat...","1","spatelnek","[""spatelnak"",""spatelnek""]","spatelnak","esp trial","4","false"
"html-button-response","20","447711","0.0-11.0-1.4","null","<p>A másik játékos ezt választotta: <b>spatelnak</b>.</p><p>&#10060;</p><p>A válaszaitok <b>nem</b> egyeznek meg.</p>","null","","","","feedback trial","",""
"html-button-response-esp","21","452722","0.0-11.0-0.5","4497","Ez itt egy trodély. Ott vagyunk a...","1","trodélyban","[""trodélyben"",""trodélyban""]","trodélyben","esp trial","4","false"
"html-button-response","22","456236","0.0-11.0-1.5","null","<p>A másik játékos ezt választotta: <b>trodélyben</b>.</p><p>&#10060;</p><p>A válaszaitok <b>nem</b> egyeznek meg.</p>","null","","","","feedback trial","",""
"html-button-response-esp","23","460955","0.0-11.0-0.6","3885","Ez itt egy fojlegy. Elneveztem a kutyámat...","1","fojlegynek","[""fojlegynak"",""fojlegynek""]","fojlegynak","esp trial","4","false"
"html-button-response","24","464485","0.0-11.0-1.6","null","<p>A másik játékos ezt választotta: <b>fojlegynak</b>.</p><p>&#10060;</p><p>A válaszaitok <b>nem</b> egyeznek meg.</p>","null","","","","feedback trial","",""
"html-button-response-esp","25","469194","0.0-11.0-0.7","2415","Ez itt egy zábény. Elneveztem a kutyámat...","1","zábénynak","[""zábénynek"",""zábénynak""]","zábénynak","esp trial","4","true"
"html-button-response","26","472709","0.0-11.0-1.7","null","<p>A másik játékos ezt választotta: <b>zábénynak</b>.</p><p>&#x2705;</p><p>A te válaszod és a másik játékos válasza <b>megegyeznek</b>.</p>","null","","","","feedback trial","",""
"html-button-response-esp","27","477427","0.0-11.0-0.8","3049","Ez itt egy nuhét. Nincs is jobb egy jó...","1","nuhétnál","[""nuhétnél"",""nuhétnál""]","nuhétnál","esp trial","4","true"
"html-button-response","28","480957","0.0-11.0-1.8","null","<p>A másik játékos ezt választotta: <b>nuhétnál</b>.</p><p>&#x2705;</p><p>A te válaszod és a másik játékos válasza <b>megegyeznek</b>.</p>","null","","","","feedback trial","",""
"html-button-response-esp","29","485684","0.0-11.0-0.9","1001","Ez itt egy kátéd. Nincs is jobb egy jó...","0","kátédnál","[""kátédnál"",""kátédnél""]","kátédnél","esp trial","4","false"
"html-button-response","30","489210","0.0-11.0-1.9","null","<p>A másik játékos ezt választotta: <b>kátédnél</b>.</p><p>&#10060;</p><p>A válaszaitok <b>nem</b> egyeznek meg.</p>","null","","","","feedback trial","",""
"html-button-response-esp","31","493928","0.0-11.0-0.10","3637","Ez itt egy zarcég. Nincs is jobb egy jó...","1","zarcégnál","[""zarcégnél"",""zarcégnál""]","zarcégnál","esp trial","4","true"
"html-button-response","32","497439","0.0-11.0-1.10","null","<p>A másik játékos ezt választotta: <b>zarcégnál</b>.</p><p>&#x2705;</p><p>A te válaszod és a másik játékos válasza <b>megegyeznek</b>.</p>","null","","","","feedback trial","",""
"html-button-response-esp","33","502154","0.0-11.0-0.11","3008","Ez itt egy spivél. Elneveztem a kutyámat...","1","spivélnak","[""spivélnek"",""spivélnak""]","spivélnak","esp trial","4","true"
"html-button-response","34","505664","0.0-11.0-1.11","null","<p>A másik játékos ezt választotta: <b>spivélnak</b>.</p><p>&#x2705;</p><p>A te válaszod és a másik játékos válasza <b>megegyeznek</b>.</p>","null","","","","feedback trial","",""
"html-button-response-esp","35","511305","0.0-11.0-0.12","5139","Ez itt egy vurnel. Elneveztem a kutyámat...","1","vurnelnek","[""vurnelnak"",""vurnelnek""]","vurnelnak","esp trial","4","false"
"html-button-response","36","514825","0.0-11.0-1.12","null","<p>A másik játékos ezt választotta: <b>vurnelnak</b>.</p><p>&#10060;</p><p>A válaszaitok <b>nem</b> egyeznek meg.</p>","null","","","","feedback trial","",""
"html-button-response-esp","37","519535","0.0-11.0-0.13","2634","Ez itt egy jutély. Nincs is jobb egy jó...","0","jutélynál","[""jutélynál"",""jutélynél""]","jutélynél","esp trial","4","false"
"html-button-response","38","523047","0.0-11.0-1.13","null","<p>A másik játékos ezt választotta: <b>jutélynél</b>.</p><p>&#10060;</p><p>A válaszaitok <b>nem</b> egyeznek meg.</p>","null","","","","feedback trial","",""
"html-button-response-esp","39","527770","0.0-11.0-0.14","1923","Ez itt egy murdes. Nincs is jobb egy jó...","1","murdesnál","[""murdesnél"",""murdesnál""]","murdesnál","esp trial","4","true"
"html-button-response","40","531299","0.0-11.0-1.14","null","<p>A másik játékos ezt választotta: <b>murdesnál</b>.</p><p>&#x2705;</p><p>A te válaszod és a másik játékos válasza <b>megegyeznek</b>.</p>","null","","","","feedback trial","",""
"html-button-response-esp","41","536026","0.0-11.0-0.15","3570","Ez itt egy vodec. Nincs is jobb egy jó...","0","vodecnél","[""vodecnél"",""vodecnál""]","vodecnál","esp trial","4","false"
"html-button-response","42","539555","0.0-11.0-1.15","null","<p>A másik játékos ezt választotta: <b>vodecnál</b>.</p><p>&#10060;</p><p>A válaszaitok <b>nem</b> egyeznek meg.</p>","null","","","","feedback trial","",""
"html-button-response-esp","43","544285","0.0-11.0-0.16","1899","Ez itt egy klajrén. Elneveztem a kutyámat...","1","klajrénnak","[""klajrénnek"",""klajrénnak""]","klajrénnek","esp trial","4","false"
"html-button-response","44","547802","0.0-11.0-1.16","null","<p>A másik játékos ezt választotta: <b>klajrénnek</b>.</p><p>&#10060;</p><p>A válaszaitok <b>nem</b> egyeznek meg.</p>","null","","","","feedback trial","",""
"html-button-response-esp","45","553785","0.0-11.0-0.17","5481","Ez itt egy pazév. Nincs is jobb egy jó...","0","pazévnál","[""pazévnál"",""pazévnél""]","pazévnél","esp trial","4","false"
"html-button-response","46","557302","0.0-11.0-1.17","null","<p>A másik játékos ezt választotta: <b>pazévnél</b>.</p><p>&#10060;</p><p>A válaszaitok <b>nem</b> egyeznek meg.</p>","null","","","","feedback trial","",""
"html-button-response-esp","47","562017","0.0-11.0-0.18","342","Ez itt egy jurdent. Nincs is jobb egy jó...","0","jurdentnél","[""jurdentnél"",""jurdentnál""]","jurdentnál","esp trial","4","false"
"html-button-response","48","565519","0.0-11.0-1.18","null","<p>A másik játékos ezt választotta: <b>jurdentnál</b>.</p><p>&#10060;</p><p>A válaszaitok <b>nem</b> egyeznek meg.</p>","null","","","","feedback trial","",""
"html-button-response-esp","49","571534","0.0-11.0-0.19","5501","Ez itt egy bingéj. Elneveztem a kutyámat...","1","bingéjnek","[""bingéjnak"",""bingéjnek""]","bingéjnak","esp trial","4","false"
"html-button-response","50","575056","0.0-11.0-1.19","null","<p>A másik játékos ezt választotta: <b>bingéjnak</b>.</p><p>&#10060;</p><p>A válaszaitok <b>nem</b> egyeznek meg.</p>","null","","","","feedback trial","",""
"html-button-response-esp","51","579773","0.0-11.0-0.20","4092","Ez itt egy csublény. Ott vagyunk a...","0","csublényban","[""csublényban"",""csublényben""]","csublényben","esp trial","4","false"
"html-button-response","52","583281","0.0-11.0-1.20","null","<p>A másik játékos ezt választotta: <b>csublényben</b>.</p><p>&#10060;</p><p>A válaszaitok <b>nem</b> egyeznek meg.</p>","null","","","","feedback trial","",""
"html-button-response-esp","53","587987","0.0-11.0-0.21","1321","Ez itt egy spizec. Elneveztem a kutyámat...","0","spizecnak","[""spizecnak"",""spizecnek""]","spizecnak","esp trial","4","true"
"html-button-response","54","591503","0.0-11.0-1.21","null","<p>A másik játékos ezt választotta: <b>spizecnak</b>.</p><p>&#x2705;</p><p>A te válaszod és a másik játékos válasza <b>megegyeznek</b>.</p>","null","","","","feedback trial","",""
"html-button-response-esp","55","596775","0.0-11.0-0.22","4770","Ez itt egy hosét. Elneveztem a kutyámat...","1","hosétnek","[""hosétnak"",""hosétnek""]","hosétnek","esp trial","4","true"
"html-button-response","56","600296","0.0-11.0-1.22","null","<p>A másik játékos ezt választotta: <b>hosétnek</b>.</p><p>&#x2705;</p><p>A te válaszod és a másik játékos válasza <b>megegyeznek</b>.</p>","null","","","","feedback trial","",""
"html-button-response-esp","57","605011","0.0-11.0-0.23","3010","Ez itt egy tumély. Nincs is jobb egy jó...","1","tumélynél","[""tumélynál"",""tumélynél""]","tumélynál","esp trial","4","false"
"html-button-response","58","608530","0.0-11.0-1.23","null","<p>A másik játékos ezt választotta: <b>tumélynál</b>.</p><p>&#10060;</p><p>A válaszaitok <b>nem</b> egyeznek meg.</p>","null","","","","feedback trial","",""
"html-button-response-esp","59","613241","0.0-11.0-0.24","3852","Ez itt egy szibed. Ott vagyunk a...","1","szibedben","[""szibedban"",""szibedben""]","szibedban","esp trial","4","false"
"html-button-response","60","616747","0.0-11.0-1.24","null","<p>A másik játékos ezt választotta: <b>szibedban</b>.</p><p>&#10060;</p><p>A válaszaitok <b>nem</b> egyeznek meg.</p>","null","","","","feedback trial","",""
"html-button-response-esp","61","624983","0.0-11.0-0.25","7722","Ez itt egy cságyelt. Ott vagyunk a...","0","cságyeltben","[""cságyeltben"",""cságyeltban""]","cságyeltban","esp trial","4","false"
"html-button-response","62","628505","0.0-11.0-1.25","null","<p>A másik játékos ezt választotta: <b>cságyeltban</b>.</p><p>&#10060;</p><p>A válaszaitok <b>nem</b> egyeznek meg.</p>","null","","","","feedback trial","",""
"html-button-response-esp","63","633230","0.0-11.0-0.26","2769","Ez itt egy zuten. Nincs is jobb egy jó...","0","zutennál","[""zutennál"",""zutennél""]","zutennál","esp trial","4","true"
"html-button-response","64","636758","0.0-11.0-1.26","null","<p>A másik játékos ezt választotta: <b>zutennál</b>.</p><p>&#x2705;</p><p>A te válaszod és a másik játékos válasza <b>megegyeznek</b>.</p>","null","","","","feedback trial","",""
"html-button-response-esp","65","643213","0.0-11.0-0.27","5940","Ez itt egy zsalrén. Elneveztem a kutyámat...","0","zsalrénnak","[""zsalrénnak"",""zsalrénnek""]","zsalrénnak","esp trial","4","true"
"html-button-response","66","646724","0.0-11.0-1.27","null","<p>A másik játékos ezt választotta: <b>zsalrénnak</b>.</p><p>&#x2705;</p><p>A te válaszod és a másik játékos válasza <b>megegyeznek</b>.</p>","null","","","","feedback trial","",""
"html-button-response-esp","67","652065","0.0-11.0-0.28","4836","Ez itt egy fizend. Ott vagyunk a...","1","fizendban","[""fizendben"",""fizendban""]","fizendban","esp trial","4","true"
"html-button-response","68","655583","0.0-11.0-1.28","null","<p>A másik játékos ezt választotta: <b>fizendban</b>.</p><p>&#x2705;</p><p>A te válaszod és a másik játékos válasza <b>megegyeznek</b>.</p>","null","","","","feedback trial","",""
"html-button-response-esp","69","660300","0.0-11.0-0.29","4090","Ez itt egy hijegy. Nincs is jobb egy jó...","1","hijegynél","[""hijegynál"",""hijegynél""]","hijegynál","esp trial","4","false"
"html-button-response","70","663829","0.0-11.0-1.29","null","<p>A másik játékos ezt választotta: <b>hijegynál</b>.</p><p>&#10060;</p><p>A válaszaitok <b>nem</b> egyeznek meg.</p>","null","","","","feedback trial","",""
"html-button-response-esp","71","671054","0.0-11.0-0.30","6710","Ez itt egy szanéj. Elneveztem a kutyámat...","0","szanéjnek","[""szanéjnek"",""szanéjnak""]","szanéjnek","esp trial","4","true"
"html-button-response","72","674579","0.0-11.0-1.30","null","<p>A másik játékos ezt választotta: <b>szanéjnek</b>.</p><p>&#x2705;</p><p>A te válaszod és a másik játékos válasza <b>megegyeznek</b>.</p>","null","","","","feedback trial","",""
"html-button-response-esp","73","679848","0.0-11.0-0.31","4753","Ez itt egy briskéd. Nincs is jobb egy jó...","1","briskédnél","[""briskédnál"",""briskédnél""]","briskédnál","esp trial","4","false"
"html-button-response","74","683358","0.0-11.0-1.31","null","<p>A másik játékos ezt választotta: <b>briskédnál</b>.</p><p>&#10060;</p><p>A válaszaitok <b>nem</b> egyeznek meg.</p>","null","","","","feedback trial","",""
"html-button-response-esp","75","688753","0.0-11.0-0.32","4894","Ez itt egy klítegy. Nincs is jobb egy jó...","0","klítegynél","[""klítegynél"",""klítegynál""]","klítegynál","esp trial","4","false"
"html-button-response","76","692269","0.0-11.0-1.32","null","<p>A másik játékos ezt választotta: <b>klítegynál</b>.</p><p>&#10060;</p><p>A válaszaitok <b>nem</b> egyeznek meg.</p>","null","","","","feedback trial","",""
"html-button-response-esp","77","698568","0.0-11.0-0.33","5786","Ez itt egy lingék. Nincs is jobb egy jó...","1","lingéknél","[""lingéknál"",""lingéknél""]","lingéknál","esp trial","4","false"
"html-button-response","78","702091","0.0-11.0-1.33","null","<p>A másik játékos ezt választotta: <b>lingéknál</b>.</p><p>&#10060;</p><p>A válaszaitok <b>nem</b> egyeznek meg.</p>","null","","","","feedback trial","",""
"html-button-response-esp","79","706842","0.0-11.0-0.34","4237","Ez itt egy dóbem. Elneveztem a kutyámat...","0","dóbemnek","[""dóbemnek"",""dóbemnak""]","dóbemnak","esp trial","4","false"
"html-button-response","80","710357","0.0-11.0-1.34","null","<p>A másik játékos ezt választotta: <b>dóbemnak</b>.</p><p>&#10060;</p><p>A válaszaitok <b>nem</b> egyeznek meg.</p>","null","","","","feedback trial","",""
"html-button-response-esp","81","716021","0.0-11.0-0.35","5149","Ez itt egy dunkész. Ott vagyunk a...","0","dunkészban","[""dunkészban"",""dunkészben""]","dunkészben","esp trial","4","false"
"html-button-response","82","719533","0.0-11.0-1.35","null","<p>A másik játékos ezt választotta: <b>dunkészben</b>.</p><p>&#10060;</p><p>A válaszaitok <b>nem</b> egyeznek meg.</p>","null","","","","feedback trial","",""
"html-button-response-esp","83","724238","0.0-11.0-0.36","1804","Ez itt egy vismer. Nincs is jobb egy jó...","0","vismernél","[""vismernél"",""vismernál""]","vismernál","esp trial","4","false"
"html-button-response","84","727754","0.0-11.0-1.36","null","<p>A másik játékos ezt választotta: <b>vismernál</b>.</p><p>&#10060;</p><p>A válaszaitok <b>nem</b> egyeznek meg.</p>","null","","","","feedback trial","",""
"html-button-response-esp","85","732476","0.0-11.0-0.37","1767","Ez itt egy surnegy. Nincs is jobb egy jó...","1","surnegynél","[""surnegynál"",""surnegynél""]","surnegynál","esp trial","4","false"
"html-button-response","86","735999","0.0-11.0-1.37","null","<p>A másik játékos ezt választotta: <b>surnegynál</b>.</p><p>&#10060;</p><p>A válaszaitok <b>nem</b> egyeznek meg.</p>","null","","","","feedback trial","",""
"html-button-response-esp","87","740721","0.0-11.0-0.38","1583","Ez itt egy dinelt. Ott vagyunk a...","0","dineltben","[""dineltben"",""dineltban""]","dineltban","esp trial","4","false"
"html-button-response","88","744248","0.0-11.0-1.38","null","<p>A másik játékos ezt választotta: <b>dineltban</b>.</p><p>&#10060;</p><p>A válaszaitok <b>nem</b> egyeznek meg.</p>","null","","","","feedback trial","",""
"html-button-response-esp","89","748969","0.0-11.0-0.39","1437","Ez itt egy pristél. Ott vagyunk a...","0","pristélben","[""pristélben"",""pristélban""]","pristélban","esp trial","4","false"
"html-button-response","90","752480","0.0-11.0-1.39","null","<p>A másik játékos ezt választotta: <b>pristélban</b>.</p><p>&#10060;</p><p>A válaszaitok <b>nem</b> egyeznek meg.</p>","null","","","","feedback trial","",""
"html-button-response-esp","91","757207","0.0-11.0-0.40","1903","Ez itt egy mádép. Nincs is jobb egy jó...","1","mádépnél","[""mádépnál"",""mádépnél""]","mádépnél","esp trial","4","true"
"html-button-response","92","760725","0.0-11.0-1.40","null","<p>A másik játékos ezt választotta: <b>mádépnél</b>.</p><p>&#x2705;</p><p>A te válaszod és a másik játékos válasza <b>megegyeznek</b>.</p>","null","","","","feedback trial","",""
"html-button-response-esp","93","765451","0.0-11.0-0.41","2700","Ez itt egy dajrens. Nincs is jobb egy jó...","0","dajrensnél","[""dajrensnél"",""dajrensnál""]","dajrensnál","esp trial","4","false"
"html-button-response","94","768977","0.0-11.0-1.41","null","<p>A másik játékos ezt választotta: <b>dajrensnál</b>.</p><p>&#10060;</p><p>A válaszaitok <b>nem</b> egyeznek meg.</p>","null","","","","feedback trial","",""
"html-button-response-esp","95","773691","0.0-11.0-0.42","1527","Ez itt egy fágyép. Nincs is jobb egy jó...","1","fágyépnél","[""fágyépnál"",""fágyépnél""]","fágyépnél","esp trial","4","true"
"html-button-response","96","777215","0.0-11.0-1.42","null","<p>A másik játékos ezt választotta: <b>fágyépnél</b>.</p><p>&#x2705;</p><p>A te válaszod és a másik játékos válasza <b>megegyeznek</b>.</p>","null","","","","feedback trial","",""
"html-button-response-esp","97","781931","0.0-11.0-0.43","1287","Ez itt egy zined. Elneveztem a kutyámat...","0","zinednek","[""zinednek"",""zinednak""]","zinednak","esp trial","4","false"
"html-button-response","98","785454","0.0-11.0-1.43","null","<p>A másik játékos ezt választotta: <b>zinednak</b>.</p><p>&#10060;</p><p>A válaszaitok <b>nem</b> egyeznek meg.</p>","null","","","","feedback trial","",""
"html-button-response-esp","99","790180","0.0-11.0-0.44","2449","Ez itt egy klazér. Ott vagyunk a...","0","klazérban","[""klazérban"",""klazérben""]","klazérben","esp trial","4","false"
"html-button-response","100","793708","0.0-11.0-1.44","null","<p>A másik játékos ezt választotta: <b>klazérben</b>.</p><p>&#10060;</p><p>A válaszaitok <b>nem</b> egyeznek meg.</p>","null","","","","feedback trial","",""
"html-button-response-esp","101","798427","0.0-11.0-0.45","1351","Ez itt egy trikép. Ott vagyunk a...","0","triképben","[""triképben"",""triképban""]","triképban","esp trial","4","false"
"html-button-response","102","801943","0.0-11.0-1.45","null","<p>A másik játékos ezt választotta: <b>triképban</b>.</p><p>&#10060;</p><p>A válaszaitok <b>nem</b> egyeznek meg.</p>","null","","","","feedback trial","",""
"html-button-response-esp","103","806673","0.0-11.0-0.46","1148","Ez itt egy sihen. Nincs is jobb egy jó...","0","sihennél","[""sihennél"",""sihennál""]","sihennál","esp trial","4","false"
"html-button-response","104","810200","0.0-11.0-1.46","null","<p>A másik játékos ezt választotta: <b>sihennál</b>.</p><p>&#10060;</p><p>A válaszaitok <b>nem</b> egyeznek meg.</p>","null","","","","feedback trial","",""
"html-button-response-esp","105","814911","0.0-11.0-0.47","1791","Ez itt egy humék. Elneveztem a kutyámat...","0","huméknek","[""huméknek"",""huméknak""]","huméknek","esp trial","4","true"
"html-button-response","106","818417","0.0-11.0-1.47","null","<p>A másik játékos ezt választotta: <b>huméknek</b>.</p><p>&#x2705;</p><p>A te válaszod és a másik játékos válasza <b>megegyeznek</b>.</p>","null","","","","feedback trial","",""
"html-button-response-esp","107","823144","0.0-11.0-0.48","1636","Ez itt egy lijez. Elneveztem a kutyámat...","1","lijeznek","[""lijeznak"",""lijeznek""]","lijeznak","esp trial","4","false"
"html-button-response","108","826665","0.0-11.0-1.48","null","<p>A másik játékos ezt választotta: <b>lijeznak</b>.</p><p>&#10060;</p><p>A válaszaitok <b>nem</b> egyeznek meg.</p>","null","","","","feedback trial","",""
"html-button-response-esp","109","831380","0.0-11.0-0.49","1606","Ez itt egy gábéd. Nincs is jobb egy jó...","1","gábédnél","[""gábédnál"",""gábédnél""]","gábédnél","esp trial","4","true"
"html-button-response","110","834911","0.0-11.0-1.49","null","<p>A másik játékos ezt választotta: <b>gábédnél</b>.</p><p>&#x2705;</p><p>A te válaszod és a másik játékos válasza <b>megegyeznek</b>.</p>","null","","","","feedback trial","",""
"html-button-response-esp","111","839629","0.0-11.0-0.50","2534","Ez itt egy tarhéz. Ott vagyunk a...","1","tarhézben","[""tarhézban"",""tarhézben""]","tarhézben","esp trial","4","true"
"html-button-response","112","843135","0.0-11.0-1.50","null","<p>A másik játékos ezt választotta: <b>tarhézben</b>.</p><p>&#x2705;</p><p>A te válaszod és a másik játékos válasza <b>megegyeznek</b>.</p>","null","","","","feedback trial","",""
"html-button-response-esp","113","847851","0.0-11.0-0.51","2118","Ez itt egy csodeg. Nincs is jobb egy jó...","0","csodegnél","[""csodegnél"",""csodegnál""]","csodegnál","esp trial","4","false"
"html-button-response","114","851376","0.0-11.0-1.51","null","<p>A másik játékos ezt választotta: <b>csodegnál</b>.</p><p>&#10060;</p><p>A válaszaitok <b>nem</b> egyeznek meg.</p>","null","","","","feedback trial","",""
"html-button-response-esp","115","856106","0.0-11.0-0.52","2011","Ez itt egy tivenc. Ott vagyunk a...","1","tivencben","[""tivencban"",""tivencben""]","tivencban","esp trial","4","false"
"html-button-response","116","859618","0.0-11.0-1.52","null","<p>A másik játékos ezt választotta: <b>tivencban</b>.</p><p>&#10060;</p><p>A válaszaitok <b>nem</b> egyeznek meg.</p>","null","","","","feedback trial","",""
"html-button-response-esp","117","864332","0.0-11.0-0.53","2262","Ez itt egy dibez. Ott vagyunk a...","1","dibezben","[""dibezban"",""dibezben""]","dibezban","esp trial","4","false"
"html-button-response","118","867845","0.0-11.0-1.53","null","<p>A másik játékos ezt választotta: <b>dibezban</b>.</p><p>&#10060;</p><p>A válaszaitok <b>nem</b> egyeznek meg.</p>","null","","","","feedback trial","",""
"html-button-response","119","870680","0.0-12.0","2334","<p>A közös játék most véget ért.</p><p>Mielőtt eláruljuk a végső pontszámodat, arra kérlek, játszd a szóválasztós játékot néhány percig egyedül is.</p><p>A feladatod ugyanaz lesz, választani két lehetőség közül.</p><p>Most viszont egyedül kell döntened, hogy te melyiket választanád.</p>","0","","","","","",""
"html-button-response-clever","120","873969","0.0-13.0-0.0","2776","Ez itt egy dingec. Elneveztem a kutyámat...","1","dingecnek","[""dingecnak"",""dingecnek""]","","posttest trial","8",""
"html-button-response-clever","121","875965","0.0-13.0-0.1","1496","Ez itt egy bródesz. Elneveztem a kutyámat...","0","bródesznek","[""bródesznek"",""bródesznak""]","","posttest trial","8",""
"html-button-response-clever","122","878068","0.0-13.0-0.2","1602","Ez itt egy prately. Elneveztem a kutyámat...","0","pratelynek","[""pratelynek"",""pratelynak""]","","posttest trial","8",""
"html-button-response-clever","123","880050","0.0-13.0-0.3","1476","Ez itt egy brotes. Ott vagyunk a...","0","brotesben","[""brotesben"",""brotesban""]","","posttest trial","8",""
"html-button-response-clever","124","882550","0.0-13.0-0.4","1998","Ez itt egy klordény. Elneveztem a kutyámat...","1","klordénynek","[""klordénynak"",""klordénynek""]","","posttest trial","8",""
"html-button-response-clever","125","884995","0.0-13.0-0.5","1932","Ez itt egy fádens. Elneveztem a kutyámat...","0","fádensnek","[""fádensnek"",""fádensnak""]","","posttest trial","8",""
"html-button-response-clever","126","886748","0.0-13.0-0.6","1245","Ez itt egy spáten. Elneveztem a kutyámat...","1","spátennek","[""spátennak"",""spátennek""]","","posttest trial","8",""
"html-button-response-clever","127","889146","0.0-13.0-0.7","1896","Ez itt egy tránély. Elneveztem a kutyámat...","0","tránélynek","[""tránélynek"",""tránélynak""]","","posttest trial","8",""
"html-button-response-clever","128","891243","0.0-13.0-0.8","1595","Ez itt egy trapszegy. Nincs is jobb egy jó...","0","trapszegynél","[""trapszegynél"",""trapszegynál""]","","posttest trial","8",""
"html-button-response-clever","129","893244","0.0-13.0-0.9","1485","Ez itt egy kadér. Nincs is jobb egy jó...","1","kadérnél","[""kadérnál"",""kadérnél""]","","posttest trial","8",""
"html-button-response-clever","130","895095","0.0-13.0-0.10","1348","Ez itt egy trigenc. Elneveztem a kutyámat...","1","trigencnek","[""trigencnak"",""trigencnek""]","","posttest trial","8",""
"html-button-response-clever","131","897272","0.0-13.0-0.11","1673","Ez itt egy júder. Elneveztem a kutyámat...","0","júdernek","[""júdernek"",""júdernak""]","","posttest trial","8",""
"html-button-response-clever","132","899197","0.0-13.0-0.12","1412","Ez itt egy csartény. Elneveztem a kutyámat...","0","csarténynek","[""csarténynek"",""csarténynak""]","","posttest trial","8",""
"html-button-response-clever","133","901379","0.0-13.0-0.13","1675","Ez itt egy sartely. Ott vagyunk a...","0","sartelyben","[""sartelyben"",""sartelyban""]","","posttest trial","8",""
"html-button-response-clever","134","902868","0.0-13.0-0.14","988","Ez itt egy buhény. Ott vagyunk a...","0","buhényben","[""buhényben"",""buhényban""]","","posttest trial","8",""
"html-button-response-clever","135","904901","0.0-13.0-0.15","1519","Ez itt egy nyábét. Ott vagyunk a...","0","nyábétban","[""nyábétban"",""nyábétben""]","","posttest trial","8",""
"html-button-response-clever","136","907070","0.0-13.0-0.16","1660","Ez itt egy hivép. Ott vagyunk a...","1","hivépben","[""hivépban"",""hivépben""]","","posttest trial","8",""
"html-button-response-clever","137","909462","0.0-13.0-0.17","1877","Ez itt egy nyarcéj. Elneveztem a kutyámat...","1","nyarcéjnek","[""nyarcéjnak"",""nyarcéjnek""]","","posttest trial","8",""
"html-button-response-clever","138","911397","0.0-13.0-0.18","1424","Ez itt egy sprízem. Nincs is jobb egy jó...","0","sprízemnél","[""sprízemnél"",""sprízemnál""]","","posttest trial","8",""
"html-button-response-clever","139","913700","0.0-13.0-0.19","1790","Ez itt egy forzéd. Elneveztem a kutyámat...","1","forzédnek","[""forzédnak"",""forzédnek""]","","posttest trial","8",""
"html-button-response-clever","140","915711","0.0-13.0-0.20","1508","Ez itt egy ronvet. Elneveztem a kutyámat...","0","ronvetnek","[""ronvetnek"",""ronvetnak""]","","posttest trial","8",""
"html-button-response-clever","141","918207","0.0-13.0-0.21","1982","Ez itt egy brigeszt. Elneveztem a kutyámat...","1","brigesztnek","[""brigesztnak"",""brigesztnek""]","","posttest trial","8",""
"html-button-response-clever","142","919927","0.0-13.0-0.22","1217","Ez itt egy bidem. Ott vagyunk a...","0","bidemben","[""bidemben"",""bidemban""]","","posttest trial","8",""
"html-button-response-clever","143","921721","0.0-13.0-0.23","1279","Ez itt egy navec. Ott vagyunk a...","1","navecben","[""navecban"",""navecben""]","","posttest trial","8",""
"html-button-response-clever","144","923685","0.0-13.0-0.24","1452","Ez itt egy jalrény. Nincs is jobb egy jó...","0","jalrénynél","[""jalrénynél"",""jalrénynál""]","","posttest trial","8",""
"html-button-response-clever","145","925563","0.0-13.0-0.25","1371","Ez itt egy kábesz. Nincs is jobb egy jó...","1","kábesznél","[""kábesznál"",""kábesznél""]","","posttest trial","8",""
"html-button-response-clever","146","927482","0.0-13.0-0.26","1417","Ez itt egy giheszt. Elneveztem a kutyámat...","0","gihesztnek","[""gihesztnek"",""gihesztnak""]","","posttest trial","8",""
"html-button-response-clever","147","930080","0.0-13.0-0.27","2084","Ez itt egy gótem. Elneveztem a kutyámat...","0","gótemnek","[""gótemnek"",""gótemnak""]","","posttest trial","8",""
"html-button-response-clever","148","932076","0.0-13.0-0.28","1492","Ez itt egy jorzég. Elneveztem a kutyámat...","1","jorzégnek","[""jorzégnak"",""jorzégnek""]","","posttest trial","8",""
"html-button-response-clever","149","934088","0.0-13.0-0.29","1505","Ez itt egy priszkenc. Elneveztem a kutyámat...","0","priszkencnek","[""priszkencnek"",""priszkencnak""]","","posttest trial","8",""
"html-button-response-clever","150","936183","0.0-13.0-0.30","1588","Ez itt egy csinték. Ott vagyunk a...","1","csintékben","[""csintékban"",""csintékben""]","","posttest trial","8",""
"html-button-response-clever","151","938247","0.0-13.0-0.31","1560","Ez itt egy sporzem. Elneveztem a kutyámat...","1","sporzemnek","[""sporzemnak"",""sporzemnek""]","","posttest trial","8",""
"html-button-response-clever","152","940053","0.0-13.0-0.32","1290","Ez itt egy tranék. Ott vagyunk a...","1","tranékben","[""tranékban"",""tranékben""]","","posttest trial","8",""
"html-button-response-clever","153","942647","0.0-13.0-0.33","2092","Ez itt egy matéz. Ott vagyunk a...","0","matézben","[""matézben"",""matézban""]","","posttest trial","8",""
"html-button-response-clever","154","946691","0.0-13.0-0.34","3538","Ez itt egy jábéz. Ott vagyunk a...","1","jábézben","[""jábézban"",""jábézben""]","","posttest trial","8",""
"html-button-response-clever","155","949487","0.0-13.0-0.35","2287","Ez itt egy gicéj. Nincs is jobb egy jó...","0","gicéjnél","[""gicéjnél"",""gicéjnál""]","","posttest trial","8",""
"html-button-response-clever","156","952424","0.0-13.0-0.36","2431","Ez itt egy trincseg. Ott vagyunk a...","0","trincsegben","[""trincsegben"",""trincsegban""]","","posttest trial","8",""
"html-button-response-clever","157","954702","0.0-13.0-0.37","1772","Ez itt egy nidét. Ott vagyunk a...","1","nidétben","[""nidétban"",""nidétben""]","","posttest trial","8",""
"html-button-response-clever","158","956467","0.0-13.0-0.38","1263","Ez itt egy ikszert. Ott vagyunk a...","0","ikszertben","[""ikszertben"",""ikszertban""]","","posttest trial","8",""
"html-button-response-clever","159","958493","0.0-13.0-0.39","1511","Ez itt egy lismév. Ott vagyunk a...","1","lismévben","[""lismévban"",""lismévben""]","","posttest trial","8",""
"html-button-response-clever","160","961048","0.0-13.0-0.40","2053","Ez itt egy vublet. Nincs is jobb egy jó...","1","vubletnél","[""vubletnál"",""vubletnél""]","","posttest trial","8",""
"html-button-response-clever","161","963414","0.0-13.0-0.41","1864","Ez itt egy kliszer. Nincs is jobb egy jó...","0","kliszernél","[""kliszernél"",""kliszernál""]","","posttest trial","8",""
"html-button-response-clever","162","965371","0.0-13.0-0.42","1451","Ez itt egy csimen. Nincs is jobb egy jó...","0","csimennél","[""csimennél"",""csimennál""]","","posttest trial","8",""
"html-button-response-clever","163","968855","0.0-13.0-0.43","2982","Ez itt egy gonszék. Nincs is jobb egy jó...","1","gonszéknél","[""gonszéknál"",""gonszéknél""]","","posttest trial","8",""
"html-button-response-clever","164","971920","0.0-13.0-0.44","2549","Ez itt egy vodép. Elneveztem a kutyámat...","0","vodépnek","[""vodépnek"",""vodépnak""]","","posttest trial","8",""
"html-button-response-clever","165","974579","0.0-13.0-0.45","2157","Ez itt egy hóbens. Ott vagyunk a...","1","hóbensben","[""hóbensban"",""hóbensben""]","","posttest trial","8",""
"html-button-response-clever","166","976597","0.0-13.0-0.46","1505","Ez itt egy zsopéd. Ott vagyunk a...","1","zsopédben","[""zsopédban"",""zsopédben""]","","posttest trial","8",""
"html-button-response-clever","167","981197","0.0-13.0-0.47","4094","Ez itt egy brágéd. Elneveztem a kutyámat...","0","brágédnek","[""brágédnek"",""brágédnak""]","","posttest trial","8",""
"html-button-response-clever","168","984977","0.0-13.0-0.48","3275","Ez itt egy licegy. Ott vagyunk a...","1","licegyben","[""licegyban"",""licegyben""]","","posttest trial","8",""
"html-button-response-clever","169","987016","0.0-13.0-0.49","1532","Ez itt egy szutend. Ott vagyunk a...","1","szutendben","[""szutendban"",""szutendben""]","","posttest trial","8",""
"html-button-response-clever","170","989068","0.0-13.0-0.50","1547","Ez itt egy fincek. Nincs is jobb egy jó...","1","finceknél","[""finceknál"",""finceknél""]","","posttest trial","8",""
"html-button-response-clever","171","991561","0.0-13.0-0.51","1980","Ez itt egy szihét. Elneveztem a kutyámat...","0","szihétnek","[""szihétnek"",""szihétnak""]","","posttest trial","8",""
"html-button-response-clever","172","993543","0.0-13.0-0.52","1467","Ez itt egy brukész. Nincs is jobb egy jó...","0","brukésznél","[""brukésznél"",""brukésznál""]","","posttest trial","8",""
"html-button-response-clever","173","995545","0.0-13.0-0.53","1500","Ez itt egy kluhéj. Nincs is jobb egy jó...","1","kluhéjnél","[""kluhéjnál"",""kluhéjnél""]","","posttest trial","8",""
"html-button-response","174","1002189","0.0-14.0","6135","<p> Vége a játéknak. A teljes pontszámod 16/54.</p><p> Szép munka! &#128526;&#128526;&#128526;</p><p>A Befejezés gomb megnyomása után bezárhatod a böngészőablakot.</p>","0","","","","","",""
"html-keyboard-response","175","1007714","0.0-15.0","null","<div class=""message"">
         <p>Egy kis türelmet kérünk, amíg elmentjük az adatokat...</p>
         </div>","null","","","","","",""
