"trial_type","trial_index","time_elapsed","internal_node_id","rt","stimulus","response","response_string","choices","esp_response","trial_kind","list_number","esp_match"
"pavlovia","0","788","0.0-0.0","","","","","","","","",""
"html-button-response","1","43416","0.0-1.0","42128","<p>Kedves Résztvevő! A Budapesti Műszaki és Gazdaságtudományi Egyetem Kognitív Tudományi Tanszékének kutatásában való részvételed kérjük. A kutatásban azt vizsgáljuk, hogy a magyar anyanyelvűek hogyan használnak bizonyos szóalakokat, és hogy milyen képük van arról, hogy mások hogyan használják, hogyan képzik a szavakat. Ez hozzásegít bennünket ahhoz, hogy jobban megértsük, hogyan dolgozza fel és tárolja a nyelvet az emberi agy, és hogyan működnek, hogyan változnak egy adott közösség nyelvi konvenciói.</p><p>A vizsgálat egy rövid számítógépes feladatból fog állni. A kutatásban való részvétel önkéntes, a részvételi szándék bármikor visszavonható. A résztvevők eredményeit név nélkül kezeljük, így nem beazonosíthatók az adatok feldolgozása során. Minden személyes adatot az EU általános adatvédelmi rendeletének (GDPR) megfelelően kezelünk és legfeljebb öt éven belül megsemmisítünk. A vizsgálat jellemzően húsz percet vesz igénybe.</p><p>Kutatásvezető:</p><p>Dr. Rácz Péter, tudományos munkatárs, BME KTT</p><p>e-mail: racz.peter.marton@ttk.bme.hu</p>","0","","","","","",""
"html-button-response","2","198694","0.0-2.0","154775","<p>A kísérletben szavakat fogsz látni. Ezek között lesznek olyanok, amelyeket ismersz, de előfordulhatnak olyanok is, amelyeket nem ismersz, sőt, vannak köztük kitalált szavak is. Minden szónál látni fogsz toldalékolt alakokat. A te feladatod az lesz, hogy minden szóhoz kiválaszd azt a toldalékolt alakot, amely a te számodra ismerősebben, természetesebben hangzik. Rossz válaszok nincsenek, mert van olyan, hogy különböző embereknek más és más szó tűnik jobb választásnak. A választ úgy tudod majd kiválasztani, ha rákattintasz.</p><p>Ebben a szóválasztós játékban egy másik játékossal együtt veszel majd részt. A másik játékos is minden esetben azok közül a lehetőségek közül válogathat, mint te. Kettőtök feladata az, hogy ugyanazt a lehetőséget válasszátok minden esetben. Ahhoz, hogy ez sikerüljön, neked figyelned kell arra, hogy a másik játékos milyen válaszokat ad, és ennek alapján meg kell tippelned, hogyan választ legközelebb. Ha eltalálod, akkor pontot kapsz.</p>","0","","","","","",""
"html-button-response","3","204149","0.0-3.0","4955","<p>Kérjük, olvasd el az alábbi nyilatkozatot, és amennyiben egyetértesz vele, nyomj a Beleegyezés gombra!</p><p>Kijelentem, hogy magyar anyanyelvű személyként önként veszek részt a BME KTT kísérletében. A kutatás céljával és folyamatával kapcsolatban elegendő tájékoztatást kaptam, lehetőségem volt kérdések feltételére, és esetleges kérdéseimre megfelelő válaszokat kaptam. A tájékoztatás alapján elegendő mennyiségű információ áll a rendelkezésemre, hogy eldönthessem, részt kívánok-e venni a kutatásban.</p><p>Tisztában vagyok vele, hogy részvételi szándékomat és adataimat bármikor, indoklás nélkül visszavonhatom.</p><p>Értem és tudomásul veszem, hogy a kutatás tudományos célokat szolgál, és az általam szolgáltatott adatokat a BME kizárólag kutatási célból használja fel. Tudomásul veszem, hogy eredményeimet a többi résztvevő eredményeivel együtt kezelik, így egyéni teljesítményemről visszajelzést, szakvéleményt nem kapok.</p><p>Megértettem, hogy adataim kezelését illetően a BME az EU általános adatvédelmi rendelete (GDPR), a hatályos adatvédelmi törvény és a nemzetközi kutatás-etikai alapelvek szerint jár el. Eredményeim anonim módon kerülnek feldolgozásra, és a kutatás résztvevői az azonosításomra alkalmas adataimat harmadik félnek nem szolgáltatják ki. Engedélyezem a BME számára a jelen kutatásban felvett adataim feldolgozását és tárolását, beleértve azok későbbi kutatásokhoz való felhasználását is. Személyes adataim kezelésével kapcsolatban tájékoztatást kérhetek a kutatás résztvevőitől, az adatkezelés ellen tiltakozhatok, kérhetem személyes adataim helyesbítését, törlését vagy zárolását, valamint jogorvoslatért a Nemzeti Adatvédelmi és Információszabadság Hatósághoz fordulhatok.</p><p>Kijelentem, hogy a kutatásban való részvételem körülményeiről részletes tájékoztatást kaptam, és a feltételeket elfogadom.</p>","0","","","","","",""
"survey-text","4","233169","0.0-4.0","28488","","{""Q0"":""NN"",""Q1"":""nő"",""Q2"":""1992"",""Q3"":""17""}","","","","","",""
"html-button-response","5","264314","0.0-5.0","30644","<p>Ebben a játékban szavakat kell toldalékolni.</p> <p>Minden körben mutatunk majd egy példamondatot, amiben lesz egy szó.</p> <p>Alatta jön egy második mondat, ezt a mondatot neked kell majd befejezni, ugyanezzel a szóval.</p> <p>Nem biztos, hogy a szó eleve ismerős lesz számodra!</p> <p>Minden mondathoz adunk két lehetőséget, ezeket balra és jobbra látod majd.</p> <p>A játék kb. negyedóráig-húsz percig tart.</p>","0","","","","","",""
"html-button-response","6","291021","0.0-6.0","26206","<p>Nézzünk egy példát!</p> <p>A példamondat: ""János imád fláramolni, ezért sokat fláramlik. Mi ritkán...""</p><p>Neked ezt a mondatot kell befejezned: ""Ti ritkán...""</p><p>A lehetőségek pedig ezek:</p>","0","","","","","",""
"html-button-response","7","302501","0.0-7.0","10978","<p>Nagyon jó.</p><p>Ezt a játékot nem egyedül fogod játszani, hanem egy másik játékossal.</p><p>Mielőtt továbblépünk, összekapcsolunk titeket egymással.</p><p>Ez igénybe vehet néhány másodpercet, amihez szíves türelmed kérjük.</p>","0","","","","","",""
"html-button-response","8","308223","0.0-8.0","null","<p>Csatlakozás a másik játékoshoz...</p>","null","","","","","",""
"html-button-response","9","310725","0.0-9.0","null","<p> Sikeres kapcsolódás!</p>","null","","","","","",""
"html-button-response","10","321227","0.0-10.0","null","<p>A következőkben ketten játsszátok a szóválasztós játékot.</p><p>A feladatotok az lesz, hogy minden körben <b>ugyanazt</b> a szót válasszátok.</p><p>Minden ilyen egyező válaszért pontot kaptok.</p><p>Próbáld meg kitalálni, mit választ a másik játékos!</p><p>Bármikor választhatsz, a körnek akkor van vége, ha mindketten döntöttetek.</p><p>Sok sikert!</p>","null","","","","","",""
"html-button-response-esp","11","337725","0.0-11.0-0.0","15995","János imád privékedni, ezért sokat privékszik. Ők ritkán...","0","privékszenek","[""privékszenek"",""privékednek""]","privékednek","esp trial","6","false"
"html-button-response","12","341227","0.0-11.0-1.0","null","<p>A másik játékos ezt választotta: <b>privékednek</b>.</p><p>&#10060;</p><p>A válaszaitok <b>nem</b> egyeznek meg.</p>","null","","","","feedback trial","",""
"html-button-response-esp","13","348888","0.0-11.0-0.1","7158","János imád gihejezni, ezért sokat gihejlik. Mi ritkán...","1","gihejlünk","[""gihejezünk"",""gihejlünk""]","gihejezünk","esp trial","6","false"
"html-button-response","14","352390","0.0-11.0-1.1","null","<p>A másik játékos ezt választotta: <b>gihejezünk</b>.</p><p>&#10060;</p><p>A válaszaitok <b>nem</b> egyeznek meg.</p>","null","","","","feedback trial","",""
"html-button-response-esp","15","367964","0.0-11.0-0.2","15071","János imád spiharozni, ezért sokat spiharzik. Ti ritkán...","1","spiharoztok","[""spiharzotok"",""spiharoztok""]","spiharzotok","esp trial","6","false"
"html-button-response","16","371466","0.0-11.0-1.2","null","<p>A másik játékos ezt választotta: <b>spiharzotok</b>.</p><p>&#10060;</p><p>A válaszaitok <b>nem</b> egyeznek meg.</p>","null","","","","feedback trial","",""
"html-button-response-esp","17","382291","0.0-11.0-0.3","10323","János imád brivakozni, ezért sokat brivaklik. Ti ritkán...","1","brivaklotok","[""brivakoztok"",""brivaklotok""]","brivakoztok","esp trial","6","false"
"html-button-response","18","385794","0.0-11.0-1.3","null","<p>A másik játékos ezt választotta: <b>brivakoztok</b>.</p><p>&#10060;</p><p>A válaszaitok <b>nem</b> egyeznek meg.</p>","null","","","","feedback trial","",""
"html-button-response-esp","19","406460","0.0-11.0-0.4","20165","János imád sprozozni, ezért sokat sprozlik. Ők ritkán...","1","sprozlanak","[""sprozoznak"",""sprozlanak""]","sprozoznak","esp trial","6","false"
"html-button-response","20","409964","0.0-11.0-1.4","null","<p>A másik játékos ezt választotta: <b>sprozoznak</b>.</p><p>&#10060;</p><p>A válaszaitok <b>nem</b> egyeznek meg.</p>","null","","","","feedback trial","",""
"html-button-response-esp","21","424319","0.0-11.0-0.5","13852","János imád dabozni, ezért sokat dabzik. Ti ritkán...","1","dabzotok","[""daboztok"",""dabzotok""]","daboztok","esp trial","6","false"
"html-button-response","22","427822","0.0-11.0-1.5","null","<p>A másik játékos ezt választotta: <b>daboztok</b>.</p><p>&#10060;</p><p>A válaszaitok <b>nem</b> egyeznek meg.</p>","null","","","","feedback trial","",""
"html-button-response-esp","23","453706","0.0-11.0-0.6","25381","János imád prélemezni, ezért sokat prélemlik. Ők ritkán...","0","prélemlenek","[""prélemlenek"",""prélemeznek""]","prélemeznek","esp trial","6","false"
"html-button-response","24","457208","0.0-11.0-1.6","null","<p>A másik játékos ezt választotta: <b>prélemeznek</b>.</p><p>&#10060;</p><p>A válaszaitok <b>nem</b> egyeznek meg.</p>","null","","","","feedback trial","",""
"html-button-response-esp","25","467482","0.0-11.0-0.7","9771","János imád lűközni, ezért sokat lűklik. Ők ritkán...","1","lűköznek","[""lűklenek"",""lűköznek""]","lűklenek","esp trial","6","false"
"html-button-response","26","470984","0.0-11.0-1.7","null","<p>A másik játékos ezt választotta: <b>lűklenek</b>.</p><p>&#10060;</p><p>A válaszaitok <b>nem</b> egyeznek meg.</p>","null","","","","feedback trial","",""
"html-button-response-esp","27","483631","0.0-11.0-0.8","12145","János imád lájozni, ezért sokat lájzik. Ti ritkán...","0","lájzotok","[""lájzotok"",""lájoztok""]","lájoztok","esp trial","6","false"
"html-button-response","28","487135","0.0-11.0-1.8","null","<p>A másik játékos ezt választotta: <b>lájoztok</b>.</p><p>&#10060;</p><p>A válaszaitok <b>nem</b> egyeznek meg.</p>","null","","","","feedback trial","",""
"html-button-response-esp","29","505687","0.0-11.0-0.9","18049","János imád flemezni, ezért sokat flemlik. Mi ritkán...","1","flemezünk","[""flemlünk"",""flemezünk""]","flemlünk","esp trial","6","false"
"html-button-response","30","509188","0.0-11.0-1.9","null","<p>A másik játékos ezt választotta: <b>flemlünk</b>.</p><p>&#10060;</p><p>A válaszaitok <b>nem</b> egyeznek meg.</p>","null","","","","feedback trial","",""
"html-button-response-esp","31","517597","0.0-11.0-0.10","7908","János imád flűgözni, ezért sokat flűgzik. Mi ritkán...","0","flűgzünk","[""flűgzünk"",""flűgözünk""]","flűgözünk","esp trial","6","false"
"html-button-response","32","521100","0.0-11.0-1.10","null","<p>A másik játékos ezt választotta: <b>flűgözünk</b>.</p><p>&#10060;</p><p>A válaszaitok <b>nem</b> egyeznek meg.</p>","null","","","","feedback trial","",""
"html-button-response-esp","33","539383","0.0-11.0-0.11","17779","János imád sprűrözni, ezért sokat sprűrlik. Ők ritkán...","1","sprűröznek","[""sprűrlenek"",""sprűröznek""]","sprűröznek","esp trial","6","true"
"html-button-response","34","542886","0.0-11.0-1.11","null","<p>A másik játékos ezt választotta: <b>sprűröznek</b>.</p><p>&#x2705;</p><p>A te válaszod és a másik játékos válasza <b>megegyeznek</b>.</p>","null","","","","feedback trial","",""
"html-button-response-esp","35","564612","0.0-11.0-0.12","21224","János imád klehényezni, ezért sokat klehénylik. Ti ritkán...","0","klehényletek","[""klehényletek"",""klehényeztek""]","klehényeztek","esp trial","6","false"
"html-button-response","36","568115","0.0-11.0-1.12","null","<p>A másik játékos ezt választotta: <b>klehényeztek</b>.</p><p>&#10060;</p><p>A válaszaitok <b>nem</b> egyeznek meg.</p>","null","","","","feedback trial","",""
"html-button-response-esp","37","581889","0.0-11.0-0.13","13271","János imád drűrözni, ezért sokat drűrzik. Ők ritkán...","1","drűröznek","[""drűrzenek"",""drűröznek""]","drűrzenek","esp trial","6","false"
"html-button-response","38","585390","0.0-11.0-1.13","null","<p>A másik játékos ezt választotta: <b>drűrzenek</b>.</p><p>&#10060;</p><p>A válaszaitok <b>nem</b> egyeznek meg.</p>","null","","","","feedback trial","",""
"html-button-response-esp","39","594870","0.0-11.0-0.14","8976","János imád virozni, ezért sokat virzik. Ők ritkán...","0","virzanak","[""virzanak"",""viroznak""]","viroznak","esp trial","6","false"
"html-button-response","40","598373","0.0-11.0-1.14","null","<p>A másik játékos ezt választotta: <b>viroznak</b>.</p><p>&#10060;</p><p>A válaszaitok <b>nem</b> egyeznek meg.</p>","null","","","","feedback trial","",""
"html-button-response-esp","41","614341","0.0-11.0-0.15","15465","János imád spibegezni, ezért sokat spibeglik. Mi ritkán...","1","spibegezünk","[""spibeglünk"",""spibegezünk""]","spibegezünk","esp trial","6","true"
"html-button-response","42","617843","0.0-11.0-1.15","null","<p>A másik játékos ezt választotta: <b>spibegezünk</b>.</p><p>&#x2705;</p><p>A te válaszod és a másik játékos válasza <b>megegyeznek</b>.</p>","null","","","","feedback trial","",""
"html-button-response-esp","43","642504","0.0-11.0-0.16","24158","János imád fröjözni, ezért sokat fröjzik. Ti ritkán...","0","fröjzötök","[""fröjzötök"",""fröjöztök""]","fröjzötök","esp trial","6","true"
"html-button-response","44","646006","0.0-11.0-1.16","null","<p>A másik játékos ezt választotta: <b>fröjzötök</b>.</p><p>&#x2705;</p><p>A te válaszod és a másik játékos válasza <b>megegyeznek</b>.</p>","null","","","","feedback trial","",""
"html-button-response-esp","45","662268","0.0-11.0-0.17","15759","János imád trugokozni, ezért sokat trugoklik. Ők ritkán...","0","trugoklanak","[""trugoklanak"",""trugokoznak""]","trugokoznak","esp trial","6","false"
"html-button-response","46","665772","0.0-11.0-1.17","null","<p>A másik játékos ezt választotta: <b>trugokoznak</b>.</p><p>&#10060;</p><p>A válaszaitok <b>nem</b> egyeznek meg.</p>","null","","","","feedback trial","",""
"html-button-response-esp","47","689265","0.0-11.0-0.18","22991","János imád föködni, ezért sokat fökszik. Ők ritkán...","1","fökszenek","[""föködnek"",""fökszenek""]","föködnek","esp trial","6","false"
"html-button-response","48","692768","0.0-11.0-1.18","null","<p>A másik játékos ezt választotta: <b>föködnek</b>.</p><p>&#10060;</p><p>A válaszaitok <b>nem</b> egyeznek meg.</p>","null","","","","feedback trial","",""
"html-button-response-esp","49","705927","0.0-11.0-0.19","12655","János imád köszözni, ezért sokat köszlik. Ti ritkán...","1","köszlötök","[""köszöztök"",""köszlötök""]","köszlötök","esp trial","6","true"
"html-button-response","50","709429","0.0-11.0-1.19","null","<p>A másik játékos ezt választotta: <b>köszlötök</b>.</p><p>&#x2705;</p><p>A te válaszod és a másik játékos válasza <b>megegyeznek</b>.</p>","null","","","","feedback trial","",""
"html-button-response-esp","51","721610","0.0-11.0-0.20","11680","János imád frálasozni, ezért sokat frálaslik. Ők ritkán...","0","frálasoznak","[""frálasoznak"",""frálaslanak""]","frálasoznak","esp trial","6","true"
"html-button-response","52","725114","0.0-11.0-1.20","null","<p>A másik játékos ezt választotta: <b>frálasoznak</b>.</p><p>&#x2705;</p><p>A te válaszod és a másik játékos válasza <b>megegyeznek</b>.</p>","null","","","","feedback trial","",""
"html-button-response-esp","53","749283","0.0-11.0-0.21","23667","János imád mülőrözni, ezért sokat mülőrzik. Mi ritkán...","1","mülőrzünk","[""mülőrözünk"",""mülőrzünk""]","mülőrözünk","esp trial","6","false"
"html-button-response","54","752786","0.0-11.0-1.21","null","<p>A másik játékos ezt választotta: <b>mülőrözünk</b>.</p><p>&#10060;</p><p>A válaszaitok <b>nem</b> egyeznek meg.</p>","null","","","","feedback trial","",""
"html-button-response-esp","55","763426","0.0-11.0-0.22","10139","János imád csubozni, ezért sokat csubzik. Mi ritkán...","1","csubozunk","[""csubzunk"",""csubozunk""]","csubozunk","esp trial","6","true"
"html-button-response","56","766930","0.0-11.0-1.22","null","<p>A másik játékos ezt választotta: <b>csubozunk</b>.</p><p>&#x2705;</p><p>A te válaszod és a másik játékos válasza <b>megegyeznek</b>.</p>","null","","","","feedback trial","",""
"html-button-response-esp","57","777230","0.0-11.0-0.23","9799","János imád dujozni, ezért sokat dujzik. Ők ritkán...","0","dujoznak","[""dujoznak"",""dujzanak""]","dujoznak","esp trial","6","true"
"html-button-response","58","780734","0.0-11.0-1.23","null","<p>A másik játékos ezt választotta: <b>dujoznak</b>.</p><p>&#x2705;</p><p>A te válaszod és a másik játékos válasza <b>megegyeznek</b>.</p>","null","","","","feedback trial","",""
"html-button-response-esp","59","792772","0.0-11.0-0.24","11535","János imád molodni, ezért sokat molszik. Ti ritkán...","1","molszotok","[""molodtok"",""molszotok""]","molodtok","esp trial","6","false"
"html-button-response","60","796274","0.0-11.0-1.24","null","<p>A másik játékos ezt választotta: <b>molodtok</b>.</p><p>&#10060;</p><p>A válaszaitok <b>nem</b> egyeznek meg.</p>","null","","","","feedback trial","",""
"html-button-response-esp","61","817510","0.0-11.0-0.25","20734","János imád trivakodni, ezért sokat trivakszik. Mi ritkán...","0","trivakodunk","[""trivakodunk"",""trivakszunk""]","trivakodunk","esp trial","6","true"
"html-button-response","62","821014","0.0-11.0-1.25","null","<p>A másik játékos ezt választotta: <b>trivakodunk</b>.</p><p>&#x2705;</p><p>A te válaszod és a másik játékos válasza <b>megegyeznek</b>.</p>","null","","","","feedback trial","",""
"html-button-response-esp","63","832991","0.0-11.0-0.26","11477","János imád dilakozni, ezért sokat dilaklik. Ti ritkán...","1","dilakoztok","[""dilaklotok"",""dilakoztok""]","dilaklotok","esp trial","6","false"
"html-button-response","64","836494","0.0-11.0-1.26","null","<p>A másik játékos ezt választotta: <b>dilaklotok</b>.</p><p>&#10060;</p><p>A válaszaitok <b>nem</b> egyeznek meg.</p>","null","","","","feedback trial","",""
"html-button-response-esp","65","848510","0.0-11.0-0.27","11514","János imád brülösözni, ezért sokat brülöslik. Mi ritkán...","1","brülösözünk","[""brülöslünk"",""brülösözünk""]","brülösözünk","esp trial","6","true"
"html-button-response","66","852012","0.0-11.0-1.27","null","<p>A másik játékos ezt választotta: <b>brülösözünk</b>.</p><p>&#x2705;</p><p>A te válaszod és a másik játékos válasza <b>megegyeznek</b>.</p>","null","","","","feedback trial","",""
"html-button-response-esp","67","879272","0.0-11.0-0.28","26756","János imád spügözni, ezért sokat spügzik. Mi ritkán...","1","spügözünk","[""spügzünk"",""spügözünk""]","spügözünk","esp trial","6","true"
"html-button-response","68","882774","0.0-11.0-1.28","null","<p>A másik játékos ezt választotta: <b>spügözünk</b>.</p><p>&#x2705;</p><p>A te válaszod és a másik játékos válasza <b>megegyeznek</b>.</p>","null","","","","feedback trial","",""
"html-button-response-esp","69","895228","0.0-11.0-0.29","11952","János imád dárakodni, ezért sokat dárakszik. Mi ritkán...","0","dárakodunk","[""dárakodunk"",""dárakszunk""]","dárakodunk","esp trial","6","true"
"html-button-response","70","898732","0.0-11.0-1.29","null","<p>A másik játékos ezt választotta: <b>dárakodunk</b>.</p><p>&#x2705;</p><p>A te válaszod és a másik játékos válasza <b>megegyeznek</b>.</p>","null","","","","feedback trial","",""
"html-button-response-esp","71","915354","0.0-11.0-0.30","16120","János imád püzözni, ezért sokat püzlik. Ti ritkán...","1","püzöztök","[""püzlötök"",""püzöztök""]","püzöztök","esp trial","6","true"
"html-button-response","72","918857","0.0-11.0-1.30","null","<p>A másik játékos ezt választotta: <b>püzöztök</b>.</p><p>&#x2705;</p><p>A te válaszod és a másik játékos válasza <b>megegyeznek</b>.</p>","null","","","","feedback trial","",""
"html-button-response-esp","73","939678","0.0-11.0-0.31","20318","János imád dirozni, ezért sokat dirlik. Ti ritkán...","1","diroztok","[""dirlotok"",""diroztok""]","diroztok","esp trial","6","true"
"html-button-response","74","943181","0.0-11.0-1.31","null","<p>A másik játékos ezt választotta: <b>diroztok</b>.</p><p>&#x2705;</p><p>A te válaszod és a másik játékos válasza <b>megegyeznek</b>.</p>","null","","","","feedback trial","",""
"html-button-response-esp","75","956379","0.0-11.0-0.32","12697","János imád flüröközni, ezért sokat flüröklik. Ti ritkán...","1","flürököztök","[""flüröklötök"",""flürököztök""]","flürököztök","esp trial","6","true"
"html-button-response","76","959881","0.0-11.0-1.32","null","<p>A másik játékos ezt választotta: <b>flürököztök</b>.</p><p>&#x2705;</p><p>A te válaszod és a másik játékos válasza <b>megegyeznek</b>.</p>","null","","","","feedback trial","",""
"html-button-response-esp","77","968712","0.0-11.0-0.33","8327","János imád posozni, ezért sokat poslik. Ti ritkán...","0","posoztok","[""posoztok"",""poslotok""]","posoztok","esp trial","6","true"
"html-button-response","78","972214","0.0-11.0-1.33","null","<p>A másik játékos ezt választotta: <b>posoztok</b>.</p><p>&#x2705;</p><p>A te válaszod és a másik játékos válasza <b>megegyeznek</b>.</p>","null","","","","feedback trial","",""
"html-button-response-esp","79","980429","0.0-11.0-0.34","7714","János imád branyozni, ezért sokat branylik. Ők ritkán...","1","branyoznak","[""branylanak"",""branyoznak""]","branyoznak","esp trial","6","true"
"html-button-response","80","983934","0.0-11.0-1.34","null","<p>A másik játékos ezt választotta: <b>branyoznak</b>.</p><p>&#x2705;</p><p>A te válaszod és a másik játékos válasza <b>megegyeznek</b>.</p>","null","","","","feedback trial","",""
"html-button-response-esp","81","992384","0.0-11.0-0.35","7947","János imád bratározni, ezért sokat bratárzik. Ők ritkán...","0","bratároznak","[""bratároznak"",""bratárzanak""]","bratárzanak","esp trial","6","false"
"html-button-response","82","995887","0.0-11.0-1.35","null","<p>A másik játékos ezt választotta: <b>bratárzanak</b>.</p><p>&#10060;</p><p>A válaszaitok <b>nem</b> egyeznek meg.</p>","null","","","","feedback trial","",""
"html-button-response-esp","83","1007691","0.0-11.0-0.36","11303","János imád nyivágozni, ezért sokat nyivágzik. Mi ritkán...","0","nyivágozunk","[""nyivágozunk"",""nyivágzunk""]","nyivágozunk","esp trial","6","true"
"html-button-response","84","1011201","0.0-11.0-1.36","null","<p>A másik játékos ezt választotta: <b>nyivágozunk</b>.</p><p>&#x2705;</p><p>A te válaszod és a másik játékos válasza <b>megegyeznek</b>.</p>","null","","","","feedback trial","",""
"html-button-response-esp","85","1021731","0.0-11.0-0.37","10010","János imád flöközni, ezért sokat flöklik. Ti ritkán...","0","flököztök","[""flököztök"",""flöklötök""]","flököztök","esp trial","6","true"
"html-button-response","86","1025238","0.0-11.0-1.37","null","<p>A másik játékos ezt választotta: <b>flököztök</b>.</p><p>&#x2705;</p><p>A te válaszod és a másik játékos válasza <b>megegyeznek</b>.</p>","null","","","","feedback trial","",""
"html-button-response-esp","87","1039172","0.0-11.0-0.38","13423","János imád frálapodni, ezért sokat frálapszik. Ti ritkán...","0","frálapodtok","[""frálapodtok"",""frálapszotok""]","frálapodtok","esp trial","6","true"
"html-button-response","88","1042675","0.0-11.0-1.38","null","<p>A másik játékos ezt választotta: <b>frálapodtok</b>.</p><p>&#x2705;</p><p>A te válaszod és a másik játékos válasza <b>megegyeznek</b>.</p>","null","","","","feedback trial","",""
"html-button-response-esp","89","1052919","0.0-11.0-0.39","9739","János imád csibagozni, ezért sokat csibagzik. Ti ritkán...","1","csibagoztok","[""csibagzotok"",""csibagoztok""]","csibagzotok","esp trial","6","false"
"html-button-response","90","1056421","0.0-11.0-1.39","null","<p>A másik játékos ezt választotta: <b>csibagzotok</b>.</p><p>&#10060;</p><p>A válaszaitok <b>nem</b> egyeznek meg.</p>","null","","","","feedback trial","",""
"html-button-response-esp","91","1073685","0.0-11.0-0.40","16760","János imád kűdözni, ezért sokat kűdlik. Ők ritkán...","1","kűdlenek","[""kűdöznek"",""kűdlenek""]","kűdöznek","esp trial","6","false"
"html-button-response","92","1077188","0.0-11.0-1.40","null","<p>A másik játékos ezt választotta: <b>kűdöznek</b>.</p><p>&#10060;</p><p>A válaszaitok <b>nem</b> egyeznek meg.</p>","null","","","","feedback trial","",""
"html-button-response-esp","93","1085618","0.0-11.0-0.41","7927","János imád sprudozni, ezért sokat sprudlik. Mi ritkán...","0","sprudozunk","[""sprudozunk"",""sprudlunk""]","sprudlunk","esp trial","6","false"
"html-button-response","94","1089121","0.0-11.0-1.41","null","<p>A másik játékos ezt választotta: <b>sprudlunk</b>.</p><p>&#10060;</p><p>A válaszaitok <b>nem</b> egyeznek meg.</p>","null","","","","feedback trial","",""
"html-button-response-esp","95","1106005","0.0-11.0-0.42","16382","János imád nyürözni, ezért sokat nyürzik. Ők ritkán...","1","nyürzenek","[""nyüröznek"",""nyürzenek""]","nyüröznek","esp trial","6","false"
"html-button-response","96","1109509","0.0-11.0-1.42","null","<p>A másik játékos ezt választotta: <b>nyüröznek</b>.</p><p>&#10060;</p><p>A válaszaitok <b>nem</b> egyeznek meg.</p>","null","","","","feedback trial","",""
"html-button-response-esp","97","1117864","0.0-11.0-0.43","7852","János imád trugozni, ezért sokat trugzik. Ők ritkán...","0","trugoznak","[""trugoznak"",""trugzanak""]","trugzanak","esp trial","6","false"
"html-button-response","98","1121368","0.0-11.0-1.43","null","<p>A másik játékos ezt választotta: <b>trugzanak</b>.</p><p>&#10060;</p><p>A válaszaitok <b>nem</b> egyeznek meg.</p>","null","","","","feedback trial","",""
"html-button-response-esp","99","1139633","0.0-11.0-0.44","17761","János imád gyihegezni, ezért sokat gyihegzik. Ti ritkán...","1","gyihegeztek","[""gyihegzetek"",""gyihegeztek""]","gyihegzetek","esp trial","6","false"
"html-button-response","100","1143135","0.0-11.0-1.44","null","<p>A másik játékos ezt választotta: <b>gyihegzetek</b>.</p><p>&#10060;</p><p>A válaszaitok <b>nem</b> egyeznek meg.</p>","null","","","","feedback trial","",""
"html-button-response-esp","101","1155976","0.0-11.0-0.45","12339","János imád pilégedni, ezért sokat pilégszik. Ők ritkán...","1","pilégszenek","[""pilégednek"",""pilégszenek""]","pilégednek","esp trial","6","false"
"html-button-response","102","1159480","0.0-11.0-1.45","null","<p>A másik játékos ezt választotta: <b>pilégednek</b>.</p><p>&#10060;</p><p>A válaszaitok <b>nem</b> egyeznek meg.</p>","null","","","","feedback trial","",""
"html-button-response-esp","103","1167180","0.0-11.0-0.46","7198","János imád brözözni, ezért sokat brözlik. Ti ritkán...","0","brözöztök","[""brözöztök"",""brözlötök""]","brözöztök","esp trial","6","true"
"html-button-response","104","1170683","0.0-11.0-1.46","null","<p>A másik játékos ezt választotta: <b>brözöztök</b>.</p><p>&#x2705;</p><p>A te válaszod és a másik játékos válasza <b>megegyeznek</b>.</p>","null","","","","feedback trial","",""
"html-button-response-esp","105","1185068","0.0-11.0-0.47","13882","János imád drilarozni, ezért sokat drilarzik. Mi ritkán...","0","drilarozunk","[""drilarozunk"",""drilarzunk""]","drilarzunk","esp trial","6","false"
"html-button-response","106","1188571","0.0-11.0-1.47","null","<p>A másik játékos ezt választotta: <b>drilarzunk</b>.</p><p>&#10060;</p><p>A válaszaitok <b>nem</b> egyeznek meg.</p>","null","","","","feedback trial","",""
"html-button-response-esp","107","1224320","0.0-11.0-0.48","35245","János imád pragányozni, ezért sokat pragánylik. Ti ritkán...","1","pragányoztok","[""pragánylotok"",""pragányoztok""]","pragányoztok","esp trial","6","true"
"html-button-response","108","1227824","0.0-11.0-1.48","null","<p>A másik játékos ezt választotta: <b>pragányoztok</b>.</p><p>&#x2705;</p><p>A te válaszod és a másik játékos válasza <b>megegyeznek</b>.</p>","null","","","","feedback trial","",""
"html-button-response-esp","109","1268024","0.0-11.0-0.49","39697","János imád mágamozni, ezért sokat mágamlik. Mi ritkán...","1","mágamozunk","[""mágamlunk"",""mágamozunk""]","mágamozunk","esp trial","6","true"
"html-button-response","110","1271527","0.0-11.0-1.49","null","<p>A másik játékos ezt választotta: <b>mágamozunk</b>.</p><p>&#x2705;</p><p>A te válaszod és a másik játékos válasza <b>megegyeznek</b>.</p>","null","","","","feedback trial","",""
"html-button-response-esp","111","1303460","0.0-11.0-0.50","31430","János imád frakozni, ezért sokat fraklik. Mi ritkán...","0","frakozunk","[""frakozunk"",""fraklunk""]","frakozunk","esp trial","6","true"
"html-button-response","112","1306963","0.0-11.0-1.50","null","<p>A másik játékos ezt választotta: <b>frakozunk</b>.</p><p>&#x2705;</p><p>A te válaszod és a másik játékos válasza <b>megegyeznek</b>.</p>","null","","","","feedback trial","",""
"html-button-response-esp","113","1324356","0.0-11.0-0.51","16892","János imád spirágozni, ezért sokat spiráglik. Ti ritkán...","0","spirágoztok","[""spirágoztok"",""spiráglotok""]","spiráglotok","esp trial","6","false"
"html-button-response","114","1327858","0.0-11.0-1.51","null","<p>A másik játékos ezt választotta: <b>spiráglotok</b>.</p><p>&#10060;</p><p>A válaszaitok <b>nem</b> egyeznek meg.</p>","null","","","","feedback trial","",""
"html-button-response-esp","115","1339554","0.0-11.0-0.52","11191","János imád prögözni, ezért sokat prögzik. Ti ritkán...","0","prögöztök","[""prögöztök"",""prögzötök""]","prögzötök","esp trial","6","false"
"html-button-response","116","1343056","0.0-11.0-1.52","null","<p>A másik játékos ezt választotta: <b>prögzötök</b>.</p><p>&#10060;</p><p>A válaszaitok <b>nem</b> egyeznek meg.</p>","null","","","","feedback trial","",""
"html-button-response-esp","117","1350278","0.0-11.0-0.53","6720","János imád trikozni, ezért sokat triklik. Ti ritkán...","1","triklotok","[""trikoztok"",""triklotok""]","trikoztok","esp trial","6","false"
"html-button-response","118","1353781","0.0-11.0-1.53","null","<p>A másik játékos ezt választotta: <b>trikoztok</b>.</p><p>&#10060;</p><p>A válaszaitok <b>nem</b> egyeznek meg.</p>","null","","","","feedback trial","",""
"html-button-response","119","1366749","0.0-12.0","12465","<p>A közös játék most véget ért.</p><p>Mielőtt eláruljuk a végső pontszámodat, arra kérlek, játszd a szóválasztós játékot néhány percig egyedül is.</p><p>A feladatod ugyanaz lesz, választani két lehetőség közül.</p><p>Most viszont egyedül kell döntened, hogy te melyiket választanád.</p>","0","","","","","",""
"html-button-response-clever","120","1381786","0.0-13.0-0.0","14535","János imád flézezni, ezért sokat flézlik. Ti ritkán...","1","flézletek","[""flézeztek"",""flézletek""]","","posttest trial","8",""
"html-button-response-clever","121","1399434","0.0-13.0-0.1","17146","János imád tágarozni, ezért sokat tágarzik. Mi ritkán...","0","tágarozunk","[""tágarozunk"",""tágarzunk""]","","posttest trial","8",""
"html-button-response-clever","122","1412119","0.0-13.0-0.2","12182","János imád míjozni, ezért sokat míjzik. Mi ritkán...","1","míjzunk","[""míjozunk"",""míjzunk""]","","posttest trial","8",""
"html-button-response-clever","123","1417810","0.0-13.0-0.3","5189","János imád pörözni, ezért sokat pörzik. Ti ritkán...","0","pöröztök","[""pöröztök"",""pörzötök""]","","posttest trial","8",""
"html-button-response-clever","124","1424814","0.0-13.0-0.4","6501","János imád tibarozni, ezért sokat tibarzik. Ők ritkán...","0","tibaroznak","[""tibaroznak"",""tibarzanak""]","","posttest trial","8",""
"html-button-response-clever","125","1432228","0.0-13.0-0.5","6912","János imád prazozni, ezért sokat prazlik. Mi ritkán...","1","prazozunk","[""prazlunk"",""prazozunk""]","","posttest trial","8",""
"html-button-response-clever","126","1442988","0.0-13.0-0.6","10258","János imád drivegezni, ezért sokat drivegzik. Ti ritkán...","1","drivegeztek","[""drivegzetek"",""drivegeztek""]","","posttest trial","8",""
"html-button-response-clever","127","1449954","0.0-13.0-0.7","6464","János imád spibamozni, ezért sokat spibamlik. Ők ritkán...","0","spibamlanak","[""spibamlanak"",""spibamoznak""]","","posttest trial","8",""
"html-button-response-clever","128","1456677","0.0-13.0-0.8","6222","János imád flubokozni, ezért sokat fluboklik. Ti ritkán...","0","flubokoztok","[""flubokoztok"",""fluboklotok""]","","posttest trial","8",""
"html-button-response-clever","129","1463097","0.0-13.0-0.9","5918","János imád trűnyözni, ezért sokat trűnylik. Ők ritkán...","0","trűnylenek","[""trűnylenek"",""trűnyöznek""]","","posttest trial","8",""
"html-button-response-clever","130","1470834","0.0-13.0-0.10","7236","János imád dirányozni, ezért sokat diránylik. Ők ritkán...","0","diránylanak","[""diránylanak"",""dirányoznak""]","","posttest trial","8",""
"html-button-response-clever","131","1482165","0.0-13.0-0.11","10829","János imád spalározni, ezért sokat spalárzik. Ők ritkán...","1","spalároznak","[""spalárzanak"",""spalároznak""]","","posttest trial","8",""
"html-button-response-clever","132","1492488","0.0-13.0-0.12","9820","János imád küsözni, ezért sokat küslik. Mi ritkán...","0","küslünk","[""küslünk"",""küsözünk""]","","posttest trial","8",""
"html-button-response-clever","133","1503232","0.0-13.0-0.13","10242","János imád spöközni, ezért sokat spöklik. Mi ritkán...","1","spöklünk","[""spöközünk"",""spöklünk""]","","posttest trial","8",""
"html-button-response-clever","134","1527044","0.0-13.0-0.14","23309","János imád tribejezni, ezért sokat tribejlik. Ti ritkán...","1","tribejletek","[""tribejeztek"",""tribejletek""]","","posttest trial","8",""
"html-button-response-clever","135","1536958","0.0-13.0-0.15","9413","János imád pekedni, ezért sokat pekszik. Mi ritkán...","1","pekszünk","[""pekedünk"",""pekszünk""]","","posttest trial","8",""
"html-button-response-clever","136","1545254","0.0-13.0-0.16","7794","János imád filányozni, ezért sokat filánylik. Mi ritkán...","1","filányozunk","[""filánylunk"",""filányozunk""]","","posttest trial","8",""
"html-button-response-clever","137","1558620","0.0-13.0-0.17","12865","János imád hákodni, ezért sokat hákszik. Ők ritkán...","0","hákszanak","[""hákszanak"",""hákodnak""]","","posttest trial","8",""
"html-button-response-clever","138","1569401","0.0-13.0-0.18","10279","János imád klarágozni, ezért sokat klarágzik. Ti ritkán...","1","klarágoztok","[""klarágzotok"",""klarágoztok""]","","posttest trial","8",""
"html-button-response-clever","139","1594901","0.0-13.0-0.19","24998","János imád nágapodni, ezért sokat nágapszik. Ők ritkán...","0","nágapodnak","[""nágapodnak"",""nágapszanak""]","","posttest trial","8",""
"html-button-response-clever","140","1623822","0.0-13.0-0.20","28419","János imád frihegezni, ezért sokat friheglik. Mi ritkán...","0","friheglünk","[""friheglünk"",""frihegezünk""]","","posttest trial","8",""
"html-button-response-clever","141","1660963","0.0-13.0-0.21","36639","János imád sprigozni, ezért sokat sprigzik. Ti ritkán...","1","sprigzotok","[""sprigoztok"",""sprigzotok""]","","posttest trial","8",""
"html-button-response-clever","142","1671345","0.0-13.0-0.22","9880","János imád brálamozni, ezért sokat brálamlik. Ők ritkán...","0","brálamlanak","[""brálamlanak"",""brálamoznak""]","","posttest trial","8",""
"html-button-response-clever","143","1685596","0.0-13.0-0.23","13749","János imád gyivepedni, ezért sokat gyivepszik. Ők ritkán...","1","gyivepszenek","[""gyivepednek"",""gyivepszenek""]","","posttest trial","8",""
"html-button-response-clever","144","1692815","0.0-13.0-0.24","6717","János imád mísozni, ezért sokat míslik. Mi ritkán...","0","mísozunk","[""mísozunk"",""míslunk""]","","posttest trial","8",""
"html-button-response-clever","145","1703754","0.0-13.0-0.25","10437","János imád brivepedni, ezért sokat brivepszik. Mi ritkán...","0","brivepedünk","[""brivepedünk"",""brivepszünk""]","","posttest trial","8",""
"html-button-response-clever","146","1712460","0.0-13.0-0.26","8204","János imád mihágozni, ezért sokat mihágzik. Ti ritkán...","1","mihágoztok","[""mihágzotok"",""mihágoztok""]","","posttest trial","8",""
"html-button-response-clever","147","1723830","0.0-13.0-0.27","10868","János imád lumozni, ezért sokat lumlik. Ti ritkán...","0","lumoztok","[""lumoztok"",""lumlotok""]","","posttest trial","8",""
"html-button-response-clever","148","1735545","0.0-13.0-0.28","11214","János imád kluzozni, ezért sokat kluzlik. Ti ritkán...","0","kluzoztok","[""kluzoztok"",""kluzlotok""]","","posttest trial","8",""
"html-button-response-clever","149","1746542","0.0-13.0-0.29","10493","János imád lírozni, ezért sokat lírlik. Ők ritkán...","1","lírlanak","[""líroznak"",""lírlanak""]","","posttest trial","8",""
"html-button-response-clever","150","1755143","0.0-13.0-0.30","8099","János imád bregezni, ezért sokat bregzik. Mi ritkán...","1","bregzünk","[""bregezünk"",""bregzünk""]","","posttest trial","8",""
"html-button-response-clever","151","1763321","0.0-13.0-0.31","7678","János imád sztrajozni, ezért sokat sztrajlik. Ők ritkán...","1","sztrajoznak","[""sztrajlanak"",""sztrajoznak""]","","posttest trial","8",""
"html-button-response-clever","152","1771786","0.0-13.0-0.32","7963","János imád trírozni, ezért sokat trírzik. Mi ritkán...","0","trírozunk","[""trírozunk"",""trírzunk""]","","posttest trial","8",""
"html-button-response-clever","153","1780804","0.0-13.0-0.33","8517","János imád galározni, ezért sokat galárzik. Ők ritkán...","1","galároznak","[""galárzanak"",""galároznak""]","","posttest trial","8",""
"html-button-response-clever","154","1789328","0.0-13.0-0.34","8022","János imád livényezni, ezért sokat livénylik. Mi ritkán...","0","livénylünk","[""livénylünk"",""livényezünk""]","","posttest trial","8",""
"html-button-response-clever","155","1803769","0.0-13.0-0.35","13937","János imád gibemezni, ezért sokat gibemlik. Mi ritkán...","1","gibemezünk","[""gibemlünk"",""gibemezünk""]","","posttest trial","8",""
"html-button-response-clever","156","1814622","0.0-13.0-0.36","10352","János imád drojozni, ezért sokat drojzik. Mi ritkán...","1","drojozunk","[""drojzunk"",""drojozunk""]","","posttest trial","8",""
"html-button-response-clever","157","1828728","0.0-13.0-0.37","13604","János imád gatágozni, ezért sokat gatáglik. Mi ritkán...","1","gatágozunk","[""gatáglunk"",""gatágozunk""]","","posttest trial","8",""
"html-button-response-clever","158","1841821","0.0-13.0-0.38","12591","János imád frésezni, ezért sokat fréslik. Mi ritkán...","1","fréslünk","[""frésezünk"",""fréslünk""]","","posttest trial","8",""
"html-button-response-clever","159","1851954","0.0-13.0-0.39","9630","János imád brározni, ezért sokat brárlik. Ők ritkán...","0","brároznak","[""brároznak"",""brárlanak""]","","posttest trial","8",""
"html-button-response-clever","160","1861673","0.0-13.0-0.40","9216","János imád sprimozni, ezért sokat sprimlik. Mi ritkán...","1","sprimozunk","[""sprimlunk"",""sprimozunk""]","","posttest trial","8",""
"html-button-response-clever","161","1869946","0.0-13.0-0.41","7771","János imád riványozni, ezért sokat riványlik. Ti ritkán...","1","riványoztok","[""riványlotok"",""riványoztok""]","","posttest trial","8",""
"html-button-response-clever","162","1880508","0.0-13.0-0.42","10061","János imád flivegezni, ezért sokat flivegzik. Ők ritkán...","0","flivegeznek","[""flivegeznek"",""flivegzenek""]","","posttest trial","8",""
"html-button-response-clever","163","1889474","0.0-13.0-0.43","8464","János imád brivágozni, ezért sokat briváglik. Ők ritkán...","0","briváglanak","[""briváglanak"",""brivágoznak""]","","posttest trial","8",""
"html-button-response-clever","164","1908305","0.0-13.0-0.44","18329","János imád sponyozni, ezért sokat sponylik. Ők ritkán...","0","sponyoznak","[""sponyoznak"",""sponylanak""]","","posttest trial","8",""
"html-button-response-clever","165","1974190","0.0-13.0-0.45","65381","János imád frivamozni, ezért sokat frivamlik. Mi ritkán...","0","frivamozunk","[""frivamozunk"",""frivamlunk""]","","posttest trial","8",""
"html-button-response-clever","166","1980907","0.0-13.0-0.46","6214","János imád brüszözni, ezért sokat brüszlik. Ti ritkán...","1","brüszöztök","[""brüszlötök"",""brüszöztök""]","","posttest trial","8",""
"html-button-response-clever","167","1986611","0.0-13.0-0.47","5202","János imád prilepedni, ezért sokat prilepszik. Mi ritkán...","0","prilepszünk","[""prilepszünk"",""prilepedünk""]","","posttest trial","8",""
"html-button-response-clever","168","1995386","0.0-13.0-0.48","8273","János imád brilegezni, ezért sokat brilegzik. Mi ritkán...","0","brilegezünk","[""brilegezünk"",""brilegzünk""]","","posttest trial","8",""
"html-button-response-clever","169","2002933","0.0-13.0-0.49","7045","János imád fröjözni, ezért sokat fröjlik. Mi ritkán...","0","fröjözünk","[""fröjözünk"",""fröjlünk""]","","posttest trial","8",""
"html-button-response-clever","170","2007163","0.0-13.0-0.50","3729","János imád vobozni, ezért sokat vobzik. Ti ritkán...","0","voboztok","[""voboztok"",""vobzotok""]","","posttest trial","8",""
"html-button-response-clever","171","2016615","0.0-13.0-0.51","8950","János imád sztritozni, ezért sokat sztritlik. Ők ritkán...","1","sztritlanak","[""sztritoznak"",""sztritlanak""]","","posttest trial","8",""
"html-button-response-clever","172","2032013","0.0-13.0-0.52","14895","János imád pehégedni, ezért sokat pehégszik. Ti ritkán...","0","pehégedtek","[""pehégedtek"",""pehégszetek""]","","posttest trial","8",""
"html-button-response-clever","173","2039302","0.0-13.0-0.53","6787","János imád tűgözni, ezért sokat tűgzik. Ti ritkán...","0","tűgöztök","[""tűgöztök"",""tűgzötök""]","","posttest trial","8",""
"html-button-response","174","2050467","0.0-14.0","10663","<p> Vége a játéknak. A teljes pontszámod 23/54.</p><p> Szép munka! &#128526;&#128526;&#128526;</p><p>A Befejezés gomb megnyomása után bezárhatod a böngészőablakot.</p>","0","","","","","",""
"html-keyboard-response","175","2055971","0.0-15.0","null","<div class=""message"">
         <p>Egy kis türelmet kérünk, amíg elmentjük az adatokat...</p>
         </div>","null","","","","","",""
