"trial_type","trial_index","time_elapsed","internal_node_id","rt","stimulus","response","response_string","choices","esp_response","trial_kind","list_number","esp_match"
"pavlovia","0","754","0.0-0.0","","","","","","","","",""
"html-button-response","1","3128","0.0-1.0","1866","<p>Kedves Résztvevő! A Budapesti Műszaki és Gazdaságtudományi Egyetem Kognitív Tudományi Tanszékének kutatásában való részvételed kérjük. A kutatásban azt vizsgáljuk, hogy a magyar anyanyelvűek hogyan használnak bizonyos szóalakokat, és hogy milyen képük van arról, hogy mások hogyan használják, hogyan képzik a szavakat. Ez hozzásegít bennünket ahhoz, hogy jobban megértsük, hogyan dolgozza fel és tárolja a nyelvet az emberi agy, és hogyan működnek, hogyan változnak egy adott közösség nyelvi konvenciói.</p><p>A vizsgálat egy rövid számítógépes feladatból fog állni. A kutatásban való részvétel önkéntes, a részvételi szándék bármikor visszavonható. A résztvevők eredményeit név nélkül kezeljük, így nem beazonosíthatók az adatok feldolgozása során. Minden személyes adatot az EU általános adatvédelmi rendeletének (GDPR) megfelelően kezelünk és legfeljebb öt éven belül megsemmisítünk. A vizsgálat jellemzően húsz percet vesz igénybe.</p><p>Kutatásvezető:</p><p>Dr. Rácz Péter, tudományos munkatárs, BME KTT</p><p>e-mail: racz.peter.marton@ttk.bme.hu</p>","0","","","","","",""
"html-button-response","2","5314","0.0-2.0","1669","<p>A kísérletben szavakat fogsz látni. Ezek között lesznek olyanok, amelyeket ismersz, de előfordulhatnak olyanok is, amelyeket nem ismersz, sőt, vannak köztük kitalált szavak is. Minden szónál látni fogsz toldalékolt alakokat. A te feladatod az lesz, hogy minden szóhoz kiválaszd azt a toldalékolt alakot, amely a te számodra ismerősebben, természetesebben hangzik. Rossz válaszok nincsenek, mert van olyan, hogy különböző embereknek más és más szó tűnik jobb választásnak. A választ úgy tudod majd kiválasztani, ha rákattintasz.</p><p>Ebben a szóválasztós játékban egy másik játékossal együtt veszel majd részt. A másik játékos is minden esetben azok közül a lehetőségek közül válogathat, mint te. Kettőtök feladata az, hogy ugyanazt a lehetőséget válasszátok minden esetben. Ahhoz, hogy ez sikerüljön, neked figyelned kell arra, hogy a másik játékos milyen válaszokat ad, és ennek alapján meg kell tippelned, hogyan választ legközelebb. Ha eltalálod, akkor pontot kapsz.</p>","0","","","","","",""
"html-button-response","3","7643","0.0-3.0","1813","<p>Kérjük, olvasd el az alábbi nyilatkozatot, és amennyiben egyetértesz vele, nyomj a Beleegyezés gombra!</p><p>Kijelentem, hogy magyar anyanyelvű személyként önként veszek részt a BME KTT kísérletében. A kutatás céljával és folyamatával kapcsolatban elegendő tájékoztatást kaptam, lehetőségem volt kérdések feltételére, és esetleges kérdéseimre megfelelő válaszokat kaptam. A tájékoztatás alapján elegendő mennyiségű információ áll a rendelkezésemre, hogy eldönthessem, részt kívánok-e venni a kutatásban.</p><p>Tisztában vagyok vele, hogy részvételi szándékomat és adataimat bármikor, indoklás nélkül visszavonhatom.</p><p>Értem és tudomásul veszem, hogy a kutatás tudományos célokat szolgál, és az általam szolgáltatott adatokat a BME kizárólag kutatási célból használja fel. Tudomásul veszem, hogy eredményeimet a többi résztvevő eredményeivel együtt kezelik, így egyéni teljesítményemről visszajelzést, szakvéleményt nem kapok.</p><p>Megértettem, hogy adataim kezelését illetően a BME az EU általános adatvédelmi rendelete (GDPR), a hatályos adatvédelmi törvény és a nemzetközi kutatás-etikai alapelvek szerint jár el. Eredményeim anonim módon kerülnek feldolgozásra, és a kutatás résztvevői az azonosításomra alkalmas adataimat harmadik félnek nem szolgáltatják ki. Engedélyezem a BME számára a jelen kutatásban felvett adataim feldolgozását és tárolását, beleértve azok későbbi kutatásokhoz való felhasználását is. Személyes adataim kezelésével kapcsolatban tájékoztatást kérhetek a kutatás résztvevőitől, az adatkezelés ellen tiltakozhatok, kérhetem személyes adataim helyesbítését, törlését vagy zárolását, valamint jogorvoslatért a Nemzeti Adatvédelmi és Információszabadság Hatósághoz fordulhatok.</p><p>Kijelentem, hogy a kutatásban való részvételem körülményeiről részletes tájékoztatást kaptam, és a feltételeket elfogadom.</p>","0","","","","","",""
"survey-text","4","32305","0.0-4.0","24136","","{""Q0"":""SN228"",""Q1"":""nő"",""Q2"":""2000"",""Q3"":""15""}","","","","","",""
"html-button-response","5","34338","0.0-5.0","1519","<p>Ebben a játékban szavakat kell toldalékolni.</p> <p>Minden körben mutatunk majd egy példamondatot, amiben lesz egy szó.</p> <p>Alatta jön egy második mondat, ezt a mondatot neked kell majd befejezni, ugyanezzel a szóval.</p> <p>Nem biztos, hogy a szó eleve ismerős lesz számodra!</p> <p>Minden mondathoz adunk két lehetőséget, ezeket balra és jobbra látod majd.</p> <p>A játék kb. negyedóráig-húsz percig tart.</p>","0","","","","","",""
"html-button-response","6","54294","0.0-6.0","19439","<p>Nézzünk egy példát!</p> <p>A példamondat: ""János imád fláramolni, ezért sokat fláramlik. Mi ritkán...""</p><p>Neked ezt a mondatot kell befejezned: ""Ti ritkán...""</p><p>A lehetőségek pedig ezek:</p>","0","","","","","",""
"html-button-response","7","62936","0.0-7.0","8125","<p>Nagyon jó.</p><p>Ezt a játékot nem egyedül fogod játszani, hanem egy másik játékossal.</p><p>Mielőtt továbblépünk, összekapcsolunk titeket egymással.</p><p>Ez igénybe vehet néhány másodpercet, amihez szíves türelmed kérjük.</p>","0","","","","","",""
"html-button-response","8","68686","0.0-8.0","null","<p>Csatlakozás a másik játékoshoz...</p>","null","","","","","",""
"html-button-response","9","71216","0.0-9.0","null","<p> Sikeres kapcsolódás!</p>","null","","","","","",""
"html-button-response","10","81742","0.0-10.0","null","<p>A következőkben ketten játsszátok a szóválasztós játékot.</p><p>A feladatotok az lesz, hogy minden körben <b>ugyanazt</b> a szót válasszátok.</p><p>Minden ilyen egyező válaszért pontot kaptok.</p><p>Próbáld meg kitalálni, mit választ a másik játékos!</p><p>Bármikor választhatsz, a körnek akkor van vége, ha mindketten döntöttetek.</p><p>Sok sikert!</p>","null","","","","","",""
"html-button-response-esp","11","90146","0.0-11.0-0.0","6518","János imád dirozni, ezért sokat dirlik. Ti ritkán...","0","diroztok","[""diroztok"",""dirlotok""]","diroztok","esp trial","7","true"
"html-button-response","12","93677","0.0-11.0-1.0","null","<p>A másik játékos ezt választotta: <b>diroztok</b>.</p><p>&#x2705;</p><p>A te válaszod és a másik játékos válasza <b>megegyeznek</b>.</p>","null","","","","feedback trial","",""
"html-button-response-esp","13","102093","0.0-11.0-0.1","6816","János imád molodni, ezért sokat molszik. Ti ritkán...","0","molodtok","[""molodtok"",""molszotok""]","molszotok","esp trial","7","false"
"html-button-response","14","105613","0.0-11.0-1.1","null","<p>A másik játékos ezt választotta: <b>molszotok</b>.</p><p>&#10060;</p><p>A válaszaitok <b>nem</b> egyeznek meg.</p>","null","","","","feedback trial","",""
"html-button-response-esp","15","120116","0.0-11.0-0.2","13982","János imád privékedni, ezért sokat privékszik. Ők ritkán...","0","privékszenek","[""privékszenek"",""privékednek""]","privékednek","esp trial","7","false"
"html-button-response","16","123652","0.0-11.0-1.2","null","<p>A másik játékos ezt választotta: <b>privékednek</b>.</p><p>&#10060;</p><p>A válaszaitok <b>nem</b> egyeznek meg.</p>","null","","","","feedback trial","",""
"html-button-response-esp","17","132045","0.0-11.0-0.3","6377","János imád lűközni, ezért sokat lűklik. Ők ritkán...","0","lűköznek","[""lűköznek"",""lűklenek""]","lűköznek","esp trial","7","true"
"html-button-response","18","135572","0.0-11.0-1.3","null","<p>A másik játékos ezt választotta: <b>lűköznek</b>.</p><p>&#x2705;</p><p>A te válaszod és a másik játékos válasza <b>megegyeznek</b>.</p>","null","","","","feedback trial","",""
"html-button-response-esp","19","143976","0.0-11.0-0.4","6393","János imád bratározni, ezért sokat bratárzik. Ők ritkán...","0","bratároznak","[""bratároznak"",""bratárzanak""]","bratároznak","esp trial","7","true"
"html-button-response","20","147495","0.0-11.0-1.4","null","<p>A másik játékos ezt választotta: <b>bratároznak</b>.</p><p>&#x2705;</p><p>A te válaszod és a másik játékos válasza <b>megegyeznek</b>.</p>","null","","","","feedback trial","",""
"html-button-response-esp","21","155913","0.0-11.0-0.5","7186","János imád brülösözni, ezért sokat brülöslik. Mi ritkán...","0","brülösözünk","[""brülösözünk"",""brülöslünk""]","brülösözünk","esp trial","7","true"
"html-button-response","22","159438","0.0-11.0-1.5","null","<p>A másik játékos ezt választotta: <b>brülösözünk</b>.</p><p>&#x2705;</p><p>A te válaszod és a másik játékos válasza <b>megegyeznek</b>.</p>","null","","","","feedback trial","",""
"html-button-response-esp","23","167864","0.0-11.0-0.6","6093","János imád drilarozni, ezért sokat drilarzik. Mi ritkán...","0","drilarozunk","[""drilarozunk"",""drilarzunk""]","drilarozunk","esp trial","7","true"
"html-button-response","24","171389","0.0-11.0-1.6","null","<p>A másik játékos ezt választotta: <b>drilarozunk</b>.</p><p>&#x2705;</p><p>A te válaszod és a másik játékos válasza <b>megegyeznek</b>.</p>","null","","","","feedback trial","",""
"html-button-response-esp","25","179811","0.0-11.0-0.7","5670","János imád nyürözni, ezért sokat nyürzik. Ők ritkán...","0","nyürzenek","[""nyürzenek"",""nyüröznek""]","nyüröznek","esp trial","7","false"
"html-button-response","26","183335","0.0-11.0-1.7","null","<p>A másik játékos ezt választotta: <b>nyüröznek</b>.</p><p>&#10060;</p><p>A válaszaitok <b>nem</b> egyeznek meg.</p>","null","","","","feedback trial","",""
"html-button-response-esp","27","191752","0.0-11.0-0.8","6450","János imád dilakozni, ezért sokat dilaklik. Ti ritkán...","1","dilakoztok","[""dilaklotok"",""dilakoztok""]","dilakoztok","esp trial","7","true"
"html-button-response","28","195275","0.0-11.0-1.8","null","<p>A másik játékos ezt választotta: <b>dilakoztok</b>.</p><p>&#x2705;</p><p>A te válaszod és a másik játékos válasza <b>megegyeznek</b>.</p>","null","","","","feedback trial","",""
"html-button-response-esp","29","205121","0.0-11.0-0.9","9322","János imád spiharozni, ezért sokat spiharzik. Ti ritkán...","0","spiharoztok","[""spiharoztok"",""spiharzotok""]","spiharoztok","esp trial","7","true"
"html-button-response","30","208632","0.0-11.0-1.9","null","<p>A másik játékos ezt választotta: <b>spiharoztok</b>.</p><p>&#x2705;</p><p>A te válaszod és a másik játékos válasza <b>megegyeznek</b>.</p>","null","","","","feedback trial","",""
"html-button-response-esp","31","217053","0.0-11.0-0.10","5853","János imád nyivágozni, ezért sokat nyivágzik. Mi ritkán...","0","nyivágzunk","[""nyivágzunk"",""nyivágozunk""]","nyivágzunk","esp trial","7","true"
"html-button-response","32","220578","0.0-11.0-1.10","null","<p>A másik játékos ezt választotta: <b>nyivágzunk</b>.</p><p>&#x2705;</p><p>A te válaszod és a másik játékos válasza <b>megegyeznek</b>.</p>","null","","","","feedback trial","",""
"html-button-response-esp","33","228997","0.0-11.0-0.11","5238","János imád posozni, ezért sokat poslik. Ti ritkán...","1","poslotok","[""posoztok"",""poslotok""]","poslotok","esp trial","7","true"
"html-button-response","34","232526","0.0-11.0-1.11","null","<p>A másik játékos ezt választotta: <b>poslotok</b>.</p><p>&#x2705;</p><p>A te válaszod és a másik játékos válasza <b>megegyeznek</b>.</p>","null","","","","feedback trial","",""
"html-button-response-esp","35","243833","0.0-11.0-0.12","10790","János imád prélemezni, ezért sokat prélemlik. Ők ritkán...","0","prélemlenek","[""prélemlenek"",""prélemeznek""]","prélemeznek","esp trial","7","false"
"html-button-response","36","247351","0.0-11.0-1.12","null","<p>A másik játékos ezt választotta: <b>prélemeznek</b>.</p><p>&#10060;</p><p>A válaszaitok <b>nem</b> egyeznek meg.</p>","null","","","","feedback trial","",""
"html-button-response-esp","37","256588","0.0-11.0-0.13","8720","János imád flüröközni, ezért sokat flüröklik. Ti ritkán...","1","flürököztök","[""flüröklötök"",""flürököztök""]","flürököztök","esp trial","7","true"
"html-button-response","38","260121","0.0-11.0-1.13","null","<p>A másik játékos ezt választotta: <b>flürököztök</b>.</p><p>&#x2705;</p><p>A te válaszod és a másik játékos válasza <b>megegyeznek</b>.</p>","null","","","","feedback trial","",""
"html-button-response-esp","39","268536","0.0-11.0-0.14","6162","János imád fröjözni, ezért sokat fröjzik. Ti ritkán...","1","fröjzötök","[""fröjöztök"",""fröjzötök""]","fröjöztök","esp trial","7","false"
"html-button-response","40","272078","0.0-11.0-1.14","null","<p>A másik játékos ezt választotta: <b>fröjöztök</b>.</p><p>&#10060;</p><p>A válaszaitok <b>nem</b> egyeznek meg.</p>","null","","","","feedback trial","",""
"html-button-response-esp","41","280493","0.0-11.0-0.15","7218","János imád trugozni, ezért sokat trugzik. Ők ritkán...","0","trugoznak","[""trugoznak"",""trugzanak""]","trugoznak","esp trial","7","true"
"html-button-response","42","284006","0.0-11.0-1.15","null","<p>A másik játékos ezt választotta: <b>trugoznak</b>.</p><p>&#x2705;</p><p>A te válaszod és a másik játékos válasza <b>megegyeznek</b>.</p>","null","","","","feedback trial","",""
"html-button-response-esp","43","292437","0.0-11.0-0.16","5491","János imád flűgözni, ezért sokat flűgzik. Mi ritkán...","0","flűgözünk","[""flűgözünk"",""flűgzünk""]","flűgözünk","esp trial","7","true"
"html-button-response","44","295971","0.0-11.0-1.16","null","<p>A másik játékos ezt választotta: <b>flűgözünk</b>.</p><p>&#x2705;</p><p>A te válaszod és a másik játékos válasza <b>megegyeznek</b>.</p>","null","","","","feedback trial","",""
"html-button-response-esp","45","304385","0.0-11.0-0.17","7123","János imád pragányozni, ezért sokat pragánylik. Ti ritkán...","1","pragányoztok","[""pragánylotok"",""pragányoztok""]","pragányoztok","esp trial","7","true"
"html-button-response","46","307909","0.0-11.0-1.17","null","<p>A másik játékos ezt választotta: <b>pragányoztok</b>.</p><p>&#x2705;</p><p>A te válaszod és a másik játékos válasza <b>megegyeznek</b>.</p>","null","","","","feedback trial","",""
"html-button-response-esp","47","316327","0.0-11.0-0.18","7649","János imád lájozni, ezért sokat lájzik. Ti ritkán...","1","lájoztok","[""lájzotok"",""lájoztok""]","lájzotok","esp trial","7","false"
"html-button-response","48","319853","0.0-11.0-1.18","null","<p>A másik játékos ezt választotta: <b>lájzotok</b>.</p><p>&#10060;</p><p>A válaszaitok <b>nem</b> egyeznek meg.</p>","null","","","","feedback trial","",""
"html-button-response-esp","49","328254","0.0-11.0-0.19","5150","János imád püzözni, ezért sokat püzlik. Ti ritkán...","1","püzlötök","[""püzöztök"",""püzlötök""]","püzöztök","esp trial","7","false"
"html-button-response","50","331774","0.0-11.0-1.19","null","<p>A másik játékos ezt választotta: <b>püzöztök</b>.</p><p>&#10060;</p><p>A válaszaitok <b>nem</b> egyeznek meg.</p>","null","","","","feedback trial","",""
"html-button-response-esp","51","340195","0.0-11.0-0.20","6217","János imád spirágozni, ezért sokat spiráglik. Ti ritkán...","0","spirágoztok","[""spirágoztok"",""spiráglotok""]","spirágoztok","esp trial","7","true"
"html-button-response","52","343735","0.0-11.0-1.20","null","<p>A másik játékos ezt választotta: <b>spirágoztok</b>.</p><p>&#x2705;</p><p>A te válaszod és a másik játékos válasza <b>megegyeznek</b>.</p>","null","","","","feedback trial","",""
"html-button-response-esp","53","357059","0.0-11.0-0.21","12819","János imád frálasozni, ezért sokat frálaslik. Ők ritkán...","1","frálasoznak","[""frálaslanak"",""frálasoznak""]","frálaslanak","esp trial","7","false"
"html-button-response","54","360585","0.0-11.0-1.21","null","<p>A másik játékos ezt választotta: <b>frálaslanak</b>.</p><p>&#10060;</p><p>A válaszaitok <b>nem</b> egyeznek meg.</p>","null","","","","feedback trial","",""
"html-button-response-esp","55","369008","0.0-11.0-0.22","6551","János imád drűrözni, ezért sokat drűrzik. Ők ritkán...","0","drűröznek","[""drűröznek"",""drűrzenek""]","drűröznek","esp trial","7","true"
"html-button-response","56","372522","0.0-11.0-1.22","null","<p>A másik játékos ezt választotta: <b>drűröznek</b>.</p><p>&#x2705;</p><p>A te válaszod és a másik játékos válasza <b>megegyeznek</b>.</p>","null","","","","feedback trial","",""
"html-button-response-esp","57","380936","0.0-11.0-0.23","7021","János imád dujozni, ezért sokat dujzik. Ők ritkán...","1","dujzanak","[""dujoznak"",""dujzanak""]","dujoznak","esp trial","7","false"
"html-button-response","58","384446","0.0-11.0-1.23","null","<p>A másik játékos ezt választotta: <b>dujoznak</b>.</p><p>&#10060;</p><p>A válaszaitok <b>nem</b> egyeznek meg.</p>","null","","","","feedback trial","",""
"html-button-response-esp","59","392876","0.0-11.0-0.24","5318","János imád flöközni, ezért sokat flöklik. Ti ritkán...","0","flököztök","[""flököztök"",""flöklötök""]","flököztök","esp trial","7","true"
"html-button-response","60","396407","0.0-11.0-1.24","null","<p>A másik játékos ezt választotta: <b>flököztök</b>.</p><p>&#x2705;</p><p>A te válaszod és a másik játékos válasza <b>megegyeznek</b>.</p>","null","","","","feedback trial","",""
"html-button-response-esp","61","404808","0.0-11.0-0.25","7452","János imád trugokozni, ezért sokat trugoklik. Ők ritkán...","0","trugoklanak","[""trugoklanak"",""trugokoznak""]","trugokoznak","esp trial","7","false"
"html-button-response","62","408348","0.0-11.0-1.25","null","<p>A másik játékos ezt választotta: <b>trugokoznak</b>.</p><p>&#10060;</p><p>A válaszaitok <b>nem</b> egyeznek meg.</p>","null","","","","feedback trial","",""
"html-button-response-esp","63","416750","0.0-11.0-0.26","7278","János imád gyihegezni, ezért sokat gyihegzik. Ti ritkán...","1","gyihegeztek","[""gyihegzetek"",""gyihegeztek""]","gyihegeztek","esp trial","7","true"
"html-button-response","64","420275","0.0-11.0-1.26","null","<p>A másik játékos ezt választotta: <b>gyihegeztek</b>.</p><p>&#x2705;</p><p>A te válaszod és a másik játékos válasza <b>megegyeznek</b>.</p>","null","","","","feedback trial","",""
"html-button-response-esp","65","428697","0.0-11.0-0.27","4827","János imád gihejezni, ezért sokat gihejlik. Mi ritkán...","1","gihejezünk","[""gihejlünk"",""gihejezünk""]","gihejlünk","esp trial","7","false"
"html-button-response","66","432222","0.0-11.0-1.27","null","<p>A másik játékos ezt választotta: <b>gihejlünk</b>.</p><p>&#10060;</p><p>A válaszaitok <b>nem</b> egyeznek meg.</p>","null","","","","feedback trial","",""
"html-button-response-esp","67","440632","0.0-11.0-0.28","7028","János imád csubozni, ezért sokat csubzik. Mi ritkán...","0","csubzunk","[""csubzunk"",""csubozunk""]","csubzunk","esp trial","7","true"
"html-button-response","68","444170","0.0-11.0-1.28","null","<p>A másik játékos ezt választotta: <b>csubzunk</b>.</p><p>&#x2705;</p><p>A te válaszod és a másik játékos válasza <b>megegyeznek</b>.</p>","null","","","","feedback trial","",""
"html-button-response-esp","69","452691","0.0-11.0-0.29","8003","János imád frakozni, ezért sokat fraklik. Mi ritkán...","1","fraklunk","[""frakozunk"",""fraklunk""]","frakozunk","esp trial","7","false"
"html-button-response","70","456223","0.0-11.0-1.29","null","<p>A másik játékos ezt választotta: <b>frakozunk</b>.</p><p>&#10060;</p><p>A válaszaitok <b>nem</b> egyeznek meg.</p>","null","","","","feedback trial","",""
"html-button-response-esp","71","464631","0.0-11.0-0.30","6312","János imád virozni, ezért sokat virzik. Ők ritkán...","1","viroznak","[""virzanak"",""viroznak""]","viroznak","esp trial","7","true"
"html-button-response","72","468170","0.0-11.0-1.30","null","<p>A másik játékos ezt választotta: <b>viroznak</b>.</p><p>&#x2705;</p><p>A te válaszod és a másik játékos válasza <b>megegyeznek</b>.</p>","null","","","","feedback trial","",""
"html-button-response-esp","73","476590","0.0-11.0-0.31","6216","János imád brözözni, ezért sokat brözlik. Ti ritkán...","1","brözöztök","[""brözlötök"",""brözöztök""]","brözöztök","esp trial","7","true"
"html-button-response","74","480115","0.0-11.0-1.31","null","<p>A másik játékos ezt választotta: <b>brözöztök</b>.</p><p>&#x2705;</p><p>A te válaszod és a másik játékos válasza <b>megegyeznek</b>.</p>","null","","","","feedback trial","",""
"html-button-response-esp","75","488539","0.0-11.0-0.32","7121","János imád klehényezni, ezért sokat klehénylik. Ti ritkán...","1","klehényeztek","[""klehényletek"",""klehényeztek""]","klehényeztek","esp trial","7","true"
"html-button-response","76","492075","0.0-11.0-1.32","null","<p>A másik játékos ezt választotta: <b>klehényeztek</b>.</p><p>&#x2705;</p><p>A te válaszod és a másik játékos válasza <b>megegyeznek</b>.</p>","null","","","","feedback trial","",""
"html-button-response-esp","77","500490","0.0-11.0-0.33","6945","János imád spügözni, ezért sokat spügzik. Mi ritkán...","0","spügözünk","[""spügözünk"",""spügzünk""]","spügzünk","esp trial","7","false"
"html-button-response","78","504024","0.0-11.0-1.33","null","<p>A másik játékos ezt választotta: <b>spügzünk</b>.</p><p>&#10060;</p><p>A válaszaitok <b>nem</b> egyeznek meg.</p>","null","","","","feedback trial","",""
"html-button-response-esp","79","512436","0.0-11.0-0.34","6493","János imád trivakodni, ezért sokat trivakszik. Mi ritkán...","0","trivakodunk","[""trivakodunk"",""trivakszunk""]","trivakodunk","esp trial","7","true"
"html-button-response","80","515969","0.0-11.0-1.34","null","<p>A másik játékos ezt választotta: <b>trivakodunk</b>.</p><p>&#x2705;</p><p>A te válaszod és a másik játékos válasza <b>megegyeznek</b>.</p>","null","","","","feedback trial","",""
"html-button-response-esp","81","524375","0.0-11.0-0.35","4831","János imád köszözni, ezért sokat köszlik. Ti ritkán...","0","köszöztök","[""köszöztök"",""köszlötök""]","köszöztök","esp trial","7","true"
"html-button-response","82","527909","0.0-11.0-1.35","null","<p>A másik játékos ezt választotta: <b>köszöztök</b>.</p><p>&#x2705;</p><p>A te válaszod és a másik játékos válasza <b>megegyeznek</b>.</p>","null","","","","feedback trial","",""
"html-button-response-esp","83","536329","0.0-11.0-0.36","6079","János imád spibegezni, ezért sokat spibeglik. Mi ritkán...","0","spibegezünk","[""spibegezünk"",""spibeglünk""]","spibeglünk","esp trial","7","false"
"html-button-response","84","539856","0.0-11.0-1.36","null","<p>A másik játékos ezt választotta: <b>spibeglünk</b>.</p><p>&#10060;</p><p>A válaszaitok <b>nem</b> egyeznek meg.</p>","null","","","","feedback trial","",""
"html-button-response-esp","85","548288","0.0-11.0-0.37","6731","János imád dárakodni, ezért sokat dárakszik. Mi ritkán...","1","dárakszunk","[""dárakodunk"",""dárakszunk""]","dárakodunk","esp trial","7","false"
"html-button-response","86","551801","0.0-11.0-1.37","null","<p>A másik játékos ezt választotta: <b>dárakodunk</b>.</p><p>&#10060;</p><p>A válaszaitok <b>nem</b> egyeznek meg.</p>","null","","","","feedback trial","",""
"html-button-response-esp","87","560227","0.0-11.0-0.38","7102","János imád prögözni, ezért sokat prögzik. Ti ritkán...","1","prögzötök","[""prögöztök"",""prögzötök""]","prögöztök","esp trial","7","false"
"html-button-response","88","563768","0.0-11.0-1.38","null","<p>A másik játékos ezt választotta: <b>prögöztök</b>.</p><p>&#10060;</p><p>A válaszaitok <b>nem</b> egyeznek meg.</p>","null","","","","feedback trial","",""
"html-button-response-esp","89","572168","0.0-11.0-0.39","7621","János imád sprudozni, ezért sokat sprudlik. Mi ritkán...","1","sprudozunk","[""sprudlunk"",""sprudozunk""]","sprudozunk","esp trial","7","true"
"html-button-response","90","575678","0.0-11.0-1.39","null","<p>A másik játékos ezt választotta: <b>sprudozunk</b>.</p><p>&#x2705;</p><p>A te válaszod és a másik játékos válasza <b>megegyeznek</b>.</p>","null","","","","feedback trial","",""
"html-button-response-esp","91","585710","0.0-11.0-0.40","9507","János imád mülőrözni, ezért sokat mülőrzik. Mi ritkán...","0","mülőrzünk","[""mülőrzünk"",""mülőrözünk""]","mülőrözünk","esp trial","7","false"
"html-button-response","92","589243","0.0-11.0-1.40","null","<p>A másik játékos ezt választotta: <b>mülőrözünk</b>.</p><p>&#10060;</p><p>A válaszaitok <b>nem</b> egyeznek meg.</p>","null","","","","feedback trial","",""
"html-button-response-esp","93","600488","0.0-11.0-0.41","10728","János imád sprozozni, ezért sokat sprozlik. Ők ritkán...","1","sprozoznak","[""sprozlanak"",""sprozoznak""]","sprozoznak","esp trial","7","true"
"html-button-response","94","604020","0.0-11.0-1.41","null","<p>A másik játékos ezt választotta: <b>sprozoznak</b>.</p><p>&#x2705;</p><p>A te válaszod és a másik játékos válasza <b>megegyeznek</b>.</p>","null","","","","feedback trial","",""
"html-button-response-esp","95","612443","0.0-11.0-0.42","6536","János imád föködni, ezért sokat fökszik. Ők ritkán...","1","fökszenek","[""föködnek"",""fökszenek""]","fökszenek","esp trial","7","true"
"html-button-response","96","615979","0.0-11.0-1.42","null","<p>A másik játékos ezt választotta: <b>fökszenek</b>.</p><p>&#x2705;</p><p>A te válaszod és a másik játékos válasza <b>megegyeznek</b>.</p>","null","","","","feedback trial","",""
"html-button-response-esp","97","624398","0.0-11.0-0.43","7012","János imád sprűrözni, ezért sokat sprűrlik. Ők ritkán...","0","sprűrlenek","[""sprűrlenek"",""sprűröznek""]","sprűröznek","esp trial","7","false"
"html-button-response","98","627921","0.0-11.0-1.43","null","<p>A másik játékos ezt választotta: <b>sprűröznek</b>.</p><p>&#10060;</p><p>A válaszaitok <b>nem</b> egyeznek meg.</p>","null","","","","feedback trial","",""
"html-button-response-esp","99","636345","0.0-11.0-0.44","5212","János imád dabozni, ezért sokat dabzik. Ti ritkán...","1","daboztok","[""dabzotok"",""daboztok""]","daboztok","esp trial","7","true"
"html-button-response","100","639877","0.0-11.0-1.44","null","<p>A másik játékos ezt választotta: <b>daboztok</b>.</p><p>&#x2705;</p><p>A te válaszod és a másik játékos válasza <b>megegyeznek</b>.</p>","null","","","","feedback trial","",""
"html-button-response-esp","101","648291","0.0-11.0-0.45","7387","János imád pilégedni, ezért sokat pilégszik. Ők ritkán...","0","pilégednek","[""pilégednek"",""pilégszenek""]","pilégszenek","esp trial","7","false"
"html-button-response","102","651820","0.0-11.0-1.45","null","<p>A másik játékos ezt választotta: <b>pilégszenek</b>.</p><p>&#10060;</p><p>A válaszaitok <b>nem</b> egyeznek meg.</p>","null","","","","feedback trial","",""
"html-button-response-esp","103","660233","0.0-11.0-0.46","6389","János imád mágamozni, ezért sokat mágamlik. Mi ritkán...","1","mágamlunk","[""mágamozunk"",""mágamlunk""]","mágamlunk","esp trial","7","true"
"html-button-response","104","663772","0.0-11.0-1.46","null","<p>A másik játékos ezt választotta: <b>mágamlunk</b>.</p><p>&#x2705;</p><p>A te válaszod és a másik játékos válasza <b>megegyeznek</b>.</p>","null","","","","feedback trial","",""
"html-button-response-esp","105","672186","0.0-11.0-0.47","7651","János imád brivakozni, ezért sokat brivaklik. Ti ritkán...","1","brivakoztok","[""brivaklotok"",""brivakoztok""]","brivakoztok","esp trial","7","true"
"html-button-response","106","675718","0.0-11.0-1.47","null","<p>A másik játékos ezt választotta: <b>brivakoztok</b>.</p><p>&#x2705;</p><p>A te válaszod és a másik játékos válasza <b>megegyeznek</b>.</p>","null","","","","feedback trial","",""
"html-button-response-esp","107","684140","0.0-11.0-0.48","5327","János imád kűdözni, ezért sokat kűdlik. Ők ritkán...","1","kűdöznek","[""kűdlenek"",""kűdöznek""]","kűdlenek","esp trial","7","false"
"html-button-response","108","687678","0.0-11.0-1.48","null","<p>A másik játékos ezt választotta: <b>kűdlenek</b>.</p><p>&#10060;</p><p>A válaszaitok <b>nem</b> egyeznek meg.</p>","null","","","","feedback trial","",""
"html-button-response-esp","109","696101","0.0-11.0-0.49","4999","János imád branyozni, ezért sokat branylik. Ők ritkán...","0","branyoznak","[""branyoznak"",""branylanak""]","branyoznak","esp trial","7","true"
"html-button-response","110","699627","0.0-11.0-1.49","null","<p>A másik játékos ezt választotta: <b>branyoznak</b>.</p><p>&#x2705;</p><p>A te válaszod és a másik játékos válasza <b>megegyeznek</b>.</p>","null","","","","feedback trial","",""
"html-button-response-esp","111","708043","0.0-11.0-0.50","5599","János imád trikozni, ezért sokat triklik. Ti ritkán...","1","trikoztok","[""triklotok"",""trikoztok""]","triklotok","esp trial","7","false"
"html-button-response","112","711570","0.0-11.0-1.50","null","<p>A másik játékos ezt választotta: <b>triklotok</b>.</p><p>&#10060;</p><p>A válaszaitok <b>nem</b> egyeznek meg.</p>","null","","","","feedback trial","",""
"html-button-response-esp","113","719992","0.0-11.0-0.51","5700","János imád csibagozni, ezért sokat csibagzik. Ti ritkán...","0","csibagoztok","[""csibagoztok"",""csibagzotok""]","csibagoztok","esp trial","7","true"
"html-button-response","114","723507","0.0-11.0-1.51","null","<p>A másik játékos ezt választotta: <b>csibagoztok</b>.</p><p>&#x2705;</p><p>A te válaszod és a másik játékos válasza <b>megegyeznek</b>.</p>","null","","","","feedback trial","",""
"html-button-response-esp","115","732023","0.0-11.0-0.52","7993","János imád flemezni, ezért sokat flemlik. Mi ritkán...","1","flemlünk","[""flemezünk"",""flemlünk""]","flemezünk","esp trial","7","false"
"html-button-response","116","735534","0.0-11.0-1.52","null","<p>A másik játékos ezt választotta: <b>flemezünk</b>.</p><p>&#10060;</p><p>A válaszaitok <b>nem</b> egyeznek meg.</p>","null","","","","feedback trial","",""
"html-button-response-esp","117","744323","0.0-11.0-0.53","8272","János imád frálapodni, ezért sokat frálapszik. Ti ritkán...","0","frálapszotok","[""frálapszotok"",""frálapodtok""]","frálapszotok","esp trial","7","true"
"html-button-response","118","747847","0.0-11.0-1.53","null","<p>A másik játékos ezt választotta: <b>frálapszotok</b>.</p><p>&#x2705;</p><p>A te válaszod és a másik játékos válasza <b>megegyeznek</b>.</p>","null","","","","feedback trial","",""
"html-button-response","119","762426","0.0-12.0","14076","<p>A közös játék most véget ért.</p><p>Mielőtt eláruljuk a végső pontszámodat, arra kérlek, játszd a szóválasztós játékot néhány percig egyedül is.</p><p>A feladatod ugyanaz lesz, választani két lehetőség közül.</p><p>Most viszont egyedül kell döntened, hogy te melyiket választanád.</p>","0","","","","","",""
"html-button-response-clever","120","769127","0.0-13.0-0.0","6185","János imád prilepedni, ezért sokat prilepszik. Mi ritkán...","1","prilepszünk","[""prilepedünk"",""prilepszünk""]","","posttest trial","8",""
"html-button-response-clever","121","775550","0.0-13.0-0.1","5903","János imád bregezni, ezért sokat bregzik. Mi ritkán...","0","bregezünk","[""bregezünk"",""bregzünk""]","","posttest trial","8",""
"html-button-response-clever","122","782944","0.0-13.0-0.2","6870","János imád prazozni, ezért sokat prazlik. Mi ritkán...","1","prazlunk","[""prazozunk"",""prazlunk""]","","posttest trial","8",""
"html-button-response-clever","123","790529","0.0-13.0-0.3","7069","János imád nágapodni, ezért sokat nágapszik. Ők ritkán...","1","nágapszanak","[""nágapodnak"",""nágapszanak""]","","posttest trial","8",""
"html-button-response-clever","124","799087","0.0-13.0-0.4","8040","János imád frihegezni, ezért sokat friheglik. Mi ritkán...","1","frihegezünk","[""friheglünk"",""frihegezünk""]","","posttest trial","8",""
"html-button-response-clever","125","805020","0.0-13.0-0.5","5427","János imád míjozni, ezért sokat míjzik. Mi ritkán...","1","míjozunk","[""míjzunk"",""míjozunk""]","","posttest trial","8",""
"html-button-response-clever","126","811257","0.0-13.0-0.6","5721","János imád gatágozni, ezért sokat gatáglik. Mi ritkán...","1","gatágozunk","[""gatáglunk"",""gatágozunk""]","","posttest trial","8",""
"html-button-response-clever","127","818467","0.0-13.0-0.7","6686","János imád galározni, ezért sokat galárzik. Ők ritkán...","0","galároznak","[""galároznak"",""galárzanak""]","","posttest trial","8",""
"html-button-response-clever","128","824828","0.0-13.0-0.8","5845","János imád brilegezni, ezért sokat brilegzik. Mi ritkán...","0","brilegezünk","[""brilegezünk"",""brilegzünk""]","","posttest trial","8",""
"html-button-response-clever","129","831459","0.0-13.0-0.9","6115","János imád küsözni, ezért sokat küslik. Mi ritkán...","0","küslünk","[""küslünk"",""küsözünk""]","","posttest trial","8",""
"html-button-response-clever","130","839231","0.0-13.0-0.10","7248","János imád brározni, ezért sokat brárlik. Ők ritkán...","0","brároznak","[""brároznak"",""brárlanak""]","","posttest trial","8",""
"html-button-response-clever","131","846198","0.0-13.0-0.11","6461","János imád pehégedni, ezért sokat pehégszik. Ti ritkán...","1","pehégszetek","[""pehégedtek"",""pehégszetek""]","","posttest trial","8",""
"html-button-response-clever","132","853116","0.0-13.0-0.12","6401","János imád tribejezni, ezért sokat tribejlik. Ti ritkán...","1","tribejeztek","[""tribejletek"",""tribejeztek""]","","posttest trial","8",""
"html-button-response-clever","133","858482","0.0-13.0-0.13","4857","János imád frésezni, ezért sokat fréslik. Mi ritkán...","0","fréslünk","[""fréslünk"",""frésezünk""]","","posttest trial","8",""
"html-button-response-clever","134","864415","0.0-13.0-0.14","5417","János imád riványozni, ezért sokat riványlik. Ti ritkán...","0","riványlotok","[""riványlotok"",""riványoztok""]","","posttest trial","8",""
"html-button-response-clever","135","870908","0.0-13.0-0.15","5977","János imád hákodni, ezért sokat hákszik. Ők ritkán...","1","hákszanak","[""hákodnak"",""hákszanak""]","","posttest trial","8",""
"html-button-response-clever","136","879253","0.0-13.0-0.16","7834","János imád brivepedni, ezért sokat brivepszik. Mi ritkán...","1","brivepedünk","[""brivepszünk"",""brivepedünk""]","","posttest trial","8",""
"html-button-response-clever","137","884333","0.0-13.0-0.17","4564","János imád sztrajozni, ezért sokat sztrajlik. Ők ritkán...","1","sztrajlanak","[""sztrajoznak"",""sztrajlanak""]","","posttest trial","8",""
"html-button-response-clever","138","892662","0.0-13.0-0.18","7823","János imád spalározni, ezért sokat spalárzik. Ők ritkán...","1","spalárzanak","[""spalároznak"",""spalárzanak""]","","posttest trial","8",""
"html-button-response-clever","139","897488","0.0-13.0-0.19","4310","János imád vobozni, ezért sokat vobzik. Ti ritkán...","0","voboztok","[""voboztok"",""vobzotok""]","","posttest trial","8",""
"html-button-response-clever","140","903563","0.0-13.0-0.20","5572","János imád tűgözni, ezért sokat tűgzik. Ti ritkán...","0","tűgöztök","[""tűgöztök"",""tűgzötök""]","","posttest trial","8",""
"html-button-response-clever","141","910016","0.0-13.0-0.21","5952","János imád sponyozni, ezért sokat sponylik. Ők ritkán...","1","sponyoznak","[""sponylanak"",""sponyoznak""]","","posttest trial","8",""
"html-button-response-clever","142","915617","0.0-13.0-0.22","5078","János imád gibemezni, ezért sokat gibemlik. Mi ritkán...","0","gibemezünk","[""gibemezünk"",""gibemlünk""]","","posttest trial","8",""
"html-button-response-clever","143","923772","0.0-13.0-0.23","7652","János imád kluzozni, ezért sokat kluzlik. Ti ritkán...","1","kluzoztok","[""kluzlotok"",""kluzoztok""]","","posttest trial","8",""
"html-button-response-clever","144","933168","0.0-13.0-0.24","8892","János imád trűnyözni, ezért sokat trűnylik. Ők ritkán...","1","trűnylenek","[""trűnyöznek"",""trűnylenek""]","","posttest trial","8",""
"html-button-response-clever","145","945729","0.0-13.0-0.25","12044","János imád spibamozni, ezért sokat spibamlik. Ők ritkán...","1","spibamoznak","[""spibamlanak"",""spibamoznak""]","","posttest trial","8",""
"html-button-response-clever","146","955244","0.0-13.0-0.26","8998","János imád tágarozni, ezért sokat tágarzik. Mi ritkán...","1","tágarozunk","[""tágarzunk"",""tágarozunk""]","","posttest trial","8",""
"html-button-response-clever","147","962476","0.0-13.0-0.27","6730","János imád brüszözni, ezért sokat brüszlik. Ti ritkán...","0","brüszöztök","[""brüszöztök"",""brüszlötök""]","","posttest trial","8",""
"html-button-response-clever","148","968164","0.0-13.0-0.28","5173","János imád brivágozni, ezért sokat briváglik. Ők ritkán...","1","briváglanak","[""brivágoznak"",""briváglanak""]","","posttest trial","8",""
"html-button-response-clever","149","974518","0.0-13.0-0.29","5848","János imád trírozni, ezért sokat trírzik. Mi ritkán...","1","trírozunk","[""trírzunk"",""trírozunk""]","","posttest trial","8",""
"html-button-response-clever","150","980343","0.0-13.0-0.30","5320","János imád mihágozni, ezért sokat mihágzik. Ti ritkán...","0","mihágoztok","[""mihágoztok"",""mihágzotok""]","","posttest trial","8",""
"html-button-response-clever","151","985526","0.0-13.0-0.31","4679","János imád flivegezni, ezért sokat flivegzik. Ők ritkán...","1","flivegeznek","[""flivegzenek"",""flivegeznek""]","","posttest trial","8",""
"html-button-response-clever","152","990455","0.0-13.0-0.32","4424","János imád lumozni, ezért sokat lumlik. Ti ritkán...","0","lumoztok","[""lumoztok"",""lumlotok""]","","posttest trial","8",""
"html-button-response-clever","153","996509","0.0-13.0-0.33","5537","János imád klarágozni, ezért sokat klarágzik. Ti ritkán...","1","klarágoztok","[""klarágzotok"",""klarágoztok""]","","posttest trial","8",""
"html-button-response-clever","154","1002923","0.0-13.0-0.34","5909","János imád pekedni, ezért sokat pekszik. Mi ritkán...","1","pekedünk","[""pekszünk"",""pekedünk""]","","posttest trial","8",""
"html-button-response-clever","155","1009253","0.0-13.0-0.35","5813","János imád pörözni, ezért sokat pörzik. Ti ritkán...","1","pöröztök","[""pörzötök"",""pöröztök""]","","posttest trial","8",""
"html-button-response-clever","156","1014701","0.0-13.0-0.36","4932","János imád mísozni, ezért sokat míslik. Mi ritkán...","0","mísozunk","[""mísozunk"",""míslunk""]","","posttest trial","8",""
"html-button-response-clever","157","1019876","0.0-13.0-0.37","4658","János imád frivamozni, ezért sokat frivamlik. Mi ritkán...","1","frivamozunk","[""frivamlunk"",""frivamozunk""]","","posttest trial","8",""
"html-button-response-clever","158","1026818","0.0-13.0-0.38","6436","János imád drivegezni, ezért sokat drivegzik. Ti ritkán...","0","drivegeztek","[""drivegeztek"",""drivegzetek""]","","posttest trial","8",""
"html-button-response-clever","159","1035790","0.0-13.0-0.39","8471","János imád tibarozni, ezért sokat tibarzik. Ők ritkán...","1","tibaroznak","[""tibarzanak"",""tibaroznak""]","","posttest trial","8",""
"html-button-response-clever","160","1043393","0.0-13.0-0.40","7085","János imád drojozni, ezért sokat drojzik. Mi ritkán...","0","drojozunk","[""drojozunk"",""drojzunk""]","","posttest trial","8",""
"html-button-response-clever","161","1048570","0.0-13.0-0.41","4662","János imád lírozni, ezért sokat lírlik. Ők ritkán...","1","lírlanak","[""líroznak"",""lírlanak""]","","posttest trial","8",""
"html-button-response-clever","162","1056100","0.0-13.0-0.42","7014","János imád sztritozni, ezért sokat sztritlik. Ők ritkán...","1","sztritlanak","[""sztritoznak"",""sztritlanak""]","","posttest trial","8",""
"html-button-response-clever","163","1061908","0.0-13.0-0.43","5301","János imád livényezni, ezért sokat livénylik. Mi ritkán...","0","livénylünk","[""livénylünk"",""livényezünk""]","","posttest trial","8",""
"html-button-response-clever","164","1067121","0.0-13.0-0.44","4698","János imád dirányozni, ezért sokat diránylik. Ők ritkán...","1","diránylanak","[""dirányoznak"",""diránylanak""]","","posttest trial","8",""
"html-button-response-clever","165","1072505","0.0-13.0-0.45","4870","János imád spöközni, ezért sokat spöklik. Mi ritkán...","1","spöközünk","[""spöklünk"",""spöközünk""]","","posttest trial","8",""
"html-button-response-clever","166","1078634","0.0-13.0-0.46","5612","János imád flubokozni, ezért sokat fluboklik. Ti ritkán...","1","flubokoztok","[""fluboklotok"",""flubokoztok""]","","posttest trial","8",""
"html-button-response-clever","167","1084343","0.0-13.0-0.47","5192","János imád flézezni, ezért sokat flézlik. Ti ritkán...","0","flézletek","[""flézletek"",""flézeztek""]","","posttest trial","8",""
"html-button-response-clever","168","1090704","0.0-13.0-0.48","5845","János imád sprigozni, ezért sokat sprigzik. Ti ritkán...","1","sprigzotok","[""sprigoztok"",""sprigzotok""]","","posttest trial","8",""
"html-button-response-clever","169","1099332","0.0-13.0-0.49","8125","János imád sprimozni, ezért sokat sprimlik. Mi ritkán...","1","sprimozunk","[""sprimlunk"",""sprimozunk""]","","posttest trial","8",""
"html-button-response-clever","170","1105747","0.0-13.0-0.50","5908","János imád filányozni, ezért sokat filánylik. Mi ritkán...","1","filánylunk","[""filányozunk"",""filánylunk""]","","posttest trial","8",""
"html-button-response-clever","171","1111678","0.0-13.0-0.51","5416","János imád fröjözni, ezért sokat fröjlik. Mi ritkán...","0","fröjözünk","[""fröjözünk"",""fröjlünk""]","","posttest trial","8",""
"html-button-response-clever","172","1117667","0.0-13.0-0.52","5483","János imád brálamozni, ezért sokat brálamlik. Ők ritkán...","1","brálamlanak","[""brálamoznak"",""brálamlanak""]","","posttest trial","8",""
"html-button-response-clever","173","1123858","0.0-13.0-0.53","5662","János imád gyivepedni, ezért sokat gyivepszik. Ők ritkán...","1","gyivepednek","[""gyivepszenek"",""gyivepednek""]","","posttest trial","8",""
"html-button-response","174","1130868","0.0-14.0","6495","<p> Vége a játéknak. A teljes pontszámod 32/54.</p><p> Szép munka! &#128526;&#128526;&#128526;</p><p>A Befejezés gomb megnyomása után bezárhatod a böngészőablakot.</p>","0","","","","","",""
"html-keyboard-response","175","1136394","0.0-15.0","null","<div class=""message"">
         <p>Egy kis türelmet kérünk, amíg elmentjük az adatokat...</p>
         </div>","null","","","","","",""
