"trial_type","trial_index","time_elapsed","internal_node_id","rt","stimulus","response","response_string","choices","esp_response","trial_kind","list_number","esp_match"
"pavlovia","0","1112","0.0-0.0","","","","","","","","",""
"html-button-response","1","53516","0.0-1.0","51900","<p>Kedves Résztvevő! A Budapesti Műszaki és Gazdaságtudományi Egyetem Kognitív Tudományi Tanszékének kutatásában való részvételed kérjük. A kutatásban azt vizsgáljuk, hogy a magyar anyanyelvűek hogyan használnak bizonyos szóalakokat, és hogy milyen képük van arról, hogy mások hogyan használják, hogyan képzik a szavakat. Ez hozzásegít bennünket ahhoz, hogy jobban megértsük, hogyan dolgozza fel és tárolja a nyelvet az emberi agy, és hogyan működnek, hogyan változnak egy adott közösség nyelvi konvenciói.</p><p>A vizsgálat egy rövid számítógépes feladatból fog állni. A kutatásban való részvétel önkéntes, a részvételi szándék bármikor visszavonható. A résztvevők eredményeit név nélkül kezeljük, így nem beazonosíthatók az adatok feldolgozása során. Minden személyes adatot az EU általános adatvédelmi rendeletének (GDPR) megfelelően kezelünk és legfeljebb öt éven belül megsemmisítünk. A vizsgálat jellemzően húsz percet vesz igénybe.</p><p>Kutatásvezető:</p><p>Dr. Rácz Péter, tudományos munkatárs, BME KTT</p><p>e-mail: racz.peter.marton@ttk.bme.hu</p>","0","","","","","",""
"html-button-response","2","90688","0.0-2.0","36663","<p>A kísérletben szavakat fogsz látni. Ezek között lesznek olyanok, amelyeket ismersz, de előfordulhatnak olyanok is, amelyeket nem ismersz, sőt, vannak köztük kitalált szavak is. Minden szónál látni fogsz toldalékolt alakokat. A te feladatod az lesz, hogy minden szóhoz kiválaszd azt a toldalékolt alakot, amely a te számodra ismerősebben, természetesebben hangzik. Rossz válaszok nincsenek, mert van olyan, hogy különböző embereknek más és más szó tűnik jobb választásnak. A választ úgy tudod majd kiválasztani, ha rákattintasz.</p><p>Ebben a szóválasztós játékban egy másik játékossal együtt veszel majd részt. A másik játékos is minden esetben azok közül a lehetőségek közül válogathat, mint te. Kettőtök feladata az, hogy ugyanazt a lehetőséget válasszátok minden esetben. Ahhoz, hogy ez sikerüljön, neked figyelned kell arra, hogy a másik játékos milyen válaszokat ad, és ennek alapján meg kell tippelned, hogyan választ legközelebb. Ha eltalálod, akkor pontot kapsz.</p>","0","","","","","",""
"html-button-response","3","97259","0.0-3.0","6058","<p>Kérjük, olvasd el az alábbi nyilatkozatot, és amennyiben egyetértesz vele, nyomj a Beleegyezés gombra!</p><p>Kijelentem, hogy magyar anyanyelvű személyként önként veszek részt a BME KTT kísérletében. A kutatás céljával és folyamatával kapcsolatban elegendő tájékoztatást kaptam, lehetőségem volt kérdések feltételére, és esetleges kérdéseimre megfelelő válaszokat kaptam. A tájékoztatás alapján elegendő mennyiségű információ áll a rendelkezésemre, hogy eldönthessem, részt kívánok-e venni a kutatásban.</p><p>Tisztában vagyok vele, hogy részvételi szándékomat és adataimat bármikor, indoklás nélkül visszavonhatom.</p><p>Értem és tudomásul veszem, hogy a kutatás tudományos célokat szolgál, és az általam szolgáltatott adatokat a BME kizárólag kutatási célból használja fel. Tudomásul veszem, hogy eredményeimet a többi résztvevő eredményeivel együtt kezelik, így egyéni teljesítményemről visszajelzést, szakvéleményt nem kapok.</p><p>Megértettem, hogy adataim kezelését illetően a BME az EU általános adatvédelmi rendelete (GDPR), a hatályos adatvédelmi törvény és a nemzetközi kutatás-etikai alapelvek szerint jár el. Eredményeim anonim módon kerülnek feldolgozásra, és a kutatás résztvevői az azonosításomra alkalmas adataimat harmadik félnek nem szolgáltatják ki. Engedélyezem a BME számára a jelen kutatásban felvett adataim feldolgozását és tárolását, beleértve azok későbbi kutatásokhoz való felhasználását is. Személyes adataim kezelésével kapcsolatban tájékoztatást kérhetek a kutatás résztvevőitől, az adatkezelés ellen tiltakozhatok, kérhetem személyes adataim helyesbítését, törlését vagy zárolását, valamint jogorvoslatért a Nemzeti Adatvédelmi és Információszabadság Hatósághoz fordulhatok.</p><p>Kijelentem, hogy a kutatásban való részvételem körülményeiről részletes tájékoztatást kaptam, és a feltételeket elfogadom.</p>","0","","","","","",""
"survey-text","4","163030","0.0-4.0","65252","","{""Q0"":""JFYS9N"",""Q1"":""Férfi"",""Q2"":""2001"",""Q3"":""14""}","","","","","",""
"html-button-response","5","177221","0.0-5.0","13683","<p>Ebben a játékban szavakat kell toldalékolni.</p> <p>Minden körben mutatunk majd egy példamondatot, amiben lesz egy szó.</p> <p>Alatta jön egy második mondat, ezt a mondatot neked kell majd befejezni, ugyanezzel a szóval.</p> <p>Nem biztos, hogy a szó eleve ismerős lesz számodra!</p> <p>Minden mondathoz adunk két lehetőséget, ezeket balra és jobbra látod majd.</p> <p>A játék kb. negyedóráig-húsz percig tart.</p>","0","","","","","",""
"html-button-response","6","200188","0.0-6.0","22462","<p>Nézzünk egy példát!</p> <p>A példamondat: ""János imád fláramolni, ezért sokat fláramlik. Mi ritkán...""</p><p>Neked ezt a mondatot kell befejezned: ""Ti ritkán...""</p><p>A lehetőségek pedig ezek:</p>","0","","","","","",""
"html-button-response","7","206937","0.0-7.0","6247","<p>Nagyon jó.</p><p>Ezt a játékot nem egyedül fogod játszani, hanem egy másik játékossal.</p><p>Mielőtt továbblépünk, összekapcsolunk titeket egymással.</p><p>Ez igénybe vehet néhány másodpercet, amihez szíves türelmed kérjük.</p>","0","","","","","",""
"html-button-response","8","212687","0.0-8.0","null","<p>Csatlakozás a másik játékoshoz...</p>","null","","","","","",""
"html-button-response","9","215215","0.0-9.0","null","<p> Sikeres kapcsolódás!</p>","null","","","","","",""
"html-button-response","10","225732","0.0-10.0","null","<p>A következőkben ketten játsszátok a szóválasztós játékot.</p><p>A feladatotok az lesz, hogy minden körben <b>ugyanazt</b> a szót válasszátok.</p><p>Minden ilyen egyező válaszért pontot kaptok.</p><p>Próbáld meg kitalálni, mit választ a másik játékos!</p><p>Bármikor választhatsz, a körnek akkor van vége, ha mindketten döntöttetek.</p><p>Sok sikert!</p>","null","","","","","",""
"html-button-response-esp","11","237943","0.0-11.0-0.0","11704","János imád pehégedni, ezért sokat pehégszik. Ti ritkán...","0","pehégedtek","[""pehégedtek"",""pehégszetek""]","pehégedtek","esp trial","8","true"
"html-button-response","12","241461","0.0-11.0-1.0","null","<p>A másik játékos ezt választotta: <b>pehégedtek</b>.</p><p>&#x2705;</p><p>A te válaszod és a másik játékos válasza <b>megegyeznek</b>.</p>","null","","","","feedback trial","",""
"html-button-response-esp","13","250996","0.0-11.0-0.1","7732","János imád dirányozni, ezért sokat diránylik. Ők ritkán...","0","dirányoznak","[""dirányoznak"",""diránylanak""]","diránylanak","esp trial","8","false"
"html-button-response","14","254525","0.0-11.0-1.1","null","<p>A másik játékos ezt választotta: <b>diránylanak</b>.</p><p>&#10060;</p><p>A válaszaitok <b>nem</b> egyeznek meg.</p>","null","","","","feedback trial","",""
"html-button-response-esp","15","264319","0.0-11.0-0.2","9278","János imád tribejezni, ezért sokat tribejlik. Ti ritkán...","1","tribejeztek","[""tribejletek"",""tribejeztek""]","tribejletek","esp trial","8","false"
"html-button-response","16","267840","0.0-11.0-1.2","null","<p>A másik játékos ezt választotta: <b>tribejletek</b>.</p><p>&#10060;</p><p>A válaszaitok <b>nem</b> egyeznek meg.</p>","null","","","","feedback trial","",""
"html-button-response-esp","17","277902","0.0-11.0-0.3","9556","János imád spalározni, ezért sokat spalárzik. Ők ritkán...","0","spalárzanak","[""spalárzanak"",""spalároznak""]","spalárzanak","esp trial","8","true"
"html-button-response","18","281417","0.0-11.0-1.3","null","<p>A másik játékos ezt választotta: <b>spalárzanak</b>.</p><p>&#x2705;</p><p>A te válaszod és a másik játékos válasza <b>megegyeznek</b>.</p>","null","","","","feedback trial","",""
"html-button-response-esp","19","290948","0.0-11.0-0.4","7678","János imád bregezni, ezért sokat bregzik. Mi ritkán...","0","bregezünk","[""bregezünk"",""bregzünk""]","bregezünk","esp trial","8","true"
"html-button-response","20","294457","0.0-11.0-1.4","null","<p>A másik játékos ezt választotta: <b>bregezünk</b>.</p><p>&#x2705;</p><p>A te válaszod és a másik játékos válasza <b>megegyeznek</b>.</p>","null","","","","feedback trial","",""
"html-button-response-esp","21","304943","0.0-11.0-0.5","9972","János imád trírozni, ezért sokat trírzik. Mi ritkán...","0","trírzunk","[""trírzunk"",""trírozunk""]","trírzunk","esp trial","8","true"
"html-button-response","22","308460","0.0-11.0-1.5","null","<p>A másik játékos ezt választotta: <b>trírzunk</b>.</p><p>&#x2705;</p><p>A te válaszod és a másik játékos válasza <b>megegyeznek</b>.</p>","null","","","","feedback trial","",""
"html-button-response-esp","23","318601","0.0-11.0-0.6","9633","János imád livényezni, ezért sokat livénylik. Mi ritkán...","1","livényezünk","[""livénylünk"",""livényezünk""]","livényezünk","esp trial","8","true"
"html-button-response","24","322112","0.0-11.0-1.6","null","<p>A másik játékos ezt választotta: <b>livényezünk</b>.</p><p>&#x2705;</p><p>A te válaszod és a másik játékos válasza <b>megegyeznek</b>.</p>","null","","","","feedback trial","",""
"html-button-response-esp","25","332187","0.0-11.0-0.7","9568","János imád sztritozni, ezért sokat sztritlik. Ők ritkán...","1","sztritoznak","[""sztritlanak"",""sztritoznak""]","sztritlanak","esp trial","8","false"
"html-button-response","26","335692","0.0-11.0-1.7","null","<p>A másik játékos ezt választotta: <b>sztritlanak</b>.</p><p>&#10060;</p><p>A válaszaitok <b>nem</b> egyeznek meg.</p>","null","","","","feedback trial","",""
"html-button-response-esp","27","345248","0.0-11.0-0.8","8161","János imád flubokozni, ezért sokat fluboklik. Ti ritkán...","0","flubokoztok","[""flubokoztok"",""fluboklotok""]","fluboklotok","esp trial","8","false"
"html-button-response","28","348765","0.0-11.0-1.8","null","<p>A másik játékos ezt választotta: <b>fluboklotok</b>.</p><p>&#10060;</p><p>A válaszaitok <b>nem</b> egyeznek meg.</p>","null","","","","feedback trial","",""
"html-button-response-esp","29","358303","0.0-11.0-0.9","8786","János imád frihegezni, ezért sokat friheglik. Mi ritkán...","1","friheglünk","[""frihegezünk"",""friheglünk""]","friheglünk","esp trial","8","true"
"html-button-response","30","361810","0.0-11.0-1.9","null","<p>A másik játékos ezt választotta: <b>friheglünk</b>.</p><p>&#x2705;</p><p>A te válaszod és a másik játékos válasza <b>megegyeznek</b>.</p>","null","","","","feedback trial","",""
"html-button-response-esp","31","371363","0.0-11.0-0.10","8320","János imád küsözni, ezért sokat küslik. Mi ritkán...","0","küsözünk","[""küsözünk"",""küslünk""]","küsözünk","esp trial","8","true"
"html-button-response","32","374883","0.0-11.0-1.10","null","<p>A másik játékos ezt választotta: <b>küsözünk</b>.</p><p>&#x2705;</p><p>A te válaszod és a másik játékos válasza <b>megegyeznek</b>.</p>","null","","","","feedback trial","",""
"html-button-response-esp","33","384434","0.0-11.0-0.11","7834","János imád drivegezni, ezért sokat drivegzik. Ti ritkán...","0","drivegeztek","[""drivegeztek"",""drivegzetek""]","drivegzetek","esp trial","8","false"
"html-button-response","34","387951","0.0-11.0-1.11","null","<p>A másik játékos ezt választotta: <b>drivegzetek</b>.</p><p>&#10060;</p><p>A válaszaitok <b>nem</b> egyeznek meg.</p>","null","","","","feedback trial","",""
"html-button-response-esp","35","397510","0.0-11.0-0.12","7659","János imád sztrajozni, ezért sokat sztrajlik. Ők ritkán...","0","sztrajlanak","[""sztrajlanak"",""sztrajoznak""]","sztrajoznak","esp trial","8","false"
"html-button-response","36","401028","0.0-11.0-1.12","null","<p>A másik játékos ezt választotta: <b>sztrajoznak</b>.</p><p>&#10060;</p><p>A válaszaitok <b>nem</b> egyeznek meg.</p>","null","","","","feedback trial","",""
"html-button-response-esp","37","410580","0.0-11.0-0.13","8555","János imád mihágozni, ezért sokat mihágzik. Ti ritkán...","1","mihágoztok","[""mihágzotok"",""mihágoztok""]","mihágzotok","esp trial","8","false"
"html-button-response","38","414102","0.0-11.0-1.13","null","<p>A másik játékos ezt választotta: <b>mihágzotok</b>.</p><p>&#10060;</p><p>A válaszaitok <b>nem</b> egyeznek meg.</p>","null","","","","feedback trial","",""
"html-button-response-esp","39","423651","0.0-11.0-0.14","8543","János imád pekedni, ezért sokat pekszik. Mi ritkán...","0","pekszünk","[""pekszünk"",""pekedünk""]","pekedünk","esp trial","8","false"
"html-button-response","40","427154","0.0-11.0-1.14","null","<p>A másik játékos ezt választotta: <b>pekedünk</b>.</p><p>&#10060;</p><p>A válaszaitok <b>nem</b> egyeznek meg.</p>","null","","","","feedback trial","",""
"html-button-response-esp","41","436697","0.0-11.0-0.15","6038","János imád riványozni, ezért sokat riványlik. Ti ritkán...","0","riványoztok","[""riványoztok"",""riványlotok""]","riványlotok","esp trial","8","false"
"html-button-response","42","440217","0.0-11.0-1.15","null","<p>A másik játékos ezt választotta: <b>riványlotok</b>.</p><p>&#10060;</p><p>A válaszaitok <b>nem</b> egyeznek meg.</p>","null","","","","feedback trial","",""
"html-button-response-esp","43","449762","0.0-11.0-0.16","5287","János imád frivamozni, ezért sokat frivamlik. Mi ritkán...","0","frivamozunk","[""frivamozunk"",""frivamlunk""]","frivamozunk","esp trial","8","true"
"html-button-response","44","453269","0.0-11.0-1.16","null","<p>A másik játékos ezt választotta: <b>frivamozunk</b>.</p><p>&#x2705;</p><p>A te válaszod és a másik játékos válasza <b>megegyeznek</b>.</p>","null","","","","feedback trial","",""
"html-button-response-esp","45","462802","0.0-11.0-0.17","7749","János imád gyivepedni, ezért sokat gyivepszik. Ők ritkán...","1","gyivepednek","[""gyivepszenek"",""gyivepednek""]","gyivepszenek","esp trial","8","false"
"html-button-response","46","466315","0.0-11.0-1.17","null","<p>A másik játékos ezt választotta: <b>gyivepszenek</b>.</p><p>&#10060;</p><p>A válaszaitok <b>nem</b> egyeznek meg.</p>","null","","","","feedback trial","",""
"html-button-response-esp","47","475869","0.0-11.0-0.18","5177","János imád lírozni, ezért sokat lírlik. Ők ritkán...","0","líroznak","[""líroznak"",""lírlanak""]","lírlanak","esp trial","8","false"
"html-button-response","48","479395","0.0-11.0-1.18","null","<p>A másik játékos ezt választotta: <b>lírlanak</b>.</p><p>&#10060;</p><p>A válaszaitok <b>nem</b> egyeznek meg.</p>","null","","","","feedback trial","",""
"html-button-response-esp","49","488935","0.0-11.0-0.19","5383","János imád nágapodni, ezért sokat nágapszik. Ők ritkán...","0","nágapszanak","[""nágapszanak"",""nágapodnak""]","nágapszanak","esp trial","8","true"
"html-button-response","50","492439","0.0-11.0-1.19","null","<p>A másik játékos ezt választotta: <b>nágapszanak</b>.</p><p>&#x2705;</p><p>A te válaszod és a másik játékos válasza <b>megegyeznek</b>.</p>","null","","","","feedback trial","",""
"html-button-response-esp","51","501994","0.0-11.0-0.20","8672","János imád klarágozni, ezért sokat klarágzik. Ti ritkán...","1","klarágoztok","[""klarágzotok"",""klarágoztok""]","klarágzotok","esp trial","8","false"
"html-button-response","52","505510","0.0-11.0-1.20","null","<p>A másik játékos ezt választotta: <b>klarágzotok</b>.</p><p>&#10060;</p><p>A válaszaitok <b>nem</b> egyeznek meg.</p>","null","","","","feedback trial","",""
"html-button-response-esp","53","515055","0.0-11.0-0.21","7977","János imád gibemezni, ezért sokat gibemlik. Mi ritkán...","0","gibemlünk","[""gibemlünk"",""gibemezünk""]","gibemezünk","esp trial","8","false"
"html-button-response","54","518578","0.0-11.0-1.21","null","<p>A másik játékos ezt választotta: <b>gibemezünk</b>.</p><p>&#10060;</p><p>A válaszaitok <b>nem</b> egyeznek meg.</p>","null","","","","feedback trial","",""
"html-button-response-esp","55","528122","0.0-11.0-0.22","4724","János imád mísozni, ezért sokat míslik. Mi ritkán...","0","mísozunk","[""mísozunk"",""míslunk""]","míslunk","esp trial","8","false"
"html-button-response","56","531639","0.0-11.0-1.22","null","<p>A másik játékos ezt választotta: <b>míslunk</b>.</p><p>&#10060;</p><p>A válaszaitok <b>nem</b> egyeznek meg.</p>","null","","","","feedback trial","",""
"html-button-response-esp","57","541185","0.0-11.0-0.23","4388","János imád sponyozni, ezért sokat sponylik. Ők ritkán...","0","sponylanak","[""sponylanak"",""sponyoznak""]","sponyoznak","esp trial","8","false"
"html-button-response","58","544705","0.0-11.0-1.23","null","<p>A másik játékos ezt választotta: <b>sponyoznak</b>.</p><p>&#10060;</p><p>A válaszaitok <b>nem</b> egyeznek meg.</p>","null","","","","feedback trial","",""
"html-button-response-esp","59","554249","0.0-11.0-0.24","5660","János imád flézezni, ezért sokat flézlik. Ti ritkán...","0","flézeztek","[""flézeztek"",""flézletek""]","flézletek","esp trial","8","false"
"html-button-response","60","557757","0.0-11.0-1.24","null","<p>A másik játékos ezt választotta: <b>flézletek</b>.</p><p>&#10060;</p><p>A válaszaitok <b>nem</b> egyeznek meg.</p>","null","","","","feedback trial","",""
"html-button-response-esp","61","567297","0.0-11.0-0.25","4682","János imád fröjözni, ezért sokat fröjlik. Mi ritkán...","0","fröjözünk","[""fröjözünk"",""fröjlünk""]","fröjlünk","esp trial","8","false"
"html-button-response","62","570816","0.0-11.0-1.25","null","<p>A másik játékos ezt választotta: <b>fröjlünk</b>.</p><p>&#10060;</p><p>A válaszaitok <b>nem</b> egyeznek meg.</p>","null","","","","feedback trial","",""
"html-button-response-esp","63","580360","0.0-11.0-0.26","6770","János imád tűgözni, ezért sokat tűgzik. Ti ritkán...","1","tűgöztök","[""tűgzötök"",""tűgöztök""]","tűgzötök","esp trial","8","false"
"html-button-response","64","583866","0.0-11.0-1.26","null","<p>A másik játékos ezt választotta: <b>tűgzötök</b>.</p><p>&#10060;</p><p>A válaszaitok <b>nem</b> egyeznek meg.</p>","null","","","","feedback trial","",""
"html-button-response-esp","65","593413","0.0-11.0-0.27","3677","János imád kluzozni, ezért sokat kluzlik. Ti ritkán...","0","kluzlotok","[""kluzlotok"",""kluzoztok""]","kluzlotok","esp trial","8","true"
"html-button-response","66","596922","0.0-11.0-1.27","null","<p>A másik játékos ezt választotta: <b>kluzlotok</b>.</p><p>&#x2705;</p><p>A te válaszod és a másik játékos válasza <b>megegyeznek</b>.</p>","null","","","","feedback trial","",""
"html-button-response-esp","67","606471","0.0-11.0-0.28","6413","János imád spöközni, ezért sokat spöklik. Mi ritkán...","1","spöközünk","[""spöklünk"",""spöközünk""]","spöközünk","esp trial","8","true"
"html-button-response","68","609985","0.0-11.0-1.28","null","<p>A másik játékos ezt választotta: <b>spöközünk</b>.</p><p>&#x2705;</p><p>A te válaszod és a másik játékos válasza <b>megegyeznek</b>.</p>","null","","","","feedback trial","",""
"html-button-response-esp","69","619539","0.0-11.0-0.29","5920","János imád sprigozni, ezért sokat sprigzik. Ti ritkán...","0","sprigzotok","[""sprigzotok"",""sprigoztok""]","sprigzotok","esp trial","8","true"
"html-button-response","70","623046","0.0-11.0-1.29","null","<p>A másik játékos ezt választotta: <b>sprigzotok</b>.</p><p>&#x2705;</p><p>A te válaszod és a másik játékos válasza <b>megegyeznek</b>.</p>","null","","","","feedback trial","",""
"html-button-response-esp","71","632595","0.0-11.0-0.30","5595","János imád míjozni, ezért sokat míjzik. Mi ritkán...","1","míjzunk","[""míjozunk"",""míjzunk""]","míjzunk","esp trial","8","true"
"html-button-response","72","636103","0.0-11.0-1.30","null","<p>A másik játékos ezt választotta: <b>míjzunk</b>.</p><p>&#x2705;</p><p>A te válaszod és a másik játékos válasza <b>megegyeznek</b>.</p>","null","","","","feedback trial","",""
"html-button-response-esp","73","645661","0.0-11.0-0.31","4811","János imád trűnyözni, ezért sokat trűnylik. Ők ritkán...","0","trűnylenek","[""trűnylenek"",""trűnyöznek""]","trűnylenek","esp trial","8","true"
"html-button-response","74","649170","0.0-11.0-1.31","null","<p>A másik játékos ezt választotta: <b>trűnylenek</b>.</p><p>&#x2705;</p><p>A te válaszod és a másik játékos válasza <b>megegyeznek</b>.</p>","null","","","","feedback trial","",""
"html-button-response-esp","75","658721","0.0-11.0-0.32","4243","János imád brálamozni, ezért sokat brálamlik. Ők ritkán...","1","brálamlanak","[""brálamoznak"",""brálamlanak""]","brálamoznak","esp trial","8","false"
"html-button-response","76","662240","0.0-11.0-1.32","null","<p>A másik játékos ezt választotta: <b>brálamoznak</b>.</p><p>&#10060;</p><p>A válaszaitok <b>nem</b> egyeznek meg.</p>","null","","","","feedback trial","",""
"html-button-response-esp","77","671789","0.0-11.0-0.33","5562","János imád flivegezni, ezért sokat flivegzik. Ők ritkán...","1","flivegeznek","[""flivegzenek"",""flivegeznek""]","flivegzenek","esp trial","8","false"
"html-button-response","78","675307","0.0-11.0-1.33","null","<p>A másik játékos ezt választotta: <b>flivegzenek</b>.</p><p>&#10060;</p><p>A válaszaitok <b>nem</b> egyeznek meg.</p>","null","","","","feedback trial","",""
"html-button-response-esp","79","684863","0.0-11.0-0.34","4804","János imád prazozni, ezért sokat prazlik. Mi ritkán...","1","prazlunk","[""prazozunk"",""prazlunk""]","prazlunk","esp trial","8","true"
"html-button-response","80","688377","0.0-11.0-1.34","null","<p>A másik játékos ezt választotta: <b>prazlunk</b>.</p><p>&#x2705;</p><p>A te válaszod és a másik játékos válasza <b>megegyeznek</b>.</p>","null","","","","feedback trial","",""
"html-button-response-esp","81","697914","0.0-11.0-0.35","7092","János imád drojozni, ezért sokat drojzik. Mi ritkán...","1","drojzunk","[""drojozunk"",""drojzunk""]","drojzunk","esp trial","8","true"
"html-button-response","82","701435","0.0-11.0-1.35","null","<p>A másik játékos ezt választotta: <b>drojzunk</b>.</p><p>&#x2705;</p><p>A te válaszod és a másik játékos válasza <b>megegyeznek</b>.</p>","null","","","","feedback trial","",""
"html-button-response-esp","83","710982","0.0-11.0-0.36","7901","János imád brározni, ezért sokat brárlik. Ők ritkán...","0","brároznak","[""brároznak"",""brárlanak""]","brárlanak","esp trial","8","false"
"html-button-response","84","714496","0.0-11.0-1.36","null","<p>A másik játékos ezt választotta: <b>brárlanak</b>.</p><p>&#10060;</p><p>A válaszaitok <b>nem</b> egyeznek meg.</p>","null","","","","feedback trial","",""
"html-button-response-esp","85","724040","0.0-11.0-0.37","4798","János imád sprimozni, ezért sokat sprimlik. Mi ritkán...","1","sprimlunk","[""sprimozunk"",""sprimlunk""]","sprimlunk","esp trial","8","true"
"html-button-response","86","727555","0.0-11.0-1.37","null","<p>A másik játékos ezt választotta: <b>sprimlunk</b>.</p><p>&#x2705;</p><p>A te válaszod és a másik játékos válasza <b>megegyeznek</b>.</p>","null","","","","feedback trial","",""
"html-button-response-esp","87","737105","0.0-11.0-0.38","7370","János imád brilegezni, ezért sokat brilegzik. Mi ritkán...","0","brilegzünk","[""brilegzünk"",""brilegezünk""]","brilegzünk","esp trial","8","true"
"html-button-response","88","740623","0.0-11.0-1.38","null","<p>A másik játékos ezt választotta: <b>brilegzünk</b>.</p><p>&#x2705;</p><p>A te válaszod és a másik játékos válasza <b>megegyeznek</b>.</p>","null","","","","feedback trial","",""
"html-button-response-esp","89","750171","0.0-11.0-0.39","3267","János imád brivágozni, ezért sokat briváglik. Ők ritkán...","1","briváglanak","[""brivágoznak"",""briváglanak""]","briváglanak","esp trial","8","true"
"html-button-response","90","753688","0.0-11.0-1.39","null","<p>A másik játékos ezt választotta: <b>briváglanak</b>.</p><p>&#x2705;</p><p>A te válaszod és a másik játékos válasza <b>megegyeznek</b>.</p>","null","","","","feedback trial","",""
"html-button-response-esp","91","763225","0.0-11.0-0.40","3571","János imád frésezni, ezért sokat fréslik. Mi ritkán...","0","fréslünk","[""fréslünk"",""frésezünk""]","frésezünk","esp trial","8","false"
"html-button-response","92","766728","0.0-11.0-1.40","null","<p>A másik játékos ezt választotta: <b>frésezünk</b>.</p><p>&#10060;</p><p>A válaszaitok <b>nem</b> egyeznek meg.</p>","null","","","","feedback trial","",""
"html-button-response-esp","93","776287","0.0-11.0-0.41","3885","János imád pörözni, ezért sokat pörzik. Ti ritkán...","0","pörzötök","[""pörzötök"",""pöröztök""]","pörzötök","esp trial","8","true"
"html-button-response","94","779809","0.0-11.0-1.41","null","<p>A másik játékos ezt választotta: <b>pörzötök</b>.</p><p>&#x2705;</p><p>A te válaszod és a másik játékos válasza <b>megegyeznek</b>.</p>","null","","","","feedback trial","",""
"html-button-response-esp","95","789349","0.0-11.0-0.42","4287","János imád tibarozni, ezért sokat tibarzik. Ők ritkán...","0","tibarzanak","[""tibarzanak"",""tibaroznak""]","tibarzanak","esp trial","8","true"
"html-button-response","96","792854","0.0-11.0-1.42","null","<p>A másik játékos ezt választotta: <b>tibarzanak</b>.</p><p>&#x2705;</p><p>A te válaszod és a másik játékos válasza <b>megegyeznek</b>.</p>","null","","","","feedback trial","",""
"html-button-response-esp","97","802395","0.0-11.0-0.43","3893","János imád tágarozni, ezért sokat tágarzik. Mi ritkán...","1","tágarozunk","[""tágarzunk"",""tágarozunk""]","tágarzunk","esp trial","8","false"
"html-button-response","98","805912","0.0-11.0-1.43","null","<p>A másik játékos ezt választotta: <b>tágarzunk</b>.</p><p>&#10060;</p><p>A válaszaitok <b>nem</b> egyeznek meg.</p>","null","","","","feedback trial","",""
"html-button-response-esp","99","815455","0.0-11.0-0.44","3533","János imád gatágozni, ezért sokat gatáglik. Mi ritkán...","0","gatáglunk","[""gatáglunk"",""gatágozunk""]","gatáglunk","esp trial","8","true"
"html-button-response","100","818963","0.0-11.0-1.44","null","<p>A másik játékos ezt választotta: <b>gatáglunk</b>.</p><p>&#x2705;</p><p>A te válaszod és a másik játékos válasza <b>megegyeznek</b>.</p>","null","","","","feedback trial","",""
"html-button-response-esp","101","828521","0.0-11.0-0.45","2233","János imád filányozni, ezért sokat filánylik. Mi ritkán...","0","filánylunk","[""filánylunk"",""filányozunk""]","filánylunk","esp trial","8","true"
"html-button-response","102","832049","0.0-11.0-1.45","null","<p>A másik játékos ezt választotta: <b>filánylunk</b>.</p><p>&#x2705;</p><p>A te válaszod és a másik játékos válasza <b>megegyeznek</b>.</p>","null","","","","feedback trial","",""
"html-button-response-esp","103","841584","0.0-11.0-0.46","4452","János imád galározni, ezért sokat galárzik. Ők ritkán...","0","galárzanak","[""galárzanak"",""galároznak""]","galárzanak","esp trial","8","true"
"html-button-response","104","845097","0.0-11.0-1.46","null","<p>A másik játékos ezt választotta: <b>galárzanak</b>.</p><p>&#x2705;</p><p>A te válaszod és a másik játékos válasza <b>megegyeznek</b>.</p>","null","","","","feedback trial","",""
"html-button-response-esp","105","854644","0.0-11.0-0.47","7373","János imád brivepedni, ezért sokat brivepszik. Mi ritkán...","1","brivepszünk","[""brivepedünk"",""brivepszünk""]","brivepedünk","esp trial","8","false"
"html-button-response","106","858151","0.0-11.0-1.47","null","<p>A másik játékos ezt választotta: <b>brivepedünk</b>.</p><p>&#10060;</p><p>A válaszaitok <b>nem</b> egyeznek meg.</p>","null","","","","feedback trial","",""
"html-button-response-esp","107","867691","0.0-11.0-0.48","8914","János imád hákodni, ezért sokat hákszik. Ők ritkán...","1","hákodnak","[""hákszanak"",""hákodnak""]","hákszanak","esp trial","8","false"
"html-button-response","108","871201","0.0-11.0-1.48","null","<p>A másik játékos ezt választotta: <b>hákszanak</b>.</p><p>&#10060;</p><p>A válaszaitok <b>nem</b> egyeznek meg.</p>","null","","","","feedback trial","",""
"html-button-response-esp","109","880755","0.0-11.0-0.49","4596","János imád spibamozni, ezért sokat spibamlik. Ők ritkán...","0","spibamlanak","[""spibamlanak"",""spibamoznak""]","spibamoznak","esp trial","8","false"
"html-button-response","110","884267","0.0-11.0-1.49","null","<p>A másik játékos ezt választotta: <b>spibamoznak</b>.</p><p>&#10060;</p><p>A válaszaitok <b>nem</b> egyeznek meg.</p>","null","","","","feedback trial","",""
"html-button-response-esp","111","893807","0.0-11.0-0.50","4663","János imád prilepedni, ezért sokat prilepszik. Mi ritkán...","0","prilepszünk","[""prilepszünk"",""prilepedünk""]","prilepedünk","esp trial","8","false"
"html-button-response","112","897316","0.0-11.0-1.50","null","<p>A másik játékos ezt választotta: <b>prilepedünk</b>.</p><p>&#10060;</p><p>A válaszaitok <b>nem</b> egyeznek meg.</p>","null","","","","feedback trial","",""
"html-button-response-esp","113","906857","0.0-11.0-0.51","3299","János imád lumozni, ezért sokat lumlik. Ti ritkán...","0","lumlotok","[""lumlotok"",""lumoztok""]","lumlotok","esp trial","8","true"
"html-button-response","114","910378","0.0-11.0-1.51","null","<p>A másik játékos ezt választotta: <b>lumlotok</b>.</p><p>&#x2705;</p><p>A te válaszod és a másik játékos válasza <b>megegyeznek</b>.</p>","null","","","","feedback trial","",""
"html-button-response-esp","115","919919","0.0-11.0-0.52","6857","János imád vobozni, ezért sokat vobzik. Ti ritkán...","1","voboztok","[""vobzotok"",""voboztok""]","vobzotok","esp trial","8","false"
"html-button-response","116","923434","0.0-11.0-1.52","null","<p>A másik játékos ezt választotta: <b>vobzotok</b>.</p><p>&#10060;</p><p>A válaszaitok <b>nem</b> egyeznek meg.</p>","null","","","","feedback trial","",""
"html-button-response-esp","117","933329","0.0-11.0-0.53","9386","János imád brüszözni, ezért sokat brüszlik. Ti ritkán...","1","brüszlötök","[""brüszöztök"",""brüszlötök""]","brüszlötök","esp trial","8","true"
"html-button-response","118","936847","0.0-11.0-1.53","null","<p>A másik játékos ezt választotta: <b>brüszlötök</b>.</p><p>&#x2705;</p><p>A te válaszod és a másik játékos válasza <b>megegyeznek</b>.</p>","null","","","","feedback trial","",""
"html-button-response","119","948927","0.0-12.0","11577","<p>A közös játék most véget ért.</p><p>Mielőtt eláruljuk a végső pontszámodat, arra kérlek, játszd a szóválasztós játékot néhány percig egyedül is.</p><p>A feladatod ugyanaz lesz, választani két lehetőség közül.</p><p>Most viszont egyedül kell döntened, hogy te melyiket választanád.</p>","0","","","","","",""
"html-button-response-clever","120","956063","0.0-13.0-0.0","6620","János imád flugonyozni, ezért sokat flugonylik. Ők ritkán...","1","flugonyoznak","[""flugonylanak"",""flugonyoznak""]","","posttest trial","1",""
"html-button-response-clever","121","965262","0.0-13.0-0.1","8690","János imád vihapodni, ezért sokat vihapszik. Mi ritkán...","1","vihapszunk","[""vihapodunk"",""vihapszunk""]","","posttest trial","1",""
"html-button-response-clever","122","970480","0.0-13.0-0.2","4703","János imád gihamozni, ezért sokat gihamlik. Ők ritkán...","0","gihamoznak","[""gihamoznak"",""gihamlanak""]","","posttest trial","1",""
"html-button-response-clever","123","976877","0.0-13.0-0.3","5881","János imád sprebezni, ezért sokat sprebzik. Ők ritkán...","1","sprebeznek","[""sprebzenek"",""sprebeznek""]","","posttest trial","1",""
"html-button-response-clever","124","981303","0.0-13.0-0.4","3920","János imád hubonyozni, ezért sokat hubonylik. Ti ritkán...","0","hubonyoztok","[""hubonyoztok"",""hubonylotok""]","","posttest trial","1",""
"html-button-response-clever","125","989252","0.0-13.0-0.5","7435","János imád nyöbözni, ezért sokat nyöbzik. Ők ritkán...","1","nyöböznek","[""nyöbzenek"",""nyöböznek""]","","posttest trial","1",""
"html-button-response-clever","126","998686","0.0-13.0-0.6","8928","János imád pibegezni, ezért sokat pibegzik. Ők ritkán...","1","pibegzenek","[""pibegeznek"",""pibegzenek""]","","posttest trial","1",""
"html-button-response-clever","127","1009408","0.0-13.0-0.7","10210","János imád brürözni, ezért sokat brürzik. Ők ritkán...","0","brüröznek","[""brüröznek"",""brürzenek""]","","posttest trial","1",""
"html-button-response-clever","128","1019121","0.0-13.0-0.8","9208","János imád klihasozni, ezért sokat klihaslik. Ti ritkán...","0","klihaslotok","[""klihaslotok"",""klihasoztok""]","","posttest trial","1",""
"html-button-response-clever","129","1030229","0.0-13.0-0.9","10597","János imád kláragodni, ezért sokat kláragszik. Ti ritkán...","0","kláragszotok","[""kláragszotok"",""kláragodtok""]","","posttest trial","1",""
"html-button-response-clever","130","1038405","0.0-13.0-0.10","7664","János imád frélegezni, ezért sokat frélegzik. Mi ritkán...","0","frélegzünk","[""frélegzünk"",""frélegezünk""]","","posttest trial","1",""
"html-button-response-clever","131","1051122","0.0-13.0-0.11","12215","János imád klégezni, ezért sokat kléglik. Mi ritkán...","0","klégezünk","[""klégezünk"",""kléglünk""]","","posttest trial","1",""
"html-button-response-clever","132","1057240","0.0-13.0-0.12","5612","János imád klűmözni, ezért sokat klűmlik. Ti ritkán...","0","klűmöztök","[""klűmöztök"",""klűmlötök""]","","posttest trial","1",""
"html-button-response-clever","133","1067385","0.0-13.0-0.13","9635","János imád nyádozni, ezért sokat nyádlik. Ők ritkán...","1","nyádoznak","[""nyádlanak"",""nyádoznak""]","","posttest trial","1",""
"html-button-response-clever","134","1077390","0.0-13.0-0.14","9490","János imád bribékedni, ezért sokat bribékszik. Ti ritkán...","1","bribékszetek","[""bribékedtek"",""bribékszetek""]","","posttest trial","1",""
"html-button-response-clever","135","1087504","0.0-13.0-0.15","9612","János imád dralágozni, ezért sokat dralágzik. Mi ritkán...","1","dralágzunk","[""dralágozunk"",""dralágzunk""]","","posttest trial","1",""
"html-button-response-clever","136","1093971","0.0-13.0-0.16","5954","János imád hiragozni, ezért sokat hiragzik. Ők ritkán...","0","hiragoznak","[""hiragoznak"",""hiragzanak""]","","posttest trial","1",""
"html-button-response-clever","137","1099964","0.0-13.0-0.17","5488","János imád tögözni, ezért sokat töglik. Ők ritkán...","1","töglenek","[""tögöznek"",""töglenek""]","","posttest trial","1",""
"html-button-response-clever","138","1108680","0.0-13.0-0.18","8208","János imád spivejezni, ezért sokat spivejlik. Ők ritkán...","0","spivejlenek","[""spivejlenek"",""spivejeznek""]","","posttest trial","1",""
"html-button-response-clever","139","1114050","0.0-13.0-0.19","4855","János imád trilekedni, ezért sokat trilekszik. Ti ritkán...","0","trilekszetek","[""trilekszetek"",""trilekedtek""]","","posttest trial","1",""
"html-button-response-clever","140","1119848","0.0-13.0-0.20","5294","János imád trálodni, ezért sokat trálszik. Mi ritkán...","0","trálodunk","[""trálodunk"",""trálszunk""]","","posttest trial","1",""
"html-button-response-clever","141","1128214","0.0-13.0-0.21","7850","János imád metégedni, ezért sokat metégszik. Ők ritkán...","0","metégszenek","[""metégszenek"",""metégednek""]","","posttest trial","1",""
"html-button-response-clever","142","1135636","0.0-13.0-0.22","6920","János imád prugorozni, ezért sokat prugorzik. Ti ritkán...","0","prugoroztok","[""prugoroztok"",""prugorzotok""]","","posttest trial","1",""
"html-button-response-clever","143","1146473","0.0-13.0-0.23","10329","János imád spuborozni, ezért sokat spuborzik. Ők ritkán...","0","spuborzanak","[""spuborzanak"",""spuboroznak""]","","posttest trial","1",""
"html-button-response-clever","144","1153443","0.0-13.0-0.24","6456","János imád frinyozni, ezért sokat frinylik. Mi ritkán...","0","frinyozunk","[""frinyozunk"",""frinylunk""]","","posttest trial","1",""
"html-button-response-clever","145","1159964","0.0-13.0-0.25","6006","János imád vehékedni, ezért sokat vehékszik. Mi ritkán...","0","vehékszünk","[""vehékszünk"",""vehékedünk""]","","posttest trial","1",""
"html-button-response-clever","146","1165886","0.0-13.0-0.26","5416","János imád játozni, ezért sokat játlik. Mi ritkán...","0","játlunk","[""játlunk"",""játozunk""]","","posttest trial","1",""
"html-button-response-clever","147","1171552","0.0-13.0-0.27","5160","János imád nurokozni, ezért sokat nuroklik. Mi ritkán...","1","nuroklunk","[""nurokozunk"",""nuroklunk""]","","posttest trial","1",""
"html-button-response-clever","148","1179928","0.0-13.0-0.28","7867","János imád vilesezni, ezért sokat vileslik. Mi ritkán...","0","vileslünk","[""vileslünk"",""vilesezünk""]","","posttest trial","1",""
"html-button-response-clever","149","1197535","0.0-13.0-0.29","17092","János imád frorozni, ezért sokat frorlik. Ők ritkán...","0","froroznak","[""froroznak"",""frorlanak""]","","posttest trial","1",""
"html-button-response-clever","150","1202788","0.0-13.0-0.30","4747","János imád frirozni, ezért sokat frirzik. Mi ritkán...","0","frirozunk","[""frirozunk"",""frirzunk""]","","posttest trial","1",""
"html-button-response-clever","151","1209214","0.0-13.0-0.31","5914","János imád trukodni, ezért sokat trukszik. Ti ritkán...","0","trukszotok","[""trukszotok"",""trukodtok""]","","posttest trial","1",""
"html-button-response-clever","152","1216302","0.0-13.0-0.32","6584","János imád dibágozni, ezért sokat dibáglik. Ti ritkán...","0","dibágoztok","[""dibágoztok"",""dibáglotok""]","","posttest trial","1",""
"html-button-response-clever","153","1224700","0.0-13.0-0.33","7886","János imád döjözni, ezért sokat döjlik. Ők ritkán...","0","döjlenek","[""döjlenek"",""döjöznek""]","","posttest trial","1",""
"html-button-response-clever","154","1236475","0.0-13.0-0.34","11266","János imád bötőrözni, ezért sokat bötőrzik. Mi ritkán...","0","bötőrözünk","[""bötőrözünk"",""bötőrzünk""]","","posttest trial","1",""
"html-button-response-clever","155","1241596","0.0-13.0-0.35","4617","János imád bresezni, ezért sokat breslik. Ők ritkán...","0","breseznek","[""breseznek"",""breslenek""]","","posttest trial","1",""
"html-button-response-clever","156","1250212","0.0-13.0-0.36","8103","János imád flátozni, ezért sokat flátlik. Ti ritkán...","1","flátoztok","[""flátlotok"",""flátoztok""]","","posttest trial","1",""
"html-button-response-clever","157","1257051","0.0-13.0-0.37","6332","János imád bügözni, ezért sokat bügzik. Ők ritkán...","0","bügöznek","[""bügöznek"",""bügzenek""]","","posttest trial","1",""
"html-button-response-clever","158","1262848","0.0-13.0-0.38","5295","János imád brűközni, ezért sokat brűklik. Ti ritkán...","0","brűköztök","[""brűköztök"",""brűklötök""]","","posttest trial","1",""
"html-button-response-clever","159","1270112","0.0-13.0-0.39","6758","János imád prihegedni, ezért sokat prihegszik. Ők ritkán...","0","prihegednek","[""prihegednek"",""prihegszenek""]","","posttest trial","1",""
"html-button-response-clever","160","1276796","0.0-13.0-0.40","6182","János imád flerékedni, ezért sokat flerékszik. Mi ritkán...","0","flerékszünk","[""flerékszünk"",""flerékedünk""]","","posttest trial","1",""
"html-button-response-clever","161","1282174","0.0-13.0-0.41","4865","János imád sztredezni, ezért sokat sztredlik. Ti ritkán...","1","sztredeztek","[""sztredletek"",""sztredeztek""]","","posttest trial","1",""
"html-button-response-clever","162","1287328","0.0-13.0-0.42","4639","János imád nivározni, ezért sokat nivárzik. Ti ritkán...","0","nivárzotok","[""nivárzotok"",""nivároztok""]","","posttest trial","1",""
"html-button-response-clever","163","1292598","0.0-13.0-0.43","4765","János imád trálakozni, ezért sokat trálaklik. Ők ritkán...","0","trálakoznak","[""trálakoznak"",""trálaklanak""]","","posttest trial","1",""
"html-button-response-clever","164","1295966","0.0-13.0-0.44","2865","János imád plibozni, ezért sokat plibzik. Ti ritkán...","0","pliboztok","[""pliboztok"",""plibzotok""]","","posttest trial","1",""
"html-button-response-clever","165","1304264","0.0-13.0-0.45","7787","János imád nyizozni, ezért sokat nyizlik. Mi ritkán...","0","nyizozunk","[""nyizozunk"",""nyizlunk""]","","posttest trial","1",""
"html-button-response-clever","166","1312312","0.0-13.0-0.46","7540","János imád bejezni, ezért sokat bejzik. Mi ritkán...","0","bejezünk","[""bejezünk"",""bejzünk""]","","posttest trial","1",""
"html-button-response-clever","167","1317017","0.0-13.0-0.47","4189","János imád flodozni, ezért sokat flodlik. Ti ritkán...","1","flodoztok","[""flodlotok"",""flodoztok""]","","posttest trial","1",""
"html-button-response-clever","168","1323293","0.0-13.0-0.48","5770","János imád nyülöközni, ezért sokat nyülöklik. Ők ritkán...","0","nyülököznek","[""nyülököznek"",""nyülöklenek""]","","posttest trial","1",""
"html-button-response-clever","169","1335448","0.0-13.0-0.49","11640","János imád bribasozni, ezért sokat bribaslik. Ők ritkán...","0","bribasoznak","[""bribasoznak"",""bribaslanak""]","","posttest trial","1",""
"html-button-response-clever","170","1342140","0.0-13.0-0.50","6189","János imád sűjözni, ezért sokat sűjlik. Mi ritkán...","0","sűjlünk","[""sűjlünk"",""sűjözünk""]","","posttest trial","1",""
"html-button-response-clever","171","1357268","0.0-13.0-0.51","14625","János imád ribegedni, ezért sokat ribegszik. Ti ritkán...","1","ribegedtek","[""ribegszetek"",""ribegedtek""]","","posttest trial","1",""
"html-button-response-clever","172","1365773","0.0-13.0-0.52","8001","János imád géregezni, ezért sokat géreglik. Ti ritkán...","1","géregeztek","[""géregletek"",""géregeztek""]","","posttest trial","1",""
"html-button-response-clever","173","1371922","0.0-13.0-0.53","5640","János imád jurozni, ezért sokat jurlik. Mi ritkán...","1","jurozunk","[""jurlunk"",""jurozunk""]","","posttest trial","1",""
"html-button-response","174","1379078","0.0-14.0","6651","<p> Vége a játéknak. A teljes pontszámod 26/54.</p><p> Szép munka! &#128526;&#128526;&#128526;</p><p>A Befejezés gomb megnyomása után bezárhatod a böngészőablakot.</p>","0","","","","","",""
"html-keyboard-response","175","1384596","0.0-15.0","null","<div class=""message"">
         <p>Egy kis türelmet kérünk, amíg elmentjük az adatokat...</p>
         </div>","null","","","","","",""
