"trial_type","trial_index","time_elapsed","internal_node_id","rt","stimulus","response","response_string","choices","esp_response","trial_kind","list_number","esp_match"
"pavlovia","0","1267","0.0-0.0","","","","","","","","",""
"html-button-response","1","36470","0.0-1.0","34688","<p>Kedves Résztvevő! A Budapesti Műszaki és Gazdaságtudományi Egyetem Kognitív Tudományi Tanszékének kutatásában való részvételed kérjük. A kutatásban azt vizsgáljuk, hogy a magyar anyanyelvűek hogyan használnak bizonyos szóalakokat, és hogy milyen képük van arról, hogy mások hogyan használják, hogyan képzik a szavakat. Ez hozzásegít bennünket ahhoz, hogy jobban megértsük, hogyan dolgozza fel és tárolja a nyelvet az emberi agy, és hogyan működnek, hogyan változnak egy adott közösség nyelvi konvenciói.</p><p>A vizsgálat egy rövid számítógépes feladatból fog állni. A kutatásban való részvétel önkéntes, a részvételi szándék bármikor visszavonható. A résztvevők eredményeit név nélkül kezeljük, így nem beazonosíthatók az adatok feldolgozása során. Minden személyes adatot az EU általános adatvédelmi rendeletének (GDPR) megfelelően kezelünk és legfeljebb öt éven belül megsemmisítünk. A vizsgálat jellemzően húsz percet vesz igénybe.</p><p>Kutatásvezető:</p><p>Dr. Rácz Péter, tudományos munkatárs, BME KTT</p><p>e-mail: racz.peter.marton@ttk.bme.hu</p>","0","","","","","",""
"html-button-response","2","92392","0.0-2.0","55412","<p>A kísérletben szavakat fogsz látni. Ezek között lesznek olyanok, amelyeket ismersz, de előfordulhatnak olyanok is, amelyeket nem ismersz, sőt, vannak köztük kitalált szavak is. Minden szónál látni fogsz toldalékolt alakokat. A te feladatod az lesz, hogy minden szóhoz kiválaszd azt a toldalékolt alakot, amely a te számodra ismerősebben, természetesebben hangzik. Rossz válaszok nincsenek, mert van olyan, hogy különböző embereknek más és más szó tűnik jobb választásnak. A választ úgy tudod majd kiválasztani, ha rákattintasz.</p><p>Ebben a szóválasztós játékban egy másik játékossal együtt veszel majd részt. A másik játékos is minden esetben azok közül a lehetőségek közül válogathat, mint te. Kettőtök feladata az, hogy ugyanazt a lehetőséget válasszátok minden esetben. Ahhoz, hogy ez sikerüljön, neked figyelned kell arra, hogy a másik játékos milyen válaszokat ad, és ennek alapján meg kell tippelned, hogyan választ legközelebb. Ha eltalálod, akkor pontot kapsz.</p>","0","","","","","",""
"html-button-response","3","136745","0.0-3.0","43839","<p>Kérjük, olvasd el az alábbi nyilatkozatot, és amennyiben egyetértesz vele, nyomj a Beleegyezés gombra!</p><p>Kijelentem, hogy magyar anyanyelvű személyként önként veszek részt a BME KTT kísérletében. A kutatás céljával és folyamatával kapcsolatban elegendő tájékoztatást kaptam, lehetőségem volt kérdések feltételére, és esetleges kérdéseimre megfelelő válaszokat kaptam. A tájékoztatás alapján elegendő mennyiségű információ áll a rendelkezésemre, hogy eldönthessem, részt kívánok-e venni a kutatásban.</p><p>Tisztában vagyok vele, hogy részvételi szándékomat és adataimat bármikor, indoklás nélkül visszavonhatom.</p><p>Értem és tudomásul veszem, hogy a kutatás tudományos célokat szolgál, és az általam szolgáltatott adatokat a BME kizárólag kutatási célból használja fel. Tudomásul veszem, hogy eredményeimet a többi résztvevő eredményeivel együtt kezelik, így egyéni teljesítményemről visszajelzést, szakvéleményt nem kapok.</p><p>Megértettem, hogy adataim kezelését illetően a BME az EU általános adatvédelmi rendelete (GDPR), a hatályos adatvédelmi törvény és a nemzetközi kutatás-etikai alapelvek szerint jár el. Eredményeim anonim módon kerülnek feldolgozásra, és a kutatás résztvevői az azonosításomra alkalmas adataimat harmadik félnek nem szolgáltatják ki. Engedélyezem a BME számára a jelen kutatásban felvett adataim feldolgozását és tárolását, beleértve azok későbbi kutatásokhoz való felhasználását is. Személyes adataim kezelésével kapcsolatban tájékoztatást kérhetek a kutatás résztvevőitől, az adatkezelés ellen tiltakozhatok, kérhetem személyes adataim helyesbítését, törlését vagy zárolását, valamint jogorvoslatért a Nemzeti Adatvédelmi és Információszabadság Hatósághoz fordulhatok.</p><p>Kijelentem, hogy a kutatásban való részvételem körülményeiről részletes tájékoztatást kaptam, és a feltételeket elfogadom.</p>","0","","","","","",""
"survey-text","4","168877","0.0-4.0","31569","","{""Q0"":""MQ5C6M"",""Q1"":""nő"",""Q2"":""1975"",""Q3"":""18""}","","","","","",""
"html-button-response","5","195687","0.0-5.0","26303","<p>Ebben a játékban szavakat kell toldalékolni.</p> <p>Minden körben mutatunk majd egy példamondatot, amiben lesz egy szó.</p> <p>Alatta jön egy második mondat, ezt a mondatot neked kell majd befejezni, ugyanezzel a szóval.</p> <p>Nem biztos, hogy a szó eleve ismerős lesz számodra!</p> <p>Minden mondathoz adunk két lehetőséget, ezeket balra és jobbra látod majd.</p> <p>A játék kb. negyedóráig-húsz percig tart.</p>","0","","","","","",""
"html-button-response","6","226330","0.0-6.0","30126","<p>Nézzünk egy példát!</p> <p>A példamondat: ""Ez itt egy blumbnyeg.""</p><p>Neked ezt a mondatot kell befejezned: ""Ott vagyunk a...""</p><p>A lehetőségek pedig ezek:</p>","0","","","","","",""
"html-button-response","7","240993","0.0-7.0","14155","<p>Nagyon jó.</p><p>Ezt a játékot nem egyedül fogod játszani, hanem egy másik játékossal.</p><p>Mielőtt továbblépünk, összekapcsolunk titeket egymással.</p><p>Ez igénybe vehet néhány másodpercet, amihez szíves türelmed kérjük.</p>","0","","","","","",""
"html-button-response","8","246729","0.0-8.0","null","<p>Csatlakozás a másik játékoshoz...</p>","null","","","","","",""
"html-button-response","9","249238","0.0-9.0","null","<p> Sikeres kapcsolódás!</p>","null","","","","","",""
"html-button-response","10","259754","0.0-10.0","null","<p>A következőkben ketten játsszátok a szóválasztós játékot.</p><p>A feladatotok az lesz, hogy minden körben <b>ugyanazt</b> a szót válasszátok.</p><p>Minden ilyen egyező válaszért pontot kaptok.</p><p>Próbáld meg kitalálni, mit választ a másik játékos!</p><p>Bármikor választhatsz, a körnek akkor van vége, ha mindketten döntöttetek.</p><p>Sok sikert!</p>","null","","","","","",""
"html-button-response-esp","11","266130","0.0-11.0-0.0","5858","Ez itt egy bupéz. Ott vagyunk a...","0","bupézben","[""bupézben"",""bupézban""]","bupézben","esp trial","0","true"
"html-button-response","12","269649","0.0-11.0-1.0","null","<p>A másik játékos ezt választotta: <b>bupézben</b>.</p><p>&#x2705;</p><p>A te válaszod és a másik játékos válasza <b>megegyeznek</b>.</p>","null","","","","feedback trial","",""
"html-button-response-esp","13","275063","0.0-11.0-0.1","3322","Ez itt egy lorzens. Nincs is jobb egy jó...","0","lorzensnál","[""lorzensnál"",""lorzensnél""]","lorzensnál","esp trial","0","true"
"html-button-response","14","278569","0.0-11.0-1.1","null","<p>A másik játékos ezt választotta: <b>lorzensnál</b>.</p><p>&#x2705;</p><p>A te válaszod és a másik játékos válasza <b>megegyeznek</b>.</p>","null","","","","feedback trial","",""
"html-button-response-esp","15","283988","0.0-11.0-0.2","3069","Ez itt egy nyítem. Ott vagyunk a...","0","nyítemban","[""nyítemban"",""nyítemben""]","nyítemban","esp trial","0","true"
"html-button-response","16","287495","0.0-11.0-1.2","null","<p>A másik játékos ezt választotta: <b>nyítemban</b>.</p><p>&#x2705;</p><p>A te válaszod és a másik játékos válasza <b>megegyeznek</b>.</p>","null","","","","feedback trial","",""
"html-button-response-esp","17","292915","0.0-11.0-0.3","3771","Ez itt egy zsúdel. Elneveztem a kutyámat...","1","zsúdelnek","[""zsúdelnak"",""zsúdelnek""]","zsúdelnak","esp trial","0","false"
"html-button-response","18","296422","0.0-11.0-1.3","null","<p>A másik játékos ezt választotta: <b>zsúdelnak</b>.</p><p>&#10060;</p><p>A válaszaitok <b>nem</b> egyeznek meg.</p>","null","","","","feedback trial","",""
"html-button-response-esp","19","301843","0.0-11.0-0.4","3374","Ez itt egy zsádév. Elneveztem a kutyámat...","0","zsádévnak","[""zsádévnak"",""zsádévnek""]","zsádévnek","esp trial","0","false"
"html-button-response","20","305361","0.0-11.0-1.4","null","<p>A másik játékos ezt választotta: <b>zsádévnek</b>.</p><p>&#10060;</p><p>A válaszaitok <b>nem</b> egyeznek meg.</p>","null","","","","feedback trial","",""
"html-button-response-esp","21","310779","0.0-11.0-0.5","3791","Ez itt egy bralkép. Ott vagyunk a...","0","bralképban","[""bralképban"",""bralképben""]","bralképban","esp trial","0","true"
"html-button-response","22","314287","0.0-11.0-1.5","null","<p>A másik játékos ezt választotta: <b>bralképban</b>.</p><p>&#x2705;</p><p>A te válaszod és a másik játékos válasza <b>megegyeznek</b>.</p>","null","","","","feedback trial","",""
"html-button-response-esp","23","319693","0.0-11.0-0.6","3074","Ez itt egy pisély. Ott vagyunk a...","0","pisélyban","[""pisélyban"",""pisélyben""]","pisélyban","esp trial","0","true"
"html-button-response","24","323204","0.0-11.0-1.6","null","<p>A másik játékos ezt választotta: <b>pisélyban</b>.</p><p>&#x2705;</p><p>A te válaszod és a másik játékos válasza <b>megegyeznek</b>.</p>","null","","","","feedback trial","",""
"html-button-response-esp","25","328621","0.0-11.0-0.7","3537","Ez itt egy sortem. Nincs is jobb egy jó...","0","sortemnél","[""sortemnél"",""sortemnál""]","sortemnál","esp trial","0","false"
"html-button-response","26","332149","0.0-11.0-1.7","null","<p>A másik játékos ezt választotta: <b>sortemnál</b>.</p><p>&#10060;</p><p>A válaszaitok <b>nem</b> egyeznek meg.</p>","null","","","","feedback trial","",""
"html-button-response-esp","27","337561","0.0-11.0-0.8","3878","Ez itt egy zsáder. Ott vagyunk a...","0","zsáderben","[""zsáderben"",""zsáderban""]","zsáderban","esp trial","0","false"
"html-button-response","28","341068","0.0-11.0-1.8","null","<p>A másik játékos ezt választotta: <b>zsáderban</b>.</p><p>&#10060;</p><p>A válaszaitok <b>nem</b> egyeznek meg.</p>","null","","","","feedback trial","",""
"html-button-response-esp","29","346475","0.0-11.0-0.9","4047","Ez itt egy nyamet. Ott vagyunk a...","0","nyametben","[""nyametben"",""nyametban""]","nyametban","esp trial","0","false"
"html-button-response","30","349982","0.0-11.0-1.9","null","<p>A másik játékos ezt választotta: <b>nyametban</b>.</p><p>&#10060;</p><p>A válaszaitok <b>nem</b> egyeznek meg.</p>","null","","","","feedback trial","",""
"html-button-response-esp","31","355668","0.0-11.0-0.10","5177","Ez itt egy kátel. Elneveztem a kutyámat...","1","kátelnek","[""kátelnak"",""kátelnek""]","kátelnak","esp trial","0","false"
"html-button-response","32","359183","0.0-11.0-1.10","null","<p>A másik játékos ezt választotta: <b>kátelnak</b>.</p><p>&#10060;</p><p>A válaszaitok <b>nem</b> egyeznek meg.</p>","null","","","","feedback trial","",""
"html-button-response-esp","33","364602","0.0-11.0-0.11","3601","Ez itt egy narem. Ott vagyunk a...","0","naremban","[""naremban"",""naremben""]","naremban","esp trial","0","true"
"html-button-response","34","368133","0.0-11.0-1.11","null","<p>A másik játékos ezt választotta: <b>naremban</b>.</p><p>&#x2705;</p><p>A te válaszod és a másik játékos válasza <b>megegyeznek</b>.</p>","null","","","","feedback trial","",""
"html-button-response-esp","35","373546","0.0-11.0-0.12","3529","Ez itt egy rapszek. Nincs is jobb egy jó...","0","rapszeknél","[""rapszeknél"",""rapszeknál""]","rapszeknál","esp trial","0","false"
"html-button-response","36","377059","0.0-11.0-1.12","null","<p>A másik játékos ezt választotta: <b>rapszeknál</b>.</p><p>&#10060;</p><p>A válaszaitok <b>nem</b> egyeznek meg.</p>","null","","","","feedback trial","",""
"html-button-response-esp","37","382579","0.0-11.0-0.13","5005","Ez itt egy ronszek. Ott vagyunk a...","1","ronszekben","[""ronszekban"",""ronszekben""]","ronszekban","esp trial","0","false"
"html-button-response","38","386093","0.0-11.0-1.13","null","<p>A másik játékos ezt választotta: <b>ronszekban</b>.</p><p>&#10060;</p><p>A válaszaitok <b>nem</b> egyeznek meg.</p>","null","","","","feedback trial","",""
"html-button-response-esp","39","392156","0.0-11.0-0.14","5548","Ez itt egy trismél. Elneveztem a kutyámat...","0","trismélnek","[""trismélnek"",""trismélnak""]","trismélnak","esp trial","0","false"
"html-button-response","40","395677","0.0-11.0-1.14","null","<p>A másik játékos ezt választotta: <b>trismélnak</b>.</p><p>&#10060;</p><p>A válaszaitok <b>nem</b> egyeznek meg.</p>","null","","","","feedback trial","",""
"html-button-response-esp","41","401097","0.0-11.0-0.15","3607","Ez itt egy klosét. Elneveztem a kutyámat...","1","klosétnak","[""klosétnek"",""klosétnak""]","klosétnek","esp trial","0","false"
"html-button-response","42","404616","0.0-11.0-1.15","null","<p>A másik játékos ezt választotta: <b>klosétnek</b>.</p><p>&#10060;</p><p>A válaszaitok <b>nem</b> egyeznek meg.</p>","null","","","","feedback trial","",""
"html-button-response-esp","43","410213","0.0-11.0-0.16","5093","Ez itt egy zsigén. Nincs is jobb egy jó...","1","zsigénnél","[""zsigénnál"",""zsigénnél""]","zsigénnál","esp trial","0","false"
"html-button-response","44","413725","0.0-11.0-1.16","null","<p>A másik játékos ezt választotta: <b>zsigénnál</b>.</p><p>&#10060;</p><p>A válaszaitok <b>nem</b> egyeznek meg.</p>","null","","","","feedback trial","",""
"html-button-response-esp","45","419142","0.0-11.0-0.17","4146","Ez itt egy brindez. Elneveztem a kutyámat...","0","brindeznek","[""brindeznek"",""brindeznak""]","brindeznak","esp trial","0","false"
"html-button-response","46","422650","0.0-11.0-1.17","null","<p>A másik játékos ezt választotta: <b>brindeznak</b>.</p><p>&#10060;</p><p>A válaszaitok <b>nem</b> egyeznek meg.</p>","null","","","","feedback trial","",""
"html-button-response-esp","47","428878","0.0-11.0-0.18","5712","Ez itt egy spumény. Elneveztem a kutyámat...","0","spuménynak","[""spuménynak"",""spuménynek""]","spuménynak","esp trial","0","true"
"html-button-response","48","432396","0.0-11.0-1.18","null","<p>A másik játékos ezt választotta: <b>spuménynak</b>.</p><p>&#x2705;</p><p>A te válaszod és a másik játékos válasza <b>megegyeznek</b>.</p>","null","","","","feedback trial","",""
"html-button-response-esp","49","438224","0.0-11.0-0.19","5323","Ez itt egy zopély. Nincs is jobb egy jó...","1","zopélynál","[""zopélynél"",""zopélynál""]","zopélynél","esp trial","0","false"
"html-button-response","50","441739","0.0-11.0-1.19","null","<p>A másik játékos ezt választotta: <b>zopélynél</b>.</p><p>&#10060;</p><p>A válaszaitok <b>nem</b> egyeznek meg.</p>","null","","","","feedback trial","",""
"html-button-response-esp","51","447143","0.0-11.0-0.20","4738","Ez itt egy spanél. Nincs is jobb egy jó...","0","spanélnál","[""spanélnál"",""spanélnél""]","spanélnél","esp trial","0","false"
"html-button-response","52","450665","0.0-11.0-1.20","null","<p>A másik játékos ezt választotta: <b>spanélnél</b>.</p><p>&#10060;</p><p>A válaszaitok <b>nem</b> egyeznek meg.</p>","null","","","","feedback trial","",""
"html-button-response-esp","53","456070","0.0-11.0-0.21","3686","Ez itt egy trájeg. Ott vagyunk a...","0","trájegban","[""trájegban"",""trájegben""]","trájegban","esp trial","0","true"
"html-button-response","54","459579","0.0-11.0-1.21","null","<p>A másik játékos ezt választotta: <b>trájegban</b>.</p><p>&#x2705;</p><p>A te válaszod és a másik játékos válasza <b>megegyeznek</b>.</p>","null","","","","feedback trial","",""
"html-button-response-esp","55","464987","0.0-11.0-0.22","4897","Ez itt egy pítend. Ott vagyunk a...","1","pítendben","[""pítendban"",""pítendben""]","pítendban","esp trial","0","false"
"html-button-response","56","468508","0.0-11.0-1.22","null","<p>A másik játékos ezt választotta: <b>pítendban</b>.</p><p>&#10060;</p><p>A válaszaitok <b>nem</b> egyeznek meg.</p>","null","","","","feedback trial","",""
"html-button-response-esp","57","474448","0.0-11.0-0.23","5437","Ez itt egy spábét. Ott vagyunk a...","1","spábétban","[""spábétben"",""spábétban""]","spábétben","esp trial","0","false"
"html-button-response","58","477965","0.0-11.0-1.23","null","<p>A másik játékos ezt választotta: <b>spábétben</b>.</p><p>&#10060;</p><p>A válaszaitok <b>nem</b> egyeznek meg.</p>","null","","","","feedback trial","",""
"html-button-response-esp","59","483401","0.0-11.0-0.24","4917","Ez itt egy zihenc. Elneveztem a kutyámat...","1","zihencnek","[""zihencnak"",""zihencnek""]","zihencnak","esp trial","0","false"
"html-button-response","60","486915","0.0-11.0-1.24","null","<p>A másik játékos ezt választotta: <b>zihencnak</b>.</p><p>&#10060;</p><p>A válaszaitok <b>nem</b> egyeznek meg.</p>","null","","","","feedback trial","",""
"html-button-response-esp","61","492877","0.0-11.0-0.25","5444","Ez itt egy kalréz. Ott vagyunk a...","0","kalrézben","[""kalrézben"",""kalrézban""]","kalrézben","esp trial","0","true"
"html-button-response","62","496397","0.0-11.0-1.25","null","<p>A másik játékos ezt választotta: <b>kalrézben</b>.</p><p>&#x2705;</p><p>A te válaszod és a másik játékos válasza <b>megegyeznek</b>.</p>","null","","","","feedback trial","",""
"html-button-response-esp","63","501814","0.0-11.0-0.26","4484","Ez itt egy luméz. Ott vagyunk a...","0","lumézban","[""lumézban"",""lumézben""]","lumézben","esp trial","0","false"
"html-button-response","64","505332","0.0-11.0-1.26","null","<p>A másik játékos ezt választotta: <b>lumézben</b>.</p><p>&#10060;</p><p>A válaszaitok <b>nem</b> egyeznek meg.</p>","null","","","","feedback trial","",""
"html-button-response-esp","65","510991","0.0-11.0-0.27","5138","Ez itt egy hágyét. Elneveztem a kutyámat...","0","hágyétnak","[""hágyétnak"",""hágyétnek""]","hágyétnek","esp trial","0","false"
"html-button-response","66","514498","0.0-11.0-1.27","null","<p>A másik játékos ezt választotta: <b>hágyétnek</b>.</p><p>&#10060;</p><p>A válaszaitok <b>nem</b> egyeznek meg.</p>","null","","","","feedback trial","",""
"html-button-response-esp","67","520858","0.0-11.0-0.28","5856","Ez itt egy garcép. Nincs is jobb egy jó...","1","garcépnél","[""garcépnál"",""garcépnél""]","garcépnél","esp trial","0","true"
"html-button-response","68","524364","0.0-11.0-1.28","null","<p>A másik játékos ezt választotta: <b>garcépnél</b>.</p><p>&#x2705;</p><p>A te válaszod és a másik játékos válasza <b>megegyeznek</b>.</p>","null","","","","feedback trial","",""
"html-button-response-esp","69","529776","0.0-11.0-0.29","3312","Ez itt egy dihely. Elneveztem a kutyámat...","1","dihelynek","[""dihelynak"",""dihelynek""]","dihelynak","esp trial","0","false"
"html-button-response","70","533282","0.0-11.0-1.29","null","<p>A másik játékos ezt választotta: <b>dihelynak</b>.</p><p>&#10060;</p><p>A válaszaitok <b>nem</b> egyeznek meg.</p>","null","","","","feedback trial","",""
"html-button-response-esp","71","539249","0.0-11.0-0.30","5461","Ez itt egy dalenc. Nincs is jobb egy jó...","0","dalencnél","[""dalencnél"",""dalencnál""]","dalencnál","esp trial","0","false"
"html-button-response","72","542770","0.0-11.0-1.30","null","<p>A másik játékos ezt választotta: <b>dalencnál</b>.</p><p>&#10060;</p><p>A válaszaitok <b>nem</b> egyeznek meg.</p>","null","","","","feedback trial","",""
"html-button-response-esp","73","548545","0.0-11.0-0.31","5270","Ez itt egy vorszen. Nincs is jobb egy jó...","0","vorszennál","[""vorszennál"",""vorszennél""]","vorszennál","esp trial","0","true"
"html-button-response","74","552054","0.0-11.0-1.31","null","<p>A másik játékos ezt választotta: <b>vorszennál</b>.</p><p>&#x2705;</p><p>A te válaszod és a másik játékos válasza <b>megegyeznek</b>.</p>","null","","","","feedback trial","",""
"html-button-response-esp","75","557470","0.0-11.0-0.32","2896","Ez itt egy danét. Nincs is jobb egy jó...","0","danétnál","[""danétnál"",""danétnél""]","danétnél","esp trial","0","false"
"html-button-response","76","560987","0.0-11.0-1.32","null","<p>A másik játékos ezt választotta: <b>danétnél</b>.</p><p>&#10060;</p><p>A válaszaitok <b>nem</b> egyeznek meg.</p>","null","","","","feedback trial","",""
"html-button-response-esp","77","566392","0.0-11.0-0.33","3603","Ez itt egy tosély. Ott vagyunk a...","1","tosélyben","[""tosélyban"",""tosélyben""]","tosélyben","esp trial","0","true"
"html-button-response","78","569900","0.0-11.0-1.33","null","<p>A másik játékos ezt választotta: <b>tosélyben</b>.</p><p>&#x2705;</p><p>A te válaszod és a másik játékos válasza <b>megegyeznek</b>.</p>","null","","","","feedback trial","",""
"html-button-response-esp","79","575687","0.0-11.0-0.34","5282","Ez itt egy gúden. Ott vagyunk a...","0","gúdenban","[""gúdenban"",""gúdenben""]","gúdenban","esp trial","0","true"
"html-button-response","80","579199","0.0-11.0-1.34","null","<p>A másik játékos ezt választotta: <b>gúdenban</b>.</p><p>&#x2705;</p><p>A te válaszod és a másik játékos válasza <b>megegyeznek</b>.</p>","null","","","","feedback trial","",""
"html-button-response-esp","81","584614","0.0-11.0-0.35","4142","Ez itt egy dábegy. Ott vagyunk a...","0","dábegyben","[""dábegyben"",""dábegyban""]","dábegyban","esp trial","0","false"
"html-button-response","82","588141","0.0-11.0-1.35","null","<p>A másik játékos ezt választotta: <b>dábegyban</b>.</p><p>&#10060;</p><p>A válaszaitok <b>nem</b> egyeznek meg.</p>","null","","","","feedback trial","",""
"html-button-response-esp","83","593550","0.0-11.0-0.36","4123","Ez itt egy jukél. Nincs is jobb egy jó...","0","jukélnál","[""jukélnál"",""jukélnél""]","jukélnál","esp trial","0","true"
"html-button-response","84","597058","0.0-11.0-1.36","null","<p>A másik játékos ezt választotta: <b>jukélnál</b>.</p><p>&#x2705;</p><p>A te válaszod és a másik játékos válasza <b>megegyeznek</b>.</p>","null","","","","feedback trial","",""
"html-button-response-esp","85","603131","0.0-11.0-0.37","5554","Ez itt egy nyupér. Nincs is jobb egy jó...","1","nyupérnál","[""nyupérnél"",""nyupérnál""]","nyupérnél","esp trial","0","false"
"html-button-response","86","606654","0.0-11.0-1.37","null","<p>A másik játékos ezt választotta: <b>nyupérnél</b>.</p><p>&#10060;</p><p>A válaszaitok <b>nem</b> egyeznek meg.</p>","null","","","","feedback trial","",""
"html-button-response-esp","87","612077","0.0-11.0-0.38","2496","Ez itt egy sprivenc. Nincs is jobb egy jó...","0","sprivencnél","[""sprivencnél"",""sprivencnál""]","sprivencnál","esp trial","0","false"
"html-button-response","88","615600","0.0-11.0-1.38","null","<p>A másik játékos ezt választotta: <b>sprivencnál</b>.</p><p>&#10060;</p><p>A válaszaitok <b>nem</b> egyeznek meg.</p>","null","","","","feedback trial","",""
"html-button-response-esp","89","621016","0.0-11.0-0.39","4561","Ez itt egy jóbec. Elneveztem a kutyámat...","1","jóbecnek","[""jóbecnak"",""jóbecnek""]","jóbecnak","esp trial","0","false"
"html-button-response","90","624523","0.0-11.0-1.39","null","<p>A másik játékos ezt választotta: <b>jóbecnak</b>.</p><p>&#10060;</p><p>A válaszaitok <b>nem</b> egyeznek meg.</p>","null","","","","feedback trial","",""
"html-button-response-esp","91","629934","0.0-11.0-0.40","4468","Ez itt egy klingesz. Ott vagyunk a...","0","klingeszben","[""klingeszben"",""klingeszban""]","klingeszban","esp trial","0","false"
"html-button-response","92","633441","0.0-11.0-1.40","null","<p>A másik játékos ezt választotta: <b>klingeszban</b>.</p><p>&#10060;</p><p>A válaszaitok <b>nem</b> egyeznek meg.</p>","null","","","","feedback trial","",""
"html-button-response-esp","93","638845","0.0-11.0-0.41","4296","Ez itt egy priszec. Ott vagyunk a...","1","priszecban","[""priszecben"",""priszecban""]","priszecban","esp trial","0","true"
"html-button-response","94","642351","0.0-11.0-1.41","null","<p>A másik játékos ezt választotta: <b>priszecban</b>.</p><p>&#x2705;</p><p>A te válaszod és a másik játékos válasza <b>megegyeznek</b>.</p>","null","","","","feedback trial","",""
"html-button-response-esp","95","647755","0.0-11.0-0.42","4497","Ez itt egy kalhész. Elneveztem a kutyámat...","0","kalhésznak","[""kalhésznak"",""kalhésznek""]","kalhésznak","esp trial","0","true"
"html-button-response","96","651274","0.0-11.0-1.42","null","<p>A másik játékos ezt választotta: <b>kalhésznak</b>.</p><p>&#x2705;</p><p>A te válaszod és a másik játékos válasza <b>megegyeznek</b>.</p>","null","","","","feedback trial","",""
"html-button-response-esp","97","656692","0.0-11.0-0.43","2995","Ez itt egy incéj. Elneveztem a kutyámat...","1","incéjnak","[""incéjnek"",""incéjnak""]","incéjnak","esp trial","0","true"
"html-button-response","98","660199","0.0-11.0-1.43","null","<p>A másik játékos ezt választotta: <b>incéjnak</b>.</p><p>&#x2705;</p><p>A te válaszod és a másik játékos válasza <b>megegyeznek</b>.</p>","null","","","","feedback trial","",""
"html-button-response-esp","99","666050","0.0-11.0-0.44","5346","Ez itt egy ítens. Ott vagyunk a...","1","ítensben","[""ítensban"",""ítensben""]","ítensban","esp trial","0","false"
"html-button-response","100","669575","0.0-11.0-1.44","null","<p>A másik játékos ezt választotta: <b>ítensban</b>.</p><p>&#10060;</p><p>A válaszaitok <b>nem</b> egyeznek meg.</p>","null","","","","feedback trial","",""
"html-button-response-esp","101","674994","0.0-11.0-0.45","3318","Ez itt egy braszenc. Nincs is jobb egy jó...","1","braszencnél","[""braszencnál"",""braszencnél""]","braszencnál","esp trial","0","false"
"html-button-response","102","678499","0.0-11.0-1.45","null","<p>A másik játékos ezt választotta: <b>braszencnál</b>.</p><p>&#10060;</p><p>A válaszaitok <b>nem</b> egyeznek meg.</p>","null","","","","feedback trial","",""
"html-button-response-esp","103","683914","0.0-11.0-0.46","2997","Ez itt egy dorzéj. Elneveztem a kutyámat...","1","dorzéjnak","[""dorzéjnek"",""dorzéjnak""]","dorzéjnak","esp trial","0","true"
"html-button-response","104","687429","0.0-11.0-1.46","null","<p>A másik játékos ezt választotta: <b>dorzéjnak</b>.</p><p>&#x2705;</p><p>A te válaszod és a másik játékos válasza <b>megegyeznek</b>.</p>","null","","","","feedback trial","",""
"html-button-response-esp","105","692844","0.0-11.0-0.47","2605","Ez itt egy spicet. Elneveztem a kutyámat...","1","spicetnak","[""spicetnek"",""spicetnak""]","spicetnak","esp trial","0","true"
"html-button-response","106","696362","0.0-11.0-1.47","null","<p>A másik játékos ezt választotta: <b>spicetnak</b>.</p><p>&#x2705;</p><p>A te válaszod és a másik játékos válasza <b>megegyeznek</b>.</p>","null","","","","feedback trial","",""
"html-button-response-esp","107","701771","0.0-11.0-0.48","3745","Ez itt egy darhén. Ott vagyunk a...","0","darhénban","[""darhénban"",""darhénben""]","darhénben","esp trial","0","false"
"html-button-response","108","705283","0.0-11.0-1.48","null","<p>A másik játékos ezt választotta: <b>darhénben</b>.</p><p>&#10060;</p><p>A válaszaitok <b>nem</b> egyeznek meg.</p>","null","","","","feedback trial","",""
"html-button-response-esp","109","710690","0.0-11.0-0.49","3234","Ez itt egy pijél. Nincs is jobb egy jó...","1","pijélnél","[""pijélnál"",""pijélnél""]","pijélnál","esp trial","0","false"
"html-button-response","110","714211","0.0-11.0-1.49","null","<p>A másik játékos ezt választotta: <b>pijélnál</b>.</p><p>&#10060;</p><p>A válaszaitok <b>nem</b> egyeznek meg.</p>","null","","","","feedback trial","",""
"html-button-response-esp","111","719625","0.0-11.0-0.50","2826","Ez itt egy kaszép. Elneveztem a kutyámat...","0","kaszépnak","[""kaszépnak"",""kaszépnek""]","kaszépnak","esp trial","0","true"
"html-button-response","112","723140","0.0-11.0-1.50","null","<p>A másik játékos ezt választotta: <b>kaszépnak</b>.</p><p>&#x2705;</p><p>A te válaszod és a másik játékos válasza <b>megegyeznek</b>.</p>","null","","","","feedback trial","",""
"html-button-response-esp","113","728552","0.0-11.0-0.51","3292","Ez itt egy pivéd. Ott vagyunk a...","0","pivédban","[""pivédban"",""pivédben""]","pivédban","esp trial","0","true"
"html-button-response","114","732071","0.0-11.0-1.51","null","<p>A másik játékos ezt választotta: <b>pivédban</b>.</p><p>&#x2705;</p><p>A te válaszod és a másik játékos válasza <b>megegyeznek</b>.</p>","null","","","","feedback trial","",""
"html-button-response-esp","115","737486","0.0-11.0-0.52","3409","Ez itt egy monveg. Nincs is jobb egy jó...","0","monvegnál","[""monvegnál"",""monvegnél""]","monvegnál","esp trial","0","true"
"html-button-response","116","740993","0.0-11.0-1.52","null","<p>A másik játékos ezt választotta: <b>monvegnál</b>.</p><p>&#x2705;</p><p>A te válaszod és a másik játékos válasza <b>megegyeznek</b>.</p>","null","","","","feedback trial","",""
"html-button-response-esp","117","746409","0.0-11.0-0.53","3383","Ez itt egy fájéz. Ott vagyunk a...","0","fájézban","[""fájézban"",""fájézben""]","fájézben","esp trial","0","false"
"html-button-response","118","749917","0.0-11.0-1.53","null","<p>A másik játékos ezt választotta: <b>fájézben</b>.</p><p>&#10060;</p><p>A válaszaitok <b>nem</b> egyeznek meg.</p>","null","","","","feedback trial","",""
"html-button-response","119","763765","0.0-12.0","13345","<p>A közös játék most véget ért.</p><p>Mielőtt eláruljuk a végső pontszámodat, arra kérlek, játszd a szóválasztós játékot néhány percig egyedül is.</p><p>A feladatod ugyanaz lesz, választani két lehetőség közül.</p><p>Most viszont egyedül kell döntened, hogy te melyiket választanád.</p>","0","","","","","",""
"html-button-response-clever","120","769751","0.0-13.0-0.0","5473","Ez itt egy tumély. Nincs is jobb egy jó...","0","tumélynál","[""tumélynál"",""tumélynél""]","","posttest trial","4",""
"html-button-response-clever","121","774529","0.0-13.0-0.1","4259","Ez itt egy zined. Elneveztem a kutyámat...","0","zinednak","[""zinednak"",""zinednek""]","","posttest trial","4",""
"html-button-response-clever","122","779780","0.0-13.0-0.2","4743","Ez itt egy szibed. Ott vagyunk a...","0","szibedban","[""szibedban"",""szibedben""]","","posttest trial","4",""
"html-button-response-clever","123","784889","0.0-13.0-0.3","4603","Ez itt egy pazév. Nincs is jobb egy jó...","1","pazévnál","[""pazévnél"",""pazévnál""]","","posttest trial","4",""
"html-button-response-clever","124","788709","0.0-13.0-0.4","3307","Ez itt egy humék. Elneveztem a kutyámat...","1","huméknak","[""huméknek"",""huméknak""]","","posttest trial","4",""
"html-button-response-clever","125","793214","0.0-13.0-0.5","4000","Ez itt egy fizend. Ott vagyunk a...","1","fizendben","[""fizendban"",""fizendben""]","","posttest trial","4",""
"html-button-response-clever","126","797007","0.0-13.0-0.6","3286","Ez itt egy bingéj. Elneveztem a kutyámat...","0","bingéjnak","[""bingéjnak"",""bingéjnek""]","","posttest trial","4",""
"html-button-response-clever","127","800546","0.0-13.0-0.7","3029","Ez itt egy vurnel. Elneveztem a kutyámat...","1","vurnelnak","[""vurnelnek"",""vurnelnak""]","","posttest trial","4",""
"html-button-response-clever","128","805935","0.0-13.0-0.8","4882","Ez itt egy jurdent. Nincs is jobb egy jó...","1","jurdentnél","[""jurdentnál"",""jurdentnél""]","","posttest trial","4",""
"html-button-response-clever","129","810883","0.0-13.0-0.9","4442","Ez itt egy zuten. Nincs is jobb egy jó...","0","zutennél","[""zutennél"",""zutennál""]","","posttest trial","4",""
"html-button-response-clever","130","814759","0.0-13.0-0.10","3368","Ez itt egy dunkész. Ott vagyunk a...","1","dunkészban","[""dunkészben"",""dunkészban""]","","posttest trial","4",""
"html-button-response-clever","131","820517","0.0-13.0-0.11","5245","Ez itt egy csublény. Ott vagyunk a...","0","csublényban","[""csublényban"",""csublényben""]","","posttest trial","4",""
"html-button-response-clever","132","823751","0.0-13.0-0.12","2718","Ez itt egy szanéj. Elneveztem a kutyámat...","1","szanéjnak","[""szanéjnek"",""szanéjnak""]","","posttest trial","4",""
"html-button-response-clever","133","826355","0.0-13.0-0.13","2095","Ez itt egy zábény. Elneveztem a kutyámat...","0","zábénynak","[""zábénynak"",""zábénynek""]","","posttest trial","4",""
"html-button-response-clever","134","831154","0.0-13.0-0.14","4291","Ez itt egy trodély. Ott vagyunk a...","0","trodélyben","[""trodélyben"",""trodélyban""]","","posttest trial","4",""
"html-button-response-clever","135","836053","0.0-13.0-0.15","4380","Ez itt egy surnegy. Nincs is jobb egy jó...","1","surnegynál","[""surnegynél"",""surnegynál""]","","posttest trial","4",""
"html-button-response-clever","136","839662","0.0-13.0-0.16","3103","Ez itt egy vodec. Nincs is jobb egy jó...","1","vodecnál","[""vodecnél"",""vodecnál""]","","posttest trial","4",""
"html-button-response-clever","137","842532","0.0-13.0-0.17","2362","Ez itt egy lihény. Elneveztem a kutyámat...","1","lihénynak","[""lihénynek"",""lihénynak""]","","posttest trial","4",""
"html-button-response-clever","138","846588","0.0-13.0-0.18","3550","Ez itt egy jutély. Nincs is jobb egy jó...","1","jutélynál","[""jutélynél"",""jutélynál""]","","posttest trial","4",""
"html-button-response-clever","139","849308","0.0-13.0-0.19","2214","Ez itt egy dutec. Nincs is jobb egy jó...","1","dutecnál","[""dutecnél"",""dutecnál""]","","posttest trial","4",""
"html-button-response-clever","140","851797","0.0-13.0-0.20","1982","Ez itt egy fojlegy. Elneveztem a kutyámat...","1","fojlegynak","[""fojlegynek"",""fojlegynak""]","","posttest trial","4",""
"html-button-response-clever","141","854476","0.0-13.0-0.21","2165","Ez itt egy lingék. Nincs is jobb egy jó...","1","lingéknál","[""lingéknél"",""lingéknál""]","","posttest trial","4",""
"html-button-response-clever","142","858676","0.0-13.0-0.22","3694","Ez itt egy cságyelt. Ott vagyunk a...","1","cságyeltban","[""cságyeltben"",""cságyeltban""]","","posttest trial","4",""
"html-button-response-clever","143","861292","0.0-13.0-0.23","2100","Ez itt egy spatel. Elneveztem a kutyámat...","0","spatelnak","[""spatelnak"",""spatelnek""]","","posttest trial","4",""
"html-button-response-clever","144","865677","0.0-13.0-0.24","3875","Ez itt egy tivenc. Ott vagyunk a...","0","tivencban","[""tivencban"",""tivencben""]","","posttest trial","4",""
"html-button-response-clever","145","868908","0.0-13.0-0.25","2726","Ez itt egy dinelt. Ott vagyunk a...","1","dineltban","[""dineltben"",""dineltban""]","","posttest trial","4",""
"html-button-response-clever","146","874029","0.0-13.0-0.26","4617","Ez itt egy briskéd. Nincs is jobb egy jó...","0","briskédnál","[""briskédnál"",""briskédnél""]","","posttest trial","4",""
"html-button-response-clever","147","876623","0.0-13.0-0.27","2088","Ez itt egy nuhét. Nincs is jobb egy jó...","1","nuhétnál","[""nuhétnél"",""nuhétnál""]","","posttest trial","4",""
"html-button-response-clever","148","879474","0.0-13.0-0.28","2330","Ez itt egy dajrens. Nincs is jobb egy jó...","1","dajrensnál","[""dajrensnél"",""dajrensnál""]","","posttest trial","4",""
"html-button-response-clever","149","882126","0.0-13.0-0.29","2145","Ez itt egy sihen. Nincs is jobb egy jó...","1","sihennál","[""sihennél"",""sihennál""]","","posttest trial","4",""
"html-button-response-clever","150","884827","0.0-13.0-0.30","2197","Ez itt egy csodeg. Nincs is jobb egy jó...","1","csodegnál","[""csodegnél"",""csodegnál""]","","posttest trial","4",""
"html-button-response-clever","151","887348","0.0-13.0-0.31","2014","Ez itt egy fupét. Nincs is jobb egy jó...","0","fupétnál","[""fupétnál"",""fupétnél""]","","posttest trial","4",""
"html-button-response-clever","152","890137","0.0-13.0-0.32","2283","Ez itt egy klazér. Ott vagyunk a...","1","klazérban","[""klazérben"",""klazérban""]","","posttest trial","4",""
"html-button-response-clever","153","893013","0.0-13.0-0.33","2363","Ez itt egy vismer. Nincs is jobb egy jó...","1","vismernál","[""vismernél"",""vismernál""]","","posttest trial","4",""
"html-button-response-clever","154","895573","0.0-13.0-0.34","2053","Ez itt egy klajrén. Elneveztem a kutyámat...","0","klajrénnak","[""klajrénnak"",""klajrénnek""]","","posttest trial","4",""
"html-button-response-clever","155","897834","0.0-13.0-0.35","1752","Ez itt egy murdes. Nincs is jobb egy jó...","1","murdesnál","[""murdesnél"",""murdesnál""]","","posttest trial","4",""
"html-button-response-clever","156","900413","0.0-13.0-0.36","2075","Ez itt egy spizec. Elneveztem a kutyámat...","0","spizecnak","[""spizecnak"",""spizecnek""]","","posttest trial","4",""
"html-button-response-clever","157","903821","0.0-13.0-0.37","2889","Ez itt egy zarcég. Nincs is jobb egy jó...","0","zarcégnál","[""zarcégnál"",""zarcégnél""]","","posttest trial","4",""
"html-button-response-clever","158","906045","0.0-13.0-0.38","1717","Ez itt egy tarhéz. Ott vagyunk a...","0","tarhézban","[""tarhézban"",""tarhézben""]","","posttest trial","4",""
"html-button-response-clever","159","908622","0.0-13.0-0.39","2058","Ez itt egy fágyép. Nincs is jobb egy jó...","0","fágyépnál","[""fágyépnál"",""fágyépnél""]","","posttest trial","4",""
"html-button-response-clever","160","910438","0.0-13.0-0.40","1309","Ez itt egy spivél. Elneveztem a kutyámat...","0","spivélnak","[""spivélnak"",""spivélnek""]","","posttest trial","4",""
"html-button-response-clever","161","914103","0.0-13.0-0.41","3155","Ez itt egy zatéj. Nincs is jobb egy jó...","0","zatéjnál","[""zatéjnál"",""zatéjnél""]","","posttest trial","4",""
"html-button-response-clever","162","916407","0.0-13.0-0.42","1784","Ez itt egy klítegy. Nincs is jobb egy jó...","1","klítegynál","[""klítegynél"",""klítegynál""]","","posttest trial","4",""
"html-button-response-clever","163","919473","0.0-13.0-0.43","2562","Ez itt egy pristél. Ott vagyunk a...","1","pristélban","[""pristélben"",""pristélban""]","","posttest trial","4",""
"html-button-response-clever","164","921774","0.0-13.0-0.44","1798","Ez itt egy trikép. Ott vagyunk a...","0","triképban","[""triképban"",""triképben""]","","posttest trial","4",""
"html-button-response-clever","165","924079","0.0-13.0-0.45","1799","Ez itt egy dóbem. Elneveztem a kutyámat...","0","dóbemnak","[""dóbemnak"",""dóbemnek""]","","posttest trial","4",""
"html-button-response-clever","166","926183","0.0-13.0-0.46","1594","Ez itt egy hijegy. Nincs is jobb egy jó...","0","hijegynál","[""hijegynál"",""hijegynél""]","","posttest trial","4",""
"html-button-response-clever","167","928471","0.0-13.0-0.47","1769","Ez itt egy kátéd. Nincs is jobb egy jó...","1","kátédnál","[""kátédnél"",""kátédnál""]","","posttest trial","4",""
"html-button-response-clever","168","930453","0.0-13.0-0.48","1478","Ez itt egy dibez. Ott vagyunk a...","0","dibezban","[""dibezban"",""dibezben""]","","posttest trial","4",""
"html-button-response-clever","169","933799","0.0-13.0-0.49","2829","Ez itt egy hosét. Elneveztem a kutyámat...","0","hosétnak","[""hosétnak"",""hosétnek""]","","posttest trial","4",""
"html-button-response-clever","170","935790","0.0-13.0-0.50","1485","Ez itt egy mádép. Nincs is jobb egy jó...","0","mádépnál","[""mádépnál"",""mádépnél""]","","posttest trial","4",""
"html-button-response-clever","171","938638","0.0-13.0-0.51","2339","Ez itt egy zsalrén. Elneveztem a kutyámat...","0","zsalrénnak","[""zsalrénnak"",""zsalrénnek""]","","posttest trial","4",""
"html-button-response-clever","172","940663","0.0-13.0-0.52","1505","Ez itt egy gábéd. Nincs is jobb egy jó...","1","gábédnál","[""gábédnél"",""gábédnál""]","","posttest trial","4",""
"html-button-response-clever","173","943016","0.0-13.0-0.53","1849","Ez itt egy lijez. Elneveztem a kutyámat...","0","lijeznak","[""lijeznak"",""lijeznek""]","","posttest trial","4",""
"html-button-response","174","948855","0.0-14.0","5324","<p> Vége a játéknak. A teljes pontszámod 22/54.</p><p> Szép munka! &#128526;&#128526;&#128526;</p><p>A Befejezés gomb megnyomása után bezárhatod a böngészőablakot.</p>","0","","","","","",""
"html-keyboard-response","175","954372","0.0-15.0","null","<div class=""message"">
         <p>Egy kis türelmet kérünk, amíg elmentjük az adatokat...</p>
         </div>","null","","","","","",""
