"trial_type","trial_index","time_elapsed","internal_node_id","rt","stimulus","response","response_string","choices","esp_response","trial_kind","list_number","esp_match"
"pavlovia","0","1013","0.0-0.0","","","","","","","","",""
"html-button-response","1","75591","0.0-1.0","74061","<p>Kedves Résztvevő! A Budapesti Műszaki és Gazdaságtudományi Egyetem Kognitív Tudományi Tanszékének kutatásában való részvételed kérjük. A kutatásban azt vizsgáljuk, hogy a magyar anyanyelvűek hogyan használnak bizonyos szóalakokat, és hogy milyen képük van arról, hogy mások hogyan használják, hogyan képzik a szavakat. Ez hozzásegít bennünket ahhoz, hogy jobban megértsük, hogyan dolgozza fel és tárolja a nyelvet az emberi agy, és hogyan működnek, hogyan változnak egy adott közösség nyelvi konvenciói.</p><p>A vizsgálat egy rövid számítógépes feladatból fog állni. A kutatásban való részvétel önkéntes, a részvételi szándék bármikor visszavonható. A résztvevők eredményeit név nélkül kezeljük, így nem beazonosíthatók az adatok feldolgozása során. Minden személyes adatot az EU általános adatvédelmi rendeletének (GDPR) megfelelően kezelünk és legfeljebb öt éven belül megsemmisítünk. A vizsgálat jellemzően húsz percet vesz igénybe.</p><p>Kutatásvezető:</p><p>Dr. Rácz Péter, tudományos munkatárs, BME KTT</p><p>e-mail: racz.peter.marton@ttk.bme.hu</p>","0","","","","","",""
"html-button-response","2","124715","0.0-2.0","48615","<p>A kísérletben szavakat fogsz látni. Ezek között lesznek olyanok, amelyeket ismersz, de előfordulhatnak olyanok is, amelyeket nem ismersz, sőt, vannak köztük kitalált szavak is. Minden szónál látni fogsz toldalékolt alakokat. A te feladatod az lesz, hogy minden szóhoz kiválaszd azt a toldalékolt alakot, amely a te számodra ismerősebben, természetesebben hangzik. Rossz válaszok nincsenek, mert van olyan, hogy különböző embereknek más és más szó tűnik jobb választásnak. A választ úgy tudod majd kiválasztani, ha rákattintasz.</p><p>Ebben a szóválasztós játékban egy másik játékossal együtt veszel majd részt. A másik játékos is minden esetben azok közül a lehetőségek közül válogathat, mint te. Kettőtök feladata az, hogy ugyanazt a lehetőséget válasszátok minden esetben. Ahhoz, hogy ez sikerüljön, neked figyelned kell arra, hogy a másik játékos milyen válaszokat ad, és ennek alapján meg kell tippelned, hogyan választ legközelebb. Ha eltalálod, akkor pontot kapsz.</p>","0","","","","","",""
"html-button-response","3","132092","0.0-3.0","6865","<p>Kérjük, olvasd el az alábbi nyilatkozatot, és amennyiben egyetértesz vele, nyomj a Beleegyezés gombra!</p><p>Kijelentem, hogy magyar anyanyelvű személyként önként veszek részt a BME KTT kísérletében. A kutatás céljával és folyamatával kapcsolatban elegendő tájékoztatást kaptam, lehetőségem volt kérdések feltételére, és esetleges kérdéseimre megfelelő válaszokat kaptam. A tájékoztatás alapján elegendő mennyiségű információ áll a rendelkezésemre, hogy eldönthessem, részt kívánok-e venni a kutatásban.</p><p>Tisztában vagyok vele, hogy részvételi szándékomat és adataimat bármikor, indoklás nélkül visszavonhatom.</p><p>Értem és tudomásul veszem, hogy a kutatás tudományos célokat szolgál, és az általam szolgáltatott adatokat a BME kizárólag kutatási célból használja fel. Tudomásul veszem, hogy eredményeimet a többi résztvevő eredményeivel együtt kezelik, így egyéni teljesítményemről visszajelzést, szakvéleményt nem kapok.</p><p>Megértettem, hogy adataim kezelését illetően a BME az EU általános adatvédelmi rendelete (GDPR), a hatályos adatvédelmi törvény és a nemzetközi kutatás-etikai alapelvek szerint jár el. Eredményeim anonim módon kerülnek feldolgozásra, és a kutatás résztvevői az azonosításomra alkalmas adataimat harmadik félnek nem szolgáltatják ki. Engedélyezem a BME számára a jelen kutatásban felvett adataim feldolgozását és tárolását, beleértve azok későbbi kutatásokhoz való felhasználását is. Személyes adataim kezelésével kapcsolatban tájékoztatást kérhetek a kutatás résztvevőitől, az adatkezelés ellen tiltakozhatok, kérhetem személyes adataim helyesbítését, törlését vagy zárolását, valamint jogorvoslatért a Nemzeti Adatvédelmi és Információszabadság Hatósághoz fordulhatok.</p><p>Kijelentem, hogy a kutatásban való részvételem körülményeiről részletes tájékoztatást kaptam, és a feltételeket elfogadom.</p>","0","","","","","",""
"survey-text","4","211539","0.0-4.0","78922","","{""Q0"":""SN236"",""Q1"":""nő"",""Q2"":""2001"",""Q3"":""14""}","","","","","",""
"html-button-response","5","238061","0.0-5.0","26017","<p>Ebben a játékban szavakat kell toldalékolni.</p> <p>Minden körben mutatunk majd egy példamondatot, amiben lesz egy szó.</p> <p>Alatta jön egy második mondat, ezt a mondatot neked kell majd befejezni, ugyanezzel a szóval.</p> <p>Nem biztos, hogy a szó eleve ismerős lesz számodra!</p> <p>Minden mondathoz adunk két lehetőséget, ezeket balra és jobbra látod majd.</p> <p>A játék kb. negyedóráig-húsz percig tart.</p>","0","","","","","",""
"html-button-response","6","258300","0.0-6.0","19723","<p>Nézzünk egy példát!</p> <p>A példamondat: ""János imád fláramolni, ezért sokat fláramlik. Mi ritkán...""</p><p>Neked ezt a mondatot kell befejezned: ""Ti ritkán...""</p><p>A lehetőségek pedig ezek:</p>","0","","","","","",""
"html-button-response","7","266888","0.0-7.0","8077","<p>Nagyon jó.</p><p>Ezt a játékot nem egyedül fogod játszani, hanem egy másik játékossal.</p><p>Mielőtt továbblépünk, összekapcsolunk titeket egymással.</p><p>Ez igénybe vehet néhány másodpercet, amihez szíves türelmed kérjük.</p>","0","","","","","",""
"html-button-response","8","272634","0.0-8.0","null","<p>Csatlakozás a másik játékoshoz...</p>","null","","","","","",""
"html-button-response","9","275171","0.0-9.0","null","<p> Sikeres kapcsolódás!</p>","null","","","","","",""
"html-button-response","10","285706","0.0-10.0","null","<p>A következőkben ketten játsszátok a szóválasztós játékot.</p><p>A feladatotok az lesz, hogy minden körben <b>ugyanazt</b> a szót válasszátok.</p><p>Minden ilyen egyező válaszért pontot kaptok.</p><p>Próbáld meg kitalálni, mit választ a másik játékos!</p><p>Bármikor választhatsz, a körnek akkor van vége, ha mindketten döntöttetek.</p><p>Sok sikert!</p>","null","","","","","",""
"html-button-response-esp","11","303422","0.0-11.0-0.0","17201","János imád brározni, ezért sokat brárlik. Ők ritkán...","0","brárlanak","[""brárlanak"",""brároznak""]","brároznak","esp trial","11","false"
"html-button-response","12","306949","0.0-11.0-1.0","null","<p>A másik játékos ezt választotta: <b>brároznak</b>.</p><p>&#10060;</p><p>A válaszaitok <b>nem</b> egyeznek meg.</p>","null","","","","feedback trial","",""
"html-button-response-esp","13","315566","0.0-11.0-0.1","8095","János imád brilegezni, ezért sokat brilegzik. Mi ritkán...","1","brilegezünk","[""brilegzünk"",""brilegezünk""]","brilegezünk","esp trial","11","true"
"html-button-response","14","319086","0.0-11.0-1.1","null","<p>A másik játékos ezt választotta: <b>brilegezünk</b>.</p><p>&#x2705;</p><p>A te válaszod és a másik játékos válasza <b>megegyeznek</b>.</p>","null","","","","feedback trial","",""
"html-button-response-esp","15","327500","0.0-11.0-0.2","7244","János imád tűgözni, ezért sokat tűgzik. Ti ritkán...","0","tűgöztök","[""tűgöztök"",""tűgzötök""]","tűgöztök","esp trial","11","true"
"html-button-response","16","331025","0.0-11.0-1.2","null","<p>A másik játékos ezt választotta: <b>tűgöztök</b>.</p><p>&#x2705;</p><p>A te válaszod és a másik játékos válasza <b>megegyeznek</b>.</p>","null","","","","feedback trial","",""
"html-button-response-esp","17","339423","0.0-11.0-0.3","7805","János imád sprigozni, ezért sokat sprigzik. Ti ritkán...","0","sprigoztok","[""sprigoztok"",""sprigzotok""]","sprigoztok","esp trial","11","true"
"html-button-response","18","342934","0.0-11.0-1.3","null","<p>A másik játékos ezt választotta: <b>sprigoztok</b>.</p><p>&#x2705;</p><p>A te válaszod és a másik játékos válasza <b>megegyeznek</b>.</p>","null","","","","feedback trial","",""
"html-button-response-esp","19","351722","0.0-11.0-0.4","8282","János imád nágapodni, ezért sokat nágapszik. Ők ritkán...","1","nágapodnak","[""nágapszanak"",""nágapodnak""]","nágapodnak","esp trial","11","true"
"html-button-response","20","355249","0.0-11.0-1.4","null","<p>A másik játékos ezt választotta: <b>nágapodnak</b>.</p><p>&#x2705;</p><p>A te válaszod és a másik játékos válasza <b>megegyeznek</b>.</p>","null","","","","feedback trial","",""
"html-button-response-esp","21","363650","0.0-11.0-0.5","6043","János imád prazozni, ezért sokat prazlik. Mi ritkán...","0","prazozunk","[""prazozunk"",""prazlunk""]","prazozunk","esp trial","11","true"
"html-button-response","22","367165","0.0-11.0-1.5","null","<p>A másik játékos ezt választotta: <b>prazozunk</b>.</p><p>&#x2705;</p><p>A te válaszod és a másik játékos válasza <b>megegyeznek</b>.</p>","null","","","","feedback trial","",""
"html-button-response-esp","23","375583","0.0-11.0-0.6","6669","János imád bregezni, ezért sokat bregzik. Mi ritkán...","0","bregezünk","[""bregezünk"",""bregzünk""]","bregzünk","esp trial","11","false"
"html-button-response","24","379107","0.0-11.0-1.6","null","<p>A másik játékos ezt választotta: <b>bregzünk</b>.</p><p>&#10060;</p><p>A válaszaitok <b>nem</b> egyeznek meg.</p>","null","","","","feedback trial","",""
"html-button-response-esp","25","388249","0.0-11.0-0.7","8623","János imád tribejezni, ezért sokat tribejlik. Ti ritkán...","0","tribejletek","[""tribejletek"",""tribejeztek""]","tribejeztek","esp trial","11","false"
"html-button-response","26","391771","0.0-11.0-1.7","null","<p>A másik játékos ezt választotta: <b>tribejeztek</b>.</p><p>&#10060;</p><p>A válaszaitok <b>nem</b> egyeznek meg.</p>","null","","","","feedback trial","",""
"html-button-response-esp","27","405473","0.0-11.0-0.8","13191","János imád frihegezni, ezért sokat friheglik. Mi ritkán...","0","frihegezünk","[""frihegezünk"",""friheglünk""]","frihegezünk","esp trial","11","true"
"html-button-response","28","408986","0.0-11.0-1.8","null","<p>A másik játékos ezt választotta: <b>frihegezünk</b>.</p><p>&#x2705;</p><p>A te válaszod és a másik játékos válasza <b>megegyeznek</b>.</p>","null","","","","feedback trial","",""
"html-button-response-esp","29","417401","0.0-11.0-0.9","7588","János imád pehégedni, ezért sokat pehégszik. Ti ritkán...","0","pehégedtek","[""pehégedtek"",""pehégszetek""]","pehégszetek","esp trial","11","false"
"html-button-response","30","420924","0.0-11.0-1.9","null","<p>A másik játékos ezt választotta: <b>pehégszetek</b>.</p><p>&#10060;</p><p>A válaszaitok <b>nem</b> egyeznek meg.</p>","null","","","","feedback trial","",""
"html-button-response-esp","31","429340","0.0-11.0-0.10","5804","János imád lírozni, ezért sokat lírlik. Ők ritkán...","1","lírlanak","[""líroznak"",""lírlanak""]","líroznak","esp trial","11","false"
"html-button-response","32","432861","0.0-11.0-1.10","null","<p>A másik játékos ezt választotta: <b>líroznak</b>.</p><p>&#10060;</p><p>A válaszaitok <b>nem</b> egyeznek meg.</p>","null","","","","feedback trial","",""
"html-button-response-esp","33","441286","0.0-11.0-0.11","7558","János imád drivegezni, ezért sokat drivegzik. Ti ritkán...","1","drivegeztek","[""drivegzetek"",""drivegeztek""]","drivegeztek","esp trial","11","true"
"html-button-response","34","444818","0.0-11.0-1.11","null","<p>A másik játékos ezt választotta: <b>drivegeztek</b>.</p><p>&#x2705;</p><p>A te válaszod és a másik játékos válasza <b>megegyeznek</b>.</p>","null","","","","feedback trial","",""
"html-button-response-esp","35","453686","0.0-11.0-0.12","8348","János imád tibarozni, ezért sokat tibarzik. Ők ritkán...","1","tibaroznak","[""tibarzanak"",""tibaroznak""]","tibaroznak","esp trial","11","true"
"html-button-response","36","457206","0.0-11.0-1.12","null","<p>A másik játékos ezt választotta: <b>tibaroznak</b>.</p><p>&#x2705;</p><p>A te válaszod és a másik játékos válasza <b>megegyeznek</b>.</p>","null","","","","feedback trial","",""
"html-button-response-esp","37","465614","0.0-11.0-0.13","6418","János imád trűnyözni, ezért sokat trűnylik. Ők ritkán...","1","trűnyöznek","[""trűnylenek"",""trűnyöznek""]","trűnyöznek","esp trial","11","true"
"html-button-response","38","469129","0.0-11.0-1.13","null","<p>A másik játékos ezt választotta: <b>trűnyöznek</b>.</p><p>&#x2705;</p><p>A te válaszod és a másik játékos válasza <b>megegyeznek</b>.</p>","null","","","","feedback trial","",""
"html-button-response-esp","39","478838","0.0-11.0-0.14","9197","János imád drojozni, ezért sokat drojzik. Mi ritkán...","1","drojozunk","[""drojzunk"",""drojozunk""]","drojozunk","esp trial","11","true"
"html-button-response","40","482350","0.0-11.0-1.14","null","<p>A másik játékos ezt választotta: <b>drojozunk</b>.</p><p>&#x2705;</p><p>A te válaszod és a másik játékos válasza <b>megegyeznek</b>.</p>","null","","","","feedback trial","",""
"html-button-response-esp","41","490766","0.0-11.0-0.15","6157","János imád frivamozni, ezért sokat frivamlik. Mi ritkán...","1","frivamlunk","[""frivamozunk"",""frivamlunk""]","frivamlunk","esp trial","11","true"
"html-button-response","42","494307","0.0-11.0-1.15","null","<p>A másik játékos ezt választotta: <b>frivamlunk</b>.</p><p>&#x2705;</p><p>A te válaszod és a másik játékos válasza <b>megegyeznek</b>.</p>","null","","","","feedback trial","",""
"html-button-response-esp","43","502809","0.0-11.0-0.16","7983","János imád brálamozni, ezért sokat brálamlik. Ők ritkán...","0","brálamoznak","[""brálamoznak"",""brálamlanak""]","brálamlanak","esp trial","11","false"
"html-button-response","44","506328","0.0-11.0-1.16","null","<p>A másik játékos ezt választotta: <b>brálamlanak</b>.</p><p>&#10060;</p><p>A válaszaitok <b>nem</b> egyeznek meg.</p>","null","","","","feedback trial","",""
"html-button-response-esp","45","516419","0.0-11.0-0.17","9587","János imád dirányozni, ezért sokat diránylik. Ők ritkán...","1","dirányoznak","[""diránylanak"",""dirányoznak""]","dirányoznak","esp trial","11","true"
"html-button-response","46","519957","0.0-11.0-1.17","null","<p>A másik játékos ezt választotta: <b>dirányoznak</b>.</p><p>&#x2705;</p><p>A te válaszod és a másik játékos válasza <b>megegyeznek</b>.</p>","null","","","","feedback trial","",""
"html-button-response-esp","47","528377","0.0-11.0-0.18","5866","János imád sponyozni, ezért sokat sponylik. Ők ritkán...","0","sponyoznak","[""sponyoznak"",""sponylanak""]","sponylanak","esp trial","11","false"
"html-button-response","48","531901","0.0-11.0-1.18","null","<p>A másik játékos ezt választotta: <b>sponylanak</b>.</p><p>&#10060;</p><p>A válaszaitok <b>nem</b> egyeznek meg.</p>","null","","","","feedback trial","",""
"html-button-response-esp","49","540314","0.0-11.0-0.19","6522","János imád brüszözni, ezért sokat brüszlik. Ti ritkán...","0","brüszöztök","[""brüszöztök"",""brüszlötök""]","brüszöztök","esp trial","11","true"
"html-button-response","50","543844","0.0-11.0-1.19","null","<p>A másik játékos ezt választotta: <b>brüszöztök</b>.</p><p>&#x2705;</p><p>A te válaszod és a másik játékos válasza <b>megegyeznek</b>.</p>","null","","","","feedback trial","",""
"html-button-response-esp","51","552254","0.0-11.0-0.20","6325","János imád spibamozni, ezért sokat spibamlik. Ők ritkán...","0","spibamoznak","[""spibamoznak"",""spibamlanak""]","spibamlanak","esp trial","11","false"
"html-button-response","52","555780","0.0-11.0-1.20","null","<p>A másik játékos ezt választotta: <b>spibamlanak</b>.</p><p>&#10060;</p><p>A válaszaitok <b>nem</b> egyeznek meg.</p>","null","","","","feedback trial","",""
"html-button-response-esp","53","567873","0.0-11.0-0.21","11581","János imád trírozni, ezért sokat trírzik. Mi ritkán...","0","trírozunk","[""trírozunk"",""trírzunk""]","trírozunk","esp trial","11","true"
"html-button-response","54","571404","0.0-11.0-1.21","null","<p>A másik játékos ezt választotta: <b>trírozunk</b>.</p><p>&#x2705;</p><p>A te válaszod és a másik játékos válasza <b>megegyeznek</b>.</p>","null","","","","feedback trial","",""
"html-button-response-esp","55","579820","0.0-11.0-0.22","6524","János imád galározni, ezért sokat galárzik. Ők ritkán...","0","galároznak","[""galároznak"",""galárzanak""]","galároznak","esp trial","11","true"
"html-button-response","56","583349","0.0-11.0-1.22","null","<p>A másik játékos ezt választotta: <b>galároznak</b>.</p><p>&#x2705;</p><p>A te válaszod és a másik játékos válasza <b>megegyeznek</b>.</p>","null","","","","feedback trial","",""
"html-button-response-esp","57","591764","0.0-11.0-0.23","5554","János imád hákodni, ezért sokat hákszik. Ők ritkán...","1","hákodnak","[""hákszanak"",""hákodnak""]","hákodnak","esp trial","11","true"
"html-button-response","58","595285","0.0-11.0-1.23","null","<p>A másik játékos ezt választotta: <b>hákodnak</b>.</p><p>&#x2705;</p><p>A te válaszod és a másik játékos válasza <b>megegyeznek</b>.</p>","null","","","","feedback trial","",""
"html-button-response-esp","59","603716","0.0-11.0-0.24","6155","János imád sztritozni, ezért sokat sztritlik. Ők ritkán...","1","sztritoznak","[""sztritlanak"",""sztritoznak""]","sztritoznak","esp trial","11","true"
"html-button-response","60","607246","0.0-11.0-1.24","null","<p>A másik játékos ezt választotta: <b>sztritoznak</b>.</p><p>&#x2705;</p><p>A te válaszod és a másik játékos válasza <b>megegyeznek</b>.</p>","null","","","","feedback trial","",""
"html-button-response-esp","61","615663","0.0-11.0-0.25","5339","János imád fröjözni, ezért sokat fröjlik. Mi ritkán...","0","fröjlünk","[""fröjlünk"",""fröjözünk""]","fröjözünk","esp trial","11","false"
"html-button-response","62","619192","0.0-11.0-1.25","null","<p>A másik játékos ezt választotta: <b>fröjözünk</b>.</p><p>&#10060;</p><p>A válaszaitok <b>nem</b> egyeznek meg.</p>","null","","","","feedback trial","",""
"html-button-response-esp","63","627608","0.0-11.0-0.26","4915","János imád pekedni, ezért sokat pekszik. Mi ritkán...","1","pekedünk","[""pekszünk"",""pekedünk""]","pekszünk","esp trial","11","false"
"html-button-response","64","631122","0.0-11.0-1.26","null","<p>A másik játékos ezt választotta: <b>pekszünk</b>.</p><p>&#10060;</p><p>A válaszaitok <b>nem</b> egyeznek meg.</p>","null","","","","feedback trial","",""
"html-button-response-esp","65","639549","0.0-11.0-0.27","7725","János imád klarágozni, ezért sokat klarágzik. Ti ritkán...","0","klarágzotok","[""klarágzotok"",""klarágoztok""]","klarágoztok","esp trial","11","false"
"html-button-response","66","643081","0.0-11.0-1.27","null","<p>A másik játékos ezt választotta: <b>klarágoztok</b>.</p><p>&#10060;</p><p>A válaszaitok <b>nem</b> egyeznek meg.</p>","null","","","","feedback trial","",""
"html-button-response-esp","67","651494","0.0-11.0-0.28","5304","János imád lumozni, ezért sokat lumlik. Ti ritkán...","0","lumoztok","[""lumoztok"",""lumlotok""]","lumoztok","esp trial","11","true"
"html-button-response","68","655018","0.0-11.0-1.28","null","<p>A másik játékos ezt választotta: <b>lumoztok</b>.</p><p>&#x2705;</p><p>A te válaszod és a másik játékos válasza <b>megegyeznek</b>.</p>","null","","","","feedback trial","",""
"html-button-response-esp","69","663431","0.0-11.0-0.29","5955","János imád flézezni, ezért sokat flézlik. Ti ritkán...","1","flézeztek","[""flézletek"",""flézeztek""]","flézeztek","esp trial","11","true"
"html-button-response","70","666947","0.0-11.0-1.29","null","<p>A másik játékos ezt választotta: <b>flézeztek</b>.</p><p>&#x2705;</p><p>A te válaszod és a másik játékos válasza <b>megegyeznek</b>.</p>","null","","","","feedback trial","",""
"html-button-response-esp","71","675355","0.0-11.0-0.30","6577","János imád brivepedni, ezért sokat brivepszik. Mi ritkán...","0","brivepszünk","[""brivepszünk"",""brivepedünk""]","brivepszünk","esp trial","11","true"
"html-button-response","72","678889","0.0-11.0-1.30","null","<p>A másik játékos ezt választotta: <b>brivepszünk</b>.</p><p>&#x2705;</p><p>A te válaszod és a másik játékos válasza <b>megegyeznek</b>.</p>","null","","","","feedback trial","",""
"html-button-response-esp","73","688442","0.0-11.0-0.31","9041","János imád filányozni, ezért sokat filánylik. Mi ritkán...","0","filányozunk","[""filányozunk"",""filánylunk""]","filányozunk","esp trial","11","true"
"html-button-response","74","691973","0.0-11.0-1.31","null","<p>A másik játékos ezt választotta: <b>filányozunk</b>.</p><p>&#x2705;</p><p>A te válaszod és a másik játékos válasza <b>megegyeznek</b>.</p>","null","","","","feedback trial","",""
"html-button-response-esp","75","700396","0.0-11.0-0.32","6883","János imád küsözni, ezért sokat küslik. Mi ritkán...","1","küsözünk","[""küslünk"",""küsözünk""]","küslünk","esp trial","11","false"
"html-button-response","76","703920","0.0-11.0-1.32","null","<p>A másik játékos ezt választotta: <b>küslünk</b>.</p><p>&#10060;</p><p>A válaszaitok <b>nem</b> egyeznek meg.</p>","null","","","","feedback trial","",""
"html-button-response-esp","77","712342","0.0-11.0-0.33","6171","János imád prilepedni, ezért sokat prilepszik. Mi ritkán...","0","prilepszünk","[""prilepszünk"",""prilepedünk""]","prilepszünk","esp trial","11","true"
"html-button-response","78","715865","0.0-11.0-1.33","null","<p>A másik játékos ezt választotta: <b>prilepszünk</b>.</p><p>&#x2705;</p><p>A te válaszod és a másik játékos válasza <b>megegyeznek</b>.</p>","null","","","","feedback trial","",""
"html-button-response-esp","79","724266","0.0-11.0-0.34","5259","János imád vobozni, ezért sokat vobzik. Ti ritkán...","0","voboztok","[""voboztok"",""vobzotok""]","voboztok","esp trial","11","true"
"html-button-response","80","727794","0.0-11.0-1.34","null","<p>A másik játékos ezt választotta: <b>voboztok</b>.</p><p>&#x2705;</p><p>A te válaszod és a másik játékos válasza <b>megegyeznek</b>.</p>","null","","","","feedback trial","",""
"html-button-response-esp","81","736218","0.0-11.0-0.35","5965","János imád tágarozni, ezért sokat tágarzik. Mi ritkán...","0","tágarozunk","[""tágarozunk"",""tágarzunk""]","tágarozunk","esp trial","11","true"
"html-button-response","82","739764","0.0-11.0-1.35","null","<p>A másik játékos ezt választotta: <b>tágarozunk</b>.</p><p>&#x2705;</p><p>A te válaszod és a másik játékos válasza <b>megegyeznek</b>.</p>","null","","","","feedback trial","",""
"html-button-response-esp","83","748341","0.0-11.0-0.36","8057","János imád mísozni, ezért sokat míslik. Mi ritkán...","0","míslunk","[""míslunk"",""mísozunk""]","mísozunk","esp trial","11","false"
"html-button-response","84","751860","0.0-11.0-1.36","null","<p>A másik játékos ezt választotta: <b>mísozunk</b>.</p><p>&#10060;</p><p>A válaszaitok <b>nem</b> egyeznek meg.</p>","null","","","","feedback trial","",""
"html-button-response-esp","85","760271","0.0-11.0-0.37","7390","János imád gibemezni, ezért sokat gibemlik. Mi ritkán...","0","gibemezünk","[""gibemezünk"",""gibemlünk""]","gibemlünk","esp trial","11","false"
"html-button-response","86","763785","0.0-11.0-1.37","null","<p>A másik játékos ezt választotta: <b>gibemlünk</b>.</p><p>&#10060;</p><p>A válaszaitok <b>nem</b> egyeznek meg.</p>","null","","","","feedback trial","",""
"html-button-response-esp","87","773062","0.0-11.0-0.38","8756","János imád kluzozni, ezért sokat kluzlik. Ti ritkán...","0","kluzoztok","[""kluzoztok"",""kluzlotok""]","kluzoztok","esp trial","11","true"
"html-button-response","88","776581","0.0-11.0-1.38","null","<p>A másik játékos ezt választotta: <b>kluzoztok</b>.</p><p>&#x2705;</p><p>A te válaszod és a másik játékos válasza <b>megegyeznek</b>.</p>","null","","","","feedback trial","",""
"html-button-response-esp","89","784990","0.0-11.0-0.39","5080","János imád riványozni, ezért sokat riványlik. Ti ritkán...","1","riványlotok","[""riványoztok"",""riványlotok""]","riványoztok","esp trial","11","false"
"html-button-response","90","788514","0.0-11.0-1.39","null","<p>A másik játékos ezt választotta: <b>riványoztok</b>.</p><p>&#10060;</p><p>A válaszaitok <b>nem</b> egyeznek meg.</p>","null","","","","feedback trial","",""
"html-button-response-esp","91","796927","0.0-11.0-0.40","6703","János imád livényezni, ezért sokat livénylik. Mi ritkán...","0","livénylünk","[""livénylünk"",""livényezünk""]","livénylünk","esp trial","11","true"
"html-button-response","92","800446","0.0-11.0-1.40","null","<p>A másik játékos ezt választotta: <b>livénylünk</b>.</p><p>&#x2705;</p><p>A te válaszod és a másik játékos válasza <b>megegyeznek</b>.</p>","null","","","","feedback trial","",""
"html-button-response-esp","93","808869","0.0-11.0-0.41","7118","János imád flivegezni, ezért sokat flivegzik. Ők ritkán...","0","flivegeznek","[""flivegeznek"",""flivegzenek""]","flivegeznek","esp trial","11","true"
"html-button-response","94","812391","0.0-11.0-1.41","null","<p>A másik játékos ezt választotta: <b>flivegeznek</b>.</p><p>&#x2705;</p><p>A te válaszod és a másik játékos válasza <b>megegyeznek</b>.</p>","null","","","","feedback trial","",""
"html-button-response-esp","95","820802","0.0-11.0-0.42","5914","János imád brivágozni, ezért sokat briváglik. Ők ritkán...","1","brivágoznak","[""briváglanak"",""brivágoznak""]","brivágoznak","esp trial","11","true"
"html-button-response","96","824326","0.0-11.0-1.42","null","<p>A másik játékos ezt választotta: <b>brivágoznak</b>.</p><p>&#x2705;</p><p>A te válaszod és a másik játékos válasza <b>megegyeznek</b>.</p>","null","","","","feedback trial","",""
"html-button-response-esp","97","834075","0.0-11.0-0.43","9236","János imád spalározni, ezért sokat spalárzik. Ők ritkán...","0","spalároznak","[""spalároznak"",""spalárzanak""]","spalároznak","esp trial","11","true"
"html-button-response","98","837603","0.0-11.0-1.43","null","<p>A másik játékos ezt választotta: <b>spalároznak</b>.</p><p>&#x2705;</p><p>A te válaszod és a másik játékos válasza <b>megegyeznek</b>.</p>","null","","","","feedback trial","",""
"html-button-response-esp","99","846012","0.0-11.0-0.44","7105","János imád frésezni, ezért sokat fréslik. Mi ritkán...","1","frésezünk","[""fréslünk"",""frésezünk""]","fréslünk","esp trial","11","false"
"html-button-response","100","849528","0.0-11.0-1.44","null","<p>A másik játékos ezt választotta: <b>fréslünk</b>.</p><p>&#10060;</p><p>A válaszaitok <b>nem</b> egyeznek meg.</p>","null","","","","feedback trial","",""
"html-button-response-esp","101","857950","0.0-11.0-0.45","6083","János imád gatágozni, ezért sokat gatáglik. Mi ritkán...","0","gatágozunk","[""gatágozunk"",""gatáglunk""]","gatágozunk","esp trial","11","true"
"html-button-response","102","861481","0.0-11.0-1.45","null","<p>A másik játékos ezt választotta: <b>gatágozunk</b>.</p><p>&#x2705;</p><p>A te válaszod és a másik játékos válasza <b>megegyeznek</b>.</p>","null","","","","feedback trial","",""
"html-button-response-esp","103","870020","0.0-11.0-0.46","8026","János imád gyivepedni, ezért sokat gyivepszik. Ők ritkán...","1","gyivepednek","[""gyivepszenek"",""gyivepednek""]","gyivepednek","esp trial","11","true"
"html-button-response","104","873547","0.0-11.0-1.46","null","<p>A másik játékos ezt választotta: <b>gyivepednek</b>.</p><p>&#x2705;</p><p>A te válaszod és a másik játékos válasza <b>megegyeznek</b>.</p>","null","","","","feedback trial","",""
"html-button-response-esp","105","881950","0.0-11.0-0.47","4494","János imád sprimozni, ezért sokat sprimlik. Mi ritkán...","1","sprimozunk","[""sprimlunk"",""sprimozunk""]","sprimozunk","esp trial","11","true"
"html-button-response","106","885466","0.0-11.0-1.47","null","<p>A másik játékos ezt választotta: <b>sprimozunk</b>.</p><p>&#x2705;</p><p>A te válaszod és a másik játékos válasza <b>megegyeznek</b>.</p>","null","","","","feedback trial","",""
"html-button-response-esp","107","893891","0.0-11.0-0.48","5585","János imád mihágozni, ezért sokat mihágzik. Ti ritkán...","1","mihágoztok","[""mihágzotok"",""mihágoztok""]","mihágoztok","esp trial","11","true"
"html-button-response","108","897415","0.0-11.0-1.48","null","<p>A másik játékos ezt választotta: <b>mihágoztok</b>.</p><p>&#x2705;</p><p>A te válaszod és a másik játékos válasza <b>megegyeznek</b>.</p>","null","","","","feedback trial","",""
"html-button-response-esp","109","905826","0.0-11.0-0.49","7167","János imád míjozni, ezért sokat míjzik. Mi ritkán...","0","míjozunk","[""míjozunk"",""míjzunk""]","míjozunk","esp trial","11","true"
"html-button-response","110","909363","0.0-11.0-1.49","null","<p>A másik játékos ezt választotta: <b>míjozunk</b>.</p><p>&#x2705;</p><p>A te válaszod és a másik játékos válasza <b>megegyeznek</b>.</p>","null","","","","feedback trial","",""
"html-button-response-esp","111","917782","0.0-11.0-0.50","5789","János imád sztrajozni, ezért sokat sztrajlik. Ők ritkán...","1","sztrajoznak","[""sztrajlanak"",""sztrajoznak""]","sztrajlanak","esp trial","11","false"
"html-button-response","112","921291","0.0-11.0-1.50","null","<p>A másik játékos ezt választotta: <b>sztrajlanak</b>.</p><p>&#10060;</p><p>A válaszaitok <b>nem</b> egyeznek meg.</p>","null","","","","feedback trial","",""
"html-button-response-esp","113","929715","0.0-11.0-0.51","5347","János imád spöközni, ezért sokat spöklik. Mi ritkán...","1","spöközünk","[""spöklünk"",""spöközünk""]","spöklünk","esp trial","11","false"
"html-button-response","114","933255","0.0-11.0-1.51","null","<p>A másik játékos ezt választotta: <b>spöklünk</b>.</p><p>&#10060;</p><p>A válaszaitok <b>nem</b> egyeznek meg.</p>","null","","","","feedback trial","",""
"html-button-response-esp","115","941678","0.0-11.0-0.52","6233","János imád pörözni, ezért sokat pörzik. Ti ritkán...","1","pöröztök","[""pörzötök"",""pöröztök""]","pöröztök","esp trial","11","true"
"html-button-response","116","945211","0.0-11.0-1.52","null","<p>A másik játékos ezt választotta: <b>pöröztök</b>.</p><p>&#x2705;</p><p>A te válaszod és a másik játékos válasza <b>megegyeznek</b>.</p>","null","","","","feedback trial","",""
"html-button-response-esp","117","954768","0.0-11.0-0.53","9042","János imád flubokozni, ezért sokat fluboklik. Ti ritkán...","1","flubokoztok","[""fluboklotok"",""flubokoztok""]","flubokoztok","esp trial","11","true"
"html-button-response","118","958300","0.0-11.0-1.53","null","<p>A másik játékos ezt választotta: <b>flubokoztok</b>.</p><p>&#x2705;</p><p>A te válaszod és a másik játékos válasza <b>megegyeznek</b>.</p>","null","","","","feedback trial","",""
"html-button-response","119","969858","0.0-12.0","11053","<p>A közös játék most véget ért.</p><p>Mielőtt eláruljuk a végső pontszámodat, arra kérlek, játszd a szóválasztós játékot néhány percig egyedül is.</p><p>A feladatod ugyanaz lesz, választani két lehetőség közül.</p><p>Most viszont egyedül kell döntened, hogy te melyiket választanád.</p>","0","","","","","",""
"html-button-response-clever","120","978471","0.0-13.0-0.0","8095","János imád prihegedni, ezért sokat prihegszik. Ők ritkán...","0","prihegszenek","[""prihegszenek"",""prihegednek""]","","posttest trial","1",""
"html-button-response-clever","121","986875","0.0-13.0-0.1","7885","János imád bügözni, ezért sokat bügzik. Ők ritkán...","0","bügöznek","[""bügöznek"",""bügzenek""]","","posttest trial","1",""
"html-button-response-clever","122","1001608","0.0-13.0-0.2","14217","János imád klégezni, ezért sokat kléglik. Mi ritkán...","0","klégezünk","[""klégezünk"",""kléglünk""]","","posttest trial","1",""
"html-button-response-clever","123","1006567","0.0-13.0-0.3","4441","János imád nyádozni, ezért sokat nyádlik. Ők ritkán...","0","nyádoznak","[""nyádoznak"",""nyádlanak""]","","posttest trial","1",""
"html-button-response-clever","124","1015966","0.0-13.0-0.4","8881","János imád kláragodni, ezért sokat kláragszik. Ti ritkán...","0","kláragszotok","[""kláragszotok"",""kláragodtok""]","","posttest trial","1",""
"html-button-response-clever","125","1026927","0.0-13.0-0.5","10450","János imád bribékedni, ezért sokat bribékszik. Ti ritkán...","0","bribékedtek","[""bribékedtek"",""bribékszetek""]","","posttest trial","1",""
"html-button-response-clever","126","1035410","0.0-13.0-0.6","7976","János imád géregezni, ezért sokat géreglik. Ti ritkán...","1","géregeztek","[""géregletek"",""géregeztek""]","","posttest trial","1",""
"html-button-response-clever","127","1041672","0.0-13.0-0.7","5755","János imád nivározni, ezért sokat nivárzik. Ti ritkán...","0","nivároztok","[""nivároztok"",""nivárzotok""]","","posttest trial","1",""
"html-button-response-clever","128","1053140","0.0-13.0-0.8","10959","János imád frinyozni, ezért sokat frinylik. Mi ritkán...","0","frinyozunk","[""frinyozunk"",""frinylunk""]","","posttest trial","1",""
"html-button-response-clever","129","1060171","0.0-13.0-0.9","6523","János imád bresezni, ezért sokat breslik. Ők ritkán...","0","breseznek","[""breseznek"",""breslenek""]","","posttest trial","1",""
"html-button-response-clever","130","1069305","0.0-13.0-0.10","8624","János imád frirozni, ezért sokat frirzik. Mi ritkán...","0","frirzunk","[""frirzunk"",""frirozunk""]","","posttest trial","1",""
"html-button-response-clever","131","1077015","0.0-13.0-0.11","7201","János imád flodozni, ezért sokat flodlik. Ti ritkán...","1","flodoztok","[""flodlotok"",""flodoztok""]","","posttest trial","1",""
"html-button-response-clever","132","1083131","0.0-13.0-0.12","5611","János imád tögözni, ezért sokat töglik. Ők ritkán...","0","tögöznek","[""tögöznek"",""töglenek""]","","posttest trial","1",""
"html-button-response-clever","133","1089756","0.0-13.0-0.13","6106","János imád dralágozni, ezért sokat dralágzik. Mi ritkán...","1","dralágzunk","[""dralágozunk"",""dralágzunk""]","","posttest trial","1",""
"html-button-response-clever","134","1097719","0.0-13.0-0.14","7453","János imád nyülöközni, ezért sokat nyülöklik. Ők ritkán...","1","nyülöklenek","[""nyülököznek"",""nyülöklenek""]","","posttest trial","1",""
"html-button-response-clever","135","1104956","0.0-13.0-0.15","6725","János imád nurokozni, ezért sokat nuroklik. Mi ritkán...","1","nurokozunk","[""nuroklunk"",""nurokozunk""]","","posttest trial","1",""
"html-button-response-clever","136","1113215","0.0-13.0-0.16","7749","János imád nyöbözni, ezért sokat nyöbzik. Ők ritkán...","0","nyöböznek","[""nyöböznek"",""nyöbzenek""]","","posttest trial","1",""
"html-button-response-clever","137","1119910","0.0-13.0-0.17","6177","János imád játozni, ezért sokat játlik. Mi ritkán...","0","játlunk","[""játlunk"",""játozunk""]","","posttest trial","1",""
"html-button-response-clever","138","1129018","0.0-13.0-0.18","8600","János imád nyizozni, ezért sokat nyizlik. Mi ritkán...","0","nyizozunk","[""nyizozunk"",""nyizlunk""]","","posttest trial","1",""
"html-button-response-clever","139","1136391","0.0-13.0-0.19","6870","János imád spivejezni, ezért sokat spivejlik. Ők ritkán...","0","spivejeznek","[""spivejeznek"",""spivejlenek""]","","posttest trial","1",""
"html-button-response-clever","140","1144969","0.0-13.0-0.20","8060","János imád plibozni, ezért sokat plibzik. Ti ritkán...","1","pliboztok","[""plibzotok"",""pliboztok""]","","posttest trial","1",""
"html-button-response-clever","141","1151516","0.0-13.0-0.21","6033","János imád dibágozni, ezért sokat dibáglik. Ti ritkán...","0","dibágoztok","[""dibágoztok"",""dibáglotok""]","","posttest trial","1",""
"html-button-response-clever","142","1160909","0.0-13.0-0.22","8884","János imád spuborozni, ezért sokat spuborzik. Ők ritkán...","1","spuboroznak","[""spuborzanak"",""spuboroznak""]","","posttest trial","1",""
"html-button-response-clever","143","1169694","0.0-13.0-0.23","8266","János imád brürözni, ezért sokat brürzik. Ők ritkán...","1","brüröznek","[""brürzenek"",""brüröznek""]","","posttest trial","1",""
"html-button-response-clever","144","1175866","0.0-13.0-0.24","5665","János imád jurozni, ezért sokat jurlik. Mi ritkán...","0","jurozunk","[""jurozunk"",""jurlunk""]","","posttest trial","1",""
"html-button-response-clever","145","1183926","0.0-13.0-0.25","7550","János imád trálakozni, ezért sokat trálaklik. Ők ritkán...","1","trálakoznak","[""trálaklanak"",""trálakoznak""]","","posttest trial","1",""
"html-button-response-clever","146","1192203","0.0-13.0-0.26","7764","János imád vehékedni, ezért sokat vehékszik. Mi ritkán...","0","vehékedünk","[""vehékedünk"",""vehékszünk""]","","posttest trial","1",""
"html-button-response-clever","147","1198020","0.0-13.0-0.27","5307","János imád trálodni, ezért sokat trálszik. Mi ritkán...","1","trálodunk","[""trálszunk"",""trálodunk""]","","posttest trial","1",""
"html-button-response-clever","148","1209422","0.0-13.0-0.28","10891","János imád frélegezni, ezért sokat frélegzik. Mi ritkán...","0","frélegzünk","[""frélegzünk"",""frélegezünk""]","","posttest trial","1",""
"html-button-response-clever","149","1215737","0.0-13.0-0.29","5797","János imád frorozni, ezért sokat frorlik. Ők ritkán...","0","froroznak","[""froroznak"",""frorlanak""]","","posttest trial","1",""
"html-button-response-clever","150","1224395","0.0-13.0-0.30","8155","János imád flerékedni, ezért sokat flerékszik. Mi ritkán...","0","flerékszünk","[""flerékszünk"",""flerékedünk""]","","posttest trial","1",""
"html-button-response-clever","151","1233018","0.0-13.0-0.31","8106","János imád prugorozni, ezért sokat prugorzik. Ti ritkán...","0","prugoroztok","[""prugoroztok"",""prugorzotok""]","","posttest trial","1",""
"html-button-response-clever","152","1245451","0.0-13.0-0.32","11917","János imád bötőrözni, ezért sokat bötőrzik. Mi ritkán...","1","bötőrözünk","[""bötőrzünk"",""bötőrözünk""]","","posttest trial","1",""
"html-button-response-clever","153","1254059","0.0-13.0-0.33","8097","János imád trilekedni, ezért sokat trilekszik. Ti ritkán...","1","trilekedtek","[""trilekszetek"",""trilekedtek""]","","posttest trial","1",""
"html-button-response-clever","154","1261548","0.0-13.0-0.34","6970","János imád flugonyozni, ezért sokat flugonylik. Ők ritkán...","1","flugonyoznak","[""flugonylanak"",""flugonyoznak""]","","posttest trial","1",""
"html-button-response-clever","155","1267937","0.0-13.0-0.35","5873","János imád trukodni, ezért sokat trukszik. Ti ritkán...","1","trukszotok","[""trukodtok"",""trukszotok""]","","posttest trial","1",""
"html-button-response-clever","156","1273508","0.0-13.0-0.36","5061","János imád döjözni, ezért sokat döjlik. Ők ritkán...","1","döjöznek","[""döjlenek"",""döjöznek""]","","posttest trial","1",""
"html-button-response-clever","157","1281065","0.0-13.0-0.37","7038","János imád bribasozni, ezért sokat bribaslik. Ők ritkán...","0","bribasoznak","[""bribasoznak"",""bribaslanak""]","","posttest trial","1",""
"html-button-response-clever","158","1287380","0.0-13.0-0.38","5803","János imád sprebezni, ezért sokat sprebzik. Ők ritkán...","0","sprebeznek","[""sprebeznek"",""sprebzenek""]","","posttest trial","1",""
"html-button-response-clever","159","1294922","0.0-13.0-0.39","7020","János imád metégedni, ezért sokat metégszik. Ők ritkán...","1","metégednek","[""metégszenek"",""metégednek""]","","posttest trial","1",""
"html-button-response-clever","160","1302950","0.0-13.0-0.40","7511","János imád ribegedni, ezért sokat ribegszik. Ti ritkán...","0","ribegedtek","[""ribegedtek"",""ribegszetek""]","","posttest trial","1",""
"html-button-response-clever","161","1308970","0.0-13.0-0.41","5506","János imád bejezni, ezért sokat bejzik. Mi ritkán...","0","bejzünk","[""bejzünk"",""bejezünk""]","","posttest trial","1",""
"html-button-response-clever","162","1315393","0.0-13.0-0.42","5913","János imád sztredezni, ezért sokat sztredlik. Ti ritkán...","1","sztredeztek","[""sztredletek"",""sztredeztek""]","","posttest trial","1",""
"html-button-response-clever","163","1323083","0.0-13.0-0.43","7171","János imád klihasozni, ezért sokat klihaslik. Ti ritkán...","1","klihasoztok","[""klihaslotok"",""klihasoztok""]","","posttest trial","1",""
"html-button-response-clever","164","1334312","0.0-13.0-0.44","10720","János imád vilesezni, ezért sokat vileslik. Mi ritkán...","1","vilesezünk","[""vileslünk"",""vilesezünk""]","","posttest trial","1",""
"html-button-response-clever","165","1339230","0.0-13.0-0.45","4409","János imád hiragozni, ezért sokat hiragzik. Ők ritkán...","1","hiragoznak","[""hiragzanak"",""hiragoznak""]","","posttest trial","1",""
"html-button-response-clever","166","1346363","0.0-13.0-0.46","6617","János imád flátozni, ezért sokat flátlik. Ti ritkán...","1","flátoztok","[""flátlotok"",""flátoztok""]","","posttest trial","1",""
"html-button-response-clever","167","1353525","0.0-13.0-0.47","6644","János imád brűközni, ezért sokat brűklik. Ti ritkán...","0","brűköztök","[""brűköztök"",""brűklötök""]","","posttest trial","1",""
"html-button-response-clever","168","1361110","0.0-13.0-0.48","7076","János imád klűmözni, ezért sokat klűmlik. Ti ritkán...","0","klűmöztök","[""klűmöztök"",""klűmlötök""]","","posttest trial","1",""
"html-button-response-clever","169","1367804","0.0-13.0-0.49","6177","János imád gihamozni, ezért sokat gihamlik. Ők ritkán...","0","gihamoznak","[""gihamoznak"",""gihamlanak""]","","posttest trial","1",""
"html-button-response-clever","170","1374765","0.0-13.0-0.50","6444","János imád vihapodni, ezért sokat vihapszik. Mi ritkán...","0","vihapszunk","[""vihapszunk"",""vihapodunk""]","","posttest trial","1",""
"html-button-response-clever","171","1381037","0.0-13.0-0.51","5758","János imád sűjözni, ezért sokat sűjlik. Mi ritkán...","1","sűjözünk","[""sűjlünk"",""sűjözünk""]","","posttest trial","1",""
"html-button-response-clever","172","1388518","0.0-13.0-0.52","6971","János imád hubonyozni, ezért sokat hubonylik. Ti ritkán...","1","hubonyoztok","[""hubonylotok"",""hubonyoztok""]","","posttest trial","1",""
"html-button-response-clever","173","1396378","0.0-13.0-0.53","7343","János imád pibegezni, ezért sokat pibegzik. Ők ritkán...","0","pibegeznek","[""pibegeznek"",""pibegzenek""]","","posttest trial","1",""
"html-button-response","174","1412902","0.0-14.0","16012","<p> Vége a játéknak. A teljes pontszámod 36/54.</p><p> Szép munka! &#128526;&#128526;&#128526;</p><p>A Befejezés gomb megnyomása után bezárhatod a böngészőablakot.</p>","0","","","","","",""
"html-keyboard-response","175","1418416","0.0-15.0","null","<div class=""message"">
         <p>Egy kis türelmet kérünk, amíg elmentjük az adatokat...</p>
         </div>","null","","","","","",""
