"trial_type","trial_index","time_elapsed","internal_node_id","rt","stimulus","response","response_string","choices","esp_response","trial_kind","list_number","esp_match"
"pavlovia","0","880","0.0-0.0","","","","","","","","",""
"html-button-response","1","35423","0.0-1.0","34031","<p>Kedves Résztvevő! A Budapesti Műszaki és Gazdaságtudományi Egyetem Kognitív Tudományi Tanszékének kutatásában való részvételed kérjük. A kutatásban azt vizsgáljuk, hogy a magyar anyanyelvűek hogyan használnak bizonyos szóalakokat, és hogy milyen képük van arról, hogy mások hogyan használják, hogyan képzik a szavakat. Ez hozzásegít bennünket ahhoz, hogy jobban megértsük, hogyan dolgozza fel és tárolja a nyelvet az emberi agy, és hogyan működnek, hogyan változnak egy adott közösség nyelvi konvenciói.</p><p>A vizsgálat egy rövid számítógépes feladatból fog állni. A kutatásban való részvétel önkéntes, a részvételi szándék bármikor visszavonható. A résztvevők eredményeit név nélkül kezeljük, így nem beazonosíthatók az adatok feldolgozása során. Minden személyes adatot az EU általános adatvédelmi rendeletének (GDPR) megfelelően kezelünk és legfeljebb öt éven belül megsemmisítünk. A vizsgálat jellemzően húsz percet vesz igénybe.</p><p>Kutatásvezető:</p><p>Dr. Rácz Péter, tudományos munkatárs, BME KTT</p><p>e-mail: racz.peter.marton@ttk.bme.hu</p>","0","","","","","",""
"html-button-response","2","80575","0.0-2.0","44653","<p>A kísérletben szavakat fogsz látni. Ezek között lesznek olyanok, amelyeket ismersz, de előfordulhatnak olyanok is, amelyeket nem ismersz, sőt, vannak köztük kitalált szavak is. Minden szónál látni fogsz toldalékolt alakokat. A te feladatod az lesz, hogy minden szóhoz kiválaszd azt a toldalékolt alakot, amely a te számodra ismerősebben, természetesebben hangzik. Rossz válaszok nincsenek, mert van olyan, hogy különböző embereknek más és más szó tűnik jobb választásnak. A választ úgy tudod majd kiválasztani, ha rákattintasz.</p><p>Ebben a szóválasztós játékban egy másik játékossal együtt veszel majd részt. A másik játékos is minden esetben azok közül a lehetőségek közül válogathat, mint te. Kettőtök feladata az, hogy ugyanazt a lehetőséget válasszátok minden esetben. Ahhoz, hogy ez sikerüljön, neked figyelned kell arra, hogy a másik játékos milyen válaszokat ad, és ennek alapján meg kell tippelned, hogyan választ legközelebb. Ha eltalálod, akkor pontot kapsz.</p>","0","","","","","",""
"html-button-response","3","154621","0.0-3.0","73533","<p>Kérjük, olvasd el az alábbi nyilatkozatot, és amennyiben egyetértesz vele, nyomj a Beleegyezés gombra!</p><p>Kijelentem, hogy magyar anyanyelvű személyként önként veszek részt a BME KTT kísérletében. A kutatás céljával és folyamatával kapcsolatban elegendő tájékoztatást kaptam, lehetőségem volt kérdések feltételére, és esetleges kérdéseimre megfelelő válaszokat kaptam. A tájékoztatás alapján elegendő mennyiségű információ áll a rendelkezésemre, hogy eldönthessem, részt kívánok-e venni a kutatásban.</p><p>Tisztában vagyok vele, hogy részvételi szándékomat és adataimat bármikor, indoklás nélkül visszavonhatom.</p><p>Értem és tudomásul veszem, hogy a kutatás tudományos célokat szolgál, és az általam szolgáltatott adatokat a BME kizárólag kutatási célból használja fel. Tudomásul veszem, hogy eredményeimet a többi résztvevő eredményeivel együtt kezelik, így egyéni teljesítményemről visszajelzést, szakvéleményt nem kapok.</p><p>Megértettem, hogy adataim kezelését illetően a BME az EU általános adatvédelmi rendelete (GDPR), a hatályos adatvédelmi törvény és a nemzetközi kutatás-etikai alapelvek szerint jár el. Eredményeim anonim módon kerülnek feldolgozásra, és a kutatás résztvevői az azonosításomra alkalmas adataimat harmadik félnek nem szolgáltatják ki. Engedélyezem a BME számára a jelen kutatásban felvett adataim feldolgozását és tárolását, beleértve azok későbbi kutatásokhoz való felhasználását is. Személyes adataim kezelésével kapcsolatban tájékoztatást kérhetek a kutatás résztvevőitől, az adatkezelés ellen tiltakozhatok, kérhetem személyes adataim helyesbítését, törlését vagy zárolását, valamint jogorvoslatért a Nemzeti Adatvédelmi és Információszabadság Hatósághoz fordulhatok.</p><p>Kijelentem, hogy a kutatásban való részvételem körülményeiről részletes tájékoztatást kaptam, és a feltételeket elfogadom.</p>","0","","","","","",""
"survey-text","4","235060","0.0-4.0","79923","","{""Q0"":""HEY38D"",""Q1"":"""",""Q2"":""1983"",""Q3"":""""}","","","","","",""
"html-button-response","5","256466","0.0-5.0","20891","<p>Ebben a játékban szavakat kell toldalékolni.</p> <p>Minden körben mutatunk majd egy példamondatot, amiben lesz egy szó.</p> <p>Alatta jön egy második mondat, ezt a mondatot neked kell majd befejezni, ugyanezzel a szóval.</p> <p>Nem biztos, hogy a szó eleve ismerős lesz számodra!</p> <p>Minden mondathoz adunk két lehetőséget, ezeket balra és jobbra látod majd.</p> <p>A játék kb. negyedóráig-húsz percig tart.</p>","0","","","","","",""
"html-button-response","6","281320","0.0-6.0","24339","<p>Nézzünk egy példát!</p> <p>A példamondat: ""Ez itt egy blumbnyeg.""</p><p>Neked ezt a mondatot kell befejezned: ""Ott vagyunk a...""</p><p>A lehetőségek pedig ezek:</p>","0","","","","","",""
"html-button-response","7","296163","0.0-7.0","14332","<p>Nagyon jó.</p><p>Ezt a játékot nem egyedül fogod játszani, hanem egy másik játékossal.</p><p>Mielőtt továbblépünk, összekapcsolunk titeket egymással.</p><p>Ez igénybe vehet néhány másodpercet, amihez szíves türelmed kérjük.</p>","0","","","","","",""
"html-button-response","8","301915","0.0-8.0","null","<p>Csatlakozás a másik játékoshoz...</p>","null","","","","","",""
"html-button-response","9","304432","0.0-9.0","null","<p> Sikeres kapcsolódás!</p>","null","","","","","",""
"html-button-response","10","314949","0.0-10.0","null","<p>A következőkben ketten játsszátok a szóválasztós játékot.</p><p>A feladatotok az lesz, hogy minden körben <b>ugyanazt</b> a szót válasszátok.</p><p>Minden ilyen egyező válaszért pontot kaptok.</p><p>Próbáld meg kitalálni, mit választ a másik játékos!</p><p>Bármikor választhatsz, a körnek akkor van vége, ha mindketten döntöttetek.</p><p>Sok sikert!</p>","null","","","","","",""
"html-button-response-esp","11","323360","0.0-11.0-0.0","6887","Ez itt egy luméz. Ott vagyunk a...","0","lumézben","[""lumézben"",""lumézban""]","lumézban","esp trial","1","false"
"html-button-response","12","326885","0.0-11.0-1.0","null","<p>A másik játékos ezt választotta: <b>lumézban</b>.</p><p>&#10060;</p><p>A válaszaitok <b>nem</b> egyeznek meg.</p>","null","","","","feedback trial","",""
"html-button-response-esp","13","335288","0.0-11.0-0.1","5091","Ez itt egy zsáder. Ott vagyunk a...","1","zsáderben","[""zsáderban"",""zsáderben""]","zsáderban","esp trial","1","false"
"html-button-response","14","338806","0.0-11.0-1.1","null","<p>A másik játékos ezt választotta: <b>zsáderban</b>.</p><p>&#10060;</p><p>A válaszaitok <b>nem</b> egyeznek meg.</p>","null","","","","feedback trial","",""
"html-button-response-esp","15","347216","0.0-11.0-0.2","7796","Ez itt egy bupéz. Ott vagyunk a...","1","bupézban","[""bupézben"",""bupézban""]","bupézban","esp trial","1","true"
"html-button-response","16","350724","0.0-11.0-1.2","null","<p>A másik játékos ezt választotta: <b>bupézban</b>.</p><p>&#x2705;</p><p>A te válaszod és a másik játékos válasza <b>megegyeznek</b>.</p>","null","","","","feedback trial","",""
"html-button-response-esp","17","359136","0.0-11.0-0.3","4819","Ez itt egy zopély. Nincs is jobb egy jó...","1","zopélynál","[""zopélynél"",""zopélynál""]","zopélynál","esp trial","1","true"
"html-button-response","18","362655","0.0-11.0-1.3","null","<p>A másik játékos ezt választotta: <b>zopélynál</b>.</p><p>&#x2705;</p><p>A te válaszod és a másik játékos válasza <b>megegyeznek</b>.</p>","null","","","","feedback trial","",""
"html-button-response-esp","19","371060","0.0-11.0-0.4","4991","Ez itt egy pítend. Ott vagyunk a...","1","pítendben","[""pítendban"",""pítendben""]","pítendben","esp trial","1","true"
"html-button-response","20","374569","0.0-11.0-1.4","null","<p>A másik játékos ezt választotta: <b>pítendben</b>.</p><p>&#x2705;</p><p>A te válaszod és a másik játékos válasza <b>megegyeznek</b>.</p>","null","","","","feedback trial","",""
"html-button-response-esp","21","382982","0.0-11.0-0.5","5124","Ez itt egy trismél. Elneveztem a kutyámat...","1","trismélnek","[""trismélnak"",""trismélnek""]","trismélnek","esp trial","1","true"
"html-button-response","22","386503","0.0-11.0-1.5","null","<p>A másik játékos ezt választotta: <b>trismélnek</b>.</p><p>&#x2705;</p><p>A te válaszod és a másik játékos válasza <b>megegyeznek</b>.</p>","null","","","","feedback trial","",""
"html-button-response-esp","23","394904","0.0-11.0-0.6","5178","Ez itt egy pijél. Nincs is jobb egy jó...","1","pijélnél","[""pijélnál"",""pijélnél""]","pijélnél","esp trial","1","true"
"html-button-response","24","398431","0.0-11.0-1.6","null","<p>A másik játékos ezt választotta: <b>pijélnél</b>.</p><p>&#x2705;</p><p>A te válaszod és a másik játékos válasza <b>megegyeznek</b>.</p>","null","","","","feedback trial","",""
"html-button-response-esp","25","406833","0.0-11.0-0.7","4492","Ez itt egy pisély. Ott vagyunk a...","1","pisélyben","[""pisélyban"",""pisélyben""]","pisélyben","esp trial","1","true"
"html-button-response","26","410354","0.0-11.0-1.7","null","<p>A másik játékos ezt választotta: <b>pisélyben</b>.</p><p>&#x2705;</p><p>A te válaszod és a másik játékos válasza <b>megegyeznek</b>.</p>","null","","","","feedback trial","",""
"html-button-response-esp","27","422759","0.0-11.0-0.8","11888","Ez itt egy braszenc. Nincs is jobb egy jó...","0","braszencnél","[""braszencnél"",""braszencnál""]","braszencnál","esp trial","1","false"
"html-button-response","28","426279","0.0-11.0-1.8","null","<p>A másik játékos ezt választotta: <b>braszencnál</b>.</p><p>&#10060;</p><p>A válaszaitok <b>nem</b> egyeznek meg.</p>","null","","","","feedback trial","",""
"html-button-response-esp","29","434696","0.0-11.0-0.9","4943","Ez itt egy incéj. Elneveztem a kutyámat...","0","incéjnak","[""incéjnak"",""incéjnek""]","incéjnek","esp trial","1","false"
"html-button-response","30","438230","0.0-11.0-1.9","null","<p>A másik játékos ezt választotta: <b>incéjnek</b>.</p><p>&#10060;</p><p>A válaszaitok <b>nem</b> egyeznek meg.</p>","null","","","","feedback trial","",""
"html-button-response-esp","31","446635","0.0-11.0-0.10","4664","Ez itt egy nyamet. Ott vagyunk a...","1","nyametban","[""nyametben"",""nyametban""]","nyametban","esp trial","1","true"
"html-button-response","32","450149","0.0-11.0-1.10","null","<p>A másik játékos ezt választotta: <b>nyametban</b>.</p><p>&#x2705;</p><p>A te válaszod és a másik játékos válasza <b>megegyeznek</b>.</p>","null","","","","feedback trial","",""
"html-button-response-esp","33","458780","0.0-11.0-0.11","8123","Ez itt egy dábegy. Ott vagyunk a...","0","dábegyben","[""dábegyben"",""dábegyban""]","dábegyban","esp trial","1","false"
"html-button-response","34","462304","0.0-11.0-1.11","null","<p>A másik játékos ezt választotta: <b>dábegyban</b>.</p><p>&#10060;</p><p>A válaszaitok <b>nem</b> egyeznek meg.</p>","null","","","","feedback trial","",""
"html-button-response-esp","35","470701","0.0-11.0-0.12","4516","Ez itt egy dihely. Elneveztem a kutyámat...","1","dihelynek","[""dihelynak"",""dihelynek""]","dihelynek","esp trial","1","true"
"html-button-response","36","474221","0.0-11.0-1.12","null","<p>A másik játékos ezt választotta: <b>dihelynek</b>.</p><p>&#x2705;</p><p>A te válaszod és a másik játékos válasza <b>megegyeznek</b>.</p>","null","","","","feedback trial","",""
"html-button-response-esp","37","488660","0.0-11.0-0.13","13937","Ez itt egy klosét. Elneveztem a kutyámat...","1","klosétnek","[""klosétnak"",""klosétnek""]","klosétnak","esp trial","1","false"
"html-button-response","38","492169","0.0-11.0-1.13","null","<p>A másik játékos ezt választotta: <b>klosétnak</b>.</p><p>&#10060;</p><p>A válaszaitok <b>nem</b> egyeznek meg.</p>","null","","","","feedback trial","",""
"html-button-response-esp","39","500653","0.0-11.0-0.14","7981","Ez itt egy sprivenc. Nincs is jobb egy jó...","1","sprivencnél","[""sprivencnál"",""sprivencnél""]","sprivencnél","esp trial","1","true"
"html-button-response","40","504175","0.0-11.0-1.14","null","<p>A másik játékos ezt választotta: <b>sprivencnél</b>.</p><p>&#x2705;</p><p>A te válaszod és a másik játékos válasza <b>megegyeznek</b>.</p>","null","","","","feedback trial","",""
"html-button-response-esp","41","512587","0.0-11.0-0.15","7779","Ez itt egy vorszen. Nincs is jobb egy jó...","1","vorszennél","[""vorszennál"",""vorszennél""]","vorszennál","esp trial","1","false"
"html-button-response","42","516104","0.0-11.0-1.15","null","<p>A másik játékos ezt választotta: <b>vorszennál</b>.</p><p>&#10060;</p><p>A válaszaitok <b>nem</b> egyeznek meg.</p>","null","","","","feedback trial","",""
"html-button-response-esp","43","524500","0.0-11.0-0.16","5622","Ez itt egy gúden. Ott vagyunk a...","1","gúdenben","[""gúdenban"",""gúdenben""]","gúdenben","esp trial","1","true"
"html-button-response","44","528020","0.0-11.0-1.16","null","<p>A másik játékos ezt választotta: <b>gúdenben</b>.</p><p>&#x2705;</p><p>A te válaszod és a másik játékos válasza <b>megegyeznek</b>.</p>","null","","","","feedback trial","",""
"html-button-response-esp","45","536432","0.0-11.0-0.17","3771","Ez itt egy darhén. Ott vagyunk a...","1","darhénban","[""darhénben"",""darhénban""]","darhénban","esp trial","1","true"
"html-button-response","46","539948","0.0-11.0-1.17","null","<p>A másik játékos ezt választotta: <b>darhénban</b>.</p><p>&#x2705;</p><p>A te válaszod és a másik játékos válasza <b>megegyeznek</b>.</p>","null","","","","feedback trial","",""
"html-button-response-esp","47","548351","0.0-11.0-0.18","4897","Ez itt egy hágyét. Elneveztem a kutyámat...","1","hágyétnak","[""hágyétnek"",""hágyétnak""]","hágyétnak","esp trial","1","true"
"html-button-response","48","551860","0.0-11.0-1.18","null","<p>A másik játékos ezt választotta: <b>hágyétnak</b>.</p><p>&#x2705;</p><p>A te válaszod és a másik játékos válasza <b>megegyeznek</b>.</p>","null","","","","feedback trial","",""
"html-button-response-esp","49","560270","0.0-11.0-0.19","4195","Ez itt egy nyítem. Ott vagyunk a...","1","nyítemben","[""nyítemban"",""nyítemben""]","nyítemben","esp trial","1","true"
"html-button-response","50","563793","0.0-11.0-1.19","null","<p>A másik játékos ezt választotta: <b>nyítemben</b>.</p><p>&#x2705;</p><p>A te válaszod és a másik játékos válasza <b>megegyeznek</b>.</p>","null","","","","feedback trial","",""
"html-button-response-esp","51","572992","0.0-11.0-0.20","8697","Ez itt egy kaszép. Elneveztem a kutyámat...","0","kaszépnek","[""kaszépnek"",""kaszépnak""]","kaszépnak","esp trial","1","false"
"html-button-response","52","576522","0.0-11.0-1.20","null","<p>A másik játékos ezt választotta: <b>kaszépnak</b>.</p><p>&#10060;</p><p>A válaszaitok <b>nem</b> egyeznek meg.</p>","null","","","","feedback trial","",""
"html-button-response-esp","53","584931","0.0-11.0-0.21","6746","Ez itt egy ronszek. Ott vagyunk a...","0","ronszekban","[""ronszekban"",""ronszekben""]","ronszekban","esp trial","1","true"
"html-button-response","54","588449","0.0-11.0-1.21","null","<p>A másik játékos ezt választotta: <b>ronszekban</b>.</p><p>&#x2705;</p><p>A te válaszod és a másik játékos válasza <b>megegyeznek</b>.</p>","null","","","","feedback trial","",""
"html-button-response-esp","55","596851","0.0-11.0-0.22","5670","Ez itt egy spumény. Elneveztem a kutyámat...","0","spuménynak","[""spuménynak"",""spuménynek""]","spuménynak","esp trial","1","true"
"html-button-response","56","600367","0.0-11.0-1.22","null","<p>A másik játékos ezt választotta: <b>spuménynak</b>.</p><p>&#x2705;</p><p>A te válaszod és a másik játékos válasza <b>megegyeznek</b>.</p>","null","","","","feedback trial","",""
"html-button-response-esp","57","608781","0.0-11.0-0.23","4753","Ez itt egy lorzens. Nincs is jobb egy jó...","0","lorzensnél","[""lorzensnél"",""lorzensnál""]","lorzensnál","esp trial","1","false"
"html-button-response","58","612296","0.0-11.0-1.23","null","<p>A másik játékos ezt választotta: <b>lorzensnál</b>.</p><p>&#10060;</p><p>A válaszaitok <b>nem</b> egyeznek meg.</p>","null","","","","feedback trial","",""
"html-button-response-esp","59","620700","0.0-11.0-0.24","3946","Ez itt egy kalhész. Elneveztem a kutyámat...","1","kalhésznek","[""kalhésznak"",""kalhésznek""]","kalhésznak","esp trial","1","false"
"html-button-response","60","624219","0.0-11.0-1.24","null","<p>A másik játékos ezt választotta: <b>kalhésznak</b>.</p><p>&#10060;</p><p>A válaszaitok <b>nem</b> egyeznek meg.</p>","null","","","","feedback trial","",""
"html-button-response-esp","61","632625","0.0-11.0-0.25","5291","Ez itt egy brindez. Elneveztem a kutyámat...","1","brindeznak","[""brindeznek"",""brindeznak""]","brindeznek","esp trial","1","false"
"html-button-response","62","636146","0.0-11.0-1.25","null","<p>A másik játékos ezt választotta: <b>brindeznek</b>.</p><p>&#10060;</p><p>A válaszaitok <b>nem</b> egyeznek meg.</p>","null","","","","feedback trial","",""
"html-button-response-esp","63","647351","0.0-11.0-0.26","10702","Ez itt egy spicet. Elneveztem a kutyámat...","0","spicetnek","[""spicetnek"",""spicetnak""]","spicetnek","esp trial","1","true"
"html-button-response","64","650870","0.0-11.0-1.26","null","<p>A másik játékos ezt választotta: <b>spicetnek</b>.</p><p>&#x2705;</p><p>A te válaszod és a másik játékos válasza <b>megegyeznek</b>.</p>","null","","","","feedback trial","",""
"html-button-response-esp","65","659281","0.0-11.0-0.27","5945","Ez itt egy kalréz. Ott vagyunk a...","1","kalrézban","[""kalrézben"",""kalrézban""]","kalrézban","esp trial","1","true"
"html-button-response","66","662796","0.0-11.0-1.27","null","<p>A másik játékos ezt választotta: <b>kalrézban</b>.</p><p>&#x2705;</p><p>A te válaszod és a másik játékos válasza <b>megegyeznek</b>.</p>","null","","","","feedback trial","",""
"html-button-response-esp","67","671199","0.0-11.0-0.28","6973","Ez itt egy klingesz. Ott vagyunk a...","0","klingeszben","[""klingeszben"",""klingeszban""]","klingeszben","esp trial","1","true"
"html-button-response","68","674713","0.0-11.0-1.28","null","<p>A másik játékos ezt választotta: <b>klingeszben</b>.</p><p>&#x2705;</p><p>A te válaszod és a másik játékos válasza <b>megegyeznek</b>.</p>","null","","","","feedback trial","",""
"html-button-response-esp","69","683110","0.0-11.0-0.29","3928","Ez itt egy ítens. Ott vagyunk a...","0","ítensben","[""ítensben"",""ítensban""]","ítensban","esp trial","1","false"
"html-button-response","70","686617","0.0-11.0-1.29","null","<p>A másik játékos ezt választotta: <b>ítensban</b>.</p><p>&#10060;</p><p>A válaszaitok <b>nem</b> egyeznek meg.</p>","null","","","","feedback trial","",""
"html-button-response-esp","71","695012","0.0-11.0-0.30","5029","Ez itt egy kátel. Elneveztem a kutyámat...","1","kátelnak","[""kátelnek"",""kátelnak""]","kátelnak","esp trial","1","true"
"html-button-response","72","698519","0.0-11.0-1.30","null","<p>A másik játékos ezt választotta: <b>kátelnak</b>.</p><p>&#x2705;</p><p>A te válaszod és a másik játékos válasza <b>megegyeznek</b>.</p>","null","","","","feedback trial","",""
"html-button-response-esp","73","706924","0.0-11.0-0.31","2713","Ez itt egy zsádév. Elneveztem a kutyámat...","1","zsádévnak","[""zsádévnek"",""zsádévnak""]","zsádévnak","esp trial","1","true"
"html-button-response","74","710441","0.0-11.0-1.31","null","<p>A másik játékos ezt választotta: <b>zsádévnak</b>.</p><p>&#x2705;</p><p>A te válaszod és a másik játékos válasza <b>megegyeznek</b>.</p>","null","","","","feedback trial","",""
"html-button-response-esp","75","718848","0.0-11.0-0.32","6888","Ez itt egy nyupér. Nincs is jobb egy jó...","1","nyupérnél","[""nyupérnál"",""nyupérnél""]","nyupérnál","esp trial","1","false"
"html-button-response","76","722359","0.0-11.0-1.32","null","<p>A másik játékos ezt választotta: <b>nyupérnál</b>.</p><p>&#10060;</p><p>A válaszaitok <b>nem</b> egyeznek meg.</p>","null","","","","feedback trial","",""
"html-button-response-esp","77","730771","0.0-11.0-0.33","4449","Ez itt egy pivéd. Ott vagyunk a...","1","pivédben","[""pivédban"",""pivédben""]","pivédban","esp trial","1","false"
"html-button-response","78","734283","0.0-11.0-1.33","null","<p>A másik játékos ezt választotta: <b>pivédban</b>.</p><p>&#10060;</p><p>A válaszaitok <b>nem</b> egyeznek meg.</p>","null","","","","feedback trial","",""
"html-button-response-esp","79","742687","0.0-11.0-0.34","5910","Ez itt egy fájéz. Ott vagyunk a...","0","fájézban","[""fájézban"",""fájézben""]","fájézban","esp trial","1","true"
"html-button-response","80","746198","0.0-11.0-1.34","null","<p>A másik játékos ezt választotta: <b>fájézban</b>.</p><p>&#x2705;</p><p>A te válaszod és a másik játékos válasza <b>megegyeznek</b>.</p>","null","","","","feedback trial","",""
"html-button-response-esp","81","754615","0.0-11.0-0.35","4022","Ez itt egy dorzéj. Elneveztem a kutyámat...","1","dorzéjnak","[""dorzéjnek"",""dorzéjnak""]","dorzéjnak","esp trial","1","true"
"html-button-response","82","758146","0.0-11.0-1.35","null","<p>A másik játékos ezt választotta: <b>dorzéjnak</b>.</p><p>&#x2705;</p><p>A te válaszod és a másik játékos válasza <b>megegyeznek</b>.</p>","null","","","","feedback trial","",""
"html-button-response-esp","83","766544","0.0-11.0-0.36","3720","Ez itt egy trájeg. Ott vagyunk a...","0","trájegban","[""trájegban"",""trájegben""]","trájegban","esp trial","1","true"
"html-button-response","84","770070","0.0-11.0-1.36","null","<p>A másik játékos ezt választotta: <b>trájegban</b>.</p><p>&#x2705;</p><p>A te válaszod és a másik játékos válasza <b>megegyeznek</b>.</p>","null","","","","feedback trial","",""
"html-button-response-esp","85","778470","0.0-11.0-0.37","4328","Ez itt egy priszec. Ott vagyunk a...","0","priszecben","[""priszecben"",""priszecban""]","priszecben","esp trial","1","true"
"html-button-response","86","781992","0.0-11.0-1.37","null","<p>A másik játékos ezt választotta: <b>priszecben</b>.</p><p>&#x2705;</p><p>A te válaszod és a másik játékos válasza <b>megegyeznek</b>.</p>","null","","","","feedback trial","",""
"html-button-response-esp","87","790405","0.0-11.0-0.38","6020","Ez itt egy zihenc. Elneveztem a kutyámat...","1","zihencnek","[""zihencnak"",""zihencnek""]","zihencnek","esp trial","1","true"
"html-button-response","88","793923","0.0-11.0-1.38","null","<p>A másik játékos ezt választotta: <b>zihencnek</b>.</p><p>&#x2705;</p><p>A te válaszod és a másik játékos válasza <b>megegyeznek</b>.</p>","null","","","","feedback trial","",""
"html-button-response-esp","89","802331","0.0-11.0-0.39","3243","Ez itt egy zsúdel. Elneveztem a kutyámat...","0","zsúdelnak","[""zsúdelnak"",""zsúdelnek""]","zsúdelnak","esp trial","1","true"
"html-button-response","90","805841","0.0-11.0-1.39","null","<p>A másik játékos ezt választotta: <b>zsúdelnak</b>.</p><p>&#x2705;</p><p>A te válaszod és a másik játékos válasza <b>megegyeznek</b>.</p>","null","","","","feedback trial","",""
"html-button-response-esp","91","814245","0.0-11.0-0.40","4745","Ez itt egy jukél. Nincs is jobb egy jó...","0","jukélnál","[""jukélnál"",""jukélnél""]","jukélnál","esp trial","1","true"
"html-button-response","92","817754","0.0-11.0-1.40","null","<p>A másik játékos ezt választotta: <b>jukélnál</b>.</p><p>&#x2705;</p><p>A te válaszod és a másik játékos válasza <b>megegyeznek</b>.</p>","null","","","","feedback trial","",""
"html-button-response-esp","93","830196","0.0-11.0-0.41","11929","Ez itt egy bralkép. Ott vagyunk a...","0","bralképban","[""bralképban"",""bralképben""]","bralképban","esp trial","1","true"
"html-button-response","94","833712","0.0-11.0-1.41","null","<p>A másik játékos ezt választotta: <b>bralképban</b>.</p><p>&#x2705;</p><p>A te válaszod és a másik játékos válasza <b>megegyeznek</b>.</p>","null","","","","feedback trial","",""
"html-button-response-esp","95","842130","0.0-11.0-0.42","3794","Ez itt egy spanél. Nincs is jobb egy jó...","1","spanélnál","[""spanélnél"",""spanélnál""]","spanélnál","esp trial","1","true"
"html-button-response","96","845648","0.0-11.0-1.42","null","<p>A másik játékos ezt választotta: <b>spanélnál</b>.</p><p>&#x2705;</p><p>A te válaszod és a másik játékos válasza <b>megegyeznek</b>.</p>","null","","","","feedback trial","",""
"html-button-response-esp","97","854054","0.0-11.0-0.43","6344","Ez itt egy spábét. Ott vagyunk a...","0","spábétben","[""spábétben"",""spábétban""]","spábétban","esp trial","1","false"
"html-button-response","98","857566","0.0-11.0-1.43","null","<p>A másik játékos ezt választotta: <b>spábétban</b>.</p><p>&#10060;</p><p>A válaszaitok <b>nem</b> egyeznek meg.</p>","null","","","","feedback trial","",""
"html-button-response-esp","99","865960","0.0-11.0-0.44","3713","Ez itt egy danét. Nincs is jobb egy jó...","1","danétnál","[""danétnél"",""danétnál""]","danétnál","esp trial","1","true"
"html-button-response","100","869479","0.0-11.0-1.44","null","<p>A másik játékos ezt választotta: <b>danétnál</b>.</p><p>&#x2705;</p><p>A te válaszod és a másik játékos válasza <b>megegyeznek</b>.</p>","null","","","","feedback trial","",""
"html-button-response-esp","101","877893","0.0-11.0-0.45","5174","Ez itt egy jóbec. Elneveztem a kutyámat...","0","jóbecnak","[""jóbecnak"",""jóbecnek""]","jóbecnak","esp trial","1","true"
"html-button-response","102","881415","0.0-11.0-1.45","null","<p>A másik játékos ezt választotta: <b>jóbecnak</b>.</p><p>&#x2705;</p><p>A te válaszod és a másik játékos válasza <b>megegyeznek</b>.</p>","null","","","","feedback trial","",""
"html-button-response-esp","103","889823","0.0-11.0-0.46","7674","Ez itt egy rapszek. Nincs is jobb egy jó...","0","rapszeknál","[""rapszeknál"",""rapszeknél""]","rapszeknál","esp trial","1","true"
"html-button-response","104","893337","0.0-11.0-1.46","null","<p>A másik játékos ezt választotta: <b>rapszeknál</b>.</p><p>&#x2705;</p><p>A te válaszod és a másik játékos válasza <b>megegyeznek</b>.</p>","null","","","","feedback trial","",""
"html-button-response-esp","105","901738","0.0-11.0-0.47","4121","Ez itt egy tosély. Ott vagyunk a...","1","tosélyban","[""tosélyben"",""tosélyban""]","tosélyban","esp trial","1","true"
"html-button-response","106","905252","0.0-11.0-1.47","null","<p>A másik játékos ezt választotta: <b>tosélyban</b>.</p><p>&#x2705;</p><p>A te válaszod és a másik játékos válasza <b>megegyeznek</b>.</p>","null","","","","feedback trial","",""
"html-button-response-esp","107","913663","0.0-11.0-0.48","5533","Ez itt egy sortem. Nincs is jobb egy jó...","1","sortemnél","[""sortemnál"",""sortemnél""]","sortemnál","esp trial","1","false"
"html-button-response","108","917187","0.0-11.0-1.48","null","<p>A másik játékos ezt választotta: <b>sortemnál</b>.</p><p>&#10060;</p><p>A válaszaitok <b>nem</b> egyeznek meg.</p>","null","","","","feedback trial","",""
"html-button-response-esp","109","925584","0.0-11.0-0.49","4894","Ez itt egy dalenc. Nincs is jobb egy jó...","0","dalencnál","[""dalencnál"",""dalencnél""]","dalencnál","esp trial","1","true"
"html-button-response","110","929102","0.0-11.0-1.49","null","<p>A másik játékos ezt választotta: <b>dalencnál</b>.</p><p>&#x2705;</p><p>A te válaszod és a másik játékos válasza <b>megegyeznek</b>.</p>","null","","","","feedback trial","",""
"html-button-response-esp","111","937511","0.0-11.0-0.50","3078","Ez itt egy monveg. Nincs is jobb egy jó...","1","monvegnál","[""monvegnél"",""monvegnál""]","monvegnál","esp trial","1","true"
"html-button-response","112","941017","0.0-11.0-1.50","null","<p>A másik játékos ezt választotta: <b>monvegnál</b>.</p><p>&#x2705;</p><p>A te válaszod és a másik játékos válasza <b>megegyeznek</b>.</p>","null","","","","feedback trial","",""
"html-button-response-esp","113","949427","0.0-11.0-0.51","6401","Ez itt egy narem. Ott vagyunk a...","1","naremban","[""naremben"",""naremban""]","naremban","esp trial","1","true"
"html-button-response","114","952931","0.0-11.0-1.51","null","<p>A másik játékos ezt választotta: <b>naremban</b>.</p><p>&#x2705;</p><p>A te válaszod és a másik játékos válasza <b>megegyeznek</b>.</p>","null","","","","feedback trial","",""
"html-button-response-esp","115","961334","0.0-11.0-0.52","5917","Ez itt egy garcép. Nincs is jobb egy jó...","1","garcépnál","[""garcépnél"",""garcépnál""]","garcépnál","esp trial","1","true"
"html-button-response","116","964848","0.0-11.0-1.52","null","<p>A másik játékos ezt választotta: <b>garcépnál</b>.</p><p>&#x2705;</p><p>A te válaszod és a másik játékos válasza <b>megegyeznek</b>.</p>","null","","","","feedback trial","",""
"html-button-response-esp","117","973991","0.0-11.0-0.53","8631","Ez itt egy zsigén. Nincs is jobb egy jó...","1","zsigénnél","[""zsigénnál"",""zsigénnél""]","zsigénnél","esp trial","1","true"
"html-button-response","118","977519","0.0-11.0-1.53","null","<p>A másik játékos ezt választotta: <b>zsigénnél</b>.</p><p>&#x2705;</p><p>A te válaszod és a másik játékos válasza <b>megegyeznek</b>.</p>","null","","","","feedback trial","",""
"html-button-response","119","993483","0.0-12.0","15449","<p>A közös játék most véget ért.</p><p>Mielőtt eláruljuk a végső pontszámodat, arra kérlek, játszd a szóválasztós játékot néhány percig egyedül is.</p><p>A feladatod ugyanaz lesz, választani két lehetőség közül.</p><p>Most viszont egyedül kell döntened, hogy te melyiket választanád.</p>","0","","","","","",""
"html-button-response-clever","120","999313","0.0-13.0-0.0","5310","Ez itt egy zarcég. Nincs is jobb egy jó...","0","zarcégnél","[""zarcégnél"",""zarcégnál""]","","posttest trial","4",""
"html-button-response-clever","121","1005786","0.0-13.0-0.1","5957","Ez itt egy zsalrén. Elneveztem a kutyámat...","1","zsalrénnek","[""zsalrénnak"",""zsalrénnek""]","","posttest trial","4",""
"html-button-response-clever","122","1009768","0.0-13.0-0.2","3465","Ez itt egy tivenc. Ott vagyunk a...","1","tivencben","[""tivencban"",""tivencben""]","","posttest trial","4",""
"html-button-response-clever","123","1015903","0.0-13.0-0.3","5633","Ez itt egy fojlegy. Elneveztem a kutyámat...","0","fojlegynek","[""fojlegynek"",""fojlegynak""]","","posttest trial","4",""
"html-button-response-clever","124","1020535","0.0-13.0-0.4","4119","Ez itt egy klítegy. Nincs is jobb egy jó...","1","klítegynél","[""klítegynál"",""klítegynél""]","","posttest trial","4",""
"html-button-response-clever","125","1033102","0.0-13.0-0.5","12053","Ez itt egy zuten. Nincs is jobb egy jó...","0","zutennél","[""zutennél"",""zutennál""]","","posttest trial","4",""
"html-button-response-clever","126","1037552","0.0-13.0-0.6","3939","Ez itt egy szibed. Ott vagyunk a...","0","szibedben","[""szibedben"",""szibedban""]","","posttest trial","4",""
"html-button-response-clever","127","1044963","0.0-13.0-0.7","6905","Ez itt egy hijegy. Nincs is jobb egy jó...","0","hijegynél","[""hijegynél"",""hijegynál""]","","posttest trial","4",""
"html-button-response-clever","128","1049554","0.0-13.0-0.8","4088","Ez itt egy tarhéz. Ott vagyunk a...","1","tarhézban","[""tarhézben"",""tarhézban""]","","posttest trial","4",""
"html-button-response-clever","129","1056037","0.0-13.0-0.9","5965","Ez itt egy hosét. Elneveztem a kutyámat...","1","hosétnak","[""hosétnek"",""hosétnak""]","","posttest trial","4",""
"html-button-response-clever","130","1059998","0.0-13.0-0.10","3457","Ez itt egy sihen. Nincs is jobb egy jó...","0","sihennél","[""sihennél"",""sihennál""]","","posttest trial","4",""
"html-button-response-clever","131","1064216","0.0-13.0-0.11","3701","Ez itt egy kátéd. Nincs is jobb egy jó...","1","kátédnál","[""kátédnél"",""kátédnál""]","","posttest trial","4",""
"html-button-response-clever","132","1068982","0.0-13.0-0.12","4252","Ez itt egy dóbem. Elneveztem a kutyámat...","1","dóbemnek","[""dóbemnak"",""dóbemnek""]","","posttest trial","4",""
"html-button-response-clever","133","1076192","0.0-13.0-0.13","6690","Ez itt egy mádép. Nincs is jobb egy jó...","0","mádépnél","[""mádépnél"",""mádépnál""]","","posttest trial","4",""
"html-button-response-clever","134","1082025","0.0-13.0-0.14","5315","Ez itt egy briskéd. Nincs is jobb egy jó...","1","briskédnél","[""briskédnál"",""briskédnél""]","","posttest trial","4",""
"html-button-response-clever","135","1086360","0.0-13.0-0.15","3829","Ez itt egy vismer. Nincs is jobb egy jó...","0","vismernél","[""vismernél"",""vismernál""]","","posttest trial","4",""
"html-button-response-clever","136","1095687","0.0-13.0-0.16","8814","Ez itt egy gábéd. Nincs is jobb egy jó...","0","gábédnél","[""gábédnél"",""gábédnál""]","","posttest trial","4",""
"html-button-response-clever","137","1100579","0.0-13.0-0.17","4382","Ez itt egy dibez. Ott vagyunk a...","0","dibezben","[""dibezben"",""dibezban""]","","posttest trial","4",""
"html-button-response-clever","138","1105902","0.0-13.0-0.18","4805","Ez itt egy fágyép. Nincs is jobb egy jó...","0","fágyépnél","[""fágyépnél"",""fágyépnál""]","","posttest trial","4",""
"html-button-response-clever","139","1112002","0.0-13.0-0.19","5588","Ez itt egy dunkész. Ott vagyunk a...","0","dunkészban","[""dunkészban"",""dunkészben""]","","posttest trial","4",""
"html-button-response-clever","140","1117162","0.0-13.0-0.20","4648","Ez itt egy spizec. Elneveztem a kutyámat...","1","spizecnek","[""spizecnak"",""spizecnek""]","","posttest trial","4",""
"html-button-response-clever","141","1120736","0.0-13.0-0.21","3060","Ez itt egy fizend. Ott vagyunk a...","1","fizendben","[""fizendban"",""fizendben""]","","posttest trial","4",""
"html-button-response-clever","142","1126362","0.0-13.0-0.22","5110","Ez itt egy klajrén. Elneveztem a kutyámat...","0","klajrénnak","[""klajrénnak"",""klajrénnek""]","","posttest trial","4",""
"html-button-response-clever","143","1133572","0.0-13.0-0.23","6697","Ez itt egy fupét. Nincs is jobb egy jó...","1","fupétnél","[""fupétnál"",""fupétnél""]","","posttest trial","4",""
"html-button-response-clever","144","1139881","0.0-13.0-0.24","5795","Ez itt egy jutély. Nincs is jobb egy jó...","1","jutélynál","[""jutélynél"",""jutélynál""]","","posttest trial","4",""
"html-button-response-clever","145","1144661","0.0-13.0-0.25","4277","Ez itt egy zatéj. Nincs is jobb egy jó...","1","zatéjnál","[""zatéjnél"",""zatéjnál""]","","posttest trial","4",""
"html-button-response-clever","146","1154093","0.0-13.0-0.26","8924","Ez itt egy dajrens. Nincs is jobb egy jó...","1","dajrensnél","[""dajrensnál"",""dajrensnél""]","","posttest trial","4",""
"html-button-response-clever","147","1158520","0.0-13.0-0.27","3920","Ez itt egy humék. Elneveztem a kutyámat...","1","huméknek","[""huméknak"",""huméknek""]","","posttest trial","4",""
"html-button-response-clever","148","1163129","0.0-13.0-0.28","4091","Ez itt egy zábény. Elneveztem a kutyámat...","1","zábénynak","[""zábénynek"",""zábénynak""]","","posttest trial","4",""
"html-button-response-clever","149","1166972","0.0-13.0-0.29","3338","Ez itt egy spivél. Elneveztem a kutyámat...","1","spivélnek","[""spivélnak"",""spivélnek""]","","posttest trial","4",""
"html-button-response-clever","150","1174958","0.0-13.0-0.30","7482","Ez itt egy dutec. Nincs is jobb egy jó...","0","dutecnél","[""dutecnél"",""dutecnál""]","","posttest trial","4",""
"html-button-response-clever","151","1183477","0.0-13.0-0.31","8016","Ez itt egy pazév. Nincs is jobb egy jó...","0","pazévnál","[""pazévnál"",""pazévnél""]","","posttest trial","4",""
"html-button-response-clever","152","1187424","0.0-13.0-0.32","3428","Ez itt egy tumély. Nincs is jobb egy jó...","1","tumélynél","[""tumélynál"",""tumélynél""]","","posttest trial","4",""
"html-button-response-clever","153","1191934","0.0-13.0-0.33","3993","Ez itt egy zined. Elneveztem a kutyámat...","0","zinednek","[""zinednek"",""zinednak""]","","posttest trial","4",""
"html-button-response-clever","154","1196465","0.0-13.0-0.34","4013","Ez itt egy csublény. Ott vagyunk a...","1","csublényben","[""csublényban"",""csublényben""]","","posttest trial","4",""
"html-button-response-clever","155","1202165","0.0-13.0-0.35","5193","Ez itt egy csodeg. Nincs is jobb egy jó...","0","csodegnél","[""csodegnél"",""csodegnál""]","","posttest trial","4",""
"html-button-response-clever","156","1211712","0.0-13.0-0.36","9029","Ez itt egy nuhét. Nincs is jobb egy jó...","1","nuhétnál","[""nuhétnél"",""nuhétnál""]","","posttest trial","4",""
"html-button-response-clever","157","1217081","0.0-13.0-0.37","4861","Ez itt egy pristél. Ott vagyunk a...","0","pristélben","[""pristélben"",""pristélban""]","","posttest trial","4",""
"html-button-response-clever","158","1222843","0.0-13.0-0.38","5257","Ez itt egy lingék. Nincs is jobb egy jó...","1","lingéknél","[""lingéknál"",""lingéknél""]","","posttest trial","4",""
"html-button-response-clever","159","1229272","0.0-13.0-0.39","5913","Ez itt egy surnegy. Nincs is jobb egy jó...","0","surnegynél","[""surnegynél"",""surnegynál""]","","posttest trial","4",""
"html-button-response-clever","160","1234306","0.0-13.0-0.40","4516","Ez itt egy cságyelt. Ott vagyunk a...","0","cságyeltben","[""cságyeltben"",""cságyeltban""]","","posttest trial","4",""
"html-button-response-clever","161","1239954","0.0-13.0-0.41","5139","Ez itt egy bingéj. Elneveztem a kutyámat...","0","bingéjnek","[""bingéjnek"",""bingéjnak""]","","posttest trial","4",""
"html-button-response-clever","162","1243125","0.0-13.0-0.42","2658","Ez itt egy trikép. Ott vagyunk a...","1","triképben","[""triképban"",""triképben""]","","posttest trial","4",""
"html-button-response-clever","163","1247247","0.0-13.0-0.43","3607","Ez itt egy dinelt. Ott vagyunk a...","0","dineltben","[""dineltben"",""dineltban""]","","posttest trial","4",""
"html-button-response-clever","164","1253167","0.0-13.0-0.44","5417","Ez itt egy spatel. Elneveztem a kutyámat...","1","spatelnek","[""spatelnak"",""spatelnek""]","","posttest trial","4",""
"html-button-response-clever","165","1256837","0.0-13.0-0.45","3151","Ez itt egy lijez. Elneveztem a kutyámat...","0","lijeznek","[""lijeznek"",""lijeznak""]","","posttest trial","4",""
"html-button-response-clever","166","1261424","0.0-13.0-0.46","4072","Ez itt egy vurnel. Elneveztem a kutyámat...","1","vurnelnek","[""vurnelnak"",""vurnelnek""]","","posttest trial","4",""
"html-button-response-clever","167","1265469","0.0-13.0-0.47","3538","Ez itt egy murdes. Nincs is jobb egy jó...","1","murdesnél","[""murdesnál"",""murdesnél""]","","posttest trial","4",""
"html-button-response-clever","168","1270618","0.0-13.0-0.48","4635","Ez itt egy klazér. Ott vagyunk a...","0","klazérban","[""klazérban"",""klazérben""]","","posttest trial","4",""
"html-button-response-clever","169","1276864","0.0-13.0-0.49","5736","Ez itt egy jurdent. Nincs is jobb egy jó...","1","jurdentnál","[""jurdentnél"",""jurdentnál""]","","posttest trial","4",""
"html-button-response-clever","170","1282905","0.0-13.0-0.50","5539","Ez itt egy trodély. Ott vagyunk a...","1","trodélyban","[""trodélyben"",""trodélyban""]","","posttest trial","4",""
"html-button-response-clever","171","1292369","0.0-13.0-0.51","8961","Ez itt egy vodec. Nincs is jobb egy jó...","1","vodecnál","[""vodecnél"",""vodecnál""]","","posttest trial","4",""
"html-button-response-clever","172","1295918","0.0-13.0-0.52","3036","Ez itt egy szanéj. Elneveztem a kutyámat...","0","szanéjnak","[""szanéjnak"",""szanéjnek""]","","posttest trial","4",""
"html-button-response-clever","173","1299452","0.0-13.0-0.53","3026","Ez itt egy lihény. Elneveztem a kutyámat...","0","lihénynek","[""lihénynek"",""lihénynak""]","","posttest trial","4",""
"html-button-response","174","1314548","0.0-14.0","14579","<p> Vége a játéknak. A teljes pontszámod 38/54.</p><p> Szép munka! &#128526;&#128526;&#128526;</p><p>A Befejezés gomb megnyomása után bezárhatod a böngészőablakot.</p>","0","","","","","",""
"html-keyboard-response","175","1320081","0.0-15.0","null","<div class=""message"">
         <p>Egy kis türelmet kérünk, amíg elmentjük az adatokat...</p>
         </div>","null","","","","","",""
