"trial_type","trial_index","time_elapsed","internal_node_id","rt","stimulus","response","response_string","choices","esp_response","trial_kind","list_number","esp_match"
"pavlovia","0","937","0.0-0.0","","","","","","","","",""
"html-button-response","1","26428","0.0-1.0","24979","<p>Kedves Résztvevő! A Budapesti Műszaki és Gazdaságtudományi Egyetem Kognitív Tudományi Tanszékének kutatásában való részvételed kérjük. A kutatásban azt vizsgáljuk, hogy a magyar anyanyelvűek hogyan használnak bizonyos szóalakokat, és hogy milyen képük van arról, hogy mások hogyan használják, hogyan képzik a szavakat. Ez hozzásegít bennünket ahhoz, hogy jobban megértsük, hogyan dolgozza fel és tárolja a nyelvet az emberi agy, és hogyan működnek, hogyan változnak egy adott közösség nyelvi konvenciói.</p><p>A vizsgálat egy rövid számítógépes feladatból fog állni. A kutatásban való részvétel önkéntes, a részvételi szándék bármikor visszavonható. A résztvevők eredményeit név nélkül kezeljük, így nem beazonosíthatók az adatok feldolgozása során. Minden személyes adatot az EU általános adatvédelmi rendeletének (GDPR) megfelelően kezelünk és legfeljebb öt éven belül megsemmisítünk. A vizsgálat jellemzően húsz percet vesz igénybe.</p><p>Kutatásvezető:</p><p>Dr. Rácz Péter, tudományos munkatárs, BME KTT</p><p>e-mail: racz.peter.marton@ttk.bme.hu</p>","0","","","","","",""
"html-button-response","2","55986","0.0-2.0","29054","<p>A kísérletben szavakat fogsz látni. Ezek között lesznek olyanok, amelyeket ismersz, de előfordulhatnak olyanok is, amelyeket nem ismersz, sőt, vannak köztük kitalált szavak is. Minden szónál látni fogsz toldalékolt alakokat. A te feladatod az lesz, hogy minden szóhoz kiválaszd azt a toldalékolt alakot, amely a te számodra ismerősebben, természetesebben hangzik. Rossz válaszok nincsenek, mert van olyan, hogy különböző embereknek más és más szó tűnik jobb választásnak. A választ úgy tudod majd kiválasztani, ha rákattintasz.</p><p>Ebben a szóválasztós játékban egy másik játékossal együtt veszel majd részt. A másik játékos is minden esetben azok közül a lehetőségek közül válogathat, mint te. Kettőtök feladata az, hogy ugyanazt a lehetőséget válasszátok minden esetben. Ahhoz, hogy ez sikerüljön, neked figyelned kell arra, hogy a másik játékos milyen válaszokat ad, és ennek alapján meg kell tippelned, hogyan választ legközelebb. Ha eltalálod, akkor pontot kapsz.</p>","0","","","","","",""
"html-button-response","3","61035","0.0-3.0","4546","<p>Kérjük, olvasd el az alábbi nyilatkozatot, és amennyiben egyetértesz vele, nyomj a Beleegyezés gombra!</p><p>Kijelentem, hogy magyar anyanyelvű személyként önként veszek részt a BME KTT kísérletében. A kutatás céljával és folyamatával kapcsolatban elegendő tájékoztatást kaptam, lehetőségem volt kérdések feltételére, és esetleges kérdéseimre megfelelő válaszokat kaptam. A tájékoztatás alapján elegendő mennyiségű információ áll a rendelkezésemre, hogy eldönthessem, részt kívánok-e venni a kutatásban.</p><p>Tisztában vagyok vele, hogy részvételi szándékomat és adataimat bármikor, indoklás nélkül visszavonhatom.</p><p>Értem és tudomásul veszem, hogy a kutatás tudományos célokat szolgál, és az általam szolgáltatott adatokat a BME kizárólag kutatási célból használja fel. Tudomásul veszem, hogy eredményeimet a többi résztvevő eredményeivel együtt kezelik, így egyéni teljesítményemről visszajelzést, szakvéleményt nem kapok.</p><p>Megértettem, hogy adataim kezelését illetően a BME az EU általános adatvédelmi rendelete (GDPR), a hatályos adatvédelmi törvény és a nemzetközi kutatás-etikai alapelvek szerint jár el. Eredményeim anonim módon kerülnek feldolgozásra, és a kutatás résztvevői az azonosításomra alkalmas adataimat harmadik félnek nem szolgáltatják ki. Engedélyezem a BME számára a jelen kutatásban felvett adataim feldolgozását és tárolását, beleértve azok későbbi kutatásokhoz való felhasználását is. Személyes adataim kezelésével kapcsolatban tájékoztatást kérhetek a kutatás résztvevőitől, az adatkezelés ellen tiltakozhatok, kérhetem személyes adataim helyesbítését, törlését vagy zárolását, valamint jogorvoslatért a Nemzeti Adatvédelmi és Információszabadság Hatósághoz fordulhatok.</p><p>Kijelentem, hogy a kutatásban való részvételem körülményeiről részletes tájékoztatást kaptam, és a feltételeket elfogadom.</p>","0","","","","","",""
"survey-text","4","107803","0.0-4.0","46252","","{""Q0"":""FX1JCO"",""Q1"":""nő"",""Q2"":""1981"",""Q3"":""18,5""}","","","","","",""
"html-button-response","5","119706","0.0-5.0","11399","<p>Ebben a játékban szavakat kell toldalékolni.</p> <p>Minden körben mutatunk majd egy példamondatot, amiben lesz egy szó.</p> <p>Alatta jön egy második mondat, ezt a mondatot neked kell majd befejezni, ugyanezzel a szóval.</p> <p>Nem biztos, hogy a szó eleve ismerős lesz számodra!</p> <p>Minden mondathoz adunk két lehetőséget, ezeket balra és jobbra látod majd.</p> <p>A játék kb. negyedóráig-húsz percig tart.</p>","0","","","","","",""
"html-button-response","6","133973","0.0-6.0","13762","<p>Nézzünk egy példát!</p> <p>A példamondat: ""János imád fláramolni, ezért sokat fláramlik.""</p><p>Neked ezt a mondatot kell befejezned: ""Ti ritkán...""</p><p>A lehetőségek pedig ezek:</p>","0","","","","","",""
"html-button-response","7","141284","0.0-7.0","6800","<p>Nagyon jó.</p><p>Ezt a játékot nem egyedül fogod játszani, hanem egy másik játékossal.</p><p>Mielőtt továbblépünk, összekapcsolunk titeket egymással.</p><p>Ez igénybe vehet néhány másodpercet, amihez szíves türelmed kérjük.</p>","0","","","","","",""
"html-button-response","8","147010","0.0-8.0","null","<p>Csatlakozás a másik játékoshoz...</p>","null","","","","","",""
"html-button-response","9","149515","0.0-9.0","null","<p> Sikeres kapcsolódás!</p>","null","","","","","",""
"html-button-response","10","160020","0.0-10.0","null","<p>A következőkben ketten játsszátok a szóválasztós játékot.</p><p>A feladatotok az lesz, hogy minden körben <b>ugyanazt</b> a szót válasszátok.</p><p>Minden ilyen egyező válaszért pontot kaptok.</p><p>Próbáld meg kitalálni, mit választ a másik játékos!</p><p>Bármikor választhatsz, a körnek akkor van vége, ha mindketten döntöttetek.</p><p>Sok sikert!</p>","null","","","","","",""
"html-button-response-esp","11","168393","0.0-11.0-0.0","7866","János imád bresezni, ezért sokat breslik. Ők ritkán...","0","breslenek","[""breslenek"",""breseznek""]","breslenek","esp trial","0","true"
"html-button-response","12","171899","0.0-11.0-1.0","null","<p>A másik játékos ezt választotta: <b>breslenek</b>.</p><p>&#x2705;</p><p>A te válaszod és a másik játékos válasza <b>megegyeznek</b>.</p>","null","","","","feedback trial","",""
"html-button-response-esp","13","179076","0.0-11.0-0.1","6671","János imád prihegedni, ezért sokat prihegszik. Ők ritkán...","1","prihegszenek","[""prihegednek"",""prihegszenek""]","prihegszenek","esp trial","0","true"
"html-button-response","14","182580","0.0-11.0-1.1","null","<p>A másik játékos ezt választotta: <b>prihegszenek</b>.</p><p>&#x2705;</p><p>A te válaszod és a másik játékos válasza <b>megegyeznek</b>.</p>","null","","","","feedback trial","",""
"html-button-response-esp","15","191180","0.0-11.0-0.2","8096","János imád bribasozni, ezért sokat bribaslik. Ők ritkán...","1","bribasoznak","[""bribaslanak"",""bribasoznak""]","bribaslanak","esp trial","0","false"
"html-button-response","16","194685","0.0-11.0-1.2","null","<p>A másik játékos ezt választotta: <b>bribaslanak</b>.</p><p>&#10060;</p><p>A válaszaitok <b>nem</b> egyeznek meg.</p>","null","","","","feedback trial","",""
"html-button-response-esp","17","201479","0.0-11.0-0.3","6290","János imád brürözni, ezért sokat brürzik. Ők ritkán...","1","brüröznek","[""brürzenek"",""brüröznek""]","brürzenek","esp trial","0","false"
"html-button-response","18","204984","0.0-11.0-1.3","null","<p>A másik játékos ezt választotta: <b>brürzenek</b>.</p><p>&#10060;</p><p>A válaszaitok <b>nem</b> egyeznek meg.</p>","null","","","","feedback trial","",""
"html-button-response-esp","19","213713","0.0-11.0-0.4","8226","János imád sprebezni, ezért sokat sprebzik. Ők ritkán...","0","sprebzenek","[""sprebzenek"",""sprebeznek""]","sprebzenek","esp trial","0","true"
"html-button-response","20","217218","0.0-11.0-1.4","null","<p>A másik játékos ezt választotta: <b>sprebzenek</b>.</p><p>&#x2705;</p><p>A te válaszod és a másik játékos válasza <b>megegyeznek</b>.</p>","null","","","","feedback trial","",""
"html-button-response-esp","21","223978","0.0-11.0-0.5","6256","János imád vilesezni, ezért sokat vileslik. Mi ritkán...","1","vileslünk","[""vilesezünk"",""vileslünk""]","vileslünk","esp trial","0","true"
"html-button-response","22","227483","0.0-11.0-1.5","null","<p>A másik játékos ezt választotta: <b>vileslünk</b>.</p><p>&#x2705;</p><p>A te válaszod és a másik játékos válasza <b>megegyeznek</b>.</p>","null","","","","feedback trial","",""
"html-button-response-esp","23","237179","0.0-11.0-0.6","9192","János imád géregezni, ezért sokat géreglik. Ti ritkán...","1","géregletek","[""géregeztek"",""géregletek""]","géregletek","esp trial","0","true"
"html-button-response","24","240684","0.0-11.0-1.6","null","<p>A másik játékos ezt választotta: <b>géregletek</b>.</p><p>&#x2705;</p><p>A te válaszod és a másik játékos válasza <b>megegyeznek</b>.</p>","null","","","","feedback trial","",""
"html-button-response-esp","25","246231","0.0-11.0-0.7","5044","János imád nivározni, ezért sokat nivárzik. Ti ritkán...","1","nivároztok","[""nivárzotok"",""nivároztok""]","nivárzotok","esp trial","0","false"
"html-button-response","26","249735","0.0-11.0-1.7","null","<p>A másik játékos ezt választotta: <b>nivárzotok</b>.</p><p>&#10060;</p><p>A válaszaitok <b>nem</b> egyeznek meg.</p>","null","","","","feedback trial","",""
"html-button-response-esp","27","257513","0.0-11.0-0.8","7275","János imád sztredezni, ezért sokat sztredlik. Ti ritkán...","1","sztredletek","[""sztredeztek"",""sztredletek""]","sztredletek","esp trial","0","true"
"html-button-response","28","261018","0.0-11.0-1.8","null","<p>A másik játékos ezt választotta: <b>sztredletek</b>.</p><p>&#x2705;</p><p>A te válaszod és a másik játékos válasza <b>megegyeznek</b>.</p>","null","","","","feedback trial","",""
"html-button-response-esp","29","267997","0.0-11.0-0.9","6473","János imád prugorozni, ezért sokat prugorzik. Ti ritkán...","0","prugorzotok","[""prugorzotok"",""prugoroztok""]","prugorzotok","esp trial","0","true"
"html-button-response","30","271502","0.0-11.0-1.9","null","<p>A másik játékos ezt választotta: <b>prugorzotok</b>.</p><p>&#x2705;</p><p>A te válaszod és a másik játékos válasza <b>megegyeznek</b>.</p>","null","","","","feedback trial","",""
"html-button-response-esp","31","280947","0.0-11.0-0.10","8943","János imád plibozni, ezért sokat plibzik. Ti ritkán...","0","plibzotok","[""plibzotok"",""pliboztok""]","plibzotok","esp trial","0","true"
"html-button-response","32","284452","0.0-11.0-1.10","null","<p>A másik játékos ezt választotta: <b>plibzotok</b>.</p><p>&#x2705;</p><p>A te válaszod és a másik játékos válasza <b>megegyeznek</b>.</p>","null","","","","feedback trial","",""
"html-button-response-esp","33","292631","0.0-11.0-0.11","7675","János imád spivejezni, ezért sokat spivejlik. Ők ritkán...","1","spivejeznek","[""spivejlenek"",""spivejeznek""]","spivejlenek","esp trial","0","false"
"html-button-response","34","296135","0.0-11.0-1.11","null","<p>A másik játékos ezt választotta: <b>spivejlenek</b>.</p><p>&#10060;</p><p>A válaszaitok <b>nem</b> egyeznek meg.</p>","null","","","","feedback trial","",""
"html-button-response-esp","35","304198","0.0-11.0-0.12","7559","János imád trálakozni, ezért sokat trálaklik. Ők ritkán...","1","trálaklanak","[""trálakoznak"",""trálaklanak""]","trálaklanak","esp trial","0","true"
"html-button-response","36","307702","0.0-11.0-1.12","null","<p>A másik játékos ezt választotta: <b>trálaklanak</b>.</p><p>&#x2705;</p><p>A te válaszod és a másik játékos válasza <b>megegyeznek</b>.</p>","null","","","","feedback trial","",""
"html-button-response-esp","37","321032","0.0-11.0-0.13","12826","János imád klűmözni, ezért sokat klűmlik. Ti ritkán...","0","klűmlötök","[""klűmlötök"",""klűmöztök""]","klűmlötök","esp trial","0","true"
"html-button-response","38","324536","0.0-11.0-1.13","null","<p>A másik játékos ezt választotta: <b>klűmlötök</b>.</p><p>&#x2705;</p><p>A te válaszod és a másik játékos válasza <b>megegyeznek</b>.</p>","null","","","","feedback trial","",""
"html-button-response-esp","39","331199","0.0-11.0-0.14","6159","János imád nyülöközni, ezért sokat nyülöklik. Ők ritkán...","0","nyülöklenek","[""nyülöklenek"",""nyülököznek""]","nyülöklenek","esp trial","0","true"
"html-button-response","40","334703","0.0-11.0-1.14","null","<p>A másik játékos ezt választotta: <b>nyülöklenek</b>.</p><p>&#x2705;</p><p>A te válaszod és a másik játékos válasza <b>megegyeznek</b>.</p>","null","","","","feedback trial","",""
"html-button-response-esp","41","341200","0.0-11.0-0.15","5993","János imád vihapodni, ezért sokat vihapszik. Mi ritkán...","0","vihapszunk","[""vihapszunk"",""vihapodunk""]","vihapodunk","esp trial","0","false"
"html-button-response","42","344704","0.0-11.0-1.15","null","<p>A másik játékos ezt választotta: <b>vihapodunk</b>.</p><p>&#10060;</p><p>A válaszaitok <b>nem</b> egyeznek meg.</p>","null","","","","feedback trial","",""
"html-button-response-esp","43","352267","0.0-11.0-0.16","7059","János imád ribegedni, ezért sokat ribegszik. Ti ritkán...","0","ribegszetek","[""ribegszetek"",""ribegedtek""]","ribegszetek","esp trial","0","true"
"html-button-response","44","355771","0.0-11.0-1.16","null","<p>A másik játékos ezt választotta: <b>ribegszetek</b>.</p><p>&#x2705;</p><p>A te válaszod és a másik játékos válasza <b>megegyeznek</b>.</p>","null","","","","feedback trial","",""
"html-button-response-esp","45","366584","0.0-11.0-0.17","10309","János imád jurozni, ezért sokat jurlik. Mi ritkán...","0","jurlunk","[""jurlunk"",""jurozunk""]","jurlunk","esp trial","0","true"
"html-button-response","46","370088","0.0-11.0-1.17","null","<p>A másik játékos ezt választotta: <b>jurlunk</b>.</p><p>&#x2705;</p><p>A te válaszod és a másik játékos válasza <b>megegyeznek</b>.</p>","null","","","","feedback trial","",""
"html-button-response-esp","47","376668","0.0-11.0-0.18","6077","János imád trilekedni, ezért sokat trilekszik. Ti ritkán...","1","trilekszetek","[""trilekedtek"",""trilekszetek""]","trilekszetek","esp trial","0","true"
"html-button-response","48","380173","0.0-11.0-1.18","null","<p>A másik játékos ezt választotta: <b>trilekszetek</b>.</p><p>&#x2705;</p><p>A te válaszod és a másik játékos válasza <b>megegyeznek</b>.</p>","null","","","","feedback trial","",""
"html-button-response-esp","49","392852","0.0-11.0-0.19","12176","János imád flugonyozni, ezért sokat flugonylik. Ők ritkán...","0","flugonylanak","[""flugonylanak"",""flugonyoznak""]","flugonylanak","esp trial","0","true"
"html-button-response","50","396356","0.0-11.0-1.19","null","<p>A másik játékos ezt választotta: <b>flugonylanak</b>.</p><p>&#x2705;</p><p>A te válaszod és a másik játékos válasza <b>megegyeznek</b>.</p>","null","","","","feedback trial","",""
"html-button-response-esp","51","404535","0.0-11.0-0.20","7676","János imád bribékedni, ezért sokat bribékszik. Ti ritkán...","0","bribékszetek","[""bribékszetek"",""bribékedtek""]","bribékszetek","esp trial","0","true"
"html-button-response","52","408039","0.0-11.0-1.20","null","<p>A másik játékos ezt választotta: <b>bribékszetek</b>.</p><p>&#x2705;</p><p>A te válaszod és a másik játékos válasza <b>megegyeznek</b>.</p>","null","","","","feedback trial","",""
"html-button-response-esp","53","414418","0.0-11.0-0.21","5876","János imád flodozni, ezért sokat flodlik. Ti ritkán...","0","flodoztok","[""flodoztok"",""flodlotok""]","flodlotok","esp trial","0","false"
"html-button-response","54","417922","0.0-11.0-1.21","null","<p>A másik játékos ezt választotta: <b>flodlotok</b>.</p><p>&#10060;</p><p>A válaszaitok <b>nem</b> egyeznek meg.</p>","null","","","","feedback trial","",""
"html-button-response-esp","55","425036","0.0-11.0-0.22","6611","János imád metégedni, ezért sokat metégszik. Ők ritkán...","1","metégszenek","[""metégednek"",""metégszenek""]","metégszenek","esp trial","0","true"
"html-button-response","56","428544","0.0-11.0-1.22","null","<p>A másik játékos ezt választotta: <b>metégszenek</b>.</p><p>&#x2705;</p><p>A te válaszod és a másik játékos válasza <b>megegyeznek</b>.</p>","null","","","","feedback trial","",""
"html-button-response-esp","57","437120","0.0-11.0-0.23","8072","János imád dibágozni, ezért sokat dibáglik. Ti ritkán...","0","dibáglotok","[""dibáglotok"",""dibágoztok""]","dibáglotok","esp trial","0","true"
"html-button-response","58","440623","0.0-11.0-1.23","null","<p>A másik játékos ezt választotta: <b>dibáglotok</b>.</p><p>&#x2705;</p><p>A te válaszod és a másik játékos válasza <b>megegyeznek</b>.</p>","null","","","","feedback trial","",""
"html-button-response-esp","59","452036","0.0-11.0-0.24","10910","János imád sűjözni, ezért sokat sűjlik. Mi ritkán...","0","sűjözünk","[""sűjözünk"",""sűjlünk""]","sűjözünk","esp trial","0","true"
"html-button-response","60","455540","0.0-11.0-1.24","null","<p>A másik játékos ezt választotta: <b>sűjözünk</b>.</p><p>&#x2705;</p><p>A te válaszod és a másik játékos válasza <b>megegyeznek</b>.</p>","null","","","","feedback trial","",""
"html-button-response-esp","61","463740","0.0-11.0-0.25","7696","János imád frorozni, ezért sokat frorlik. Ők ritkán...","1","frorlanak","[""froroznak"",""frorlanak""]","froroznak","esp trial","0","false"
"html-button-response","62","467244","0.0-11.0-1.25","null","<p>A másik játékos ezt választotta: <b>froroznak</b>.</p><p>&#10060;</p><p>A válaszaitok <b>nem</b> egyeznek meg.</p>","null","","","","feedback trial","",""
"html-button-response-esp","63","477587","0.0-11.0-0.26","9840","János imád dralágozni, ezért sokat dralágzik. Mi ritkán...","0","dralágozunk","[""dralágozunk"",""dralágzunk""]","dralágozunk","esp trial","0","true"
"html-button-response","64","481090","0.0-11.0-1.26","null","<p>A másik játékos ezt választotta: <b>dralágozunk</b>.</p><p>&#x2705;</p><p>A te válaszod és a másik játékos válasza <b>megegyeznek</b>.</p>","null","","","","feedback trial","",""
"html-button-response-esp","65","488456","0.0-11.0-0.27","6862","János imád döjözni, ezért sokat döjlik. Ők ritkán...","0","döjöznek","[""döjöznek"",""döjlenek""]","döjöznek","esp trial","0","true"
"html-button-response","66","491960","0.0-11.0-1.27","null","<p>A másik játékos ezt választotta: <b>döjöznek</b>.</p><p>&#x2705;</p><p>A te válaszod és a másik játékos válasza <b>megegyeznek</b>.</p>","null","","","","feedback trial","",""
"html-button-response-esp","67","500623","0.0-11.0-0.28","8160","János imád nurokozni, ezért sokat nuroklik. Mi ritkán...","1","nurokozunk","[""nuroklunk"",""nurokozunk""]","nurokozunk","esp trial","0","true"
"html-button-response","68","504127","0.0-11.0-1.28","null","<p>A másik játékos ezt választotta: <b>nurokozunk</b>.</p><p>&#x2705;</p><p>A te válaszod és a másik játékos válasza <b>megegyeznek</b>.</p>","null","","","","feedback trial","",""
"html-button-response-esp","69","511107","0.0-11.0-0.29","6477","János imád bejezni, ezért sokat bejzik. Mi ritkán...","1","bejzünk","[""bejezünk"",""bejzünk""]","bejzünk","esp trial","0","true"
"html-button-response","70","514611","0.0-11.0-1.29","null","<p>A másik játékos ezt választotta: <b>bejzünk</b>.</p><p>&#x2705;</p><p>A te válaszod és a másik játékos válasza <b>megegyeznek</b>.</p>","null","","","","feedback trial","",""
"html-button-response-esp","71","522173","0.0-11.0-0.30","7058","János imád hiragozni, ezért sokat hiragzik. Ők ritkán...","1","hiragoznak","[""hiragzanak"",""hiragoznak""]","hiragzanak","esp trial","0","false"
"html-button-response","72","525676","0.0-11.0-1.30","null","<p>A másik játékos ezt választotta: <b>hiragzanak</b>.</p><p>&#10060;</p><p>A válaszaitok <b>nem</b> egyeznek meg.</p>","null","","","","feedback trial","",""
"html-button-response-esp","73","532792","0.0-11.0-0.31","6612","János imád vehékedni, ezért sokat vehékszik. Mi ritkán...","1","vehékedünk","[""vehékszünk"",""vehékedünk""]","vehékedünk","esp trial","0","true"
"html-button-response","74","536295","0.0-11.0-1.31","null","<p>A másik játékos ezt választotta: <b>vehékedünk</b>.</p><p>&#x2705;</p><p>A te válaszod és a másik játékos válasza <b>megegyeznek</b>.</p>","null","","","","feedback trial","",""
"html-button-response-esp","75","543425","0.0-11.0-0.32","6626","János imád brűközni, ezért sokat brűklik. Ti ritkán...","1","brűköztök","[""brűklötök"",""brűköztök""]","brűklötök","esp trial","0","false"
"html-button-response","76","546929","0.0-11.0-1.32","null","<p>A másik játékos ezt választotta: <b>brűklötök</b>.</p><p>&#10060;</p><p>A válaszaitok <b>nem</b> egyeznek meg.</p>","null","","","","feedback trial","",""
"html-button-response-esp","77","553458","0.0-11.0-0.33","6026","János imád tögözni, ezért sokat töglik. Ők ritkán...","1","tögöznek","[""töglenek"",""tögöznek""]","tögöznek","esp trial","0","true"
"html-button-response","78","556963","0.0-11.0-1.33","null","<p>A másik játékos ezt választotta: <b>tögöznek</b>.</p><p>&#x2705;</p><p>A te válaszod és a másik játékos válasza <b>megegyeznek</b>.</p>","null","","","","feedback trial","",""
"html-button-response-esp","79","562959","0.0-11.0-0.34","5493","János imád klihasozni, ezért sokat klihaslik. Ti ritkán...","1","klihasoztok","[""klihaslotok"",""klihasoztok""]","klihaslotok","esp trial","0","false"
"html-button-response","80","566464","0.0-11.0-1.34","null","<p>A másik játékos ezt választotta: <b>klihaslotok</b>.</p><p>&#10060;</p><p>A válaszaitok <b>nem</b> egyeznek meg.</p>","null","","","","feedback trial","",""
"html-button-response-esp","81","576910","0.0-11.0-0.35","9943","János imád flerékedni, ezért sokat flerékszik. Mi ritkán...","1","flerékedünk","[""flerékszünk"",""flerékedünk""]","flerékszünk","esp trial","0","false"
"html-button-response","82","580414","0.0-11.0-1.35","null","<p>A másik játékos ezt választotta: <b>flerékszünk</b>.</p><p>&#10060;</p><p>A válaszaitok <b>nem</b> egyeznek meg.</p>","null","","","","feedback trial","",""
"html-button-response-esp","83","588230","0.0-11.0-0.36","7312","János imád bügözni, ezért sokat bügzik. Ők ritkán...","0","bügöznek","[""bügöznek"",""bügzenek""]","bügöznek","esp trial","0","true"
"html-button-response","84","591734","0.0-11.0-1.36","null","<p>A másik játékos ezt választotta: <b>bügöznek</b>.</p><p>&#x2705;</p><p>A te válaszod és a másik játékos válasza <b>megegyeznek</b>.</p>","null","","","","feedback trial","",""
"html-button-response-esp","85","601444","0.0-11.0-0.37","9207","János imád frélegezni, ezért sokat frélegzik. Mi ritkán...","0","frélegzünk","[""frélegzünk"",""frélegezünk""]","frélegezünk","esp trial","0","false"
"html-button-response","86","604948","0.0-11.0-1.37","null","<p>A másik játékos ezt választotta: <b>frélegezünk</b>.</p><p>&#10060;</p><p>A válaszaitok <b>nem</b> egyeznek meg.</p>","null","","","","feedback trial","",""
"html-button-response-esp","87","612397","0.0-11.0-0.38","6946","János imád spuborozni, ezért sokat spuborzik. Ők ritkán...","0","spuborzanak","[""spuborzanak"",""spuboroznak""]","spuborzanak","esp trial","0","true"
"html-button-response","88","615901","0.0-11.0-1.38","null","<p>A másik játékos ezt választotta: <b>spuborzanak</b>.</p><p>&#x2705;</p><p>A te válaszod és a másik játékos válasza <b>megegyeznek</b>.</p>","null","","","","feedback trial","",""
"html-button-response-esp","89","621828","0.0-11.0-0.39","5424","János imád nyöbözni, ezért sokat nyöbzik. Ők ritkán...","0","nyöböznek","[""nyöböznek"",""nyöbzenek""]","nyöbzenek","esp trial","0","false"
"html-button-response","90","625332","0.0-11.0-1.39","null","<p>A másik játékos ezt választotta: <b>nyöbzenek</b>.</p><p>&#10060;</p><p>A válaszaitok <b>nem</b> egyeznek meg.</p>","null","","","","feedback trial","",""
"html-button-response-esp","91","634328","0.0-11.0-0.40","8493","János imád trukodni, ezért sokat trukszik. Ti ritkán...","1","trukszotok","[""trukodtok"",""trukszotok""]","trukszotok","esp trial","0","true"
"html-button-response","92","637832","0.0-11.0-1.40","null","<p>A másik játékos ezt választotta: <b>trukszotok</b>.</p><p>&#x2705;</p><p>A te válaszod és a másik játékos válasza <b>megegyeznek</b>.</p>","null","","","","feedback trial","",""
"html-button-response-esp","93","648395","0.0-11.0-0.41","10060","János imád gihamozni, ezért sokat gihamlik. Ők ritkán...","0","gihamlanak","[""gihamlanak"",""gihamoznak""]","gihamlanak","esp trial","0","true"
"html-button-response","94","651899","0.0-11.0-1.41","null","<p>A másik játékos ezt választotta: <b>gihamlanak</b>.</p><p>&#x2705;</p><p>A te válaszod és a másik játékos válasza <b>megegyeznek</b>.</p>","null","","","","feedback trial","",""
"html-button-response-esp","95","662363","0.0-11.0-0.42","9961","János imád nyizozni, ezért sokat nyizlik. Mi ritkán...","1","nyizozunk","[""nyizlunk"",""nyizozunk""]","nyizozunk","esp trial","0","true"
"html-button-response","96","665867","0.0-11.0-1.42","null","<p>A másik játékos ezt választotta: <b>nyizozunk</b>.</p><p>&#x2705;</p><p>A te válaszod és a másik játékos válasza <b>megegyeznek</b>.</p>","null","","","","feedback trial","",""
"html-button-response-esp","97","677563","0.0-11.0-0.43","11194","János imád klégezni, ezért sokat kléglik. Mi ritkán...","0","klégezünk","[""klégezünk"",""kléglünk""]","klégezünk","esp trial","0","true"
"html-button-response","98","681068","0.0-11.0-1.43","null","<p>A másik játékos ezt választotta: <b>klégezünk</b>.</p><p>&#x2705;</p><p>A te válaszod és a másik játékos válasza <b>megegyeznek</b>.</p>","null","","","","feedback trial","",""
"html-button-response-esp","99","690947","0.0-11.0-0.44","9376","János imád bötőrözni, ezért sokat bötőrzik. Mi ritkán...","1","bötőrözünk","[""bötőrzünk"",""bötőrözünk""]","bötőrzünk","esp trial","0","false"
"html-button-response","100","694451","0.0-11.0-1.44","null","<p>A másik játékos ezt választotta: <b>bötőrzünk</b>.</p><p>&#10060;</p><p>A válaszaitok <b>nem</b> egyeznek meg.</p>","null","","","","feedback trial","",""
"html-button-response-esp","101","701748","0.0-11.0-0.45","6793","János imád hubonyozni, ezért sokat hubonylik. Ti ritkán...","0","hubonyoztok","[""hubonyoztok"",""hubonylotok""]","hubonylotok","esp trial","0","false"
"html-button-response","102","705251","0.0-11.0-1.45","null","<p>A másik játékos ezt választotta: <b>hubonylotok</b>.</p><p>&#10060;</p><p>A válaszaitok <b>nem</b> egyeznek meg.</p>","null","","","","feedback trial","",""
"html-button-response-esp","103","716931","0.0-11.0-0.46","11177","János imád frirozni, ezért sokat frirzik. Mi ritkán...","1","frirozunk","[""frirzunk"",""frirozunk""]","frirzunk","esp trial","0","false"
"html-button-response","104","720435","0.0-11.0-1.46","null","<p>A másik játékos ezt választotta: <b>frirzunk</b>.</p><p>&#10060;</p><p>A válaszaitok <b>nem</b> egyeznek meg.</p>","null","","","","feedback trial","",""
"html-button-response-esp","105","727882","0.0-11.0-0.47","6944","János imád nyádozni, ezért sokat nyádlik. Ők ritkán...","0","nyádlanak","[""nyádlanak"",""nyádoznak""]","nyádoznak","esp trial","0","false"
"html-button-response","106","731386","0.0-11.0-1.47","null","<p>A másik játékos ezt választotta: <b>nyádoznak</b>.</p><p>&#10060;</p><p>A válaszaitok <b>nem</b> egyeznek meg.</p>","null","","","","feedback trial","",""
"html-button-response-esp","107","738799","0.0-11.0-0.48","6910","János imád pibegezni, ezért sokat pibegzik. Ők ritkán...","1","pibegzenek","[""pibegeznek"",""pibegzenek""]","pibegzenek","esp trial","0","true"
"html-button-response","108","742303","0.0-11.0-1.48","null","<p>A másik játékos ezt választotta: <b>pibegzenek</b>.</p><p>&#x2705;</p><p>A te válaszod és a másik játékos válasza <b>megegyeznek</b>.</p>","null","","","","feedback trial","",""
"html-button-response-esp","109","748183","0.0-11.0-0.49","5376","János imád játozni, ezért sokat játlik. Mi ritkán...","1","játlunk","[""játozunk"",""játlunk""]","játozunk","esp trial","0","false"
"html-button-response","110","751687","0.0-11.0-1.49","null","<p>A másik játékos ezt választotta: <b>játozunk</b>.</p><p>&#10060;</p><p>A válaszaitok <b>nem</b> egyeznek meg.</p>","null","","","","feedback trial","",""
"html-button-response-esp","111","757066","0.0-11.0-0.50","4877","János imád frinyozni, ezért sokat frinylik. Mi ritkán...","0","frinylunk","[""frinylunk"",""frinyozunk""]","frinylunk","esp trial","0","true"
"html-button-response","112","760570","0.0-11.0-1.50","null","<p>A másik játékos ezt választotta: <b>frinylunk</b>.</p><p>&#x2705;</p><p>A te válaszod és a másik játékos válasza <b>megegyeznek</b>.</p>","null","","","","feedback trial","",""
"html-button-response-esp","113","766948","0.0-11.0-0.51","5875","János imád kláragodni, ezért sokat kláragszik. Ti ritkán...","1","kláragodtok","[""kláragszotok"",""kláragodtok""]","kláragszotok","esp trial","0","false"
"html-button-response","114","770452","0.0-11.0-1.51","null","<p>A másik játékos ezt választotta: <b>kláragszotok</b>.</p><p>&#10060;</p><p>A válaszaitok <b>nem</b> egyeznek meg.</p>","null","","","","feedback trial","",""
"html-button-response-esp","115","790635","0.0-11.0-0.52","19680","János imád trálodni, ezért sokat trálszik. Mi ritkán...","1","trálszunk","[""trálodunk"",""trálszunk""]","trálodunk","esp trial","0","false"
"html-button-response","116","794139","0.0-11.0-1.52","null","<p>A másik játékos ezt választotta: <b>trálodunk</b>.</p><p>&#10060;</p><p>A válaszaitok <b>nem</b> egyeznek meg.</p>","null","","","","feedback trial","",""
"html-button-response-esp","117","799234","0.0-11.0-0.53","4592","János imád flátozni, ezért sokat flátlik. Ti ritkán...","1","flátoztok","[""flátlotok"",""flátoztok""]","flátlotok","esp trial","0","false"
"html-button-response","118","802738","0.0-11.0-1.53","null","<p>A másik játékos ezt választotta: <b>flátlotok</b>.</p><p>&#10060;</p><p>A válaszaitok <b>nem</b> egyeznek meg.</p>","null","","","","feedback trial","",""
"html-button-response","119","813152","0.0-12.0","9910","<p>A közös játék most véget ért.</p><p>Mielőtt eláruljuk a végső pontszámodat, arra kérlek, játszd a szóválasztós játékot néhány percig egyedül is.</p><p>A feladatod ugyanaz lesz, választani két lehetőség közül.</p><p>Most viszont egyedül kell döntened, hogy te melyiket választanád.</p>","0","","","","","",""
"html-button-response-clever","120","823970","0.0-13.0-0.0","10312","János imád spirágozni, ezért sokat spiráglik. Ti ritkán...","0","spirágoztok","[""spirágoztok"",""spiráglotok""]","","posttest trial","4",""
"html-button-response-clever","121","828919","0.0-13.0-0.1","4446","János imád brözözni, ezért sokat brözlik. Ti ritkán...","1","brözöztök","[""brözlötök"",""brözöztök""]","","posttest trial","4",""
"html-button-response-clever","122","836253","0.0-13.0-0.2","6833","János imád trugokozni, ezért sokat trugoklik. Ők ritkán...","0","trugoklanak","[""trugoklanak"",""trugokoznak""]","","posttest trial","4",""
"html-button-response-clever","123","841103","0.0-13.0-0.3","4346","János imád flöközni, ezért sokat flöklik. Ti ritkán...","1","flököztök","[""flöklötök"",""flököztök""]","","posttest trial","4",""
"html-button-response-clever","124","847670","0.0-13.0-0.4","6063","János imád csubozni, ezért sokat csubzik. Mi ritkán...","1","csubzunk","[""csubozunk"",""csubzunk""]","","posttest trial","4",""
"html-button-response-clever","125","856671","0.0-13.0-0.5","8497","János imád flüröközni, ezért sokat flüröklik. Ti ritkán...","1","flürököztök","[""flüröklötök"",""flürököztök""]","","posttest trial","4",""
"html-button-response-clever","126","861857","0.0-13.0-0.6","4682","János imád dujozni, ezért sokat dujzik. Ők ritkán...","0","dujzanak","[""dujzanak"",""dujoznak""]","","posttest trial","4",""
"html-button-response-clever","127","868638","0.0-13.0-0.7","6277","János imád pragányozni, ezért sokat pragánylik. Ti ritkán...","1","pragányoztok","[""pragánylotok"",""pragányoztok""]","","posttest trial","4",""
"html-button-response-clever","128","873621","0.0-13.0-0.8","4480","János imád gihejezni, ezért sokat gihejlik. Mi ritkán...","0","gihejezünk","[""gihejezünk"",""gihejlünk""]","","posttest trial","4",""
"html-button-response-clever","129","881888","0.0-13.0-0.9","7763","János imád gyihegezni, ezért sokat gyihegzik. Ti ritkán...","1","gyihegeztek","[""gyihegzetek"",""gyihegeztek""]","","posttest trial","4",""
"html-button-response-clever","130","887388","0.0-13.0-0.10","4998","János imád spibegezni, ezért sokat spibeglik. Mi ritkán...","0","spibegezünk","[""spibegezünk"",""spibeglünk""]","","posttest trial","4",""
"html-button-response-clever","131","892472","0.0-13.0-0.11","4582","János imád posozni, ezért sokat poslik. Ti ritkán...","0","poslotok","[""poslotok"",""posoztok""]","","posttest trial","4",""
"html-button-response-clever","132","896956","0.0-13.0-0.12","3980","János imád trugozni, ezért sokat trugzik. Ők ritkán...","0","trugoznak","[""trugoznak"",""trugzanak""]","","posttest trial","4",""
"html-button-response-clever","133","901772","0.0-13.0-0.13","4313","János imád dabozni, ezért sokat dabzik. Ti ritkán...","1","daboztok","[""dabzotok"",""daboztok""]","","posttest trial","4",""
"html-button-response-clever","134","907156","0.0-13.0-0.14","4882","János imád dirozni, ezért sokat dirlik. Ti ritkán...","0","dirlotok","[""dirlotok"",""diroztok""]","","posttest trial","4",""
"html-button-response-clever","135","912440","0.0-13.0-0.15","4780","János imád brivakozni, ezért sokat brivaklik. Ti ritkán...","1","brivakoztok","[""brivaklotok"",""brivakoztok""]","","posttest trial","4",""
"html-button-response-clever","136","920606","0.0-13.0-0.16","7663","János imád brülösözni, ezért sokat brülöslik. Mi ritkán...","1","brülöslünk","[""brülösözünk"",""brülöslünk""]","","posttest trial","4",""
"html-button-response-clever","137","927273","0.0-13.0-0.17","6163","János imád prögözni, ezért sokat prögzik. Ti ritkán...","1","prögzötök","[""prögöztök"",""prögzötök""]","","posttest trial","4",""
"html-button-response-clever","138","932906","0.0-13.0-0.18","5129","János imád pilégedni, ezért sokat pilégszik. Ők ritkán...","0","pilégednek","[""pilégednek"",""pilégszenek""]","","posttest trial","4",""
"html-button-response-clever","139","938024","0.0-13.0-0.19","4615","János imád fröjözni, ezért sokat fröjzik. Ti ritkán...","0","fröjzötök","[""fröjzötök"",""fröjöztök""]","","posttest trial","4",""
"html-button-response-clever","140","945491","0.0-13.0-0.20","6964","János imád virozni, ezért sokat virzik. Ők ritkán...","0","virzanak","[""virzanak"",""viroznak""]","","posttest trial","4",""
"html-button-response-clever","141","950140","0.0-13.0-0.21","4147","János imád flűgözni, ezért sokat flűgzik. Mi ritkán...","1","flűgözünk","[""flűgzünk"",""flűgözünk""]","","posttest trial","4",""
"html-button-response-clever","142","955224","0.0-13.0-0.22","4581","János imád mágamozni, ezért sokat mágamlik. Mi ritkán...","0","mágamlunk","[""mágamlunk"",""mágamozunk""]","","posttest trial","4",""
"html-button-response-clever","143","960123","0.0-13.0-0.23","4396","János imád lájozni, ezért sokat lájzik. Ti ritkán...","1","lájzotok","[""lájoztok"",""lájzotok""]","","posttest trial","4",""
"html-button-response-clever","144","967307","0.0-13.0-0.24","6681","János imád köszözni, ezért sokat köszlik. Ti ritkán...","0","köszöztök","[""köszöztök"",""köszlötök""]","","posttest trial","4",""
"html-button-response-clever","145","972626","0.0-13.0-0.25","4816","János imád dilakozni, ezért sokat dilaklik. Ti ritkán...","0","dilakoztok","[""dilakoztok"",""dilaklotok""]","","posttest trial","4",""
"html-button-response-clever","146","980175","0.0-13.0-0.26","7046","János imád csibagozni, ezért sokat csibagzik. Ti ritkán...","1","csibagoztok","[""csibagzotok"",""csibagoztok""]","","posttest trial","4",""
"html-button-response-clever","147","987293","0.0-13.0-0.27","6614","János imád püzözni, ezért sokat püzlik. Ti ritkán...","0","püzöztök","[""püzöztök"",""püzlötök""]","","posttest trial","4",""
"html-button-response-clever","148","991695","0.0-13.0-0.28","3898","János imád branyozni, ezért sokat branylik. Ők ritkán...","0","branylanak","[""branylanak"",""branyoznak""]","","posttest trial","4",""
"html-button-response-clever","149","998909","0.0-13.0-0.29","6710","János imád mülőrözni, ezért sokat mülőrzik. Mi ritkán...","1","mülőrzünk","[""mülőrözünk"",""mülőrzünk""]","","posttest trial","4",""
"html-button-response-clever","150","1003663","0.0-13.0-0.30","4251","János imád bratározni, ezért sokat bratárzik. Ők ritkán...","0","bratárzanak","[""bratárzanak"",""bratároznak""]","","posttest trial","4",""
"html-button-response-clever","151","1007909","0.0-13.0-0.31","3744","János imád molodni, ezért sokat molszik. Ti ritkán...","1","molszotok","[""molodtok"",""molszotok""]","","posttest trial","4",""
"html-button-response-clever","152","1013511","0.0-13.0-0.32","5099","János imád föködni, ezért sokat fökszik. Ők ritkán...","0","föködnek","[""föködnek"",""fökszenek""]","","posttest trial","4",""
"html-button-response-clever","153","1022278","0.0-13.0-0.33","8264","János imád drilarozni, ezért sokat drilarzik. Mi ritkán...","0","drilarzunk","[""drilarzunk"",""drilarozunk""]","","posttest trial","4",""
"html-button-response-clever","154","1026928","0.0-13.0-0.34","4148","János imád flemezni, ezért sokat flemlik. Mi ritkán...","1","flemezünk","[""flemlünk"",""flemezünk""]","","posttest trial","4",""
"html-button-response-clever","155","1031144","0.0-13.0-0.35","3713","János imád sprűrözni, ezért sokat sprűrlik. Ők ritkán...","0","sprűrlenek","[""sprűrlenek"",""sprűröznek""]","","posttest trial","4",""
"html-button-response-clever","156","1036694","0.0-13.0-0.36","5047","János imád sprozozni, ezért sokat sprozlik. Ők ritkán...","0","sprozoznak","[""sprozoznak"",""sprozlanak""]","","posttest trial","4",""
"html-button-response-clever","157","1041144","0.0-13.0-0.37","3947","János imád spügözni, ezért sokat spügzik. Mi ritkán...","0","spügzünk","[""spügzünk"",""spügözünk""]","","posttest trial","4",""
"html-button-response-clever","158","1046829","0.0-13.0-0.38","5182","János imád dárakodni, ezért sokat dárakszik. Mi ritkán...","0","dárakodunk","[""dárakodunk"",""dárakszunk""]","","posttest trial","4",""
"html-button-response-clever","159","1050513","0.0-13.0-0.39","3180","János imád prélemezni, ezért sokat prélemlik. Ők ritkán...","0","prélemlenek","[""prélemlenek"",""prélemeznek""]","","posttest trial","4",""
"html-button-response-clever","160","1056079","0.0-13.0-0.40","5064","János imád sprudozni, ezért sokat sprudlik. Mi ritkán...","1","sprudlunk","[""sprudozunk"",""sprudlunk""]","","posttest trial","4",""
"html-button-response-clever","161","1060746","0.0-13.0-0.41","4163","János imád spiharozni, ezért sokat spiharzik. Ti ritkán...","0","spiharoztok","[""spiharoztok"",""spiharzotok""]","","posttest trial","4",""
"html-button-response-clever","162","1066496","0.0-13.0-0.42","5248","János imád kűdözni, ezért sokat kűdlik. Ők ritkán...","0","kűdöznek","[""kűdöznek"",""kűdlenek""]","","posttest trial","4",""
"html-button-response-clever","163","1072779","0.0-13.0-0.43","5780","János imád frálasozni, ezért sokat frálaslik. Ők ritkán...","0","frálaslanak","[""frálaslanak"",""frálasoznak""]","","posttest trial","4",""
"html-button-response-clever","164","1078246","0.0-13.0-0.44","4964","János imád trikozni, ezért sokat triklik. Ti ritkán...","0","trikoztok","[""trikoztok"",""triklotok""]","","posttest trial","4",""
"html-button-response-clever","165","1083333","0.0-13.0-0.45","4584","János imád nyivágozni, ezért sokat nyivágzik. Mi ritkán...","1","nyivágozunk","[""nyivágzunk"",""nyivágozunk""]","","posttest trial","4",""
"html-button-response-clever","166","1087413","0.0-13.0-0.46","3578","János imád lűközni, ezért sokat lűklik. Ők ritkán...","0","lűköznek","[""lűköznek"",""lűklenek""]","","posttest trial","4",""
"html-button-response-clever","167","1094530","0.0-13.0-0.47","6614","János imád frakozni, ezért sokat fraklik. Mi ritkán...","0","fraklunk","[""fraklunk"",""frakozunk""]","","posttest trial","4",""
"html-button-response-clever","168","1099678","0.0-13.0-0.48","4646","János imád nyürözni, ezért sokat nyürzik. Ők ritkán...","0","nyürzenek","[""nyürzenek"",""nyüröznek""]","","posttest trial","4",""
"html-button-response-clever","169","1104181","0.0-13.0-0.49","4000","János imád privékedni, ezért sokat privékszik. Ők ritkán...","0","privékszenek","[""privékszenek"",""privékednek""]","","posttest trial","4",""
"html-button-response-clever","170","1109348","0.0-13.0-0.50","4664","János imád drűrözni, ezért sokat drűrzik. Ők ritkán...","0","drűröznek","[""drűröznek"",""drűrzenek""]","","posttest trial","4",""
"html-button-response-clever","171","1113698","0.0-13.0-0.51","3847","János imád frálapodni, ezért sokat frálapszik. Ti ritkán...","0","frálapszotok","[""frálapszotok"",""frálapodtok""]","","posttest trial","4",""
"html-button-response-clever","172","1118898","0.0-13.0-0.52","4697","János imád klehényezni, ezért sokat klehénylik. Ti ritkán...","0","klehényeztek","[""klehényeztek"",""klehényletek""]","","posttest trial","4",""
"html-button-response-clever","173","1122781","0.0-13.0-0.53","3379","János imád trivakodni, ezért sokat trivakszik. Mi ritkán...","0","trivakodunk","[""trivakodunk"",""trivakszunk""]","","posttest trial","4",""
"html-button-response","174","1131462","0.0-14.0","8178","<p> Vége a játéknak. A teljes pontszámod 33/54.</p><p> Szép munka! &#128526;&#128526;&#128526;</p><p>A Befejezés gomb megnyomása után bezárhatod a böngészőablakot.</p>","0","","","","","",""
"html-keyboard-response","175","1136967","0.0-15.0","null","<div class=""message"">
         <p>Egy kis türelmet kérünk, amíg elmentjük az adatokat...</p>
         </div>","null","","","","","",""
