"trial_type","trial_index","time_elapsed","internal_node_id","rt","stimulus","response","response_string","choices","esp_response","trial_kind","list_number","esp_match"
"pavlovia","0","966","0.0-0.0","","","","","","","","",""
"html-button-response","1","30494","0.0-1.0","29019","<p>Kedves Résztvevő! A Budapesti Műszaki és Gazdaságtudományi Egyetem Kognitív Tudományi Tanszékének kutatásában való részvételed kérjük. A kutatásban azt vizsgáljuk, hogy a magyar anyanyelvűek hogyan használnak bizonyos szóalakokat, és hogy milyen képük van arról, hogy mások hogyan használják, hogyan képzik a szavakat. Ez hozzásegít bennünket ahhoz, hogy jobban megértsük, hogyan dolgozza fel és tárolja a nyelvet az emberi agy, és hogyan működnek, hogyan változnak egy adott közösség nyelvi konvenciói.</p><p>A vizsgálat egy rövid számítógépes feladatból fog állni. A kutatásban való részvétel önkéntes, a részvételi szándék bármikor visszavonható. A résztvevők eredményeit név nélkül kezeljük, így nem beazonosíthatók az adatok feldolgozása során. Minden személyes adatot az EU általános adatvédelmi rendeletének (GDPR) megfelelően kezelünk és legfeljebb öt éven belül megsemmisítünk. A vizsgálat jellemzően húsz percet vesz igénybe.</p><p>Kutatásvezető:</p><p>Dr. Rácz Péter, tudományos munkatárs, BME KTT</p><p>e-mail: racz.peter.marton@ttk.bme.hu</p>","0","","","","","",""
"html-button-response","2","66590","0.0-2.0","35587","<p>A kísérletben szavakat fogsz látni. Ezek között lesznek olyanok, amelyeket ismersz, de előfordulhatnak olyanok is, amelyeket nem ismersz, sőt, vannak köztük kitalált szavak is. Minden szónál látni fogsz toldalékolt alakokat. A te feladatod az lesz, hogy minden szóhoz kiválaszd azt a toldalékolt alakot, amely a te számodra ismerősebben, természetesebben hangzik. Rossz válaszok nincsenek, mert van olyan, hogy különböző embereknek más és más szó tűnik jobb választásnak. A választ úgy tudod majd kiválasztani, ha rákattintasz.</p><p>Ebben a szóválasztós játékban egy másik játékossal együtt veszel majd részt. A másik játékos is minden esetben azok közül a lehetőségek közül válogathat, mint te. Kettőtök feladata az, hogy ugyanazt a lehetőséget válasszátok minden esetben. Ahhoz, hogy ez sikerüljön, neked figyelned kell arra, hogy a másik játékos milyen válaszokat ad, és ennek alapján meg kell tippelned, hogyan választ legközelebb. Ha eltalálod, akkor pontot kapsz.</p>","0","","","","","",""
"html-button-response","3","77534","0.0-3.0","10434","<p>Kérjük, olvasd el az alábbi nyilatkozatot, és amennyiben egyetértesz vele, nyomj a Beleegyezés gombra!</p><p>Kijelentem, hogy magyar anyanyelvű személyként önként veszek részt a BME KTT kísérletében. A kutatás céljával és folyamatával kapcsolatban elegendő tájékoztatást kaptam, lehetőségem volt kérdések feltételére, és esetleges kérdéseimre megfelelő válaszokat kaptam. A tájékoztatás alapján elegendő mennyiségű információ áll a rendelkezésemre, hogy eldönthessem, részt kívánok-e venni a kutatásban.</p><p>Tisztában vagyok vele, hogy részvételi szándékomat és adataimat bármikor, indoklás nélkül visszavonhatom.</p><p>Értem és tudomásul veszem, hogy a kutatás tudományos célokat szolgál, és az általam szolgáltatott adatokat a BME kizárólag kutatási célból használja fel. Tudomásul veszem, hogy eredményeimet a többi résztvevő eredményeivel együtt kezelik, így egyéni teljesítményemről visszajelzést, szakvéleményt nem kapok.</p><p>Megértettem, hogy adataim kezelését illetően a BME az EU általános adatvédelmi rendelete (GDPR), a hatályos adatvédelmi törvény és a nemzetközi kutatás-etikai alapelvek szerint jár el. Eredményeim anonim módon kerülnek feldolgozásra, és a kutatás résztvevői az azonosításomra alkalmas adataimat harmadik félnek nem szolgáltatják ki. Engedélyezem a BME számára a jelen kutatásban felvett adataim feldolgozását és tárolását, beleértve azok későbbi kutatásokhoz való felhasználását is. Személyes adataim kezelésével kapcsolatban tájékoztatást kérhetek a kutatás résztvevőitől, az adatkezelés ellen tiltakozhatok, kérhetem személyes adataim helyesbítését, törlését vagy zárolását, valamint jogorvoslatért a Nemzeti Adatvédelmi és Információszabadság Hatósághoz fordulhatok.</p><p>Kijelentem, hogy a kutatásban való részvételem körülményeiről részletes tájékoztatást kaptam, és a feltételeket elfogadom.</p>","0","","","","","",""
"survey-text","4","110254","0.0-4.0","32191","","{""Q0"":""IF3LLE"",""Q1"":""nő"",""Q2"":""1996"",""Q3"":""16""}","","","","","",""
"html-button-response","5","125518","0.0-5.0","14750","<p>Ebben a játékban szavakat kell toldalékolni.</p> <p>Minden körben mutatunk majd egy példamondatot, amiben lesz egy szó.</p> <p>Alatta jön egy második mondat, ezt a mondatot neked kell majd befejezni, ugyanezzel a szóval.</p> <p>Nem biztos, hogy a szó eleve ismerős lesz számodra!</p> <p>Minden mondathoz adunk két lehetőséget, ezeket balra és jobbra látod majd.</p> <p>A játék kb. negyedóráig-húsz percig tart.</p>","0","","","","","",""
"html-button-response","6","136606","0.0-6.0","10583","<p>Nézzünk egy példát!</p> <p>A példamondat: ""Ez itt egy blumbnyeg.""</p><p>Neked ezt a mondatot kell befejezned: ""Ott vagyunk a...""</p><p>A lehetőségek pedig ezek:</p>","0","","","","","",""
"html-button-response","7","145470","0.0-7.0","8356","<p>Nagyon jó.</p><p>Ezt a játékot nem egyedül fogod játszani, hanem egy másik játékossal.</p><p>Mielőtt továbblépünk, összekapcsolunk titeket egymással.</p><p>Ez igénybe vehet néhány másodpercet, amihez szíves türelmed kérjük.</p>","0","","","","","",""
"html-button-response","8","151203","0.0-8.0","null","<p>Csatlakozás a másik játékoshoz...</p>","null","","","","","",""
"html-button-response","9","153724","0.0-9.0","null","<p> Sikeres kapcsolódás!</p>","null","","","","","",""
"html-button-response","10","164236","0.0-10.0","null","<p>A következőkben ketten játsszátok a szóválasztós játékot.</p><p>A feladatotok az lesz, hogy minden körben <b>ugyanazt</b> a szót válasszátok.</p><p>Minden ilyen egyező válaszért pontot kaptok.</p><p>Próbáld meg kitalálni, mit választ a másik játékos!</p><p>Bármikor választhatsz, a körnek akkor van vége, ha mindketten döntöttetek.</p><p>Sok sikert!</p>","null","","","","","",""
"html-button-response-esp","11","169694","0.0-11.0-0.0","4951","Ez itt egy brukész. Nincs is jobb egy jó...","0","brukésznál","[""brukésznál"",""brukésznél""]","brukésznál","esp trial","9","true"
"html-button-response","12","173215","0.0-11.0-1.0","null","<p>A másik játékos ezt választotta: <b>brukésznál</b>.</p><p>&#x2705;</p><p>A te válaszod és a másik játékos válasza <b>megegyeznek</b>.</p>","null","","","","feedback trial","",""
"html-button-response-esp","13","177933","0.0-11.0-0.1","3735","Ez itt egy hivép. Ott vagyunk a...","0","hivépben","[""hivépben"",""hivépban""]","hivépban","esp trial","9","false"
"html-button-response","14","181458","0.0-11.0-1.1","null","<p>A másik játékos ezt választotta: <b>hivépban</b>.</p><p>&#10060;</p><p>A válaszaitok <b>nem</b> egyeznek meg.</p>","null","","","","feedback trial","",""
"html-button-response-esp","15","186178","0.0-11.0-0.2","3101","Ez itt egy trigenc. Elneveztem a kutyámat...","0","trigencnek","[""trigencnek"",""trigencnak""]","trigencnek","esp trial","9","true"
"html-button-response","16","189704","0.0-11.0-1.2","null","<p>A másik játékos ezt választotta: <b>trigencnek</b>.</p><p>&#x2705;</p><p>A te válaszod és a másik játékos válasza <b>megegyeznek</b>.</p>","null","","","","feedback trial","",""
"html-button-response-esp","17","195422","0.0-11.0-0.3","5212","Ez itt egy brágéd. Elneveztem a kutyámat...","0","brágédnek","[""brágédnek"",""brágédnak""]","brágédnak","esp trial","9","false"
"html-button-response","18","198941","0.0-11.0-1.3","null","<p>A másik játékos ezt választotta: <b>brágédnak</b>.</p><p>&#10060;</p><p>A válaszaitok <b>nem</b> egyeznek meg.</p>","null","","","","feedback trial","",""
"html-button-response-esp","19","204637","0.0-11.0-0.4","5189","Ez itt egy fincek. Nincs is jobb egy jó...","0","finceknél","[""finceknél"",""finceknál""]","finceknál","esp trial","9","false"
"html-button-response","20","208168","0.0-11.0-1.4","null","<p>A másik játékos ezt választotta: <b>finceknál</b>.</p><p>&#10060;</p><p>A válaszaitok <b>nem</b> egyeznek meg.</p>","null","","","","feedback trial","",""
"html-button-response-esp","21","212889","0.0-11.0-0.5","2909","Ez itt egy dingec. Elneveztem a kutyámat...","0","dingecnek","[""dingecnek"",""dingecnak""]","dingecnek","esp trial","9","true"
"html-button-response","22","216408","0.0-11.0-1.5","null","<p>A másik játékos ezt választotta: <b>dingecnek</b>.</p><p>&#x2705;</p><p>A te válaszod és a másik játékos válasza <b>megegyeznek</b>.</p>","null","","","","feedback trial","",""
"html-button-response-esp","23","221123","0.0-11.0-0.6","3254","Ez itt egy tranék. Ott vagyunk a...","1","tranékben","[""tranékban"",""tranékben""]","tranékban","esp trial","9","false"
"html-button-response","24","224629","0.0-11.0-1.6","null","<p>A másik játékos ezt választotta: <b>tranékban</b>.</p><p>&#10060;</p><p>A válaszaitok <b>nem</b> egyeznek meg.</p>","null","","","","feedback trial","",""
"html-button-response-esp","25","229558","0.0-11.0-0.7","4425","Ez itt egy licegy. Ott vagyunk a...","1","licegyben","[""licegyban"",""licegyben""]","licegyben","esp trial","9","true"
"html-button-response","26","233077","0.0-11.0-1.7","null","<p>A másik játékos ezt választotta: <b>licegyben</b>.</p><p>&#x2705;</p><p>A te válaszod és a másik játékos válasza <b>megegyeznek</b>.</p>","null","","","","feedback trial","",""
"html-button-response-esp","27","238101","0.0-11.0-0.8","4521","Ez itt egy zsopéd. Ott vagyunk a...","1","zsopédban","[""zsopédben"",""zsopédban""]","zsopédban","esp trial","9","true"
"html-button-response","28","241633","0.0-11.0-1.8","null","<p>A másik játékos ezt választotta: <b>zsopédban</b>.</p><p>&#x2705;</p><p>A te válaszod és a másik játékos válasza <b>megegyeznek</b>.</p>","null","","","","feedback trial","",""
"html-button-response-esp","29","246629","0.0-11.0-0.9","4483","Ez itt egy nyábét. Ott vagyunk a...","1","nyábétban","[""nyábétben"",""nyábétban""]","nyábétban","esp trial","9","true"
"html-button-response","30","250149","0.0-11.0-1.9","null","<p>A másik játékos ezt választotta: <b>nyábétban</b>.</p><p>&#x2705;</p><p>A te válaszod és a másik játékos válasza <b>megegyeznek</b>.</p>","null","","","","feedback trial","",""
"html-button-response-esp","31","254958","0.0-11.0-0.10","4283","Ez itt egy hóbens. Ott vagyunk a...","0","hóbensben","[""hóbensben"",""hóbensban""]","hóbensban","esp trial","9","false"
"html-button-response","32","258464","0.0-11.0-1.10","null","<p>A másik játékos ezt választotta: <b>hóbensban</b>.</p><p>&#10060;</p><p>A válaszaitok <b>nem</b> egyeznek meg.</p>","null","","","","feedback trial","",""
"html-button-response-esp","33","264510","0.0-11.0-0.11","5541","Ez itt egy jalrény. Nincs is jobb egy jó...","1","jalrénynál","[""jalrénynél"",""jalrénynál""]","jalrénynál","esp trial","9","true"
"html-button-response","34","268029","0.0-11.0-1.11","null","<p>A másik játékos ezt választotta: <b>jalrénynál</b>.</p><p>&#x2705;</p><p>A te válaszod és a másik játékos válasza <b>megegyeznek</b>.</p>","null","","","","feedback trial","",""
"html-button-response-esp","35","274486","0.0-11.0-0.12","5949","Ez itt egy klordény. Elneveztem a kutyámat...","1","klordénynak","[""klordénynek"",""klordénynak""]","klordénynak","esp trial","9","true"
"html-button-response","36","277992","0.0-11.0-1.12","null","<p>A másik játékos ezt választotta: <b>klordénynak</b>.</p><p>&#x2705;</p><p>A te válaszod és a másik játékos válasza <b>megegyeznek</b>.</p>","null","","","","feedback trial","",""
"html-button-response-esp","37","283478","0.0-11.0-0.13","4978","Ez itt egy kluhéj. Nincs is jobb egy jó...","0","kluhéjnél","[""kluhéjnél"",""kluhéjnál""]","kluhéjnál","esp trial","9","false"
"html-button-response","38","286985","0.0-11.0-1.13","null","<p>A másik játékos ezt választotta: <b>kluhéjnál</b>.</p><p>&#10060;</p><p>A válaszaitok <b>nem</b> egyeznek meg.</p>","null","","","","feedback trial","",""
"html-button-response-esp","39","292070","0.0-11.0-0.14","4569","Ez itt egy júder. Elneveztem a kutyámat...","1","júdernak","[""júdernek"",""júdernak""]","júdernak","esp trial","9","true"
"html-button-response","40","295586","0.0-11.0-1.14","null","<p>A másik játékos ezt választotta: <b>júdernak</b>.</p><p>&#x2705;</p><p>A te válaszod és a másik játékos válasza <b>megegyeznek</b>.</p>","null","","","","feedback trial","",""
"html-button-response-esp","41","300733","0.0-11.0-0.15","4636","Ez itt egy bródesz. Elneveztem a kutyámat...","0","bródesznek","[""bródesznek"",""bródesznak""]","bródesznak","esp trial","9","false"
"html-button-response","42","304257","0.0-11.0-1.15","null","<p>A másik játékos ezt választotta: <b>bródesznak</b>.</p><p>&#10060;</p><p>A válaszaitok <b>nem</b> egyeznek meg.</p>","null","","","","feedback trial","",""
"html-button-response-esp","43","309389","0.0-11.0-0.16","4617","Ez itt egy kadér. Nincs is jobb egy jó...","1","kadérnél","[""kadérnál"",""kadérnél""]","kadérnál","esp trial","9","false"
"html-button-response","44","312910","0.0-11.0-1.16","null","<p>A másik játékos ezt választotta: <b>kadérnál</b>.</p><p>&#10060;</p><p>A válaszaitok <b>nem</b> egyeznek meg.</p>","null","","","","feedback trial","",""
"html-button-response-esp","45","317933","0.0-11.0-0.17","4511","Ez itt egy jorzég. Elneveztem a kutyámat...","1","jorzégnek","[""jorzégnak"",""jorzégnek""]","jorzégnak","esp trial","9","false"
"html-button-response","46","321454","0.0-11.0-1.17","null","<p>A másik játékos ezt választotta: <b>jorzégnak</b>.</p><p>&#10060;</p><p>A válaszaitok <b>nem</b> egyeznek meg.</p>","null","","","","feedback trial","",""
"html-button-response-esp","47","326158","0.0-11.0-0.18","3776","Ez itt egy gicéj. Nincs is jobb egy jó...","1","gicéjnál","[""gicéjnél"",""gicéjnál""]","gicéjnél","esp trial","9","false"
"html-button-response","48","329667","0.0-11.0-1.18","null","<p>A másik játékos ezt választotta: <b>gicéjnél</b>.</p><p>&#10060;</p><p>A válaszaitok <b>nem</b> egyeznek meg.</p>","null","","","","feedback trial","",""
"html-button-response-esp","49","334374","0.0-11.0-0.19","2659","Ez itt egy sartely. Ott vagyunk a...","0","sartelyban","[""sartelyban"",""sartelyben""]","sartelyban","esp trial","9","true"
"html-button-response","50","337892","0.0-11.0-1.19","null","<p>A másik játékos ezt választotta: <b>sartelyban</b>.</p><p>&#x2705;</p><p>A te válaszod és a másik játékos válasza <b>megegyeznek</b>.</p>","null","","","","feedback trial","",""
"html-button-response-esp","51","342789","0.0-11.0-0.20","4396","Ez itt egy tránély. Elneveztem a kutyámat...","0","tránélynak","[""tránélynak"",""tránélynek""]","tránélynak","esp trial","9","true"
"html-button-response","52","346301","0.0-11.0-1.20","null","<p>A másik játékos ezt választotta: <b>tránélynak</b>.</p><p>&#x2705;</p><p>A te válaszod és a másik játékos válasza <b>megegyeznek</b>.</p>","null","","","","feedback trial","",""
"html-button-response-esp","53","351828","0.0-11.0-0.21","5022","Ez itt egy kábesz. Nincs is jobb egy jó...","0","kábesznél","[""kábesznél"",""kábesznál""]","kábesznál","esp trial","9","false"
"html-button-response","54","355342","0.0-11.0-1.21","null","<p>A másik játékos ezt választotta: <b>kábesznál</b>.</p><p>&#10060;</p><p>A válaszaitok <b>nem</b> egyeznek meg.</p>","null","","","","feedback trial","",""
"html-button-response-esp","55","360557","0.0-11.0-0.22","4712","Ez itt egy sprízem. Nincs is jobb egy jó...","0","sprízemnél","[""sprízemnél"",""sprízemnál""]","sprízemnél","esp trial","9","true"
"html-button-response","56","364075","0.0-11.0-1.22","null","<p>A másik játékos ezt választotta: <b>sprízemnél</b>.</p><p>&#x2705;</p><p>A te válaszod és a másik játékos válasza <b>megegyeznek</b>.</p>","null","","","","feedback trial","",""
"html-button-response-esp","57","369533","0.0-11.0-0.23","4955","Ez itt egy ikszert. Ott vagyunk a...","0","ikszertben","[""ikszertben"",""ikszertban""]","ikszertben","esp trial","9","true"
"html-button-response","58","373038","0.0-11.0-1.23","null","<p>A másik játékos ezt választotta: <b>ikszertben</b>.</p><p>&#x2705;</p><p>A te válaszod és a másik játékos válasza <b>megegyeznek</b>.</p>","null","","","","feedback trial","",""
"html-button-response-esp","59","377754","0.0-11.0-0.24","3672","Ez itt egy buhény. Ott vagyunk a...","0","buhényban","[""buhényban"",""buhényben""]","buhényban","esp trial","9","true"
"html-button-response","60","381259","0.0-11.0-1.24","null","<p>A másik játékos ezt választotta: <b>buhényban</b>.</p><p>&#x2705;</p><p>A te válaszod és a másik játékos válasza <b>megegyeznek</b>.</p>","null","","","","feedback trial","",""
"html-button-response-esp","61","387141","0.0-11.0-0.25","5380","Ez itt egy sporzem. Elneveztem a kutyámat...","0","sporzemnek","[""sporzemnek"",""sporzemnak""]","sporzemnak","esp trial","9","false"
"html-button-response","62","390651","0.0-11.0-1.25","null","<p>A másik játékos ezt választotta: <b>sporzemnak</b>.</p><p>&#10060;</p><p>A válaszaitok <b>nem</b> egyeznek meg.</p>","null","","","","feedback trial","",""
"html-button-response-esp","63","395369","0.0-11.0-0.26","3272","Ez itt egy csinték. Ott vagyunk a...","0","csintékban","[""csintékban"",""csintékben""]","csintékban","esp trial","9","true"
"html-button-response","64","398885","0.0-11.0-1.26","null","<p>A másik játékos ezt választotta: <b>csintékban</b>.</p><p>&#x2705;</p><p>A te válaszod és a másik játékos válasza <b>megegyeznek</b>.</p>","null","","","","feedback trial","",""
"html-button-response-esp","65","403605","0.0-11.0-0.27","2523","Ez itt egy nidét. Ott vagyunk a...","1","nidétben","[""nidétban"",""nidétben""]","nidétben","esp trial","9","true"
"html-button-response","66","407115","0.0-11.0-1.27","null","<p>A másik játékos ezt választotta: <b>nidétben</b>.</p><p>&#x2705;</p><p>A te válaszod és a másik játékos válasza <b>megegyeznek</b>.</p>","null","","","","feedback trial","",""
"html-button-response-esp","67","411819","0.0-11.0-0.28","3371","Ez itt egy fádens. Elneveztem a kutyámat...","1","fádensnek","[""fádensnak"",""fádensnek""]","fádensnak","esp trial","9","false"
"html-button-response","68","415326","0.0-11.0-1.28","null","<p>A másik játékos ezt választotta: <b>fádensnak</b>.</p><p>&#10060;</p><p>A válaszaitok <b>nem</b> egyeznek meg.</p>","null","","","","feedback trial","",""
"html-button-response-esp","69","420056","0.0-11.0-0.29","2995","Ez itt egy brotes. Ott vagyunk a...","0","brotesban","[""brotesban"",""brotesben""]","brotesban","esp trial","9","true"
"html-button-response","70","423592","0.0-11.0-1.29","null","<p>A másik játékos ezt választotta: <b>brotesban</b>.</p><p>&#x2705;</p><p>A te válaszod és a másik játékos válasza <b>megegyeznek</b>.</p>","null","","","","feedback trial","",""
"html-button-response-esp","71","429957","0.0-11.0-0.30","5858","Ez itt egy forzéd. Elneveztem a kutyámat...","1","forzédnek","[""forzédnak"",""forzédnek""]","forzédnak","esp trial","9","false"
"html-button-response","72","433460","0.0-11.0-1.30","null","<p>A másik játékos ezt választotta: <b>forzédnak</b>.</p><p>&#10060;</p><p>A válaszaitok <b>nem</b> egyeznek meg.</p>","null","","","","feedback trial","",""
"html-button-response-esp","73","438172","0.0-11.0-0.31","4035","Ez itt egy nyarcéj. Elneveztem a kutyámat...","1","nyarcéjnek","[""nyarcéjnak"",""nyarcéjnek""]","nyarcéjnak","esp trial","9","false"
"html-button-response","74","441688","0.0-11.0-1.31","null","<p>A másik játékos ezt választotta: <b>nyarcéjnak</b>.</p><p>&#10060;</p><p>A válaszaitok <b>nem</b> egyeznek meg.</p>","null","","","","feedback trial","",""
"html-button-response-esp","75","446509","0.0-11.0-0.32","4319","Ez itt egy szutend. Ott vagyunk a...","1","szutendben","[""szutendban"",""szutendben""]","szutendban","esp trial","9","false"
"html-button-response","76","450028","0.0-11.0-1.32","null","<p>A másik játékos ezt választotta: <b>szutendban</b>.</p><p>&#10060;</p><p>A válaszaitok <b>nem</b> egyeznek meg.</p>","null","","","","feedback trial","",""
"html-button-response-esp","77","455245","0.0-11.0-0.33","4701","Ez itt egy trapszegy. Nincs is jobb egy jó...","0","trapszegynél","[""trapszegynél"",""trapszegynál""]","trapszegynál","esp trial","9","false"
"html-button-response","78","458749","0.0-11.0-1.33","null","<p>A másik játékos ezt választotta: <b>trapszegynál</b>.</p><p>&#10060;</p><p>A válaszaitok <b>nem</b> egyeznek meg.</p>","null","","","","feedback trial","",""
"html-button-response-esp","79","464493","0.0-11.0-0.34","5241","Ez itt egy priszkenc. Elneveztem a kutyámat...","1","priszkencnek","[""priszkencnak"",""priszkencnek""]","priszkencnek","esp trial","9","true"
"html-button-response","80","468007","0.0-11.0-1.34","null","<p>A másik játékos ezt választotta: <b>priszkencnek</b>.</p><p>&#x2705;</p><p>A te válaszod és a másik játékos válasza <b>megegyeznek</b>.</p>","null","","","","feedback trial","",""
"html-button-response-esp","81","472728","0.0-11.0-0.35","4151","Ez itt egy vodép. Elneveztem a kutyámat...","0","vodépnak","[""vodépnak"",""vodépnek""]","vodépnak","esp trial","9","true"
"html-button-response","82","476263","0.0-11.0-1.35","null","<p>A másik játékos ezt választotta: <b>vodépnak</b>.</p><p>&#x2705;</p><p>A te válaszod és a másik játékos válasza <b>megegyeznek</b>.</p>","null","","","","feedback trial","",""
"html-button-response-esp","83","480978","0.0-11.0-0.36","3768","Ez itt egy jábéz. Ott vagyunk a...","1","jábézban","[""jábézben"",""jábézban""]","jábézban","esp trial","9","true"
"html-button-response","84","484495","0.0-11.0-1.36","null","<p>A másik játékos ezt választotta: <b>jábézban</b>.</p><p>&#x2705;</p><p>A te válaszod és a másik játékos válasza <b>megegyeznek</b>.</p>","null","","","","feedback trial","",""
"html-button-response-esp","85","489217","0.0-11.0-0.37","3463","Ez itt egy brigeszt. Elneveztem a kutyámat...","0","brigesztnek","[""brigesztnek"",""brigesztnak""]","brigesztnek","esp trial","9","true"
"html-button-response","86","492734","0.0-11.0-1.37","null","<p>A másik játékos ezt választotta: <b>brigesztnek</b>.</p><p>&#x2705;</p><p>A te válaszod és a másik játékos válasza <b>megegyeznek</b>.</p>","null","","","","feedback trial","",""
"html-button-response-esp","87","497789","0.0-11.0-0.38","4539","Ez itt egy gótem. Elneveztem a kutyámat...","0","gótemnek","[""gótemnek"",""gótemnak""]","gótemnak","esp trial","9","false"
"html-button-response","88","501300","0.0-11.0-1.38","null","<p>A másik játékos ezt választotta: <b>gótemnak</b>.</p><p>&#10060;</p><p>A válaszaitok <b>nem</b> egyeznek meg.</p>","null","","","","feedback trial","",""
"html-button-response-esp","89","506349","0.0-11.0-0.39","4547","Ez itt egy szihét. Elneveztem a kutyámat...","0","szihétnek","[""szihétnek"",""szihétnak""]","szihétnek","esp trial","9","true"
"html-button-response","90","509873","0.0-11.0-1.39","null","<p>A másik játékos ezt választotta: <b>szihétnek</b>.</p><p>&#x2705;</p><p>A te válaszod és a másik játékos válasza <b>megegyeznek</b>.</p>","null","","","","feedback trial","",""
"html-button-response-esp","91","514933","0.0-11.0-0.40","4559","Ez itt egy kliszer. Nincs is jobb egy jó...","0","kliszernél","[""kliszernél"",""kliszernál""]","kliszernél","esp trial","9","true"
"html-button-response","92","518447","0.0-11.0-1.40","null","<p>A másik játékos ezt választotta: <b>kliszernél</b>.</p><p>&#x2705;</p><p>A te válaszod és a másik játékos válasza <b>megegyeznek</b>.</p>","null","","","","feedback trial","",""
"html-button-response-esp","93","523165","0.0-11.0-0.41","3477","Ez itt egy matéz. Ott vagyunk a...","1","matézben","[""matézban"",""matézben""]","matézban","esp trial","9","false"
"html-button-response","94","526691","0.0-11.0-1.41","null","<p>A másik játékos ezt választotta: <b>matézban</b>.</p><p>&#10060;</p><p>A válaszaitok <b>nem</b> egyeznek meg.</p>","null","","","","feedback trial","",""
"html-button-response-esp","95","531408","0.0-11.0-0.42","3016","Ez itt egy navec. Ott vagyunk a...","1","navecban","[""navecben"",""navecban""]","navecban","esp trial","9","true"
"html-button-response","96","534926","0.0-11.0-1.42","null","<p>A másik játékos ezt választotta: <b>navecban</b>.</p><p>&#x2705;</p><p>A te válaszod és a másik játékos válasza <b>megegyeznek</b>.</p>","null","","","","feedback trial","",""
"html-button-response-esp","97","540086","0.0-11.0-0.43","4654","Ez itt egy csimen. Nincs is jobb egy jó...","1","csimennél","[""csimennál"",""csimennél""]","csimennél","esp trial","9","true"
"html-button-response","98","543589","0.0-11.0-1.43","null","<p>A másik játékos ezt választotta: <b>csimennél</b>.</p><p>&#x2705;</p><p>A te válaszod és a másik játékos válasza <b>megegyeznek</b>.</p>","null","","","","feedback trial","",""
"html-button-response-esp","99","549117","0.0-11.0-0.44","5024","Ez itt egy lismév. Ott vagyunk a...","0","lismévben","[""lismévben"",""lismévban""]","lismévban","esp trial","9","false"
"html-button-response","100","552632","0.0-11.0-1.44","null","<p>A másik játékos ezt választotta: <b>lismévban</b>.</p><p>&#10060;</p><p>A válaszaitok <b>nem</b> egyeznek meg.</p>","null","","","","feedback trial","",""
"html-button-response-esp","101","557352","0.0-11.0-0.45","4076","Ez itt egy spáten. Elneveztem a kutyámat...","0","spátennek","[""spátennek"",""spátennak""]","spátennak","esp trial","9","false"
"html-button-response","102","560878","0.0-11.0-1.45","null","<p>A másik játékos ezt választotta: <b>spátennak</b>.</p><p>&#10060;</p><p>A válaszaitok <b>nem</b> egyeznek meg.</p>","null","","","","feedback trial","",""
"html-button-response-esp","103","565599","0.0-11.0-0.46","4059","Ez itt egy ronvet. Elneveztem a kutyámat...","1","ronvetnek","[""ronvetnak"",""ronvetnek""]","ronvetnak","esp trial","9","false"
"html-button-response","104","569123","0.0-11.0-1.46","null","<p>A másik játékos ezt választotta: <b>ronvetnak</b>.</p><p>&#10060;</p><p>A válaszaitok <b>nem</b> egyeznek meg.</p>","null","","","","feedback trial","",""
"html-button-response-esp","105","573833","0.0-11.0-0.47","3435","Ez itt egy giheszt. Elneveztem a kutyámat...","1","gihesztnek","[""gihesztnak"",""gihesztnek""]","gihesztnek","esp trial","9","true"
"html-button-response","106","577355","0.0-11.0-1.47","null","<p>A másik játékos ezt választotta: <b>gihesztnek</b>.</p><p>&#x2705;</p><p>A te válaszod és a másik játékos válasza <b>megegyeznek</b>.</p>","null","","","","feedback trial","",""
"html-button-response-esp","107","582533","0.0-11.0-0.48","4666","Ez itt egy vublet. Nincs is jobb egy jó...","0","vubletnál","[""vubletnál"",""vubletnél""]","vubletnál","esp trial","9","true"
"html-button-response","108","586064","0.0-11.0-1.48","null","<p>A másik játékos ezt választotta: <b>vubletnál</b>.</p><p>&#x2705;</p><p>A te válaszod és a másik játékos válasza <b>megegyeznek</b>.</p>","null","","","","feedback trial","",""
"html-button-response-esp","109","590778","0.0-11.0-0.49","4150","Ez itt egy gonszék. Nincs is jobb egy jó...","1","gonszéknál","[""gonszéknél"",""gonszéknál""]","gonszéknál","esp trial","9","true"
"html-button-response","110","594313","0.0-11.0-1.49","null","<p>A másik játékos ezt választotta: <b>gonszéknál</b>.</p><p>&#x2705;</p><p>A te válaszod és a másik játékos válasza <b>megegyeznek</b>.</p>","null","","","","feedback trial","",""
"html-button-response-esp","111","599861","0.0-11.0-0.50","5045","Ez itt egy csartény. Elneveztem a kutyámat...","1","csarténynak","[""csarténynek"",""csarténynak""]","csarténynak","esp trial","9","true"
"html-button-response","112","603388","0.0-11.0-1.50","null","<p>A másik játékos ezt választotta: <b>csarténynak</b>.</p><p>&#x2705;</p><p>A te válaszod és a másik játékos válasza <b>megegyeznek</b>.</p>","null","","","","feedback trial","",""
"html-button-response-esp","113","608661","0.0-11.0-0.51","4770","Ez itt egy bidem. Ott vagyunk a...","0","bidemben","[""bidemben"",""bidemban""]","bidemben","esp trial","9","true"
"html-button-response","114","612188","0.0-11.0-1.51","null","<p>A másik játékos ezt választotta: <b>bidemben</b>.</p><p>&#x2705;</p><p>A te válaszod és a másik játékos válasza <b>megegyeznek</b>.</p>","null","","","","feedback trial","",""
"html-button-response-esp","115","616940","0.0-11.0-0.52","4239","Ez itt egy prately. Elneveztem a kutyámat...","0","pratelynak","[""pratelynak"",""pratelynek""]","pratelynak","esp trial","9","true"
"html-button-response","116","620469","0.0-11.0-1.52","null","<p>A másik játékos ezt választotta: <b>pratelynak</b>.</p><p>&#x2705;</p><p>A te válaszod és a másik játékos válasza <b>megegyeznek</b>.</p>","null","","","","feedback trial","",""
"html-button-response-esp","117","625589","0.0-11.0-0.53","4606","Ez itt egy trincseg. Ott vagyunk a...","0","trincsegben","[""trincsegben"",""trincsegban""]","trincsegben","esp trial","9","true"
"html-button-response","118","629116","0.0-11.0-1.53","null","<p>A másik játékos ezt választotta: <b>trincsegben</b>.</p><p>&#x2705;</p><p>A te válaszod és a másik játékos válasza <b>megegyeznek</b>.</p>","null","","","","feedback trial","",""
"html-button-response","119","639133","0.0-12.0","9515","<p>A közös játék most véget ért.</p><p>Mielőtt eláruljuk a végső pontszámodat, arra kérlek, játszd a szóválasztós játékot néhány percig egyedül is.</p><p>A feladatod ugyanaz lesz, választani két lehetőség közül.</p><p>Most viszont egyedül kell döntened, hogy te melyiket választanád.</p>","0","","","","","",""
"html-button-response-clever","120","645733","0.0-13.0-0.0","6095","Ez itt egy priszec. Ott vagyunk a...","0","priszecben","[""priszecben"",""priszecban""]","","posttest trial","1",""
"html-button-response-clever","121","651933","0.0-13.0-0.1","5690","Ez itt egy braszenc. Nincs is jobb egy jó...","1","braszencnál","[""braszencnél"",""braszencnál""]","","posttest trial","1",""
"html-button-response-clever","122","658821","0.0-13.0-0.2","6360","Ez itt egy bralkép. Ott vagyunk a...","0","bralképben","[""bralképben"",""bralképban""]","","posttest trial","1",""
"html-button-response-clever","123","664956","0.0-13.0-0.3","5633","Ez itt egy vorszen. Nincs is jobb egy jó...","1","vorszennél","[""vorszennál"",""vorszennél""]","","posttest trial","1",""
"html-button-response-clever","124","669309","0.0-13.0-0.4","3832","Ez itt egy jukél. Nincs is jobb egy jó...","1","jukélnál","[""jukélnél"",""jukélnál""]","","posttest trial","1",""
"html-button-response-clever","125","676045","0.0-13.0-0.5","6218","Ez itt egy danét. Nincs is jobb egy jó...","1","danétnél","[""danétnál"",""danétnél""]","","posttest trial","1",""
"html-button-response-clever","126","681741","0.0-13.0-0.6","5187","Ez itt egy zsúdel. Elneveztem a kutyámat...","1","zsúdelnek","[""zsúdelnak"",""zsúdelnek""]","","posttest trial","1",""
"html-button-response-clever","127","687645","0.0-13.0-0.7","5399","Ez itt egy monveg. Nincs is jobb egy jó...","0","monvegnél","[""monvegnél"",""monvegnál""]","","posttest trial","1",""
"html-button-response-clever","128","692501","0.0-13.0-0.8","4352","Ez itt egy rapszek. Nincs is jobb egy jó...","1","rapszeknál","[""rapszeknél"",""rapszeknál""]","","posttest trial","1",""
"html-button-response-clever","129","698509","0.0-13.0-0.9","5506","Ez itt egy dorzéj. Elneveztem a kutyámat...","1","dorzéjnak","[""dorzéjnek"",""dorzéjnak""]","","posttest trial","1",""
"html-button-response-clever","130","703093","0.0-13.0-0.10","4071","Ez itt egy bupéz. Ott vagyunk a...","0","bupézban","[""bupézban"",""bupézben""]","","posttest trial","1",""
"html-button-response-clever","131","708740","0.0-13.0-0.11","5131","Ez itt egy kalréz. Ott vagyunk a...","1","kalrézban","[""kalrézben"",""kalrézban""]","","posttest trial","1",""
"html-button-response-clever","132","714573","0.0-13.0-0.12","5320","Ez itt egy incéj. Elneveztem a kutyámat...","0","incéjnak","[""incéjnak"",""incéjnek""]","","posttest trial","1",""
"html-button-response-clever","133","720157","0.0-13.0-0.13","5074","Ez itt egy pítend. Ott vagyunk a...","1","pítendben","[""pítendban"",""pítendben""]","","posttest trial","1",""
"html-button-response-clever","134","724701","0.0-13.0-0.14","4035","Ez itt egy pisély. Ott vagyunk a...","0","pisélyben","[""pisélyben"",""pisélyban""]","","posttest trial","1",""
"html-button-response-clever","135","729373","0.0-13.0-0.15","4165","Ez itt egy spanél. Nincs is jobb egy jó...","0","spanélnél","[""spanélnél"",""spanélnál""]","","posttest trial","1",""
"html-button-response-clever","136","735357","0.0-13.0-0.16","5468","Ez itt egy narem. Ott vagyunk a...","1","naremben","[""naremban"",""naremben""]","","posttest trial","1",""
"html-button-response-clever","137","740501","0.0-13.0-0.17","4627","Ez itt egy luméz. Ott vagyunk a...","1","lumézban","[""lumézben"",""lumézban""]","","posttest trial","1",""
"html-button-response-clever","138","747909","0.0-13.0-0.18","6897","Ez itt egy lorzens. Nincs is jobb egy jó...","0","lorzensnél","[""lorzensnél"",""lorzensnál""]","","posttest trial","1",""
"html-button-response-clever","139","754397","0.0-13.0-0.19","5981","Ez itt egy spumény. Elneveztem a kutyámat...","0","spuménynek","[""spuménynek"",""spuménynak""]","","posttest trial","1",""
"html-button-response-clever","140","761253","0.0-13.0-0.20","6344","Ez itt egy trismél. Elneveztem a kutyámat...","1","trismélnek","[""trismélnak"",""trismélnek""]","","posttest trial","1",""
"html-button-response-clever","141","767853","0.0-13.0-0.21","6096","Ez itt egy nyítem. Ott vagyunk a...","1","nyítemben","[""nyítemban"",""nyítemben""]","","posttest trial","1",""
"html-button-response-clever","142","773765","0.0-13.0-0.22","5398","Ez itt egy ronszek. Ott vagyunk a...","1","ronszekben","[""ronszekban"",""ronszekben""]","","posttest trial","1",""
"html-button-response-clever","143","779645","0.0-13.0-0.23","5374","Ez itt egy tosély. Ott vagyunk a...","0","tosélyben","[""tosélyben"",""tosélyban""]","","posttest trial","1",""
"html-button-response-clever","144","783973","0.0-13.0-0.24","3816","Ez itt egy klosét. Elneveztem a kutyámat...","0","klosétnak","[""klosétnak"",""klosétnek""]","","posttest trial","1",""
"html-button-response-clever","145","787917","0.0-13.0-0.25","3431","Ez itt egy nyamet. Ott vagyunk a...","0","nyametben","[""nyametben"",""nyametban""]","","posttest trial","1",""
"html-button-response-clever","146","792620","0.0-13.0-0.26","4186","Ez itt egy kátel. Elneveztem a kutyámat...","0","kátelnek","[""kátelnek"",""kátelnak""]","","posttest trial","1",""
"html-button-response-clever","147","797044","0.0-13.0-0.27","3922","Ez itt egy dihely. Elneveztem a kutyámat...","0","dihelynek","[""dihelynek"",""dihelynak""]","","posttest trial","1",""
"html-button-response-clever","148","802141","0.0-13.0-0.28","4586","Ez itt egy dábegy. Ott vagyunk a...","1","dábegyben","[""dábegyban"",""dábegyben""]","","posttest trial","1",""
"html-button-response-clever","149","807893","0.0-13.0-0.29","5247","Ez itt egy darhén. Ott vagyunk a...","1","darhénban","[""darhénben"",""darhénban""]","","posttest trial","1",""
"html-button-response-clever","150","814796","0.0-13.0-0.30","6384","Ez itt egy zihenc. Elneveztem a kutyámat...","0","zihencnek","[""zihencnek"",""zihencnak""]","","posttest trial","1",""
"html-button-response-clever","151","817300","0.0-13.0-0.31","1987","Ez itt egy pivéd. Ott vagyunk a...","0","pivédben","[""pivédben"",""pivédban""]","","posttest trial","1",""
"html-button-response-clever","152","827444","0.0-13.0-0.32","9640","Ez itt egy zsádév. Elneveztem a kutyámat...","1","zsádévnak","[""zsádévnek"",""zsádévnak""]","","posttest trial","1",""
"html-button-response-clever","153","830901","0.0-13.0-0.33","2939","Ez itt egy kaszép. Elneveztem a kutyámat...","0","kaszépnek","[""kaszépnek"",""kaszépnak""]","","posttest trial","1",""
"html-button-response-clever","154","834028","0.0-13.0-0.34","2626","Ez itt egy sortem. Nincs is jobb egy jó...","1","sortemnél","[""sortemnál"",""sortemnél""]","","posttest trial","1",""
"html-button-response-clever","155","836956","0.0-13.0-0.35","2425","Ez itt egy brindez. Elneveztem a kutyámat...","0","brindeznek","[""brindeznek"",""brindeznak""]","","posttest trial","1",""
"html-button-response-clever","156","841325","0.0-13.0-0.36","3863","Ez itt egy spicet. Elneveztem a kutyámat...","0","spicetnek","[""spicetnek"",""spicetnak""]","","posttest trial","1",""
"html-button-response-clever","157","844956","0.0-13.0-0.37","3110","Ez itt egy klingesz. Ott vagyunk a...","0","klingeszben","[""klingeszben"",""klingeszban""]","","posttest trial","1",""
"html-button-response-clever","158","848773","0.0-13.0-0.38","3314","Ez itt egy zsáder. Ott vagyunk a...","0","zsáderben","[""zsáderben"",""zsáderban""]","","posttest trial","1",""
"html-button-response-clever","159","852853","0.0-13.0-0.39","3578","Ez itt egy spábét. Ott vagyunk a...","1","spábétban","[""spábétben"",""spábétban""]","","posttest trial","1",""
"html-button-response-clever","160","857805","0.0-13.0-0.40","4445","Ez itt egy hágyét. Elneveztem a kutyámat...","0","hágyétnak","[""hágyétnak"",""hágyétnek""]","","posttest trial","1",""
"html-button-response-clever","161","863805","0.0-13.0-0.41","5498","Ez itt egy sprivenc. Nincs is jobb egy jó...","1","sprivencnél","[""sprivencnál"",""sprivencnél""]","","posttest trial","1",""
"html-button-response-clever","162","867340","0.0-13.0-0.42","3022","Ez itt egy garcép. Nincs is jobb egy jó...","1","garcépnál","[""garcépnél"",""garcépnál""]","","posttest trial","1",""
"html-button-response-clever","163","870221","0.0-13.0-0.43","2375","Ez itt egy jóbec. Elneveztem a kutyámat...","0","jóbecnek","[""jóbecnek"",""jóbecnak""]","","posttest trial","1",""
"html-button-response-clever","164","872229","0.0-13.0-0.44","1494","Ez itt egy zsigén. Nincs is jobb egy jó...","1","zsigénnél","[""zsigénnál"",""zsigénnél""]","","posttest trial","1",""
"html-button-response-clever","165","874173","0.0-13.0-0.45","1429","Ez itt egy gúden. Ott vagyunk a...","1","gúdenben","[""gúdenban"",""gúdenben""]","","posttest trial","1",""
"html-button-response-clever","166","875917","0.0-13.0-0.46","1232","Ez itt egy nyupér. Nincs is jobb egy jó...","0","nyupérnál","[""nyupérnál"",""nyupérnél""]","","posttest trial","1",""
"html-button-response-clever","167","878349","0.0-13.0-0.47","1921","Ez itt egy trájeg. Ott vagyunk a...","0","trájegben","[""trájegben"",""trájegban""]","","posttest trial","1",""
"html-button-response-clever","168","880669","0.0-13.0-0.48","1797","Ez itt egy zopély. Nincs is jobb egy jó...","1","zopélynál","[""zopélynél"",""zopélynál""]","","posttest trial","1",""
"html-button-response-clever","169","884941","0.0-13.0-0.49","3758","Ez itt egy kalhész. Elneveztem a kutyámat...","0","kalhésznek","[""kalhésznek"",""kalhésznak""]","","posttest trial","1",""
"html-button-response-clever","170","890677","0.0-13.0-0.50","5219","Ez itt egy pijél. Nincs is jobb egy jó...","1","pijélnél","[""pijélnál"",""pijélnél""]","","posttest trial","1",""
"html-button-response-clever","171","895373","0.0-13.0-0.51","4192","Ez itt egy dalenc. Nincs is jobb egy jó...","0","dalencnél","[""dalencnél"",""dalencnál""]","","posttest trial","1",""
"html-button-response-clever","172","901405","0.0-13.0-0.52","5524","Ez itt egy fájéz. Ott vagyunk a...","0","fájézben","[""fájézben"",""fájézban""]","","posttest trial","1",""
"html-button-response-clever","173","904468","0.0-13.0-0.53","2549","Ez itt egy ítens. Ott vagyunk a...","1","ítensben","[""ítensban"",""ítensben""]","","posttest trial","1",""
"html-button-response","174","911629","0.0-14.0","6646","<p> Vége a játéknak. A teljes pontszámod 32/54.</p><p> Szép munka! &#128526;&#128526;&#128526;</p><p>A Befejezés gomb megnyomása után bezárhatod a böngészőablakot.</p>","0","","","","","",""
"html-keyboard-response","175","917147","0.0-15.0","null","<div class=""message"">
         <p>Egy kis türelmet kérünk, amíg elmentjük az adatokat...</p>
         </div>","null","","","","","",""
