"trial_type","trial_index","time_elapsed","internal_node_id","rt","stimulus","response","response_string","choices","esp_response","trial_kind","list_number","esp_match"
"pavlovia","0","797","0.0-0.0","","","","","","","","",""
"html-button-response","1","19768","0.0-1.0","18444","<p>Kedves Résztvevő! A Budapesti Műszaki és Gazdaságtudományi Egyetem Kognitív Tudományi Tanszékének kutatásában való részvételed kérjük. A kutatásban azt vizsgáljuk, hogy a magyar anyanyelvűek hogyan használnak bizonyos szóalakokat, és hogy milyen képük van arról, hogy mások hogyan használják, hogyan képzik a szavakat. Ez hozzásegít bennünket ahhoz, hogy jobban megértsük, hogyan dolgozza fel és tárolja a nyelvet az emberi agy, és hogyan működnek, hogyan változnak egy adott közösség nyelvi konvenciói.</p><p>A vizsgálat egy rövid számítógépes feladatból fog állni. A kutatásban való részvétel önkéntes, a részvételi szándék bármikor visszavonható. A résztvevők eredményeit név nélkül kezeljük, így nem beazonosíthatók az adatok feldolgozása során. Minden személyes adatot az EU általános adatvédelmi rendeletének (GDPR) megfelelően kezelünk és legfeljebb öt éven belül megsemmisítünk. A vizsgálat jellemzően húsz percet vesz igénybe.</p><p>Kutatásvezető:</p><p>Dr. Rácz Péter, tudományos munkatárs, BME KTT</p><p>e-mail: racz.peter.marton@ttk.bme.hu</p>","0","","","","","",""
"html-button-response","2","57241","0.0-2.0","36967","<p>A kísérletben szavakat fogsz látni. Ezek között lesznek olyanok, amelyeket ismersz, de előfordulhatnak olyanok is, amelyeket nem ismersz, sőt, vannak köztük kitalált szavak is. Minden szónál látni fogsz toldalékolt alakokat. A te feladatod az lesz, hogy minden szóhoz kiválaszd azt a toldalékolt alakot, amely a te számodra ismerősebben, természetesebben hangzik. Rossz válaszok nincsenek, mert van olyan, hogy különböző embereknek más és más szó tűnik jobb választásnak. A választ úgy tudod majd kiválasztani, ha rákattintasz.</p><p>Ebben a szóválasztós játékban egy másik játékossal együtt veszel majd részt. A másik játékos is minden esetben azok közül a lehetőségek közül válogathat, mint te. Kettőtök feladata az, hogy ugyanazt a lehetőséget válasszátok minden esetben. Ahhoz, hogy ez sikerüljön, neked figyelned kell arra, hogy a másik játékos milyen válaszokat ad, és ennek alapján meg kell tippelned, hogyan választ legközelebb. Ha eltalálod, akkor pontot kapsz.</p>","0","","","","","",""
"html-button-response","3","66640","0.0-3.0","8880","<p>Kérjük, olvasd el az alábbi nyilatkozatot, és amennyiben egyetértesz vele, nyomj a Beleegyezés gombra!</p><p>Kijelentem, hogy magyar anyanyelvű személyként önként veszek részt a BME KTT kísérletében. A kutatás céljával és folyamatával kapcsolatban elegendő tájékoztatást kaptam, lehetőségem volt kérdések feltételére, és esetleges kérdéseimre megfelelő válaszokat kaptam. A tájékoztatás alapján elegendő mennyiségű információ áll a rendelkezésemre, hogy eldönthessem, részt kívánok-e venni a kutatásban.</p><p>Tisztában vagyok vele, hogy részvételi szándékomat és adataimat bármikor, indoklás nélkül visszavonhatom.</p><p>Értem és tudomásul veszem, hogy a kutatás tudományos célokat szolgál, és az általam szolgáltatott adatokat a BME kizárólag kutatási célból használja fel. Tudomásul veszem, hogy eredményeimet a többi résztvevő eredményeivel együtt kezelik, így egyéni teljesítményemről visszajelzést, szakvéleményt nem kapok.</p><p>Megértettem, hogy adataim kezelését illetően a BME az EU általános adatvédelmi rendelete (GDPR), a hatályos adatvédelmi törvény és a nemzetközi kutatás-etikai alapelvek szerint jár el. Eredményeim anonim módon kerülnek feldolgozásra, és a kutatás résztvevői az azonosításomra alkalmas adataimat harmadik félnek nem szolgáltatják ki. Engedélyezem a BME számára a jelen kutatásban felvett adataim feldolgozását és tárolását, beleértve azok későbbi kutatásokhoz való felhasználását is. Személyes adataim kezelésével kapcsolatban tájékoztatást kérhetek a kutatás résztvevőitől, az adatkezelés ellen tiltakozhatok, kérhetem személyes adataim helyesbítését, törlését vagy zárolását, valamint jogorvoslatért a Nemzeti Adatvédelmi és Információszabadság Hatósághoz fordulhatok.</p><p>Kijelentem, hogy a kutatásban való részvételem körülményeiről részletes tájékoztatást kaptam, és a feltételeket elfogadom.</p>","0","","","","","",""
"survey-text","4","91882","0.0-4.0","24719","","{""Q0"":""X3V7FC"",""Q1"":"""",""Q2"":""2000"",""Q3"":""16""}","","","","","",""
"html-button-response","5","116105","0.0-5.0","23704","<p>Ebben a játékban szavakat kell toldalékolni.</p> <p>Minden körben mutatunk majd egy példamondatot, amiben lesz egy szó.</p> <p>Alatta jön egy második mondat, ezt a mondatot neked kell majd befejezni, ugyanezzel a szóval.</p> <p>Nem biztos, hogy a szó eleve ismerős lesz számodra!</p> <p>Minden mondathoz adunk két lehetőséget, ezeket balra és jobbra látod majd.</p> <p>A játék kb. negyedóráig-húsz percig tart.</p>","0","","","","","",""
"html-button-response","6","148401","0.0-6.0","31792","<p>Nézzünk egy példát!</p> <p>A példamondat: ""János nagyon szeret rancsúrozni.""</p><p>Neked ezt a mondatot kell befejezned: ""Én is szívesen...""</p><p>A lehetőségek pedig ezek:</p>","1","","","","","",""
"html-button-response","7","153130","0.0-7.0","4208","<p>Nagyon jó.</p><p>Ezt a játékot nem egyedül fogod játszani, hanem egy másik játékossal.</p><p>Mielőtt továbblépünk, összekapcsolunk titeket egymással.</p><p>Ez igénybe vehet néhány másodpercet, amihez szíves türelmed kérjük.</p>","0","","","","","",""
"html-button-response","8","158871","0.0-8.0","null","<p>Csatlakozás a másik játékoshoz...</p>","null","","","","","",""
"html-button-response","9","161406","0.0-9.0","null","<p> Sikeres kapcsolódás!</p>","null","","","","","",""
"html-button-response","10","171929","0.0-10.0","null","<p>A következőkben ketten játsszátok a szóválasztós játékot.</p><p>A feladatotok az lesz, hogy minden körben <b>ugyanazt</b> a szót válasszátok.</p><p>Minden ilyen egyező válaszért pontot kaptok.</p><p>Próbáld meg kitalálni, mit választ a másik játékos!</p><p>Bármikor választhatsz, a körnek akkor van vége, ha mindketten döntöttetek.</p><p>Sok sikert!</p>","null","","","","","",""
"html-button-response-esp","11","178472","0.0-11.0-0.0","6035","Te bizony sokat spélszel. Én is sokat...","0","spélszek","[""spélszek"",""spélszem""]","spélszek","esp trial","9","true"
"html-button-response","12","181985","0.0-11.0-1.0","null","<p>A másik játékos ezt választotta: <b>spélszek</b>.</p><p>&#x2705;</p><p>A te válaszod és a másik játékos válasza <b>megegyeznek</b>.</p>","null","","","","feedback trial","",""
"html-button-response-esp","13","193554","0.0-11.0-0.1","11060","Te bizony sokat spülőrzöl. Én is sokat...","0","spülőrzök","[""spülőrzök"",""spülőrzöm""]","spülőrzök","esp trial","9","true"
"html-button-response","14","197078","0.0-11.0-1.1","null","<p>A másik játékos ezt választotta: <b>spülőrzök</b>.</p><p>&#x2705;</p><p>A te válaszod és a másik játékos válasza <b>megegyeznek</b>.</p>","null","","","","feedback trial","",""
"html-button-response-esp","15","204315","0.0-11.0-0.2","6717","Te bizony sokat frivajlasz. Én is sokat...","0","frivajlok","[""frivajlok"",""frivajlom""]","frivajlok","esp trial","9","true"
"html-button-response","16","207831","0.0-11.0-1.2","null","<p>A másik játékos ezt választotta: <b>frivajlok</b>.</p><p>&#x2705;</p><p>A te válaszod és a másik játékos válasza <b>megegyeznek</b>.</p>","null","","","","feedback trial","",""
"html-button-response-esp","17","215601","0.0-11.0-0.3","7250","Te bizony sokat péleslesz. Én is sokat...","0","péleslek","[""péleslek"",""péleslem""]","péleslek","esp trial","9","true"
"html-button-response","18","219123","0.0-11.0-1.3","null","<p>A másik játékos ezt választotta: <b>péleslek</b>.</p><p>&#x2705;</p><p>A te válaszod és a másik játékos válasza <b>megegyeznek</b>.</p>","null","","","","feedback trial","",""
"html-button-response-esp","19","224819","0.0-11.0-0.4","5177","Te bizony sokat klidlasz. Én is sokat...","0","klidlok","[""klidlok"",""klidlom""]","klidlok","esp trial","9","true"
"html-button-response","20","228334","0.0-11.0-1.4","null","<p>A másik játékos ezt választotta: <b>klidlok</b>.</p><p>&#x2705;</p><p>A te válaszod és a másik játékos válasza <b>megegyeznek</b>.</p>","null","","","","feedback trial","",""
"html-button-response-esp","21","236827","0.0-11.0-0.5","7971","Te bizony sokat spüszlesz. Én is sokat...","0","spüszlök","[""spüszlök"",""spüszlöm""]","spüszlök","esp trial","9","true"
"html-button-response","22","240350","0.0-11.0-1.5","null","<p>A másik játékos ezt választotta: <b>spüszlök</b>.</p><p>&#x2705;</p><p>A te válaszod és a másik játékos válasza <b>megegyeznek</b>.</p>","null","","","","feedback trial","",""
"html-button-response-esp","23","254770","0.0-11.0-0.6","13900","Te bizony sokat spatszol. Én is sokat...","1","spatszom","[""spatszok"",""spatszom""]","spatszom","esp trial","9","true"
"html-button-response","24","258289","0.0-11.0-1.6","null","<p>A másik játékos ezt választotta: <b>spatszom</b>.</p><p>&#x2705;</p><p>A te válaszod és a másik játékos válasza <b>megegyeznek</b>.</p>","null","","","","feedback trial","",""
"html-button-response-esp","25","271858","0.0-11.0-0.7","13056","Te bizony sokat vihepszel. Én is sokat...","0","vihepszem","[""vihepszem"",""vihepszek""]","vihepszem","esp trial","9","true"
"html-button-response","26","275393","0.0-11.0-1.7","null","<p>A másik játékos ezt választotta: <b>vihepszem</b>.</p><p>&#x2705;</p><p>A te válaszod és a másik játékos válasza <b>megegyeznek</b>.</p>","null","","","","feedback trial","",""
"html-button-response-esp","27","281972","0.0-11.0-0.8","6075","Te bizony sokat bivejlesz. Én is sokat...","0","bivejlek","[""bivejlek"",""bivejlem""]","bivejlek","esp trial","9","true"
"html-button-response","28","285494","0.0-11.0-1.8","null","<p>A másik játékos ezt választotta: <b>bivejlek</b>.</p><p>&#x2705;</p><p>A te válaszod és a másik játékos válasza <b>megegyeznek</b>.</p>","null","","","","feedback trial","",""
"html-button-response-esp","29","290916","0.0-11.0-0.9","3960","Te bizony sokat spírzol. Én is sokat...","1","spírzom","[""spírzok"",""spírzom""]","spírzok","esp trial","9","false"
"html-button-response","30","294438","0.0-11.0-1.9","null","<p>A másik játékos ezt választotta: <b>spírzok</b>.</p><p>&#10060;</p><p>A válaszaitok <b>nem</b> egyeznek meg.</p>","null","","","","feedback trial","",""
"html-button-response-esp","31","302495","0.0-11.0-0.10","7537","Te bizony sokat gilárzol. Én is sokat...","1","gilárzok","[""gilárzom"",""gilárzok""]","gilárzom","esp trial","9","false"
"html-button-response","32","306014","0.0-11.0-1.10","null","<p>A másik játékos ezt választotta: <b>gilárzom</b>.</p><p>&#10060;</p><p>A válaszaitok <b>nem</b> egyeznek meg.</p>","null","","","","feedback trial","",""
"html-button-response-esp","33","314380","0.0-11.0-0.11","7844","Te bizony sokat gyibakszol. Én is sokat...","0","gyibakszom","[""gyibakszom"",""gyibakszok""]","gyibakszom","esp trial","9","true"
"html-button-response","34","317890","0.0-11.0-1.11","null","<p>A másik játékos ezt választotta: <b>gyibakszom</b>.</p><p>&#x2705;</p><p>A te válaszod és a másik játékos válasza <b>megegyeznek</b>.</p>","null","","","","feedback trial","",""
"html-button-response-esp","35","324075","0.0-11.0-0.12","5677","Te bizony sokat ibáglasz. Én is sokat...","0","ibáglok","[""ibáglok"",""ibáglom""]","ibáglok","esp trial","9","true"
"html-button-response","36","327593","0.0-11.0-1.12","null","<p>A másik játékos ezt választotta: <b>ibáglok</b>.</p><p>&#x2705;</p><p>A te válaszod és a másik játékos válasza <b>megegyeznek</b>.</p>","null","","","","feedback trial","",""
"html-button-response-esp","37","348366","0.0-11.0-0.13","20254","Te bizony sokat gyivádzol. Én is sokat...","0","gyivádzok","[""gyivádzok"",""gyivádzom""]","gyivádzom","esp trial","9","false"
"html-button-response","38","351883","0.0-11.0-1.13","null","<p>A másik játékos ezt választotta: <b>gyivádzom</b>.</p><p>&#10060;</p><p>A válaszaitok <b>nem</b> egyeznek meg.</p>","null","","","","feedback trial","",""
"html-button-response-esp","39","363563","0.0-11.0-0.14","11173","Te bizony sokat klárzol. Én is sokat...","1","klárzok","[""klárzom"",""klárzok""]","klárzok","esp trial","9","true"
"html-button-response","40","367079","0.0-11.0-1.14","null","<p>A másik játékos ezt választotta: <b>klárzok</b>.</p><p>&#x2705;</p><p>A te válaszod és a másik játékos válasza <b>megegyeznek</b>.</p>","null","","","","feedback trial","",""
"html-button-response-esp","41","373550","0.0-11.0-0.15","5952","Te bizony sokat flérlesz. Én is sokat...","0","flérlek","[""flérlek"",""flérlem""]","flérlek","esp trial","9","true"
"html-button-response","42","377081","0.0-11.0-1.15","null","<p>A másik játékos ezt választotta: <b>flérlek</b>.</p><p>&#x2705;</p><p>A te válaszod és a másik játékos válasza <b>megegyeznek</b>.</p>","null","","","","feedback trial","",""
"html-button-response-esp","43","385890","0.0-11.0-0.16","8303","Te bizony sokat prihekszel. Én is sokat...","0","prihekszem","[""prihekszem"",""prihekszek""]","prihekszek","esp trial","9","false"
"html-button-response","44","389408","0.0-11.0-1.16","null","<p>A másik játékos ezt választotta: <b>prihekszek</b>.</p><p>&#10060;</p><p>A válaszaitok <b>nem</b> egyeznek meg.</p>","null","","","","feedback trial","",""
"html-button-response-esp","45","397596","0.0-11.0-0.17","7682","Te bizony sokat sztruglasz. Én is sokat...","0","sztruglok","[""sztruglok"",""sztruglom""]","sztruglok","esp trial","9","true"
"html-button-response","46","401118","0.0-11.0-1.17","null","<p>A másik játékos ezt választotta: <b>sztruglok</b>.</p><p>&#x2705;</p><p>A te válaszod és a másik játékos válasza <b>megegyeznek</b>.</p>","null","","","","feedback trial","",""
"html-button-response-esp","47","410799","0.0-11.0-0.18","9163","Te bizony sokat spülöklesz. Én is sokat...","0","spülöklök","[""spülöklök"",""spülöklöm""]","spülöklök","esp trial","9","true"
"html-button-response","48","414323","0.0-11.0-1.18","null","<p>A másik játékos ezt választotta: <b>spülöklök</b>.</p><p>&#x2705;</p><p>A te válaszod és a másik játékos válasza <b>megegyeznek</b>.</p>","null","","","","feedback trial","",""
"html-button-response-esp","49","420530","0.0-11.0-0.19","5700","Te bizony sokat szűslesz. Én is sokat...","0","szűslök","[""szűslök"",""szűslöm""]","szűslök","esp trial","9","true"
"html-button-response","50","424059","0.0-11.0-1.19","null","<p>A másik játékos ezt választotta: <b>szűslök</b>.</p><p>&#x2705;</p><p>A te válaszod és a másik játékos válasza <b>megegyeznek</b>.</p>","null","","","","feedback trial","",""
"html-button-response-esp","51","430930","0.0-11.0-0.20","6367","Te bizony sokat flibekszel. Én is sokat...","0","flibekszem","[""flibekszem"",""flibekszek""]","flibekszem","esp trial","9","true"
"html-button-response","52","434449","0.0-11.0-1.20","null","<p>A másik játékos ezt választotta: <b>flibekszem</b>.</p><p>&#x2705;</p><p>A te válaszod és a másik játékos válasza <b>megegyeznek</b>.</p>","null","","","","feedback trial","",""
"html-button-response-esp","53","447446","0.0-11.0-0.21","12480","Te bizony sokat prezlesz. Én is sokat...","0","prezlek","[""prezlek"",""prezlem""]","prezlek","esp trial","9","true"
"html-button-response","54","450971","0.0-11.0-1.21","null","<p>A másik játékos ezt választotta: <b>prezlek</b>.</p><p>&#x2705;</p><p>A te válaszod és a másik játékos válasza <b>megegyeznek</b>.</p>","null","","","","feedback trial","",""
"html-button-response-esp","55","456381","0.0-11.0-0.22","4122","Te bizony sokat kumlasz. Én is sokat...","0","kumlok","[""kumlok"",""kumlom""]","kumlok","esp trial","9","true"
"html-button-response","56","459907","0.0-11.0-1.22","null","<p>A másik játékos ezt választotta: <b>kumlok</b>.</p><p>&#x2705;</p><p>A te válaszod és a másik játékos válasza <b>megegyeznek</b>.</p>","null","","","","feedback trial","",""
"html-button-response-esp","57","474432","0.0-11.0-0.23","14021","Te bizony sokat huklasz. Én is sokat...","1","huklok","[""huklom"",""huklok""]","huklok","esp trial","9","true"
"html-button-response","58","477965","0.0-11.0-1.23","null","<p>A másik játékos ezt választotta: <b>huklok</b>.</p><p>&#x2705;</p><p>A te válaszod és a másik játékos válasza <b>megegyeznek</b>.</p>","null","","","","feedback trial","",""
"html-button-response-esp","59","484369","0.0-11.0-0.24","5887","Te bizony sokat vűjlesz. Én is sokat...","0","vűjlök","[""vűjlök"",""vűjlöm""]","vűjlök","esp trial","9","true"
"html-button-response","60","487900","0.0-11.0-1.24","null","<p>A másik játékos ezt választotta: <b>vűjlök</b>.</p><p>&#x2705;</p><p>A te válaszod és a másik játékos válasza <b>megegyeznek</b>.</p>","null","","","","feedback trial","",""
"html-button-response-esp","61","501821","0.0-11.0-0.25","13418","Te bizony sokat brarlasz. Én is sokat...","0","brarlok","[""brarlok"",""brarlom""]","brarlok","esp trial","9","true"
"html-button-response","62","505357","0.0-11.0-1.25","null","<p>A másik játékos ezt választotta: <b>brarlok</b>.</p><p>&#x2705;</p><p>A te válaszod és a másik játékos válasza <b>megegyeznek</b>.</p>","null","","","","feedback trial","",""
"html-button-response-esp","63","512882","0.0-11.0-0.26","7003","Te bizony sokat prohódzol. Én is sokat...","0","prohódzok","[""prohódzok"",""prohódzom""]","prohódzom","esp trial","9","false"
"html-button-response","64","516408","0.0-11.0-1.26","null","<p>A másik játékos ezt választotta: <b>prohódzom</b>.</p><p>&#10060;</p><p>A válaszaitok <b>nem</b> egyeznek meg.</p>","null","","","","feedback trial","",""
"html-button-response-esp","65","521838","0.0-11.0-0.27","3657","Te bizony sokat spibádzol. Én is sokat...","0","spibádzok","[""spibádzok"",""spibádzom""]","spibádzok","esp trial","9","true"
"html-button-response","66","525366","0.0-11.0-1.27","null","<p>A másik játékos ezt választotta: <b>spibádzok</b>.</p><p>&#x2705;</p><p>A te válaszod és a másik játékos válasza <b>megegyeznek</b>.</p>","null","","","","feedback trial","",""
"html-button-response-esp","67","531314","0.0-11.0-0.28","5425","Te bizony sokat friszlasz. Én is sokat...","1","friszlok","[""friszlom"",""friszlok""]","friszlok","esp trial","9","true"
"html-button-response","68","534844","0.0-11.0-1.28","null","<p>A másik játékos ezt választotta: <b>friszlok</b>.</p><p>&#x2705;</p><p>A te válaszod és a másik játékos válasza <b>megegyeznek</b>.</p>","null","","","","feedback trial","",""
"html-button-response-esp","69","540273","0.0-11.0-0.29","4744","Te bizony sokat gerénylesz. Én is sokat...","0","gerénylek","[""gerénylek"",""gerénylem""]","gerénylek","esp trial","9","true"
"html-button-response","70","543785","0.0-11.0-1.29","null","<p>A másik játékos ezt választotta: <b>gerénylek</b>.</p><p>&#x2705;</p><p>A te válaszod és a másik játékos válasza <b>megegyeznek</b>.</p>","null","","","","feedback trial","",""
"html-button-response-esp","71","549217","0.0-11.0-0.30","3423","Te bizony sokat fligzol. Én is sokat...","1","fligzok","[""fligzom"",""fligzok""]","fligzom","esp trial","9","false"
"html-button-response","72","552751","0.0-11.0-1.30","null","<p>A másik játékos ezt választotta: <b>fligzom</b>.</p><p>&#10060;</p><p>A válaszaitok <b>nem</b> egyeznek meg.</p>","null","","","","feedback trial","",""
"html-button-response-esp","73","558754","0.0-11.0-0.31","5485","Te bizony sokat csólorzol. Én is sokat...","0","csólorzok","[""csólorzok"",""csólorzom""]","csólorzom","esp trial","9","false"
"html-button-response","74","562276","0.0-11.0-1.31","null","<p>A másik játékos ezt választotta: <b>csólorzom</b>.</p><p>&#10060;</p><p>A válaszaitok <b>nem</b> egyeznek meg.</p>","null","","","","feedback trial","",""
"html-button-response-esp","75","571327","0.0-11.0-0.32","8529","Te bizony sokat drügzöl. Én is sokat...","1","drügzöm","[""drügzök"",""drügzöm""]","drügzök","esp trial","9","false"
"html-button-response","76","574856","0.0-11.0-1.32","null","<p>A másik játékos ezt választotta: <b>drügzök</b>.</p><p>&#10060;</p><p>A válaszaitok <b>nem</b> egyeznek meg.</p>","null","","","","feedback trial","",""
"html-button-response-esp","77","580273","0.0-11.0-0.33","4095","Te bizony sokat plágadzol. Én is sokat...","1","plágadzok","[""plágadzom"",""plágadzok""]","plágadzom","esp trial","9","false"
"html-button-response","78","583804","0.0-11.0-1.33","null","<p>A másik játékos ezt választotta: <b>plágadzom</b>.</p><p>&#10060;</p><p>A válaszaitok <b>nem</b> egyeznek meg.</p>","null","","","","feedback trial","",""
"html-button-response-esp","79","589215","0.0-11.0-0.34","4595","Te bizony sokat táklasz. Én is sokat...","1","táklok","[""táklom"",""táklok""]","táklom","esp trial","9","false"
"html-button-response","80","592759","0.0-11.0-1.34","null","<p>A másik játékos ezt választotta: <b>táklom</b>.</p><p>&#10060;</p><p>A válaszaitok <b>nem</b> egyeznek meg.</p>","null","","","","feedback trial","",""
"html-button-response-esp","81","598199","0.0-11.0-0.35","4547","Te bizony sokat sprédlesz. Én is sokat...","1","sprédlek","[""sprédlem"",""sprédlek""]","sprédlek","esp trial","9","true"
"html-button-response","82","601735","0.0-11.0-1.35","null","<p>A másik játékos ezt választotta: <b>sprédlek</b>.</p><p>&#x2705;</p><p>A te válaszod és a másik játékos válasza <b>megegyeznek</b>.</p>","null","","","","feedback trial","",""
"html-button-response-esp","83","607980","0.0-11.0-0.36","5726","Te bizony sokat zödlesz. Én is sokat...","0","zödlök","[""zödlök"",""zödlöm""]","zödlök","esp trial","9","true"
"html-button-response","84","611499","0.0-11.0-1.36","null","<p>A másik játékos ezt választotta: <b>zödlök</b>.</p><p>&#x2705;</p><p>A te válaszod és a másik játékos válasza <b>megegyeznek</b>.</p>","null","","","","feedback trial","",""
"html-button-response-esp","85","616917","0.0-11.0-0.37","3707","Te bizony sokat tuboklasz. Én is sokat...","0","tuboklok","[""tuboklok"",""tuboklom""]","tuboklok","esp trial","9","true"
"html-button-response","86","620445","0.0-11.0-1.37","null","<p>A másik játékos ezt választotta: <b>tuboklok</b>.</p><p>&#x2705;</p><p>A te válaszod és a másik játékos válasza <b>megegyeznek</b>.</p>","null","","","","feedback trial","",""
"html-button-response-esp","87","625878","0.0-11.0-0.38","4760","Te bizony sokat praslasz. Én is sokat...","0","praslok","[""praslok"",""praslom""]","praslok","esp trial","9","true"
"html-button-response","88","629401","0.0-11.0-1.38","null","<p>A másik játékos ezt választotta: <b>praslok</b>.</p><p>&#x2705;</p><p>A te válaszod és a másik játékos válasza <b>megegyeznek</b>.</p>","null","","","","feedback trial","",""
"html-button-response-esp","89","635602","0.0-11.0-0.39","5696","Te bizony sokat fivénylesz. Én is sokat...","1","fivénylek","[""fivénylem"",""fivénylek""]","fivénylek","esp trial","9","true"
"html-button-response","90","639132","0.0-11.0-1.39","null","<p>A másik játékos ezt választotta: <b>fivénylek</b>.</p><p>&#x2705;</p><p>A te válaszod és a másik játékos válasza <b>megegyeznek</b>.</p>","null","","","","feedback trial","",""
"html-button-response-esp","91","645253","0.0-11.0-0.40","5617","Te bizony sokat sprálszol. Én is sokat...","0","sprálszok","[""sprálszok"",""sprálszom""]","sprálszom","esp trial","9","false"
"html-button-response","92","648773","0.0-11.0-1.40","null","<p>A másik játékos ezt választotta: <b>sprálszom</b>.</p><p>&#10060;</p><p>A válaszaitok <b>nem</b> egyeznek meg.</p>","null","","","","feedback trial","",""
"html-button-response-esp","93","654216","0.0-11.0-0.41","4452","Te bizony sokat flözlesz. Én is sokat...","0","flözlök","[""flözlök"",""flözlöm""]","flözlök","esp trial","9","true"
"html-button-response","94","657752","0.0-11.0-1.41","null","<p>A másik játékos ezt választotta: <b>flözlök</b>.</p><p>&#x2705;</p><p>A te válaszod és a másik játékos válasza <b>megegyeznek</b>.</p>","null","","","","feedback trial","",""
"html-button-response-esp","95","663191","0.0-11.0-0.42","3545","Te bizony sokat pugoslasz. Én is sokat...","1","pugoslok","[""pugoslom"",""pugoslok""]","pugoslok","esp trial","9","true"
"html-button-response","96","666714","0.0-11.0-1.42","null","<p>A másik játékos ezt választotta: <b>pugoslok</b>.</p><p>&#x2705;</p><p>A te válaszod és a másik játékos válasza <b>megegyeznek</b>.</p>","null","","","","feedback trial","",""
"html-button-response-esp","97","677871","0.0-11.0-0.43","10640","Te bizony sokat préleglesz. Én is sokat...","0","préleglek","[""préleglek"",""préleglem""]","préleglek","esp trial","9","true"
"html-button-response","98","681398","0.0-11.0-1.43","null","<p>A másik játékos ezt választotta: <b>préleglek</b>.</p><p>&#x2705;</p><p>A te válaszod és a másik játékos válasza <b>megegyeznek</b>.</p>","null","","","","feedback trial","",""
"html-button-response-esp","99","696176","0.0-11.0-0.44","14258","Te bizony sokat aglasz. Én is sokat...","0","aglom","[""aglom"",""aglok""]","aglok","esp trial","9","false"
"html-button-response","100","699698","0.0-11.0-1.44","null","<p>A másik játékos ezt választotta: <b>aglok</b>.</p><p>&#10060;</p><p>A válaszaitok <b>nem</b> egyeznek meg.</p>","null","","","","feedback trial","",""
"html-button-response-esp","101","709669","0.0-11.0-0.45","9466","Te bizony sokat frágapszol. Én is sokat...","0","frágapszok","[""frágapszok"",""frágapszom""]","frágapszom","esp trial","9","false"
"html-button-response","102","713186","0.0-11.0-1.45","null","<p>A másik játékos ezt választotta: <b>frágapszom</b>.</p><p>&#10060;</p><p>A válaszaitok <b>nem</b> egyeznek meg.</p>","null","","","","feedback trial","",""
"html-button-response-esp","103","724863","0.0-11.0-0.46","11172","Te bizony sokat fliraklasz. Én is sokat...","1","fliraklok","[""fliraklom"",""fliraklok""]","fliraklok","esp trial","9","true"
"html-button-response","104","728387","0.0-11.0-1.46","null","<p>A másik játékos ezt választotta: <b>fliraklok</b>.</p><p>&#x2705;</p><p>A te válaszod és a másik játékos válasza <b>megegyeznek</b>.</p>","null","","","","feedback trial","",""
"html-button-response-esp","105","733817","0.0-11.0-0.47","3972","Te bizony sokat floglasz. Én is sokat...","0","floglok","[""floglok"",""floglom""]","floglok","esp trial","9","true"
"html-button-response","106","737350","0.0-11.0-1.47","null","<p>A másik játékos ezt választotta: <b>floglok</b>.</p><p>&#x2705;</p><p>A te válaszod és a másik játékos válasza <b>megegyeznek</b>.</p>","null","","","","feedback trial","",""
"html-button-response-esp","107","752317","0.0-11.0-0.48","14446","Te bizony sokat mékszel. Én is sokat...","0","mékszem","[""mékszem"",""mékszek""]","mékszek","esp trial","9","false"
"html-button-response","108","755831","0.0-11.0-1.48","null","<p>A másik játékos ezt választotta: <b>mékszek</b>.</p><p>&#10060;</p><p>A válaszaitok <b>nem</b> egyeznek meg.</p>","null","","","","feedback trial","",""
"html-button-response-esp","109","761985","0.0-11.0-0.49","5650","Te bizony sokat féjzel. Én is sokat...","1","féjzek","[""féjzem"",""féjzek""]","féjzek","esp trial","9","true"
"html-button-response","110","765509","0.0-11.0-1.49","null","<p>A másik játékos ezt választotta: <b>féjzek</b>.</p><p>&#x2705;</p><p>A te válaszod és a másik játékos válasza <b>megegyeznek</b>.</p>","null","","","","feedback trial","",""
"html-button-response-esp","111","772565","0.0-11.0-0.50","6551","Te bizony sokat livaklasz. Én is sokat...","1","livaklok","[""livaklom"",""livaklok""]","livaklom","esp trial","9","false"
"html-button-response","112","776095","0.0-11.0-1.50","null","<p>A másik játékos ezt választotta: <b>livaklom</b>.</p><p>&#10060;</p><p>A válaszaitok <b>nem</b> egyeznek meg.</p>","null","","","","feedback trial","",""
"html-button-response-esp","113","781977","0.0-11.0-0.51","5360","Te bizony sokat plövőrzöl. Én is sokat...","1","plövőrzök","[""plövőrzöm"",""plövőrzök""]","plövőrzök","esp trial","9","true"
"html-button-response","114","785501","0.0-11.0-1.51","null","<p>A másik játékos ezt választotta: <b>plövőrzök</b>.</p><p>&#x2705;</p><p>A te válaszod és a másik játékos válasza <b>megegyeznek</b>.</p>","null","","","","feedback trial","",""
"html-button-response-esp","115","791768","0.0-11.0-0.52","5765","Te bizony sokat lihadzol. Én is sokat...","1","lihadzok","[""lihadzom"",""lihadzok""]","lihadzok","esp trial","9","true"
"html-button-response","116","795281","0.0-11.0-1.52","null","<p>A másik játékos ezt választotta: <b>lihadzok</b>.</p><p>&#x2705;</p><p>A te válaszod és a másik játékos válasza <b>megegyeznek</b>.</p>","null","","","","feedback trial","",""
"html-button-response-esp","117","805580","0.0-11.0-0.53","9781","Te bizony sokat trihagzol. Én is sokat...","0","trihagzok","[""trihagzok"",""trihagzom""]","trihagzom","esp trial","9","false"
"html-button-response","118","809103","0.0-11.0-1.53","null","<p>A másik játékos ezt választotta: <b>trihagzom</b>.</p><p>&#10060;</p><p>A válaszaitok <b>nem</b> egyeznek meg.</p>","null","","","","feedback trial","",""
"html-button-response","119","821161","0.0-12.0","11537","<p>A közös játék most véget ért.</p><p>Mielőtt eláruljuk a végső pontszámodat, arra kérlek, játszd a szóválasztós játékot néhány percig egyedül is.</p><p>A feladatod ugyanaz lesz, választani két lehetőség közül.</p><p>Most viszont egyedül kell döntened, hogy te melyiket választanád.</p>","0","","","","","",""
"html-button-response-clever","120","824196","0.0-13.0-0.0","2529","Te bizony sokat spéslesz. Én is sokat...","1","spéslek","[""spéslem"",""spéslek""]","","posttest trial","1",""
"html-button-response-clever","121","829385","0.0-13.0-0.1","4686","Te bizony sokat narjárzol. Én is sokat...","1","narjárzok","[""narjárzom"",""narjárzok""]","","posttest trial","1",""
"html-button-response-clever","122","834418","0.0-13.0-0.2","4516","Te bizony sokat büglesz. Én is sokat...","0","büglök","[""büglök"",""büglöm""]","","posttest trial","1",""
"html-button-response-clever","123","837768","0.0-13.0-0.3","2834","Te bizony sokat vilakszol. Én is sokat...","1","vilakszom","[""vilakszok"",""vilakszom""]","","posttest trial","1",""
"html-button-response-clever","124","842047","0.0-13.0-0.4","3763","Te bizony sokat spatárzol. Én is sokat...","1","spatárzok","[""spatárzom"",""spatárzok""]","","posttest trial","1",""
"html-button-response-clever","125","845223","0.0-13.0-0.5","2669","Te bizony sokat siladzol. Én is sokat...","1","siladzok","[""siladzom"",""siladzok""]","","posttest trial","1",""
"html-button-response-clever","126","848597","0.0-13.0-0.6","2853","Te bizony sokat málapszol. Én is sokat...","1","málapszom","[""málapszok"",""málapszom""]","","posttest trial","1",""
"html-button-response-clever","127","855398","0.0-13.0-0.7","6287","Te bizony sokat prilegzel. Én is sokat...","1","prilegzek","[""prilegzem"",""prilegzek""]","","posttest trial","1",""
"html-button-response-clever","128","859836","0.0-13.0-0.8","3936","Te bizony sokat marzol. Én is sokat...","1","marzok","[""marzom"",""marzok""]","","posttest trial","1",""
"html-button-response-clever","129","862847","0.0-13.0-0.9","2508","Te bizony sokat böjzöl. Én is sokat...","1","böjzök","[""böjzöm"",""böjzök""]","","posttest trial","1",""
"html-button-response-clever","130","866227","0.0-13.0-0.10","2860","Te bizony sokat pratánylasz. Én is sokat...","0","pratánylok","[""pratánylok"",""pratánylom""]","","posttest trial","1",""
"html-button-response-clever","131","871291","0.0-13.0-0.11","4547","Te bizony sokat jüslesz. Én is sokat...","1","jüslök","[""jüslöm"",""jüslök""]","","posttest trial","1",""
"html-button-response-clever","132","886256","0.0-13.0-0.12","14447","Te bizony sokat herégszel. Én is sokat...","1","herégszek","[""herégszem"",""herégszek""]","","posttest trial","1",""
"html-button-response-clever","133","891306","0.0-13.0-0.13","4532","Te bizony sokat sztremlesz. Én is sokat...","1","sztremlek","[""sztremlem"",""sztremlek""]","","posttest trial","1",""
"html-button-response-clever","134","898978","0.0-13.0-0.14","7153","Te bizony sokat flagárzol. Én is sokat...","1","flagárzok","[""flagárzom"",""flagárzok""]","","posttest trial","1",""
"html-button-response-clever","135","912966","0.0-13.0-0.15","13469","Te bizony sokat frilegszel. Én is sokat...","1","frilegszem","[""frilegszek"",""frilegszem""]","","posttest trial","1",""
"html-button-response-clever","136","916031","0.0-13.0-0.16","2562","Te bizony sokat nyáslasz. Én is sokat...","0","nyáslok","[""nyáslok"",""nyáslom""]","","posttest trial","1",""
"html-button-response-clever","137","919808","0.0-13.0-0.17","3258","Te bizony sokat tiregzel. Én is sokat...","1","tiregzek","[""tiregzem"",""tiregzek""]","","posttest trial","1",""
"html-button-response-clever","138","922568","0.0-13.0-0.18","2240","Te bizony sokat spűmlesz. Én is sokat...","1","spűmlök","[""spűmlöm"",""spűmlök""]","","posttest trial","1",""
"html-button-response-clever","139","925842","0.0-13.0-0.19","2753","Te bizony sokat spibaklasz. Én is sokat...","1","spibaklok","[""spibaklom"",""spibaklok""]","","posttest trial","1",""
"html-button-response-clever","140","929040","0.0-13.0-0.20","2680","Te bizony sokat bölszöl. Én is sokat...","1","bölszök","[""bölszöm"",""bölszök""]","","posttest trial","1",""
"html-button-response-clever","141","936053","0.0-13.0-0.21","6495","Te bizony sokat sojzol. Én is sokat...","0","sojzok","[""sojzok"",""sojzom""]","","posttest trial","1",""
"html-button-response-clever","142","940995","0.0-13.0-0.22","4425","Te bizony sokat csíszlasz. Én is sokat...","0","csíszlok","[""csíszlok"",""csíszlom""]","","posttest trial","1",""
"html-button-response-clever","143","944134","0.0-13.0-0.23","2623","Te bizony sokat tínylasz. Én is sokat...","0","tínylok","[""tínylok"",""tínylom""]","","posttest trial","1",""
"html-button-response-clever","144","946623","0.0-13.0-0.24","1977","Te bizony sokat brüjlesz. Én is sokat...","1","brüjlök","[""brüjlöm"",""brüjlök""]","","posttest trial","1",""
"html-button-response-clever","145","949652","0.0-13.0-0.25","2510","Te bizony sokat sprökszöl. Én is sokat...","1","sprökszök","[""sprökszöm"",""sprökszök""]","","posttest trial","1",""
"html-button-response-clever","146","951879","0.0-13.0-0.26","1724","Te bizony sokat sprogzol. Én is sokat...","0","sprogzok","[""sprogzok"",""sprogzom""]","","posttest trial","1",""
"html-button-response-clever","147","956673","0.0-13.0-0.27","4276","Te bizony sokat flűröklesz. Én is sokat...","0","flűröklök","[""flűröklök"",""flűröklöm""]","","posttest trial","1",""
"html-button-response-clever","148","961229","0.0-13.0-0.28","4036","Te bizony sokat klörlesz. Én is sokat...","0","klörlök","[""klörlök"",""klörlöm""]","","posttest trial","1",""
"html-button-response-clever","149","970462","0.0-13.0-0.29","8716","Te bizony sokat feténylesz. Én is sokat...","0","feténylek","[""feténylek"",""feténylem""]","","posttest trial","1",""
"html-button-response-clever","150","977705","0.0-13.0-0.30","6725","Te bizony sokat juszlasz. Én is sokat...","1","juszlok","[""juszlom"",""juszlok""]","","posttest trial","1",""
"html-button-response-clever","151","985996","0.0-13.0-0.31","7771","Te bizony sokat szirlasz. Én is sokat...","1","szirlok","[""szirlom"",""szirlok""]","","posttest trial","1",""
"html-button-response-clever","152","988975","0.0-13.0-0.32","2462","Te bizony sokat pebzel. Én is sokat...","1","pebzek","[""pebzem"",""pebzek""]","","posttest trial","1",""
"html-button-response-clever","153","991402","0.0-13.0-0.33","1912","Te bizony sokat ruslasz. Én is sokat...","1","ruslok","[""ruslom"",""ruslok""]","","posttest trial","1",""
"html-button-response-clever","154","994045","0.0-13.0-0.34","2127","Te bizony sokat prűrlesz. Én is sokat...","1","prűrlök","[""prűrlöm"",""prűrlök""]","","posttest trial","1",""
"html-button-response-clever","155","996483","0.0-13.0-0.35","1934","Te bizony sokat ribzol. Én is sokat...","1","ribzok","[""ribzom"",""ribzok""]","","posttest trial","1",""
"html-button-response-clever","156","1002960","0.0-13.0-0.36","5962","Te bizony sokat flüröslesz. Én is sokat...","1","flüröslök","[""flüröslöm"",""flüröslök""]","","posttest trial","1",""
"html-button-response-clever","157","1006757","0.0-13.0-0.37","3279","Te bizony sokat klibamlasz. Én is sokat...","1","klibamlok","[""klibamlom"",""klibamlok""]","","posttest trial","1",""
"html-button-response-clever","158","1010034","0.0-13.0-0.38","2759","Te bizony sokat fretszel. Én is sokat...","1","fretszek","[""fretszem"",""fretszek""]","","posttest trial","1",""
"html-button-response-clever","159","1012732","0.0-13.0-0.39","2181","Te bizony sokat piragszol. Én is sokat...","1","piragszok","[""piragszom"",""piragszok""]","","posttest trial","1",""
"html-button-response-clever","160","1023044","0.0-13.0-0.40","9808","Te bizony sokat hilarzol. Én is sokat...","1","hilarzok","[""hilarzom"",""hilarzok""]","","posttest trial","1",""
"html-button-response-clever","161","1025496","0.0-13.0-0.41","1949","Te bizony sokat femlesz. Én is sokat...","0","femlek","[""femlek"",""femlem""]","","posttest trial","1",""
"html-button-response-clever","162","1029522","0.0-13.0-0.42","3508","Te bizony sokat tomlasz. Én is sokat...","0","tomlok","[""tomlok"",""tomlom""]","","posttest trial","1",""
"html-button-response-clever","163","1033526","0.0-13.0-0.43","3499","Te bizony sokat lorjódzol. Én is sokat...","0","lorjódzok","[""lorjódzok"",""lorjódzom""]","","posttest trial","1",""
"html-button-response-clever","164","1038860","0.0-13.0-0.44","4816","Te bizony sokat sűzlesz. Én is sokat...","1","sűzlöm","[""sűzlök"",""sűzlöm""]","","posttest trial","1",""
"html-button-response-clever","165","1043005","0.0-13.0-0.45","3632","Te bizony sokat brágaklasz. Én is sokat...","1","brágaklok","[""brágaklom"",""brágaklok""]","","posttest trial","1",""
"html-button-response-clever","166","1051619","0.0-13.0-0.46","8112","Te bizony sokat trilszol. Én is sokat...","0","trilszom","[""trilszom"",""trilszok""]","","posttest trial","1",""
"html-button-response-clever","167","1053867","0.0-13.0-0.47","1730","Te bizony sokat flagánylasz. Én is sokat...","0","flagánylok","[""flagánylok"",""flagánylom""]","","posttest trial","1",""
"html-button-response-clever","168","1056403","0.0-13.0-0.48","2019","Te bizony sokat driládzol. Én is sokat...","1","driládzok","[""driládzom"",""driládzok""]","","posttest trial","1",""
"html-button-response-clever","169","1058984","0.0-13.0-0.49","2065","Te bizony sokat ribegzel. Én is sokat...","0","ribegzek","[""ribegzek"",""ribegzem""]","","posttest trial","1",""
"html-button-response-clever","170","1069233","0.0-13.0-0.50","9731","Te bizony sokat drubódzol. Én is sokat...","1","drubódzok","[""drubódzom"",""drubódzok""]","","posttest trial","1",""
"html-button-response-clever","171","1072679","0.0-13.0-0.51","2931","Te bizony sokat pivegszel. Én is sokat...","1","pivegszek","[""pivegszem"",""pivegszek""]","","posttest trial","1",""
"html-button-response-clever","172","1075924","0.0-13.0-0.52","2733","Te bizony sokat fibamlasz. Én is sokat...","0","fibamlok","[""fibamlok"",""fibamlom""]","","posttest trial","1",""
"html-button-response-clever","173","1081506","0.0-13.0-0.53","5066","Te bizony sokat spilágzol. Én is sokat...","0","spilágzok","[""spilágzok"",""spilágzom""]","","posttest trial","1",""
"html-button-response","174","1090967","0.0-14.0","8958","<p> Vége a játéknak. A teljes pontszámod 38/54.</p><p> Szép munka! &#128526;&#128526;&#128526;</p><p>A Befejezés gomb megnyomása után bezárhatod a böngészőablakot.</p>","0","","","","","",""
"html-keyboard-response","175","1096503","0.0-15.0","null","<div class=""message"">
         <p>Egy kis türelmet kérünk, amíg elmentjük az adatokat...</p>
         </div>","null","","","","","",""
