my_list,key.keys,key.rt,key_2.keys,key_2.rt,keyboard_input_2.keys,keyboard_input_2.rt,key_3.keys,key_3.rt,keyboard_input_3.keys,keyboard_input_3.rt,key_4.keys,key_4.rt,keyboard_input_4.keys,keyboard_input_4.rt,key_5.keys,key_5.rt,my_button1,my_button2,keyboard_input.keys,keyboard_input.rt,withinBlock.thisRepN,withinBlock.thisTrialN,withinBlock.thisN,withinBlock.thisIndex,withinBlock.ran,rowname,word,prompt,suffix,vowel,carrier_sentence,target_sentence,target1,target2,category,derivational,nsyl,Azonosító,Melyik évben születtél?,Mi a nemed?,Tanultál nyelvészetet?,date,expName,psychopyVersion,OS,frameRate
list2.csv,space,38.865,space,11.643,right,10.15,space,15.066,left,5.801,space,11.972,left,8.377,space,17.361,nyametban,nyametben,right,8.396,0,0,0,17,1,72,nyamet,nyamet,ban,e,Ez itt egy nyamet.,Ott vagyunk a...,nyametben,nyametban,dzsungel,NA,NA,PR2068,1989,nő,nem,2022-04-17_22h22.57.353,hesp_baseline,2021.2.3,Linux i686,11.93602292
,,,,,,,,,,,,,,,,,klajrénnek,klajrénnak,left,11.131,0,1,1,41,1,96,klajrén,klajrén,nak,é,Ez itt egy klajrén.,Elneveztem a kutyámat...,klajrénnek,klajrénnak,dzsungel,NA,NA,PR2068,1989,nő,nem,2022-04-17_22h22.57.353,hesp_baseline,2021.2.3,Linux i686,11.93602292
,,,,,,,,,,,,,,,,,ikszertben,ikszertban,left,7.559,0,2,2,19,1,74,ikszert,ikszert,ban,e,Ez itt egy ikszert.,Ott vagyunk a...,ikszertben,ikszertban,dzsungel,NA,NA,PR2068,1989,nő,nem,2022-04-17_22h22.57.353,hesp_baseline,2021.2.3,Linux i686,11.93602292
,,,,,,,,,,,,,,,,,vorszennél,vorszennál,left,6.526,0,3,3,30,1,85,vorszen,vorszen,nál,e,Ez itt egy vorszen.,Nincs is jobb egy jó...,vorszennél,vorszennál,dzsungel,NA,NA,PR2068,1989,nő,nem,2022-04-17_22h22.57.353,hesp_baseline,2021.2.3,Linux i686,11.93602292
,,,,,,,,,,,,,,,,,flüröslöm,flüröslök,left,8.834,0,4,4,87,1,88,flüröslik,flüröslesz,NA,NA,Te bizony sokat flüröslesz.,Én is sokat...,flüröslök,flüröslöm,lakik,-lik,2,PR2068,1989,nő,nem,2022-04-17_22h22.57.353,hesp_baseline,2021.2.3,Linux i686,11.93602292
,,,,,,,,,,,,,,,,,trigencnek,trigencnak,left,4.367,0,5,5,31,1,86,trigenc,trigenc,nak,e,Ez itt egy trigenc.,Elneveztem a kutyámat...,trigencnek,trigencnak,dzsungel,NA,NA,PR2068,1989,nő,nem,2022-04-17_22h22.57.353,hesp_baseline,2021.2.3,Linux i686,11.93602292
,,,,,,,,,,,,,,,,,forzédnak,forzédnek,right,4.779,0,6,6,46,1,101,forzéd,forzéd,nak,é,Ez itt egy forzéd.,Elneveztem a kutyámat...,forzédnek,forzédnak,dzsungel,NA,NA,PR2068,1989,nő,nem,2022-04-17_22h22.57.353,hesp_baseline,2021.2.3,Linux i686,11.93602292
,,,,,,,,,,,,,,,,,praslom,praslok,left,8.464,0,7,7,80,1,81,praslik,praslasz,NA,NA,Te bizony sokat praslasz.,Én is sokat...,praslok,praslom,lakik,-lik,1,PR2068,1989,nő,nem,2022-04-17_22h22.57.353,hesp_baseline,2021.2.3,Linux i686,11.93602292
,,,,,,,,,,,,,,,,,prihekszek,prihekszem,right,6.138,0,8,8,100,1,101,prihekszik,prihekszel,NA,NA,Te bizony sokat prihekszel.,Én is sokat...,prihekszek,prihekszem,lakik,-szik,2,PR2068,1989,nő,nem,2022-04-17_22h22.57.353,hesp_baseline,2021.2.3,Linux i686,11.93602292
,,,,,,,,,,,,,,,,,dineltben,dineltban,left,6.296,0,9,9,0,1,55,dinelt,dinelt,ban,e,Ez itt egy dinelt.,Ott vagyunk a...,dineltben,dineltban,dzsungel,NA,NA,PR2068,1989,nő,nem,2022-04-17_22h22.57.353,hesp_baseline,2021.2.3,Linux i686,11.93602292
,,,,,,,,,,,,,,,,,júdernak,júdernek,right,4.401,0,10,10,53,1,108,júder,júder,nak,e,Ez itt egy júder.,Elneveztem a kutyámat...,júdernek,júdernak,dzsungel,NA,NA,PR2068,1989,nő,nem,2022-04-17_22h22.57.353,hesp_baseline,2021.2.3,Linux i686,11.93602292
,,,,,,,,,,,,,,,,,szirlok,szirlom,left,10.672,0,11,11,62,1,63,szirlik,szirlasz,NA,NA,Te bizony sokat szirlasz.,Én is sokat...,szirlok,szirlom,lakik,-lik,1,PR2068,1989,nő,nem,2022-04-17_22h22.57.353,hesp_baseline,2021.2.3,Linux i686,11.93602292
,,,,,,,,,,,,,,,,,csíszlok,csíszlom,left,5.734,0,12,12,84,1,85,csíszlik,csíszlasz,NA,NA,Te bizony sokat csíszlasz.,Én is sokat...,csíszlok,csíszlom,lakik,-lik,1,PR2068,1989,nő,nem,2022-04-17_22h22.57.353,hesp_baseline,2021.2.3,Linux i686,11.93602292
,,,,,,,,,,,,,,,,,nyürzenek,nyüröznek,left,8.371,0,13,13,123,1,70,nyürzik / nyürözik,"nyürzik, nyürözni",nek,NA,"János imád nyürözni, ezért sokat nyürzik.",Ők ritkán...,nyürzenek,nyüröznek,cselekszik,-zik,1,PR2068,1989,nő,nem,2022-04-17_22h22.57.353,hesp_baseline,2021.2.3,Linux i686,11.93602292
,,,,,,,,,,,,,,,,,navecben,navecban,left,4.619,0,14,14,8,1,63,navec,navec,ban,e,Ez itt egy navec.,Ott vagyunk a...,navecben,navecban,dzsungel,NA,NA,PR2068,1989,nő,nem,2022-04-17_22h22.57.353,hesp_baseline,2021.2.3,Linux i686,11.93602292
,,,,,,,,,,,,,,,,,figlok,figlom,left,8.865,0,15,15,75,1,76,figlik,figlasz,NA,NA,Te bizony sokat figlasz.,Én is sokat...,figlok,figlom,lakik,-lik,1,PR2068,1989,nő,nem,2022-04-17_22h22.57.353,hesp_baseline,2021.2.3,Linux i686,11.93602292
,,,,,,,,,,,,,,,,,flodlotok,flodoztok,right,10.498,0,16,16,144,1,91,flodlik / flodozik,"flodlik, flodozni",tek,NA,"János imád flodozni, ezért sokat flodlik.",Ti ritkán...,flodlotok,flodoztok,cselekszik,-lik,1,PR2068,1989,nő,nem,2022-04-17_22h22.57.353,hesp_baseline,2021.2.3,Linux i686,11.93602292
,,,,,,,,,,,,,,,,,flemezünk,flemlünk,left,9.906,0,17,17,137,1,84,flemlik / flemezik,"flemlik, flemezni",ünk,NA,"János imád flemezni, ezért sokat flemlik.",Mi ritkán...,flemlünk,flemezünk,cselekszik,-lik,1,PR2068,1989,nő,nem,2022-04-17_22h22.57.353,hesp_baseline,2021.2.3,Linux i686,11.93602292
,,,,,,,,,,,,,,,,,klingeszben,klingeszban,left,5.693,0,18,18,1,1,56,klingesz,klingesz,ban,e,Ez itt egy klingesz.,Ott vagyunk a...,klingeszben,klingeszban,dzsungel,NA,NA,PR2068,1989,nő,nem,2022-04-17_22h22.57.353,hesp_baseline,2021.2.3,Linux i686,11.93602292
,,,,,,,,,,,,,,,,,kalrézban,kalrézben,right,4.907,0,19,19,16,1,71,kalréz,kalréz,ban,é,Ez itt egy kalréz.,Ott vagyunk a...,kalrézben,kalrézban,dzsungel,NA,NA,PR2068,1989,nő,nem,2022-04-17_22h22.57.353,hesp_baseline,2021.2.3,Linux i686,11.93602292
,,,,,,,,,,,,,,,,,flűgzünk,flűgözünk,right,13.722,0,20,20,160,1,107,flűgzik / flűgözik,"flűgzik, flűgözni",ünk,NA,"János imád flűgözni, ezért sokat flűgzik.",Mi ritkán...,flűgzünk,flűgözünk,cselekszik,-zik,1,PR2068,1989,nő,nem,2022-04-17_22h22.57.353,hesp_baseline,2021.2.3,Linux i686,11.93602292
,,,,,,,,,,,,,,,,,fröjzötök,fröjöztök,right,6.814,0,21,21,153,1,100,fröjzik / fröjözik,"fröjzik, fröjözni",tek,NA,"János imád fröjözni, ezért sokat fröjzik.",Ti ritkán...,fröjzötök,fröjöztök,cselekszik,-zik,1,PR2068,1989,nő,nem,2022-04-17_22h22.57.353,hesp_baseline,2021.2.3,Linux i686,11.93602292
,,,,,,,,,,,,,,,,,daboztok,dabzotok,left,9.445,0,22,22,109,1,56,dabzik / dabozik,"dabzik, dabozni",tek,NA,"János imád dabozni, ezért sokat dabzik.",Ti ritkán...,dabzotok,daboztok,cselekszik,-zik,1,PR2068,1989,nő,nem,2022-04-17_22h22.57.353,hesp_baseline,2021.2.3,Linux i686,11.93602292
,,,,,,,,,,,,,,,,,dingecnak,dingecnek,right,5.668,0,23,23,42,1,97,dingec,dingec,nak,e,Ez itt egy dingec.,Elneveztem a kutyámat...,dingecnek,dingecnak,dzsungel,NA,NA,PR2068,1989,nő,nem,2022-04-17_22h22.57.353,hesp_baseline,2021.2.3,Linux i686,11.93602292
,,,,,,,,,,,,,,,,,nűröklök,nűröklöm,right,5.824,0,24,24,106,1,107,nűröklik,nűröklesz,NA,NA,Te bizony sokat nűröklesz.,Én is sokat...,nűröklök,nűröklöm,lakik,-lik,2,PR2068,1989,nő,nem,2022-04-17_22h22.57.353,hesp_baseline,2021.2.3,Linux i686,11.93602292
,,,,,,,,,,,,,,,,,fupétnál,fupétnél,right,6.581,0,25,25,14,1,69,fupét,fupét,nál,é,Ez itt egy fupét.,Nincs is jobb egy jó...,fupétnél,fupétnál,dzsungel,NA,NA,PR2068,1989,nő,nem,2022-04-17_22h22.57.353,hesp_baseline,2021.2.3,Linux i686,11.93602292
,,,,,,,,,,,,,,,,,sprízemnél,sprízemnál,left,7.083,0,26,26,22,1,77,sprízem,sprízem,nál,e,Ez itt egy sprízem.,Nincs is jobb egy jó...,sprízemnél,sprízemnál,dzsungel,NA,NA,PR2068,1989,nő,nem,2022-04-17_22h22.57.353,hesp_baseline,2021.2.3,Linux i686,11.93602292
,,,,,,,,,,,,,,,,,nyádlanak,nyádoznak,left,10.574,0,27,27,120,1,67,nyádlik / nyádozik,"nyádlik, nyádozni",nek,NA,"János imád nyádozni, ezért sokat nyádlik.",Ők ritkán...,nyádlanak,nyádoznak,cselekszik,-lik,1,PR2068,1989,nő,nem,2022-04-17_22h22.57.353,hesp_baseline,2021.2.3,Linux i686,11.93602292
,,,,,,,,,,,,,,,,,spibeglünk,spibegezünk,left,12.813,0,28,28,147,1,94,spibeglik / spibegezik,"spibeglik, spibegezni",ünk,NA,"János imád spibegezni, ezért sokat spibeglik.",Mi ritkán...,spibeglünk,spibegezünk,cselekszik,-lik,2,PR2068,1989,nő,nem,2022-04-17_22h22.57.353,hesp_baseline,2021.2.3,Linux i686,11.93602292
,,,,,,,,,,,,,,,,,sporzemnek,sporzemnak,left,5.237,0,29,29,26,1,81,sporzem,sporzem,nak,e,Ez itt egy sporzem.,Elneveztem a kutyámat...,sporzemnek,sporzemnak,dzsungel,NA,NA,PR2068,1989,nő,nem,2022-04-17_22h22.57.353,hesp_baseline,2021.2.3,Linux i686,11.93602292
,,,,,,,,,,,,,,,,,huroslom,huroslok,right,4.571,0,30,30,76,1,77,huroslik,huroslasz,NA,NA,Te bizony sokat huroslasz.,Én is sokat...,huroslok,huroslom,lakik,-lik,2,PR2068,1989,nő,nem,2022-04-17_22h22.57.353,hesp_baseline,2021.2.3,Linux i686,11.93602292
,,,,,,,,,,,,,,,,,kátédnál,kátédnél,left,5.587,0,31,31,37,1,92,kátéd,kátéd,nál,é,Ez itt egy kátéd.,Nincs is jobb egy jó...,kátédnél,kátédnál,dzsungel,NA,NA,PR2068,1989,nő,nem,2022-04-17_22h22.57.353,hesp_baseline,2021.2.3,Linux i686,11.93602292
,,,,,,,,,,,,,,,,,frodlom,frodlok,left,4.869,0,32,32,61,1,62,frodlik,frodlasz,NA,NA,Te bizony sokat frodlasz.,Én is sokat...,frodlok,frodlom,lakik,-lik,1,PR2068,1989,nő,nem,2022-04-17_22h22.57.353,hesp_baseline,2021.2.3,Linux i686,11.93602292
,,,,,,,,,,,,,,,,,dóbemnek,dóbemnak,left,3.689,0,33,33,48,1,103,dóbem,dóbem,nak,e,Ez itt egy dóbem.,Elneveztem a kutyámat...,dóbemnek,dóbemnak,dzsungel,NA,NA,PR2068,1989,nő,nem,2022-04-17_22h22.57.353,hesp_baseline,2021.2.3,Linux i686,11.93602292
,,,,,,,,,,,,,,,,,flibekszem,flibekszek,right,7.759,0,34,34,93,1,94,flibekszik,flibekszel,NA,NA,Te bizony sokat flibekszel.,Én is sokat...,flibekszek,flibekszem,lakik,-szik,2,PR2068,1989,nő,nem,2022-04-17_22h22.57.353,hesp_baseline,2021.2.3,Linux i686,11.93602292
,,,,,,,,,,,,,,,,,fréslünk,frésezünk,left,6.663,0,35,35,138,1,85,fréslik / frésezik,"fréslik, frésezni",ünk,NA,"János imád frésezni, ezért sokat fréslik.",Mi ritkán...,fréslünk,frésezünk,cselekszik,-lik,1,PR2068,1989,nő,nem,2022-04-17_22h22.57.353,hesp_baseline,2021.2.3,Linux i686,11.93602292
,,,,,,,,,,,,,,,,,klidlok,klidlom,left,6.446,0,36,36,72,1,73,klidlik,klidlasz,NA,NA,Te bizony sokat klidlasz.,Én is sokat...,klidlok,klidlom,lakik,-lik,1,PR2068,1989,nő,nem,2022-04-17_22h22.57.353,hesp_baseline,2021.2.3,Linux i686,11.93602292
,,,,,,,,,,,,,,,,,fligzok,fligzom,left,4.348,0,37,37,103,1,104,fligzik,fligzol,NA,NA,Te bizony sokat fligzol.,Én is sokat...,fligzok,fligzom,lakik,-zik,1,PR2068,1989,nő,nem,2022-04-17_22h22.57.353,hesp_baseline,2021.2.3,Linux i686,11.93602292
,,,,,,,,,,,,,,,,,lingéknél,lingéknál,right,3.955,0,38,38,32,1,87,lingék,lingék,nál,é,Ez itt egy lingék.,Nincs is jobb egy jó...,lingéknél,lingéknál,dzsungel,NA,NA,PR2068,1989,nő,nem,2022-04-17_22h22.57.353,hesp_baseline,2021.2.3,Linux i686,11.93602292
,,,,,,,,,,,,,,,,,sojzok,sojzom,right,3.692,0,39,39,74,1,75,sojzik,sojzol,NA,NA,Te bizony sokat sojzol.,Én is sokat...,sojzok,sojzom,lakik,-zik,1,PR2068,1989,nő,nem,2022-04-17_22h22.57.353,hesp_baseline,2021.2.3,Linux i686,11.93602292
,,,,,,,,,,,,,,,,,spöklünk,spöközünk,left,7.858,0,40,40,130,1,77,spöklik / spöközik,"spöklik, spöközni",ünk,NA,"János imád spöközni, ezért sokat spöklik.",Mi ritkán...,spöklünk,spöközünk,cselekszik,-lik,1,PR2068,1989,nő,nem,2022-04-17_22h22.57.353,hesp_baseline,2021.2.3,Linux i686,11.93602292
,,,,,,,,,,,,,,,,,floglom,floglok,left,7.773,0,41,41,92,1,93,floglik,floglasz,NA,NA,Te bizony sokat floglasz.,Én is sokat...,floglok,floglom,lakik,-lik,1,PR2068,1989,nő,nem,2022-04-17_22h22.57.353,hesp_baseline,2021.2.3,Linux i686,11.93602292
,,,,,,,,,,,,,,,,,brágaklok,brágaklom,left,4.539,0,42,42,71,1,72,brágaklik,brágaklasz,NA,NA,Te bizony sokat brágaklasz.,Én is sokat...,brágaklok,brágaklom,lakik,-lik,2,PR2068,1989,nő,nem,2022-04-17_22h22.57.353,hesp_baseline,2021.2.3,Linux i686,11.93602292
,,,,,,,,,,,,,,,,,tiregzem,tiregzek,right,6.695,0,43,43,64,1,65,tiregzik,tiregzel,NA,NA,Te bizony sokat tiregzel.,Én is sokat...,tiregzek,tiregzem,lakik,-zik,2,PR2068,1989,nő,nem,2022-04-17_22h22.57.353,hesp_baseline,2021.2.3,Linux i686,11.93602292
,,,,,,,,,,,,,,,,,ribzom,ribzok,right,4.765,0,44,44,58,1,59,ribzik,ribzol,NA,NA,Te bizony sokat ribzol.,Én is sokat...,ribzok,ribzom,lakik,-zik,1,PR2068,1989,nő,nem,2022-04-17_22h22.57.353,hesp_baseline,2021.2.3,Linux i686,11.93602292
,,,,,,,,,,,,,,,,,frálaslanak,frálasoznak,right,14.791,0,45,45,110,1,57,frálaslik / frálasozik,"frálaslik, frálasozni",nek,NA,"János imád frálasozni, ezért sokat frálaslik.",Ők ritkán...,frálaslanak,frálasoznak,cselekszik,-lik,2,PR2068,1989,nő,nem,2022-04-17_22h22.57.353,hesp_baseline,2021.2.3,Linux i686,11.93602292
,,,,,,,,,,,,,,,,,hákodnak,hákszanak,left,8.09,0,46,46,150,1,97,hákszik / hákodik,"hákszik, hákodni",nek,NA,"János imád hákodni, ezért sokat hákszik.",Ők ritkán...,hákszanak,hákodnak,cselekszik,-szik,1,PR2068,1989,nő,nem,2022-04-17_22h22.57.353,hesp_baseline,2021.2.3,Linux i686,11.93602292
,,,,,,,,,,,,,,,,,pratánylok,pratánylom,left,7.783,0,47,47,95,1,96,pratánylik,pratánylasz,NA,NA,Te bizony sokat pratánylasz.,Én is sokat...,pratánylok,pratánylom,lakik,-lik,2,PR2068,1989,nő,nem,2022-04-17_22h22.57.353,hesp_baseline,2021.2.3,Linux i686,11.93602292
,,,,,,,,,,,,,,,,,spülűdzök,spülűdzöm,left,5.394,0,48,48,56,1,57,spülűdzik,spülűdzöl,NA,NA,Te bizony sokat spülűdzöl.,Én is sokat...,spülűdzök,spülűdzöm,lakik,-zik,2,PR2068,1989,nő,nem,2022-04-17_22h22.57.353,hesp_baseline,2021.2.3,Linux i686,11.93602292
,,,,,,,,,,,,,,,,,kluzlotok,kluzoztok,left,9.037,0,49,49,148,1,95,kluzlik / kluzozik,"kluzlik, kluzozni",tek,NA,"János imád kluzozni, ezért sokat kluzlik.",Ti ritkán...,kluzlotok,kluzoztok,cselekszik,-lik,1,PR2068,1989,nő,nem,2022-04-17_22h22.57.353,hesp_baseline,2021.2.3,Linux i686,11.93602292
,,,,,,,,,,,,,,,,,driládzok,driládzom,right,7.75,0,50,50,67,1,68,driládzik,driládzol,NA,NA,Te bizony sokat driládzol.,Én is sokat...,driládzok,driládzom,lakik,-zik,2,PR2068,1989,nő,nem,2022-04-17_22h22.57.353,hesp_baseline,2021.2.3,Linux i686,11.93602292
,,,,,,,,,,,,,,,,,fojlegynek,fojlegynak,left,8.423,0,51,51,3,1,58,fojlegy,fojlegy,nak,e,Ez itt egy fojlegy.,Elneveztem a kutyámat...,fojlegynek,fojlegynak,dzsungel,NA,NA,PR2068,1989,nő,nem,2022-04-17_22h22.57.353,hesp_baseline,2021.2.3,Linux i686,11.93602292
,,,,,,,,,,,,,,,,,spátennek,spátennak,left,5.041,0,52,52,33,1,88,spáten,spáten,nak,e,Ez itt egy spáten.,Elneveztem a kutyámat...,spátennek,spátennak,dzsungel,NA,NA,PR2068,1989,nő,nem,2022-04-17_22h22.57.353,hesp_baseline,2021.2.3,Linux i686,11.93602292
,,,,,,,,,,,,,,,,,juszlok,juszlom,right,5.237,0,53,53,79,1,80,juszlik,juszlasz,NA,NA,Te bizony sokat juszlasz.,Én is sokat...,juszlok,juszlom,lakik,-lik,1,PR2068,1989,nő,nem,2022-04-17_22h22.57.353,hesp_baseline,2021.2.3,Linux i686,11.93602292
,,,,,,,,,,,,,,,,,csintékban,csintékben,right,4.941,0,54,54,23,1,78,csinték,csinték,ban,é,Ez itt egy csinték.,Ott vagyunk a...,csintékben,csintékban,dzsungel,NA,NA,PR2068,1989,nő,nem,2022-04-17_22h22.57.353,hesp_baseline,2021.2.3,Linux i686,11.93602292
,,,,,,,,,,,,,,,,,lihadzok,lihadzom,left,5.397,0,55,55,101,1,102,lihadzik,lihadzol,NA,NA,Te bizony sokat lihadzol.,Én is sokat...,lihadzok,lihadzom,lakik,-zik,2,PR2068,1989,nő,nem,2022-04-17_22h22.57.353,hesp_baseline,2021.2.3,Linux i686,11.93602292
,,,,,,,,,,,,,,,,,ruslom,ruslok,left,3.694,0,56,56,83,1,84,ruslik,ruslasz,NA,NA,Te bizony sokat ruslasz.,Én is sokat...,ruslok,ruslom,lakik,-lik,1,PR2068,1989,nő,nem,2022-04-17_22h22.57.353,hesp_baseline,2021.2.3,Linux i686,11.93602292
,,,,,,,,,,,,,,,,,zutennél,zutennál,left,4.75,0,57,57,43,1,98,zuten,zuten,nál,e,Ez itt egy zuten.,Nincs is jobb egy jó...,zutennél,zutennál,dzsungel,NA,NA,PR2068,1989,nő,nem,2022-04-17_22h22.57.353,hesp_baseline,2021.2.3,Linux i686,11.93602292
,,,,,,,,,,,,,,,,,livénylünk,livényezünk,left,6.025,0,58,58,128,1,75,livénylik / livényezik,"livénylik, livényezni",ünk,NA,"János imád livényezni, ezért sokat livénylik.",Mi ritkán...,livénylünk,livényezünk,cselekszik,-lik,2,PR2068,1989,nő,nem,2022-04-17_22h22.57.353,hesp_baseline,2021.2.3,Linux i686,11.93602292
,,,,,,,,,,,,,,,,,sponylanak,sponyoznak,left,4.287,0,59,59,125,1,72,sponylik / sponyozik,"sponylik, sponyozni",nek,NA,"János imád sponyozni, ezért sokat sponylik.",Ők ritkán...,sponylanak,sponyoznak,cselekszik,-lik,1,PR2068,1989,nő,nem,2022-04-17_22h22.57.353,hesp_baseline,2021.2.3,Linux i686,11.93602292
,,,,,,,,,,,,,,,,,pítendben,pítendban,right,3.854,0,60,60,18,1,73,pítend,pítend,ban,e,Ez itt egy pítend.,Ott vagyunk a...,pítendben,pítendban,dzsungel,NA,NA,PR2068,1989,nő,nem,2022-04-17_22h22.57.353,hesp_baseline,2021.2.3,Linux i686,11.93602292
,,,,,,,,,,,,,,,,,sprigzotok,sprigoztok,right,8.784,0,61,61,129,1,76,sprigzik / sprigozik,"sprigzik, sprigozni",tek,NA,"János imád sprigozni, ezért sokat sprigzik.",Ti ritkán...,sprigzotok,sprigoztok,cselekszik,-zik,1,PR2068,1989,nő,nem,2022-04-17_22h22.57.353,hesp_baseline,2021.2.3,Linux i686,11.93602292
,,,,,,,,,,,,,,,,,prohódzom,prohódzok,left,3.927,0,62,62,66,1,67,prohódzik,prohódzol,NA,NA,Te bizony sokat prohódzol.,Én is sokat...,prohódzok,prohódzom,lakik,-zik,2,PR2068,1989,nő,nem,2022-04-17_22h22.57.353,hesp_baseline,2021.2.3,Linux i686,11.93602292
,,,,,,,,,,,,,,,,,nyábétban,nyábétben,right,3.134,0,63,63,21,1,76,nyábét,nyábét,ban,é,Ez itt egy nyábét.,Ott vagyunk a...,nyábétben,nyábétban,dzsungel,NA,NA,PR2068,1989,nő,nem,2022-04-17_22h22.57.353,hesp_baseline,2021.2.3,Linux i686,11.93602292
,,,,,,,,,,,,,,,,,klehényletek,klehényeztek,left,6.547,0,64,64,113,1,60,klehénylik / klehényezik,"klehénylik, klehényezni",tek,NA,"János imád klehényezni, ezért sokat klehénylik.",Ti ritkán...,klehényletek,klehényeztek,cselekszik,-lik,2,PR2068,1989,nő,nem,2022-04-17_22h22.57.353,hesp_baseline,2021.2.3,Linux i686,11.93602292
,,,,,,,,,,,,,,,,,prihegednek,prihegszenek,left,6.319,0,65,65,155,1,102,prihegszik / prihegedik,"prihegszik, prihegedni",nek,NA,"János imád prihegedni, ezért sokat prihegszik.",Ők ritkán...,prihegszenek,prihegednek,cselekszik,-szik,2,PR2068,1989,nő,nem,2022-04-17_22h22.57.353,hesp_baseline,2021.2.3,Linux i686,11.93602292
,,,,,,,,,,,,,,,,,spubonylom,spubonylok,right,9.316,0,66,66,104,1,105,spubonylik,spubonylasz,NA,NA,Te bizony sokat spubonylasz.,Én is sokat...,spubonylok,spubonylom,lakik,-lik,2,PR2068,1989,nő,nem,2022-04-17_22h22.57.353,hesp_baseline,2021.2.3,Linux i686,11.93602292
,,,,,,,,,,,,,,,,,tomlom,tomlok,right,4.093,0,67,67,86,1,87,tomlik,tomlasz,NA,NA,Te bizony sokat tomlasz.,Én is sokat...,tomlok,tomlom,lakik,-lik,1,PR2068,1989,nő,nem,2022-04-17_22h22.57.353,hesp_baseline,2021.2.3,Linux i686,11.93602292
,,,,,,,,,,,,,,,,,flitlom,flitlok,left,4.609,0,68,68,90,1,91,flitlik,flitlasz,NA,NA,Te bizony sokat flitlasz.,Én is sokat...,flitlok,flitlom,lakik,-lik,1,PR2068,1989,nő,nem,2022-04-17_22h22.57.353,hesp_baseline,2021.2.3,Linux i686,11.93602292
,,,,,,,,,,,,,,,,,drojozunk,drojzunk,left,7.441,0,69,69,140,1,87,drojzik / drojozik,"drojzik, drojozni",ünk,NA,"János imád drojozni, ezért sokat drojzik.",Mi ritkán...,drojzunk,drojozunk,cselekszik,-zik,1,PR2068,1989,nő,nem,2022-04-17_22h22.57.353,hesp_baseline,2021.2.3,Linux i686,11.93602292
,,,,,,,,,,,,,,,,,flűmlök,flűmlöm,left,4.308,0,70,70,54,1,55,flűmlik,flűmlesz,NA,NA,Te bizony sokat flűmlesz.,Én is sokat...,flűmlök,flűmlöm,lakik,-lik,1,PR2068,1989,nő,nem,2022-04-17_22h22.57.353,hesp_baseline,2021.2.3,Linux i686,11.93602292
,,,,,,,,,,,,,,,,,jonylok,jonylom,left,6.339,0,71,71,55,1,56,jonylik,jonylasz,NA,NA,Te bizony sokat jonylasz.,Én is sokat...,jonylok,jonylom,lakik,-lik,1,PR2068,1989,nő,nem,2022-04-17_22h22.57.353,hesp_baseline,2021.2.3,Linux i686,11.93602292
,,,,,,,,,,,,,,,,,tribejletek,tribejeztek,right,8.851,0,72,72,132,1,79,tribejlik / tribejezik,"tribejlik, tribejezni",tek,NA,"János imád tribejezni, ezért sokat tribejlik.",Ti ritkán...,tribejletek,tribejeztek,cselekszik,-lik,2,PR2068,1989,nő,nem,2022-04-17_22h22.57.353,hesp_baseline,2021.2.3,Linux i686,11.93602292
,,,,,,,,,,,,,,,,,sortemnál,sortemnél,right,4.667,0,73,73,15,1,70,sortem,sortem,nál,e,Ez itt egy sortem.,Nincs is jobb egy jó...,sortemnél,sortemnál,dzsungel,NA,NA,PR2068,1989,nő,nem,2022-04-17_22h22.57.353,hesp_baseline,2021.2.3,Linux i686,11.93602292
,,,,,,,,,,,,,,,,,jóbecnak,jóbecnek,right,3.57,0,74,74,11,1,66,jóbec,jóbec,nak,e,Ez itt egy jóbec.,Elneveztem a kutyámat...,jóbecnek,jóbecnak,dzsungel,NA,NA,PR2068,1989,nő,nem,2022-04-17_22h22.57.353,hesp_baseline,2021.2.3,Linux i686,11.93602292
,,,,,,,,,,,,,,,,,trugzanak,trugoznak,right,7.06,0,75,75,146,1,93,trugzik / trugozik,"trugzik, trugozni",nek,NA,"János imád trugozni, ezért sokat trugzik.",Ők ritkán...,trugzanak,trugoznak,cselekszik,-zik,1,PR2068,1989,nő,nem,2022-04-17_22h22.57.353,hesp_baseline,2021.2.3,Linux i686,11.93602292
,,,,,,,,,,,,,,,,,lorjódzom,lorjódzok,right,5.43,0,76,76,88,1,89,lorjódzik,lorjódzol,NA,NA,Te bizony sokat lorjódzol.,Én is sokat...,lorjódzok,lorjódzom,lakik,-zik,2,PR2068,1989,nő,nem,2022-04-17_22h22.57.353,hesp_baseline,2021.2.3,Linux i686,11.93602292
,,,,,,,,,,,,,,,,,tranékban,tranékben,right,5.581,0,77,77,2,1,57,tranék,tranék,ban,é,Ez itt egy tranék.,Ott vagyunk a...,tranékben,tranékban,dzsungel,NA,NA,PR2068,1989,nő,nem,2022-04-17_22h22.57.353,hesp_baseline,2021.2.3,Linux i686,11.93602292
,,,,,,,,,,,,,,,,,klítegynél,klítegynál,left,3.973,0,78,78,5,1,60,klítegy,klítegy,nál,e,Ez itt egy klítegy.,Nincs is jobb egy jó...,klítegynél,klítegynál,dzsungel,NA,NA,PR2068,1989,nő,nem,2022-04-17_22h22.57.353,hesp_baseline,2021.2.3,Linux i686,11.93602292
,,,,,,,,,,,,,,,,,spihegzem,spihegzek,right,6.983,0,79,79,81,1,82,spihegzik,spihegzel,NA,NA,Te bizony sokat spihegzel.,Én is sokat...,spihegzek,spihegzem,lakik,-zik,2,PR2068,1989,nő,nem,2022-04-17_22h22.57.353,hesp_baseline,2021.2.3,Linux i686,11.93602292
,,,,,,,,,,,,,,,,,zarcégnál,zarcégnél,right,3.847,0,80,80,29,1,84,zarcég,zarcég,nál,é,Ez itt egy zarcég.,Nincs is jobb egy jó...,zarcégnél,zarcégnál,dzsungel,NA,NA,PR2068,1989,nő,nem,2022-04-17_22h22.57.353,hesp_baseline,2021.2.3,Linux i686,11.93602292
,,,,,,,,,,,,,,,,,friszlok,friszlom,right,4.204,0,81,81,97,1,98,friszlik,friszlasz,NA,NA,Te bizony sokat friszlasz.,Én is sokat...,friszlok,friszlom,lakik,-lik,1,PR2068,1989,nő,nem,2022-04-17_22h22.57.353,hesp_baseline,2021.2.3,Linux i686,11.93602292
,,,,,,,,,,,,,,,,,töglenek,tögöznek,left,8.198,0,82,82,156,1,103,töglik / tögözik,"töglik, tögözni",nek,NA,"János imád tögözni, ezért sokat töglik.",Ők ritkán...,töglenek,tögöznek,cselekszik,-lik,1,PR2068,1989,nő,nem,2022-04-17_22h22.57.353,hesp_baseline,2021.2.3,Linux i686,11.93602292
,,,,,,,,,,,,,,,,,brágédnak,brágédnek,right,8.024,0,83,83,45,1,100,brágéd,brágéd,nak,é,Ez itt egy brágéd.,Elneveztem a kutyámat...,brágédnek,brágédnak,dzsungel,NA,NA,PR2068,1989,nő,nem,2022-04-17_22h22.57.353,hesp_baseline,2021.2.3,Linux i686,11.93602292
,,,,,,,,,,,,,,,,,trírozunk,trírzunk,right,7.882,0,84,84,116,1,63,trírzik / trírozik,"trírzik, trírozni",ünk,NA,"János imád trírozni, ezért sokat trírzik.",Mi ritkán...,trírzunk,trírozunk,cselekszik,-zik,1,PR2068,1989,nő,nem,2022-04-17_22h22.57.353,hesp_baseline,2021.2.3,Linux i686,11.93602292
,,,,,,,,,,,,,,,,,líroznak,lírlanak,left,18.394,0,85,85,115,1,62,lírlik / lírozik,"lírlik, lírozni",nek,NA,"János imád lírozni, ezért sokat lírlik.",Ők ritkán...,lírlanak,líroznak,cselekszik,-lik,1,PR2068,1989,nő,nem,2022-04-17_22h22.57.353,hesp_baseline,2021.2.3,Linux i686,11.93602292
,,,,,,,,,,,,,,,,,garcépnál,garcépnél,left,5.022,0,86,86,38,1,93,garcép,garcép,nál,é,Ez itt egy garcép.,Nincs is jobb egy jó...,garcépnél,garcépnál,dzsungel,NA,NA,PR2068,1989,nő,nem,2022-04-17_22h22.57.353,hesp_baseline,2021.2.3,Linux i686,11.93602292
,,,,,,,,,,,,,,,,,cságyeltban,cságyeltben,right,3.485,0,87,87,10,1,65,cságyelt,cságyelt,ban,e,Ez itt egy cságyelt.,Ott vagyunk a...,cságyeltben,cságyeltban,dzsungel,NA,NA,PR2068,1989,nő,nem,2022-04-17_22h22.57.353,hesp_baseline,2021.2.3,Linux i686,11.93602292
,,,,,,,,,,,,,,,,,nyöböznek,nyöbzenek,right,5.427,0,88,88,152,1,99,nyöbzik / nyöbözik,"nyöbzik, nyöbözni",nek,NA,"János imád nyöbözni, ezért sokat nyöbzik.",Ők ritkán...,nyöbzenek,nyöböznek,cselekszik,-zik,1,PR2068,1989,nő,nem,2022-04-17_22h22.57.353,hesp_baseline,2021.2.3,Linux i686,11.93602292
,,,,,,,,,,,,,,,,,frivamozunk,frivamlunk,right,7.093,0,89,89,122,1,69,frivamlik / frivamozik,"frivamlik, frivamozni",ünk,NA,"János imád frivamozni, ezért sokat frivamlik.",Mi ritkán...,frivamlunk,frivamozunk,cselekszik,-lik,2,PR2068,1989,nő,nem,2022-04-17_22h22.57.353,hesp_baseline,2021.2.3,Linux i686,11.93602292
,,,,,,,,,,,,,,,,,sprogzok,sprogzom,right,4.556,0,90,90,89,1,90,sprogzik,sprogzol,NA,NA,Te bizony sokat sprogzol.,Én is sokat...,sprogzok,sprogzom,lakik,-zik,1,PR2068,1989,nő,nem,2022-04-17_22h22.57.353,hesp_baseline,2021.2.3,Linux i686,11.93602292
,,,,,,,,,,,,,,,,,zihencnek,zihencnak,left,3.467,0,91,91,52,1,107,zihenc,zihenc,nak,e,Ez itt egy zihenc.,Elneveztem a kutyámat...,zihencnek,zihencnak,dzsungel,NA,NA,PR2068,1989,nő,nem,2022-04-17_22h22.57.353,hesp_baseline,2021.2.3,Linux i686,11.93602292
,,,,,,,,,,,,,,,,,spizecnak,spizecnek,right,5.462,0,92,92,6,1,61,spizec,spizec,nak,e,Ez itt egy spizec.,Elneveztem a kutyámat...,spizecnek,spizecnak,dzsungel,NA,NA,PR2068,1989,nő,nem,2022-04-17_22h22.57.353,hesp_baseline,2021.2.3,Linux i686,11.93602292
,,,,,,,,,,,,,,,,,jábézben,jábézban,left,3.244,0,93,93,34,1,89,jábéz,jábéz,ban,é,Ez itt egy jábéz.,Ott vagyunk a...,jábézben,jábézban,dzsungel,NA,NA,PR2068,1989,nő,nem,2022-04-17_22h22.57.353,hesp_baseline,2021.2.3,Linux i686,11.93602292
,,,,,,,,,,,,,,,,,spiharoztok,spiharzotok,right,6.467,0,94,94,127,1,74,spiharzik / spiharozik,"spiharzik, spiharozni",tek,NA,"János imád spiharozni, ezért sokat spiharzik.",Ti ritkán...,spiharzotok,spiharoztok,cselekszik,-zik,2,PR2068,1989,nő,nem,2022-04-17_22h22.57.353,hesp_baseline,2021.2.3,Linux i686,11.93602292
,,,,,,,,,,,,,,,,,branylanak,branyoznak,left,6.62,0,95,95,136,1,83,branylik / branyozik,"branylik, branyozni",nek,NA,"János imád branyozni, ezért sokat branylik.",Ők ritkán...,branylanak,branyoznak,cselekszik,-lik,1,PR2068,1989,nő,nem,2022-04-17_22h22.57.353,hesp_baseline,2021.2.3,Linux i686,11.93602292
,,,,,,,,,,,,,,,,,bribékedtek,bribékszetek,right,7.176,0,96,96,141,1,88,bribékszik / bribékedik,"bribékszik, bribékedni",tek,NA,"János imád bribékedni, ezért sokat bribékszik.",Ti ritkán...,bribékszetek,bribékedtek,cselekszik,-szik,2,PR2068,1989,nő,nem,2022-04-17_22h22.57.353,hesp_baseline,2021.2.3,Linux i686,11.93602292
,,,,,,,,,,,,,,,,,fröjözünk,fröjlünk,right,5.254,0,97,97,117,1,64,fröjlik / fröjözik,"fröjlik, fröjözni",ünk,NA,"János imád fröjözni, ezért sokat fröjlik.",Mi ritkán...,fröjlünk,fröjözünk,cselekszik,-lik,1,PR2068,1989,nő,nem,2022-04-17_22h22.57.353,hesp_baseline,2021.2.3,Linux i686,11.93602292
,,,,,,,,,,,,,,,,,gúdenben,gúdenban,left,4.094,0,98,98,4,1,59,gúden,gúden,ban,e,Ez itt egy gúden.,Ott vagyunk a...,gúdenben,gúdenban,dzsungel,NA,NA,PR2068,1989,nő,nem,2022-04-17_22h22.57.353,hesp_baseline,2021.2.3,Linux i686,11.93602292
,,,,,,,,,,,,,,,,,zsigénnál,zsigénnél,right,3.229,0,99,99,12,1,67,zsigén,zsigén,nál,é,Ez itt egy zsigén.,Nincs is jobb egy jó...,zsigénnél,zsigénnál,dzsungel,NA,NA,PR2068,1989,nő,nem,2022-04-17_22h22.57.353,hesp_baseline,2021.2.3,Linux i686,11.93602292
,,,,,,,,,,,,,,,,,ítensban,ítensben,right,3.793,0,100,100,50,1,105,ítens,ítens,ban,e,Ez itt egy ítens.,Ott vagyunk a...,ítensben,ítensban,dzsungel,NA,NA,PR2068,1989,nő,nem,2022-04-17_22h22.57.353,hesp_baseline,2021.2.3,Linux i686,11.93602292
,,,,,,,,,,,,,,,,,kumlom,kumlok,left,3.349,0,101,101,105,1,106,kumlik,kumlasz,NA,NA,Te bizony sokat kumlasz.,Én is sokat...,kumlok,kumlom,lakik,-lik,1,PR2068,1989,nő,nem,2022-04-17_22h22.57.353,hesp_baseline,2021.2.3,Linux i686,11.93602292
,,,,,,,,,,,,,,,,,gilárzom,gilárzok,left,4.349,0,102,102,94,1,95,gilárzik,gilárzol,NA,NA,Te bizony sokat gilárzol.,Én is sokat...,gilárzok,gilárzom,lakik,-zik,2,PR2068,1989,nő,nem,2022-04-17_22h22.57.353,hesp_baseline,2021.2.3,Linux i686,11.93602292
,,,,,,,,,,,,,,,,,posoztok,poslotok,right,6.807,0,103,103,121,1,68,poslik / posozik,"poslik, posozni",tek,NA,"János imád posozni, ezért sokat poslik.",Ti ritkán...,poslotok,posoztok,cselekszik,-lik,1,PR2068,1989,nő,nem,2022-04-17_22h22.57.353,hesp_baseline,2021.2.3,Linux i686,11.93602292
,,,,,,,,,,,,,,,,,szanéjnek,szanéjnak,left,4.579,0,104,104,13,1,68,szanéj,szanéj,nak,é,Ez itt egy szanéj.,Elneveztem a kutyámat...,szanéjnek,szanéjnak,dzsungel,NA,NA,PR2068,1989,nő,nem,2022-04-17_22h22.57.353,hesp_baseline,2021.2.3,Linux i686,11.93602292
,,,,,,,,,,,,,,,,,hubonyoztok,hubonylotok,right,5.534,0,105,105,157,1,104,hubonylik / hubonyozik,"hubonylik, hubonyozni",tek,NA,"János imád hubonyozni, ezért sokat hubonylik.",Ti ritkán...,hubonylotok,hubonyoztok,cselekszik,-lik,2,PR2068,1989,nő,nem,2022-04-17_22h22.57.353,hesp_baseline,2021.2.3,Linux i686,11.93602292
,,,,,,,,,,,,,,,,,fájézban,fájézben,right,3.664,0,106,106,7,1,62,fájéz,fájéz,ban,é,Ez itt egy fájéz.,Ott vagyunk a...,fájézben,fájézban,dzsungel,NA,NA,PR2068,1989,nő,nem,2022-04-17_22h22.57.353,hesp_baseline,2021.2.3,Linux i686,11.93602292
,,,,,,,,,,,,,,,,,bingéjnek,bingéjnak,left,4.407,0,107,107,49,1,104,bingéj,bingéj,nak,é,Ez itt egy bingéj.,Elneveztem a kutyámat...,bingéjnek,bingéjnak,dzsungel,NA,NA,PR2068,1989,nő,nem,2022-04-17_22h22.57.353,hesp_baseline,2021.2.3,Linux i686,11.93602292
,,,,,,,,,,,,,,,,,dibágoztok,dibáglotok,right,5.808,0,108,108,154,1,101,dibáglik / dibágozik,"dibáglik, dibágozni",tek,NA,"János imád dibágozni, ezért sokat dibáglik.",Ti ritkán...,dibáglotok,dibágoztok,cselekszik,-lik,2,PR2068,1989,nő,nem,2022-04-17_22h22.57.353,hesp_baseline,2021.2.3,Linux i686,11.93602292
,,,,,,,,,,,,,,,,,péleslek,péleslem,left,5.861,0,109,109,73,1,74,péleslik,péleslesz,NA,NA,Te bizony sokat péleslesz.,Én is sokat...,péleslek,péleslem,lakik,-lik,2,PR2068,1989,nő,nem,2022-04-17_22h22.57.353,hesp_baseline,2021.2.3,Linux i686,11.93602292
,,,,,,,,,,,,,,,,,gihesztnek,gihesztnak,left,3.055,0,110,110,36,1,91,giheszt,giheszt,nak,e,Ez itt egy giheszt.,Elneveztem a kutyámat...,gihesztnek,gihesztnak,dzsungel,NA,NA,PR2068,1989,nő,nem,2022-04-17_22h22.57.353,hesp_baseline,2021.2.3,Linux i686,11.93602292
,,,,,,,,,,,,,,,,,csólorzom,csólorzok,right,5.386,0,111,111,102,1,103,csólorzik,csólorzol,NA,NA,Te bizony sokat csólorzol.,Én is sokat...,csólorzok,csólorzom,lakik,-zik,2,PR2068,1989,nő,nem,2022-04-17_22h22.57.353,hesp_baseline,2021.2.3,Linux i686,11.93602292
,,,,,,,,,,,,,,,,,prazozunk,prazlunk,left,7.353,0,112,112,119,1,66,prazlik / prazozik,"prazlik, prazozni",ünk,NA,"János imád prazozni, ezért sokat prazlik.",Mi ritkán...,prazlunk,prazozunk,cselekszik,-lik,1,PR2068,1989,nő,nem,2022-04-17_22h22.57.353,hesp_baseline,2021.2.3,Linux i686,11.93602292
,,,,,,,,,,,,,,,,,csimennál,csimennél,right,3.779,0,113,113,44,1,99,csimen,csimen,nál,e,Ez itt egy csimen.,Nincs is jobb egy jó...,csimennél,csimennál,dzsungel,NA,NA,PR2068,1989,nő,nem,2022-04-17_22h22.57.353,hesp_baseline,2021.2.3,Linux i686,11.93602292
,,,,,,,,,,,,,,,,,rapszeknél,rapszeknál,left,3.925,0,114,114,35,1,90,rapszek,rapszek,nál,e,Ez itt egy rapszek.,Nincs is jobb egy jó...,rapszeknél,rapszeknál,dzsungel,NA,NA,PR2068,1989,nő,nem,2022-04-17_22h22.57.353,hesp_baseline,2021.2.3,Linux i686,11.93602292
,,,,,,,,,,,,,,,,,sprebzenek,sprebeznek,left,11.105,0,115,115,139,1,86,sprebzik / sprebezik,"sprebzik, sprebezni",nek,NA,"János imád sprebezni, ezért sokat sprebzik.",Ők ritkán...,sprebzenek,sprebeznek,cselekszik,-zik,1,PR2068,1989,nő,nem,2022-04-17_22h22.57.353,hesp_baseline,2021.2.3,Linux i686,11.93602292
,,,,,,,,,,,,,,,,,plugzom,plugzok,left,3.69,0,116,116,60,1,61,plugzik,plugzol,NA,NA,Te bizony sokat plugzol.,Én is sokat...,plugzok,plugzom,lakik,-zik,1,PR2068,1989,nő,nem,2022-04-17_22h22.57.353,hesp_baseline,2021.2.3,Linux i686,11.93602292
,,,,,,,,,,,,,,,,,spatárzok,spatárzom,left,4.071,0,117,117,69,1,70,spatárzik,spatárzol,NA,NA,Te bizony sokat spatárzol.,Én is sokat...,spatárzok,spatárzom,lakik,-zik,2,PR2068,1989,nő,nem,2022-04-17_22h22.57.353,hesp_baseline,2021.2.3,Linux i686,11.93602292
,,,,,,,,,,,,,,,,,klűmlötök,klűmöztök,right,10.672,0,118,118,108,1,55,klűmlik / klűmözik,"klűmlik, klűmözni",tek,NA,"János imád klűmözni, ezért sokat klűmlik.",Ti ritkán...,klűmlötök,klűmöztök,cselekszik,-lik,1,PR2068,1989,nő,nem,2022-04-17_22h22.57.353,hesp_baseline,2021.2.3,Linux i686,11.93602292
,,,,,,,,,,,,,,,,,kluhéjnál,kluhéjnél,left,4.248,0,119,119,24,1,79,kluhéj,kluhéj,nál,é,Ez itt egy kluhéj.,Nincs is jobb egy jó...,kluhéjnél,kluhéjnál,dzsungel,NA,NA,PR2068,1989,nő,nem,2022-04-17_22h22.57.353,hesp_baseline,2021.2.3,Linux i686,11.93602292
,,,,,,,,,,,,,,,,,flerékedünk,flerékszünk,left,10.178,0,120,120,159,1,106,flerékszik / flerékedik,"flerékszik, flerékedni",ünk,NA,"János imád flerékedni, ezért sokat flerékszik.",Mi ritkán...,flerékszünk,flerékedünk,cselekszik,-szik,2,PR2068,1989,nő,nem,2022-04-17_22h22.57.353,hesp_baseline,2021.2.3,Linux i686,11.93602292
,,,,,,,,,,,,,,,,,ribegzek,ribegzem,left,3.839,0,121,121,63,1,64,ribegzik,ribegzel,NA,NA,Te bizony sokat ribegzel.,Én is sokat...,ribegzek,ribegzem,lakik,-zik,2,PR2068,1989,nő,nem,2022-04-17_22h22.57.353,hesp_baseline,2021.2.3,Linux i686,11.93602292
,,,,,,,,,,,,,,,,,spügzünk,spügözünk,right,7.755,0,122,122,143,1,90,spügzik / spügözik,"spügzik, spügözni",ünk,NA,"János imád spügözni, ezért sokat spügzik.",Mi ritkán...,spügzünk,spügözünk,cselekszik,-zik,1,PR2068,1989,nő,nem,2022-04-17_22h22.57.353,hesp_baseline,2021.2.3,Linux i686,11.93602292
,,,,,,,,,,,,,,,,,femlek,femlem,left,3.374,0,123,123,57,1,58,femlik,femlesz,NA,NA,Te bizony sokat femlesz.,Én is sokat...,femlek,femlem,lakik,-lik,1,PR2068,1989,nő,nem,2022-04-17_22h22.57.353,hesp_baseline,2021.2.3,Linux i686,11.93602292
,,,,,,,,,,,,,,,,,játlunk,játozunk,left,5.006,0,124,124,145,1,92,játlik / játozik,"játlik, játozni",ünk,NA,"János imád játozni, ezért sokat játlik.",Mi ritkán...,játlunk,játozunk,cselekszik,-lik,1,PR2068,1989,nő,nem,2022-04-17_22h22.57.353,hesp_baseline,2021.2.3,Linux i686,11.93602292
,,,,,,,,,,,,,,,,,pratelynek,pratelynak,left,3.652,0,125,125,47,1,102,prately,prately,nak,e,Ez itt egy prately.,Elneveztem a kutyámat...,pratelynek,pratelynak,dzsungel,NA,NA,PR2068,1989,nő,nem,2022-04-17_22h22.57.353,hesp_baseline,2021.2.3,Linux i686,11.93602292
,,,,,,,,,,,,,,,,,dihelynek,dihelynak,left,4.359,0,126,126,20,1,75,dihely,dihely,nak,e,Ez itt egy dihely.,Elneveztem a kutyámat...,dihelynek,dihelynak,dzsungel,NA,NA,PR2068,1989,nő,nem,2022-04-17_22h22.57.353,hesp_baseline,2021.2.3,Linux i686,11.93602292
,,,,,,,,,,,,,,,,,csubozunk,csubzunk,right,4.607,0,127,127,111,1,58,csubzik / csubozik,"csubzik, csubozni",ünk,NA,"János imád csubozni, ezért sokat csubzik.",Mi ritkán...,csubzunk,csubozunk,cselekszik,-zik,1,PR2068,1989,nő,nem,2022-04-17_22h22.57.353,hesp_baseline,2021.2.3,Linux i686,11.93602292
,,,,,,,,,,,,,,,,,mihágzotok,mihágoztok,left,6.871,0,128,128,118,1,65,mihágzik / mihágozik,"mihágzik, mihágozni",tek,NA,"János imád mihágozni, ezért sokat mihágzik.",Ti ritkán...,mihágzotok,mihágoztok,cselekszik,-zik,2,PR2068,1989,nő,nem,2022-04-17_22h22.57.353,hesp_baseline,2021.2.3,Linux i686,11.93602292
,,,,,,,,,,,,,,,,,fivénylek,fivénylem,left,3.399,0,129,129,78,1,79,fivénylik,fivénylesz,NA,NA,Te bizony sokat fivénylesz.,Én is sokat...,fivénylek,fivénylem,lakik,-lik,2,PR2068,1989,nő,nem,2022-04-17_22h22.57.353,hesp_baseline,2021.2.3,Linux i686,11.93602292
,,,,,,,,,,,,,,,,,brivegzem,brivegzek,left,4.177,0,130,130,70,1,71,brivegzik,brivegzel,NA,NA,Te bizony sokat brivegzel.,Én is sokat...,brivegzek,brivegzem,lakik,-zik,2,PR2068,1989,nő,nem,2022-04-17_22h22.57.353,hesp_baseline,2021.2.3,Linux i686,11.93602292
,,,,,,,,,,,,,,,,,míjozunk,míjzunk,right,6.119,0,131,131,114,1,61,míjzik / míjozik,"míjzik, míjozni",ünk,NA,"János imád míjozni, ezért sokat míjzik.",Mi ritkán...,míjzunk,míjozunk,cselekszik,-zik,1,PR2068,1989,nő,nem,2022-04-17_22h22.57.353,hesp_baseline,2021.2.3,Linux i686,11.93602292
,,,,,,,,,,,,,,,,,nidétban,nidétben,right,4.586,0,132,132,39,1,94,nidét,nidét,ban,é,Ez itt egy nidét.,Ott vagyunk a...,nidétben,nidétban,dzsungel,NA,NA,PR2068,1989,nő,nem,2022-04-17_22h22.57.353,hesp_baseline,2021.2.3,Linux i686,11.93602292
,,,,,,,,,,,,,,,,,klazérban,klazérben,right,3.266,0,133,133,51,1,106,klazér,klazér,ban,é,Ez itt egy klazér.,Ott vagyunk a...,klazérben,klazérban,dzsungel,NA,NA,PR2068,1989,nő,nem,2022-04-17_22h22.57.353,hesp_baseline,2021.2.3,Linux i686,11.93602292
,,,,,,,,,,,,,,,,,bivégszek,bivégszem,right,4.17,0,134,134,68,1,69,bivégszik,bivégszel,NA,NA,Te bizony sokat bivégszel.,Én is sokat...,bivégszek,bivégszem,lakik,-szik,2,PR2068,1989,nő,nem,2022-04-17_22h22.57.353,hesp_baseline,2021.2.3,Linux i686,11.93602292
,,,,,,,,,,,,,,,,,metégszenek,metégednek,left,5.335,0,135,135,112,1,59,metégszik / metégedik,"metégszik, metégedni",nek,NA,"János imád metégedni, ezért sokat metégszik.",Ők ritkán...,metégszenek,metégednek,cselekszik,-szik,2,PR2068,1989,nő,nem,2022-04-17_22h22.57.353,hesp_baseline,2021.2.3,Linux i686,11.93602292
,,,,,,,,,,,,,,,,,gyihegeztek,gyihegzetek,right,5.862,0,136,136,124,1,71,gyihegzik / gyihegezik,"gyihegzik, gyihegezni",tek,NA,"János imád gyihegezni, ezért sokat gyihegzik.",Ti ritkán...,gyihegzetek,gyihegeztek,cselekszik,-zik,2,PR2068,1989,nő,nem,2022-04-17_22h22.57.353,hesp_baseline,2021.2.3,Linux i686,11.93602292
,,,,,,,,,,,,,,,,,spüjzöm,spüjzök,right,4.235,0,137,137,59,1,60,spüjzik,spüjzöl,NA,NA,Te bizony sokat spüjzöl.,Én is sokat...,spüjzök,spüjzöm,lakik,-zik,1,PR2068,1989,nő,nem,2022-04-17_22h22.57.353,hesp_baseline,2021.2.3,Linux i686,11.93602292
,,,,,,,,,,,,,,,,,fluboklotok,flubokoztok,left,5.145,0,138,138,151,1,98,fluboklik / flubokozik,"fluboklik, flubokozni",tek,NA,"János imád flubokozni, ezért sokat fluboklik.",Ti ritkán...,fluboklotok,flubokoztok,cselekszik,-lik,2,PR2068,1989,nő,nem,2022-04-17_22h22.57.353,hesp_baseline,2021.2.3,Linux i686,11.93602292
,,,,,,,,,,,,,,,,,flátszom,flátszok,left,3.49,0,139,139,98,1,99,flátszik,flátszol,NA,NA,Te bizony sokat flátszol.,Én is sokat...,flátszok,flátszom,lakik,-szik,1,PR2068,1989,nő,nem,2022-04-17_22h22.57.353,hesp_baseline,2021.2.3,Linux i686,11.93602292
,,,,,,,,,,,,,,,,,flézletek,flézeztek,left,5.794,0,140,140,134,1,81,flézlik / flézezik,"flézlik, flézezni",tek,NA,"János imád flézezni, ezért sokat flézlik.",Ti ritkán...,flézletek,flézeztek,cselekszik,-lik,1,PR2068,1989,nő,nem,2022-04-17_22h22.57.353,hesp_baseline,2021.2.3,Linux i686,11.93602292
,,,,,,,,,,,,,,,,,fibamlom,fibamlok,right,9.676,0,141,141,65,1,66,fibamlik,fibamlasz,NA,NA,Te bizony sokat fibamlasz.,Én is sokat...,fibamlok,fibamlom,lakik,-lik,2,PR2068,1989,nő,nem,2022-04-17_22h22.57.353,hesp_baseline,2021.2.3,Linux i686,11.93602292
,,,,,,,,,,,,,,,,,spivélnek,spivélnak,left,4.142,0,142,142,27,1,82,spivél,spivél,nak,é,Ez itt egy spivél.,Elneveztem a kutyámat...,spivélnek,spivélnak,dzsungel,NA,NA,PR2068,1989,nő,nem,2022-04-17_22h22.57.353,hesp_baseline,2021.2.3,Linux i686,11.93602292
,,,,,,,,,,,,,,,,,dárakszunk,dárakodunk,right,6.637,0,143,143,126,1,73,dárakszik / dárakodik,"dárakszik, dárakodni",ünk,NA,"János imád dárakodni, ezért sokat dárakszik.",Mi ritkán...,dárakszunk,dárakodunk,cselekszik,-szik,2,PR2068,1989,nő,nem,2022-04-17_22h22.57.353,hesp_baseline,2021.2.3,Linux i686,11.93602292
,,,,,,,,,,,,,,,,,sprűröznek,sprűrlenek,left,5.13,0,144,144,135,1,82,sprűrlik / sprűrözik,"sprűrlik, sprűrözni",nek,NA,"János imád sprűrözni, ezért sokat sprűrlik.",Ők ritkán...,sprűrlenek,sprűröznek,cselekszik,-lik,1,PR2068,1989,nő,nem,2022-04-17_22h22.57.353,hesp_baseline,2021.2.3,Linux i686,11.93602292
,,,,,,,,,,,,,,,,,prilepedünk,prilepszünk,right,7.056,0,145,145,161,1,108,prilepszik / prilepedik,"prilepszik, prilepedni",ünk,NA,"János imád prilepedni, ezért sokat prilepszik.",Mi ritkán...,prilepszünk,prilepedünk,cselekszik,-szik,2,PR2068,1989,nő,nem,2022-04-17_22h22.57.353,hesp_baseline,2021.2.3,Linux i686,11.93602292
,,,,,,,,,,,,,,,,,flehékszem,flehékszek,right,5.987,0,146,146,77,1,78,flehékszik,flehékszel,NA,NA,Te bizony sokat flehékszel.,Én is sokat...,flehékszek,flehékszem,lakik,-szik,2,PR2068,1989,nő,nem,2022-04-17_22h22.57.353,hesp_baseline,2021.2.3,Linux i686,11.93602292
,,,,,,,,,,,,,,,,,dilakoztok,dilaklotok,right,6,0,147,147,158,1,105,dilaklik / dilakozik,"dilaklik, dilakozni",tek,NA,"János imád dilakozni, ezért sokat dilaklik.",Ti ritkán...,dilaklotok,dilakoztok,cselekszik,-lik,2,PR2068,1989,nő,nem,2022-04-17_22h22.57.353,hesp_baseline,2021.2.3,Linux i686,11.93602292
,,,,,,,,,,,,,,,,,szűslöm,szűslök,left,2.892,0,148,148,85,1,86,szűslik,szűslesz,NA,NA,Te bizony sokat szűslesz.,Én is sokat...,szűslök,szűslöm,lakik,-lik,1,PR2068,1989,nő,nem,2022-04-17_22h22.57.353,hesp_baseline,2021.2.3,Linux i686,11.93602292
,,,,,,,,,,,,,,,,,flagánylom,flagánylok,right,4.524,0,149,149,82,1,83,flagánylik,flagánylasz,NA,NA,Te bizony sokat flagánylasz.,Én is sokat...,flagánylok,flagánylom,lakik,-lik,2,PR2068,1989,nő,nem,2022-04-17_22h22.57.353,hesp_baseline,2021.2.3,Linux i686,11.93602292
,,,,,,,,,,,,,,,,,pribemlem,pribemlek,right,4.933,0,150,150,107,1,108,pribemlik,pribemlesz,NA,NA,Te bizony sokat pribemlesz.,Én is sokat...,pribemlek,pribemlem,lakik,-lik,2,PR2068,1989,nő,nem,2022-04-17_22h22.57.353,hesp_baseline,2021.2.3,Linux i686,11.93602292
,,,,,,,,,,,,,,,,,flürököztök,flüröklötök,right,6.182,0,151,151,149,1,96,flüröklik / flüröközik,"flüröklik, flüröközni",tek,NA,"János imád flüröközni, ezért sokat flüröklik.",Ti ritkán...,flüröklötök,flürököztök,cselekszik,-lik,2,PR2068,1989,nő,nem,2022-04-17_22h22.57.353,hesp_baseline,2021.2.3,Linux i686,11.93602292
,,,,,,,,,,,,,,,,,ronvetnek,ronvetnak,left,3.997,0,152,152,9,1,64,ronvet,ronvet,nak,e,Ez itt egy ronvet.,Elneveztem a kutyámat...,ronvetnek,ronvetnak,dzsungel,NA,NA,PR2068,1989,nő,nem,2022-04-17_22h22.57.353,hesp_baseline,2021.2.3,Linux i686,11.93602292
,,,,,,,,,,,,,,,,,flűröklöm,flűröklök,left,4.157,0,153,153,91,1,92,flűröklik,flűröklesz,NA,NA,Te bizony sokat flűröklesz.,Én is sokat...,flűröklök,flűröklöm,lakik,-lik,2,PR2068,1989,nő,nem,2022-04-17_22h22.57.353,hesp_baseline,2021.2.3,Linux i686,11.93602292
,,,,,,,,,,,,,,,,,tosélyben,tosélyban,right,3.293,0,154,154,25,1,80,tosély,tosély,ban,é,Ez itt egy tosély.,Ott vagyunk a...,tosélyben,tosélyban,dzsungel,NA,NA,PR2068,1989,nő,nem,2022-04-17_22h22.57.353,hesp_baseline,2021.2.3,Linux i686,11.93602292
,,,,,,,,,,,,,,,,,nuroklunk,nurokozunk,left,5.602,0,155,155,131,1,78,nuroklik / nurokozik,"nuroklik, nurokozni",ünk,NA,"János imád nurokozni, ezért sokat nuroklik.",Mi ritkán...,nuroklunk,nurokozunk,cselekszik,-lik,2,PR2068,1989,nő,nem,2022-04-17_22h22.57.353,hesp_baseline,2021.2.3,Linux i686,11.93602292
,,,,,,,,,,,,,,,,,molszotok,molodtok,left,7.551,0,156,156,142,1,89,molszik / molodik,"molszik, molodni",tek,NA,"János imád molodni, ezért sokat molszik.",Ti ritkán...,molszotok,molodtok,cselekszik,-szik,1,PR2068,1989,nő,nem,2022-04-17_22h22.57.353,hesp_baseline,2021.2.3,Linux i686,11.93602292
,,,,,,,,,,,,,,,,,gihamlanak,gihamoznak,right,6.427,0,157,157,133,1,80,gihamlik / gihamozik,"gihamlik, gihamozni",nek,NA,"János imád gihamozni, ezért sokat gihamlik.",Ők ritkán...,gihamlanak,gihamoznak,cselekszik,-lik,2,PR2068,1989,nő,nem,2022-04-17_22h22.57.353,hesp_baseline,2021.2.3,Linux i686,11.93602292
,,,,,,,,,,,,,,,,,pivegszek,pivegszem,right,3.355,0,158,158,99,1,100,pivegszik,pivegszel,NA,NA,Te bizony sokat pivegszel.,Én is sokat...,pivegszek,pivegszem,lakik,-szik,2,PR2068,1989,nő,nem,2022-04-17_22h22.57.353,hesp_baseline,2021.2.3,Linux i686,11.93602292
,,,,,,,,,,,,,,,,,tumélynál,tumélynél,right,3.518,0,159,159,28,1,83,tumély,tumély,nál,é,Ez itt egy tumély.,Nincs is jobb egy jó...,tumélynél,tumélynál,dzsungel,NA,NA,PR2068,1989,nő,nem,2022-04-17_22h22.57.353,hesp_baseline,2021.2.3,Linux i686,11.93602292
,,,,,,,,,,,,,,,,,spáraklom,spáraklok,left,6.281,0,160,160,96,1,97,spáraklik,spáraklasz,NA,NA,Te bizony sokat spáraklasz.,Én is sokat...,spáraklok,spáraklom,lakik,-lik,2,PR2068,1989,nő,nem,2022-04-17_22h22.57.353,hesp_baseline,2021.2.3,Linux i686,11.93602292
,,,,,,,,,,,,,,,,,lijeznek,lijeznak,left,4.451,0,161,161,40,1,95,lijez,lijez,nak,e,Ez itt egy lijez.,Elneveztem a kutyámat...,lijeznek,lijeznak,dzsungel,NA,NA,PR2068,1989,nő,nem,2022-04-17_22h22.57.353,hesp_baseline,2021.2.3,Linux i686,11.93602292
