my_list,key.keys,key.rt,key_2.keys,key_2.rt,keyboard_input_2.keys,keyboard_input_2.rt,key_3.keys,key_3.rt,keyboard_input_3.keys,keyboard_input_3.rt,key_4.keys,key_4.rt,keyboard_input_4.keys,keyboard_input_4.rt,key_5.keys,key_5.rt,my_button1,my_button2,keyboard_input.keys,keyboard_input.rt,withinBlock.thisRepN,withinBlock.thisTrialN,withinBlock.thisN,withinBlock.thisIndex,withinBlock.ran,rowname,word,prompt,suffix,vowel,carrier_sentence,target_sentence,target1,target2,category,derivational,nsyl,Azonosító,Melyik évben születtél?,Mi a nemed?,Tanultál nyelvészetet?,date,expName,psychopyVersion,OS,frameRate
list1.csv,space,17.8615,space,9.8492,right,11.382,space,17.3726,left,5.5337,space,10.5174,left,10.2034,space,17.975,aglom,aglok,left,9.115,0,0,0,100,1,47,aglik,aglasz,NA,NA,Te bizony sokat aglasz.,Én is sokat...,aglok,aglom,lakik,-lik,1,PR2088,2002,nő,nem,2022-04-19_22h58.21.004,hesp_baseline,2021.2.3,Win32,58.77167205
,,,,,,,,,,,,,,,,,bejzünk,bejezünk,right,9.6411,0,1,1,148,1,41,bejzik / bejezik,"bejzik, bejezni",ünk,NA,"János imád bejezni, ezért sokat bejzik.",Mi ritkán...,bejzünk,bejezünk,cselekszik,-zik,1,PR2088,2002,nő,nem,2022-04-19_22h58.21.004,hesp_baseline,2021.2.3,Win32,58.77167205
,,,,,,,,,,,,,,,,,gatáglunk,gatágozunk,left,12.4578,0,2,2,137,1,30,gatáglik / gatágozik,"gatáglik, gatágozni",ünk,NA,"János imád gatágozni, ezért sokat gatáglik.",Mi ritkán...,gatáglunk,gatágozunk,cselekszik,-lik,2,PR2088,2002,nő,nem,2022-04-19_22h58.21.004,hesp_baseline,2021.2.3,Win32,58.77167205
,,,,,,,,,,,,,,,,,brubzom,brubzok,left,7.6639,0,3,3,92,1,39,brubzik,brubzol,NA,NA,Te bizony sokat brubzol.,Én is sokat...,brubzok,brubzom,lakik,-zik,1,PR2088,2002,nő,nem,2022-04-19_22h58.21.004,hesp_baseline,2021.2.3,Win32,58.77167205
,,,,,,,,,,,,,,,,,bötőrzünk,bötőrözünk,left,7.1373,0,4,4,158,1,51,bötőrzik / bötőrözik,"bötőrzik, bötőrözni",ünk,NA,"János imád bötőrözni, ezért sokat bötőrzik.",Mi ritkán...,bötőrzünk,bötőrözünk,cselekszik,-zik,2,PR2088,2002,nő,nem,2022-04-19_22h58.21.004,hesp_baseline,2021.2.3,Win32,58.77167205
,,,,,,,,,,,,,,,,,jorzégnek,jorzégnak,left,10.0458,0,5,5,45,1,46,jorzég,jorzég,nak,é,Ez itt egy jorzég.,Elneveztem a kutyámat...,jorzégnek,jorzégnak,dzsungel,NA,NA,PR2088,2002,nő,nem,2022-04-19_22h58.21.004,hesp_baseline,2021.2.3,Win32,58.77167205
,,,,,,,,,,,,,,,,,jüslök,jüslöm,left,95.8846,0,6,6,56,1,3,jüslik,jüslesz,NA,NA,Te bizony sokat jüslesz.,Én is sokat...,jüslök,jüslöm,lakik,-lik,1,PR2088,2002,nő,nem,2022-04-19_22h58.21.004,hesp_baseline,2021.2.3,Win32,58.77167205
,,,,,,,,,,,,,,,,,mísozunk,míslunk,right,9.5891,0,7,7,123,1,16,míslik / mísozik,"míslik, mísozni",ünk,NA,"János imád mísozni, ezért sokat míslik.",Mi ritkán...,míslunk,mísozunk,cselekszik,-lik,1,PR2088,2002,nő,nem,2022-04-19_22h58.21.004,hesp_baseline,2021.2.3,Win32,58.77167205
,,,,,,,,,,,,,,,,,trodélyben,trodélyban,right,5.1978,0,8,8,28,1,29,trodély,trodély,ban,é,Ez itt egy trodély.,Ott vagyunk a...,trodélyben,trodélyban,dzsungel,NA,NA,PR2088,2002,nő,nem,2022-04-19_22h58.21.004,hesp_baseline,2021.2.3,Win32,58.77167205
,,,,,,,,,,,,,,,,,pekszünk,pekedünk,left,5.3813,0,9,9,161,1,54,pekszik / pekedik,"pekszik, pekedni",ünk,NA,"János imád pekedni, ezért sokat pekszik.",Mi ritkán...,pekszünk,pekedünk,cselekszik,-szik,1,PR2088,2002,nő,nem,2022-04-19_22h58.21.004,hesp_baseline,2021.2.3,Win32,58.77167205
,,,,,,,,,,,,,,,,,nyizozunk,nyizlunk,right,4.8659,0,10,10,135,1,28,nyizlik / nyizozik,"nyizlik, nyizozni",ünk,NA,"János imád nyizozni, ezért sokat nyizlik.",Mi ritkán...,nyizlunk,nyizozunk,cselekszik,-lik,1,PR2088,2002,nő,nem,2022-04-19_22h58.21.004,hesp_baseline,2021.2.3,Win32,58.77167205
,,,,,,,,,,,,,,,,,buhényben,buhényban,right,4.1232,0,11,11,43,1,44,buhény,buhény,ban,é,Ez itt egy buhény.,Ott vagyunk a...,buhényben,buhényban,dzsungel,NA,NA,PR2088,2002,nő,nem,2022-04-19_22h58.21.004,hesp_baseline,2021.2.3,Win32,58.77167205
,,,,,,,,,,,,,,,,,flivegzenek,flivegeznek,right,11.4117,0,12,12,138,1,31,flivegzik / flivegezik,"flivegzik, flivegezni",nek,NA,"János imád flivegezni, ezért sokat flivegzik.",Ők ritkán...,flivegzenek,flivegeznek,cselekszik,-zik,2,PR2088,2002,nő,nem,2022-04-19_22h58.21.004,hesp_baseline,2021.2.3,Win32,58.77167205
,,,,,,,,,,,,,,,,,hosétnek,hosétnak,right,8.9639,0,13,13,8,1,9,hosét,hosét,nak,é,Ez itt egy hosét.,Elneveztem a kutyámat...,hosétnek,hosétnak,dzsungel,NA,NA,PR2088,2002,nő,nem,2022-04-19_22h58.21.004,hesp_baseline,2021.2.3,Win32,58.77167205
,,,,,,,,,,,,,,,,,jalrénynál,jalrénynél,right,9.7472,0,14,14,0,1,1,jalrény,jalrény,nál,é,Ez itt egy jalrény.,Nincs is jobb egy jó...,jalrénynél,jalrénynál,dzsungel,NA,NA,PR2088,2002,nő,nem,2022-04-19_22h58.21.004,hesp_baseline,2021.2.3,Win32,58.77167205
,,,,,,,,,,,,,,,,,dábegyben,dábegyban,left,4.1894,0,15,15,6,1,7,dábegy,dábegy,ban,e,Ez itt egy dábegy.,Ott vagyunk a...,dábegyben,dábegyban,dzsungel,NA,NA,PR2088,2002,nő,nem,2022-04-19_22h58.21.004,hesp_baseline,2021.2.3,Win32,58.77167205
,,,,,,,,,,,,,,,,,zsúdelnek,zsúdelnak,left,4.5729,0,16,16,14,1,15,zsúdel,zsúdel,nak,e,Ez itt egy zsúdel.,Elneveztem a kutyámat...,zsúdelnek,zsúdelnak,dzsungel,NA,NA,PR2088,2002,nő,nem,2022-04-19_22h58.21.004,hesp_baseline,2021.2.3,Win32,58.77167205
,,,,,,,,,,,,,,,,,brobódzom,brobódzok,right,6.5287,0,17,17,96,1,43,brobódzik,brobódzol,NA,NA,Te bizony sokat brobódzol.,Én is sokat...,brobódzok,brobódzom,lakik,-zik,2,PR2088,2002,nő,nem,2022-04-19_22h58.21.004,hesp_baseline,2021.2.3,Win32,58.77167205
,,,,,,,,,,,,,,,,,vihapodunk,vihapszunk,left,16.6704,0,18,18,112,1,5,vihapszik / vihapodik,"vihapszik, vihapodni",ünk,NA,"János imád vihapodni, ezért sokat vihapszik.",Mi ritkán...,vihapszunk,vihapodunk,cselekszik,-szik,2,PR2088,2002,nő,nem,2022-04-19_22h58.21.004,hesp_baseline,2021.2.3,Win32,58.77167205
,,,,,,,,,,,,,,,,,trihagzok,trihagzom,left,3.7336,0,19,19,83,1,30,trihagzik,trihagzol,NA,NA,Te bizony sokat trihagzol.,Én is sokat...,trihagzok,trihagzom,lakik,-zik,2,PR2088,2002,nő,nem,2022-04-19_22h58.21.004,hesp_baseline,2021.2.3,Win32,58.77167205
,,,,,,,,,,,,,,,,,sihennél,sihennál,left,4.2231,0,20,20,18,1,19,sihen,sihen,nál,e,Ez itt egy sihen.,Nincs is jobb egy jó...,sihennél,sihennál,dzsungel,NA,NA,PR2088,2002,nő,nem,2022-04-19_22h58.21.004,hesp_baseline,2021.2.3,Win32,58.77167205
,,,,,,,,,,,,,,,,,tágarzunk,tágarozunk,right,7.5782,0,21,21,155,1,48,tágarzik / tágarozik,"tágarzik, tágarozni",ünk,NA,"János imád tágarozni, ezért sokat tágarzik.",Mi ritkán...,tágarzunk,tágarozunk,cselekszik,-zik,2,PR2088,2002,nő,nem,2022-04-19_22h58.21.004,hesp_baseline,2021.2.3,Win32,58.77167205
,,,,,,,,,,,,,,,,,dunkészban,dunkészben,left,4.8651,0,22,22,24,1,25,dunkész,dunkész,ban,é,Ez itt egy dunkész.,Ott vagyunk a...,dunkészben,dunkészban,dzsungel,NA,NA,PR2088,2002,nő,nem,2022-04-19_22h58.21.004,hesp_baseline,2021.2.3,Win32,58.77167205
,,,,,,,,,,,,,,,,,jurlunk,jurozunk,left,4.7248,0,23,23,111,1,4,jurlik / jurozik,"jurlik, jurozni",ünk,NA,"János imád jurozni, ezért sokat jurlik.",Mi ritkán...,jurlunk,jurozunk,cselekszik,-lik,1,PR2088,2002,nő,nem,2022-04-19_22h58.21.004,hesp_baseline,2021.2.3,Win32,58.77167205
,,,,,,,,,,,,,,,,,tragzok,tragzom,left,3.3728,0,24,24,90,1,37,tragzik,tragzol,NA,NA,Te bizony sokat tragzol.,Én is sokat...,tragzok,tragzom,lakik,-zik,1,PR2088,2002,nő,nem,2022-04-19_22h58.21.004,hesp_baseline,2021.2.3,Win32,58.77167205
,,,,,,,,,,,,,,,,,zsopédban,zsopédben,left,2.7699,0,25,25,50,1,51,zsopéd,zsopéd,ban,é,Ez itt egy zsopéd.,Ott vagyunk a...,zsopédben,zsopédban,dzsungel,NA,NA,PR2088,2002,nő,nem,2022-04-19_22h58.21.004,hesp_baseline,2021.2.3,Win32,58.77167205
,,,,,,,,,,,,,,,,,brarlom,brarlok,right,6.557,0,26,26,71,1,18,brarlik,brarlasz,NA,NA,Te bizony sokat brarlasz.,Én is sokat...,brarlok,brarlom,lakik,-lik,1,PR2088,2002,nő,nem,2022-04-19_22h58.21.004,hesp_baseline,2021.2.3,Win32,58.77167205
,,,,,,,,,,,,,,,,,friheglünk,frihegezünk,left,6.525,0,27,27,132,1,25,friheglik / frihegezik,"friheglik, frihegezni",ünk,NA,"János imád frihegezni, ezért sokat friheglik.",Mi ritkán...,friheglünk,frihegezünk,cselekszik,-lik,2,PR2088,2002,nő,nem,2022-04-19_22h58.21.004,hesp_baseline,2021.2.3,Win32,58.77167205
,,,,,,,,,,,,,,,,,nyülöklenek,nyülököznek,right,7.7634,0,28,28,108,1,1,nyülöklik / nyülöközik,"nyülöklik, nyülöközni",nek,NA,"János imád nyülöközni, ezért sokat nyülöklik.",Ők ritkán...,nyülöklenek,nyülököznek,cselekszik,-lik,2,PR2088,2002,nő,nem,2022-04-19_22h58.21.004,hesp_baseline,2021.2.3,Win32,58.77167205
,,,,,,,,,,,,,,,,,prugorzotok,prugoroztok,right,19.5285,0,29,29,116,1,9,prugorzik / prugorozik,"prugorzik, prugorozni",tek,NA,"János imád prugorozni, ezért sokat prugorzik.",Ti ritkán...,prugorzotok,prugoroztok,cselekszik,-zik,2,PR2088,2002,nő,nem,2022-04-19_22h58.21.004,hesp_baseline,2021.2.3,Win32,58.77167205
,,,,,,,,,,,,,,,,,dutecnál,dutecnél,right,10.6432,0,30,30,22,1,23,dutec,dutec,nál,e,Ez itt egy dutec.,Nincs is jobb egy jó...,dutecnél,dutecnál,dzsungel,NA,NA,PR2088,2002,nő,nem,2022-04-19_22h58.21.004,hesp_baseline,2021.2.3,Win32,58.77167205
,,,,,,,,,,,,,,,,,gihejlünk,gihejezünk,left,7.274,0,31,31,146,1,39,gihejlik / gihejezik,"gihejlik, gihejezni",ünk,NA,"János imád gihejezni, ezért sokat gihejlik.",Mi ritkán...,gihejlünk,gihejezünk,cselekszik,-lik,2,PR2088,2002,nő,nem,2022-04-19_22h58.21.004,hesp_baseline,2021.2.3,Win32,58.77167205
,,,,,,,,,,,,,,,,,brüszlötök,brüszöztök,right,8.7142,0,32,32,130,1,23,brüszlik / brüszözik,"brüszlik, brüszözni",tek,NA,"János imád brüszözni, ezért sokat brüszlik.",Ti ritkán...,brüszlötök,brüszöztök,cselekszik,-lik,1,PR2088,2002,nő,nem,2022-04-19_22h58.21.004,hesp_baseline,2021.2.3,Win32,58.77167205
,,,,,,,,,,,,,,,,,pöröztök,pörzötök,right,2.6574,0,33,33,153,1,46,pörzik / pörözik,"pörzik, pörözni",tek,NA,"János imád pörözni, ezért sokat pörzik.",Ti ritkán...,pörzötök,pöröztök,cselekszik,-zik,1,PR2088,2002,nő,nem,2022-04-19_22h58.21.004,hesp_baseline,2021.2.3,Win32,58.77167205
,,,,,,,,,,,,,,,,,plövőrzök,plövőrzöm,left,8.8671,0,34,34,58,1,5,plövőrzik,plövőrzöl,NA,NA,Te bizony sokat plövőrzöl.,Én is sokat...,plövőrzök,plövőrzöm,lakik,-zik,2,PR2088,2002,nő,nem,2022-04-19_22h58.21.004,hesp_baseline,2021.2.3,Win32,58.77167205
,,,,,,,,,,,,,,,,,rokszok,rokszom,left,3.8444,0,35,35,101,1,48,rokszik,rokszol,NA,NA,Te bizony sokat rokszol.,Én is sokat...,rokszok,rokszom,lakik,-szik,1,PR2088,2002,nő,nem,2022-04-19_22h58.21.004,hesp_baseline,2021.2.3,Win32,58.77167205
,,,,,,,,,,,,,,,,,kalhésznak,kalhésznek,right,4.9633,0,36,36,46,1,47,kalhész,kalhész,nak,é,Ez itt egy kalhész.,Elneveztem a kutyámat...,kalhésznek,kalhésznak,dzsungel,NA,NA,PR2088,2002,nő,nem,2022-04-19_22h58.21.004,hesp_baseline,2021.2.3,Win32,58.77167205
,,,,,,,,,,,,,,,,,pisélyban,pisélyben,right,5.9899,0,37,37,21,1,22,pisély,pisély,ban,é,Ez itt egy pisély.,Ott vagyunk a...,pisélyben,pisélyban,dzsungel,NA,NA,PR2088,2002,nő,nem,2022-04-19_22h58.21.004,hesp_baseline,2021.2.3,Win32,58.77167205
,,,,,,,,,,,,,,,,,dajrensnál,dajrensnél,right,3.4903,0,38,38,49,1,50,dajrens,dajrens,nál,e,Ez itt egy dajrens.,Nincs is jobb egy jó...,dajrensnél,dajrensnál,dzsungel,NA,NA,PR2088,2002,nő,nem,2022-04-19_22h58.21.004,hesp_baseline,2021.2.3,Win32,58.77167205
,,,,,,,,,,,,,,,,,naremban,naremben,right,5.9256,0,39,39,2,1,3,narem,narem,ban,e,Ez itt egy narem.,Ott vagyunk a...,naremben,naremban,dzsungel,NA,NA,PR2088,2002,nő,nem,2022-04-19_22h58.21.004,hesp_baseline,2021.2.3,Win32,58.77167205
,,,,,,,,,,,,,,,,,nuhétnál,nuhétnél,left,3.5642,0,40,40,29,1,30,nuhét,nuhét,nál,é,Ez itt egy nuhét.,Nincs is jobb egy jó...,nuhétnél,nuhétnál,dzsungel,NA,NA,PR2088,2002,nő,nem,2022-04-19_22h58.21.004,hesp_baseline,2021.2.3,Win32,58.77167205
,,,,,,,,,,,,,,,,,filágzok,filágzom,right,6.21,0,41,41,102,1,49,filágzik,filágzol,NA,NA,Te bizony sokat filágzol.,Én is sokat...,filágzok,filágzom,lakik,-zik,2,PR2088,2002,nő,nem,2022-04-19_22h58.21.004,hesp_baseline,2021.2.3,Win32,58.77167205
,,,,,,,,,,,,,,,,,gábédnál,gábédnél,left,4.6884,0,42,42,39,1,40,gábéd,gábéd,nál,é,Ez itt egy gábéd.,Nincs is jobb egy jó...,gábédnél,gábédnál,dzsungel,NA,NA,PR2088,2002,nő,nem,2022-04-19_22h58.21.004,hesp_baseline,2021.2.3,Win32,58.77167205
,,,,,,,,,,,,,,,,,riványlotok,riványoztok,left,5.8448,0,43,43,117,1,10,riványlik / riványozik,"riványlik, riványozni",tek,NA,"János imád riványozni, ezért sokat riványlik.",Ti ritkán...,riványlotok,riványoztok,cselekszik,-lik,2,PR2088,2002,nő,nem,2022-04-19_22h58.21.004,hesp_baseline,2021.2.3,Win32,58.77167205
,,,,,,,,,,,,,,,,,dujzanak,dujoznak,left,5.1774,0,44,44,128,1,21,dujzik / dujozik,"dujzik, dujozni",nek,NA,"János imád dujozni, ezért sokat dujzik.",Ők ritkán...,dujzanak,dujoznak,cselekszik,-zik,1,PR2088,2002,nő,nem,2022-04-19_22h58.21.004,hesp_baseline,2021.2.3,Win32,58.77167205
,,,,,,,,,,,,,,,,,pebzek,pebzem,left,4.4069,0,45,45,57,1,4,pebzik,pebzel,NA,NA,Te bizony sokat pebzel.,Én is sokat...,pebzek,pebzem,lakik,-zik,1,PR2088,2002,nő,nem,2022-04-19_22h58.21.004,hesp_baseline,2021.2.3,Win32,58.77167205
,,,,,,,,,,,,,,,,,zsalrénnak,zsalrénnek,right,4.5234,0,46,46,19,1,20,zsalrén,zsalrén,nak,é,Ez itt egy zsalrén.,Elneveztem a kutyámat...,zsalrénnek,zsalrénnak,dzsungel,NA,NA,PR2088,2002,nő,nem,2022-04-19_22h58.21.004,hesp_baseline,2021.2.3,Win32,58.77167205
,,,,,,,,,,,,,,,,,vismernál,vismernél,right,3.3242,0,47,47,13,1,14,vismer,vismer,nál,e,Ez itt egy vismer.,Nincs is jobb egy jó...,vismernél,vismernál,dzsungel,NA,NA,PR2088,2002,nő,nem,2022-04-19_22h58.21.004,hesp_baseline,2021.2.3,Win32,58.77167205
,,,,,,,,,,,,,,,,,drügzöm,drügzök,right,4.19,0,48,48,72,1,19,drügzik,drügzöl,NA,NA,Te bizony sokat drügzöl.,Én is sokat...,drügzök,drügzöm,lakik,-zik,1,PR2088,2002,nő,nem,2022-04-19_22h58.21.004,hesp_baseline,2021.2.3,Win32,58.77167205
,,,,,,,,,,,,,,,,,csibagoztok,csibagzotok,right,10.1334,0,49,49,114,1,7,csibagzik / csibagozik,"csibagzik, csibagozni",tek,NA,"János imád csibagozni, ezért sokat csibagzik.",Ti ritkán...,csibagzotok,csibagoztok,cselekszik,-zik,2,PR2088,2002,nő,nem,2022-04-19_22h58.21.004,hesp_baseline,2021.2.3,Win32,58.77167205
,,,,,,,,,,,,,,,,,spűmlök,spűmlöm,left,6.2616,0,50,50,86,1,33,spűmlik,spűmlesz,NA,NA,Te bizony sokat spűmlesz.,Én is sokat...,spűmlök,spűmlöm,lakik,-lik,1,PR2088,2002,nő,nem,2022-04-19_22h58.21.004,hesp_baseline,2021.2.3,Win32,58.77167205
,,,,,,,,,,,,,,,,,feténylem,feténylek,right,3.8015,0,51,51,85,1,32,feténylik,feténylesz,NA,NA,Te bizony sokat feténylesz.,Én is sokat...,feténylek,feténylem,lakik,-lik,2,PR2088,2002,nő,nem,2022-04-19_22h58.21.004,hesp_baseline,2021.2.3,Win32,58.77167205
,,,,,,,,,,,,,,,,,gyivádzom,gyivádzok,left,3.7791,0,52,52,87,1,34,gyivádzik,gyivádzol,NA,NA,Te bizony sokat gyivádzol.,Én is sokat...,gyivádzok,gyivádzom,lakik,-zik,2,PR2088,2002,nő,nem,2022-04-19_22h58.21.004,hesp_baseline,2021.2.3,Win32,58.77167205
,,,,,,,,,,,,,,,,,csarténynek,csarténynak,left,4.6851,0,53,53,36,1,37,csartény,csartény,nak,é,Ez itt egy csartény.,Elneveztem a kutyámat...,csarténynek,csarténynak,dzsungel,NA,NA,PR2088,2002,nő,nem,2022-04-19_22h58.21.004,hesp_baseline,2021.2.3,Win32,58.77167205
,,,,,,,,,,,,,,,,,sztrajoznak,sztrajlanak,right,6.5276,0,54,54,144,1,37,sztrajlik / sztrajozik,"sztrajlik, sztrajozni",nek,NA,"János imád sztrajozni, ezért sokat sztrajlik.",Ők ritkán...,sztrajlanak,sztrajoznak,cselekszik,-lik,1,PR2088,2002,nő,nem,2022-04-19_22h58.21.004,hesp_baseline,2021.2.3,Win32,58.77167205
,,,,,,,,,,,,,,,,,prilegzek,prilegzem,left,6.1588,0,55,55,79,1,26,prilegzik,prilegzel,NA,NA,Te bizony sokat prilegzel.,Én is sokat...,prilegzek,prilegzem,lakik,-zik,2,PR2088,2002,nő,nem,2022-04-19_22h58.21.004,hesp_baseline,2021.2.3,Win32,58.77167205
,,,,,,,,,,,,,,,,,frélegzünk,frélegezünk,left,6.1163,0,56,56,147,1,40,frélegzik / frélegezik,"frélegzik, frélegezni",ünk,NA,"János imád frélegezni, ezért sokat frélegzik.",Mi ritkán...,frélegzünk,frélegezünk,cselekszik,-zik,2,PR2088,2002,nő,nem,2022-04-19_22h58.21.004,hesp_baseline,2021.2.3,Win32,58.77167205
,,,,,,,,,,,,,,,,,spivejeznek,spivejlenek,left,5.8646,0,57,57,125,1,18,spivejlik / spivejezik,"spivejlik, spivejezni",nek,NA,"János imád spivejezni, ezért sokat spivejlik.",Ők ritkán...,spivejlenek,spivejeznek,cselekszik,-lik,2,PR2088,2002,nő,nem,2022-04-19_22h58.21.004,hesp_baseline,2021.2.3,Win32,58.77167205
,,,,,,,,,,,,,,,,,spéslem,spéslek,left,6.7585,0,58,58,93,1,40,spéslik,spéslesz,NA,NA,Te bizony sokat spéslesz.,Én is sokat...,spéslek,spéslem,lakik,-lik,1,PR2088,2002,nő,nem,2022-04-19_22h58.21.004,hesp_baseline,2021.2.3,Win32,58.77167205
,,,,,,,,,,,,,,,,,privékednek,privékszenek,right,9.5341,0,59,59,149,1,42,privékszik / privékedik,"privékszik, privékedni",nek,NA,"János imád privékedni, ezért sokat privékszik.",Ők ritkán...,privékszenek,privékednek,cselekszik,-szik,2,PR2088,2002,nő,nem,2022-04-19_22h58.21.004,hesp_baseline,2021.2.3,Win32,58.77167205
,,,,,,,,,,,,,,,,,priszkencnak,priszkencnek,right,5.3438,0,60,60,20,1,21,priszkenc,priszkenc,nak,e,Ez itt egy priszkenc.,Elneveztem a kutyámat...,priszkencnek,priszkencnak,dzsungel,NA,NA,PR2088,2002,nő,nem,2022-04-19_22h58.21.004,hesp_baseline,2021.2.3,Win32,58.77167205
,,,,,,,,,,,,,,,,,ibáglok,ibáglom,left,3.2419,0,61,61,88,1,35,ibáglik,ibáglasz,NA,NA,Te bizony sokat ibáglasz.,Én is sokat...,ibáglok,ibáglom,lakik,-lik,2,PR2088,2002,nő,nem,2022-04-19_22h58.21.004,hesp_baseline,2021.2.3,Win32,58.77167205
,,,,,,,,,,,,,,,,,szibedban,szibedben,right,3.6914,0,62,62,47,1,48,szibed,szibed,ban,e,Ez itt egy szibed.,Ott vagyunk a...,szibedben,szibedban,dzsungel,NA,NA,PR2088,2002,nő,nem,2022-04-19_22h58.21.004,hesp_baseline,2021.2.3,Win32,58.77167205
,,,,,,,,,,,,,,,,,spilágzok,spilágzom,right,4.4071,0,63,63,76,1,23,spilágzik,spilágzol,NA,NA,Te bizony sokat spilágzol.,Én is sokat...,spilágzok,spilágzom,lakik,-zik,2,PR2088,2002,nő,nem,2022-04-19_22h58.21.004,hesp_baseline,2021.2.3,Win32,58.77167205
,,,,,,,,,,,,,,,,,hijegynál,hijegynél,right,4.6857,0,64,64,4,1,5,hijegy,hijegy,nál,e,Ez itt egy hijegy.,Nincs is jobb egy jó...,hijegynél,hijegynál,dzsungel,NA,NA,PR2088,2002,nő,nem,2022-04-19_22h58.21.004,hesp_baseline,2021.2.3,Win32,58.77167205
,,,,,,,,,,,,,,,,,spábétben,spábétban,right,4.357,0,65,65,51,1,52,spábét,spábét,ban,é,Ez itt egy spábét.,Ott vagyunk a...,spábétben,spábétban,dzsungel,NA,NA,PR2088,2002,nő,nem,2022-04-19_22h58.21.004,hesp_baseline,2021.2.3,Win32,58.77167205
,,,,,,,,,,,,,,,,,trukszotok,trukodtok,right,5.1802,0,66,66,157,1,50,trukszik / trukodik,"trukszik, trukodni",tek,NA,"János imád trukodni, ezért sokat trukszik.",Ti ritkán...,trukszotok,trukodtok,cselekszik,-szik,1,PR2088,2002,nő,nem,2022-04-19_22h58.21.004,hesp_baseline,2021.2.3,Win32,58.77167205
,,,,,,,,,,,,,,,,,plibzotok,pliboztok,left,8.4572,0,67,67,140,1,33,plibzik / plibozik,"plibzik, plibozni",tek,NA,"János imád plibozni, ezért sokat plibzik.",Ti ritkán...,plibzotok,pliboztok,cselekszik,-zik,1,PR2088,2002,nő,nem,2022-04-19_22h58.21.004,hesp_baseline,2021.2.3,Win32,58.77167205
,,,,,,,,,,,,,,,,,klaráglok,klaráglom,left,5.035,0,68,68,91,1,38,klaráglik,klaráglasz,NA,NA,Te bizony sokat klaráglasz.,Én is sokat...,klaráglok,klaráglom,lakik,-lik,2,PR2088,2002,nő,nem,2022-04-19_22h58.21.004,hesp_baseline,2021.2.3,Win32,58.77167205
,,,,,,,,,,,,,,,,,drűröznek,drűrzenek,right,10.2951,0,69,69,126,1,19,drűrzik / drűrözik,"drűrzik, drűrözni",nek,NA,"János imád drűrözni, ezért sokat drűrzik.",Ők ritkán...,drűrzenek,drűröznek,cselekszik,-zik,1,PR2088,2002,nő,nem,2022-04-19_22h58.21.004,hesp_baseline,2021.2.3,Win32,58.77167205
,,,,,,,,,,,,,,,,,bölszök,bölszöm,left,2.9452,0,70,70,105,1,52,bölszik,bölszöl,NA,NA,Te bizony sokat bölszöl.,Én is sokat...,bölszök,bölszöm,lakik,-szik,1,PR2088,2002,nő,nem,2022-04-19_22h58.21.004,hesp_baseline,2021.2.3,Win32,58.77167205
,,,,,,,,,,,,,,,,,prélemeznek,prélemlenek,left,4.6672,0,71,71,110,1,3,prélemlik / prélemezik,"prélemlik, prélemezni",nek,NA,"János imád prélemezni, ezért sokat prélemlik.",Ők ritkán...,prélemlenek,prélemeznek,cselekszik,-lik,2,PR2088,2002,nő,nem,2022-04-19_22h58.21.004,hesp_baseline,2021.2.3,Win32,58.77167205
,,,,,,,,,,,,,,,,,hivépben,hivépban,left,3.5849,0,72,72,44,1,45,hivép,hivép,ban,é,Ez itt egy hivép.,Ott vagyunk a...,hivépben,hivépban,dzsungel,NA,NA,PR2088,2002,nő,nem,2022-04-19_22h58.21.004,hesp_baseline,2021.2.3,Win32,58.77167205
,,,,,,,,,,,,,,,,,vodépnak,vodépnek,right,3.7577,0,73,73,41,1,42,vodép,vodép,nak,é,Ez itt egy vodép.,Elneveztem a kutyámat...,vodépnek,vodépnak,dzsungel,NA,NA,PR2088,2002,nő,nem,2022-04-19_22h58.21.004,hesp_baseline,2021.2.3,Win32,58.77167205
,,,,,,,,,,,,,,,,,gyivepednek,gyivepszenek,right,4.723,0,74,74,160,1,53,gyivepszik / gyivepedik,"gyivepszik, gyivepedni",nek,NA,"János imád gyivepedni, ezért sokat gyivepszik.",Ők ritkán...,gyivepszenek,gyivepednek,cselekszik,-szik,2,PR2088,2002,nő,nem,2022-04-19_22h58.21.004,hesp_baseline,2021.2.3,Win32,58.77167205
,,,,,,,,,,,,,,,,,köszlötök,köszöztök,left,4.4289,0,75,75,120,1,13,köszlik / köszözik,"köszlik, köszözni",tek,NA,"János imád köszözni, ezért sokat köszlik.",Ti ritkán...,köszlötök,köszöztök,cselekszik,-lik,1,PR2088,2002,nő,nem,2022-04-19_22h58.21.004,hesp_baseline,2021.2.3,Win32,58.77167205
,,,,,,,,,,,,,,,,,jutélynél,jutélynál,left,3.7031,0,76,76,11,1,12,jutély,jutély,nál,é,Ez itt egy jutély.,Nincs is jobb egy jó...,jutélynél,jutélynál,dzsungel,NA,NA,PR2088,2002,nő,nem,2022-04-19_22h58.21.004,hesp_baseline,2021.2.3,Win32,58.77167205
,,,,,,,,,,,,,,,,,bralképban,bralképben,left,5.1301,0,77,77,12,1,13,bralkép,bralkép,ban,é,Ez itt egy bralkép.,Ott vagyunk a...,bralképben,bralképban,dzsungel,NA,NA,PR2088,2002,nő,nem,2022-04-19_22h58.21.004,hesp_baseline,2021.2.3,Win32,58.77167205
,,,,,,,,,,,,,,,,,csublényban,csublényben,left,3.5119,0,78,78,16,1,17,csublény,csublény,ban,é,Ez itt egy csublény.,Ott vagyunk a...,csublényben,csublényban,dzsungel,NA,NA,PR2088,2002,nő,nem,2022-04-19_22h58.21.004,hesp_baseline,2021.2.3,Win32,58.77167205
,,,,,,,,,,,,,,,,,salárzom,salárzok,right,7.0893,0,79,79,103,1,50,salárzik,salárzol,NA,NA,Te bizony sokat salárzol.,Én is sokat...,salárzok,salárzom,lakik,-zik,2,PR2088,2002,nő,nem,2022-04-19_22h58.21.004,hesp_baseline,2021.2.3,Win32,58.77167205
,,,,,,,,,,,,,,,,,brülösözünk,brülöslünk,left,6.9563,0,80,80,109,1,2,brülöslik / brülösözik,"brülöslik, brülösözni",ünk,NA,"János imád brülösözni, ezért sokat brülöslik.",Mi ritkán...,brülöslünk,brülösözünk,cselekszik,-lik,2,PR2088,2002,nő,nem,2022-04-19_22h58.21.004,hesp_baseline,2021.2.3,Win32,58.77167205
,,,,,,,,,,,,,,,,,hiragoznak,hiragzanak,right,8.1429,0,81,81,119,1,12,hiragzik / hiragozik,"hiragzik, hiragozni",nek,NA,"János imád hiragozni, ezért sokat hiragzik.",Ők ritkán...,hiragzanak,hiragoznak,cselekszik,-zik,2,PR2088,2002,nő,nem,2022-04-19_22h58.21.004,hesp_baseline,2021.2.3,Win32,58.77167205
,,,,,,,,,,,,,,,,,spatszom,spatszok,right,3.3416,0,82,82,73,1,20,spatszik,spatszol,NA,NA,Te bizony sokat spatszol.,Én is sokat...,spatszok,spatszom,lakik,-szik,1,PR2088,2002,nő,nem,2022-04-19_22h58.21.004,hesp_baseline,2021.2.3,Win32,58.77167205
,,,,,,,,,,,,,,,,,huklom,huklok,right,2.7404,0,83,83,78,1,25,huklik,huklasz,NA,NA,Te bizony sokat huklasz.,Én is sokat...,huklok,huklom,lakik,-lik,1,PR2088,2002,nő,nem,2022-04-19_22h58.21.004,hesp_baseline,2021.2.3,Win32,58.77167205
,,,,,,,,,,,,,,,,,pítszok,pítszom,right,3.6378,0,84,84,62,1,9,pítszik,pítszol,NA,NA,Te bizony sokat pítszol.,Én is sokat...,pítszok,pítszom,lakik,-szik,1,PR2088,2002,nő,nem,2022-04-19_22h58.21.004,hesp_baseline,2021.2.3,Win32,58.77167205
,,,,,,,,,,,,,,,,,píjlom,píjlok,right,3.0192,0,85,85,75,1,22,píjlik,píjlasz,NA,NA,Te bizony sokat píjlasz.,Én is sokat...,píjlok,píjlom,lakik,-lik,1,PR2088,2002,nő,nem,2022-04-19_22h58.21.004,hesp_baseline,2021.2.3,Win32,58.77167205
,,,,,,,,,,,,,,,,,klihaslotok,klihasoztok,left,7.2747,0,86,86,156,1,49,klihaslik / klihasozik,"klihaslik, klihasozni",tek,NA,"János imád klihasozni, ezért sokat klihaslik.",Ti ritkán...,klihaslotok,klihasoztok,cselekszik,-lik,2,PR2088,2002,nő,nem,2022-04-19_22h58.21.004,hesp_baseline,2021.2.3,Win32,58.77167205
,,,,,,,,,,,,,,,,,flagárzok,flagárzom,left,3.4984,0,87,87,64,1,11,flagárzik,flagárzol,NA,NA,Te bizony sokat flagárzol.,Én is sokat...,flagárzok,flagárzom,lakik,-zik,2,PR2088,2002,nő,nem,2022-04-19_22h58.21.004,hesp_baseline,2021.2.3,Win32,58.77167205
,,,,,,,,,,,,,,,,,géregeztek,géregletek,left,5.0569,0,88,88,124,1,17,géreglik / géregezik,"géreglik, géregezni",tek,NA,"János imád géregezni, ezért sokat géreglik.",Ti ritkán...,géregletek,géregeztek,cselekszik,-lik,2,PR2088,2002,nő,nem,2022-04-19_22h58.21.004,hesp_baseline,2021.2.3,Win32,58.77167205
,,,,,,,,,,,,,,,,,narádzok,narádzom,left,3.1268,0,89,89,63,1,10,narádzik,narádzol,NA,NA,Te bizony sokat narádzol.,Én is sokat...,narádzok,narádzom,lakik,-zik,2,PR2088,2002,nő,nem,2022-04-19_22h58.21.004,hesp_baseline,2021.2.3,Win32,58.77167205
,,,,,,,,,,,,,,,,,flözlök,flözlöm,right,3.5586,0,90,90,74,1,21,flözlik,flözlesz,NA,NA,Te bizony sokat flözlesz.,Én is sokat...,flözlök,flözlöm,lakik,-lik,1,PR2088,2002,nő,nem,2022-04-19_22h58.21.004,hesp_baseline,2021.2.3,Win32,58.77167205
,,,,,,,,,,,,,,,,,klörlök,klörlöm,left,4.1594,0,91,91,80,1,27,klörlik,klörlesz,NA,NA,Te bizony sokat klörlesz.,Én is sokat...,klörlök,klörlöm,lakik,-lik,1,PR2088,2002,nő,nem,2022-04-19_22h58.21.004,hesp_baseline,2021.2.3,Win32,58.77167205
,,,,,,,,,,,,,,,,,mádépnél,mádépnál,right,4.3568,0,92,92,1,1,2,mádép,mádép,nál,é,Ez itt egy mádép.,Nincs is jobb egy jó...,mádépnél,mádépnál,dzsungel,NA,NA,PR2088,2002,nő,nem,2022-04-19_22h58.21.004,hesp_baseline,2021.2.3,Win32,58.77167205
,,,,,,,,,,,,,,,,,pugoslok,pugoslom,right,4.1096,0,93,93,84,1,31,pugoslik,pugoslasz,NA,NA,Te bizony sokat pugoslasz.,Én is sokat...,pugoslok,pugoslom,lakik,-lik,2,PR2088,2002,nő,nem,2022-04-19_22h58.21.004,hesp_baseline,2021.2.3,Win32,58.77167205
,,,,,,,,,,,,,,,,,monvegnél,monvegnál,left,3.2968,0,94,94,26,1,27,monveg,monveg,nál,e,Ez itt egy monveg.,Nincs is jobb egy jó...,monvegnél,monvegnál,dzsungel,NA,NA,PR2088,2002,nő,nem,2022-04-19_22h58.21.004,hesp_baseline,2021.2.3,Win32,58.77167205
,,,,,,,,,,,,,,,,,tránélynak,tránélynek,left,3.5404,0,95,95,17,1,18,tránély,tránély,nak,é,Ez itt egy tránély.,Elneveztem a kutyámat...,tránélynek,tránélynak,dzsungel,NA,NA,PR2088,2002,nő,nem,2022-04-19_22h58.21.004,hesp_baseline,2021.2.3,Win32,58.77167205
,,,,,,,,,,,,,,,,,frinylunk,frinyozunk,left,5.9404,0,96,96,133,1,26,frinylik / frinyozik,"frinylik, frinyozni",ünk,NA,"János imád frinyozni, ezért sokat frinylik.",Mi ritkán...,frinylunk,frinyozunk,cselekszik,-lik,1,PR2088,2002,nő,nem,2022-04-19_22h58.21.004,hesp_baseline,2021.2.3,Win32,58.77167205
,,,,,,,,,,,,,,,,,nyivágozunk,nyivágzunk,right,8.798,0,97,97,113,1,6,nyivágzik / nyivágozik,"nyivágzik, nyivágozni",ünk,NA,"János imád nyivágozni, ezért sokat nyivágzik.",Mi ritkán...,nyivágzunk,nyivágozunk,cselekszik,-zik,2,PR2088,2002,nő,nem,2022-04-19_22h58.21.004,hesp_baseline,2021.2.3,Win32,58.77167205
,,,,,,,,,,,,,,,,,bribaslanak,bribasoznak,right,0.094,0,98,98,121,1,14,bribaslik / bribasozik,"bribaslik, bribasozni",nek,NA,"János imád bribasozni, ezért sokat bribaslik.",Ők ritkán...,bribaslanak,bribasoznak,cselekszik,-lik,2,PR2088,2002,nő,nem,2022-04-19_22h58.21.004,hesp_baseline,2021.2.3,Win32,58.77167205
,,,,,,,,,,,,,,,,,brivaklotok,brivakoztok,left,5.3229,0,99,99,134,1,27,brivaklik / brivakozik,"brivaklik, brivakozni",tek,NA,"János imád brivakozni, ezért sokat brivaklik.",Ti ritkán...,brivaklotok,brivakoztok,cselekszik,-lik,2,PR2088,2002,nő,nem,2022-04-19_22h58.21.004,hesp_baseline,2021.2.3,Win32,58.77167205
,,,,,,,,,,,,,,,,,kadérnél,kadérnál,left,3.1577,0,100,100,7,1,8,kadér,kadér,nál,é,Ez itt egy kadér.,Nincs is jobb egy jó...,kadérnél,kadérnál,dzsungel,NA,NA,PR2088,2002,nő,nem,2022-04-19_22h58.21.004,hesp_baseline,2021.2.3,Win32,58.77167205
,,,,,,,,,,,,,,,,,sprudlunk,sprudozunk,right,6.0903,0,101,101,136,1,29,sprudlik / sprudozik,"sprudlik, sprudozni",ünk,NA,"János imád sprudozni, ezért sokat sprudlik.",Mi ritkán...,sprudlunk,sprudozunk,cselekszik,-lik,1,PR2088,2002,nő,nem,2022-04-19_22h58.21.004,hesp_baseline,2021.2.3,Win32,58.77167205
,,,,,,,,,,,,,,,,,hóbensben,hóbensban,right,5.2886,0,102,102,3,1,4,hóbens,hóbens,ban,e,Ez itt egy hóbens.,Ott vagyunk a...,hóbensben,hóbensban,dzsungel,NA,NA,PR2088,2002,nő,nem,2022-04-19_22h58.21.004,hesp_baseline,2021.2.3,Win32,58.77167205
,,,,,,,,,,,,,,,,,sztremlem,sztremlek,left,4.4935,0,103,103,95,1,42,sztremlik,sztremlesz,NA,NA,Te bizony sokat sztremlesz.,Én is sokat...,sztremlek,sztremlem,lakik,-lik,1,PR2088,2002,nő,nem,2022-04-19_22h58.21.004,hesp_baseline,2021.2.3,Win32,58.77167205
,,,,,,,,,,,,,,,,,dirányoznak,diránylanak,right,6.1771,0,104,104,122,1,15,diránylik / dirányozik,"diránylik, dirányozni",nek,NA,"János imád dirányozni, ezért sokat diránylik.",Ők ritkán...,diránylanak,dirányoznak,cselekszik,-lik,2,PR2088,2002,nő,nem,2022-04-19_22h58.21.004,hesp_baseline,2021.2.3,Win32,58.77167205
,,,,,,,,,,,,,,,,,vülődzöm,vülődzök,right,1.6568,0,105,105,81,1,28,vülődzik,vülődzöl,NA,NA,Te bizony sokat vülődzöl.,Én is sokat...,vülődzök,vülődzöm,lakik,-zik,2,PR2088,2002,nő,nem,2022-04-19_22h58.21.004,hesp_baseline,2021.2.3,Win32,58.77167205
,,,,,,,,,,,,,,,,,pivédban,pivédben,left,0.4607,0,106,106,52,1,53,pivéd,pivéd,ban,é,Ez itt egy pivéd.,Ott vagyunk a...,pivédben,pivédban,dzsungel,NA,NA,PR2088,2002,nő,nem,2022-04-19_22h58.21.004,hesp_baseline,2021.2.3,Win32,58.77167205
,,,,,,,,,,,,,,,,,zopélynál,zopélynél,right,1.0908,0,107,107,5,1,6,zopély,zopély,nál,é,Ez itt egy zopély.,Nincs is jobb egy jó...,zopélynél,zopélynál,dzsungel,NA,NA,PR2088,2002,nő,nem,2022-04-19_22h58.21.004,hesp_baseline,2021.2.3,Win32,58.77167205
,,,,,,,,,,,,,,,,,brözöztök,brözlötök,left,4.6294,0,108,108,145,1,38,brözlik / brözözik,"brözlik, brözözni",tek,NA,"János imád brözözni, ezért sokat brözlik.",Ti ritkán...,brözlötök,brözöztök,cselekszik,-lik,1,PR2088,2002,nő,nem,2022-04-19_22h58.21.004,hesp_baseline,2021.2.3,Win32,58.77167205
,,,,,,,,,,,,,,,,,vanylom,vanylok,left,2.7864,0,109,109,61,1,8,vanylik,vanylasz,NA,NA,Te bizony sokat vanylasz.,Én is sokat...,vanylok,vanylom,lakik,-lik,1,PR2088,2002,nő,nem,2022-04-19_22h58.21.004,hesp_baseline,2021.2.3,Win32,58.77167205
,,,,,,,,,,,,,,,,,tarhézban,tarhézben,left,4.7168,0,110,110,25,1,26,tarhéz,tarhéz,ban,é,Ez itt egy tarhéz.,Ott vagyunk a...,tarhézben,tarhézban,dzsungel,NA,NA,PR2088,2002,nő,nem,2022-04-19_22h58.21.004,hesp_baseline,2021.2.3,Win32,58.77167205
,,,,,,,,,,,,,,,,,prögöztök,prögzötök,left,3.0824,0,111,111,151,1,44,prögzik / prögözik,"prögzik, prögözni",tek,NA,"János imád prögözni, ezért sokat prögzik.",Ti ritkán...,prögzötök,prögöztök,cselekszik,-zik,1,PR2088,2002,nő,nem,2022-04-19_22h58.21.004,hesp_baseline,2021.2.3,Win32,58.77167205
,,,,,,,,,,,,,,,,,lihénynak,lihénynek,right,2.5058,0,112,112,23,1,24,lihény,lihény,nak,é,Ez itt egy lihény.,Elneveztem a kutyámat...,lihénynek,lihénynak,dzsungel,NA,NA,PR2088,2002,nő,nem,2022-04-19_22h58.21.004,hesp_baseline,2021.2.3,Win32,58.77167205
,,,,,,,,,,,,,,,,,bügöznek,bügzenek,left,4.7571,0,113,113,118,1,11,bügzik / bügözik,"bügzik, bügözni",nek,NA,"János imád bügözni, ezért sokat bügzik.",Ők ritkán...,bügzenek,bügöznek,cselekszik,-zik,1,PR2088,2002,nő,nem,2022-04-19_22h58.21.004,hesp_baseline,2021.2.3,Win32,58.77167205
,,,,,,,,,,,,,,,,,priszecben,priszecban,left,4.5288,0,114,114,15,1,16,priszec,priszec,ban,e,Ez itt egy priszec.,Ott vagyunk a...,priszecben,priszecban,dzsungel,NA,NA,PR2088,2002,nő,nem,2022-04-19_22h58.21.004,hesp_baseline,2021.2.3,Win32,58.77167205
,,,,,,,,,,,,,,,,,flehénylem,flehénylek,right,4.5354,0,115,115,106,1,53,flehénylik,flehénylesz,NA,NA,Te bizony sokat flehénylesz.,Én is sokat...,flehénylek,flehénylem,lakik,-lik,2,PR2088,2002,nő,nem,2022-04-19_22h58.21.004,hesp_baseline,2021.2.3,Win32,58.77167205
,,,,,,,,,,,,,,,,,klordénynek,klordénynak,left,5.3284,0,116,116,9,1,10,klordény,klordény,nak,é,Ez itt egy klordény.,Elneveztem a kutyámat...,klordénynek,klordénynak,dzsungel,NA,NA,PR2088,2002,nő,nem,2022-04-19_22h58.21.004,hesp_baseline,2021.2.3,Win32,58.77167205
,,,,,,,,,,,,,,,,,hurjorzok,hurjorzom,left,4.1402,0,117,117,59,1,6,hurjorzik,hurjorzol,NA,NA,Te bizony sokat hurjorzol.,Én is sokat...,hurjorzok,hurjorzom,lakik,-zik,2,PR2088,2002,nő,nem,2022-04-19_22h58.21.004,hesp_baseline,2021.2.3,Win32,58.77167205
,,,,,,,,,,,,,,,,,kűdlenek,kűdöznek,left,5.6553,0,118,118,142,1,35,kűdlik / kűdözik,"kűdlik, kűdözni",nek,NA,"János imád kűdözni, ezért sokat kűdlik.",Ők ritkán...,kűdlenek,kűdöznek,cselekszik,-lik,1,PR2088,2002,nő,nem,2022-04-19_22h58.21.004,hesp_baseline,2021.2.3,Win32,58.77167205
,,,,,,,,,,,,,,,,,kliszernél,kliszernál,left,4.0684,0,119,119,31,1,32,kliszer,kliszer,nál,e,Ez itt egy kliszer.,Nincs is jobb egy jó...,kliszernél,kliszernál,dzsungel,NA,NA,PR2088,2002,nő,nem,2022-04-19_22h58.21.004,hesp_baseline,2021.2.3,Win32,58.77167205
,,,,,,,,,,,,,,,,,flérlek,flérlem,left,4.4107,0,120,120,89,1,36,flérlik,flérlesz,NA,NA,Te bizony sokat flérlesz.,Én is sokat...,flérlek,flérlem,lakik,-lik,1,PR2088,2002,nő,nem,2022-04-19_22h58.21.004,hesp_baseline,2021.2.3,Win32,58.77167205
,,,,,,,,,,,,,,,,,spélszek,spélszem,left,4.3026,0,121,121,68,1,15,spélszik,spélszel,NA,NA,Te bizony sokat spélszel.,Én is sokat...,spélszek,spélszem,lakik,-szik,1,PR2088,2002,nő,nem,2022-04-19_22h58.21.004,hesp_baseline,2021.2.3,Win32,58.77167205
,,,,,,,,,,,,,,,,,fádensnak,fádensnek,right,2.8326,0,122,122,33,1,34,fádens,fádens,nak,e,Ez itt egy fádens.,Elneveztem a kutyámat...,fádensnek,fádensnak,dzsungel,NA,NA,PR2088,2002,nő,nem,2022-04-19_22h58.21.004,hesp_baseline,2021.2.3,Win32,58.77167205
,,,,,,,,,,,,,,,,,spibaklok,spibaklom,left,3.4649,0,123,123,55,1,2,spibaklik,spibaklasz,NA,NA,Te bizony sokat spibaklasz.,Én is sokat...,spibaklok,spibaklom,lakik,-lik,2,PR2088,2002,nő,nem,2022-04-19_22h58.21.004,hesp_baseline,2021.2.3,Win32,58.77167205
,,,,,,,,,,,,,,,,,pilégednek,pilégszenek,right,3.8423,0,124,124,150,1,43,pilégszik / pilégedik,"pilégszik, pilégedni",nek,NA,"János imád pilégedni, ezért sokat pilégszik.",Ők ritkán...,pilégszenek,pilégednek,cselekszik,-szik,2,PR2088,2002,nő,nem,2022-04-19_22h58.21.004,hesp_baseline,2021.2.3,Win32,58.77167205
,,,,,,,,,,,,,,,,,livaklok,livaklom,left,2.5155,0,125,125,82,1,29,livaklik,livaklasz,NA,NA,Te bizony sokat livaklasz.,Én is sokat...,livaklok,livaklom,lakik,-lik,2,PR2088,2002,nő,nem,2022-04-19_22h58.21.004,hesp_baseline,2021.2.3,Win32,58.77167205
,,,,,,,,,,,,,,,,,spihemlek,spihemlem,left,2.2789,0,126,126,94,1,41,spihemlik,spihemlesz,NA,NA,Te bizony sokat spihemlesz.,Én is sokat...,spihemlek,spihemlem,lakik,-lik,2,PR2088,2002,nő,nem,2022-04-19_22h58.21.004,hesp_baseline,2021.2.3,Win32,58.77167205
,,,,,,,,,,,,,,,,,incéjnak,incéjnek,right,4.5014,0,127,127,30,1,31,incéj,incéj,nak,é,Ez itt egy incéj.,Elneveztem a kutyámat...,incéjnek,incéjnak,dzsungel,NA,NA,PR2088,2002,nő,nem,2022-04-19_22h58.21.004,hesp_baseline,2021.2.3,Win32,58.77167205
,,,,,,,,,,,,,,,,,málapszom,málapszok,left,3.4462,0,128,128,66,1,13,málapszik,málapszol,NA,NA,Te bizony sokat málapszol.,Én is sokat...,málapszok,málapszom,lakik,-szik,2,PR2088,2002,nő,nem,2022-04-19_22h58.21.004,hesp_baseline,2021.2.3,Win32,58.77167205
,,,,,,,,,,,,,,,,,breseznek,breslenek,left,2.4522,0,129,129,115,1,8,breslik / bresezik,"breslik, bresezni",nek,NA,"János imád bresezni, ezért sokat breslik.",Ők ritkán...,breslenek,breseznek,cselekszik,-lik,1,PR2088,2002,nő,nem,2022-04-19_22h58.21.004,hesp_baseline,2021.2.3,Win32,58.77167205
,,,,,,,,,,,,,,,,,jukélnél,jukélnál,right,2.584,0,130,130,42,1,43,jukél,jukél,nál,é,Ez itt egy jukél.,Nincs is jobb egy jó...,jukélnél,jukélnál,dzsungel,NA,NA,PR2088,2002,nő,nem,2022-04-19_22h58.21.004,hesp_baseline,2021.2.3,Win32,58.77167205
,,,,,,,,,,,,,,,,,brigesztnek,brigesztnak,left,2.7631,0,131,131,48,1,49,brigeszt,brigeszt,nak,e,Ez itt egy brigeszt.,Elneveztem a kutyámat...,brigesztnek,brigesztnak,dzsungel,NA,NA,PR2088,2002,nő,nem,2022-04-19_22h58.21.004,hesp_baseline,2021.2.3,Win32,58.77167205
,,,,,,,,,,,,,,,,,tivencban,tivencben,left,2.1599,0,132,132,53,1,54,tivenc,tivenc,ban,e,Ez itt egy tivenc.,Ott vagyunk a...,tivencben,tivencban,dzsungel,NA,NA,PR2088,2002,nő,nem,2022-04-19_22h58.21.004,hesp_baseline,2021.2.3,Win32,58.77167205
,,,,,,,,,,,,,,,,,fraklunk,frakozunk,left,4.6154,0,133,133,159,1,52,fraklik / frakozik,"fraklik, frakozni",ünk,NA,"János imád frakozni, ezért sokat fraklik.",Mi ritkán...,fraklunk,frakozunk,cselekszik,-lik,1,PR2088,2002,nő,nem,2022-04-19_22h58.21.004,hesp_baseline,2021.2.3,Win32,58.77167205
,,,,,,,,,,,,,,,,,frorlanak,froroznak,left,2.5902,0,134,134,143,1,36,frorlik / frorozik,"frorlik, frorozni",nek,NA,"János imád frorozni, ezért sokat frorlik.",Ők ritkán...,frorlanak,froroznak,cselekszik,-lik,1,PR2088,2002,nő,nem,2022-04-19_22h58.21.004,hesp_baseline,2021.2.3,Win32,58.77167205
,,,,,,,,,,,,,,,,,spicetnek,spicetnak,left,3.0662,0,135,135,35,1,36,spicet,spicet,nak,e,Ez itt egy spicet.,Elneveztem a kutyámat...,spicetnek,spicetnak,dzsungel,NA,NA,PR2088,2002,nő,nem,2022-04-19_22h58.21.004,hesp_baseline,2021.2.3,Win32,58.77167205
,,,,,,,,,,,,,,,,,lörűdzök,lörűdzöm,left,5.4576,0,136,136,77,1,24,lörűdzik,lörűdzöl,NA,NA,Te bizony sokat lörűdzöl.,Én is sokat...,lörűdzök,lörűdzöm,lakik,-zik,2,PR2088,2002,nő,nem,2022-04-19_22h58.21.004,hesp_baseline,2021.2.3,Win32,58.77167205
,,,,,,,,,,,,,,,,,spibádzom,spibádzok,left,2.5546,0,137,137,65,1,12,spibádzik,spibádzol,NA,NA,Te bizony sokat spibádzol.,Én is sokat...,spibádzok,spibádzom,lakik,-zik,2,PR2088,2002,nő,nem,2022-04-19_22h58.21.004,hesp_baseline,2021.2.3,Win32,58.77167205
,,,,,,,,,,,,,,,,,sprédlem,sprédlek,right,3.7743,0,138,138,70,1,17,sprédlik,sprédlesz,NA,NA,Te bizony sokat sprédlesz.,Én is sokat...,sprédlek,sprédlem,lakik,-lik,1,PR2088,2002,nő,nem,2022-04-19_22h58.21.004,hesp_baseline,2021.2.3,Win32,58.77167205
,,,,,,,,,,,,,,,,,bregzünk,bregezünk,left,2.1084,0,139,139,139,1,32,bregzik / bregezik,"bregzik, bregezni",ünk,NA,"János imád bregezni, ezért sokat bregzik.",Mi ritkán...,bregzünk,bregezünk,cselekszik,-zik,1,PR2088,2002,nő,nem,2022-04-19_22h58.21.004,hesp_baseline,2021.2.3,Win32,58.77167205
,,,,,,,,,,,,,,,,,szibánylom,szibánylok,right,2.2564,0,140,140,67,1,14,szibánylik,szibánylasz,NA,NA,Te bizony sokat szibánylasz.,Én is sokat...,szibánylok,szibánylom,lakik,-lik,2,PR2088,2002,nő,nem,2022-04-19_22h58.21.004,hesp_baseline,2021.2.3,Win32,58.77167205
,,,,,,,,,,,,,,,,,küsözünk,küslünk,right,5.8103,0,141,141,141,1,34,küslik / küsözik,"küslik, küsözni",ünk,NA,"János imád küsözni, ezért sokat küslik.",Mi ritkán...,küslünk,küsözünk,cselekszik,-lik,1,PR2088,2002,nő,nem,2022-04-19_22h58.21.004,hesp_baseline,2021.2.3,Win32,58.77167205
,,,,,,,,,,,,,,,,,matézben,matézban,left,3.7597,0,142,142,37,1,38,matéz,matéz,ban,é,Ez itt egy matéz.,Ott vagyunk a...,matézben,matézban,dzsungel,NA,NA,PR2088,2002,nő,nem,2022-04-19_22h58.21.004,hesp_baseline,2021.2.3,Win32,58.77167205
,,,,,,,,,,,,,,,,,gyibeslem,gyibeslek,left,3.3002,0,143,143,98,1,45,gyibeslik,gyibeslesz,NA,NA,Te bizony sokat gyibeslesz.,Én is sokat...,gyibeslek,gyibeslem,lakik,-lik,2,PR2088,2002,nő,nem,2022-04-19_22h58.21.004,hesp_baseline,2021.2.3,Win32,58.77167205
,,,,,,,,,,,,,,,,,galárzanak,galároznak,left,4.6899,0,144,144,154,1,47,galárzik / galározik,"galárzik, galározni",nek,NA,"János imád galározni, ezért sokat galárzik.",Ők ritkán...,galárzanak,galároznak,cselekszik,-zik,2,PR2088,2002,nő,nem,2022-04-19_22h58.21.004,hesp_baseline,2021.2.3,Win32,58.77167205
,,,,,,,,,,,,,,,,,darhénban,darhénben,left,4.9819,0,145,145,27,1,28,darhén,darhén,ban,é,Ez itt egy darhén.,Ott vagyunk a...,darhénben,darhénban,dzsungel,NA,NA,PR2088,2002,nő,nem,2022-04-19_22h58.21.004,hesp_baseline,2021.2.3,Win32,58.77167205
,,,,,,,,,,,,,,,,,plűbzöm,plűbzök,left,2.584,0,146,146,107,1,54,plűbzik,plűbzöl,NA,NA,Te bizony sokat plűbzöl.,Én is sokat...,plűbzök,plűbzöm,lakik,-zik,1,PR2088,2002,nő,nem,2022-04-19_22h58.21.004,hesp_baseline,2021.2.3,Win32,58.77167205
,,,,,,,,,,,,,,,,,püzöztök,püzlötök,left,2.4272,0,147,147,152,1,45,püzlik / püzözik,"püzlik, püzözni",tek,NA,"János imád püzözni, ezért sokat püzlik.",Ti ritkán...,püzlötök,püzöztök,cselekszik,-lik,1,PR2088,2002,nő,nem,2022-04-19_22h58.21.004,hesp_baseline,2021.2.3,Win32,58.77167205
,,,,,,,,,,,,,,,,,gonszéknál,gonszéknél,left,3.452,0,148,148,38,1,39,gonszék,gonszék,nál,é,Ez itt egy gonszék.,Nincs is jobb egy jó...,gonszéknél,gonszéknál,dzsungel,NA,NA,PR2088,2002,nő,nem,2022-04-19_22h58.21.004,hesp_baseline,2021.2.3,Win32,58.77167205
,,,,,,,,,,,,,,,,,hilarzom,hilarzok,left,2.5698,0,149,149,69,1,16,hilarzik,hilarzol,NA,NA,Te bizony sokat hilarzol.,Én is sokat...,hilarzok,hilarzom,lakik,-zik,2,PR2088,2002,nő,nem,2022-04-19_22h58.21.004,hesp_baseline,2021.2.3,Win32,58.77167205
,,,,,,,,,,,,,,,,,föködnek,fökszenek,left,2.3469,0,150,150,131,1,24,fökszik / föködik,"fökszik, föködni",nek,NA,"János imád föködni, ezért sokat fökszik.",Ők ritkán...,fökszenek,föködnek,cselekszik,-szik,1,PR2088,2002,nő,nem,2022-04-19_22h58.21.004,hesp_baseline,2021.2.3,Win32,58.77167205
,,,,,,,,,,,,,,,,,herégszek,herégszem,left,1.8452,0,151,151,54,1,1,herégszik,herégszel,NA,NA,Te bizony sokat herégszel.,Én is sokat...,herégszek,herégszem,lakik,-szik,2,PR2088,2002,nő,nem,2022-04-19_22h58.21.004,hesp_baseline,2021.2.3,Win32,58.77167205
,,,,,,,,,,,,,,,,,marzok,marzom,left,2.3314,0,152,152,99,1,46,marzik,marzol,NA,NA,Te bizony sokat marzol.,Én is sokat...,marzok,marzom,lakik,-zik,1,PR2088,2002,nő,nem,2022-04-19_22h58.21.004,hesp_baseline,2021.2.3,Win32,58.77167205
,,,,,,,,,,,,,,,,,lorzensnél,lorzensnál,right,4.4647,0,153,153,34,1,35,lorzens,lorzens,nál,e,Ez itt egy lorzens.,Nincs is jobb egy jó...,lorzensnél,lorzensnál,dzsungel,NA,NA,PR2088,2002,nő,nem,2022-04-19_22h58.21.004,hesp_baseline,2021.2.3,Win32,58.77167205
,,,,,,,,,,,,,,,,,kaszépnek,kaszépnak,right,3.4859,0,154,154,40,1,41,kaszép,kaszép,nak,é,Ez itt egy kaszép.,Elneveztem a kutyámat...,kaszépnek,kaszépnak,dzsungel,NA,NA,PR2088,2002,nő,nem,2022-04-19_22h58.21.004,hesp_baseline,2021.2.3,Win32,58.77167205
,,,,,,,,,,,,,,,,,préleglek,préleglem,right,3.712,0,155,155,104,1,51,préleglik,préleglesz,NA,NA,Te bizony sokat préleglesz.,Én is sokat...,préleglek,préleglem,lakik,-lik,2,PR2088,2002,nő,nem,2022-04-19_22h58.21.004,hesp_baseline,2021.2.3,Win32,58.77167205
,,,,,,,,,,,,,,,,,frágapszom,frágapszok,left,4.3116,0,156,156,60,1,7,frágapszik,frágapszol,NA,NA,Te bizony sokat frágapszol.,Én is sokat...,frágapszok,frágapszom,lakik,-szik,2,PR2088,2002,nő,nem,2022-04-19_22h58.21.004,hesp_baseline,2021.2.3,Win32,58.77167205
,,,,,,,,,,,,,,,,,sprimlunk,sprimozunk,left,2.0342,0,157,157,127,1,20,sprimlik / sprimozik,"sprimlik, sprimozni",ünk,NA,"János imád sprimozni, ezért sokat sprimlik.",Mi ritkán...,sprimlunk,sprimozunk,cselekszik,-lik,1,PR2088,2002,nő,nem,2022-04-19_22h58.21.004,hesp_baseline,2021.2.3,Win32,58.77167205
,,,,,,,,,,,,,,,,,lumézben,lumézban,left,1.4932,0,158,158,32,1,33,luméz,luméz,ban,é,Ez itt egy luméz.,Ott vagyunk a...,lumézben,lumézban,dzsungel,NA,NA,PR2088,2002,nő,nem,2022-04-19_22h58.21.004,hesp_baseline,2021.2.3,Win32,58.77167205
,,,,,,,,,,,,,,,,,frirzunk,frirozunk,right,3.775,0,159,159,129,1,22,frirzik / frirozik,"frirzik, frirozni",ünk,NA,"János imád frirozni, ezért sokat frirzik.",Mi ritkán...,frirzunk,frirozunk,cselekszik,-zik,1,PR2088,2002,nő,nem,2022-04-19_22h58.21.004,hesp_baseline,2021.2.3,Win32,58.77167205
,,,,,,,,,,,,,,,,,vilakszok,vilakszom,right,3.0572,0,160,160,97,1,44,vilakszik,vilakszol,NA,NA,Te bizony sokat vilakszol.,Én is sokat...,vilakszok,vilakszom,lakik,-szik,2,PR2088,2002,nő,nem,2022-04-19_22h58.21.004,hesp_baseline,2021.2.3,Win32,58.77167205
,,,,,,,,,,,,,,,,,fágyépnél,fágyépnál,left,3.1027,0,161,161,10,1,11,fágyép,fágyép,nál,é,Ez itt egy fágyép.,Nincs is jobb egy jó...,fágyépnél,fágyépnál,dzsungel,NA,NA,PR2088,2002,nő,nem,2022-04-19_22h58.21.004,hesp_baseline,2021.2.3,Win32,58.77167205
