my_list,key.keys,key.rt,key_2.keys,key_2.rt,keyboard_input_2.keys,keyboard_input_2.rt,key_3.keys,key_3.rt,keyboard_input_3.keys,keyboard_input_3.rt,key_4.keys,key_4.rt,keyboard_input_4.keys,keyboard_input_4.rt,key_5.keys,key_5.rt,my_button1,my_button2,keyboard_input.keys,keyboard_input.rt,withinBlock.thisRepN,withinBlock.thisTrialN,withinBlock.thisN,withinBlock.thisIndex,withinBlock.ran,rowname,word,prompt,suffix,vowel,carrier_sentence,target_sentence,target1,target2,category,derivational,nsyl,Azonosító,Melyik évben születtél?,Mi a nemed?,Tanultál nyelvészetet?,date,expName,psychopyVersion,OS,frameRate
list2.csv,space,12.3026,space,8.1536,right,6.6494,space,12.2333,left,4.2422,space,8.4868,left,13.3256,space,13.4452,jóbecnek,jóbecnak,left,5.5042,0,0,0,11,1,66,jóbec,jóbec,nak,e,Ez itt egy jóbec.,Elneveztem a kutyámat...,jóbecnek,jóbecnak,dzsungel,NA,NA,PR2047,1998,nő,nem,2022-04-14_10h14.37.263,hesp_baseline,2021.2.3,Win32,59.74429442
,,,,,,,,,,,,,,,,,játlunk,játozunk,right,15.2521,0,1,1,145,1,92,játlik / játozik,"játlik, játozni",ünk,NA,"János imád játozni, ezért sokat játlik.",Mi ritkán...,játlunk,játozunk,cselekszik,-lik,1,PR2047,1998,nő,nem,2022-04-14_10h14.37.263,hesp_baseline,2021.2.3,Win32,59.74429442
,,,,,,,,,,,,,,,,,tosélyben,tosélyban,right,3.808,0,2,2,25,1,80,tosély,tosély,ban,é,Ez itt egy tosély.,Ott vagyunk a...,tosélyben,tosélyban,dzsungel,NA,NA,PR2047,1998,nő,nem,2022-04-14_10h14.37.263,hesp_baseline,2021.2.3,Win32,59.74429442
,,,,,,,,,,,,,,,,,csimennál,csimennél,right,6.5359,0,3,3,44,1,99,csimen,csimen,nál,e,Ez itt egy csimen.,Nincs is jobb egy jó...,csimennél,csimennál,dzsungel,NA,NA,PR2047,1998,nő,nem,2022-04-14_10h14.37.263,hesp_baseline,2021.2.3,Win32,59.74429442
,,,,,,,,,,,,,,,,,spubonylok,spubonylom,left,67.7018,0,4,4,104,1,105,spubonylik,spubonylasz,NA,NA,Te bizony sokat spubonylasz.,Én is sokat...,spubonylok,spubonylom,lakik,-lik,2,PR2047,1998,nő,nem,2022-04-14_10h14.37.263,hesp_baseline,2021.2.3,Win32,59.74429442
,,,,,,,,,,,,,,,,,csólorzom,csólorzok,left,7.3574,0,5,5,102,1,103,csólorzik,csólorzol,NA,NA,Te bizony sokat csólorzol.,Én is sokat...,csólorzok,csólorzom,lakik,-zik,2,PR2047,1998,nő,nem,2022-04-14_10h14.37.263,hesp_baseline,2021.2.3,Win32,59.74429442
,,,,,,,,,,,,,,,,,spüjzök,spüjzöm,left,89.8527,0,6,6,59,1,60,spüjzik,spüjzöl,NA,NA,Te bizony sokat spüjzöl.,Én is sokat...,spüjzök,spüjzöm,lakik,-zik,1,PR2047,1998,nő,nem,2022-04-14_10h14.37.263,hesp_baseline,2021.2.3,Win32,59.74429442
,,,,,,,,,,,,,,,,,sporzemnak,sporzemnek,right,26.8675,0,7,7,26,1,81,sporzem,sporzem,nak,e,Ez itt egy sporzem.,Elneveztem a kutyámat...,sporzemnek,sporzemnak,dzsungel,NA,NA,PR2047,1998,nő,nem,2022-04-14_10h14.37.263,hesp_baseline,2021.2.3,Win32,59.74429442
,,,,,,,,,,,,,,,,,kluhéjnél,kluhéjnál,right,4.4787,0,8,8,24,1,79,kluhéj,kluhéj,nál,é,Ez itt egy kluhéj.,Nincs is jobb egy jó...,kluhéjnél,kluhéjnál,dzsungel,NA,NA,PR2047,1998,nő,nem,2022-04-14_10h14.37.263,hesp_baseline,2021.2.3,Win32,59.74429442
,,,,,,,,,,,,,,,,,zihencnek,zihencnak,left,3.2189,0,9,9,52,1,107,zihenc,zihenc,nak,e,Ez itt egy zihenc.,Elneveztem a kutyámat...,zihencnek,zihencnak,dzsungel,NA,NA,PR2047,1998,nő,nem,2022-04-14_10h14.37.263,hesp_baseline,2021.2.3,Win32,59.74429442
,,,,,,,,,,,,,,,,,sprigoztok,sprigzotok,left,12.8237,0,10,10,129,1,76,sprigzik / sprigozik,"sprigzik, sprigozni",tek,NA,"János imád sprigozni, ezért sokat sprigzik.",Ti ritkán...,sprigzotok,sprigoztok,cselekszik,-zik,1,PR2047,1998,nő,nem,2022-04-14_10h14.37.263,hesp_baseline,2021.2.3,Win32,59.74429442
,,,,,,,,,,,,,,,,,csíszlom,csíszlok,right,3.5029,0,11,11,84,1,85,csíszlik,csíszlasz,NA,NA,Te bizony sokat csíszlasz.,Én is sokat...,csíszlok,csíszlom,lakik,-lik,1,PR2047,1998,nő,nem,2022-04-14_10h14.37.263,hesp_baseline,2021.2.3,Win32,59.74429442
,,,,,,,,,,,,,,,,,sponyoznak,sponylanak,right,7.0484,0,12,12,125,1,72,sponylik / sponyozik,"sponylik, sponyozni",nek,NA,"János imád sponyozni, ezért sokat sponylik.",Ők ritkán...,sponylanak,sponyoznak,cselekszik,-lik,1,PR2047,1998,nő,nem,2022-04-14_10h14.37.263,hesp_baseline,2021.2.3,Win32,59.74429442
,,,,,,,,,,,,,,,,,drojzunk,drojozunk,left,13.9644,0,13,13,140,1,87,drojzik / drojozik,"drojzik, drojozni",ünk,NA,"János imád drojozni, ezért sokat drojzik.",Mi ritkán...,drojzunk,drojozunk,cselekszik,-zik,1,PR2047,1998,nő,nem,2022-04-14_10h14.37.263,hesp_baseline,2021.2.3,Win32,59.74429442
,,,,,,,,,,,,,,,,,juszlok,juszlom,left,3.425,0,14,14,79,1,80,juszlik,juszlasz,NA,NA,Te bizony sokat juszlasz.,Én is sokat...,juszlok,juszlom,lakik,-lik,1,PR2047,1998,nő,nem,2022-04-14_10h14.37.263,hesp_baseline,2021.2.3,Win32,59.74429442
,,,,,,,,,,,,,,,,,friszlom,friszlok,right,4.9657,0,15,15,97,1,98,friszlik,friszlasz,NA,NA,Te bizony sokat friszlasz.,Én is sokat...,friszlok,friszlom,lakik,-lik,1,PR2047,1998,nő,nem,2022-04-14_10h14.37.263,hesp_baseline,2021.2.3,Win32,59.74429442
,,,,,,,,,,,,,,,,,spivélnek,spivélnak,left,7.8499,0,16,16,27,1,82,spivél,spivél,nak,é,Ez itt egy spivél.,Elneveztem a kutyámat...,spivélnek,spivélnak,dzsungel,NA,NA,PR2047,1998,nő,nem,2022-04-14_10h14.37.263,hesp_baseline,2021.2.3,Win32,59.74429442
,,,,,,,,,,,,,,,,,kátédnél,kátédnál,right,4.8428,0,17,17,37,1,92,kátéd,kátéd,nál,é,Ez itt egy kátéd.,Nincs is jobb egy jó...,kátédnél,kátédnál,dzsungel,NA,NA,PR2047,1998,nő,nem,2022-04-14_10h14.37.263,hesp_baseline,2021.2.3,Win32,59.74429442
,,,,,,,,,,,,,,,,,pivegszem,pivegszek,left,3.4702,0,18,18,99,1,100,pivegszik,pivegszel,NA,NA,Te bizony sokat pivegszel.,Én is sokat...,pivegszek,pivegszem,lakik,-szik,2,PR2047,1998,nő,nem,2022-04-14_10h14.37.263,hesp_baseline,2021.2.3,Win32,59.74429442
,,,,,,,,,,,,,,,,,nyametben,nyametban,left,19.994,0,19,19,17,1,72,nyamet,nyamet,ban,e,Ez itt egy nyamet.,Ott vagyunk a...,nyametben,nyametban,dzsungel,NA,NA,PR2047,1998,nő,nem,2022-04-14_10h14.37.263,hesp_baseline,2021.2.3,Win32,59.74429442
,,,,,,,,,,,,,,,,,frésezünk,fréslünk,left,7.3916,0,20,20,138,1,85,fréslik / frésezik,"fréslik, frésezni",ünk,NA,"János imád frésezni, ezért sokat fréslik.",Mi ritkán...,fréslünk,frésezünk,cselekszik,-lik,1,PR2047,1998,nő,nem,2022-04-14_10h14.37.263,hesp_baseline,2021.2.3,Win32,59.74429442
,,,,,,,,,,,,,,,,,gihamlanak,gihamoznak,right,6.9605,0,21,21,133,1,80,gihamlik / gihamozik,"gihamlik, gihamozni",nek,NA,"János imád gihamozni, ezért sokat gihamlik.",Ők ritkán...,gihamlanak,gihamoznak,cselekszik,-lik,2,PR2047,1998,nő,nem,2022-04-14_10h14.37.263,hesp_baseline,2021.2.3,Win32,59.74429442
,,,,,,,,,,,,,,,,,brágédnek,brágédnak,right,6.8281,0,22,22,45,1,100,brágéd,brágéd,nak,é,Ez itt egy brágéd.,Elneveztem a kutyámat...,brágédnek,brágédnak,dzsungel,NA,NA,PR2047,1998,nő,nem,2022-04-14_10h14.37.263,hesp_baseline,2021.2.3,Win32,59.74429442
,,,,,,,,,,,,,,,,,flehékszem,flehékszek,left,5.196,0,23,23,77,1,78,flehékszik,flehékszel,NA,NA,Te bizony sokat flehékszel.,Én is sokat...,flehékszek,flehékszem,lakik,-szik,2,PR2047,1998,nő,nem,2022-04-14_10h14.37.263,hesp_baseline,2021.2.3,Win32,59.74429442
,,,,,,,,,,,,,,,,,flemezünk,flemlünk,right,9.5162,0,24,24,137,1,84,flemlik / flemezik,"flemlik, flemezni",ünk,NA,"János imád flemezni, ezért sokat flemlik.",Mi ritkán...,flemlünk,flemezünk,cselekszik,-lik,1,PR2047,1998,nő,nem,2022-04-14_10h14.37.263,hesp_baseline,2021.2.3,Win32,59.74429442
,,,,,,,,,,,,,,,,,ikszertban,ikszertben,right,4.3913,0,25,25,19,1,74,ikszert,ikszert,ban,e,Ez itt egy ikszert.,Ott vagyunk a...,ikszertben,ikszertban,dzsungel,NA,NA,PR2047,1998,nő,nem,2022-04-14_10h14.37.263,hesp_baseline,2021.2.3,Win32,59.74429442
,,,,,,,,,,,,,,,,,lijeznek,lijeznak,left,5.7783,0,26,26,40,1,95,lijez,lijez,nak,e,Ez itt egy lijez.,Elneveztem a kutyámat...,lijeznek,lijeznak,dzsungel,NA,NA,PR2047,1998,nő,nem,2022-04-14_10h14.37.263,hesp_baseline,2021.2.3,Win32,59.74429442
,,,,,,,,,,,,,,,,,sprebzenek,sprebeznek,right,11.2787,0,27,27,139,1,86,sprebzik / sprebezik,"sprebzik, sprebezni",nek,NA,"János imád sprebezni, ezért sokat sprebzik.",Ők ritkán...,sprebzenek,sprebeznek,cselekszik,-zik,1,PR2047,1998,nő,nem,2022-04-14_10h14.37.263,hesp_baseline,2021.2.3,Win32,59.74429442
,,,,,,,,,,,,,,,,,flagánylok,flagánylom,left,4.3836,0,28,28,82,1,83,flagánylik,flagánylasz,NA,NA,Te bizony sokat flagánylasz.,Én is sokat...,flagánylok,flagánylom,lakik,-lik,2,PR2047,1998,nő,nem,2022-04-14_10h14.37.263,hesp_baseline,2021.2.3,Win32,59.74429442
,,,,,,,,,,,,,,,,,klajrénnak,klajrénnek,left,6.0125,0,29,29,41,1,96,klajrén,klajrén,nak,é,Ez itt egy klajrén.,Elneveztem a kutyámat...,klajrénnek,klajrénnak,dzsungel,NA,NA,PR2047,1998,nő,nem,2022-04-14_10h14.37.263,hesp_baseline,2021.2.3,Win32,59.74429442
,,,,,,,,,,,,,,,,,dingecnek,dingecnak,left,17.3307,0,30,30,42,1,97,dingec,dingec,nak,e,Ez itt egy dingec.,Elneveztem a kutyámat...,dingecnek,dingecnak,dzsungel,NA,NA,PR2047,1998,nő,nem,2022-04-14_10h14.37.263,hesp_baseline,2021.2.3,Win32,59.74429442
,,,,,,,,,,,,,,,,,figlom,figlok,right,9.1044,0,31,31,75,1,76,figlik,figlasz,NA,NA,Te bizony sokat figlasz.,Én is sokat...,figlok,figlom,lakik,-lik,1,PR2047,1998,nő,nem,2022-04-14_10h14.37.263,hesp_baseline,2021.2.3,Win32,59.74429442
,,,,,,,,,,,,,,,,,csintékben,csintékban,left,3.8985,0,32,32,23,1,78,csinték,csinték,ban,é,Ez itt egy csinték.,Ott vagyunk a...,csintékben,csintékban,dzsungel,NA,NA,PR2047,1998,nő,nem,2022-04-14_10h14.37.263,hesp_baseline,2021.2.3,Win32,59.74429442
,,,,,,,,,,,,,,,,,gyihegeztek,gyihegzetek,left,19.1725,0,33,33,124,1,71,gyihegzik / gyihegezik,"gyihegzik, gyihegezni",tek,NA,"János imád gyihegezni, ezért sokat gyihegzik.",Ti ritkán...,gyihegzetek,gyihegeztek,cselekszik,-zik,2,PR2047,1998,nő,nem,2022-04-14_10h14.37.263,hesp_baseline,2021.2.3,Win32,59.74429442
,,,,,,,,,,,,,,,,,lírlanak,líroznak,left,73.0044,0,34,34,115,1,62,lírlik / lírozik,"lírlik, lírozni",nek,NA,"János imád lírozni, ezért sokat lírlik.",Ők ritkán...,lírlanak,líroznak,cselekszik,-lik,1,PR2047,1998,nő,nem,2022-04-14_10h14.37.263,hesp_baseline,2021.2.3,Win32,59.74429442
,,,,,,,,,,,,,,,,,spöklünk,spöközünk,left,5.7195,0,35,35,130,1,77,spöklik / spöközik,"spöklik, spöközni",ünk,NA,"János imád spöközni, ezért sokat spöklik.",Mi ritkán...,spöklünk,spöközünk,cselekszik,-lik,1,PR2047,1998,nő,nem,2022-04-14_10h14.37.263,hesp_baseline,2021.2.3,Win32,59.74429442
,,,,,,,,,,,,,,,,,dárakodunk,dárakszunk,right,30.7507,0,36,36,126,1,73,dárakszik / dárakodik,"dárakszik, dárakodni",ünk,NA,"János imád dárakodni, ezért sokat dárakszik.",Mi ritkán...,dárakszunk,dárakodunk,cselekszik,-szik,2,PR2047,1998,nő,nem,2022-04-14_10h14.37.263,hesp_baseline,2021.2.3,Win32,59.74429442
,,,,,,,,,,,,,,,,,floglom,floglok,right,4.7963,0,37,37,92,1,93,floglik,floglasz,NA,NA,Te bizony sokat floglasz.,Én is sokat...,floglok,floglom,lakik,-lik,1,PR2047,1998,nő,nem,2022-04-14_10h14.37.263,hesp_baseline,2021.2.3,Win32,59.74429442
,,,,,,,,,,,,,,,,,spiharoztok,spiharzotok,right,8.8258,0,38,38,127,1,74,spiharzik / spiharozik,"spiharzik, spiharozni",tek,NA,"János imád spiharozni, ezért sokat spiharzik.",Ti ritkán...,spiharzotok,spiharoztok,cselekszik,-zik,2,PR2047,1998,nő,nem,2022-04-14_10h14.37.263,hesp_baseline,2021.2.3,Win32,59.74429442
,,,,,,,,,,,,,,,,,molodtok,molszotok,right,9.2306,0,39,39,142,1,89,molszik / molodik,"molszik, molodni",tek,NA,"János imád molodni, ezért sokat molszik.",Ti ritkán...,molszotok,molodtok,cselekszik,-szik,1,PR2047,1998,nő,nem,2022-04-14_10h14.37.263,hesp_baseline,2021.2.3,Win32,59.74429442
,,,,,,,,,,,,,,,,,klingeszban,klingeszben,right,14.6658,0,40,40,1,1,56,klingesz,klingesz,ban,e,Ez itt egy klingesz.,Ott vagyunk a...,klingeszben,klingeszban,dzsungel,NA,NA,PR2047,1998,nő,nem,2022-04-14_10h14.37.263,hesp_baseline,2021.2.3,Win32,59.74429442
,,,,,,,,,,,,,,,,,dibáglotok,dibágoztok,left,8.7953,0,41,41,154,1,101,dibáglik / dibágozik,"dibáglik, dibágozni",tek,NA,"János imád dibágozni, ezért sokat dibáglik.",Ti ritkán...,dibáglotok,dibágoztok,cselekszik,-lik,2,PR2047,1998,nő,nem,2022-04-14_10h14.37.263,hesp_baseline,2021.2.3,Win32,59.74429442
,,,,,,,,,,,,,,,,,nidétban,nidétben,right,43.044,0,42,42,39,1,94,nidét,nidét,ban,é,Ez itt egy nidét.,Ott vagyunk a...,nidétben,nidétban,dzsungel,NA,NA,PR2047,1998,nő,nem,2022-04-14_10h14.37.263,hesp_baseline,2021.2.3,Win32,59.74429442
,,,,,,,,,,,,,,,,,ronvetnek,ronvetnak,left,4.2803,0,43,43,9,1,64,ronvet,ronvet,nak,e,Ez itt egy ronvet.,Elneveztem a kutyámat...,ronvetnek,ronvetnak,dzsungel,NA,NA,PR2047,1998,nő,nem,2022-04-14_10h14.37.263,hesp_baseline,2021.2.3,Win32,59.74429442
,,,,,,,,,,,,,,,,,flűröklök,flűröklöm,left,8.0793,0,44,44,91,1,92,flűröklik,flűröklesz,NA,NA,Te bizony sokat flűröklesz.,Én is sokat...,flűröklök,flűröklöm,lakik,-lik,2,PR2047,1998,nő,nem,2022-04-14_10h14.37.263,hesp_baseline,2021.2.3,Win32,59.74429442
,,,,,,,,,,,,,,,,,bingéjnak,bingéjnek,right,3.7157,0,45,45,49,1,104,bingéj,bingéj,nak,é,Ez itt egy bingéj.,Elneveztem a kutyámat...,bingéjnek,bingéjnak,dzsungel,NA,NA,PR2047,1998,nő,nem,2022-04-14_10h14.37.263,hesp_baseline,2021.2.3,Win32,59.74429442
,,,,,,,,,,,,,,,,,garcépnál,garcépnél,right,4.8395,0,46,46,38,1,93,garcép,garcép,nál,é,Ez itt egy garcép.,Nincs is jobb egy jó...,garcépnél,garcépnál,dzsungel,NA,NA,PR2047,1998,nő,nem,2022-04-14_10h14.37.263,hesp_baseline,2021.2.3,Win32,59.74429442
,,,,,,,,,,,,,,,,,míjozunk,míjzunk,right,62.4815,0,47,47,114,1,61,míjzik / míjozik,"míjzik, míjozni",ünk,NA,"János imád míjozni, ezért sokat míjzik.",Mi ritkán...,míjzunk,míjozunk,cselekszik,-zik,1,PR2047,1998,nő,nem,2022-04-14_10h14.37.263,hesp_baseline,2021.2.3,Win32,59.74429442
,,,,,,,,,,,,,,,,,gúdenban,gúdenben,right,4.6257,0,48,48,4,1,59,gúden,gúden,ban,e,Ez itt egy gúden.,Ott vagyunk a...,gúdenben,gúdenban,dzsungel,NA,NA,PR2047,1998,nő,nem,2022-04-14_10h14.37.263,hesp_baseline,2021.2.3,Win32,59.74429442
,,,,,,,,,,,,,,,,,nyüröznek,nyürzenek,left,6.5372,0,49,49,123,1,70,nyürzik / nyürözik,"nyürzik, nyürözni",nek,NA,"János imád nyürözni, ezért sokat nyürzik.",Ők ritkán...,nyürzenek,nyüröznek,cselekszik,-zik,1,PR2047,1998,nő,nem,2022-04-14_10h14.37.263,hesp_baseline,2021.2.3,Win32,59.74429442
,,,,,,,,,,,,,,,,,spatárzom,spatárzok,right,5.6162,0,50,50,69,1,70,spatárzik,spatárzol,NA,NA,Te bizony sokat spatárzol.,Én is sokat...,spatárzok,spatárzom,lakik,-zik,2,PR2047,1998,nő,nem,2022-04-14_10h14.37.263,hesp_baseline,2021.2.3,Win32,59.74429442
,,,,,,,,,,,,,,,,,csubzunk,csubozunk,left,4.3495,0,51,51,111,1,58,csubzik / csubozik,"csubzik, csubozni",ünk,NA,"János imád csubozni, ezért sokat csubzik.",Mi ritkán...,csubzunk,csubozunk,cselekszik,-zik,1,PR2047,1998,nő,nem,2022-04-14_10h14.37.263,hesp_baseline,2021.2.3,Win32,59.74429442
,,,,,,,,,,,,,,,,,fibamlom,fibamlok,right,3.6668,0,52,52,65,1,66,fibamlik,fibamlasz,NA,NA,Te bizony sokat fibamlasz.,Én is sokat...,fibamlok,fibamlom,lakik,-lik,2,PR2047,1998,nő,nem,2022-04-14_10h14.37.263,hesp_baseline,2021.2.3,Win32,59.74429442
,,,,,,,,,,,,,,,,,rapszeknál,rapszeknél,right,4.1019,0,53,53,35,1,90,rapszek,rapszek,nál,e,Ez itt egy rapszek.,Nincs is jobb egy jó...,rapszeknél,rapszeknál,dzsungel,NA,NA,PR2047,1998,nő,nem,2022-04-14_10h14.37.263,hesp_baseline,2021.2.3,Win32,59.74429442
,,,,,,,,,,,,,,,,,frivamlunk,frivamozunk,left,8.1348,0,54,54,122,1,69,frivamlik / frivamozik,"frivamlik, frivamozni",ünk,NA,"János imád frivamozni, ezért sokat frivamlik.",Mi ritkán...,frivamlunk,frivamozunk,cselekszik,-lik,2,PR2047,1998,nő,nem,2022-04-14_10h14.37.263,hesp_baseline,2021.2.3,Win32,59.74429442
,,,,,,,,,,,,,,,,,prohódzom,prohódzok,left,4.4514,0,55,55,66,1,67,prohódzik,prohódzol,NA,NA,Te bizony sokat prohódzol.,Én is sokat...,prohódzok,prohódzom,lakik,-zik,2,PR2047,1998,nő,nem,2022-04-14_10h14.37.263,hesp_baseline,2021.2.3,Win32,59.74429442
,,,,,,,,,,,,,,,,,brivegzem,brivegzek,left,3.4525,0,56,56,70,1,71,brivegzik,brivegzel,NA,NA,Te bizony sokat brivegzel.,Én is sokat...,brivegzek,brivegzem,lakik,-zik,2,PR2047,1998,nő,nem,2022-04-14_10h14.37.263,hesp_baseline,2021.2.3,Win32,59.74429442
,,,,,,,,,,,,,,,,,sprűröznek,sprűrlenek,right,5.1164,0,57,57,135,1,82,sprűrlik / sprűrözik,"sprűrlik, sprűrözni",nek,NA,"János imád sprűrözni, ezért sokat sprűrlik.",Ők ritkán...,sprűrlenek,sprűröznek,cselekszik,-lik,1,PR2047,1998,nő,nem,2022-04-14_10h14.37.263,hesp_baseline,2021.2.3,Win32,59.74429442
,,,,,,,,,,,,,,,,,fájézban,fájézben,right,12.282,0,58,58,7,1,62,fájéz,fájéz,ban,é,Ez itt egy fájéz.,Ott vagyunk a...,fájézben,fájézban,dzsungel,NA,NA,PR2047,1998,nő,nem,2022-04-14_10h14.37.263,hesp_baseline,2021.2.3,Win32,59.74429442
,,,,,,,,,,,,,,,,,zutennél,zutennál,left,17.4959,0,59,59,43,1,98,zuten,zuten,nál,e,Ez itt egy zuten.,Nincs is jobb egy jó...,zutennél,zutennál,dzsungel,NA,NA,PR2047,1998,nő,nem,2022-04-14_10h14.37.263,hesp_baseline,2021.2.3,Win32,59.74429442
,,,,,,,,,,,,,,,,,fröjzötök,fröjöztök,right,8.871,0,60,60,153,1,100,fröjzik / fröjözik,"fröjzik, fröjözni",tek,NA,"János imád fröjözni, ezért sokat fröjzik.",Ti ritkán...,fröjzötök,fröjöztök,cselekszik,-zik,1,PR2047,1998,nő,nem,2022-04-14_10h14.37.263,hesp_baseline,2021.2.3,Win32,59.74429442
,,,,,,,,,,,,,,,,,nyábétban,nyábétben,right,6.6391,0,61,61,21,1,76,nyábét,nyábét,ban,é,Ez itt egy nyábét.,Ott vagyunk a...,nyábétben,nyábétban,dzsungel,NA,NA,PR2047,1998,nő,nem,2022-04-14_10h14.37.263,hesp_baseline,2021.2.3,Win32,59.74429442
,,,,,,,,,,,,,,,,,flodoztok,flodlotok,right,43.153,0,62,62,144,1,91,flodlik / flodozik,"flodlik, flodozni",tek,NA,"János imád flodozni, ezért sokat flodlik.",Ti ritkán...,flodlotok,flodoztok,cselekszik,-lik,1,PR2047,1998,nő,nem,2022-04-14_10h14.37.263,hesp_baseline,2021.2.3,Win32,59.74429442
,,,,,,,,,,,,,,,,,pribemlek,pribemlem,left,80.7649,0,63,63,107,1,108,pribemlik,pribemlesz,NA,NA,Te bizony sokat pribemlesz.,Én is sokat...,pribemlek,pribemlem,lakik,-lik,2,PR2047,1998,nő,nem,2022-04-14_10h14.37.263,hesp_baseline,2021.2.3,Win32,59.74429442
,,,,,,,,,,,,,,,,,jonylok,jonylom,left,69.916,0,64,64,55,1,56,jonylik,jonylasz,NA,NA,Te bizony sokat jonylasz.,Én is sokat...,jonylok,jonylom,lakik,-lik,1,PR2047,1998,nő,nem,2022-04-14_10h14.37.263,hesp_baseline,2021.2.3,Win32,59.74429442
,,,,,,,,,,,,,,,,,pítendban,pítendben,right,3.2751,0,65,65,18,1,73,pítend,pítend,ban,e,Ez itt egy pítend.,Ott vagyunk a...,pítendben,pítendban,dzsungel,NA,NA,PR2047,1998,nő,nem,2022-04-14_10h14.37.263,hesp_baseline,2021.2.3,Win32,59.74429442
,,,,,,,,,,,,,,,,,frálaslanak,frálasoznak,left,10.1148,0,66,66,110,1,57,frálaslik / frálasozik,"frálaslik, frálasozni",nek,NA,"János imád frálasozni, ezért sokat frálaslik.",Ők ritkán...,frálaslanak,frálasoznak,cselekszik,-lik,2,PR2047,1998,nő,nem,2022-04-14_10h14.37.263,hesp_baseline,2021.2.3,Win32,59.74429442
,,,,,,,,,,,,,,,,,flézletek,flézeztek,right,8.4361,0,67,67,134,1,81,flézlik / flézezik,"flézlik, flézezni",tek,NA,"János imád flézezni, ezért sokat flézlik.",Ti ritkán...,flézletek,flézeztek,cselekszik,-lik,1,PR2047,1998,nő,nem,2022-04-14_10h14.37.263,hesp_baseline,2021.2.3,Win32,59.74429442
,,,,,,,,,,,,,,,,,ribegzek,ribegzem,left,3.737,0,68,68,63,1,64,ribegzik,ribegzel,NA,NA,Te bizony sokat ribegzel.,Én is sokat...,ribegzek,ribegzem,lakik,-zik,2,PR2047,1998,nő,nem,2022-04-14_10h14.37.263,hesp_baseline,2021.2.3,Win32,59.74429442
,,,,,,,,,,,,,,,,,zsigénnél,zsigénnál,left,3.6166,0,69,69,12,1,67,zsigén,zsigén,nál,é,Ez itt egy zsigén.,Nincs is jobb egy jó...,zsigénnél,zsigénnál,dzsungel,NA,NA,PR2047,1998,nő,nem,2022-04-14_10h14.37.263,hesp_baseline,2021.2.3,Win32,59.74429442
,,,,,,,,,,,,,,,,,nűröklök,nűröklöm,right,5.2494,0,70,70,106,1,107,nűröklik,nűröklesz,NA,NA,Te bizony sokat nűröklesz.,Én is sokat...,nűröklök,nűröklöm,lakik,-lik,2,PR2047,1998,nő,nem,2022-04-14_10h14.37.263,hesp_baseline,2021.2.3,Win32,59.74429442
,,,,,,,,,,,,,,,,,ítensban,ítensben,right,3.0172,0,71,71,50,1,105,ítens,ítens,ban,e,Ez itt egy ítens.,Ott vagyunk a...,ítensben,ítensban,dzsungel,NA,NA,PR2047,1998,nő,nem,2022-04-14_10h14.37.263,hesp_baseline,2021.2.3,Win32,59.74429442
,,,,,,,,,,,,,,,,,frodlok,frodlom,left,2.6675,0,72,72,61,1,62,frodlik,frodlasz,NA,NA,Te bizony sokat frodlasz.,Én is sokat...,frodlok,frodlom,lakik,-lik,1,PR2047,1998,nő,nem,2022-04-14_10h14.37.263,hesp_baseline,2021.2.3,Win32,59.74429442
,,,,,,,,,,,,,,,,,tiregzem,tiregzek,right,6.7387,0,73,73,64,1,65,tiregzik,tiregzel,NA,NA,Te bizony sokat tiregzel.,Én is sokat...,tiregzek,tiregzem,lakik,-zik,2,PR2047,1998,nő,nem,2022-04-14_10h14.37.263,hesp_baseline,2021.2.3,Win32,59.74429442
,,,,,,,,,,,,,,,,,prihekszem,prihekszek,right,5.1892,0,74,74,100,1,101,prihekszik,prihekszel,NA,NA,Te bizony sokat prihekszel.,Én is sokat...,prihekszek,prihekszem,lakik,-szik,2,PR2047,1998,nő,nem,2022-04-14_10h14.37.263,hesp_baseline,2021.2.3,Win32,59.74429442
,,,,,,,,,,,,,,,,,prihegednek,prihegszenek,right,6.6321,0,75,75,155,1,102,prihegszik / prihegedik,"prihegszik, prihegedni",nek,NA,"János imád prihegedni, ezért sokat prihegszik.",Ők ritkán...,prihegszenek,prihegednek,cselekszik,-szik,2,PR2047,1998,nő,nem,2022-04-14_10h14.37.263,hesp_baseline,2021.2.3,Win32,59.74429442
,,,,,,,,,,,,,,,,,tribejletek,tribejeztek,right,11.2505,0,76,76,132,1,79,tribejlik / tribejezik,"tribejlik, tribejezni",tek,NA,"János imád tribejezni, ezért sokat tribejlik.",Ti ritkán...,tribejletek,tribejeztek,cselekszik,-lik,2,PR2047,1998,nő,nem,2022-04-14_10h14.37.263,hesp_baseline,2021.2.3,Win32,59.74429442
,,,,,,,,,,,,,,,,,lingéknél,lingéknál,left,3.4908,0,77,77,32,1,87,lingék,lingék,nál,é,Ez itt egy lingék.,Nincs is jobb egy jó...,lingéknél,lingéknál,dzsungel,NA,NA,PR2047,1998,nő,nem,2022-04-14_10h14.37.263,hesp_baseline,2021.2.3,Win32,59.74429442
,,,,,,,,,,,,,,,,,fivénylem,fivénylek,right,5.192,0,78,78,78,1,79,fivénylik,fivénylesz,NA,NA,Te bizony sokat fivénylesz.,Én is sokat...,fivénylek,fivénylem,lakik,-lik,2,PR2047,1998,nő,nem,2022-04-14_10h14.37.263,hesp_baseline,2021.2.3,Win32,59.74429442
,,,,,,,,,,,,,,,,,jábézban,jábézben,right,2.9507,0,79,79,34,1,89,jábéz,jábéz,ban,é,Ez itt egy jábéz.,Ott vagyunk a...,jábézben,jábézban,dzsungel,NA,NA,PR2047,1998,nő,nem,2022-04-14_10h14.37.263,hesp_baseline,2021.2.3,Win32,59.74429442
,,,,,,,,,,,,,,,,,flűgzünk,flűgözünk,left,4.4663,0,80,80,160,1,107,flűgzik / flűgözik,"flűgzik, flűgözni",ünk,NA,"János imád flűgözni, ezért sokat flűgzik.",Mi ritkán...,flűgzünk,flűgözünk,cselekszik,-zik,1,PR2047,1998,nő,nem,2022-04-14_10h14.37.263,hesp_baseline,2021.2.3,Win32,59.74429442
,,,,,,,,,,,,,,,,,spáraklok,spáraklom,left,3.7504,0,81,81,96,1,97,spáraklik,spáraklasz,NA,NA,Te bizony sokat spáraklasz.,Én is sokat...,spáraklok,spáraklom,lakik,-lik,2,PR2047,1998,nő,nem,2022-04-14_10h14.37.263,hesp_baseline,2021.2.3,Win32,59.74429442
,,,,,,,,,,,,,,,,,dihelynak,dihelynek,right,3.3989,0,82,82,20,1,75,dihely,dihely,nak,e,Ez itt egy dihely.,Elneveztem a kutyámat...,dihelynek,dihelynak,dzsungel,NA,NA,PR2047,1998,nő,nem,2022-04-14_10h14.37.263,hesp_baseline,2021.2.3,Win32,59.74429442
,,,,,,,,,,,,,,,,,zarcégnél,zarcégnál,left,7.6155,0,83,83,29,1,84,zarcég,zarcég,nál,é,Ez itt egy zarcég.,Nincs is jobb egy jó...,zarcégnél,zarcégnál,dzsungel,NA,NA,PR2047,1998,nő,nem,2022-04-14_10h14.37.263,hesp_baseline,2021.2.3,Win32,59.74429442
,,,,,,,,,,,,,,,,,fröjözünk,fröjlünk,right,8.0652,0,84,84,117,1,64,fröjlik / fröjözik,"fröjlik, fröjözni",ünk,NA,"János imád fröjözni, ezért sokat fröjlik.",Mi ritkán...,fröjlünk,fröjözünk,cselekszik,-lik,1,PR2047,1998,nő,nem,2022-04-14_10h14.37.263,hesp_baseline,2021.2.3,Win32,59.74429442
,,,,,,,,,,,,,,,,,spátennak,spátennek,right,9.8226,0,85,85,33,1,88,spáten,spáten,nak,e,Ez itt egy spáten.,Elneveztem a kutyámat...,spátennek,spátennak,dzsungel,NA,NA,PR2047,1998,nő,nem,2022-04-14_10h14.37.263,hesp_baseline,2021.2.3,Win32,59.74429442
,,,,,,,,,,,,,,,,,sprízemnél,sprízemnál,left,4.1503,0,86,86,22,1,77,sprízem,sprízem,nál,e,Ez itt egy sprízem.,Nincs is jobb egy jó...,sprízemnél,sprízemnál,dzsungel,NA,NA,PR2047,1998,nő,nem,2022-04-14_10h14.37.263,hesp_baseline,2021.2.3,Win32,59.74429442
,,,,,,,,,,,,,,,,,klazérban,klazérben,right,10.0636,0,87,87,51,1,106,klazér,klazér,ban,é,Ez itt egy klazér.,Ott vagyunk a...,klazérben,klazérban,dzsungel,NA,NA,PR2047,1998,nő,nem,2022-04-14_10h14.37.263,hesp_baseline,2021.2.3,Win32,59.74429442
,,,,,,,,,,,,,,,,,flürököztök,flüröklötök,left,33.1608,0,88,88,149,1,96,flüröklik / flüröközik,"flüröklik, flüröközni",tek,NA,"János imád flüröközni, ezért sokat flüröklik.",Ti ritkán...,flüröklötök,flürököztök,cselekszik,-lik,2,PR2047,1998,nő,nem,2022-04-14_10h14.37.263,hesp_baseline,2021.2.3,Win32,59.74429442
,,,,,,,,,,,,,,,,,hubonyoztok,hubonylotok,left,6.1196,0,89,89,157,1,104,hubonylik / hubonyozik,"hubonylik, hubonyozni",tek,NA,"János imád hubonyozni, ezért sokat hubonylik.",Ti ritkán...,hubonylotok,hubonyoztok,cselekszik,-lik,2,PR2047,1998,nő,nem,2022-04-14_10h14.37.263,hesp_baseline,2021.2.3,Win32,59.74429442
,,,,,,,,,,,,,,,,,ribzom,ribzok,right,3.0009,0,90,90,58,1,59,ribzik,ribzol,NA,NA,Te bizony sokat ribzol.,Én is sokat...,ribzok,ribzom,lakik,-zik,1,PR2047,1998,nő,nem,2022-04-14_10h14.37.263,hesp_baseline,2021.2.3,Win32,59.74429442
,,,,,,,,,,,,,,,,,kluzlotok,kluzoztok,left,5.5989,0,91,91,148,1,95,kluzlik / kluzozik,"kluzlik, kluzozni",tek,NA,"János imád kluzozni, ezért sokat kluzlik.",Ti ritkán...,kluzlotok,kluzoztok,cselekszik,-lik,1,PR2047,1998,nő,nem,2022-04-14_10h14.37.263,hesp_baseline,2021.2.3,Win32,59.74429442
,,,,,,,,,,,,,,,,,metégednek,metégszenek,right,6.3034,0,92,92,112,1,59,metégszik / metégedik,"metégszik, metégedni",nek,NA,"János imád metégedni, ezért sokat metégszik.",Ők ritkán...,metégszenek,metégednek,cselekszik,-szik,2,PR2047,1998,nő,nem,2022-04-14_10h14.37.263,hesp_baseline,2021.2.3,Win32,59.74429442
,,,,,,,,,,,,,,,,,sprogzom,sprogzok,left,2.9333,0,93,93,89,1,90,sprogzik,sprogzol,NA,NA,Te bizony sokat sprogzol.,Én is sokat...,sprogzok,sprogzom,lakik,-zik,1,PR2047,1998,nő,nem,2022-04-14_10h14.37.263,hesp_baseline,2021.2.3,Win32,59.74429442
,,,,,,,,,,,,,,,,,mihágzotok,mihágoztok,left,4.7356,0,94,94,118,1,65,mihágzik / mihágozik,"mihágzik, mihágozni",tek,NA,"János imád mihágozni, ezért sokat mihágzik.",Ti ritkán...,mihágzotok,mihágoztok,cselekszik,-zik,2,PR2047,1998,nő,nem,2022-04-14_10h14.37.263,hesp_baseline,2021.2.3,Win32,59.74429442
,,,,,,,,,,,,,,,,,sortemnál,sortemnél,right,3.3333,0,95,95,15,1,70,sortem,sortem,nál,e,Ez itt egy sortem.,Nincs is jobb egy jó...,sortemnél,sortemnál,dzsungel,NA,NA,PR2047,1998,nő,nem,2022-04-14_10h14.37.263,hesp_baseline,2021.2.3,Win32,59.74429442
,,,,,,,,,,,,,,,,,hákszanak,hákodnak,right,5.5346,0,96,96,150,1,97,hákszik / hákodik,"hákszik, hákodni",nek,NA,"János imád hákodni, ezért sokat hákszik.",Ők ritkán...,hákszanak,hákodnak,cselekszik,-szik,1,PR2047,1998,nő,nem,2022-04-14_10h14.37.263,hesp_baseline,2021.2.3,Win32,59.74429442
,,,,,,,,,,,,,,,,,trugoznak,trugzanak,left,5.5321,0,97,97,146,1,93,trugzik / trugozik,"trugzik, trugozni",nek,NA,"János imád trugozni, ezért sokat trugzik.",Ők ritkán...,trugzanak,trugoznak,cselekszik,-zik,1,PR2047,1998,nő,nem,2022-04-14_10h14.37.263,hesp_baseline,2021.2.3,Win32,59.74429442
,,,,,,,,,,,,,,,,,ruslok,ruslom,left,2.7321,0,98,98,83,1,84,ruslik,ruslasz,NA,NA,Te bizony sokat ruslasz.,Én is sokat...,ruslok,ruslom,lakik,-lik,1,PR2047,1998,nő,nem,2022-04-14_10h14.37.263,hesp_baseline,2021.2.3,Win32,59.74429442
,,,,,,,,,,,,,,,,,klítegynál,klítegynél,right,4.333,0,99,99,5,1,60,klítegy,klítegy,nál,e,Ez itt egy klítegy.,Nincs is jobb egy jó...,klítegynél,klítegynál,dzsungel,NA,NA,PR2047,1998,nő,nem,2022-04-14_10h14.37.263,hesp_baseline,2021.2.3,Win32,59.74429442
,,,,,,,,,,,,,,,,,driládzom,driládzok,left,7.7547,0,100,100,67,1,68,driládzik,driládzol,NA,NA,Te bizony sokat driládzol.,Én is sokat...,driládzok,driládzom,lakik,-zik,2,PR2047,1998,nő,nem,2022-04-14_10h14.37.263,hesp_baseline,2021.2.3,Win32,59.74429442
,,,,,,,,,,,,,,,,,péleslem,péleslek,right,5.6991,0,101,101,73,1,74,péleslik,péleslesz,NA,NA,Te bizony sokat péleslesz.,Én is sokat...,péleslek,péleslem,lakik,-lik,2,PR2047,1998,nő,nem,2022-04-14_10h14.37.263,hesp_baseline,2021.2.3,Win32,59.74429442
,,,,,,,,,,,,,,,,,tranékban,tranékben,right,3.8009,0,102,102,2,1,57,tranék,tranék,ban,é,Ez itt egy tranék.,Ott vagyunk a...,tranékben,tranékban,dzsungel,NA,NA,PR2047,1998,nő,nem,2022-04-14_10h14.37.263,hesp_baseline,2021.2.3,Win32,59.74429442
,,,,,,,,,,,,,,,,,gihesztnek,gihesztnak,left,3.3045,0,103,103,36,1,91,giheszt,giheszt,nak,e,Ez itt egy giheszt.,Elneveztem a kutyámat...,gihesztnek,gihesztnak,dzsungel,NA,NA,PR2047,1998,nő,nem,2022-04-14_10h14.37.263,hesp_baseline,2021.2.3,Win32,59.74429442
,,,,,,,,,,,,,,,,,sojzok,sojzom,left,3.4701,0,104,104,74,1,75,sojzik,sojzol,NA,NA,Te bizony sokat sojzol.,Én is sokat...,sojzok,sojzom,lakik,-zik,1,PR2047,1998,nő,nem,2022-04-14_10h14.37.263,hesp_baseline,2021.2.3,Win32,59.74429442
,,,,,,,,,,,,,,,,,plugzok,plugzom,left,3.4836,0,105,105,60,1,61,plugzik,plugzol,NA,NA,Te bizony sokat plugzol.,Én is sokat...,plugzok,plugzom,lakik,-zik,1,PR2047,1998,nő,nem,2022-04-14_10h14.37.263,hesp_baseline,2021.2.3,Win32,59.74429442
,,,,,,,,,,,,,,,,,pratánylok,pratánylom,left,4.7672,0,106,106,95,1,96,pratánylik,pratánylasz,NA,NA,Te bizony sokat pratánylasz.,Én is sokat...,pratánylok,pratánylom,lakik,-lik,2,PR2047,1998,nő,nem,2022-04-14_10h14.37.263,hesp_baseline,2021.2.3,Win32,59.74429442
,,,,,,,,,,,,,,,,,nyádlanak,nyádoznak,left,6.1607,0,107,107,120,1,67,nyádlik / nyádozik,"nyádlik, nyádozni",nek,NA,"János imád nyádozni, ezért sokat nyádlik.",Ők ritkán...,nyádlanak,nyádoznak,cselekszik,-lik,1,PR2047,1998,nő,nem,2022-04-14_10h14.37.263,hesp_baseline,2021.2.3,Win32,59.74429442
,,,,,,,,,,,,,,,,,klűmöztök,klűmlötök,right,9.3336,0,108,108,108,1,55,klűmlik / klűmözik,"klűmlik, klűmözni",tek,NA,"János imád klűmözni, ezért sokat klűmlik.",Ti ritkán...,klűmlötök,klűmöztök,cselekszik,-lik,1,PR2047,1998,nő,nem,2022-04-14_10h14.37.263,hesp_baseline,2021.2.3,Win32,59.74429442
,,,,,,,,,,,,,,,,,trírzunk,trírozunk,left,7.5161,0,109,109,116,1,63,trírzik / trírozik,"trírzik, trírozni",ünk,NA,"János imád trírozni, ezért sokat trírzik.",Mi ritkán...,trírzunk,trírozunk,cselekszik,-zik,1,PR2047,1998,nő,nem,2022-04-14_10h14.37.263,hesp_baseline,2021.2.3,Win32,59.74429442
,,,,,,,,,,,,,,,,,branylanak,branyoznak,left,6.6472,0,110,110,136,1,83,branylik / branyozik,"branylik, branyozni",nek,NA,"János imád branyozni, ezért sokat branylik.",Ők ritkán...,branylanak,branyoznak,cselekszik,-lik,1,PR2047,1998,nő,nem,2022-04-14_10h14.37.263,hesp_baseline,2021.2.3,Win32,59.74429442
,,,,,,,,,,,,,,,,,prazozunk,prazlunk,right,7.3373,0,111,111,119,1,66,prazlik / prazozik,"prazlik, prazozni",ünk,NA,"János imád prazozni, ezért sokat prazlik.",Mi ritkán...,prazlunk,prazozunk,cselekszik,-lik,1,PR2047,1998,nő,nem,2022-04-14_10h14.37.263,hesp_baseline,2021.2.3,Win32,59.74429442
,,,,,,,,,,,,,,,,,gilárzok,gilárzom,left,6.6501,0,112,112,94,1,95,gilárzik,gilárzol,NA,NA,Te bizony sokat gilárzol.,Én is sokat...,gilárzok,gilárzom,lakik,-zik,2,PR2047,1998,nő,nem,2022-04-14_10h14.37.263,hesp_baseline,2021.2.3,Win32,59.74429442
,,,,,,,,,,,,,,,,,tomlom,tomlok,right,3.3553,0,113,113,86,1,87,tomlik,tomlasz,NA,NA,Te bizony sokat tomlasz.,Én is sokat...,tomlok,tomlom,lakik,-lik,1,PR2047,1998,nő,nem,2022-04-14_10h14.37.263,hesp_baseline,2021.2.3,Win32,59.74429442
,,,,,,,,,,,,,,,,,lihadzok,lihadzom,left,3.9824,0,114,114,101,1,102,lihadzik,lihadzol,NA,NA,Te bizony sokat lihadzol.,Én is sokat...,lihadzok,lihadzom,lakik,-zik,2,PR2047,1998,nő,nem,2022-04-14_10h14.37.263,hesp_baseline,2021.2.3,Win32,59.74429442
,,,,,,,,,,,,,,,,,flerékszünk,flerékedünk,left,6.8329,0,115,115,159,1,106,flerékszik / flerékedik,"flerékszik, flerékedni",ünk,NA,"János imád flerékedni, ezért sokat flerékszik.",Mi ritkán...,flerékszünk,flerékedünk,cselekszik,-szik,2,PR2047,1998,nő,nem,2022-04-14_10h14.37.263,hesp_baseline,2021.2.3,Win32,59.74429442
,,,,,,,,,,,,,,,,,szirlok,szirlom,left,3.8665,0,116,116,62,1,63,szirlik,szirlasz,NA,NA,Te bizony sokat szirlasz.,Én is sokat...,szirlok,szirlom,lakik,-lik,1,PR2047,1998,nő,nem,2022-04-14_10h14.37.263,hesp_baseline,2021.2.3,Win32,59.74429442
,,,,,,,,,,,,,,,,,praslom,praslok,right,3.3917,0,117,117,80,1,81,praslik,praslasz,NA,NA,Te bizony sokat praslasz.,Én is sokat...,praslok,praslom,lakik,-lik,1,PR2047,1998,nő,nem,2022-04-14_10h14.37.263,hesp_baseline,2021.2.3,Win32,59.74429442
,,,,,,,,,,,,,,,,,nyöbzenek,nyöböznek,left,5.6868,0,118,118,152,1,99,nyöbzik / nyöbözik,"nyöbzik, nyöbözni",nek,NA,"János imád nyöbözni, ezért sokat nyöbzik.",Ők ritkán...,nyöbzenek,nyöböznek,cselekszik,-zik,1,PR2047,1998,nő,nem,2022-04-14_10h14.37.263,hesp_baseline,2021.2.3,Win32,59.74429442
,,,,,,,,,,,,,,,,,nuroklunk,nurokozunk,left,4.5721,0,119,119,131,1,78,nuroklik / nurokozik,"nuroklik, nurokozni",ünk,NA,"János imád nurokozni, ezért sokat nuroklik.",Mi ritkán...,nuroklunk,nurokozunk,cselekszik,-lik,2,PR2047,1998,nő,nem,2022-04-14_10h14.37.263,hesp_baseline,2021.2.3,Win32,59.74429442
,,,,,,,,,,,,,,,,,femlek,femlem,left,9.897,0,120,120,57,1,58,femlik,femlesz,NA,NA,Te bizony sokat femlesz.,Én is sokat...,femlek,femlem,lakik,-lik,1,PR2047,1998,nő,nem,2022-04-14_10h14.37.263,hesp_baseline,2021.2.3,Win32,59.74429442
,,,,,,,,,,,,,,,,,cságyeltban,cságyeltben,right,12.5444,0,121,121,10,1,65,cságyelt,cságyelt,ban,e,Ez itt egy cságyelt.,Ott vagyunk a...,cságyeltben,cságyeltban,dzsungel,NA,NA,PR2047,1998,nő,nem,2022-04-14_10h14.37.263,hesp_baseline,2021.2.3,Win32,59.74429442
,,,,,,,,,,,,,,,,,trigencnek,trigencnak,left,4.1386,0,122,122,31,1,86,trigenc,trigenc,nak,e,Ez itt egy trigenc.,Elneveztem a kutyámat...,trigencnek,trigencnak,dzsungel,NA,NA,PR2047,1998,nő,nem,2022-04-14_10h14.37.263,hesp_baseline,2021.2.3,Win32,59.74429442
,,,,,,,,,,,,,,,,,navecben,navecban,left,4.1328,0,123,123,8,1,63,navec,navec,ban,e,Ez itt egy navec.,Ott vagyunk a...,navecben,navecban,dzsungel,NA,NA,PR2047,1998,nő,nem,2022-04-14_10h14.37.263,hesp_baseline,2021.2.3,Win32,59.74429442
,,,,,,,,,,,,,,,,,pratelynak,pratelynek,right,3.9533,0,124,124,47,1,102,prately,prately,nak,e,Ez itt egy prately.,Elneveztem a kutyámat...,pratelynek,pratelynak,dzsungel,NA,NA,PR2047,1998,nő,nem,2022-04-14_10h14.37.263,hesp_baseline,2021.2.3,Win32,59.74429442
,,,,,,,,,,,,,,,,,töglenek,tögöznek,left,4.2693,0,125,125,156,1,103,töglik / tögözik,"töglik, tögözni",nek,NA,"János imád tögözni, ezért sokat töglik.",Ők ritkán...,töglenek,tögöznek,cselekszik,-lik,1,PR2047,1998,nő,nem,2022-04-14_10h14.37.263,hesp_baseline,2021.2.3,Win32,59.74429442
,,,,,,,,,,,,,,,,,spibeglünk,spibegezünk,left,5.1017,0,126,126,147,1,94,spibeglik / spibegezik,"spibeglik, spibegezni",ünk,NA,"János imád spibegezni, ezért sokat spibeglik.",Mi ritkán...,spibeglünk,spibegezünk,cselekszik,-lik,2,PR2047,1998,nő,nem,2022-04-14_10h14.37.263,hesp_baseline,2021.2.3,Win32,59.74429442
,,,,,,,,,,,,,,,,,fojlegynek,fojlegynak,left,4.4414,0,127,127,3,1,58,fojlegy,fojlegy,nak,e,Ez itt egy fojlegy.,Elneveztem a kutyámat...,fojlegynek,fojlegynak,dzsungel,NA,NA,PR2047,1998,nő,nem,2022-04-14_10h14.37.263,hesp_baseline,2021.2.3,Win32,59.74429442
,,,,,,,,,,,,,,,,,flüröslöm,flüröslök,right,5.0995,0,128,128,87,1,88,flüröslik,flüröslesz,NA,NA,Te bizony sokat flüröslesz.,Én is sokat...,flüröslök,flüröslöm,lakik,-lik,2,PR2047,1998,nő,nem,2022-04-14_10h14.37.263,hesp_baseline,2021.2.3,Win32,59.74429442
,,,,,,,,,,,,,,,,,júdernek,júdernak,left,3.8761,0,129,129,53,1,108,júder,júder,nak,e,Ez itt egy júder.,Elneveztem a kutyámat...,júdernek,júdernak,dzsungel,NA,NA,PR2047,1998,nő,nem,2022-04-14_10h14.37.263,hesp_baseline,2021.2.3,Win32,59.74429442
,,,,,,,,,,,,,,,,,kalrézban,kalrézben,right,5.9157,0,130,130,16,1,71,kalréz,kalréz,ban,é,Ez itt egy kalréz.,Ott vagyunk a...,kalrézben,kalrézban,dzsungel,NA,NA,PR2047,1998,nő,nem,2022-04-14_10h14.37.263,hesp_baseline,2021.2.3,Win32,59.74429442
,,,,,,,,,,,,,,,,,fluboklotok,flubokoztok,left,6.419,0,131,131,151,1,98,fluboklik / flubokozik,"fluboklik, flubokozni",tek,NA,"János imád flubokozni, ezért sokat fluboklik.",Ti ritkán...,fluboklotok,flubokoztok,cselekszik,-lik,2,PR2047,1998,nő,nem,2022-04-14_10h14.37.263,hesp_baseline,2021.2.3,Win32,59.74429442
,,,,,,,,,,,,,,,,,flátszok,flátszom,left,5.5212,0,132,132,98,1,99,flátszik,flátszol,NA,NA,Te bizony sokat flátszol.,Én is sokat...,flátszok,flátszom,lakik,-szik,1,PR2047,1998,nő,nem,2022-04-14_10h14.37.263,hesp_baseline,2021.2.3,Win32,59.74429442
,,,,,,,,,,,,,,,,,flűmlök,flűmlöm,left,3.366,0,133,133,54,1,55,flűmlik,flűmlesz,NA,NA,Te bizony sokat flűmlesz.,Én is sokat...,flűmlök,flűmlöm,lakik,-lik,1,PR2047,1998,nő,nem,2022-04-14_10h14.37.263,hesp_baseline,2021.2.3,Win32,59.74429442
,,,,,,,,,,,,,,,,,spülűdzök,spülűdzöm,left,6.6576,0,134,134,56,1,57,spülűdzik,spülűdzöl,NA,NA,Te bizony sokat spülűdzöl.,Én is sokat...,spülűdzök,spülűdzöm,lakik,-zik,2,PR2047,1998,nő,nem,2022-04-14_10h14.37.263,hesp_baseline,2021.2.3,Win32,59.74429442
,,,,,,,,,,,,,,,,,forzédnak,forzédnek,left,6.0701,0,135,135,46,1,101,forzéd,forzéd,nak,é,Ez itt egy forzéd.,Elneveztem a kutyámat...,forzédnek,forzédnak,dzsungel,NA,NA,PR2047,1998,nő,nem,2022-04-14_10h14.37.263,hesp_baseline,2021.2.3,Win32,59.74429442
,,,,,,,,,,,,,,,,,klidlom,klidlok,right,3.2499,0,136,136,72,1,73,klidlik,klidlasz,NA,NA,Te bizony sokat klidlasz.,Én is sokat...,klidlok,klidlom,lakik,-lik,1,PR2047,1998,nő,nem,2022-04-14_10h14.37.263,hesp_baseline,2021.2.3,Win32,59.74429442
,,,,,,,,,,,,,,,,,vorszennél,vorszennál,left,3.7505,0,137,137,30,1,85,vorszen,vorszen,nál,e,Ez itt egy vorszen.,Nincs is jobb egy jó...,vorszennél,vorszennál,dzsungel,NA,NA,PR2047,1998,nő,nem,2022-04-14_10h14.37.263,hesp_baseline,2021.2.3,Win32,59.74429442
,,,,,,,,,,,,,,,,,szanéjnek,szanéjnak,right,8.8364,0,138,138,13,1,68,szanéj,szanéj,nak,é,Ez itt egy szanéj.,Elneveztem a kutyámat...,szanéjnek,szanéjnak,dzsungel,NA,NA,PR2047,1998,nő,nem,2022-04-14_10h14.37.263,hesp_baseline,2021.2.3,Win32,59.74429442
,,,,,,,,,,,,,,,,,fupétnál,fupétnél,right,4.2732,0,139,139,14,1,69,fupét,fupét,nál,é,Ez itt egy fupét.,Nincs is jobb egy jó...,fupétnél,fupétnál,dzsungel,NA,NA,PR2047,1998,nő,nem,2022-04-14_10h14.37.263,hesp_baseline,2021.2.3,Win32,59.74429442
,,,,,,,,,,,,,,,,,bivégszek,bivégszem,right,4.4829,0,140,140,68,1,69,bivégszik,bivégszel,NA,NA,Te bizony sokat bivégszel.,Én is sokat...,bivégszek,bivégszem,lakik,-szik,2,PR2047,1998,nő,nem,2022-04-14_10h14.37.263,hesp_baseline,2021.2.3,Win32,59.74429442
,,,,,,,,,,,,,,,,,lorjódzok,lorjódzom,right,5.5566,0,141,141,88,1,89,lorjódzik,lorjódzol,NA,NA,Te bizony sokat lorjódzol.,Én is sokat...,lorjódzok,lorjódzom,lakik,-zik,2,PR2047,1998,nő,nem,2022-04-14_10h14.37.263,hesp_baseline,2021.2.3,Win32,59.74429442
,,,,,,,,,,,,,,,,,spihegzek,spihegzem,right,3.9502,0,142,142,81,1,82,spihegzik,spihegzel,NA,NA,Te bizony sokat spihegzel.,Én is sokat...,spihegzek,spihegzem,lakik,-zik,2,PR2047,1998,nő,nem,2022-04-14_10h14.37.263,hesp_baseline,2021.2.3,Win32,59.74429442
,,,,,,,,,,,,,,,,,dabzotok,daboztok,left,5.1997,0,143,143,109,1,56,dabzik / dabozik,"dabzik, dabozni",tek,NA,"János imád dabozni, ezért sokat dabzik.",Ti ritkán...,dabzotok,daboztok,cselekszik,-zik,1,PR2047,1998,nő,nem,2022-04-14_10h14.37.263,hesp_baseline,2021.2.3,Win32,59.74429442
,,,,,,,,,,,,,,,,,flibekszem,flibekszek,left,3.975,0,144,144,93,1,94,flibekszik,flibekszel,NA,NA,Te bizony sokat flibekszel.,Én is sokat...,flibekszek,flibekszem,lakik,-szik,2,PR2047,1998,nő,nem,2022-04-14_10h14.37.263,hesp_baseline,2021.2.3,Win32,59.74429442
,,,,,,,,,,,,,,,,,tumélynél,tumélynál,right,4.2516,0,145,145,28,1,83,tumély,tumély,nál,é,Ez itt egy tumély.,Nincs is jobb egy jó...,tumélynél,tumélynál,dzsungel,NA,NA,PR2047,1998,nő,nem,2022-04-14_10h14.37.263,hesp_baseline,2021.2.3,Win32,59.74429442
,,,,,,,,,,,,,,,,,spügzünk,spügözünk,left,4.9254,0,146,146,143,1,90,spügzik / spügözik,"spügzik, spügözni",ünk,NA,"János imád spügözni, ezért sokat spügzik.",Mi ritkán...,spügzünk,spügözünk,cselekszik,-zik,1,PR2047,1998,nő,nem,2022-04-14_10h14.37.263,hesp_baseline,2021.2.3,Win32,59.74429442
,,,,,,,,,,,,,,,,,posoztok,poslotok,right,5.5659,0,147,147,121,1,68,poslik / posozik,"poslik, posozni",tek,NA,"János imád posozni, ezért sokat poslik.",Ti ritkán...,poslotok,posoztok,cselekszik,-lik,1,PR2047,1998,nő,nem,2022-04-14_10h14.37.263,hesp_baseline,2021.2.3,Win32,59.74429442
,,,,,,,,,,,,,,,,,dineltben,dineltban,left,3.5822,0,148,148,0,1,55,dinelt,dinelt,ban,e,Ez itt egy dinelt.,Ott vagyunk a...,dineltben,dineltban,dzsungel,NA,NA,PR2047,1998,nő,nem,2022-04-14_10h14.37.263,hesp_baseline,2021.2.3,Win32,59.74429442
,,,,,,,,,,,,,,,,,kumlom,kumlok,right,3.1421,0,149,149,105,1,106,kumlik,kumlasz,NA,NA,Te bizony sokat kumlasz.,Én is sokat...,kumlok,kumlom,lakik,-lik,1,PR2047,1998,nő,nem,2022-04-14_10h14.37.263,hesp_baseline,2021.2.3,Win32,59.74429442
,,,,,,,,,,,,,,,,,fligzok,fligzom,left,3.4745,0,150,150,103,1,104,fligzik,fligzol,NA,NA,Te bizony sokat fligzol.,Én is sokat...,fligzok,fligzom,lakik,-zik,1,PR2047,1998,nő,nem,2022-04-14_10h14.37.263,hesp_baseline,2021.2.3,Win32,59.74429442
,,,,,,,,,,,,,,,,,szűslök,szűslöm,left,3.8389,0,151,151,85,1,86,szűslik,szűslesz,NA,NA,Te bizony sokat szűslesz.,Én is sokat...,szűslök,szűslöm,lakik,-lik,1,PR2047,1998,nő,nem,2022-04-14_10h14.37.263,hesp_baseline,2021.2.3,Win32,59.74429442
,,,,,,,,,,,,,,,,,livényezünk,livénylünk,left,3.8828,0,152,152,128,1,75,livénylik / livényezik,"livénylik, livényezni",ünk,NA,"János imád livényezni, ezért sokat livénylik.",Mi ritkán...,livénylünk,livényezünk,cselekszik,-lik,2,PR2047,1998,nő,nem,2022-04-14_10h14.37.263,hesp_baseline,2021.2.3,Win32,59.74429442
,,,,,,,,,,,,,,,,,flitlom,flitlok,right,2.8224,0,153,153,90,1,91,flitlik,flitlasz,NA,NA,Te bizony sokat flitlasz.,Én is sokat...,flitlok,flitlom,lakik,-lik,1,PR2047,1998,nő,nem,2022-04-14_10h14.37.263,hesp_baseline,2021.2.3,Win32,59.74429442
,,,,,,,,,,,,,,,,,brágaklok,brágaklom,left,3.1246,0,154,154,71,1,72,brágaklik,brágaklasz,NA,NA,Te bizony sokat brágaklasz.,Én is sokat...,brágaklok,brágaklom,lakik,-lik,2,PR2047,1998,nő,nem,2022-04-14_10h14.37.263,hesp_baseline,2021.2.3,Win32,59.74429442
,,,,,,,,,,,,,,,,,bribékszetek,bribékedtek,left,5.699,0,155,155,141,1,88,bribékszik / bribékedik,"bribékszik, bribékedni",tek,NA,"János imád bribékedni, ezért sokat bribékszik.",Ti ritkán...,bribékszetek,bribékedtek,cselekszik,-szik,2,PR2047,1998,nő,nem,2022-04-14_10h14.37.263,hesp_baseline,2021.2.3,Win32,59.74429442
,,,,,,,,,,,,,,,,,spizecnak,spizecnek,right,4.4717,0,156,156,6,1,61,spizec,spizec,nak,e,Ez itt egy spizec.,Elneveztem a kutyámat...,spizecnek,spizecnak,dzsungel,NA,NA,PR2047,1998,nő,nem,2022-04-14_10h14.37.263,hesp_baseline,2021.2.3,Win32,59.74429442
,,,,,,,,,,,,,,,,,huroslok,huroslom,left,3.2195,0,157,157,76,1,77,huroslik,huroslasz,NA,NA,Te bizony sokat huroslasz.,Én is sokat...,huroslok,huroslom,lakik,-lik,2,PR2047,1998,nő,nem,2022-04-14_10h14.37.263,hesp_baseline,2021.2.3,Win32,59.74429442
,,,,,,,,,,,,,,,,,prilepedünk,prilepszünk,right,7.3322,0,158,158,161,1,108,prilepszik / prilepedik,"prilepszik, prilepedni",ünk,NA,"János imád prilepedni, ezért sokat prilepszik.",Mi ritkán...,prilepszünk,prilepedünk,cselekszik,-szik,2,PR2047,1998,nő,nem,2022-04-14_10h14.37.263,hesp_baseline,2021.2.3,Win32,59.74429442
,,,,,,,,,,,,,,,,,klehényeztek,klehényletek,right,5.1498,0,159,159,113,1,60,klehénylik / klehényezik,"klehénylik, klehényezni",tek,NA,"János imád klehényezni, ezért sokat klehénylik.",Ti ritkán...,klehényletek,klehényeztek,cselekszik,-lik,2,PR2047,1998,nő,nem,2022-04-14_10h14.37.263,hesp_baseline,2021.2.3,Win32,59.74429442
,,,,,,,,,,,,,,,,,dilaklotok,dilakoztok,left,6.517,0,160,160,158,1,105,dilaklik / dilakozik,"dilaklik, dilakozni",tek,NA,"János imád dilakozni, ezért sokat dilaklik.",Ti ritkán...,dilaklotok,dilakoztok,cselekszik,-lik,2,PR2047,1998,nő,nem,2022-04-14_10h14.37.263,hesp_baseline,2021.2.3,Win32,59.74429442
,,,,,,,,,,,,,,,,,dóbemnek,dóbemnak,left,6.3986,0,161,161,48,1,103,dóbem,dóbem,nak,e,Ez itt egy dóbem.,Elneveztem a kutyámat...,dóbemnek,dóbemnak,dzsungel,NA,NA,PR2047,1998,nő,nem,2022-04-14_10h14.37.263,hesp_baseline,2021.2.3,Win32,59.74429442
