my_list,key.keys,key.rt,key_2.keys,key_2.rt,keyboard_input_2.keys,keyboard_input_2.rt,key_3.keys,key_3.rt,keyboard_input_3.keys,keyboard_input_3.rt,key_4.keys,key_4.rt,keyboard_input_4.keys,keyboard_input_4.rt,key_5.keys,key_5.rt,my_button1,my_button2,keyboard_input.keys,keyboard_input.rt,withinBlock.thisRepN,withinBlock.thisTrialN,withinBlock.thisN,withinBlock.thisIndex,withinBlock.ran,rowname,word,prompt,suffix,vowel,carrier_sentence,target_sentence,target1,target2,category,derivational,nsyl,Azonosító,Melyik évben születtél?,Mi a nemed?,Tanultál nyelvészetet?,date,expName,psychopyVersion,OS,frameRate
list3.csv,space,15.3837,space,10.3399,right,6.522,space,10.8059,left,4.7809,space,7.477,left,6.111,space,14.0372,sartelyben,sartelyban,right,5.6988,0,0,0,40,1,149,sartely,sartely,ban,e,Ez itt egy sartely.,Ott vagyunk a...,sartelyben,sartelyban,dzsungel,NA,NA,PR2042,2002,nő,nem,2022-04-12_21h38.01.014,hesp_baseline,2021.2.3,Win32,60.12867537
,,,,,,,,,,,,,,,,,nyáslom,nyáslok,right,8.2331,0,1,1,100,1,155,nyáslik,nyáslasz,NA,NA,Te bizony sokat nyáslasz.,Én is sokat...,nyáslok,nyáslom,lakik,-lik,1,PR2042,2002,nő,nem,2022-04-12_21h38.01.014,hesp_baseline,2021.2.3,Win32,60.12867537
,,,,,,,,,,,,,,,,,virzanak,viroznak,right,7.28,0,2,2,125,1,126,virzik / virozik,"virzik, virozni",nek,NA,"János imád virozni, ezért sokat virzik.",Ők ritkán...,virzanak,viroznak,cselekszik,-zik,1,PR2042,2002,nő,nem,2022-04-12_21h38.01.014,hesp_baseline,2021.2.3,Win32,60.12867537
,,,,,,,,,,,,,,,,,pibegzenek,pibegeznek,right,7.1641,0,3,3,127,1,128,pibegzik / pibegezik,"pibegzik, pibegezni",nek,NA,"János imád pibegezni, ezért sokat pibegzik.",Ők ritkán...,pibegzenek,pibegeznek,cselekszik,-zik,2,PR2042,2002,nő,nem,2022-04-12_21h38.01.014,hesp_baseline,2021.2.3,Win32,60.12867537
,,,,,,,,,,,,,,,,,triklotok,trikoztok,right,8.3175,0,4,4,160,1,161,triklik / trikozik,"triklik, trikozni",tek,NA,"János imád trikozni, ezért sokat triklik.",Ti ritkán...,triklotok,trikoztok,cselekszik,-lik,1,PR2042,2002,nő,nem,2022-04-12_21h38.01.014,hesp_baseline,2021.2.3,Win32,60.12867537
,,,,,,,,,,,,,,,,,zinednak,zinednek,right,5.9793,0,5,5,22,1,131,zined,zined,nak,e,Ez itt egy zined.,Elneveztem a kutyámat...,zinednek,zinednak,dzsungel,NA,NA,PR2042,2002,nő,nem,2022-04-12_21h38.01.014,hesp_baseline,2021.2.3,Win32,60.12867537
,,,,,,,,,,,,,,,,,brivepszünk,brivepedünk,left,7.5703,0,6,6,113,1,114,brivepszik / brivepedik,"brivepszik, brivepedni",ünk,NA,"János imád brivepedni, ezért sokat brivepszik.",Mi ritkán...,brivepszünk,brivepedünk,cselekszik,-szik,2,PR2042,2002,nő,nem,2022-04-12_21h38.01.014,hesp_baseline,2021.2.3,Win32,60.12867537
,,,,,,,,,,,,,,,,,sűzlöm,sűzlök,right,3.8199,0,7,7,54,1,109,sűzlik,sűzlesz,NA,NA,Te bizony sokat sűzlesz.,Én is sokat...,sűzlök,sűzlöm,lakik,-lik,1,PR2042,2002,nő,nem,2022-04-12_21h38.01.014,hesp_baseline,2021.2.3,Win32,60.12867537
,,,,,,,,,,,,,,,,,mülőrzünk,mülőrözünk,right,9.4408,0,8,8,120,1,121,mülőrzik / mülőrözik,"mülőrzik, mülőrözni",ünk,NA,"János imád mülőrözni, ezért sokat mülőrzik.",Mi ritkán...,mülőrzünk,mülőrözünk,cselekszik,-zik,2,PR2042,2002,nő,nem,2022-04-12_21h38.01.014,hesp_baseline,2021.2.3,Win32,60.12867537
,,,,,,,,,,,,,,,,,narjárzok,narjárzom,left,4.1555,0,9,9,61,1,116,narjárzik,narjárzol,NA,NA,Te bizony sokat narjárzol.,Én is sokat...,narjárzok,narjárzom,lakik,-zik,2,PR2042,2002,nő,nem,2022-04-12_21h38.01.014,hesp_baseline,2021.2.3,Win32,60.12867537
,,,,,,,,,,,,,,,,,nyarcéjnak,nyarcéjnek,left,3.7314,0,10,10,37,1,146,nyarcéj,nyarcéj,nak,é,Ez itt egy nyarcéj.,Elneveztem a kutyámat...,nyarcéjnek,nyarcéjnak,dzsungel,NA,NA,PR2042,2002,nő,nem,2022-04-12_21h38.01.014,hesp_baseline,2021.2.3,Win32,60.12867537
,,,,,,,,,,,,,,,,,sztruglom,sztruglok,left,3.0684,0,11,11,67,1,122,sztruglik,sztruglasz,NA,NA,Te bizony sokat sztruglasz.,Én is sokat...,sztruglok,sztruglom,lakik,-lik,1,PR2042,2002,nő,nem,2022-04-12_21h38.01.014,hesp_baseline,2021.2.3,Win32,60.12867537
,,,,,,,,,,,,,,,,,lűköznek,lűklenek,left,8.5228,0,12,12,136,1,137,lűklik / lűközik,"lűklik, lűközni",nek,NA,"János imád lűközni, ezért sokat lűklik.",Ők ritkán...,lűklenek,lűköznek,cselekszik,-lik,1,PR2042,2002,nő,nem,2022-04-12_21h38.01.014,hesp_baseline,2021.2.3,Win32,60.12867537
,,,,,,,,,,,,,,,,,gótemnak,gótemnek,left,4.3269,0,13,13,35,1,144,gótem,gótem,nak,e,Ez itt egy gótem.,Elneveztem a kutyámat...,gótemnek,gótemnak,dzsungel,NA,NA,PR2042,2002,nő,nem,2022-04-12_21h38.01.014,hesp_baseline,2021.2.3,Win32,60.12867537
,,,,,,,,,,,,,,,,,spülőrzök,spülőrzöm,left,4.9138,0,14,14,69,1,124,spülőrzik,spülőrzöl,NA,NA,Te bizony sokat spülőrzöl.,Én is sokat...,spülőrzök,spülőrzöm,lakik,-zik,2,PR2042,2002,nő,nem,2022-04-12_21h38.01.014,hesp_baseline,2021.2.3,Win32,60.12867537
,,,,,,,,,,,,,,,,,spülöklöm,spülöklök,right,2.7557,0,15,15,56,1,111,spülöklik,spülöklesz,NA,NA,Te bizony sokat spülöklesz.,Én is sokat...,spülöklök,spülöklöm,lakik,-lik,2,PR2042,2002,nő,nem,2022-04-12_21h38.01.014,hesp_baseline,2021.2.3,Win32,60.12867537
,,,,,,,,,,,,,,,,,klosétnak,klosétnek,left,3.9709,0,16,16,45,1,154,klosét,klosét,nak,é,Ez itt egy klosét.,Elneveztem a kutyámat...,klosétnek,klosétnak,dzsungel,NA,NA,PR2042,2002,nő,nem,2022-04-12_21h38.01.014,hesp_baseline,2021.2.3,Win32,60.12867537
,,,,,,,,,,,,,,,,,nyupérnál,nyupérnél,left,5.8793,0,17,17,52,1,161,nyupér,nyupér,nál,é,Ez itt egy nyupér.,Nincs is jobb egy jó...,nyupérnél,nyupérnál,dzsungel,NA,NA,PR2042,2002,nő,nem,2022-04-12_21h38.01.014,hesp_baseline,2021.2.3,Win32,60.12867537
,,,,,,,,,,,,,,,,,klárzom,klárzok,right,2.9141,0,18,18,85,1,140,klárzik,klárzol,NA,NA,Te bizony sokat klárzol.,Én is sokat...,klárzok,klárzom,lakik,-zik,1,PR2042,2002,nő,nem,2022-04-12_21h38.01.014,hesp_baseline,2021.2.3,Win32,60.12867537
,,,,,,,,,,,,,,,,,tibaroznak,tibarzanak,right,5.0886,0,19,19,155,1,156,tibarzik / tibarozik,"tibarzik, tibarozni",nek,NA,"János imád tibarozni, ezért sokat tibarzik.",Ők ritkán...,tibarzanak,tibaroznak,cselekszik,-zik,2,PR2042,2002,nő,nem,2022-04-12_21h38.01.014,hesp_baseline,2021.2.3,Win32,60.12867537
,,,,,,,,,,,,,,,,,sztrozlok,sztrozlom,left,2.0495,0,20,20,104,1,159,sztrozlik,sztrozlasz,NA,NA,Te bizony sokat sztrozlasz.,Én is sokat...,sztrozlok,sztrozlom,lakik,-lik,1,PR2042,2002,nő,nem,2022-04-12_21h38.01.014,hesp_baseline,2021.2.3,Win32,60.12867537
,,,,,,,,,,,,,,,,,sztredeztek,sztredletek,right,3.6142,0,21,21,145,1,146,sztredlik / sztredezik,"sztredlik, sztredezni",tek,NA,"János imád sztredezni, ezért sokat sztredlik.",Ti ritkán...,sztredletek,sztredeztek,cselekszik,-lik,1,PR2042,2002,nő,nem,2022-04-12_21h38.01.014,hesp_baseline,2021.2.3,Win32,60.12867537
,,,,,,,,,,,,,,,,,fliraklom,fliraklok,right,3.8948,0,22,22,98,1,153,fliraklik,fliraklasz,NA,NA,Te bizony sokat fliraklasz.,Én is sokat...,fliraklok,fliraklom,lakik,-lik,2,PR2042,2002,nő,nem,2022-04-12_21h38.01.014,hesp_baseline,2021.2.3,Win32,60.12867537
,,,,,,,,,,,,,,,,,klarágzotok,klarágoztok,right,2.2011,0,23,23,114,1,115,klarágzik / klarágozik,"klarágzik, klarágozni",tek,NA,"János imád klarágozni, ezért sokat klarágzik.",Ti ritkán...,klarágzotok,klarágoztok,cselekszik,-zik,2,PR2042,2002,nő,nem,2022-04-12_21h38.01.014,hesp_baseline,2021.2.3,Win32,60.12867537
,,,,,,,,,,,,,,,,,trilszok,trilszom,left,2.1141,0,24,24,103,1,158,trilszik,trilszol,NA,NA,Te bizony sokat trilszol.,Én is sokat...,trilszok,trilszom,lakik,-szik,1,PR2042,2002,nő,nem,2022-04-12_21h38.01.014,hesp_baseline,2021.2.3,Win32,60.12867537
,,,,,,,,,,,,,,,,,gibemlünk,gibemezünk,left,2.6162,0,25,25,115,1,116,gibemlik / gibemezik,"gibemlik, gibemezni",ünk,NA,"János imád gibemezni, ezért sokat gibemlik.",Mi ritkán...,gibemlünk,gibemezünk,cselekszik,-lik,2,PR2042,2002,nő,nem,2022-04-12_21h38.01.014,hesp_baseline,2021.2.3,Win32,60.12867537
,,,,,,,,,,,,,,,,,zsáderban,zsáderben,left,2.3206,0,26,26,25,1,134,zsáder,zsáder,ban,e,Ez itt egy zsáder.,Ott vagyunk a...,zsáderben,zsáderban,dzsungel,NA,NA,PR2042,2002,nő,nem,2022-04-12_21h38.01.014,hesp_baseline,2021.2.3,Win32,60.12867537
,,,,,,,,,,,,,,,,,mékszek,mékszem,right,2.6036,0,27,27,71,1,126,mékszik,mékszel,NA,NA,Te bizony sokat mékszel.,Én is sokat...,mékszek,mékszem,lakik,-szik,1,PR2042,2002,nő,nem,2022-04-12_21h38.01.014,hesp_baseline,2021.2.3,Win32,60.12867537
,,,,,,,,,,,,,,,,,szihétnek,szihétnak,left,2.817,0,28,28,4,1,113,szihét,szihét,nak,é,Ez itt egy szihét.,Elneveztem a kutyámat...,szihétnek,szihétnak,dzsungel,NA,NA,PR2042,2002,nő,nem,2022-04-12_21h38.01.014,hesp_baseline,2021.2.3,Win32,60.12867537
,,,,,,,,,,,,,,,,,kláragodtok,kláragszotok,right,3.4505,0,29,29,123,1,124,kláragszik / kláragodik,"kláragszik, kláragodni",tek,NA,"János imád kláragodni, ezért sokat kláragszik.",Ti ritkán...,kláragszotok,kláragodtok,cselekszik,-szik,2,PR2042,2002,nő,nem,2022-04-12_21h38.01.014,hesp_baseline,2021.2.3,Win32,60.12867537
,,,,,,,,,,,,,,,,,zatéjnél,zatéjnál,right,3.0195,0,30,30,34,1,143,zatéj,zatéj,nál,é,Ez itt egy zatéj.,Nincs is jobb egy jó...,zatéjnél,zatéjnál,dzsungel,NA,NA,PR2042,2002,nő,nem,2022-04-12_21h38.01.014,hesp_baseline,2021.2.3,Win32,60.12867537
,,,,,,,,,,,,,,,,,vobzotok,voboztok,left,4.3616,0,31,31,158,1,159,vobzik / vobozik,"vobzik, vobozni",tek,NA,"János imád vobozni, ezért sokat vobzik.",Ti ritkán...,vobzotok,voboztok,cselekszik,-zik,1,PR2042,2002,nő,nem,2022-04-12_21h38.01.014,hesp_baseline,2021.2.3,Win32,60.12867537
,,,,,,,,,,,,,,,,,trapszegynél,trapszegynál,right,1.7332,0,32,32,39,1,148,trapszegy,trapszegy,nál,e,Ez itt egy trapszegy.,Nincs is jobb egy jó...,trapszegynél,trapszegynál,dzsungel,NA,NA,PR2042,2002,nő,nem,2022-04-12_21h38.01.014,hesp_baseline,2021.2.3,Win32,60.12867537
,,,,,,,,,,,,,,,,,brilegzünk,brilegezünk,left,6.3926,0,33,33,124,1,125,brilegzik / brilegezik,"brilegzik, brilegezni",ünk,NA,"János imád brilegezni, ezért sokat brilegzik.",Mi ritkán...,brilegzünk,brilegezünk,cselekszik,-zik,2,PR2042,2002,nő,nem,2022-04-12_21h38.01.014,hesp_baseline,2021.2.3,Win32,60.12867537
,,,,,,,,,,,,,,,,,táklok,táklom,left,2.2672,0,34,34,79,1,134,táklik,táklasz,NA,NA,Te bizony sokat táklasz.,Én is sokat...,táklok,táklom,lakik,-lik,1,PR2042,2002,nő,nem,2022-04-12_21h38.01.014,hesp_baseline,2021.2.3,Win32,60.12867537
,,,,,,,,,,,,,,,,,pehégedtek,pehégszetek,left,2.1714,0,35,35,151,1,152,pehégszik / pehégedik,"pehégszik, pehégedni",tek,NA,"János imád pehégedni, ezért sokat pehégszik.",Ti ritkán...,pehégszetek,pehégedtek,cselekszik,-szik,2,PR2042,2002,nő,nem,2022-04-12_21h38.01.014,hesp_baseline,2021.2.3,Win32,60.12867537
,,,,,,,,,,,,,,,,,düjzök,düjzöm,left,1.616,0,36,36,97,1,152,düjzik,düjzöl,NA,NA,Te bizony sokat düjzöl.,Én is sokat...,düjzök,düjzöm,lakik,-zik,1,PR2042,2002,nő,nem,2022-04-12_21h38.01.014,hesp_baseline,2021.2.3,Win32,60.12867537
,,,,,,,,,,,,,,,,,drubódzom,drubódzok,right,1.2324,0,37,37,63,1,118,drubódzik,drubódzol,NA,NA,Te bizony sokat drubódzol.,Én is sokat...,drubódzok,drubódzom,lakik,-zik,2,PR2042,2002,nő,nem,2022-04-12_21h38.01.014,hesp_baseline,2021.2.3,Win32,60.12867537
,,,,,,,,,,,,,,,,,spuboroznak,spuborzanak,left,2.2482,0,38,38,161,1,162,spuborzik / spuborozik,"spuborzik, spuborozni",nek,NA,"János imád spuborozni, ezért sokat spuborzik.",Ők ritkán...,spuborzanak,spuboroznak,cselekszik,-zik,2,PR2042,2002,nő,nem,2022-04-12_21h38.01.014,hesp_baseline,2021.2.3,Win32,60.12867537
,,,,,,,,,,,,,,,,,finceknál,finceknél,left,2.3046,0,39,39,9,1,118,fincek,fincek,nál,e,Ez itt egy fincek.,Nincs is jobb egy jó...,finceknél,finceknál,dzsungel,NA,NA,PR2042,2002,nő,nem,2022-04-12_21h38.01.014,hesp_baseline,2021.2.3,Win32,60.12867537
,,,,,,,,,,,,,,,,,büglök,büglöm,left,1.4475,0,40,40,101,1,156,büglik,büglesz,NA,NA,Te bizony sokat büglesz.,Én is sokat...,büglök,büglöm,lakik,-lik,1,PR2042,2002,nő,nem,2022-04-12_21h38.01.014,hesp_baseline,2021.2.3,Win32,60.12867537
,,,,,,,,,,,,,,,,,gerénylek,gerénylem,left,1.6327,0,41,41,99,1,154,gerénylik,gerénylesz,NA,NA,Te bizony sokat gerénylesz.,Én is sokat...,gerénylek,gerénylem,lakik,-lik,2,PR2042,2002,nő,nem,2022-04-12_21h38.01.014,hesp_baseline,2021.2.3,Win32,60.12867537
,,,,,,,,,,,,,,,,,kátelnek,kátelnak,right,2.032,0,42,42,12,1,121,kátel,kátel,nak,e,Ez itt egy kátel.,Elneveztem a kutyámat...,kátelnek,kátelnak,dzsungel,NA,NA,PR2042,2002,nő,nem,2022-04-12_21h38.01.014,hesp_baseline,2021.2.3,Win32,60.12867537
,,,,,,,,,,,,,,,,,vűjlök,vűjlöm,left,1.4712,0,43,43,94,1,149,vűjlik,vűjlesz,NA,NA,Te bizony sokat vűjlesz.,Én is sokat...,vűjlök,vűjlöm,lakik,-lik,1,PR2042,2002,nő,nem,2022-04-12_21h38.01.014,hesp_baseline,2021.2.3,Win32,60.12867537
,,,,,,,,,,,,,,,,,spírzok,spírzom,left,1.3995,0,44,44,64,1,119,spírzik,spírzol,NA,NA,Te bizony sokat spírzol.,Én is sokat...,spírzok,spírzom,lakik,-zik,1,PR2042,2002,nő,nem,2022-04-12_21h38.01.014,hesp_baseline,2021.2.3,Win32,60.12867537
,,,,,,,,,,,,,,,,,bidemben,bidemban,right,2.1045,0,45,45,2,1,111,bidem,bidem,ban,e,Ez itt egy bidem.,Ott vagyunk a...,bidemben,bidemban,dzsungel,NA,NA,PR2042,2002,nő,nem,2022-04-12_21h38.01.014,hesp_baseline,2021.2.3,Win32,60.12867537
,,,,,,,,,,,,,,,,,gicéjnél,gicéjnál,left,5.3862,0,46,46,17,1,126,gicéj,gicéj,nál,é,Ez itt egy gicéj.,Nincs is jobb egy jó...,gicéjnél,gicéjnál,dzsungel,NA,NA,PR2042,2002,nő,nem,2022-04-12_21h38.01.014,hesp_baseline,2021.2.3,Win32,60.12867537
,,,,,,,,,,,,,,,,,trűnyöznek,trűnylenek,left,2.5624,0,47,47,119,1,120,trűnylik / trűnyözik,"trűnylik, trűnyözni",nek,NA,"János imád trűnyözni, ezért sokat trűnylik.",Ők ritkán...,trűnylenek,trűnyöznek,cselekszik,-lik,1,PR2042,2002,nő,nem,2022-04-12_21h38.01.014,hesp_baseline,2021.2.3,Win32,60.12867537
,,,,,,,,,,,,,,,,,bihánylom,bihánylok,right,4.7825,0,48,48,89,1,144,bihánylik,bihánylasz,NA,NA,Te bizony sokat bihánylasz.,Én is sokat...,bihánylok,bihánylom,lakik,-lik,2,PR2042,2002,nő,nem,2022-04-12_21h38.01.014,hesp_baseline,2021.2.3,Win32,60.12867537
,,,,,,,,,,,,,,,,,fizendben,fizendban,left,2.5154,0,49,49,49,1,158,fizend,fizend,ban,e,Ez itt egy fizend.,Ott vagyunk a...,fizendben,fizendban,dzsungel,NA,NA,PR2042,2002,nő,nem,2022-04-12_21h38.01.014,hesp_baseline,2021.2.3,Win32,60.12867537
,,,,,,,,,,,,,,,,,sztrijzom,sztrijzok,left,1.951,0,50,50,68,1,123,sztrijzik,sztrijzol,NA,NA,Te bizony sokat sztrijzol.,Én is sokat...,sztrijzok,sztrijzom,lakik,-zik,1,PR2042,2002,nő,nem,2022-04-12_21h38.01.014,hesp_baseline,2021.2.3,Win32,60.12867537
,,,,,,,,,,,,,,,,,trálodunk,trálszunk,left,2.1257,0,51,51,130,1,131,trálszik / trálodik,"trálszik, trálodni",ünk,NA,"János imád trálodni, ezért sokat trálszik.",Mi ritkán...,trálszunk,trálodunk,cselekszik,-szik,1,PR2042,2002,nő,nem,2022-04-12_21h38.01.014,hesp_baseline,2021.2.3,Win32,60.12867537
,,,,,,,,,,,,,,,,,dirlotok,diroztok,right,1.8729,0,52,52,148,1,149,dirlik / dirozik,"dirlik, dirozni",tek,NA,"János imád dirozni, ezért sokat dirlik.",Ti ritkán...,dirlotok,diroztok,cselekszik,-lik,1,PR2042,2002,nő,nem,2022-04-12_21h38.01.014,hesp_baseline,2021.2.3,Win32,60.12867537
,,,,,,,,,,,,,,,,,pijélnál,pijélnél,left,3.4276,0,53,53,3,1,112,pijél,pijél,nál,é,Ez itt egy pijél.,Nincs is jobb egy jó...,pijélnél,pijélnál,dzsungel,NA,NA,PR2042,2002,nő,nem,2022-04-12_21h38.01.014,hesp_baseline,2021.2.3,Win32,60.12867537
,,,,,,,,,,,,,,,,,lumlotok,lumoztok,left,1.9506,0,54,54,149,1,150,lumlik / lumozik,"lumlik, lumozni",tek,NA,"János imád lumozni, ezért sokat lumlik.",Ti ritkán...,lumlotok,lumoztok,cselekszik,-lik,1,PR2042,2002,nő,nem,2022-04-12_21h38.01.014,hesp_baseline,2021.2.3,Win32,60.12867537
,,,,,,,,,,,,,,,,,brároznak,brárlanak,right,3.7131,0,55,55,126,1,127,brárlik / brározik,"brárlik, brározni",nek,NA,"János imád brározni, ezért sokat brárlik.",Ők ritkán...,brárlanak,brároznak,cselekszik,-lik,1,PR2042,2002,nő,nem,2022-04-12_21h38.01.014,hesp_baseline,2021.2.3,Win32,60.12867537
,,,,,,,,,,,,,,,,,vihepszem,vihepszek,right,3.0709,0,56,56,59,1,114,vihepszik,vihepszel,NA,NA,Te bizony sokat vihepszel.,Én is sokat...,vihepszek,vihepszem,lakik,-szik,2,PR2042,2002,nő,nem,2022-04-12_21h38.01.014,hesp_baseline,2021.2.3,Win32,60.12867537
,,,,,,,,,,,,,,,,,döjlenek,döjöznek,left,1.4633,0,57,57,129,1,130,döjlik / döjözik,"döjlik, döjözni",nek,NA,"János imád döjözni, ezért sokat döjlik.",Ők ritkán...,döjlenek,döjöznek,cselekszik,-lik,1,PR2042,2002,nő,nem,2022-04-12_21h38.01.014,hesp_baseline,2021.2.3,Win32,60.12867537
,,,,,,,,,,,,,,,,,vodecnál,vodecnél,left,3.4833,0,58,58,30,1,139,vodec,vodec,nál,e,Ez itt egy vodec.,Nincs is jobb egy jó...,vodecnél,vodecnál,dzsungel,NA,NA,PR2042,2002,nő,nem,2022-04-12_21h38.01.014,hesp_baseline,2021.2.3,Win32,60.12867537
,,,,,,,,,,,,,,,,,dibezben,dibezban,left,1.4834,0,59,59,27,1,136,dibez,dibez,ban,e,Ez itt egy dibez.,Ott vagyunk a...,dibezben,dibezban,dzsungel,NA,NA,PR2042,2002,nő,nem,2022-04-12_21h38.01.014,hesp_baseline,2021.2.3,Win32,60.12867537
,,,,,,,,,,,,,,,,,siladzok,siladzom,left,2.8036,0,60,60,93,1,148,siladzik,siladzol,NA,NA,Te bizony sokat siladzol.,Én is sokat...,siladzok,siladzom,lakik,-zik,2,PR2042,2002,nő,nem,2022-04-12_21h38.01.014,hesp_baseline,2021.2.3,Win32,60.12867537
,,,,,,,,,,,,,,,,,brüjlök,brüjlöm,left,1.2825,0,61,61,55,1,110,brüjlik,brüjlesz,NA,NA,Te bizony sokat brüjlesz.,Én is sokat...,brüjlök,brüjlöm,lakik,-lik,1,PR2042,2002,nő,nem,2022-04-12_21h38.01.014,hesp_baseline,2021.2.3,Win32,60.12867537
,,,,,,,,,,,,,,,,,ronszekben,ronszekban,left,1.4203,0,62,62,18,1,127,ronszek,ronszek,ban,e,Ez itt egy ronszek.,Ott vagyunk a...,ronszekben,ronszekban,dzsungel,NA,NA,PR2042,2002,nő,nem,2022-04-12_21h38.01.014,hesp_baseline,2021.2.3,Win32,60.12867537
,,,,,,,,,,,,,,,,,prezlem,prezlek,left,1.7154,0,63,63,87,1,142,prezlik,prezlesz,NA,NA,Te bizony sokat prezlesz.,Én is sokat...,prezlek,prezlem,lakik,-lik,1,PR2042,2002,nő,nem,2022-04-12_21h38.01.014,hesp_baseline,2021.2.3,Win32,60.12867537
,,,,,,,,,,,,,,,,,trálakoznak,trálaklanak,left,1.2716,0,64,64,116,1,117,trálaklik / trálakozik,"trálaklik, trálakozni",nek,NA,"János imád trálakozni, ezért sokat trálaklik.",Ők ritkán...,trálaklanak,trálakoznak,cselekszik,-lik,2,PR2042,2002,nő,nem,2022-04-12_21h38.01.014,hesp_baseline,2021.2.3,Win32,60.12867537
,,,,,,,,,,,,,,,,,pribagszom,pribagszok,right,1.5655,0,65,65,76,1,131,pribagszik,pribagszol,NA,NA,Te bizony sokat pribagszol.,Én is sokat...,pribagszok,pribagszom,lakik,-szik,2,PR2042,2002,nő,nem,2022-04-12_21h38.01.014,hesp_baseline,2021.2.3,Win32,60.12867537
,,,,,,,,,,,,,,,,,vehékszünk,vehékedünk,right,2.7149,0,66,66,117,1,118,vehékszik / vehékedik,"vehékszik, vehékedni",ünk,NA,"János imád vehékedni, ezért sokat vehékszik.",Mi ritkán...,vehékszünk,vehékedünk,cselekszik,-szik,2,PR2042,2002,nő,nem,2022-04-12_21h38.01.014,hesp_baseline,2021.2.3,Win32,60.12867537
,,,,,,,,,,,,,,,,,frilegszem,frilegszek,right,1.5838,0,67,67,72,1,127,frilegszik,frilegszel,NA,NA,Te bizony sokat frilegszel.,Én is sokat...,frilegszek,frilegszem,lakik,-szik,2,PR2042,2002,nő,nem,2022-04-12_21h38.01.014,hesp_baseline,2021.2.3,Win32,60.12867537
,,,,,,,,,,,,,,,,,sprozlanak,sprozoznak,left,1.333,0,68,68,147,1,148,sprozlik / sprozozik,"sprozlik, sprozozni",nek,NA,"János imád sprozozni, ezért sokat sprozlik.",Ők ritkán...,sprozlanak,sprozoznak,cselekszik,-lik,1,PR2042,2002,nő,nem,2022-04-12_21h38.01.014,hesp_baseline,2021.2.3,Win32,60.12867537
,,,,,,,,,,,,,,,,,gyibakszom,gyibakszok,right,4.2349,0,69,69,57,1,112,gyibakszik,gyibakszol,NA,NA,Te bizony sokat gyibakszol.,Én is sokat...,gyibakszok,gyibakszom,lakik,-szik,2,PR2042,2002,nő,nem,2022-04-12_21h38.01.014,hesp_baseline,2021.2.3,Win32,60.12867537
,,,,,,,,,,,,,,,,,prínylom,prínylok,right,4.2115,0,70,70,102,1,157,prínylik,prínylasz,NA,NA,Te bizony sokat prínylasz.,Én is sokat...,prínylok,prínylom,lakik,-lik,1,PR2042,2002,nő,nem,2022-04-12_21h38.01.014,hesp_baseline,2021.2.3,Win32,60.12867537
,,,,,,,,,,,,,,,,,surnegynál,surnegynél,left,3.0493,0,71,71,8,1,117,surnegy,surnegy,nál,e,Ez itt egy surnegy.,Nincs is jobb egy jó...,surnegynél,surnegynál,dzsungel,NA,NA,PR2042,2002,nő,nem,2022-04-12_21h38.01.014,hesp_baseline,2021.2.3,Win32,60.12867537
,,,,,,,,,,,,,,,,,zsádévnek,zsádévnak,left,3.2016,0,72,72,20,1,129,zsádév,zsádév,nak,é,Ez itt egy zsádév.,Elneveztem a kutyámat...,zsádévnek,zsádévnak,dzsungel,NA,NA,PR2042,2002,nő,nem,2022-04-12_21h38.01.014,hesp_baseline,2021.2.3,Win32,60.12867537
,,,,,,,,,,,,,,,,,spüszlöm,spüszlök,left,1.6702,0,73,73,96,1,151,spüszlik,spüszlesz,NA,NA,Te bizony sokat spüszlesz.,Én is sokat...,spüszlök,spüszlöm,lakik,-lik,1,PR2042,2002,nő,nem,2022-04-12_21h38.01.014,hesp_baseline,2021.2.3,Win32,60.12867537
,,,,,,,,,,,,,,,,,nágapodnak,nágapszanak,left,4.4626,0,74,74,152,1,153,nágapszik / nágapodik,"nágapszik, nágapodni",nek,NA,"János imád nágapodni, ezért sokat nágapszik.",Ők ritkán...,nágapszanak,nágapodnak,cselekszik,-szik,2,PR2042,2002,nő,nem,2022-04-12_21h38.01.014,hesp_baseline,2021.2.3,Win32,60.12867537
,,,,,,,,,,,,,,,,,bupézban,bupézben,left,3.5821,0,75,75,48,1,157,bupéz,bupéz,ban,é,Ez itt egy bupéz.,Ott vagyunk a...,bupézben,bupézban,dzsungel,NA,NA,PR2042,2002,nő,nem,2022-04-12_21h38.01.014,hesp_baseline,2021.2.3,Win32,60.12867537
,,,,,,,,,,,,,,,,,tuboklom,tuboklok,right,2.0913,0,76,76,84,1,139,tuboklik,tuboklasz,NA,NA,Te bizony sokat tuboklasz.,Én is sokat...,tuboklok,tuboklom,lakik,-lik,2,PR2042,2002,nő,nem,2022-04-12_21h38.01.014,hesp_baseline,2021.2.3,Win32,60.12867537
,,,,,,,,,,,,,,,,,brálamlanak,brálamoznak,left,2.8301,0,77,77,144,1,145,brálamlik / brálamozik,"brálamlik, brálamozni",nek,NA,"János imád brálamozni, ezért sokat brálamlik.",Ők ritkán...,brálamlanak,brálamoznak,cselekszik,-lik,2,PR2042,2002,nő,nem,2022-04-12_21h38.01.014,hesp_baseline,2021.2.3,Win32,60.12867537
,,,,,,,,,,,,,,,,,sprivencnél,sprivencnál,right,2.5473,0,78,78,13,1,122,sprivenc,sprivenc,nál,e,Ez itt egy sprivenc.,Nincs is jobb egy jó...,sprivencnél,sprivencnál,dzsungel,NA,NA,PR2042,2002,nő,nem,2022-04-12_21h38.01.014,hesp_baseline,2021.2.3,Win32,60.12867537
,,,,,,,,,,,,,,,,,frivajlom,frivajlok,right,2.3315,0,79,79,78,1,133,frivajlik,frivajlasz,NA,NA,Te bizony sokat frivajlasz.,Én is sokat...,frivajlok,frivajlom,lakik,-lik,2,PR2042,2002,nő,nem,2022-04-12_21h38.01.014,hesp_baseline,2021.2.3,Win32,60.12867537
,,,,,,,,,,,,,,,,,szutendban,szutendben,left,2.9702,0,80,80,11,1,120,szutend,szutend,ban,e,Ez itt egy szutend.,Ott vagyunk a...,szutendben,szutendban,dzsungel,NA,NA,PR2042,2002,nő,nem,2022-04-12_21h38.01.014,hesp_baseline,2021.2.3,Win32,60.12867537
,,,,,,,,,,,,,,,,,brüröznek,brürzenek,left,2.5315,0,81,81,110,1,111,brürzik / brürözik,"brürzik, brürözni",nek,NA,"János imád brürözni, ezért sokat brürzik.",Ők ritkán...,brürzenek,brüröznek,cselekszik,-zik,1,PR2042,2002,nő,nem,2022-04-12_21h38.01.014,hesp_baseline,2021.2.3,Win32,60.12867537
,,,,,,,,,,,,,,,,,sztrűkszök,sztrűkszöm,left,2.9518,0,82,82,77,1,132,sztrűkszik,sztrűkszöl,NA,NA,Te bizony sokat sztrűkszöl.,Én is sokat...,sztrűkszök,sztrűkszöm,lakik,-szik,1,PR2042,2002,nő,nem,2022-04-12_21h38.01.014,hesp_baseline,2021.2.3,Win32,60.12867537
,,,,,,,,,,,,,,,,,briskédnál,briskédnél,left,2.1834,0,83,83,51,1,160,briskéd,briskéd,nál,é,Ez itt egy briskéd.,Nincs is jobb egy jó...,briskédnél,briskédnál,dzsungel,NA,NA,PR2042,2002,nő,nem,2022-04-12_21h38.01.014,hesp_baseline,2021.2.3,Win32,60.12867537
,,,,,,,,,,,,,,,,,murdesnél,murdesnál,left,1.9987,0,84,84,47,1,156,murdes,murdes,nál,e,Ez itt egy murdes.,Nincs is jobb egy jó...,murdesnél,murdesnál,dzsungel,NA,NA,PR2042,2002,nő,nem,2022-04-12_21h38.01.014,hesp_baseline,2021.2.3,Win32,60.12867537
,,,,,,,,,,,,,,,,,brindeznek,brindeznak,left,3.0103,0,85,85,6,1,115,brindez,brindez,nak,e,Ez itt egy brindez.,Elneveztem a kutyámat...,brindeznek,brindeznak,dzsungel,NA,NA,PR2042,2002,nő,nem,2022-04-12_21h38.01.014,hesp_baseline,2021.2.3,Win32,60.12867537
,,,,,,,,,,,,,,,,,bratárzanak,bratároznak,left,5.404,0,86,86,108,1,109,bratárzik / bratározik,"bratárzik, bratározni",nek,NA,"János imád bratározni, ezért sokat bratárzik.",Ők ritkán...,bratárzanak,bratároznak,cselekszik,-zik,2,PR2042,2002,nő,nem,2022-04-12_21h38.01.014,hesp_baseline,2021.2.3,Win32,60.12867537
,,,,,,,,,,,,,,,,,drilarzunk,drilarozunk,right,3.693,0,87,87,131,1,132,drilarzik / drilarozik,"drilarzik, drilarozni",ünk,NA,"János imád drilarozni, ezért sokat drilarzik.",Mi ritkán...,drilarzunk,drilarozunk,cselekszik,-zik,2,PR2042,2002,nő,nem,2022-04-12_21h38.01.014,hesp_baseline,2021.2.3,Win32,60.12867537
,,,,,,,,,,,,,,,,,huméknek,huméknak,left,2.9979,0,88,88,23,1,132,humék,humék,nak,é,Ez itt egy humék.,Elneveztem a kutyámat...,huméknek,huméknak,dzsungel,NA,NA,PR2042,2002,nő,nem,2022-04-12_21h38.01.014,hesp_baseline,2021.2.3,Win32,60.12867537
,,,,,,,,,,,,,,,,,vubletnál,vubletnél,right,2.4148,0,89,89,26,1,135,vublet,vublet,nál,e,Ez itt egy vublet.,Nincs is jobb egy jó...,vubletnél,vubletnál,dzsungel,NA,NA,PR2042,2002,nő,nem,2022-04-12_21h38.01.014,hesp_baseline,2021.2.3,Win32,60.12867537
,,,,,,,,,,,,,,,,,spanélnél,spanélnál,left,1.4498,0,90,90,24,1,133,spanél,spanél,nál,é,Ez itt egy spanél.,Nincs is jobb egy jó...,spanélnél,spanélnál,dzsungel,NA,NA,PR2042,2002,nő,nem,2022-04-12_21h38.01.014,hesp_baseline,2021.2.3,Win32,60.12867537
,,,,,,,,,,,,,,,,,nivároztok,nivárzotok,left,1.8227,0,91,91,146,1,147,nivárzik / nivározik,"nivárzik, nivározni",tek,NA,"János imád nivározni, ezért sokat nivárzik.",Ti ritkán...,nivárzotok,nivároztok,cselekszik,-zik,2,PR2042,2002,nő,nem,2022-04-12_21h38.01.014,hesp_baseline,2021.2.3,Win32,60.12867537
,,,,,,,,,,,,,,,,,plágadzom,plágadzok,right,1.1658,0,92,92,74,1,129,plágadzik,plágadzol,NA,NA,Te bizony sokat plágadzol.,Én is sokat...,plágadzok,plágadzom,lakik,-zik,2,PR2042,2002,nő,nem,2022-04-12_21h38.01.014,hesp_baseline,2021.2.3,Win32,60.12867537
,,,,,,,,,,,,,,,,,mágamozunk,mágamlunk,right,1.8192,0,93,93,140,1,141,mágamlik / mágamozik,"mágamlik, mágamozni",ünk,NA,"János imád mágamozni, ezért sokat mágamlik.",Mi ritkán...,mágamlunk,mágamozunk,cselekszik,-lik,2,PR2042,2002,nő,nem,2022-04-12_21h38.01.014,hesp_baseline,2021.2.3,Win32,60.12867537
,,,,,,,,,,,,,,,,,trincsegban,trincsegben,left,2.7631,0,94,94,46,1,155,trincseg,trincseg,ban,e,Ez itt egy trincseg.,Ott vagyunk a...,trincsegben,trincsegban,dzsungel,NA,NA,PR2042,2002,nő,nem,2022-04-12_21h38.01.014,hesp_baseline,2021.2.3,Win32,60.12867537
,,,,,,,,,,,,,,,,,vurnelnak,vurnelnek,left,2.9518,0,95,95,50,1,159,vurnel,vurnel,nak,e,Ez itt egy vurnel.,Elneveztem a kutyámat...,vurnelnek,vurnelnak,dzsungel,NA,NA,PR2042,2002,nő,nem,2022-04-12_21h38.01.014,hesp_baseline,2021.2.3,Win32,60.12867537
,,,,,,,,,,,,,,,,,brűklötök,brűköztök,left,2.1469,0,96,96,153,1,154,brűklik / brűközik,"brűklik, brűközni",tek,NA,"János imád brűközni, ezért sokat brűklik.",Ti ritkán...,brűklötök,brűköztök,cselekszik,-lik,1,PR2042,2002,nő,nem,2022-04-12_21h38.01.014,hesp_baseline,2021.2.3,Win32,60.12867537
,,,,,,,,,,,,,,,,,flököztök,flöklötök,right,6.0121,0,97,97,121,1,122,flöklik / flöközik,"flöklik, flöközni",tek,NA,"János imád flöközni, ezért sokat flöklik.",Ti ritkán...,flöklötök,flököztök,cselekszik,-lik,1,PR2042,2002,nő,nem,2022-04-12_21h38.01.014,hesp_baseline,2021.2.3,Win32,60.12867537
,,,,,,,,,,,,,,,,,triképban,triképben,left,1.7661,0,98,98,33,1,142,trikép,trikép,ban,é,Ez itt egy trikép.,Ott vagyunk a...,triképben,triképban,dzsungel,NA,NA,PR2042,2002,nő,nem,2022-04-12_21h38.01.014,hesp_baseline,2021.2.3,Win32,60.12867537
,,,,,,,,,,,,,,,,,spröbzök,spröbzöm,left,1.8056,0,99,99,90,1,145,spröbzik,spröbzöl,NA,NA,Te bizony sokat spröbzöl.,Én is sokat...,spröbzök,spröbzöm,lakik,-zik,1,PR2042,2002,nő,nem,2022-04-12_21h38.01.014,hesp_baseline,2021.2.3,Win32,60.12867537
,,,,,,,,,,,,,,,,,tűgzötök,tűgöztök,left,1.7828,0,100,100,143,1,144,tűgzik / tűgözik,"tűgzik, tűgözni",tek,NA,"János imád tűgözni, ezért sokat tűgzik.",Ti ritkán...,tűgzötök,tűgöztök,cselekszik,-zik,1,PR2042,2002,nő,nem,2022-04-12_21h38.01.014,hesp_baseline,2021.2.3,Win32,60.12867537
,,,,,,,,,,,,,,,,,trivakszunk,trivakodunk,right,2.0903,0,101,101,118,1,119,trivakszik / trivakodik,"trivakszik, trivakodni",ünk,NA,"János imád trivakodni, ezért sokat trivakszik.",Mi ritkán...,trivakszunk,trivakodunk,cselekszik,-szik,2,PR2042,2002,nő,nem,2022-04-12_21h38.01.014,hesp_baseline,2021.2.3,Win32,60.12867537
,,,,,,,,,,,,,,,,,dorzéjnak,dorzéjnek,left,2.0482,0,102,102,29,1,138,dorzéj,dorzéj,nak,é,Ez itt egy dorzéj.,Elneveztem a kutyámat...,dorzéjnek,dorzéjnak,dzsungel,NA,NA,PR2042,2002,nő,nem,2022-04-12_21h38.01.014,hesp_baseline,2021.2.3,Win32,60.12867537
,,,,,,,,,,,,,,,,,braszencnál,braszencnél,left,1.0953,0,103,103,7,1,116,braszenc,braszenc,nál,e,Ez itt egy braszenc.,Nincs is jobb egy jó...,braszencnél,braszencnál,dzsungel,NA,NA,PR2042,2002,nő,nem,2022-04-12_21h38.01.014,hesp_baseline,2021.2.3,Win32,60.12867537
,,,,,,,,,,,,,,,,,hágyétnak,hágyétnek,right,3.2304,0,104,104,42,1,151,hágyét,hágyét,nak,é,Ez itt egy hágyét.,Elneveztem a kutyámat...,hágyétnek,hágyétnak,dzsungel,NA,NA,PR2042,2002,nő,nem,2022-04-12_21h38.01.014,hesp_baseline,2021.2.3,Win32,60.12867537
,,,,,,,,,,,,,,,,,pragánylotok,pragányoztok,left,2.4797,0,105,105,133,1,134,pragánylik / pragányozik,"pragánylik, pragányozni",tek,NA,"János imád pragányozni, ezért sokat pragánylik.",Ti ritkán...,pragánylotok,pragányoztok,cselekszik,-lik,2,PR2042,2002,nő,nem,2022-04-12_21h38.01.014,hesp_baseline,2021.2.3,Win32,60.12867537
,,,,,,,,,,,,,,,,,spatelnek,spatelnak,left,2.3983,0,106,106,21,1,130,spatel,spatel,nak,e,Ez itt egy spatel.,Elneveztem a kutyámat...,spatelnek,spatelnak,dzsungel,NA,NA,PR2042,2002,nő,nem,2022-04-12_21h38.01.014,hesp_baseline,2021.2.3,Win32,60.12867537
,,,,,,,,,,,,,,,,,brotesben,brotesban,left,1.2882,0,107,107,53,1,162,brotes,brotes,ban,e,Ez itt egy brotes.,Ott vagyunk a...,brotesben,brotesban,dzsungel,NA,NA,PR2042,2002,nő,nem,2022-04-12_21h38.01.014,hesp_baseline,2021.2.3,Win32,60.12867537
,,,,,,,,,,,,,,,,,trádlok,trádlom,right,0.983,0,108,108,105,1,160,trádlik,trádlasz,NA,NA,Te bizony sokat trádlasz.,Én is sokat...,trádlok,trádlom,lakik,-lik,1,PR2042,2002,nő,nem,2022-04-12_21h38.01.014,hesp_baseline,2021.2.3,Win32,60.12867537
,,,,,,,,,,,,,,,,,zödlöm,zödlök,left,1.6498,0,109,109,106,1,161,zödlik,zödlesz,NA,NA,Te bizony sokat zödlesz.,Én is sokat...,zödlök,zödlöm,lakik,-lik,1,PR2042,2002,nő,nem,2022-04-12_21h38.01.014,hesp_baseline,2021.2.3,Win32,60.12867537
,,,,,,,,,,,,,,,,,trugoklanak,trugokoznak,left,2.1198,0,110,110,109,1,110,trugoklik / trugokozik,"trugoklik, trugokozni",nek,NA,"János imád trugokozni, ezért sokat trugoklik.",Ők ritkán...,trugoklanak,trugokoznak,cselekszik,-lik,2,PR2042,2002,nő,nem,2022-04-12_21h38.01.014,hesp_baseline,2021.2.3,Win32,60.12867537
,,,,,,,,,,,,,,,,,trájegban,trájegben,right,2.5653,0,111,111,14,1,123,trájeg,trájeg,ban,e,Ez itt egy trájeg.,Ott vagyunk a...,trájegben,trájegban,dzsungel,NA,NA,PR2042,2002,nő,nem,2022-04-12_21h38.01.014,hesp_baseline,2021.2.3,Win32,60.12867537
,,,,,,,,,,,,,,,,,spibamoznak,spibamlanak,left,1.2213,0,112,112,142,1,143,spibamlik / spibamozik,"spibamlik, spibamozni",nek,NA,"János imád spibamozni, ezért sokat spibamlik.",Ők ritkán...,spibamlanak,spibamoznak,cselekszik,-lik,2,PR2042,2002,nő,nem,2022-04-12_21h38.01.014,hesp_baseline,2021.2.3,Win32,60.12867537
,,,,,,,,,,,,,,,,,treglek,treglem,right,1.5493,0,113,113,81,1,136,treglik,treglesz,NA,NA,Te bizony sokat treglesz.,Én is sokat...,treglek,treglem,lakik,-lik,1,PR2042,2002,nő,nem,2022-04-12_21h38.01.014,hesp_baseline,2021.2.3,Win32,60.12867537
,,,,,,,,,,,,,,,,,licegyben,licegyban,left,1.8716,0,114,114,15,1,124,licegy,licegy,ban,e,Ez itt egy licegy.,Ott vagyunk a...,licegyben,licegyban,dzsungel,NA,NA,PR2042,2002,nő,nem,2022-04-12_21h38.01.014,hesp_baseline,2021.2.3,Win32,60.12867537
,,,,,,,,,,,,,,,,,sprökszök,sprökszöm,right,1.5728,0,115,115,88,1,143,sprökszik,sprökszöl,NA,NA,Te bizony sokat sprökszöl.,Én is sokat...,sprökszök,sprökszöm,lakik,-szik,1,PR2042,2002,nő,nem,2022-04-12_21h38.01.014,hesp_baseline,2021.2.3,Win32,60.12867537
,,,,,,,,,,,,,,,,,trehégszem,trehégszek,left,1.9976,0,116,116,86,1,141,trehégszik,trehégszel,NA,NA,Te bizony sokat trehégszel.,Én is sokat...,trehégszek,trehégszem,lakik,-szik,2,PR2042,2002,nő,nem,2022-04-12_21h38.01.014,hesp_baseline,2021.2.3,Win32,60.12867537
,,,,,,,,,,,,,,,,,féjzek,féjzem,left,2.0315,0,117,117,91,1,146,féjzik,féjzel,NA,NA,Te bizony sokat féjzel.,Én is sokat...,féjzek,féjzem,lakik,-zik,1,PR2042,2002,nő,nem,2022-04-12_21h38.01.014,hesp_baseline,2021.2.3,Win32,60.12867537
,,,,,,,,,,,,,,,,,klivaslok,klivaslom,left,2.2148,0,118,118,62,1,117,klivaslik,klivaslasz,NA,NA,Te bizony sokat klivaslasz.,Én is sokat...,klivaslok,klivaslom,lakik,-lik,2,PR2042,2002,nő,nem,2022-04-12_21h38.01.014,hesp_baseline,2021.2.3,Win32,60.12867537
,,,,,,,,,,,,,,,,,spirágoztok,spiráglotok,left,1.0986,0,119,119,135,1,136,spiráglik / spirágozik,"spiráglik, spirágozni",tek,NA,"János imád spirágozni, ezért sokat spiráglik.",Ti ritkán...,spiráglotok,spirágoztok,cselekszik,-lik,2,PR2042,2002,nő,nem,2022-04-12_21h38.01.014,hesp_baseline,2021.2.3,Win32,60.12867537
,,,,,,,,,,,,,,,,,briváglanak,brivágoznak,right,1.349,0,120,120,138,1,139,briváglik / brivágozik,"briváglik, brivágozni",nek,NA,"János imád brivágozni, ezért sokat briváglik.",Ők ritkán...,briváglanak,brivágoznak,cselekszik,-lik,2,PR2042,2002,nő,nem,2022-04-12_21h38.01.014,hesp_baseline,2021.2.3,Win32,60.12867537
,,,,,,,,,,,,,,,,,tínylom,tínylok,right,1.518,0,121,121,58,1,113,tínylik,tínylasz,NA,NA,Te bizony sokat tínylasz.,Én is sokat...,tínylok,tínylom,lakik,-lik,1,PR2042,2002,nő,nem,2022-04-12_21h38.01.014,hesp_baseline,2021.2.3,Win32,60.12867537
,,,,,,,,,,,,,,,,,pristélben,pristélban,left,1.6406,0,122,122,1,1,110,pristél,pristél,ban,é,Ez itt egy pristél.,Ott vagyunk a...,pristélben,pristélban,dzsungel,NA,NA,PR2042,2002,nő,nem,2022-04-12_21h38.01.014,hesp_baseline,2021.2.3,Win32,60.12867537
,,,,,,,,,,,,,,,,,ibékszem,ibékszek,right,2.4862,0,123,123,95,1,150,ibékszik,ibékszel,NA,NA,Te bizony sokat ibékszel.,Én is sokat...,ibékszek,ibékszem,lakik,-szik,2,PR2042,2002,nő,nem,2022-04-12_21h38.01.014,hesp_baseline,2021.2.3,Win32,60.12867537
,,,,,,,,,,,,,,,,,pazévnál,pazévnél,left,2.1637,0,124,124,36,1,145,pazév,pazév,nál,é,Ez itt egy pazév.,Nincs is jobb egy jó...,pazévnél,pazévnál,dzsungel,NA,NA,PR2042,2002,nő,nem,2022-04-12_21h38.01.014,hesp_baseline,2021.2.3,Win32,60.12867537
,,,,,,,,,,,,,,,,,flátoztok,flátlotok,left,3.5972,0,125,125,132,1,133,flátlik / flátozik,"flátlik, flátozni",tek,NA,"János imád flátozni, ezért sokat flátlik.",Ti ritkán...,flátlotok,flátoztok,cselekszik,-lik,1,PR2042,2002,nő,nem,2022-04-12_21h38.01.014,hesp_baseline,2021.2.3,Win32,60.12867537
,,,,,,,,,,,,,,,,,jurdentnál,jurdentnél,left,2.6829,0,126,126,16,1,125,jurdent,jurdent,nál,e,Ez itt egy jurdent.,Nincs is jobb egy jó...,jurdentnél,jurdentnál,dzsungel,NA,NA,PR2042,2002,nő,nem,2022-04-12_21h38.01.014,hesp_baseline,2021.2.3,Win32,60.12867537
,,,,,,,,,,,,,,,,,brukésznél,brukésznál,left,2.1818,0,127,127,10,1,119,brukész,brukész,nál,é,Ez itt egy brukész.,Nincs is jobb egy jó...,brukésznél,brukésznál,dzsungel,NA,NA,PR2042,2002,nő,nem,2022-04-12_21h38.01.014,hesp_baseline,2021.2.3,Win32,60.12867537
,,,,,,,,,,,,,,,,,klétszem,klétszek,left,2.5144,0,128,128,60,1,115,klétszik,klétszel,NA,NA,Te bizony sokat klétszel.,Én is sokat...,klétszek,klétszem,lakik,-szik,1,PR2042,2002,nő,nem,2022-04-12_21h38.01.014,hesp_baseline,2021.2.3,Win32,60.12867537
,,,,,,,,,,,,,,,,,dalencnél,dalencnál,left,3.7626,0,129,129,31,1,140,dalenc,dalenc,nál,e,Ez itt egy dalenc.,Nincs is jobb egy jó...,dalencnél,dalencnál,dzsungel,NA,NA,PR2042,2002,nő,nem,2022-04-12_21h38.01.014,hesp_baseline,2021.2.3,Win32,60.12867537
,,,,,,,,,,,,,,,,,hűgzök,hűgzöm,left,1.6491,0,130,130,107,1,162,hűgzik,hűgzöl,NA,NA,Te bizony sokat hűgzöl.,Én is sokat...,hűgzök,hűgzöm,lakik,-zik,1,PR2042,2002,nő,nem,2022-04-12_21h38.01.014,hesp_baseline,2021.2.3,Win32,60.12867537
,,,,,,,,,,,,,,,,,csodegnél,csodegnál,left,1.871,0,131,131,28,1,137,csodeg,csodeg,nál,e,Ez itt egy csodeg.,Nincs is jobb egy jó...,csodegnél,csodegnál,dzsungel,NA,NA,PR2042,2002,nő,nem,2022-04-12_21h38.01.014,hesp_baseline,2021.2.3,Win32,60.12867537
,,,,,,,,,,,,,,,,,vilesezünk,vileslünk,right,2.5815,0,132,132,139,1,140,vileslik / vilesezik,"vileslik, vilesezni",ünk,NA,"János imád vilesezni, ezért sokat vileslik.",Mi ritkán...,vileslünk,vilesezünk,cselekszik,-lik,2,PR2042,2002,nő,nem,2022-04-12_21h38.01.014,hesp_baseline,2021.2.3,Win32,60.12867537
,,,,,,,,,,,,,,,,,nyítemban,nyítemben,left,1.7152,0,133,133,41,1,150,nyítem,nyítem,ban,e,Ez itt egy nyítem.,Ott vagyunk a...,nyítemben,nyítemban,dzsungel,NA,NA,PR2042,2002,nő,nem,2022-04-12_21h38.01.014,hesp_baseline,2021.2.3,Win32,60.12867537
,,,,,,,,,,,,,,,,,rájzok,rájzom,left,1.2551,0,134,134,70,1,125,rájzik,rájzol,NA,NA,Te bizony sokat rájzol.,Én is sokat...,rájzok,rájzom,lakik,-zik,1,PR2042,2002,nő,nem,2022-04-12_21h38.01.014,hesp_baseline,2021.2.3,Win32,60.12867537
,,,,,,,,,,,,,,,,,piragszom,piragszok,right,1.3992,0,135,135,83,1,138,piragszik,piragszol,NA,NA,Te bizony sokat piragszol.,Én is sokat...,piragszok,piragszom,lakik,-szik,2,PR2042,2002,nő,nem,2022-04-12_21h38.01.014,hesp_baseline,2021.2.3,Win32,60.12867537
,,,,,,,,,,,,,,,,,klibamlom,klibamlok,right,1.567,0,136,136,92,1,147,klibamlik,klibamlasz,NA,NA,Te bizony sokat klibamlasz.,Én is sokat...,klibamlok,klibamlom,lakik,-lik,2,PR2042,2002,nő,nem,2022-04-12_21h38.01.014,hesp_baseline,2021.2.3,Win32,60.12867537
,,,,,,,,,,,,,,,,,bródesznek,bródesznak,left,1.2913,0,137,137,32,1,141,bródesz,bródesz,nak,e,Ez itt egy bródesz.,Elneveztem a kutyámat...,bródesznek,bródesznak,dzsungel,NA,NA,PR2042,2002,nő,nem,2022-04-12_21h38.01.014,hesp_baseline,2021.2.3,Win32,60.12867537
,,,,,,,,,,,,,,,,,spuménynak,spuménynek,right,4.336,0,138,138,19,1,128,spumény,spumény,nak,é,Ez itt egy spumény.,Elneveztem a kutyámat...,spuménynek,spuménynak,dzsungel,NA,NA,PR2042,2002,nő,nem,2022-04-12_21h38.01.014,hesp_baseline,2021.2.3,Win32,60.12867537
,,,,,,,,,,,,,,,,,filányozunk,filánylunk,left,1.7709,0,139,139,134,1,135,filánylik / filányozik,"filánylik, filányozni",ünk,NA,"János imád filányozni, ezért sokat filánylik.",Mi ritkán...,filánylunk,filányozunk,cselekszik,-lik,2,PR2042,2002,nő,nem,2022-04-12_21h38.01.014,hesp_baseline,2021.2.3,Win32,60.12867537
,,,,,,,,,,,,,,,,,frálapszotok,frálapodtok,left,1.3327,0,140,140,150,1,151,frálapszik / frálapodik,"frálapszik, frálapodni",tek,NA,"János imád frálapodni, ezért sokat frálapszik.",Ti ritkán...,frálapszotok,frálapodtok,cselekszik,-szik,2,PR2042,2002,nő,nem,2022-04-12_21h38.01.014,hesp_baseline,2021.2.3,Win32,60.12867537
,,,,,,,,,,,,,,,,,lismévben,lismévban,right,0.5854,0,141,141,0,1,109,lismév,lismév,ban,é,Ez itt egy lismév.,Ott vagyunk a...,lismévben,lismévban,dzsungel,NA,NA,PR2042,2002,nő,nem,2022-04-12_21h38.01.014,hesp_baseline,2021.2.3,Win32,60.12867537
,,,,,,,,,,,,,,,,,danétnél,danétnál,left,0.4535,0,142,142,38,1,147,danét,danét,nál,é,Ez itt egy danét.,Nincs is jobb egy jó...,danétnél,danétnál,dzsungel,NA,NA,PR2042,2002,nő,nem,2022-04-12_21h38.01.014,hesp_baseline,2021.2.3,Win32,60.12867537
,,,,,,,,,,,,,,,,,bivejlem,bivejlek,right,1.969,0,143,143,73,1,128,bivejlik,bivejlesz,NA,NA,Te bizony sokat bivejlesz.,Én is sokat...,bivejlek,bivejlem,lakik,-lik,2,PR2042,2002,nő,nem,2022-04-12_21h38.01.014,hesp_baseline,2021.2.3,Win32,60.12867537
,,,,,,,,,,,,,,,,,ribegedtek,ribegszetek,left,2.1347,0,144,144,141,1,142,ribegszik / ribegedik,"ribegszik, ribegedni",tek,NA,"János imád ribegedni, ezért sokat ribegszik.",Ti ritkán...,ribegszetek,ribegedtek,cselekszik,-szik,2,PR2042,2002,nő,nem,2022-04-12_21h38.01.014,hesp_baseline,2021.2.3,Win32,60.12867537
,,,,,,,,,,,,,,,,,drivegeztek,drivegzetek,left,3.0349,0,145,145,112,1,113,drivegzik / drivegezik,"drivegzik, drivegezni",tek,NA,"János imád drivegezni, ezért sokat drivegzik.",Ti ritkán...,drivegzetek,drivegeztek,cselekszik,-zik,2,PR2042,2002,nő,nem,2022-04-12_21h38.01.014,hesp_baseline,2021.2.3,Win32,60.12867537
,,,,,,,,,,,,,,,,,sűjözünk,sűjlünk,right,1.6793,0,146,146,128,1,129,sűjlik / sűjözik,"sűjlik, sűjözni",ünk,NA,"János imád sűjözni, ezért sokat sűjlik.",Mi ritkán...,sűjlünk,sűjözünk,cselekszik,-lik,1,PR2042,2002,nő,nem,2022-04-12_21h38.01.014,hesp_baseline,2021.2.3,Win32,60.12867537
,,,,,,,,,,,,,,,,,prűrlök,prűrlöm,left,1.4035,0,147,147,75,1,130,prűrlik,prűrlesz,NA,NA,Te bizony sokat prűrlesz.,Én is sokat...,prűrlök,prűrlöm,lakik,-lik,1,PR2042,2002,nő,nem,2022-04-12_21h38.01.014,hesp_baseline,2021.2.3,Win32,60.12867537
,,,,,,,,,,,,,,,,,spalároznak,spalárzanak,right,4.6303,0,148,148,137,1,138,spalárzik / spalározik,"spalárzik, spalározni",nek,NA,"János imád spalározni, ezért sokat spalárzik.",Ők ritkán...,spalárzanak,spalároznak,cselekszik,-zik,2,PR2042,2002,nő,nem,2022-04-12_21h38.01.014,hesp_baseline,2021.2.3,Win32,60.12867537
,,,,,,,,,,,,,,,,,böjzök,böjzöm,left,2.6462,0,149,149,80,1,135,böjzik,böjzöl,NA,NA,Te bizony sokat böjzöl.,Én is sokat...,böjzök,böjzöm,lakik,-zik,1,PR2042,2002,nő,nem,2022-04-12_21h38.01.014,hesp_baseline,2021.2.3,Win32,60.12867537
,,,,,,,,,,,,,,,,,dralágzunk,dralágozunk,left,1.3489,0,150,150,156,1,157,dralágzik / dralágozik,"dralágzik, dralágozni",ünk,NA,"János imád dralágozni, ezért sokat dralágzik.",Mi ritkán...,dralágzunk,dralágozunk,cselekszik,-zik,2,PR2042,2002,nő,nem,2022-04-12_21h38.01.014,hesp_baseline,2021.2.3,Win32,60.12867537
,,,,,,,,,,,,,,,,,sztritoznak,sztritlanak,right,1.2072,0,151,151,154,1,155,sztritlik / sztritozik,"sztritlik, sztritozni",nek,NA,"János imád sztritozni, ezért sokat sztritlik.",Ők ritkán...,sztritlanak,sztritoznak,cselekszik,-lik,1,PR2042,2002,nő,nem,2022-04-12_21h38.01.014,hesp_baseline,2021.2.3,Win32,60.12867537
,,,,,,,,,,,,,,,,,flugonyoznak,flugonylanak,left,1.9821,0,152,152,111,1,112,flugonylik / flugonyozik,"flugonylik, flugonyozni",nek,NA,"János imád flugonyozni, ezért sokat flugonylik.",Ők ritkán...,flugonylanak,flugonyoznak,cselekszik,-lik,2,PR2042,2002,nő,nem,2022-04-12_21h38.01.014,hesp_baseline,2021.2.3,Win32,60.12867537
,,,,,,,,,,,,,,,,,zábénynek,zábénynak,right,1.8324,0,153,153,43,1,152,zábény,zábény,nak,é,Ez itt egy zábény.,Elneveztem a kutyámat...,zábénynek,zábénynak,dzsungel,NA,NA,PR2042,2002,nő,nem,2022-04-12_21h38.01.014,hesp_baseline,2021.2.3,Win32,60.12867537
,,,,,,,,,,,,,,,,,bűtszök,bűtszöm,left,2.4317,0,154,154,82,1,137,bűtszik,bűtszöl,NA,NA,Te bizony sokat bűtszöl.,Én is sokat...,bűtszök,bűtszöm,lakik,-szik,1,PR2042,2002,nő,nem,2022-04-12_21h38.01.014,hesp_baseline,2021.2.3,Win32,60.12867537
,,,,,,,,,,,,,,,,,trilekszetek,trilekedtek,left,1.5646,0,155,155,157,1,158,trilekszik / trilekedik,"trilekszik, trilekedni",tek,NA,"János imád trilekedni, ezért sokat trilekszik.",Ti ritkán...,trilekszetek,trilekedtek,cselekszik,-szik,2,PR2042,2002,nő,nem,2022-04-12_21h38.01.014,hesp_baseline,2021.2.3,Win32,60.12867537
,,,,,,,,,,,,,,,,,trismélnak,trismélnek,right,1.0751,0,156,156,5,1,114,trismél,trismél,nak,é,Ez itt egy trismél.,Elneveztem a kutyámat...,trismélnek,trismélnak,dzsungel,NA,NA,PR2042,2002,nő,nem,2022-04-12_21h38.01.014,hesp_baseline,2021.2.3,Win32,60.12867537
,,,,,,,,,,,,,,,,,kléglünk,klégezünk,left,1.3636,0,157,157,122,1,123,kléglik / klégezik,"kléglik, klégezni",ünk,NA,"János imád klégezni, ezért sokat kléglik.",Mi ritkán...,kléglünk,klégezünk,cselekszik,-lik,1,PR2042,2002,nő,nem,2022-04-12_21h38.01.014,hesp_baseline,2021.2.3,Win32,60.12867537
,,,,,,,,,,,,,,,,,kábesznál,kábesznél,left,2.0814,0,158,158,44,1,153,kábesz,kábesz,nál,e,Ez itt egy kábesz.,Nincs is jobb egy jó...,kábesznél,kábesznál,dzsungel,NA,NA,PR2042,2002,nő,nem,2022-04-12_21h38.01.014,hesp_baseline,2021.2.3,Win32,60.12867537
,,,,,,,,,,,,,,,,,lájoztok,lájzotok,left,1.1467,0,159,159,159,1,160,lájzik / lájozik,"lájzik, lájozni",tek,NA,"János imád lájozni, ezért sokat lájzik.",Ti ritkán...,lájzotok,lájoztok,cselekszik,-zik,1,PR2042,2002,nő,nem,2022-04-12_21h38.01.014,hesp_baseline,2021.2.3,Win32,60.12867537
,,,,,,,,,,,,,,,,,fretszem,fretszek,right,1.4668,0,160,160,66,1,121,fretszik,fretszel,NA,NA,Te bizony sokat fretszel.,Én is sokat...,fretszek,fretszem,lakik,-szik,1,PR2042,2002,nő,nem,2022-04-12_21h38.01.014,hesp_baseline,2021.2.3,Win32,60.12867537
,,,,,,,,,,,,,,,,,sprálszok,sprálszom,right,1.6731,0,161,161,65,1,120,sprálszik,sprálszol,NA,NA,Te bizony sokat sprálszol.,Én is sokat...,sprálszok,sprálszom,lakik,-szik,1,PR2042,2002,nő,nem,2022-04-12_21h38.01.014,hesp_baseline,2021.2.3,Win32,60.12867537
