my_list,key.keys,key.rt,key_2.keys,key_2.rt,keyboard_input_2.keys,keyboard_input_2.rt,key_3.keys,key_3.rt,keyboard_input_3.keys,keyboard_input_3.rt,key_4.keys,key_4.rt,keyboard_input_4.keys,keyboard_input_4.rt,key_5.keys,key_5.rt,my_button1,my_button2,keyboard_input.keys,keyboard_input.rt,withinBlock.thisRepN,withinBlock.thisTrialN,withinBlock.thisN,withinBlock.thisIndex,withinBlock.ran,rowname,word,prompt,suffix,vowel,carrier_sentence,target_sentence,target1,target2,category,derivational,nsyl,Azonosító,Melyik évben születtél?,Mi a nemed?,Tanultál nyelvészetet?,date,expName,psychopyVersion,OS,frameRate
list2.csv,space,10.5957,space,8.5508,right,9.3945,space,11.3469,left,4.8543,space,6.4948,left,7.4303,space,19.7022,sprogzom,sprogzok,left,11.8741,0,0,0,89,1,90,sprogzik,sprogzol,NA,NA,Te bizony sokat sprogzol.,Én is sokat...,sprogzok,sprogzom,lakik,-zik,1,PR2022,2000,férfi,nem,2022-04-07_16h55.38.313,hesp_baseline,2021.2.3,Win32,59.89458553
,,,,,,,,,,,,,,,,,driládzok,driládzom,right,10.2253,0,1,1,67,1,68,driládzik,driládzol,NA,NA,Te bizony sokat driládzol.,Én is sokat...,driládzok,driládzom,lakik,-zik,2,PR2022,2000,férfi,nem,2022-04-07_16h55.38.313,hesp_baseline,2021.2.3,Win32,59.89458553
,,,,,,,,,,,,,,,,,szűslöm,szűslök,left,5.323,0,2,2,85,1,86,szűslik,szűslesz,NA,NA,Te bizony sokat szűslesz.,Én is sokat...,szűslök,szűslöm,lakik,-lik,1,PR2022,2000,férfi,nem,2022-04-07_16h55.38.313,hesp_baseline,2021.2.3,Win32,59.89458553
,,,,,,,,,,,,,,,,,sprigoztok,sprigzotok,left,21.6568,0,3,3,129,1,76,sprigzik / sprigozik,"sprigzik, sprigozni",tek,NA,"János imád sprigozni, ezért sokat sprigzik.",Ti ritkán...,sprigzotok,sprigoztok,cselekszik,-zik,1,PR2022,2000,férfi,nem,2022-04-07_16h55.38.313,hesp_baseline,2021.2.3,Win32,59.89458553
,,,,,,,,,,,,,,,,,flüröslök,flüröslöm,left,6.8098,0,4,4,87,1,88,flüröslik,flüröslesz,NA,NA,Te bizony sokat flüröslesz.,Én is sokat...,flüröslök,flüröslöm,lakik,-lik,2,PR2022,2000,férfi,nem,2022-04-07_16h55.38.313,hesp_baseline,2021.2.3,Win32,59.89458553
,,,,,,,,,,,,,,,,,csólorzom,csólorzok,left,6.6572,0,5,5,102,1,103,csólorzik,csólorzol,NA,NA,Te bizony sokat csólorzol.,Én is sokat...,csólorzok,csólorzom,lakik,-zik,2,PR2022,2000,férfi,nem,2022-04-07_16h55.38.313,hesp_baseline,2021.2.3,Win32,59.89458553
,,,,,,,,,,,,,,,,,dingecnak,dingecnek,right,5.381,0,6,6,42,1,97,dingec,dingec,nak,e,Ez itt egy dingec.,Elneveztem a kutyámat...,dingecnek,dingecnak,dzsungel,NA,NA,PR2022,2000,férfi,nem,2022-04-07_16h55.38.313,hesp_baseline,2021.2.3,Win32,59.89458553
,,,,,,,,,,,,,,,,,dóbemnek,dóbemnak,left,3.7938,0,7,7,48,1,103,dóbem,dóbem,nak,e,Ez itt egy dóbem.,Elneveztem a kutyámat...,dóbemnek,dóbemnak,dzsungel,NA,NA,PR2022,2000,férfi,nem,2022-04-07_16h55.38.313,hesp_baseline,2021.2.3,Win32,59.89458553
,,,,,,,,,,,,,,,,,fájézban,fájézben,right,8.4791,0,8,8,7,1,62,fájéz,fájéz,ban,é,Ez itt egy fájéz.,Ott vagyunk a...,fájézben,fájézban,dzsungel,NA,NA,PR2022,2000,férfi,nem,2022-04-07_16h55.38.313,hesp_baseline,2021.2.3,Win32,59.89458553
,,,,,,,,,,,,,,,,,szirlok,szirlom,left,3.6449,0,9,9,62,1,63,szirlik,szirlasz,NA,NA,Te bizony sokat szirlasz.,Én is sokat...,szirlok,szirlom,lakik,-lik,1,PR2022,2000,férfi,nem,2022-04-07_16h55.38.313,hesp_baseline,2021.2.3,Win32,59.89458553
,,,,,,,,,,,,,,,,,pratelynek,pratelynak,left,3.7709,0,10,10,47,1,102,prately,prately,nak,e,Ez itt egy prately.,Elneveztem a kutyámat...,pratelynek,pratelynak,dzsungel,NA,NA,PR2022,2000,férfi,nem,2022-04-07_16h55.38.313,hesp_baseline,2021.2.3,Win32,59.89458553
,,,,,,,,,,,,,,,,,mihágoztok,mihágzotok,left,5.8633,0,11,11,118,1,65,mihágzik / mihágozik,"mihágzik, mihágozni",tek,NA,"János imád mihágozni, ezért sokat mihágzik.",Ti ritkán...,mihágzotok,mihágoztok,cselekszik,-zik,2,PR2022,2000,férfi,nem,2022-04-07_16h55.38.313,hesp_baseline,2021.2.3,Win32,59.89458553
,,,,,,,,,,,,,,,,,nűröklök,nűröklöm,right,3.264,0,12,12,106,1,107,nűröklik,nűröklesz,NA,NA,Te bizony sokat nűröklesz.,Én is sokat...,nűröklök,nűröklöm,lakik,-lik,2,PR2022,2000,férfi,nem,2022-04-07_16h55.38.313,hesp_baseline,2021.2.3,Win32,59.89458553
,,,,,,,,,,,,,,,,,livénylünk,livényezünk,left,4.8057,0,13,13,128,1,75,livénylik / livényezik,"livénylik, livényezni",ünk,NA,"János imád livényezni, ezért sokat livénylik.",Mi ritkán...,livénylünk,livényezünk,cselekszik,-lik,2,PR2022,2000,férfi,nem,2022-04-07_16h55.38.313,hesp_baseline,2021.2.3,Win32,59.89458553
,,,,,,,,,,,,,,,,,zutennél,zutennál,left,2.8958,0,14,14,43,1,98,zuten,zuten,nál,e,Ez itt egy zuten.,Nincs is jobb egy jó...,zutennél,zutennál,dzsungel,NA,NA,PR2022,2000,férfi,nem,2022-04-07_16h55.38.313,hesp_baseline,2021.2.3,Win32,59.89458553
,,,,,,,,,,,,,,,,,spügzünk,spügözünk,right,9.3857,0,15,15,143,1,90,spügzik / spügözik,"spügzik, spügözni",ünk,NA,"János imád spügözni, ezért sokat spügzik.",Mi ritkán...,spügzünk,spügözünk,cselekszik,-zik,1,PR2022,2000,férfi,nem,2022-04-07_16h55.38.313,hesp_baseline,2021.2.3,Win32,59.89458553
,,,,,,,,,,,,,,,,,sojzom,sojzok,left,5.6836,0,16,16,74,1,75,sojzik,sojzol,NA,NA,Te bizony sokat sojzol.,Én is sokat...,sojzok,sojzom,lakik,-zik,1,PR2022,2000,férfi,nem,2022-04-07_16h55.38.313,hesp_baseline,2021.2.3,Win32,59.89458553
,,,,,,,,,,,,,,,,,trírozunk,trírzunk,left,6.6748,0,17,17,116,1,63,trírzik / trírozik,"trírzik, trírozni",ünk,NA,"János imád trírozni, ezért sokat trírzik.",Mi ritkán...,trírzunk,trírozunk,cselekszik,-zik,1,PR2022,2000,férfi,nem,2022-04-07_16h55.38.313,hesp_baseline,2021.2.3,Win32,59.89458553
,,,,,,,,,,,,,,,,,flitlom,flitlok,left,3.4111,0,18,18,90,1,91,flitlik,flitlasz,NA,NA,Te bizony sokat flitlasz.,Én is sokat...,flitlok,flitlom,lakik,-lik,1,PR2022,2000,férfi,nem,2022-04-07_16h55.38.313,hesp_baseline,2021.2.3,Win32,59.89458553
,,,,,,,,,,,,,,,,,spihegzem,spihegzek,left,3.5205,0,19,19,81,1,82,spihegzik,spihegzel,NA,NA,Te bizony sokat spihegzel.,Én is sokat...,spihegzek,spihegzem,lakik,-zik,2,PR2022,2000,férfi,nem,2022-04-07_16h55.38.313,hesp_baseline,2021.2.3,Win32,59.89458553
,,,,,,,,,,,,,,,,,molszotok,molodtok,left,9.129,0,20,20,142,1,89,molszik / molodik,"molszik, molodni",tek,NA,"János imád molodni, ezért sokat molszik.",Ti ritkán...,molszotok,molodtok,cselekszik,-szik,1,PR2022,2000,férfi,nem,2022-04-07_16h55.38.313,hesp_baseline,2021.2.3,Win32,59.89458553
,,,,,,,,,,,,,,,,,péleslem,péleslek,left,6.8272,0,21,21,73,1,74,péleslik,péleslesz,NA,NA,Te bizony sokat péleslesz.,Én is sokat...,péleslek,péleslem,lakik,-lik,2,PR2022,2000,férfi,nem,2022-04-07_16h55.38.313,hesp_baseline,2021.2.3,Win32,59.89458553
,,,,,,,,,,,,,,,,,flagánylom,flagánylok,right,4.4776,0,22,22,82,1,83,flagánylik,flagánylasz,NA,NA,Te bizony sokat flagánylasz.,Én is sokat...,flagánylok,flagánylom,lakik,-lik,2,PR2022,2000,férfi,nem,2022-04-07_16h55.38.313,hesp_baseline,2021.2.3,Win32,59.89458553
,,,,,,,,,,,,,,,,,spivélnek,spivélnak,left,2.7205,0,23,23,27,1,82,spivél,spivél,nak,é,Ez itt egy spivél.,Elneveztem a kutyámat...,spivélnek,spivélnak,dzsungel,NA,NA,PR2022,2000,férfi,nem,2022-04-07_16h55.38.313,hesp_baseline,2021.2.3,Win32,59.89458553
,,,,,,,,,,,,,,,,,bivégszem,bivégszek,left,4.3124,0,24,24,68,1,69,bivégszik,bivégszel,NA,NA,Te bizony sokat bivégszel.,Én is sokat...,bivégszek,bivégszem,lakik,-szik,2,PR2022,2000,férfi,nem,2022-04-07_16h55.38.313,hesp_baseline,2021.2.3,Win32,59.89458553
,,,,,,,,,,,,,,,,,klidlom,klidlok,right,3.9923,0,25,25,72,1,73,klidlik,klidlasz,NA,NA,Te bizony sokat klidlasz.,Én is sokat...,klidlok,klidlom,lakik,-lik,1,PR2022,2000,férfi,nem,2022-04-07_16h55.38.313,hesp_baseline,2021.2.3,Win32,59.89458553
,,,,,,,,,,,,,,,,,ikszertban,ikszertben,right,3.2209,0,26,26,19,1,74,ikszert,ikszert,ban,e,Ez itt egy ikszert.,Ott vagyunk a...,ikszertben,ikszertban,dzsungel,NA,NA,PR2022,2000,férfi,nem,2022-04-07_16h55.38.313,hesp_baseline,2021.2.3,Win32,59.89458553
,,,,,,,,,,,,,,,,,prazozunk,prazlunk,left,7.4457,0,27,27,119,1,66,prazlik / prazozik,"prazlik, prazozni",ünk,NA,"János imád prazozni, ezért sokat prazlik.",Mi ritkán...,prazlunk,prazozunk,cselekszik,-lik,1,PR2022,2000,férfi,nem,2022-04-07_16h55.38.313,hesp_baseline,2021.2.3,Win32,59.89458553
,,,,,,,,,,,,,,,,,gúdenben,gúdenban,left,2.6609,0,28,28,4,1,59,gúden,gúden,ban,e,Ez itt egy gúden.,Ott vagyunk a...,gúdenben,gúdenban,dzsungel,NA,NA,PR2022,2000,férfi,nem,2022-04-07_16h55.38.313,hesp_baseline,2021.2.3,Win32,59.89458553
,,,,,,,,,,,,,,,,,plugzok,plugzom,right,5.0642,0,29,29,60,1,61,plugzik,plugzol,NA,NA,Te bizony sokat plugzol.,Én is sokat...,plugzok,plugzom,lakik,-zik,1,PR2022,2000,férfi,nem,2022-04-07_16h55.38.313,hesp_baseline,2021.2.3,Win32,59.89458553
,,,,,,,,,,,,,,,,,sporzemnak,sporzemnek,right,3.4995,0,30,30,26,1,81,sporzem,sporzem,nak,e,Ez itt egy sporzem.,Elneveztem a kutyámat...,sporzemnek,sporzemnak,dzsungel,NA,NA,PR2022,2000,férfi,nem,2022-04-07_16h55.38.313,hesp_baseline,2021.2.3,Win32,59.89458553
,,,,,,,,,,,,,,,,,kalrézben,kalrézban,left,3.4124,0,31,31,16,1,71,kalréz,kalréz,ban,é,Ez itt egy kalréz.,Ott vagyunk a...,kalrézben,kalrézban,dzsungel,NA,NA,PR2022,2000,férfi,nem,2022-04-07_16h55.38.313,hesp_baseline,2021.2.3,Win32,59.89458553
,,,,,,,,,,,,,,,,,nyöböznek,nyöbzenek,left,7.1776,0,32,32,152,1,99,nyöbzik / nyöbözik,"nyöbzik, nyöbözni",nek,NA,"János imád nyöbözni, ezért sokat nyöbzik.",Ők ritkán...,nyöbzenek,nyöböznek,cselekszik,-zik,1,PR2022,2000,férfi,nem,2022-04-07_16h55.38.313,hesp_baseline,2021.2.3,Win32,59.89458553
,,,,,,,,,,,,,,,,,gilárzok,gilárzom,left,3.5661,0,33,33,94,1,95,gilárzik,gilárzol,NA,NA,Te bizony sokat gilárzol.,Én is sokat...,gilárzok,gilárzom,lakik,-zik,2,PR2022,2000,férfi,nem,2022-04-07_16h55.38.313,hesp_baseline,2021.2.3,Win32,59.89458553
,,,,,,,,,,,,,,,,,kumlok,kumlom,left,3.1811,0,34,34,105,1,106,kumlik,kumlasz,NA,NA,Te bizony sokat kumlasz.,Én is sokat...,kumlok,kumlom,lakik,-lik,1,PR2022,2000,férfi,nem,2022-04-07_16h55.38.313,hesp_baseline,2021.2.3,Win32,59.89458553
,,,,,,,,,,,,,,,,,dárakodunk,dárakszunk,left,8.6838,0,35,35,126,1,73,dárakszik / dárakodik,"dárakszik, dárakodni",ünk,NA,"János imád dárakodni, ezért sokat dárakszik.",Mi ritkán...,dárakszunk,dárakodunk,cselekszik,-szik,2,PR2022,2000,férfi,nem,2022-04-07_16h55.38.313,hesp_baseline,2021.2.3,Win32,59.89458553
,,,,,,,,,,,,,,,,,nyábétben,nyábétban,left,2.3769,0,36,36,21,1,76,nyábét,nyábét,ban,é,Ez itt egy nyábét.,Ott vagyunk a...,nyábétben,nyábétban,dzsungel,NA,NA,PR2022,2000,férfi,nem,2022-04-07_16h55.38.313,hesp_baseline,2021.2.3,Win32,59.89458553
,,,,,,,,,,,,,,,,,csíszlok,csíszlom,left,5.0817,0,37,37,84,1,85,csíszlik,csíszlasz,NA,NA,Te bizony sokat csíszlasz.,Én is sokat...,csíszlok,csíszlom,lakik,-lik,1,PR2022,2000,férfi,nem,2022-04-07_16h55.38.313,hesp_baseline,2021.2.3,Win32,59.89458553
,,,,,,,,,,,,,,,,,lírlanak,líroznak,left,4.7946,0,38,38,115,1,62,lírlik / lírozik,"lírlik, lírozni",nek,NA,"János imád lírozni, ezért sokat lírlik.",Ők ritkán...,lírlanak,líroznak,cselekszik,-lik,1,PR2022,2000,férfi,nem,2022-04-07_16h55.38.313,hesp_baseline,2021.2.3,Win32,59.89458553
,,,,,,,,,,,,,,,,,spubonylok,spubonylom,left,5.0788,0,39,39,104,1,105,spubonylik,spubonylasz,NA,NA,Te bizony sokat spubonylasz.,Én is sokat...,spubonylok,spubonylom,lakik,-lik,2,PR2022,2000,férfi,nem,2022-04-07_16h55.38.313,hesp_baseline,2021.2.3,Win32,59.89458553
,,,,,,,,,,,,,,,,,játlunk,játozunk,left,8.6328,0,40,40,145,1,92,játlik / játozik,"játlik, játozni",ünk,NA,"János imád játozni, ezért sokat játlik.",Mi ritkán...,játlunk,játozunk,cselekszik,-lik,1,PR2022,2000,férfi,nem,2022-04-07_16h55.38.313,hesp_baseline,2021.2.3,Win32,59.89458553
,,,,,,,,,,,,,,,,,floglok,floglom,left,3.3274,0,41,41,92,1,93,floglik,floglasz,NA,NA,Te bizony sokat floglasz.,Én is sokat...,floglok,floglom,lakik,-lik,1,PR2022,2000,férfi,nem,2022-04-07_16h55.38.313,hesp_baseline,2021.2.3,Win32,59.89458553
,,,,,,,,,,,,,,,,,lijeznak,lijeznek,right,4.4326,0,42,42,40,1,95,lijez,lijez,nak,e,Ez itt egy lijez.,Elneveztem a kutyámat...,lijeznek,lijeznak,dzsungel,NA,NA,PR2022,2000,férfi,nem,2022-04-07_16h55.38.313,hesp_baseline,2021.2.3,Win32,59.89458553
,,,,,,,,,,,,,,,,,csimennál,csimennél,right,2.7741,0,43,43,44,1,99,csimen,csimen,nál,e,Ez itt egy csimen.,Nincs is jobb egy jó...,csimennél,csimennál,dzsungel,NA,NA,PR2022,2000,férfi,nem,2022-04-07_16h55.38.313,hesp_baseline,2021.2.3,Win32,59.89458553
,,,,,,,,,,,,,,,,,flemezünk,flemlünk,left,6.4855,0,44,44,137,1,84,flemlik / flemezik,"flemlik, flemezni",ünk,NA,"János imád flemezni, ezért sokat flemlik.",Mi ritkán...,flemlünk,flemezünk,cselekszik,-lik,1,PR2022,2000,férfi,nem,2022-04-07_16h55.38.313,hesp_baseline,2021.2.3,Win32,59.89458553
,,,,,,,,,,,,,,,,,jóbecnek,jóbecnak,left,2.7974,0,45,45,11,1,66,jóbec,jóbec,nak,e,Ez itt egy jóbec.,Elneveztem a kutyámat...,jóbecnek,jóbecnak,dzsungel,NA,NA,PR2022,2000,férfi,nem,2022-04-07_16h55.38.313,hesp_baseline,2021.2.3,Win32,59.89458553
,,,,,,,,,,,,,,,,,spatárzok,spatárzom,right,6.0667,0,46,46,69,1,70,spatárzik,spatárzol,NA,NA,Te bizony sokat spatárzol.,Én is sokat...,spatárzok,spatárzom,lakik,-zik,2,PR2022,2000,férfi,nem,2022-04-07_16h55.38.313,hesp_baseline,2021.2.3,Win32,59.89458553
,,,,,,,,,,,,,,,,,prohódzom,prohódzok,left,4.1402,0,47,47,66,1,67,prohódzik,prohódzol,NA,NA,Te bizony sokat prohódzol.,Én is sokat...,prohódzok,prohódzom,lakik,-zik,2,PR2022,2000,férfi,nem,2022-04-07_16h55.38.313,hesp_baseline,2021.2.3,Win32,59.89458553
,,,,,,,,,,,,,,,,,szanéjnek,szanéjnak,left,2.6105,0,48,48,13,1,68,szanéj,szanéj,nak,é,Ez itt egy szanéj.,Elneveztem a kutyámat...,szanéjnek,szanéjnak,dzsungel,NA,NA,PR2022,2000,férfi,nem,2022-04-07_16h55.38.313,hesp_baseline,2021.2.3,Win32,59.89458553
,,,,,,,,,,,,,,,,,juszlom,juszlok,right,1.9865,0,49,49,79,1,80,juszlik,juszlasz,NA,NA,Te bizony sokat juszlasz.,Én is sokat...,juszlok,juszlom,lakik,-lik,1,PR2022,2000,férfi,nem,2022-04-07_16h55.38.313,hesp_baseline,2021.2.3,Win32,59.89458553
,,,,,,,,,,,,,,,,,prihegszenek,prihegednek,right,6.4427,0,50,50,155,1,102,prihegszik / prihegedik,"prihegszik, prihegedni",nek,NA,"János imád prihegedni, ezért sokat prihegszik.",Ők ritkán...,prihegszenek,prihegednek,cselekszik,-szik,2,PR2022,2000,férfi,nem,2022-04-07_16h55.38.313,hesp_baseline,2021.2.3,Win32,59.89458553
,,,,,,,,,,,,,,,,,hubonylotok,hubonyoztok,left,5.6514,0,51,51,157,1,104,hubonylik / hubonyozik,"hubonylik, hubonyozni",tek,NA,"János imád hubonyozni, ezért sokat hubonylik.",Ti ritkán...,hubonylotok,hubonyoztok,cselekszik,-lik,2,PR2022,2000,férfi,nem,2022-04-07_16h55.38.313,hesp_baseline,2021.2.3,Win32,59.89458553
,,,,,,,,,,,,,,,,,gihamlanak,gihamoznak,left,2.3535,0,52,52,133,1,80,gihamlik / gihamozik,"gihamlik, gihamozni",nek,NA,"János imád gihamozni, ezért sokat gihamlik.",Ők ritkán...,gihamlanak,gihamoznak,cselekszik,-lik,2,PR2022,2000,férfi,nem,2022-04-07_16h55.38.313,hesp_baseline,2021.2.3,Win32,59.89458553
,,,,,,,,,,,,,,,,,nidétben,nidétban,left,2.1426,0,53,53,39,1,94,nidét,nidét,ban,é,Ez itt egy nidét.,Ott vagyunk a...,nidétben,nidétban,dzsungel,NA,NA,PR2022,2000,férfi,nem,2022-04-07_16h55.38.313,hesp_baseline,2021.2.3,Win32,59.89458553
,,,,,,,,,,,,,,,,,spülűdzök,spülűdzöm,right,4.3118,0,54,54,56,1,57,spülűdzik,spülűdzöl,NA,NA,Te bizony sokat spülűdzöl.,Én is sokat...,spülűdzök,spülűdzöm,lakik,-zik,2,PR2022,2000,férfi,nem,2022-04-07_16h55.38.313,hesp_baseline,2021.2.3,Win32,59.89458553
,,,,,,,,,,,,,,,,,lihadzok,lihadzom,left,3.797,0,55,55,101,1,102,lihadzik,lihadzol,NA,NA,Te bizony sokat lihadzol.,Én is sokat...,lihadzok,lihadzom,lakik,-zik,2,PR2022,2000,férfi,nem,2022-04-07_16h55.38.313,hesp_baseline,2021.2.3,Win32,59.89458553
,,,,,,,,,,,,,,,,,klítegynél,klítegynál,left,2.2058,0,56,56,5,1,60,klítegy,klítegy,nál,e,Ez itt egy klítegy.,Nincs is jobb egy jó...,klítegynél,klítegynál,dzsungel,NA,NA,PR2022,2000,férfi,nem,2022-04-07_16h55.38.313,hesp_baseline,2021.2.3,Win32,59.89458553
,,,,,,,,,,,,,,,,,spibeglünk,spibegezünk,right,2.3642,0,57,57,147,1,94,spibeglik / spibegezik,"spibeglik, spibegezni",ünk,NA,"János imád spibegezni, ezért sokat spibeglik.",Mi ritkán...,spibeglünk,spibegezünk,cselekszik,-lik,2,PR2022,2000,férfi,nem,2022-04-07_16h55.38.313,hesp_baseline,2021.2.3,Win32,59.89458553
,,,,,,,,,,,,,,,,,flűgzünk,flűgözünk,left,4.288,0,58,58,160,1,107,flűgzik / flűgözik,"flűgzik, flűgözni",ünk,NA,"János imád flűgözni, ezért sokat flűgzik.",Mi ritkán...,flűgzünk,flűgözünk,cselekszik,-zik,1,PR2022,2000,férfi,nem,2022-04-07_16h55.38.313,hesp_baseline,2021.2.3,Win32,59.89458553
,,,,,,,,,,,,,,,,,huroslom,huroslok,right,1.9944,0,59,59,76,1,77,huroslik,huroslasz,NA,NA,Te bizony sokat huroslasz.,Én is sokat...,huroslok,huroslom,lakik,-lik,2,PR2022,2000,férfi,nem,2022-04-07_16h55.38.313,hesp_baseline,2021.2.3,Win32,59.89458553
,,,,,,,,,,,,,,,,,poslotok,posoztok,left,3.0136,0,60,60,121,1,68,poslik / posozik,"poslik, posozni",tek,NA,"János imád posozni, ezért sokat poslik.",Ti ritkán...,poslotok,posoztok,cselekszik,-lik,1,PR2022,2000,férfi,nem,2022-04-07_16h55.38.313,hesp_baseline,2021.2.3,Win32,59.89458553
,,,,,,,,,,,,,,,,,klajrénnek,klajrénnak,left,1.8537,0,61,61,41,1,96,klajrén,klajrén,nak,é,Ez itt egy klajrén.,Elneveztem a kutyámat...,klajrénnek,klajrénnak,dzsungel,NA,NA,PR2022,2000,férfi,nem,2022-04-07_16h55.38.313,hesp_baseline,2021.2.3,Win32,59.89458553
,,,,,,,,,,,,,,,,,nyádlanak,nyádoznak,left,2.1734,0,62,62,120,1,67,nyádlik / nyádozik,"nyádlik, nyádozni",nek,NA,"János imád nyádozni, ezért sokat nyádlik.",Ők ritkán...,nyádlanak,nyádoznak,cselekszik,-lik,1,PR2022,2000,férfi,nem,2022-04-07_16h55.38.313,hesp_baseline,2021.2.3,Win32,59.89458553
,,,,,,,,,,,,,,,,,töglenek,tögöznek,left,9.1252,0,63,63,156,1,103,töglik / tögözik,"töglik, tögözni",nek,NA,"János imád tögözni, ezért sokat töglik.",Ők ritkán...,töglenek,tögöznek,cselekszik,-lik,1,PR2022,2000,férfi,nem,2022-04-07_16h55.38.313,hesp_baseline,2021.2.3,Win32,59.89458553
,,,,,,,,,,,,,,,,,spiharoztok,spiharzotok,right,3.808,0,64,64,127,1,74,spiharzik / spiharozik,"spiharzik, spiharozni",tek,NA,"János imád spiharozni, ezért sokat spiharzik.",Ti ritkán...,spiharzotok,spiharoztok,cselekszik,-zik,2,PR2022,2000,férfi,nem,2022-04-07_16h55.38.313,hesp_baseline,2021.2.3,Win32,59.89458553
,,,,,,,,,,,,,,,,,praslok,praslom,left,2.5202,0,65,65,80,1,81,praslik,praslasz,NA,NA,Te bizony sokat praslasz.,Én is sokat...,praslok,praslom,lakik,-lik,1,PR2022,2000,férfi,nem,2022-04-07_16h55.38.313,hesp_baseline,2021.2.3,Win32,59.89458553
,,,,,,,,,,,,,,,,,sprűrlenek,sprűröznek,left,2.5757,0,66,66,135,1,82,sprűrlik / sprűrözik,"sprűrlik, sprűrözni",nek,NA,"János imád sprűrözni, ezért sokat sprűrlik.",Ők ritkán...,sprűrlenek,sprűröznek,cselekszik,-lik,1,PR2022,2000,férfi,nem,2022-04-07_16h55.38.313,hesp_baseline,2021.2.3,Win32,59.89458553
,,,,,,,,,,,,,,,,,spáraklom,spáraklok,left,3.9832,0,67,67,96,1,97,spáraklik,spáraklasz,NA,NA,Te bizony sokat spáraklasz.,Én is sokat...,spáraklok,spáraklom,lakik,-lik,2,PR2022,2000,férfi,nem,2022-04-07_16h55.38.313,hesp_baseline,2021.2.3,Win32,59.89458553
,,,,,,,,,,,,,,,,,friszlom,friszlok,left,2.7537,0,68,68,97,1,98,friszlik,friszlasz,NA,NA,Te bizony sokat friszlasz.,Én is sokat...,friszlok,friszlom,lakik,-lik,1,PR2022,2000,férfi,nem,2022-04-07_16h55.38.313,hesp_baseline,2021.2.3,Win32,59.89458553
,,,,,,,,,,,,,,,,,gihesztnek,gihesztnak,left,1.3091,0,69,69,36,1,91,giheszt,giheszt,nak,e,Ez itt egy giheszt.,Elneveztem a kutyámat...,gihesztnek,gihesztnak,dzsungel,NA,NA,PR2022,2000,férfi,nem,2022-04-07_16h55.38.313,hesp_baseline,2021.2.3,Win32,59.89458553
,,,,,,,,,,,,,,,,,lingéknél,lingéknál,left,1.6691,0,70,70,32,1,87,lingék,lingék,nál,é,Ez itt egy lingék.,Nincs is jobb egy jó...,lingéknél,lingéknál,dzsungel,NA,NA,PR2022,2000,férfi,nem,2022-04-07_16h55.38.313,hesp_baseline,2021.2.3,Win32,59.89458553
,,,,,,,,,,,,,,,,,frálasoznak,frálaslanak,left,4.3669,0,71,71,110,1,57,frálaslik / frálasozik,"frálaslik, frálasozni",nek,NA,"János imád frálasozni, ezért sokat frálaslik.",Ők ritkán...,frálaslanak,frálasoznak,cselekszik,-lik,2,PR2022,2000,férfi,nem,2022-04-07_16h55.38.313,hesp_baseline,2021.2.3,Win32,59.89458553
,,,,,,,,,,,,,,,,,kluhéjnál,kluhéjnél,left,3.9047,0,72,72,24,1,79,kluhéj,kluhéj,nál,é,Ez itt egy kluhéj.,Nincs is jobb egy jó...,kluhéjnél,kluhéjnál,dzsungel,NA,NA,PR2022,2000,férfi,nem,2022-04-07_16h55.38.313,hesp_baseline,2021.2.3,Win32,59.89458553
,,,,,,,,,,,,,,,,,nuroklunk,nurokozunk,left,2.5738,0,73,73,131,1,78,nuroklik / nurokozik,"nuroklik, nurokozni",ünk,NA,"János imád nurokozni, ezért sokat nuroklik.",Mi ritkán...,nuroklunk,nurokozunk,cselekszik,-lik,2,PR2022,2000,férfi,nem,2022-04-07_16h55.38.313,hesp_baseline,2021.2.3,Win32,59.89458553
,,,,,,,,,,,,,,,,,tosélyben,tosélyban,left,1.8367,0,74,74,25,1,80,tosély,tosély,ban,é,Ez itt egy tosély.,Ott vagyunk a...,tosélyben,tosélyban,dzsungel,NA,NA,PR2022,2000,férfi,nem,2022-04-07_16h55.38.313,hesp_baseline,2021.2.3,Win32,59.89458553
,,,,,,,,,,,,,,,,,lorjódzok,lorjódzom,left,3.4596,0,75,75,88,1,89,lorjódzik,lorjódzol,NA,NA,Te bizony sokat lorjódzol.,Én is sokat...,lorjódzok,lorjódzom,lakik,-zik,2,PR2022,2000,férfi,nem,2022-04-07_16h55.38.313,hesp_baseline,2021.2.3,Win32,59.89458553
,,,,,,,,,,,,,,,,,klazérben,klazérban,left,1.3585,0,76,76,51,1,106,klazér,klazér,ban,é,Ez itt egy klazér.,Ott vagyunk a...,klazérben,klazérban,dzsungel,NA,NA,PR2022,2000,férfi,nem,2022-04-07_16h55.38.313,hesp_baseline,2021.2.3,Win32,59.89458553
,,,,,,,,,,,,,,,,,klehényletek,klehényeztek,left,4.3455,0,77,77,113,1,60,klehénylik / klehényezik,"klehénylik, klehényezni",tek,NA,"János imád klehényezni, ezért sokat klehénylik.",Ti ritkán...,klehényletek,klehényeztek,cselekszik,-lik,2,PR2022,2000,férfi,nem,2022-04-07_16h55.38.313,hesp_baseline,2021.2.3,Win32,59.89458553
,,,,,,,,,,,,,,,,,zihencnak,zihencnek,right,2.1868,0,78,78,52,1,107,zihenc,zihenc,nak,e,Ez itt egy zihenc.,Elneveztem a kutyámat...,zihencnek,zihencnak,dzsungel,NA,NA,PR2022,2000,férfi,nem,2022-04-07_16h55.38.313,hesp_baseline,2021.2.3,Win32,59.89458553
,,,,,,,,,,,,,,,,,dabzotok,daboztok,left,2.1599,0,79,79,109,1,56,dabzik / dabozik,"dabzik, dabozni",tek,NA,"János imád dabozni, ezért sokat dabzik.",Ti ritkán...,dabzotok,daboztok,cselekszik,-zik,1,PR2022,2000,férfi,nem,2022-04-07_16h55.38.313,hesp_baseline,2021.2.3,Win32,59.89458553
,,,,,,,,,,,,,,,,,gyihegzetek,gyihegeztek,right,2.4731,0,80,80,124,1,71,gyihegzik / gyihegezik,"gyihegzik, gyihegezni",tek,NA,"János imád gyihegezni, ezért sokat gyihegzik.",Ti ritkán...,gyihegzetek,gyihegeztek,cselekszik,-zik,2,PR2022,2000,férfi,nem,2022-04-07_16h55.38.313,hesp_baseline,2021.2.3,Win32,59.89458553
,,,,,,,,,,,,,,,,,garcépnál,garcépnél,right,3.8131,0,81,81,38,1,93,garcép,garcép,nál,é,Ez itt egy garcép.,Nincs is jobb egy jó...,garcépnél,garcépnál,dzsungel,NA,NA,PR2022,2000,férfi,nem,2022-04-07_16h55.38.313,hesp_baseline,2021.2.3,Win32,59.89458553
,,,,,,,,,,,,,,,,,pribemlem,pribemlek,right,2.7213,0,82,82,107,1,108,pribemlik,pribemlesz,NA,NA,Te bizony sokat pribemlesz.,Én is sokat...,pribemlek,pribemlem,lakik,-lik,2,PR2022,2000,férfi,nem,2022-04-07_16h55.38.313,hesp_baseline,2021.2.3,Win32,59.89458553
,,,,,,,,,,,,,,,,,prihekszem,prihekszek,left,3.4435,0,83,83,100,1,101,prihekszik,prihekszel,NA,NA,Te bizony sokat prihekszel.,Én is sokat...,prihekszek,prihekszem,lakik,-szik,2,PR2022,2000,férfi,nem,2022-04-07_16h55.38.313,hesp_baseline,2021.2.3,Win32,59.89458553
,,,,,,,,,,,,,,,,,míjozunk,míjzunk,right,4.9999,0,84,84,114,1,61,míjzik / míjozik,"míjzik, míjozni",ünk,NA,"János imád míjozni, ezért sokat míjzik.",Mi ritkán...,míjzunk,míjozunk,cselekszik,-zik,1,PR2022,2000,férfi,nem,2022-04-07_16h55.38.313,hesp_baseline,2021.2.3,Win32,59.89458553
,,,,,,,,,,,,,,,,,drojozunk,drojzunk,right,3.4213,0,85,85,140,1,87,drojzik / drojozik,"drojzik, drojozni",ünk,NA,"János imád drojozni, ezért sokat drojzik.",Mi ritkán...,drojzunk,drojozunk,cselekszik,-zik,1,PR2022,2000,férfi,nem,2022-04-07_16h55.38.313,hesp_baseline,2021.2.3,Win32,59.89458553
,,,,,,,,,,,,,,,,,klingeszban,klingeszben,right,1.872,0,86,86,1,1,56,klingesz,klingesz,ban,e,Ez itt egy klingesz.,Ott vagyunk a...,klingeszben,klingeszban,dzsungel,NA,NA,PR2022,2000,férfi,nem,2022-04-07_16h55.38.313,hesp_baseline,2021.2.3,Win32,59.89458553
,,,,,,,,,,,,,,,,,fojlegynek,fojlegynak,left,9.8054,0,87,87,3,1,58,fojlegy,fojlegy,nak,e,Ez itt egy fojlegy.,Elneveztem a kutyámat...,fojlegynek,fojlegynak,dzsungel,NA,NA,PR2022,2000,férfi,nem,2022-04-07_16h55.38.313,hesp_baseline,2021.2.3,Win32,59.89458553
,,,,,,,,,,,,,,,,,flürököztök,flüröklötök,left,8.2675,0,88,88,149,1,96,flüröklik / flüröközik,"flüröklik, flüröközni",tek,NA,"János imád flüröközni, ezért sokat flüröklik.",Ti ritkán...,flüröklötök,flürököztök,cselekszik,-lik,2,PR2022,2000,férfi,nem,2022-04-07_16h55.38.313,hesp_baseline,2021.2.3,Win32,59.89458553
,,,,,,,,,,,,,,,,,frivamlunk,frivamozunk,left,4.7797,0,89,89,122,1,69,frivamlik / frivamozik,"frivamlik, frivamozni",ünk,NA,"János imád frivamozni, ezért sokat frivamlik.",Mi ritkán...,frivamlunk,frivamozunk,cselekszik,-lik,2,PR2022,2000,férfi,nem,2022-04-07_16h55.38.313,hesp_baseline,2021.2.3,Win32,59.89458553
,,,,,,,,,,,,,,,,,csubozunk,csubzunk,left,3.8087,0,90,90,111,1,58,csubzik / csubozik,"csubzik, csubozni",ünk,NA,"János imád csubozni, ezért sokat csubzik.",Mi ritkán...,csubzunk,csubozunk,cselekszik,-zik,1,PR2022,2000,férfi,nem,2022-04-07_16h55.38.313,hesp_baseline,2021.2.3,Win32,59.89458553
,,,,,,,,,,,,,,,,,trugoznak,trugzanak,left,3.4616,0,91,91,146,1,93,trugzik / trugozik,"trugzik, trugozni",nek,NA,"János imád trugozni, ezért sokat trugzik.",Ők ritkán...,trugzanak,trugoznak,cselekszik,-zik,1,PR2022,2000,férfi,nem,2022-04-07_16h55.38.313,hesp_baseline,2021.2.3,Win32,59.89458553
,,,,,,,,,,,,,,,,,dibáglotok,dibágoztok,right,2.4365,0,92,92,154,1,101,dibáglik / dibágozik,"dibáglik, dibágozni",tek,NA,"János imád dibágozni, ezért sokat dibáglik.",Ti ritkán...,dibáglotok,dibágoztok,cselekszik,-lik,2,PR2022,2000,férfi,nem,2022-04-07_16h55.38.313,hesp_baseline,2021.2.3,Win32,59.89458553
,,,,,,,,,,,,,,,,,spüjzöm,spüjzök,left,2.6639,0,93,93,59,1,60,spüjzik,spüjzöl,NA,NA,Te bizony sokat spüjzöl.,Én is sokat...,spüjzök,spüjzöm,lakik,-zik,1,PR2022,2000,férfi,nem,2022-04-07_16h55.38.313,hesp_baseline,2021.2.3,Win32,59.89458553
,,,,,,,,,,,,,,,,,figlom,figlok,left,1.3791,0,94,94,75,1,76,figlik,figlasz,NA,NA,Te bizony sokat figlasz.,Én is sokat...,figlok,figlom,lakik,-lik,1,PR2022,2000,férfi,nem,2022-04-07_16h55.38.313,hesp_baseline,2021.2.3,Win32,59.89458553
,,,,,,,,,,,,,,,,,flézletek,flézeztek,right,4.6053,0,95,95,134,1,81,flézlik / flézezik,"flézlik, flézezni",tek,NA,"János imád flézezni, ezért sokat flézlik.",Ti ritkán...,flézletek,flézeztek,cselekszik,-lik,1,PR2022,2000,férfi,nem,2022-04-07_16h55.38.313,hesp_baseline,2021.2.3,Win32,59.89458553
,,,,,,,,,,,,,,,,,prilepedünk,prilepszünk,right,2.5371,0,96,96,161,1,108,prilepszik / prilepedik,"prilepszik, prilepedni",ünk,NA,"János imád prilepedni, ezért sokat prilepszik.",Mi ritkán...,prilepszünk,prilepedünk,cselekszik,-szik,2,PR2022,2000,férfi,nem,2022-04-07_16h55.38.313,hesp_baseline,2021.2.3,Win32,59.89458553
,,,,,,,,,,,,,,,,,ribzok,ribzom,right,3.8716,0,97,97,58,1,59,ribzik,ribzol,NA,NA,Te bizony sokat ribzol.,Én is sokat...,ribzok,ribzom,lakik,-zik,1,PR2022,2000,férfi,nem,2022-04-07_16h55.38.313,hesp_baseline,2021.2.3,Win32,59.89458553
,,,,,,,,,,,,,,,,,ruslok,ruslom,right,4.5817,0,98,98,83,1,84,ruslik,ruslasz,NA,NA,Te bizony sokat ruslasz.,Én is sokat...,ruslok,ruslom,lakik,-lik,1,PR2022,2000,férfi,nem,2022-04-07_16h55.38.313,hesp_baseline,2021.2.3,Win32,59.89458553
,,,,,,,,,,,,,,,,,branylanak,branyoznak,left,9.9864,0,99,99,136,1,83,branylik / branyozik,"branylik, branyozni",nek,NA,"János imád branyozni, ezért sokat branylik.",Ők ritkán...,branylanak,branyoznak,cselekszik,-lik,1,PR2022,2000,férfi,nem,2022-04-07_16h55.38.313,hesp_baseline,2021.2.3,Win32,59.89458553
,,,,,,,,,,,,,,,,,tranékban,tranékben,left,4.508,0,100,100,2,1,57,tranék,tranék,ban,é,Ez itt egy tranék.,Ott vagyunk a...,tranékben,tranékban,dzsungel,NA,NA,PR2022,2000,férfi,nem,2022-04-07_16h55.38.313,hesp_baseline,2021.2.3,Win32,59.89458553
,,,,,,,,,,,,,,,,,sprízemnél,sprízemnál,left,3.3081,0,101,101,22,1,77,sprízem,sprízem,nál,e,Ez itt egy sprízem.,Nincs is jobb egy jó...,sprízemnél,sprízemnál,dzsungel,NA,NA,PR2022,2000,férfi,nem,2022-04-07_16h55.38.313,hesp_baseline,2021.2.3,Win32,59.89458553
,,,,,,,,,,,,,,,,,spizecnak,spizecnek,right,2.1025,0,102,102,6,1,61,spizec,spizec,nak,e,Ez itt egy spizec.,Elneveztem a kutyámat...,spizecnek,spizecnak,dzsungel,NA,NA,PR2022,2000,férfi,nem,2022-04-07_16h55.38.313,hesp_baseline,2021.2.3,Win32,59.89458553
,,,,,,,,,,,,,,,,,tomlom,tomlok,right,2.8695,0,103,103,86,1,87,tomlik,tomlasz,NA,NA,Te bizony sokat tomlasz.,Én is sokat...,tomlok,tomlom,lakik,-lik,1,PR2022,2000,férfi,nem,2022-04-07_16h55.38.313,hesp_baseline,2021.2.3,Win32,59.89458553
,,,,,,,,,,,,,,,,,tumélynél,tumélynál,left,1.6299,0,104,104,28,1,83,tumély,tumély,nál,é,Ez itt egy tumély.,Nincs is jobb egy jó...,tumélynél,tumélynál,dzsungel,NA,NA,PR2022,2000,férfi,nem,2022-04-07_16h55.38.313,hesp_baseline,2021.2.3,Win32,59.89458553
,,,,,,,,,,,,,,,,,bribékszetek,bribékedtek,right,2.7788,0,105,105,141,1,88,bribékszik / bribékedik,"bribékszik, bribékedni",tek,NA,"János imád bribékedni, ezért sokat bribékszik.",Ti ritkán...,bribékszetek,bribékedtek,cselekszik,-szik,2,PR2022,2000,férfi,nem,2022-04-07_16h55.38.313,hesp_baseline,2021.2.3,Win32,59.89458553
,,,,,,,,,,,,,,,,,jonylom,jonylok,right,2.5127,0,106,106,55,1,56,jonylik,jonylasz,NA,NA,Te bizony sokat jonylasz.,Én is sokat...,jonylok,jonylom,lakik,-lik,1,PR2022,2000,férfi,nem,2022-04-07_16h55.38.313,hesp_baseline,2021.2.3,Win32,59.89458553
,,,,,,,,,,,,,,,,,zsigénnél,zsigénnál,left,2.2784,0,107,107,12,1,67,zsigén,zsigén,nál,é,Ez itt egy zsigén.,Nincs is jobb egy jó...,zsigénnél,zsigénnál,dzsungel,NA,NA,PR2022,2000,férfi,nem,2022-04-07_16h55.38.313,hesp_baseline,2021.2.3,Win32,59.89458553
,,,,,,,,,,,,,,,,,spöklünk,spöközünk,left,2.7783,0,108,108,130,1,77,spöklik / spöközik,"spöklik, spöközni",ünk,NA,"János imád spöközni, ezért sokat spöklik.",Mi ritkán...,spöklünk,spöközünk,cselekszik,-lik,1,PR2022,2000,férfi,nem,2022-04-07_16h55.38.313,hesp_baseline,2021.2.3,Win32,59.89458553
,,,,,,,,,,,,,,,,,klűmlötök,klűmöztök,left,2.5463,0,109,109,108,1,55,klűmlik / klűmözik,"klűmlik, klűmözni",tek,NA,"János imád klűmözni, ezért sokat klűmlik.",Ti ritkán...,klűmlötök,klűmöztök,cselekszik,-lik,1,PR2022,2000,férfi,nem,2022-04-07_16h55.38.313,hesp_baseline,2021.2.3,Win32,59.89458553
,,,,,,,,,,,,,,,,,forzédnek,forzédnak,left,2.4289,0,110,110,46,1,101,forzéd,forzéd,nak,é,Ez itt egy forzéd.,Elneveztem a kutyámat...,forzédnek,forzédnak,dzsungel,NA,NA,PR2022,2000,férfi,nem,2022-04-07_16h55.38.313,hesp_baseline,2021.2.3,Win32,59.89458553
,,,,,,,,,,,,,,,,,femlek,femlem,left,1.5471,0,111,111,57,1,58,femlik,femlesz,NA,NA,Te bizony sokat femlesz.,Én is sokat...,femlek,femlem,lakik,-lik,1,PR2022,2000,férfi,nem,2022-04-07_16h55.38.313,hesp_baseline,2021.2.3,Win32,59.89458553
,,,,,,,,,,,,,,,,,vorszennél,vorszennál,left,1.3255,0,112,112,30,1,85,vorszen,vorszen,nál,e,Ez itt egy vorszen.,Nincs is jobb egy jó...,vorszennél,vorszennál,dzsungel,NA,NA,PR2022,2000,férfi,nem,2022-04-07_16h55.38.313,hesp_baseline,2021.2.3,Win32,59.89458553
,,,,,,,,,,,,,,,,,tiregzek,tiregzem,right,2.6091,0,113,113,64,1,65,tiregzik,tiregzel,NA,NA,Te bizony sokat tiregzel.,Én is sokat...,tiregzek,tiregzem,lakik,-zik,2,PR2022,2000,férfi,nem,2022-04-07_16h55.38.313,hesp_baseline,2021.2.3,Win32,59.89458553
,,,,,,,,,,,,,,,,,rapszeknál,rapszeknél,right,6.5232,0,114,114,35,1,90,rapszek,rapszek,nál,e,Ez itt egy rapszek.,Nincs is jobb egy jó...,rapszeknél,rapszeknál,dzsungel,NA,NA,PR2022,2000,férfi,nem,2022-04-07_16h55.38.313,hesp_baseline,2021.2.3,Win32,59.89458553
,,,,,,,,,,,,,,,,,navecban,navecben,left,4.1088,0,115,115,8,1,63,navec,navec,ban,e,Ez itt egy navec.,Ott vagyunk a...,navecben,navecban,dzsungel,NA,NA,PR2022,2000,férfi,nem,2022-04-07_16h55.38.313,hesp_baseline,2021.2.3,Win32,59.89458553
,,,,,,,,,,,,,,,,,fröjzötök,fröjöztök,left,2.8869,0,116,116,153,1,100,fröjzik / fröjözik,"fröjzik, fröjözni",tek,NA,"János imád fröjözni, ezért sokat fröjzik.",Ti ritkán...,fröjzötök,fröjöztök,cselekszik,-zik,1,PR2022,2000,férfi,nem,2022-04-07_16h55.38.313,hesp_baseline,2021.2.3,Win32,59.89458553
,,,,,,,,,,,,,,,,,hákodnak,hákszanak,left,4.6387,0,117,117,150,1,97,hákszik / hákodik,"hákszik, hákodni",nek,NA,"János imád hákodni, ezért sokat hákszik.",Ők ritkán...,hákszanak,hákodnak,cselekszik,-szik,1,PR2022,2000,férfi,nem,2022-04-07_16h55.38.313,hesp_baseline,2021.2.3,Win32,59.89458553
,,,,,,,,,,,,,,,,,fupétnál,fupétnél,left,2.6367,0,118,118,14,1,69,fupét,fupét,nál,é,Ez itt egy fupét.,Nincs is jobb egy jó...,fupétnél,fupétnál,dzsungel,NA,NA,PR2022,2000,férfi,nem,2022-04-07_16h55.38.313,hesp_baseline,2021.2.3,Win32,59.89458553
,,,,,,,,,,,,,,,,,fluboklotok,flubokoztok,left,2.2201,0,119,119,151,1,98,fluboklik / flubokozik,"fluboklik, flubokozni",tek,NA,"János imád flubokozni, ezért sokat fluboklik.",Ti ritkán...,fluboklotok,flubokoztok,cselekszik,-lik,2,PR2022,2000,férfi,nem,2022-04-07_16h55.38.313,hesp_baseline,2021.2.3,Win32,59.89458553
,,,,,,,,,,,,,,,,,ronvetnak,ronvetnek,right,2.4802,0,120,120,9,1,64,ronvet,ronvet,nak,e,Ez itt egy ronvet.,Elneveztem a kutyámat...,ronvetnek,ronvetnak,dzsungel,NA,NA,PR2022,2000,férfi,nem,2022-04-07_16h55.38.313,hesp_baseline,2021.2.3,Win32,59.89458553
,,,,,,,,,,,,,,,,,zarcégnál,zarcégnél,right,1.7963,0,121,121,29,1,84,zarcég,zarcég,nál,é,Ez itt egy zarcég.,Nincs is jobb egy jó...,zarcégnél,zarcégnál,dzsungel,NA,NA,PR2022,2000,férfi,nem,2022-04-07_16h55.38.313,hesp_baseline,2021.2.3,Win32,59.89458553
,,,,,,,,,,,,,,,,,fréslünk,frésezünk,left,2.4201,0,122,122,138,1,85,fréslik / frésezik,"fréslik, frésezni",ünk,NA,"János imád frésezni, ezért sokat fréslik.",Mi ritkán...,fréslünk,frésezünk,cselekszik,-lik,1,PR2022,2000,férfi,nem,2022-04-07_16h55.38.313,hesp_baseline,2021.2.3,Win32,59.89458553
,,,,,,,,,,,,,,,,,fibamlom,fibamlok,right,1.6594,0,123,123,65,1,66,fibamlik,fibamlasz,NA,NA,Te bizony sokat fibamlasz.,Én is sokat...,fibamlok,fibamlom,lakik,-lik,2,PR2022,2000,férfi,nem,2022-04-07_16h55.38.313,hesp_baseline,2021.2.3,Win32,59.89458553
,,,,,,,,,,,,,,,,,dineltben,dineltban,left,1.9694,0,124,124,0,1,55,dinelt,dinelt,ban,e,Ez itt egy dinelt.,Ott vagyunk a...,dineltben,dineltban,dzsungel,NA,NA,PR2022,2000,férfi,nem,2022-04-07_16h55.38.313,hesp_baseline,2021.2.3,Win32,59.89458553
,,,,,,,,,,,,,,,,,sponyoznak,sponylanak,left,2.187,0,125,125,125,1,72,sponylik / sponyozik,"sponylik, sponyozni",nek,NA,"János imád sponyozni, ezért sokat sponylik.",Ők ritkán...,sponylanak,sponyoznak,cselekszik,-lik,1,PR2022,2000,férfi,nem,2022-04-07_16h55.38.313,hesp_baseline,2021.2.3,Win32,59.89458553
,,,,,,,,,,,,,,,,,cságyeltban,cságyeltben,right,4.3449,0,126,126,10,1,65,cságyelt,cságyelt,ban,e,Ez itt egy cságyelt.,Ott vagyunk a...,cságyeltben,cságyeltban,dzsungel,NA,NA,PR2022,2000,férfi,nem,2022-04-07_16h55.38.313,hesp_baseline,2021.2.3,Win32,59.89458553
,,,,,,,,,,,,,,,,,júdernak,júdernek,left,3.9923,0,127,127,53,1,108,júder,júder,nak,e,Ez itt egy júder.,Elneveztem a kutyámat...,júdernek,júdernak,dzsungel,NA,NA,PR2022,2000,férfi,nem,2022-04-07_16h55.38.313,hesp_baseline,2021.2.3,Win32,59.89458553
,,,,,,,,,,,,,,,,,jábézban,jábézben,right,5.0051,0,128,128,34,1,89,jábéz,jábéz,ban,é,Ez itt egy jábéz.,Ott vagyunk a...,jábézben,jábézban,dzsungel,NA,NA,PR2022,2000,férfi,nem,2022-04-07_16h55.38.313,hesp_baseline,2021.2.3,Win32,59.89458553
,,,,,,,,,,,,,,,,,brivegzem,brivegzek,left,3.1874,0,129,129,70,1,71,brivegzik,brivegzel,NA,NA,Te bizony sokat brivegzel.,Én is sokat...,brivegzek,brivegzem,lakik,-zik,2,PR2022,2000,férfi,nem,2022-04-07_16h55.38.313,hesp_baseline,2021.2.3,Win32,59.89458553
,,,,,,,,,,,,,,,,,flátszok,flátszom,right,2.1919,0,130,130,98,1,99,flátszik,flátszol,NA,NA,Te bizony sokat flátszol.,Én is sokat...,flátszok,flátszom,lakik,-szik,1,PR2022,2000,férfi,nem,2022-04-07_16h55.38.313,hesp_baseline,2021.2.3,Win32,59.89458553
,,,,,,,,,,,,,,,,,fröjlünk,fröjözünk,left,1.569,0,131,131,117,1,64,fröjlik / fröjözik,"fröjlik, fröjözni",ünk,NA,"János imád fröjözni, ezért sokat fröjlik.",Mi ritkán...,fröjlünk,fröjözünk,cselekszik,-lik,1,PR2022,2000,férfi,nem,2022-04-07_16h55.38.313,hesp_baseline,2021.2.3,Win32,59.89458553
,,,,,,,,,,,,,,,,,csintékben,csintékban,left,7.8333,0,132,132,23,1,78,csinték,csinték,ban,é,Ez itt egy csinték.,Ott vagyunk a...,csintékben,csintékban,dzsungel,NA,NA,PR2022,2000,férfi,nem,2022-04-07_16h55.38.313,hesp_baseline,2021.2.3,Win32,59.89458553
,,,,,,,,,,,,,,,,,nyametben,nyametban,left,1.8251,0,133,133,17,1,72,nyamet,nyamet,ban,e,Ez itt egy nyamet.,Ott vagyunk a...,nyametben,nyametban,dzsungel,NA,NA,PR2022,2000,férfi,nem,2022-04-07_16h55.38.313,hesp_baseline,2021.2.3,Win32,59.89458553
,,,,,,,,,,,,,,,,,tribejletek,tribejeztek,right,5.5398,0,134,134,132,1,79,tribejlik / tribejezik,"tribejlik, tribejezni",tek,NA,"János imád tribejezni, ezért sokat tribejlik.",Ti ritkán...,tribejletek,tribejeztek,cselekszik,-lik,2,PR2022,2000,férfi,nem,2022-04-07_16h55.38.313,hesp_baseline,2021.2.3,Win32,59.89458553
,,,,,,,,,,,,,,,,,metégszenek,metégednek,left,4.3666,0,135,135,112,1,59,metégszik / metégedik,"metégszik, metégedni",nek,NA,"János imád metégedni, ezért sokat metégszik.",Ők ritkán...,metégszenek,metégednek,cselekszik,-szik,2,PR2022,2000,férfi,nem,2022-04-07_16h55.38.313,hesp_baseline,2021.2.3,Win32,59.89458553
,,,,,,,,,,,,,,,,,ribegzem,ribegzek,left,1.6692,0,136,136,63,1,64,ribegzik,ribegzel,NA,NA,Te bizony sokat ribegzel.,Én is sokat...,ribegzek,ribegzem,lakik,-zik,2,PR2022,2000,férfi,nem,2022-04-07_16h55.38.313,hesp_baseline,2021.2.3,Win32,59.89458553
,,,,,,,,,,,,,,,,,flibekszek,flibekszem,right,1.7369,0,137,137,93,1,94,flibekszik,flibekszel,NA,NA,Te bizony sokat flibekszel.,Én is sokat...,flibekszek,flibekszem,lakik,-szik,2,PR2022,2000,férfi,nem,2022-04-07_16h55.38.313,hesp_baseline,2021.2.3,Win32,59.89458553
,,,,,,,,,,,,,,,,,flodlotok,flodoztok,right,4.3956,0,138,138,144,1,91,flodlik / flodozik,"flodlik, flodozni",tek,NA,"János imád flodozni, ezért sokat flodlik.",Ti ritkán...,flodlotok,flodoztok,cselekszik,-lik,1,PR2022,2000,férfi,nem,2022-04-07_16h55.38.313,hesp_baseline,2021.2.3,Win32,59.89458553
,,,,,,,,,,,,,,,,,flerékszünk,flerékedünk,left,3.5437,0,139,139,159,1,106,flerékszik / flerékedik,"flerékszik, flerékedni",ünk,NA,"János imád flerékedni, ezért sokat flerékszik.",Mi ritkán...,flerékszünk,flerékedünk,cselekszik,-szik,2,PR2022,2000,férfi,nem,2022-04-07_16h55.38.313,hesp_baseline,2021.2.3,Win32,59.89458553
,,,,,,,,,,,,,,,,,brágaklok,brágaklom,right,7.409,0,140,140,71,1,72,brágaklik,brágaklasz,NA,NA,Te bizony sokat brágaklasz.,Én is sokat...,brágaklok,brágaklom,lakik,-lik,2,PR2022,2000,férfi,nem,2022-04-07_16h55.38.313,hesp_baseline,2021.2.3,Win32,59.89458553
,,,,,,,,,,,,,,,,,fivénylek,fivénylem,left,2.6366,0,141,141,78,1,79,fivénylik,fivénylesz,NA,NA,Te bizony sokat fivénylesz.,Én is sokat...,fivénylek,fivénylem,lakik,-lik,2,PR2022,2000,férfi,nem,2022-04-07_16h55.38.313,hesp_baseline,2021.2.3,Win32,59.89458553
,,,,,,,,,,,,,,,,,bingéjnek,bingéjnak,left,2.1351,0,142,142,49,1,104,bingéj,bingéj,nak,é,Ez itt egy bingéj.,Elneveztem a kutyámat...,bingéjnek,bingéjnak,dzsungel,NA,NA,PR2022,2000,férfi,nem,2022-04-07_16h55.38.313,hesp_baseline,2021.2.3,Win32,59.89458553
,,,,,,,,,,,,,,,,,brágédnek,brágédnak,left,2.6854,0,143,143,45,1,100,brágéd,brágéd,nak,é,Ez itt egy brágéd.,Elneveztem a kutyámat...,brágédnek,brágédnak,dzsungel,NA,NA,PR2022,2000,férfi,nem,2022-04-07_16h55.38.313,hesp_baseline,2021.2.3,Win32,59.89458553
,,,,,,,,,,,,,,,,,pratánylok,pratánylom,left,1.838,0,144,144,95,1,96,pratánylik,pratánylasz,NA,NA,Te bizony sokat pratánylasz.,Én is sokat...,pratánylok,pratánylom,lakik,-lik,2,PR2022,2000,férfi,nem,2022-04-07_16h55.38.313,hesp_baseline,2021.2.3,Win32,59.89458553
,,,,,,,,,,,,,,,,,flehékszek,flehékszem,right,3.1415,0,145,145,77,1,78,flehékszik,flehékszel,NA,NA,Te bizony sokat flehékszel.,Én is sokat...,flehékszek,flehékszem,lakik,-szik,2,PR2022,2000,férfi,nem,2022-04-07_16h55.38.313,hesp_baseline,2021.2.3,Win32,59.89458553
,,,,,,,,,,,,,,,,,dihelynek,dihelynak,left,1.5857,0,146,146,20,1,75,dihely,dihely,nak,e,Ez itt egy dihely.,Elneveztem a kutyámat...,dihelynek,dihelynak,dzsungel,NA,NA,PR2022,2000,férfi,nem,2022-04-07_16h55.38.313,hesp_baseline,2021.2.3,Win32,59.89458553
,,,,,,,,,,,,,,,,,trigencnek,trigencnak,left,1.3852,0,147,147,31,1,86,trigenc,trigenc,nak,e,Ez itt egy trigenc.,Elneveztem a kutyámat...,trigencnek,trigencnak,dzsungel,NA,NA,PR2022,2000,férfi,nem,2022-04-07_16h55.38.313,hesp_baseline,2021.2.3,Win32,59.89458553
,,,,,,,,,,,,,,,,,nyüröznek,nyürzenek,right,2.8386,0,148,148,123,1,70,nyürzik / nyürözik,"nyürzik, nyürözni",nek,NA,"János imád nyürözni, ezért sokat nyürzik.",Ők ritkán...,nyürzenek,nyüröznek,cselekszik,-zik,1,PR2022,2000,férfi,nem,2022-04-07_16h55.38.313,hesp_baseline,2021.2.3,Win32,59.89458553
,,,,,,,,,,,,,,,,,spátennek,spátennak,left,1.3874,0,149,149,33,1,88,spáten,spáten,nak,e,Ez itt egy spáten.,Elneveztem a kutyámat...,spátennek,spátennak,dzsungel,NA,NA,PR2022,2000,férfi,nem,2022-04-07_16h55.38.313,hesp_baseline,2021.2.3,Win32,59.89458553
,,,,,,,,,,,,,,,,,pivegszem,pivegszek,left,1.3723,0,150,150,99,1,100,pivegszik,pivegszel,NA,NA,Te bizony sokat pivegszel.,Én is sokat...,pivegszek,pivegszem,lakik,-szik,2,PR2022,2000,férfi,nem,2022-04-07_16h55.38.313,hesp_baseline,2021.2.3,Win32,59.89458553
,,,,,,,,,,,,,,,,,kátédnél,kátédnál,right,1.7094,0,151,151,37,1,92,kátéd,kátéd,nál,é,Ez itt egy kátéd.,Nincs is jobb egy jó...,kátédnél,kátédnál,dzsungel,NA,NA,PR2022,2000,férfi,nem,2022-04-07_16h55.38.313,hesp_baseline,2021.2.3,Win32,59.89458553
,,,,,,,,,,,,,,,,,kluzlotok,kluzoztok,left,2.1696,0,152,152,148,1,95,kluzlik / kluzozik,"kluzlik, kluzozni",tek,NA,"János imád kluzozni, ezért sokat kluzlik.",Ti ritkán...,kluzlotok,kluzoztok,cselekszik,-lik,1,PR2022,2000,férfi,nem,2022-04-07_16h55.38.313,hesp_baseline,2021.2.3,Win32,59.89458553
,,,,,,,,,,,,,,,,,sortemnál,sortemnél,left,1.6193,0,153,153,15,1,70,sortem,sortem,nál,e,Ez itt egy sortem.,Nincs is jobb egy jó...,sortemnél,sortemnál,dzsungel,NA,NA,PR2022,2000,férfi,nem,2022-04-07_16h55.38.313,hesp_baseline,2021.2.3,Win32,59.89458553
,,,,,,,,,,,,,,,,,dilakoztok,dilaklotok,left,2.5539,0,154,154,158,1,105,dilaklik / dilakozik,"dilaklik, dilakozni",tek,NA,"János imád dilakozni, ezért sokat dilaklik.",Ti ritkán...,dilaklotok,dilakoztok,cselekszik,-lik,2,PR2022,2000,férfi,nem,2022-04-07_16h55.38.313,hesp_baseline,2021.2.3,Win32,59.89458553
,,,,,,,,,,,,,,,,,fligzom,fligzok,left,1.297,0,155,155,103,1,104,fligzik,fligzol,NA,NA,Te bizony sokat fligzol.,Én is sokat...,fligzok,fligzom,lakik,-zik,1,PR2022,2000,férfi,nem,2022-04-07_16h55.38.313,hesp_baseline,2021.2.3,Win32,59.89458553
,,,,,,,,,,,,,,,,,flűröklöm,flűröklök,left,3.1209,0,156,156,91,1,92,flűröklik,flűröklesz,NA,NA,Te bizony sokat flűröklesz.,Én is sokat...,flűröklök,flűröklöm,lakik,-lik,2,PR2022,2000,férfi,nem,2022-04-07_16h55.38.313,hesp_baseline,2021.2.3,Win32,59.89458553
,,,,,,,,,,,,,,,,,sprebeznek,sprebzenek,left,6.6575,0,157,157,139,1,86,sprebzik / sprebezik,"sprebzik, sprebezni",nek,NA,"János imád sprebezni, ezért sokat sprebzik.",Ők ritkán...,sprebzenek,sprebeznek,cselekszik,-zik,1,PR2022,2000,férfi,nem,2022-04-07_16h55.38.313,hesp_baseline,2021.2.3,Win32,59.89458553
,,,,,,,,,,,,,,,,,ítensban,ítensben,right,4.3223,0,158,158,50,1,105,ítens,ítens,ban,e,Ez itt egy ítens.,Ott vagyunk a...,ítensben,ítensban,dzsungel,NA,NA,PR2022,2000,férfi,nem,2022-04-07_16h55.38.313,hesp_baseline,2021.2.3,Win32,59.89458553
,,,,,,,,,,,,,,,,,pítendben,pítendban,left,1.663,0,159,159,18,1,73,pítend,pítend,ban,e,Ez itt egy pítend.,Ott vagyunk a...,pítendben,pítendban,dzsungel,NA,NA,PR2022,2000,férfi,nem,2022-04-07_16h55.38.313,hesp_baseline,2021.2.3,Win32,59.89458553
,,,,,,,,,,,,,,,,,flűmlök,flűmlöm,left,1.8291,0,160,160,54,1,55,flűmlik,flűmlesz,NA,NA,Te bizony sokat flűmlesz.,Én is sokat...,flűmlök,flűmlöm,lakik,-lik,1,PR2022,2000,férfi,nem,2022-04-07_16h55.38.313,hesp_baseline,2021.2.3,Win32,59.89458553
,,,,,,,,,,,,,,,,,frodlom,frodlok,left,2.0917,0,161,161,61,1,62,frodlik,frodlasz,NA,NA,Te bizony sokat frodlasz.,Én is sokat...,frodlok,frodlom,lakik,-lik,1,PR2022,2000,férfi,nem,2022-04-07_16h55.38.313,hesp_baseline,2021.2.3,Win32,59.89458553
