my_list,key.keys,key.rt,key_2.keys,key_2.rt,keyboard_input_2.keys,keyboard_input_2.rt,key_3.keys,key_3.rt,keyboard_input_3.keys,keyboard_input_3.rt,key_4.keys,key_4.rt,keyboard_input_4.keys,keyboard_input_4.rt,key_5.keys,key_5.rt,my_button1,my_button2,keyboard_input.keys,keyboard_input.rt,withinBlock.thisRepN,withinBlock.thisTrialN,withinBlock.thisN,withinBlock.thisIndex,withinBlock.ran,rowname,word,prompt,suffix,vowel,carrier_sentence,target_sentence,target1,target2,category,derivational,nsyl,Azonosító,Melyik évben születtél?,Mi a nemed?,Tanultál nyelvészetet?,date,expName,psychopyVersion,OS,frameRate
list2.csv,space,28.4318,space,6.8911,right,8.3237,space,14.1001,left,6.8089,space,13.3579,left,6.849,space,18.5373,nűröklök,nűröklöm,left,6.5951,0,0,0,106,1,107,nűröklik,nűröklesz,NA,NA,Te bizony sokat nűröklesz.,Én is sokat...,nűröklök,nűröklöm,lakik,-lik,2,PR2086,2001,nő,nem,2022-04-19_22h50.48.532,hesp_baseline,2021.2.3,Win32,59.97720866
,,,,,,,,,,,,,,,,,szűslöm,szűslök,right,6.8544,0,1,1,85,1,86,szűslik,szűslesz,NA,NA,Te bizony sokat szűslesz.,Én is sokat...,szűslök,szűslöm,lakik,-lik,1,PR2086,2001,nő,nem,2022-04-19_22h50.48.532,hesp_baseline,2021.2.3,Win32,59.97720866
,,,,,,,,,,,,,,,,,csíszlok,csíszlom,left,3.3152,0,2,2,84,1,85,csíszlik,csíszlasz,NA,NA,Te bizony sokat csíszlasz.,Én is sokat...,csíszlok,csíszlom,lakik,-lik,1,PR2086,2001,nő,nem,2022-04-19_22h50.48.532,hesp_baseline,2021.2.3,Win32,59.97720866
,,,,,,,,,,,,,,,,,juszlok,juszlom,left,2.9989,0,3,3,79,1,80,juszlik,juszlasz,NA,NA,Te bizony sokat juszlasz.,Én is sokat...,juszlok,juszlom,lakik,-lik,1,PR2086,2001,nő,nem,2022-04-19_22h50.48.532,hesp_baseline,2021.2.3,Win32,59.97720866
,,,,,,,,,,,,,,,,,hubonyoztok,hubonylotok,left,8.4276,0,4,4,157,1,104,hubonylik / hubonyozik,"hubonylik, hubonyozni",tek,NA,"János imád hubonyozni, ezért sokat hubonylik.",Ti ritkán...,hubonylotok,hubonyoztok,cselekszik,-lik,2,PR2086,2001,nő,nem,2022-04-19_22h50.48.532,hesp_baseline,2021.2.3,Win32,59.97720866
,,,,,,,,,,,,,,,,,fibamlok,fibamlom,left,34.3087,0,5,5,65,1,66,fibamlik,fibamlasz,NA,NA,Te bizony sokat fibamlasz.,Én is sokat...,fibamlok,fibamlom,lakik,-lik,2,PR2086,2001,nő,nem,2022-04-19_22h50.48.532,hesp_baseline,2021.2.3,Win32,59.97720866
,,,,,,,,,,,,,,,,,nyábétban,nyábétben,left,5.168,0,6,6,21,1,76,nyábét,nyábét,ban,é,Ez itt egy nyábét.,Ott vagyunk a...,nyábétben,nyábétban,dzsungel,NA,NA,PR2086,2001,nő,nem,2022-04-19_22h50.48.532,hesp_baseline,2021.2.3,Win32,59.97720866
,,,,,,,,,,,,,,,,,pivegszem,pivegszek,right,4.3492,0,7,7,99,1,100,pivegszik,pivegszel,NA,NA,Te bizony sokat pivegszel.,Én is sokat...,pivegszek,pivegszem,lakik,-szik,2,PR2086,2001,nő,nem,2022-04-19_22h50.48.532,hesp_baseline,2021.2.3,Win32,59.97720866
,,,,,,,,,,,,,,,,,praslom,praslok,right,4.2108,0,8,8,80,1,81,praslik,praslasz,NA,NA,Te bizony sokat praslasz.,Én is sokat...,praslok,praslom,lakik,-lik,1,PR2086,2001,nő,nem,2022-04-19_22h50.48.532,hesp_baseline,2021.2.3,Win32,59.97720866
,,,,,,,,,,,,,,,,,kluzlotok,kluzoztok,left,7.2481,0,9,9,148,1,95,kluzlik / kluzozik,"kluzlik, kluzozni",tek,NA,"János imád kluzozni, ezért sokat kluzlik.",Ti ritkán...,kluzlotok,kluzoztok,cselekszik,-lik,1,PR2086,2001,nő,nem,2022-04-19_22h50.48.532,hesp_baseline,2021.2.3,Win32,59.97720866
,,,,,,,,,,,,,,,,,spügözünk,spügzünk,right,1.0305,0,10,10,143,1,90,spügzik / spügözik,"spügzik, spügözni",ünk,NA,"János imád spügözni, ezért sokat spügzik.",Mi ritkán...,spügzünk,spügözünk,cselekszik,-zik,1,PR2086,2001,nő,nem,2022-04-19_22h50.48.532,hesp_baseline,2021.2.3,Win32,59.97720866
,,,,,,,,,,,,,,,,,sprízemnél,sprízemnál,left,5.0385,0,11,11,22,1,77,sprízem,sprízem,nál,e,Ez itt egy sprízem.,Nincs is jobb egy jó...,sprízemnél,sprízemnál,dzsungel,NA,NA,PR2086,2001,nő,nem,2022-04-19_22h50.48.532,hesp_baseline,2021.2.3,Win32,59.97720866
,,,,,,,,,,,,,,,,,sprogzok,sprogzom,left,3.1562,0,12,12,89,1,90,sprogzik,sprogzol,NA,NA,Te bizony sokat sprogzol.,Én is sokat...,sprogzok,sprogzom,lakik,-zik,1,PR2086,2001,nő,nem,2022-04-19_22h50.48.532,hesp_baseline,2021.2.3,Win32,59.97720866
,,,,,,,,,,,,,,,,,prihekszek,prihekszem,left,3.7296,0,13,13,100,1,101,prihekszik,prihekszel,NA,NA,Te bizony sokat prihekszel.,Én is sokat...,prihekszek,prihekszem,lakik,-szik,2,PR2086,2001,nő,nem,2022-04-19_22h50.48.532,hesp_baseline,2021.2.3,Win32,59.97720866
,,,,,,,,,,,,,,,,,spibegezünk,spibeglünk,left,5.3088,0,14,14,147,1,94,spibeglik / spibegezik,"spibeglik, spibegezni",ünk,NA,"János imád spibegezni, ezért sokat spibeglik.",Mi ritkán...,spibeglünk,spibegezünk,cselekszik,-lik,2,PR2086,2001,nő,nem,2022-04-19_22h50.48.532,hesp_baseline,2021.2.3,Win32,59.97720866
,,,,,,,,,,,,,,,,,flüröslök,flüröslöm,left,5.3531,0,15,15,87,1,88,flüröslik,flüröslesz,NA,NA,Te bizony sokat flüröslesz.,Én is sokat...,flüröslök,flüröslöm,lakik,-lik,2,PR2086,2001,nő,nem,2022-04-19_22h50.48.532,hesp_baseline,2021.2.3,Win32,59.97720866
,,,,,,,,,,,,,,,,,míjzunk,míjozunk,right,4.876,0,16,16,114,1,61,míjzik / míjozik,"míjzik, míjozni",ünk,NA,"János imád míjozni, ezért sokat míjzik.",Mi ritkán...,míjzunk,míjozunk,cselekszik,-zik,1,PR2086,2001,nő,nem,2022-04-19_22h50.48.532,hesp_baseline,2021.2.3,Win32,59.97720866
,,,,,,,,,,,,,,,,,szirlom,szirlok,right,3.2426,0,17,17,62,1,63,szirlik,szirlasz,NA,NA,Te bizony sokat szirlasz.,Én is sokat...,szirlok,szirlom,lakik,-lik,1,PR2086,2001,nő,nem,2022-04-19_22h50.48.532,hesp_baseline,2021.2.3,Win32,59.97720866
,,,,,,,,,,,,,,,,,pratelynak,pratelynek,left,4.5262,0,18,18,47,1,102,prately,prately,nak,e,Ez itt egy prately.,Elneveztem a kutyámat...,pratelynek,pratelynak,dzsungel,NA,NA,PR2086,2001,nő,nem,2022-04-19_22h50.48.532,hesp_baseline,2021.2.3,Win32,59.97720866
,,,,,,,,,,,,,,,,,tomlom,tomlok,right,2.6424,0,19,19,86,1,87,tomlik,tomlasz,NA,NA,Te bizony sokat tomlasz.,Én is sokat...,tomlok,tomlom,lakik,-lik,1,PR2086,2001,nő,nem,2022-04-19_22h50.48.532,hesp_baseline,2021.2.3,Win32,59.97720866
,,,,,,,,,,,,,,,,,spátennak,spátennek,right,4.1731,0,20,20,33,1,88,spáten,spáten,nak,e,Ez itt egy spáten.,Elneveztem a kutyámat...,spátennek,spátennak,dzsungel,NA,NA,PR2086,2001,nő,nem,2022-04-19_22h50.48.532,hesp_baseline,2021.2.3,Win32,59.97720866
,,,,,,,,,,,,,,,,,posoztok,poslotok,left,4.9392,0,21,21,121,1,68,poslik / posozik,"poslik, posozni",tek,NA,"János imád posozni, ezért sokat poslik.",Ti ritkán...,poslotok,posoztok,cselekszik,-lik,1,PR2086,2001,nő,nem,2022-04-19_22h50.48.532,hesp_baseline,2021.2.3,Win32,59.97720866
,,,,,,,,,,,,,,,,,fivénylek,fivénylem,left,3.2012,0,22,22,78,1,79,fivénylik,fivénylesz,NA,NA,Te bizony sokat fivénylesz.,Én is sokat...,fivénylek,fivénylem,lakik,-lik,2,PR2086,2001,nő,nem,2022-04-19_22h50.48.532,hesp_baseline,2021.2.3,Win32,59.97720866
,,,,,,,,,,,,,,,,,lihadzom,lihadzok,right,3.1272,0,23,23,101,1,102,lihadzik,lihadzol,NA,NA,Te bizony sokat lihadzol.,Én is sokat...,lihadzok,lihadzom,lakik,-zik,2,PR2086,2001,nő,nem,2022-04-19_22h50.48.532,hesp_baseline,2021.2.3,Win32,59.97720866
,,,,,,,,,,,,,,,,,fojlegynak,fojlegynek,right,2.8927,0,24,24,3,1,58,fojlegy,fojlegy,nak,e,Ez itt egy fojlegy.,Elneveztem a kutyámat...,fojlegynek,fojlegynak,dzsungel,NA,NA,PR2086,2001,nő,nem,2022-04-19_22h50.48.532,hesp_baseline,2021.2.3,Win32,59.97720866
,,,,,,,,,,,,,,,,,sprűröznek,sprűrlenek,left,4.0947,0,25,25,135,1,82,sprűrlik / sprűrözik,"sprűrlik, sprűrözni",nek,NA,"János imád sprűrözni, ezért sokat sprűrlik.",Ők ritkán...,sprűrlenek,sprűröznek,cselekszik,-lik,1,PR2086,2001,nő,nem,2022-04-19_22h50.48.532,hesp_baseline,2021.2.3,Win32,59.97720866
,,,,,,,,,,,,,,,,,molodtok,molszotok,right,4.5055,0,26,26,142,1,89,molszik / molodik,"molszik, molodni",tek,NA,"János imád molodni, ezért sokat molszik.",Ti ritkán...,molszotok,molodtok,cselekszik,-szik,1,PR2086,2001,nő,nem,2022-04-19_22h50.48.532,hesp_baseline,2021.2.3,Win32,59.97720866
,,,,,,,,,,,,,,,,,garcépnál,garcépnél,left,17.804,0,27,27,38,1,93,garcép,garcép,nál,é,Ez itt egy garcép.,Nincs is jobb egy jó...,garcépnél,garcépnál,dzsungel,NA,NA,PR2086,2001,nő,nem,2022-04-19_22h50.48.532,hesp_baseline,2021.2.3,Win32,59.97720866
,,,,,,,,,,,,,,,,,játlunk,játozunk,left,5.1664,0,28,28,145,1,92,játlik / játozik,"játlik, játozni",ünk,NA,"János imád játozni, ezért sokat játlik.",Mi ritkán...,játlunk,játozunk,cselekszik,-lik,1,PR2086,2001,nő,nem,2022-04-19_22h50.48.532,hesp_baseline,2021.2.3,Win32,59.97720866
,,,,,,,,,,,,,,,,,spüjzöm,spüjzök,right,4.7158,0,29,29,59,1,60,spüjzik,spüjzöl,NA,NA,Te bizony sokat spüjzöl.,Én is sokat...,spüjzök,spüjzöm,lakik,-zik,1,PR2086,2001,nő,nem,2022-04-19_22h50.48.532,hesp_baseline,2021.2.3,Win32,59.97720866
,,,,,,,,,,,,,,,,,zarcégnél,zarcégnál,left,0.4439,0,30,30,29,1,84,zarcég,zarcég,nál,é,Ez itt egy zarcég.,Nincs is jobb egy jó...,zarcégnél,zarcégnál,dzsungel,NA,NA,PR2086,2001,nő,nem,2022-04-19_22h50.48.532,hesp_baseline,2021.2.3,Win32,59.97720866
,,,,,,,,,,,,,,,,,rapszeknél,rapszeknál,right,0.2649,0,31,31,35,1,90,rapszek,rapszek,nál,e,Ez itt egy rapszek.,Nincs is jobb egy jó...,rapszeknél,rapszeknál,dzsungel,NA,NA,PR2086,2001,nő,nem,2022-04-19_22h50.48.532,hesp_baseline,2021.2.3,Win32,59.97720866
,,,,,,,,,,,,,,,,,gyihegeztek,gyihegzetek,left,0.2873,0,32,32,124,1,71,gyihegzik / gyihegezik,"gyihegzik, gyihegezni",tek,NA,"János imád gyihegezni, ezért sokat gyihegzik.",Ti ritkán...,gyihegzetek,gyihegeztek,cselekszik,-zik,2,PR2086,2001,nő,nem,2022-04-19_22h50.48.532,hesp_baseline,2021.2.3,Win32,59.97720866
,,,,,,,,,,,,,,,,,brágaklok,brágaklom,right,0.3954,0,33,33,71,1,72,brágaklik,brágaklasz,NA,NA,Te bizony sokat brágaklasz.,Én is sokat...,brágaklok,brágaklom,lakik,-lik,2,PR2086,2001,nő,nem,2022-04-19_22h50.48.532,hesp_baseline,2021.2.3,Win32,59.97720866
,,,,,,,,,,,,,,,,,bribékszetek,bribékedtek,left,0.6144,0,34,34,141,1,88,bribékszik / bribékedik,"bribékszik, bribékedni",tek,NA,"János imád bribékedni, ezért sokat bribékszik.",Ti ritkán...,bribékszetek,bribékedtek,cselekszik,-szik,2,PR2086,2001,nő,nem,2022-04-19_22h50.48.532,hesp_baseline,2021.2.3,Win32,59.97720866
,,,,,,,,,,,,,,,,,zihencnek,zihencnak,right,0.4359,0,35,35,52,1,107,zihenc,zihenc,nak,e,Ez itt egy zihenc.,Elneveztem a kutyámat...,zihencnek,zihencnak,dzsungel,NA,NA,PR2086,2001,nő,nem,2022-04-19_22h50.48.532,hesp_baseline,2021.2.3,Win32,59.97720866
,,,,,,,,,,,,,,,,,sprebzenek,sprebeznek,left,0.2811,0,36,36,139,1,86,sprebzik / sprebezik,"sprebzik, sprebezni",nek,NA,"János imád sprebezni, ezért sokat sprebzik.",Ők ritkán...,sprebzenek,sprebeznek,cselekszik,-zik,1,PR2086,2001,nő,nem,2022-04-19_22h50.48.532,hesp_baseline,2021.2.3,Win32,59.97720866
,,,,,,,,,,,,,,,,,jábézban,jábézben,right,0.3497,0,37,37,34,1,89,jábéz,jábéz,ban,é,Ez itt egy jábéz.,Ott vagyunk a...,jábézben,jábézban,dzsungel,NA,NA,PR2086,2001,nő,nem,2022-04-19_22h50.48.532,hesp_baseline,2021.2.3,Win32,59.97720866
,,,,,,,,,,,,,,,,,zsigénnél,zsigénnál,right,0.2799,0,38,38,12,1,67,zsigén,zsigén,nál,é,Ez itt egy zsigén.,Nincs is jobb egy jó...,zsigénnél,zsigénnál,dzsungel,NA,NA,PR2086,2001,nő,nem,2022-04-19_22h50.48.532,hesp_baseline,2021.2.3,Win32,59.97720866
,,,,,,,,,,,,,,,,,prohódzok,prohódzom,right,0.3617,0,39,39,66,1,67,prohódzik,prohódzol,NA,NA,Te bizony sokat prohódzol.,Én is sokat...,prohódzok,prohódzom,lakik,-zik,2,PR2086,2001,nő,nem,2022-04-19_22h50.48.532,hesp_baseline,2021.2.3,Win32,59.97720866
,,,,,,,,,,,,,,,,,frésezünk,fréslünk,left,0.3603,0,40,40,138,1,85,fréslik / frésezik,"fréslik, frésezni",ünk,NA,"János imád frésezni, ezért sokat fréslik.",Mi ritkán...,fréslünk,frésezünk,cselekszik,-lik,1,PR2086,2001,nő,nem,2022-04-19_22h50.48.532,hesp_baseline,2021.2.3,Win32,59.97720866
,,,,,,,,,,,,,,,,,prihegednek,prihegszenek,left,0.2666,0,41,41,155,1,102,prihegszik / prihegedik,"prihegszik, prihegedni",nek,NA,"János imád prihegedni, ezért sokat prihegszik.",Ők ritkán...,prihegszenek,prihegednek,cselekszik,-szik,2,PR2086,2001,nő,nem,2022-04-19_22h50.48.532,hesp_baseline,2021.2.3,Win32,59.97720866
,,,,,,,,,,,,,,,,,flagánylok,flagánylom,left,0.2935,0,42,42,82,1,83,flagánylik,flagánylasz,NA,NA,Te bizony sokat flagánylasz.,Én is sokat...,flagánylok,flagánylom,lakik,-lik,2,PR2086,2001,nő,nem,2022-04-19_22h50.48.532,hesp_baseline,2021.2.3,Win32,59.97720866
,,,,,,,,,,,,,,,,,gilárzok,gilárzom,right,0.4221,0,43,43,94,1,95,gilárzik,gilárzol,NA,NA,Te bizony sokat gilárzol.,Én is sokat...,gilárzok,gilárzom,lakik,-zik,2,PR2086,2001,nő,nem,2022-04-19_22h50.48.532,hesp_baseline,2021.2.3,Win32,59.97720866
,,,,,,,,,,,,,,,,,dingecnek,dingecnak,right,0.3389,0,44,44,42,1,97,dingec,dingec,nak,e,Ez itt egy dingec.,Elneveztem a kutyámat...,dingecnek,dingecnak,dzsungel,NA,NA,PR2086,2001,nő,nem,2022-04-19_22h50.48.532,hesp_baseline,2021.2.3,Win32,59.97720866
,,,,,,,,,,,,,,,,,klajrénnak,klajrénnek,left,0.2824,0,45,45,41,1,96,klajrén,klajrén,nak,é,Ez itt egy klajrén.,Elneveztem a kutyámat...,klajrénnek,klajrénnak,dzsungel,NA,NA,PR2086,2001,nő,nem,2022-04-19_22h50.48.532,hesp_baseline,2021.2.3,Win32,59.97720866
,,,,,,,,,,,,,,,,,sporzemnak,sporzemnek,right,0.338,0,46,46,26,1,81,sporzem,sporzem,nak,e,Ez itt egy sporzem.,Elneveztem a kutyámat...,sporzemnek,sporzemnak,dzsungel,NA,NA,PR2086,2001,nő,nem,2022-04-19_22h50.48.532,hesp_baseline,2021.2.3,Win32,59.97720866
,,,,,,,,,,,,,,,,,flubokoztok,fluboklotok,left,0.2802,0,47,47,151,1,98,fluboklik / flubokozik,"fluboklik, flubokozni",tek,NA,"János imád flubokozni, ezért sokat fluboklik.",Ti ritkán...,fluboklotok,flubokoztok,cselekszik,-lik,2,PR2086,2001,nő,nem,2022-04-19_22h50.48.532,hesp_baseline,2021.2.3,Win32,59.97720866
,,,,,,,,,,,,,,,,,sortemnél,sortemnál,left,0.2656,0,48,48,15,1,70,sortem,sortem,nál,e,Ez itt egy sortem.,Nincs is jobb egy jó...,sortemnél,sortemnál,dzsungel,NA,NA,PR2086,2001,nő,nem,2022-04-19_22h50.48.532,hesp_baseline,2021.2.3,Win32,59.97720866
,,,,,,,,,,,,,,,,,figlok,figlom,left,0.2783,0,49,49,75,1,76,figlik,figlasz,NA,NA,Te bizony sokat figlasz.,Én is sokat...,figlok,figlom,lakik,-lik,1,PR2086,2001,nő,nem,2022-04-19_22h50.48.532,hesp_baseline,2021.2.3,Win32,59.97720866
,,,,,,,,,,,,,,,,,pítendben,pítendban,right,0.3044,0,50,50,18,1,73,pítend,pítend,ban,e,Ez itt egy pítend.,Ott vagyunk a...,pítendben,pítendban,dzsungel,NA,NA,PR2086,2001,nő,nem,2022-04-19_22h50.48.532,hesp_baseline,2021.2.3,Win32,59.97720866
,,,,,,,,,,,,,,,,,forzédnak,forzédnek,right,0.2619,0,51,51,46,1,101,forzéd,forzéd,nak,é,Ez itt egy forzéd.,Elneveztem a kutyámat...,forzédnek,forzédnak,dzsungel,NA,NA,PR2086,2001,nő,nem,2022-04-19_22h50.48.532,hesp_baseline,2021.2.3,Win32,59.97720866
,,,,,,,,,,,,,,,,,hákszanak,hákodnak,left,0.3849,0,52,52,150,1,97,hákszik / hákodik,"hákszik, hákodni",nek,NA,"János imád hákodni, ezért sokat hákszik.",Ők ritkán...,hákszanak,hákodnak,cselekszik,-szik,1,PR2086,2001,nő,nem,2022-04-19_22h50.48.532,hesp_baseline,2021.2.3,Win32,59.97720866
,,,,,,,,,,,,,,,,,nuroklunk,nurokozunk,right,0.3256,0,53,53,131,1,78,nuroklik / nurokozik,"nuroklik, nurokozni",ünk,NA,"János imád nurokozni, ezért sokat nuroklik.",Mi ritkán...,nuroklunk,nurokozunk,cselekszik,-lik,2,PR2086,2001,nő,nem,2022-04-19_22h50.48.532,hesp_baseline,2021.2.3,Win32,59.97720866
,,,,,,,,,,,,,,,,,friszlom,friszlok,left,0.3746,0,54,54,97,1,98,friszlik,friszlasz,NA,NA,Te bizony sokat friszlasz.,Én is sokat...,friszlok,friszlom,lakik,-lik,1,PR2086,2001,nő,nem,2022-04-19_22h50.48.532,hesp_baseline,2021.2.3,Win32,59.97720866
,,,,,,,,,,,,,,,,,ruslom,ruslok,right,0.262,0,55,55,83,1,84,ruslik,ruslasz,NA,NA,Te bizony sokat ruslasz.,Én is sokat...,ruslok,ruslom,lakik,-lik,1,PR2086,2001,nő,nem,2022-04-19_22h50.48.532,hesp_baseline,2021.2.3,Win32,59.97720866
,,,,,,,,,,,,,,,,,branyoznak,branylanak,left,0.2852,0,56,56,136,1,83,branylik / branyozik,"branylik, branyozni",nek,NA,"János imád branyozni, ezért sokat branylik.",Ők ritkán...,branylanak,branyoznak,cselekszik,-lik,1,PR2086,2001,nő,nem,2022-04-19_22h50.48.532,hesp_baseline,2021.2.3,Win32,59.97720866
,,,,,,,,,,,,,,,,,fligzok,fligzom,right,0.3065,0,57,57,103,1,104,fligzik,fligzol,NA,NA,Te bizony sokat fligzol.,Én is sokat...,fligzok,fligzom,lakik,-zik,1,PR2086,2001,nő,nem,2022-04-19_22h50.48.532,hesp_baseline,2021.2.3,Win32,59.97720866
,,,,,,,,,,,,,,,,,floglom,floglok,right,0.1268,0,58,58,92,1,93,floglik,floglasz,NA,NA,Te bizony sokat floglasz.,Én is sokat...,floglok,floglom,lakik,-lik,1,PR2086,2001,nő,nem,2022-04-19_22h50.48.532,hesp_baseline,2021.2.3,Win32,59.97720866
,,,,,,,,,,,,,,,,,kluhéjnál,kluhéjnél,left,0.1926,0,59,59,24,1,79,kluhéj,kluhéj,nál,é,Ez itt egy kluhéj.,Nincs is jobb egy jó...,kluhéjnél,kluhéjnál,dzsungel,NA,NA,PR2086,2001,nő,nem,2022-04-19_22h50.48.532,hesp_baseline,2021.2.3,Win32,59.97720866
,,,,,,,,,,,,,,,,,gihamoznak,gihamlanak,left,0.088,0,60,60,133,1,80,gihamlik / gihamozik,"gihamlik, gihamozni",nek,NA,"János imád gihamozni, ezért sokat gihamlik.",Ők ritkán...,gihamlanak,gihamoznak,cselekszik,-lik,2,PR2086,2001,nő,nem,2022-04-19_22h50.48.532,hesp_baseline,2021.2.3,Win32,59.97720866
,,,,,,,,,,,,,,,,,frivamlunk,frivamozunk,right,0.1997,0,61,61,122,1,69,frivamlik / frivamozik,"frivamlik, frivamozni",ünk,NA,"János imád frivamozni, ezért sokat frivamlik.",Mi ritkán...,frivamlunk,frivamozunk,cselekszik,-lik,2,PR2086,2001,nő,nem,2022-04-19_22h50.48.532,hesp_baseline,2021.2.3,Win32,59.97720866
,,,,,,,,,,,,,,,,,nyametben,nyametban,right,0.0606,0,62,62,17,1,72,nyamet,nyamet,ban,e,Ez itt egy nyamet.,Ott vagyunk a...,nyametben,nyametban,dzsungel,NA,NA,PR2086,2001,nő,nem,2022-04-19_22h50.48.532,hesp_baseline,2021.2.3,Win32,59.97720866
,,,,,,,,,,,,,,,,,flürököztök,flüröklötök,left,0.0208,0,63,63,149,1,96,flüröklik / flüröközik,"flüröklik, flüröközni",tek,NA,"János imád flüröközni, ezért sokat flüröklik.",Ti ritkán...,flüröklötök,flürököztök,cselekszik,-lik,2,PR2086,2001,nő,nem,2022-04-19_22h50.48.532,hesp_baseline,2021.2.3,Win32,59.97720866
,,,,,,,,,,,,,,,,,spubonylom,spubonylok,left,0.0473,0,64,64,104,1,105,spubonylik,spubonylasz,NA,NA,Te bizony sokat spubonylasz.,Én is sokat...,spubonylok,spubonylom,lakik,-lik,2,PR2086,2001,nő,nem,2022-04-19_22h50.48.532,hesp_baseline,2021.2.3,Win32,59.97720866
,,,,,,,,,,,,,,,,,spöközünk,spöklünk,right,0.0004,0,65,65,130,1,77,spöklik / spöközik,"spöklik, spöközni",ünk,NA,"János imád spöközni, ezért sokat spöklik.",Mi ritkán...,spöklünk,spöközünk,cselekszik,-lik,1,PR2086,2001,nő,nem,2022-04-19_22h50.48.532,hesp_baseline,2021.2.3,Win32,59.97720866
,,,,,,,,,,,,,,,,,flézletek,flézeztek,right,0.0894,0,66,66,134,1,81,flézlik / flézezik,"flézlik, flézezni",tek,NA,"János imád flézezni, ezért sokat flézlik.",Ti ritkán...,flézletek,flézeztek,cselekszik,-lik,1,PR2086,2001,nő,nem,2022-04-19_22h50.48.532,hesp_baseline,2021.2.3,Win32,59.97720866
,,,,,,,,,,,,,,,,,klingeszban,klingeszben,left,0.5007,0,67,67,1,1,56,klingesz,klingesz,ban,e,Ez itt egy klingesz.,Ott vagyunk a...,klingeszben,klingeszban,dzsungel,NA,NA,PR2086,2001,nő,nem,2022-04-19_22h50.48.532,hesp_baseline,2021.2.3,Win32,59.97720866
,,,,,,,,,,,,,,,,,frálasoznak,frálaslanak,right,22.3263,0,68,68,110,1,57,frálaslik / frálasozik,"frálaslik, frálasozni",nek,NA,"János imád frálasozni, ezért sokat frálaslik.",Ők ritkán...,frálaslanak,frálasoznak,cselekszik,-lik,2,PR2086,2001,nő,nem,2022-04-19_22h50.48.532,hesp_baseline,2021.2.3,Win32,59.97720866
,,,,,,,,,,,,,,,,,flűgzünk,flűgözünk,left,0.4067,0,69,69,160,1,107,flűgzik / flűgözik,"flűgzik, flűgözni",ünk,NA,"János imád flűgözni, ezért sokat flűgzik.",Mi ritkán...,flűgzünk,flűgözünk,cselekszik,-zik,1,PR2086,2001,nő,nem,2022-04-19_22h50.48.532,hesp_baseline,2021.2.3,Win32,59.97720866
,,,,,,,,,,,,,,,,,tosélyben,tosélyban,right,0.3073,0,70,70,25,1,80,tosély,tosély,ban,é,Ez itt egy tosély.,Ott vagyunk a...,tosélyben,tosélyban,dzsungel,NA,NA,PR2086,2001,nő,nem,2022-04-19_22h50.48.532,hesp_baseline,2021.2.3,Win32,59.97720866
,,,,,,,,,,,,,,,,,jóbecnak,jóbecnek,left,0.1976,0,71,71,11,1,66,jóbec,jóbec,nak,e,Ez itt egy jóbec.,Elneveztem a kutyámat...,jóbecnek,jóbecnak,dzsungel,NA,NA,PR2086,2001,nő,nem,2022-04-19_22h50.48.532,hesp_baseline,2021.2.3,Win32,59.97720866
,,,,,,,,,,,,,,,,,tiregzek,tiregzem,left,0.1765,0,72,72,64,1,65,tiregzik,tiregzel,NA,NA,Te bizony sokat tiregzel.,Én is sokat...,tiregzek,tiregzem,lakik,-zik,2,PR2086,2001,nő,nem,2022-04-19_22h50.48.532,hesp_baseline,2021.2.3,Win32,59.97720866
,,,,,,,,,,,,,,,,,spatárzok,spatárzom,right,0.6174,0,73,73,69,1,70,spatárzik,spatárzol,NA,NA,Te bizony sokat spatárzol.,Én is sokat...,spatárzok,spatárzom,lakik,-zik,2,PR2086,2001,nő,nem,2022-04-19_22h50.48.532,hesp_baseline,2021.2.3,Win32,59.97720866
,,,,,,,,,,,,,,,,,csintékban,csintékben,right,0.3171,0,74,74,23,1,78,csinték,csinték,ban,é,Ez itt egy csinték.,Ott vagyunk a...,csintékben,csintékban,dzsungel,NA,NA,PR2086,2001,nő,nem,2022-04-19_22h50.48.532,hesp_baseline,2021.2.3,Win32,59.97720866
,,,,,,,,,,,,,,,,,nyürzenek,nyüröznek,left,0.1058,0,75,75,123,1,70,nyürzik / nyürözik,"nyürzik, nyürözni",nek,NA,"János imád nyürözni, ezért sokat nyürzik.",Ők ritkán...,nyürzenek,nyüröznek,cselekszik,-zik,1,PR2086,2001,nő,nem,2022-04-19_22h50.48.532,hesp_baseline,2021.2.3,Win32,59.97720866
,,,,,,,,,,,,,,,,,fröjözünk,fröjlünk,left,0.2541,0,76,76,117,1,64,fröjlik / fröjözik,"fröjlik, fröjözni",ünk,NA,"János imád fröjözni, ezért sokat fröjlik.",Mi ritkán...,fröjlünk,fröjözünk,cselekszik,-lik,1,PR2086,2001,nő,nem,2022-04-19_22h50.48.532,hesp_baseline,2021.2.3,Win32,59.97720866
,,,,,,,,,,,,,,,,,trírozunk,trírzunk,right,0.6035,0,77,77,116,1,63,trírzik / trírozik,"trírzik, trírozni",ünk,NA,"János imád trírozni, ezért sokat trírzik.",Mi ritkán...,trírzunk,trírozunk,cselekszik,-zik,1,PR2086,2001,nő,nem,2022-04-19_22h50.48.532,hesp_baseline,2021.2.3,Win32,59.97720866
,,,,,,,,,,,,,,,,,dineltban,dineltben,right,0.4132,0,78,78,0,1,55,dinelt,dinelt,ban,e,Ez itt egy dinelt.,Ott vagyunk a...,dineltben,dineltban,dzsungel,NA,NA,PR2086,2001,nő,nem,2022-04-19_22h50.48.532,hesp_baseline,2021.2.3,Win32,59.97720866
,,,,,,,,,,,,,,,,,femlek,femlem,right,0.3578,0,79,79,57,1,58,femlik,femlesz,NA,NA,Te bizony sokat femlesz.,Én is sokat...,femlek,femlem,lakik,-lik,1,PR2086,2001,nő,nem,2022-04-19_22h50.48.532,hesp_baseline,2021.2.3,Win32,59.97720866
,,,,,,,,,,,,,,,,,flátszom,flátszok,right,0.359,0,80,80,98,1,99,flátszik,flátszol,NA,NA,Te bizony sokat flátszol.,Én is sokat...,flátszok,flátszom,lakik,-szik,1,PR2086,2001,nő,nem,2022-04-19_22h50.48.532,hesp_baseline,2021.2.3,Win32,59.97720866
,,,,,,,,,,,,,,,,,plugzok,plugzom,right,0.3217,0,81,81,60,1,61,plugzik,plugzol,NA,NA,Te bizony sokat plugzol.,Én is sokat...,plugzok,plugzom,lakik,-zik,1,PR2086,2001,nő,nem,2022-04-19_22h50.48.532,hesp_baseline,2021.2.3,Win32,59.97720866
,,,,,,,,,,,,,,,,,metégszenek,metégednek,right,0.2287,0,82,82,112,1,59,metégszik / metégedik,"metégszik, metégedni",nek,NA,"János imád metégedni, ezért sokat metégszik.",Ők ritkán...,metégszenek,metégednek,cselekszik,-szik,2,PR2086,2001,nő,nem,2022-04-19_22h50.48.532,hesp_baseline,2021.2.3,Win32,59.97720866
,,,,,,,,,,,,,,,,,zutennél,zutennál,right,0.3713,0,83,83,43,1,98,zuten,zuten,nál,e,Ez itt egy zuten.,Nincs is jobb egy jó...,zutennél,zutennál,dzsungel,NA,NA,PR2086,2001,nő,nem,2022-04-19_22h50.48.532,hesp_baseline,2021.2.3,Win32,59.97720866
,,,,,,,,,,,,,,,,,prazlunk,prazozunk,left,0.2861,0,84,84,119,1,66,prazlik / prazozik,"prazlik, prazozni",ünk,NA,"János imád prazozni, ezért sokat prazlik.",Mi ritkán...,prazlunk,prazozunk,cselekszik,-lik,1,PR2086,2001,nő,nem,2022-04-19_22h50.48.532,hesp_baseline,2021.2.3,Win32,59.97720866
,,,,,,,,,,,,,,,,,gihesztnek,gihesztnak,left,0.3128,0,85,85,36,1,91,giheszt,giheszt,nak,e,Ez itt egy giheszt.,Elneveztem a kutyámat...,gihesztnek,gihesztnak,dzsungel,NA,NA,PR2086,2001,nő,nem,2022-04-19_22h50.48.532,hesp_baseline,2021.2.3,Win32,59.97720866
,,,,,,,,,,,,,,,,,flerékszünk,flerékedünk,right,0.2997,0,86,86,159,1,106,flerékszik / flerékedik,"flerékszik, flerékedni",ünk,NA,"János imád flerékedni, ezért sokat flerékszik.",Mi ritkán...,flerékszünk,flerékedünk,cselekszik,-szik,2,PR2086,2001,nő,nem,2022-04-19_22h50.48.532,hesp_baseline,2021.2.3,Win32,59.97720866
,,,,,,,,,,,,,,,,,dibáglotok,dibágoztok,left,0.2772,0,87,87,154,1,101,dibáglik / dibágozik,"dibáglik, dibágozni",tek,NA,"János imád dibágozni, ezért sokat dibáglik.",Ti ritkán...,dibáglotok,dibágoztok,cselekszik,-lik,2,PR2086,2001,nő,nem,2022-04-19_22h50.48.532,hesp_baseline,2021.2.3,Win32,59.97720866
,,,,,,,,,,,,,,,,,mihágzotok,mihágoztok,right,0.1623,0,88,88,118,1,65,mihágzik / mihágozik,"mihágzik, mihágozni",tek,NA,"János imád mihágozni, ezért sokat mihágzik.",Ti ritkán...,mihágzotok,mihágoztok,cselekszik,-zik,2,PR2086,2001,nő,nem,2022-04-19_22h50.48.532,hesp_baseline,2021.2.3,Win32,59.97720866
,,,,,,,,,,,,,,,,,dihelynek,dihelynak,left,0.2133,0,89,89,20,1,75,dihely,dihely,nak,e,Ez itt egy dihely.,Elneveztem a kutyámat...,dihelynek,dihelynak,dzsungel,NA,NA,PR2086,2001,nő,nem,2022-04-19_22h50.48.532,hesp_baseline,2021.2.3,Win32,59.97720866
,,,,,,,,,,,,,,,,,cságyeltban,cságyeltben,right,0.1968,0,90,90,10,1,65,cságyelt,cságyelt,ban,e,Ez itt egy cságyelt.,Ott vagyunk a...,cságyeltben,cságyeltban,dzsungel,NA,NA,PR2086,2001,nő,nem,2022-04-19_22h50.48.532,hesp_baseline,2021.2.3,Win32,59.97720866
,,,,,,,,,,,,,,,,,pribemlem,pribemlek,left,0.1415,0,91,91,107,1,108,pribemlik,pribemlesz,NA,NA,Te bizony sokat pribemlesz.,Én is sokat...,pribemlek,pribemlem,lakik,-lik,2,PR2086,2001,nő,nem,2022-04-19_22h50.48.532,hesp_baseline,2021.2.3,Win32,59.97720866
,,,,,,,,,,,,,,,,,bivégszek,bivégszem,left,0.0154,0,92,92,68,1,69,bivégszik,bivégszel,NA,NA,Te bizony sokat bivégszel.,Én is sokat...,bivégszek,bivégszem,lakik,-szik,2,PR2086,2001,nő,nem,2022-04-19_22h50.48.532,hesp_baseline,2021.2.3,Win32,59.97720866
,,,,,,,,,,,,,,,,,navecben,navecban,right,0.3803,0,93,93,8,1,63,navec,navec,ban,e,Ez itt egy navec.,Ott vagyunk a...,navecben,navecban,dzsungel,NA,NA,PR2086,2001,nő,nem,2022-04-19_22h50.48.532,hesp_baseline,2021.2.3,Win32,59.97720866
,,,,,,,,,,,,,,,,,csimennál,csimennél,left,0.2465,0,94,94,44,1,99,csimen,csimen,nál,e,Ez itt egy csimen.,Nincs is jobb egy jó...,csimennél,csimennál,dzsungel,NA,NA,PR2086,2001,nő,nem,2022-04-19_22h50.48.532,hesp_baseline,2021.2.3,Win32,59.97720866
,,,,,,,,,,,,,,,,,flehékszem,flehékszek,right,0.2057,0,95,95,77,1,78,flehékszik,flehékszel,NA,NA,Te bizony sokat flehékszel.,Én is sokat...,flehékszek,flehékszem,lakik,-szik,2,PR2086,2001,nő,nem,2022-04-19_22h50.48.532,hesp_baseline,2021.2.3,Win32,59.97720866
,,,,,,,,,,,,,,,,,klítegynál,klítegynél,left,0.1979,0,96,96,5,1,60,klítegy,klítegy,nál,e,Ez itt egy klítegy.,Nincs is jobb egy jó...,klítegynél,klítegynál,dzsungel,NA,NA,PR2086,2001,nő,nem,2022-04-19_22h50.48.532,hesp_baseline,2021.2.3,Win32,59.97720866
,,,,,,,,,,,,,,,,,ronvetnek,ronvetnak,left,0.3947,0,97,97,9,1,64,ronvet,ronvet,nak,e,Ez itt egy ronvet.,Elneveztem a kutyámat...,ronvetnek,ronvetnak,dzsungel,NA,NA,PR2086,2001,nő,nem,2022-04-19_22h50.48.532,hesp_baseline,2021.2.3,Win32,59.97720866
,,,,,,,,,,,,,,,,,flibekszek,flibekszem,right,0.6225,0,98,98,93,1,94,flibekszik,flibekszel,NA,NA,Te bizony sokat flibekszel.,Én is sokat...,flibekszek,flibekszem,lakik,-szik,2,PR2086,2001,nő,nem,2022-04-19_22h50.48.532,hesp_baseline,2021.2.3,Win32,59.97720866
,,,,,,,,,,,,,,,,,klehényeztek,klehényletek,right,2.4974,0,99,99,113,1,60,klehénylik / klehényezik,"klehénylik, klehényezni",tek,NA,"János imád klehényezni, ezért sokat klehénylik.",Ti ritkán...,klehényletek,klehényeztek,cselekszik,-lik,2,PR2086,2001,nő,nem,2022-04-19_22h50.48.532,hesp_baseline,2021.2.3,Win32,59.97720866
,,,,,,,,,,,,,,,,,driládzok,driládzom,right,0.3403,0,100,100,67,1,68,driládzik,driládzol,NA,NA,Te bizony sokat driládzol.,Én is sokat...,driládzok,driládzom,lakik,-zik,2,PR2086,2001,nő,nem,2022-04-19_22h50.48.532,hesp_baseline,2021.2.3,Win32,59.97720866
,,,,,,,,,,,,,,,,,fájézban,fájézben,right,0.3242,0,101,101,7,1,62,fájéz,fájéz,ban,é,Ez itt egy fájéz.,Ott vagyunk a...,fájézben,fájézban,dzsungel,NA,NA,PR2086,2001,nő,nem,2022-04-19_22h50.48.532,hesp_baseline,2021.2.3,Win32,59.97720866
,,,,,,,,,,,,,,,,,dabzotok,daboztok,left,0.2666,0,102,102,109,1,56,dabzik / dabozik,"dabzik, dabozni",tek,NA,"János imád dabozni, ezért sokat dabzik.",Ti ritkán...,dabzotok,daboztok,cselekszik,-zik,1,PR2086,2001,nő,nem,2022-04-19_22h50.48.532,hesp_baseline,2021.2.3,Win32,59.97720866
,,,,,,,,,,,,,,,,,ribegzem,ribegzek,right,0.2795,0,103,103,63,1,64,ribegzik,ribegzel,NA,NA,Te bizony sokat ribegzel.,Én is sokat...,ribegzek,ribegzem,lakik,-zik,2,PR2086,2001,nő,nem,2022-04-19_22h50.48.532,hesp_baseline,2021.2.3,Win32,59.97720866
,,,,,,,,,,,,,,,,,lírlanak,líroznak,left,0.2435,0,104,104,115,1,62,lírlik / lírozik,"lírlik, lírozni",nek,NA,"János imád lírozni, ezért sokat lírlik.",Ők ritkán...,lírlanak,líroznak,cselekszik,-lik,1,PR2086,2001,nő,nem,2022-04-19_22h50.48.532,hesp_baseline,2021.2.3,Win32,59.97720866
,,,,,,,,,,,,,,,,,flűmlöm,flűmlök,right,0.3804,0,105,105,54,1,55,flűmlik,flűmlesz,NA,NA,Te bizony sokat flűmlesz.,Én is sokat...,flűmlök,flűmlöm,lakik,-lik,1,PR2086,2001,nő,nem,2022-04-19_22h50.48.532,hesp_baseline,2021.2.3,Win32,59.97720866
,,,,,,,,,,,,,,,,,flitlok,flitlom,left,0.2787,0,106,106,90,1,91,flitlik,flitlasz,NA,NA,Te bizony sokat flitlasz.,Én is sokat...,flitlok,flitlom,lakik,-lik,1,PR2086,2001,nő,nem,2022-04-19_22h50.48.532,hesp_baseline,2021.2.3,Win32,59.97720866
,,,,,,,,,,,,,,,,,tribejeztek,tribejletek,right,0.3361,0,107,107,132,1,79,tribejlik / tribejezik,"tribejlik, tribejezni",tek,NA,"János imád tribejezni, ezért sokat tribejlik.",Ti ritkán...,tribejletek,tribejeztek,cselekszik,-lik,2,PR2086,2001,nő,nem,2022-04-19_22h50.48.532,hesp_baseline,2021.2.3,Win32,59.97720866
,,,,,,,,,,,,,,,,,csubzunk,csubozunk,left,0.2834,0,108,108,111,1,58,csubzik / csubozik,"csubzik, csubozni",ünk,NA,"János imád csubozni, ezért sokat csubzik.",Mi ritkán...,csubzunk,csubozunk,cselekszik,-zik,1,PR2086,2001,nő,nem,2022-04-19_22h50.48.532,hesp_baseline,2021.2.3,Win32,59.97720866
,,,,,,,,,,,,,,,,,spivélnek,spivélnak,right,0.2462,0,109,109,27,1,82,spivél,spivél,nak,é,Ez itt egy spivél.,Elneveztem a kutyámat...,spivélnek,spivélnak,dzsungel,NA,NA,PR2086,2001,nő,nem,2022-04-19_22h50.48.532,hesp_baseline,2021.2.3,Win32,59.97720866
,,,,,,,,,,,,,,,,,spáraklok,spáraklom,left,0.253,0,110,110,96,1,97,spáraklik,spáraklasz,NA,NA,Te bizony sokat spáraklasz.,Én is sokat...,spáraklok,spáraklom,lakik,-lik,2,PR2086,2001,nő,nem,2022-04-19_22h50.48.532,hesp_baseline,2021.2.3,Win32,59.97720866
,,,,,,,,,,,,,,,,,nidétban,nidétben,right,0.1877,0,111,111,39,1,94,nidét,nidét,ban,é,Ez itt egy nidét.,Ott vagyunk a...,nidétben,nidétban,dzsungel,NA,NA,PR2086,2001,nő,nem,2022-04-19_22h50.48.532,hesp_baseline,2021.2.3,Win32,59.97720866
,,,,,,,,,,,,,,,,,gúdenben,gúdenban,left,0.2697,0,112,112,4,1,59,gúden,gúden,ban,e,Ez itt egy gúden.,Ott vagyunk a...,gúdenben,gúdenban,dzsungel,NA,NA,PR2086,2001,nő,nem,2022-04-19_22h50.48.532,hesp_baseline,2021.2.3,Win32,59.97720866
,,,,,,,,,,,,,,,,,prilepedünk,prilepszünk,right,0.2073,0,113,113,161,1,108,prilepszik / prilepedik,"prilepszik, prilepedni",ünk,NA,"János imád prilepedni, ezért sokat prilepszik.",Mi ritkán...,prilepszünk,prilepedünk,cselekszik,-szik,2,PR2086,2001,nő,nem,2022-04-19_22h50.48.532,hesp_baseline,2021.2.3,Win32,59.97720866
,,,,,,,,,,,,,,,,,brágédnak,brágédnek,left,2.1616,0,114,114,45,1,100,brágéd,brágéd,nak,é,Ez itt egy brágéd.,Elneveztem a kutyámat...,brágédnek,brágédnak,dzsungel,NA,NA,PR2086,2001,nő,nem,2022-04-19_22h50.48.532,hesp_baseline,2021.2.3,Win32,59.97720866
,,,,,,,,,,,,,,,,,klidlok,klidlom,right,0.3828,0,115,115,72,1,73,klidlik,klidlasz,NA,NA,Te bizony sokat klidlasz.,Én is sokat...,klidlok,klidlom,lakik,-lik,1,PR2086,2001,nő,nem,2022-04-19_22h50.48.532,hesp_baseline,2021.2.3,Win32,59.97720866
,,,,,,,,,,,,,,,,,tranékban,tranékben,left,0.2889,0,116,116,2,1,57,tranék,tranék,ban,é,Ez itt egy tranék.,Ott vagyunk a...,tranékben,tranékban,dzsungel,NA,NA,PR2086,2001,nő,nem,2022-04-19_22h50.48.532,hesp_baseline,2021.2.3,Win32,59.97720866
,,,,,,,,,,,,,,,,,flűröklök,flűröklöm,right,0.3211,0,117,117,91,1,92,flűröklik,flűröklesz,NA,NA,Te bizony sokat flűröklesz.,Én is sokat...,flűröklök,flűröklöm,lakik,-lik,2,PR2086,2001,nő,nem,2022-04-19_22h50.48.532,hesp_baseline,2021.2.3,Win32,59.97720866
,,,,,,,,,,,,,,,,,lorjódzom,lorjódzok,left,0.2889,0,118,118,88,1,89,lorjódzik,lorjódzol,NA,NA,Te bizony sokat lorjódzol.,Én is sokat...,lorjódzok,lorjódzom,lakik,-zik,2,PR2086,2001,nő,nem,2022-04-19_22h50.48.532,hesp_baseline,2021.2.3,Win32,59.97720866
,,,,,,,,,,,,,,,,,sponyoznak,sponylanak,right,0.3842,0,119,119,125,1,72,sponylik / sponyozik,"sponylik, sponyozni",nek,NA,"János imád sponyozni, ezért sokat sponylik.",Ők ritkán...,sponylanak,sponyoznak,cselekszik,-lik,1,PR2086,2001,nő,nem,2022-04-19_22h50.48.532,hesp_baseline,2021.2.3,Win32,59.97720866
,,,,,,,,,,,,,,,,,livényezünk,livénylünk,left,0.2195,0,120,120,128,1,75,livénylik / livényezik,"livénylik, livényezni",ünk,NA,"János imád livényezni, ezért sokat livénylik.",Mi ritkán...,livénylünk,livényezünk,cselekszik,-lik,2,PR2086,2001,nő,nem,2022-04-19_22h50.48.532,hesp_baseline,2021.2.3,Win32,59.97720866
,,,,,,,,,,,,,,,,,dóbemnak,dóbemnek,right,0.2841,0,121,121,48,1,103,dóbem,dóbem,nak,e,Ez itt egy dóbem.,Elneveztem a kutyámat...,dóbemnek,dóbemnak,dzsungel,NA,NA,PR2086,2001,nő,nem,2022-04-19_22h50.48.532,hesp_baseline,2021.2.3,Win32,59.97720866
,,,,,,,,,,,,,,,,,péleslek,péleslem,right,0.3037,0,122,122,73,1,74,péleslik,péleslesz,NA,NA,Te bizony sokat péleslesz.,Én is sokat...,péleslek,péleslem,lakik,-lik,2,PR2086,2001,nő,nem,2022-04-19_22h50.48.532,hesp_baseline,2021.2.3,Win32,59.97720866
,,,,,,,,,,,,,,,,,pratánylom,pratánylok,right,0.2456,0,123,123,95,1,96,pratánylik,pratánylasz,NA,NA,Te bizony sokat pratánylasz.,Én is sokat...,pratánylok,pratánylom,lakik,-lik,2,PR2086,2001,nő,nem,2022-04-19_22h50.48.532,hesp_baseline,2021.2.3,Win32,59.97720866
,,,,,,,,,,,,,,,,,fupétnél,fupétnál,left,0.2296,0,124,124,14,1,69,fupét,fupét,nál,é,Ez itt egy fupét.,Nincs is jobb egy jó...,fupétnél,fupétnál,dzsungel,NA,NA,PR2086,2001,nő,nem,2022-04-19_22h50.48.532,hesp_baseline,2021.2.3,Win32,59.97720866
,,,,,,,,,,,,,,,,,sojzom,sojzok,left,0.1132,0,125,125,74,1,75,sojzik,sojzol,NA,NA,Te bizony sokat sojzol.,Én is sokat...,sojzok,sojzom,lakik,-zik,1,PR2086,2001,nő,nem,2022-04-19_22h50.48.532,hesp_baseline,2021.2.3,Win32,59.97720866
,,,,,,,,,,,,,,,,,júdernak,júdernek,left,0.3368,0,126,126,53,1,108,júder,júder,nak,e,Ez itt egy júder.,Elneveztem a kutyámat...,júdernek,júdernak,dzsungel,NA,NA,PR2086,2001,nő,nem,2022-04-19_22h50.48.532,hesp_baseline,2021.2.3,Win32,59.97720866
,,,,,,,,,,,,,,,,,tögöznek,töglenek,right,0.3989,0,127,127,156,1,103,töglik / tögözik,"töglik, tögözni",nek,NA,"János imád tögözni, ezért sokat töglik.",Ők ritkán...,töglenek,tögöznek,cselekszik,-lik,1,PR2086,2001,nő,nem,2022-04-19_22h50.48.532,hesp_baseline,2021.2.3,Win32,59.97720866
,,,,,,,,,,,,,,,,,trigencnek,trigencnak,left,0.2522,0,128,128,31,1,86,trigenc,trigenc,nak,e,Ez itt egy trigenc.,Elneveztem a kutyámat...,trigencnek,trigencnak,dzsungel,NA,NA,PR2086,2001,nő,nem,2022-04-19_22h50.48.532,hesp_baseline,2021.2.3,Win32,59.97720866
,,,,,,,,,,,,,,,,,bingéjnek,bingéjnak,right,0.2455,0,129,129,49,1,104,bingéj,bingéj,nak,é,Ez itt egy bingéj.,Elneveztem a kutyámat...,bingéjnek,bingéjnak,dzsungel,NA,NA,PR2086,2001,nő,nem,2022-04-19_22h50.48.532,hesp_baseline,2021.2.3,Win32,59.97720866
,,,,,,,,,,,,,,,,,sprigoztok,sprigzotok,left,0.0722,0,130,130,129,1,76,sprigzik / sprigozik,"sprigzik, sprigozni",tek,NA,"János imád sprigozni, ezért sokat sprigzik.",Ti ritkán...,sprigzotok,sprigoztok,cselekszik,-zik,1,PR2086,2001,nő,nem,2022-04-19_22h50.48.532,hesp_baseline,2021.2.3,Win32,59.97720866
,,,,,,,,,,,,,,,,,lijeznak,lijeznek,right,0.1618,0,131,131,40,1,95,lijez,lijez,nak,e,Ez itt egy lijez.,Elneveztem a kutyámat...,lijeznek,lijeznak,dzsungel,NA,NA,PR2086,2001,nő,nem,2022-04-19_22h50.48.532,hesp_baseline,2021.2.3,Win32,59.97720866
,,,,,,,,,,,,,,,,,kalrézban,kalrézben,left,0.1743,0,132,132,16,1,71,kalréz,kalréz,ban,é,Ez itt egy kalréz.,Ott vagyunk a...,kalrézben,kalrézban,dzsungel,NA,NA,PR2086,2001,nő,nem,2022-04-19_22h50.48.532,hesp_baseline,2021.2.3,Win32,59.97720866
,,,,,,,,,,,,,,,,,spülűdzöm,spülűdzök,right,0.0486,0,133,133,56,1,57,spülűdzik,spülűdzöl,NA,NA,Te bizony sokat spülűdzöl.,Én is sokat...,spülűdzök,spülűdzöm,lakik,-zik,2,PR2086,2001,nő,nem,2022-04-19_22h50.48.532,hesp_baseline,2021.2.3,Win32,59.97720866
,,,,,,,,,,,,,,,,,flodlotok,flodoztok,left,0.0882,0,134,134,144,1,91,flodlik / flodozik,"flodlik, flodozni",tek,NA,"János imád flodozni, ezért sokat flodlik.",Ti ritkán...,flodlotok,flodoztok,cselekszik,-lik,1,PR2086,2001,nő,nem,2022-04-19_22h50.48.532,hesp_baseline,2021.2.3,Win32,59.97720866
,,,,,,,,,,,,,,,,,ítensben,ítensban,left,0.524,0,135,135,50,1,105,ítens,ítens,ban,e,Ez itt egy ítens.,Ott vagyunk a...,ítensben,ítensban,dzsungel,NA,NA,PR2086,2001,nő,nem,2022-04-19_22h50.48.532,hesp_baseline,2021.2.3,Win32,59.97720866
,,,,,,,,,,,,,,,,,nyádlanak,nyádoznak,left,0.4253,0,136,136,120,1,67,nyádlik / nyádozik,"nyádlik, nyádozni",nek,NA,"János imád nyádozni, ezért sokat nyádlik.",Ők ritkán...,nyádlanak,nyádoznak,cselekszik,-lik,1,PR2086,2001,nő,nem,2022-04-19_22h50.48.532,hesp_baseline,2021.2.3,Win32,59.97720866
,,,,,,,,,,,,,,,,,tumélynál,tumélynél,left,0.3348,0,137,137,28,1,83,tumély,tumély,nál,é,Ez itt egy tumély.,Nincs is jobb egy jó...,tumélynél,tumélynál,dzsungel,NA,NA,PR2086,2001,nő,nem,2022-04-19_22h50.48.532,hesp_baseline,2021.2.3,Win32,59.97720866
,,,,,,,,,,,,,,,,,fröjöztök,fröjzötök,left,0.251,0,138,138,153,1,100,fröjzik / fröjözik,"fröjzik, fröjözni",tek,NA,"János imád fröjözni, ezért sokat fröjzik.",Ti ritkán...,fröjzötök,fröjöztök,cselekszik,-zik,1,PR2086,2001,nő,nem,2022-04-19_22h50.48.532,hesp_baseline,2021.2.3,Win32,59.97720866
,,,,,,,,,,,,,,,,,jonylom,jonylok,left,0.1031,0,139,139,55,1,56,jonylik,jonylasz,NA,NA,Te bizony sokat jonylasz.,Én is sokat...,jonylok,jonylom,lakik,-lik,1,PR2086,2001,nő,nem,2022-04-19_22h50.48.532,hesp_baseline,2021.2.3,Win32,59.97720866
,,,,,,,,,,,,,,,,,spihegzem,spihegzek,right,0.2319,0,140,140,81,1,82,spihegzik,spihegzel,NA,NA,Te bizony sokat spihegzel.,Én is sokat...,spihegzek,spihegzem,lakik,-zik,2,PR2086,2001,nő,nem,2022-04-19_22h50.48.532,hesp_baseline,2021.2.3,Win32,59.97720866
,,,,,,,,,,,,,,,,,spizecnak,spizecnek,right,5.4887,0,141,141,6,1,61,spizec,spizec,nak,e,Ez itt egy spizec.,Elneveztem a kutyámat...,spizecnek,spizecnak,dzsungel,NA,NA,PR2086,2001,nő,nem,2022-04-19_22h50.48.532,hesp_baseline,2021.2.3,Win32,59.97720866
,,,,,,,,,,,,,,,,,nyöbzenek,nyöböznek,left,0.3716,0,142,142,152,1,99,nyöbzik / nyöbözik,"nyöbzik, nyöbözni",nek,NA,"János imád nyöbözni, ezért sokat nyöbzik.",Ők ritkán...,nyöbzenek,nyöböznek,cselekszik,-zik,1,PR2086,2001,nő,nem,2022-04-19_22h50.48.532,hesp_baseline,2021.2.3,Win32,59.97720866
,,,,,,,,,,,,,,,,,kumlok,kumlom,left,0.2229,0,143,143,105,1,106,kumlik,kumlasz,NA,NA,Te bizony sokat kumlasz.,Én is sokat...,kumlok,kumlom,lakik,-lik,1,PR2086,2001,nő,nem,2022-04-19_22h50.48.532,hesp_baseline,2021.2.3,Win32,59.97720866
,,,,,,,,,,,,,,,,,ikszertban,ikszertben,right,0.2521,0,144,144,19,1,74,ikszert,ikszert,ban,e,Ez itt egy ikszert.,Ott vagyunk a...,ikszertben,ikszertban,dzsungel,NA,NA,PR2086,2001,nő,nem,2022-04-19_22h50.48.532,hesp_baseline,2021.2.3,Win32,59.97720866
,,,,,,,,,,,,,,,,,csólorzok,csólorzom,right,0.2416,0,145,145,102,1,103,csólorzik,csólorzol,NA,NA,Te bizony sokat csólorzol.,Én is sokat...,csólorzok,csólorzom,lakik,-zik,2,PR2086,2001,nő,nem,2022-04-19_22h50.48.532,hesp_baseline,2021.2.3,Win32,59.97720866
,,,,,,,,,,,,,,,,,drojzunk,drojozunk,left,0.2768,0,146,146,140,1,87,drojzik / drojozik,"drojzik, drojozni",ünk,NA,"János imád drojozni, ezért sokat drojzik.",Mi ritkán...,drojzunk,drojozunk,cselekszik,-zik,1,PR2086,2001,nő,nem,2022-04-19_22h50.48.532,hesp_baseline,2021.2.3,Win32,59.97720866
,,,,,,,,,,,,,,,,,frodlom,frodlok,left,0.2972,0,147,147,61,1,62,frodlik,frodlasz,NA,NA,Te bizony sokat frodlasz.,Én is sokat...,frodlok,frodlom,lakik,-lik,1,PR2086,2001,nő,nem,2022-04-19_22h50.48.532,hesp_baseline,2021.2.3,Win32,59.97720866
,,,,,,,,,,,,,,,,,huroslom,huroslok,right,0.2131,0,148,148,76,1,77,huroslik,huroslasz,NA,NA,Te bizony sokat huroslasz.,Én is sokat...,huroslok,huroslom,lakik,-lik,2,PR2086,2001,nő,nem,2022-04-19_22h50.48.532,hesp_baseline,2021.2.3,Win32,59.97720866
,,,,,,,,,,,,,,,,,kátédnál,kátédnél,right,0.2187,0,149,149,37,1,92,kátéd,kátéd,nál,é,Ez itt egy kátéd.,Nincs is jobb egy jó...,kátédnél,kátédnál,dzsungel,NA,NA,PR2086,2001,nő,nem,2022-04-19_22h50.48.532,hesp_baseline,2021.2.3,Win32,59.97720866
,,,,,,,,,,,,,,,,,klazérban,klazérben,right,0.3061,0,150,150,51,1,106,klazér,klazér,ban,é,Ez itt egy klazér.,Ott vagyunk a...,klazérben,klazérban,dzsungel,NA,NA,PR2086,2001,nő,nem,2022-04-19_22h50.48.532,hesp_baseline,2021.2.3,Win32,59.97720866
,,,,,,,,,,,,,,,,,ribzom,ribzok,left,0.2704,0,151,151,58,1,59,ribzik,ribzol,NA,NA,Te bizony sokat ribzol.,Én is sokat...,ribzok,ribzom,lakik,-zik,1,PR2086,2001,nő,nem,2022-04-19_22h50.48.532,hesp_baseline,2021.2.3,Win32,59.97720866
,,,,,,,,,,,,,,,,,trugzanak,trugoznak,left,1.8994,0,152,152,146,1,93,trugzik / trugozik,"trugzik, trugozni",nek,NA,"János imád trugozni, ezért sokat trugzik.",Ők ritkán...,trugzanak,trugoznak,cselekszik,-zik,1,PR2086,2001,nő,nem,2022-04-19_22h50.48.532,hesp_baseline,2021.2.3,Win32,59.97720866
,,,,,,,,,,,,,,,,,flemlünk,flemezünk,right,0.32,0,153,153,137,1,84,flemlik / flemezik,"flemlik, flemezni",ünk,NA,"János imád flemezni, ezért sokat flemlik.",Mi ritkán...,flemlünk,flemezünk,cselekszik,-lik,1,PR2086,2001,nő,nem,2022-04-19_22h50.48.532,hesp_baseline,2021.2.3,Win32,59.97720866
,,,,,,,,,,,,,,,,,brivegzem,brivegzek,left,2.9012,0,154,154,70,1,71,brivegzik,brivegzel,NA,NA,Te bizony sokat brivegzel.,Én is sokat...,brivegzek,brivegzem,lakik,-zik,2,PR2086,2001,nő,nem,2022-04-19_22h50.48.532,hesp_baseline,2021.2.3,Win32,59.97720866
,,,,,,,,,,,,,,,,,dárakszunk,dárakodunk,right,0.2909,0,155,155,126,1,73,dárakszik / dárakodik,"dárakszik, dárakodni",ünk,NA,"János imád dárakodni, ezért sokat dárakszik.",Mi ritkán...,dárakszunk,dárakodunk,cselekszik,-szik,2,PR2086,2001,nő,nem,2022-04-19_22h50.48.532,hesp_baseline,2021.2.3,Win32,59.97720866
,,,,,,,,,,,,,,,,,klűmlötök,klűmöztök,right,0.2618,0,156,156,108,1,55,klűmlik / klűmözik,"klűmlik, klűmözni",tek,NA,"János imád klűmözni, ezért sokat klűmlik.",Ti ritkán...,klűmlötök,klűmöztök,cselekszik,-lik,1,PR2086,2001,nő,nem,2022-04-19_22h50.48.532,hesp_baseline,2021.2.3,Win32,59.97720866
,,,,,,,,,,,,,,,,,vorszennél,vorszennál,left,0.9607,0,157,157,30,1,85,vorszen,vorszen,nál,e,Ez itt egy vorszen.,Nincs is jobb egy jó...,vorszennél,vorszennál,dzsungel,NA,NA,PR2086,2001,nő,nem,2022-04-19_22h50.48.532,hesp_baseline,2021.2.3,Win32,59.97720866
,,,,,,,,,,,,,,,,,lingéknél,lingéknál,left,1.7097,0,158,158,32,1,87,lingék,lingék,nál,é,Ez itt egy lingék.,Nincs is jobb egy jó...,lingéknél,lingéknál,dzsungel,NA,NA,PR2086,2001,nő,nem,2022-04-19_22h50.48.532,hesp_baseline,2021.2.3,Win32,59.97720866
,,,,,,,,,,,,,,,,,dilaklotok,dilakoztok,left,1.5117,0,159,159,158,1,105,dilaklik / dilakozik,"dilaklik, dilakozni",tek,NA,"János imád dilakozni, ezért sokat dilaklik.",Ti ritkán...,dilaklotok,dilakoztok,cselekszik,-lik,2,PR2086,2001,nő,nem,2022-04-19_22h50.48.532,hesp_baseline,2021.2.3,Win32,59.97720866
,,,,,,,,,,,,,,,,,spiharzotok,spiharoztok,right,0.8243,0,160,160,127,1,74,spiharzik / spiharozik,"spiharzik, spiharozni",tek,NA,"János imád spiharozni, ezért sokat spiharzik.",Ti ritkán...,spiharzotok,spiharoztok,cselekszik,-zik,2,PR2086,2001,nő,nem,2022-04-19_22h50.48.532,hesp_baseline,2021.2.3,Win32,59.97720866
,,,,,,,,,,,,,,,,,szanéjnak,szanéjnek,right,0.2402,0,161,161,13,1,68,szanéj,szanéj,nak,é,Ez itt egy szanéj.,Elneveztem a kutyámat...,szanéjnek,szanéjnak,dzsungel,NA,NA,PR2086,2001,nő,nem,2022-04-19_22h50.48.532,hesp_baseline,2021.2.3,Win32,59.97720866
