my_list,key.keys,key.rt,key_2.keys,key_2.rt,keyboard_input_2.keys,keyboard_input_2.rt,key_3.keys,key_3.rt,keyboard_input_3.keys,keyboard_input_3.rt,key_4.keys,key_4.rt,keyboard_input_4.keys,keyboard_input_4.rt,key_5.keys,key_5.rt,my_button1,my_button2,keyboard_input.keys,keyboard_input.rt,withinBlock.thisRepN,withinBlock.thisTrialN,withinBlock.thisN,withinBlock.thisIndex,withinBlock.ran,rowname,word,prompt,suffix,vowel,carrier_sentence,target_sentence,target1,target2,category,derivational,nsyl,Azonosító,Melyik évben születtél?,Mi a nemed?,Tanultál nyelvészetet?,date,expName,psychopyVersion,OS,frameRate
list2.csv,space,23386.283,space,10.178,right,8.614,space,18.224,left,4.933,space,10.991,left,10.79,space,28.576,garcépnál,garcépnél,left,11.224,0,0,0,38,1,93,garcép,garcép,nál,é,Ez itt egy garcép.,Nincs is jobb egy jó...,garcépnél,garcépnál,dzsungel,NA,NA,PR2071,2003,nő,nem,2022-04-18_12h23.48.369,hesp_baseline,2021.2.3,Win32,90.09009009
,,,,,,,,,,,,,,,,,fröjözünk,fröjlünk,left,9.797,0,1,1,117,1,64,fröjlik / fröjözik,"fröjlik, fröjözni",ünk,NA,"János imád fröjözni, ezért sokat fröjlik.",Mi ritkán...,fröjlünk,fröjözünk,cselekszik,-lik,1,PR2071,2003,nő,nem,2022-04-18_12h23.48.369,hesp_baseline,2021.2.3,Win32,90.09009009
,,,,,,,,,,,,,,,,,míjzunk,míjozunk,right,7.182,0,2,2,114,1,61,míjzik / míjozik,"míjzik, míjozni",ünk,NA,"János imád míjozni, ezért sokat míjzik.",Mi ritkán...,míjzunk,míjozunk,cselekszik,-zik,1,PR2071,2003,nő,nem,2022-04-18_12h23.48.369,hesp_baseline,2021.2.3,Win32,90.09009009
,,,,,,,,,,,,,,,,,vorszennál,vorszennél,right,10.678,0,3,3,30,1,85,vorszen,vorszen,nál,e,Ez itt egy vorszen.,Nincs is jobb egy jó...,vorszennél,vorszennál,dzsungel,NA,NA,PR2071,2003,nő,nem,2022-04-18_12h23.48.369,hesp_baseline,2021.2.3,Win32,90.09009009
,,,,,,,,,,,,,,,,,tomlok,tomlom,left,7.948,0,4,4,86,1,87,tomlik,tomlasz,NA,NA,Te bizony sokat tomlasz.,Én is sokat...,tomlok,tomlom,lakik,-lik,1,PR2071,2003,nő,nem,2022-04-18_12h23.48.369,hesp_baseline,2021.2.3,Win32,90.09009009
,,,,,,,,,,,,,,,,,fluboklotok,flubokoztok,right,12.19,0,5,5,151,1,98,fluboklik / flubokozik,"fluboklik, flubokozni",tek,NA,"János imád flubokozni, ezért sokat fluboklik.",Ti ritkán...,fluboklotok,flubokoztok,cselekszik,-lik,2,PR2071,2003,nő,nem,2022-04-18_12h23.48.369,hesp_baseline,2021.2.3,Win32,90.09009009
,,,,,,,,,,,,,,,,,júdernek,júdernak,left,6.763,0,6,6,53,1,108,júder,júder,nak,e,Ez itt egy júder.,Elneveztem a kutyámat...,júdernek,júdernak,dzsungel,NA,NA,PR2071,2003,nő,nem,2022-04-18_12h23.48.369,hesp_baseline,2021.2.3,Win32,90.09009009
,,,,,,,,,,,,,,,,,prazlunk,prazozunk,right,13.425,0,7,7,119,1,66,prazlik / prazozik,"prazlik, prazozni",ünk,NA,"János imád prazozni, ezért sokat prazlik.",Mi ritkán...,prazlunk,prazozunk,cselekszik,-lik,1,PR2071,2003,nő,nem,2022-04-18_12h23.48.369,hesp_baseline,2021.2.3,Win32,90.09009009
,,,,,,,,,,,,,,,,,pribemlem,pribemlek,right,10.781,0,8,8,107,1,108,pribemlik,pribemlesz,NA,NA,Te bizony sokat pribemlesz.,Én is sokat...,pribemlek,pribemlem,lakik,-lik,2,PR2071,2003,nő,nem,2022-04-18_12h23.48.369,hesp_baseline,2021.2.3,Win32,90.09009009
,,,,,,,,,,,,,,,,,szűslöm,szűslök,right,10.126,0,9,9,85,1,86,szűslik,szűslesz,NA,NA,Te bizony sokat szűslesz.,Én is sokat...,szűslök,szűslöm,lakik,-lik,1,PR2071,2003,nő,nem,2022-04-18_12h23.48.369,hesp_baseline,2021.2.3,Win32,90.09009009
,,,,,,,,,,,,,,,,,töglenek,tögöznek,left,8.813,0,10,10,156,1,103,töglik / tögözik,"töglik, tögözni",nek,NA,"János imád tögözni, ezért sokat töglik.",Ők ritkán...,töglenek,tögöznek,cselekszik,-lik,1,PR2071,2003,nő,nem,2022-04-18_12h23.48.369,hesp_baseline,2021.2.3,Win32,90.09009009
,,,,,,,,,,,,,,,,,zutennál,zutennél,right,8.478,0,11,11,43,1,98,zuten,zuten,nál,e,Ez itt egy zuten.,Nincs is jobb egy jó...,zutennél,zutennál,dzsungel,NA,NA,PR2071,2003,nő,nem,2022-04-18_12h23.48.369,hesp_baseline,2021.2.3,Win32,90.09009009
,,,,,,,,,,,,,,,,,kalrézban,kalrézben,right,8.77,0,12,12,16,1,71,kalréz,kalréz,ban,é,Ez itt egy kalréz.,Ott vagyunk a...,kalrézben,kalrézban,dzsungel,NA,NA,PR2071,2003,nő,nem,2022-04-18_12h23.48.369,hesp_baseline,2021.2.3,Win32,90.09009009
,,,,,,,,,,,,,,,,,spizecnek,spizecnak,left,6.824,0,13,13,6,1,61,spizec,spizec,nak,e,Ez itt egy spizec.,Elneveztem a kutyámat...,spizecnek,spizecnak,dzsungel,NA,NA,PR2071,2003,nő,nem,2022-04-18_12h23.48.369,hesp_baseline,2021.2.3,Win32,90.09009009
,,,,,,,,,,,,,,,,,spiharzotok,spiharoztok,right,9.577,0,14,14,127,1,74,spiharzik / spiharozik,"spiharzik, spiharozni",tek,NA,"János imád spiharozni, ezért sokat spiharzik.",Ti ritkán...,spiharzotok,spiharoztok,cselekszik,-zik,2,PR2071,2003,nő,nem,2022-04-18_12h23.48.369,hesp_baseline,2021.2.3,Win32,90.09009009
,,,,,,,,,,,,,,,,,dárakodunk,dárakszunk,left,12.337,0,15,15,126,1,73,dárakszik / dárakodik,"dárakszik, dárakodni",ünk,NA,"János imád dárakodni, ezért sokat dárakszik.",Mi ritkán...,dárakszunk,dárakodunk,cselekszik,-szik,2,PR2071,2003,nő,nem,2022-04-18_12h23.48.369,hesp_baseline,2021.2.3,Win32,90.09009009
,,,,,,,,,,,,,,,,,nyametban,nyametben,left,8.648,0,16,16,17,1,72,nyamet,nyamet,ban,e,Ez itt egy nyamet.,Ott vagyunk a...,nyametben,nyametban,dzsungel,NA,NA,PR2071,2003,nő,nem,2022-04-18_12h23.48.369,hesp_baseline,2021.2.3,Win32,90.09009009
,,,,,,,,,,,,,,,,,fligzok,fligzom,right,6.991,0,17,17,103,1,104,fligzik,fligzol,NA,NA,Te bizony sokat fligzol.,Én is sokat...,fligzok,fligzom,lakik,-zik,1,PR2071,2003,nő,nem,2022-04-18_12h23.48.369,hesp_baseline,2021.2.3,Win32,90.09009009
,,,,,,,,,,,,,,,,,klingeszban,klingeszben,right,6.435,0,18,18,1,1,56,klingesz,klingesz,ban,e,Ez itt egy klingesz.,Ott vagyunk a...,klingeszben,klingeszban,dzsungel,NA,NA,PR2071,2003,nő,nem,2022-04-18_12h23.48.369,hesp_baseline,2021.2.3,Win32,90.09009009
,,,,,,,,,,,,,,,,,molodtok,molszotok,left,8.156,0,19,19,142,1,89,molszik / molodik,"molszik, molodni",tek,NA,"János imád molodni, ezért sokat molszik.",Ti ritkán...,molszotok,molodtok,cselekszik,-szik,1,PR2071,2003,nő,nem,2022-04-18_12h23.48.369,hesp_baseline,2021.2.3,Win32,90.09009009
,,,,,,,,,,,,,,,,,spibegezünk,spibeglünk,right,9.336,0,20,20,147,1,94,spibeglik / spibegezik,"spibeglik, spibegezni",ünk,NA,"János imád spibegezni, ezért sokat spibeglik.",Mi ritkán...,spibeglünk,spibegezünk,cselekszik,-lik,2,PR2071,2003,nő,nem,2022-04-18_12h23.48.369,hesp_baseline,2021.2.3,Win32,90.09009009
,,,,,,,,,,,,,,,,,fivénylek,fivénylem,left,6.846,0,21,21,78,1,79,fivénylik,fivénylesz,NA,NA,Te bizony sokat fivénylesz.,Én is sokat...,fivénylek,fivénylem,lakik,-lik,2,PR2071,2003,nő,nem,2022-04-18_12h23.48.369,hesp_baseline,2021.2.3,Win32,90.09009009
,,,,,,,,,,,,,,,,,játlunk,játozunk,right,9.07,0,22,22,145,1,92,játlik / játozik,"játlik, játozni",ünk,NA,"János imád játozni, ezért sokat játlik.",Mi ritkán...,játlunk,játozunk,cselekszik,-lik,1,PR2071,2003,nő,nem,2022-04-18_12h23.48.369,hesp_baseline,2021.2.3,Win32,90.09009009
,,,,,,,,,,,,,,,,,mihágoztok,mihágzotok,right,12.445,0,23,23,118,1,65,mihágzik / mihágozik,"mihágzik, mihágozni",tek,NA,"János imád mihágozni, ezért sokat mihágzik.",Ti ritkán...,mihágzotok,mihágoztok,cselekszik,-zik,2,PR2071,2003,nő,nem,2022-04-18_12h23.48.369,hesp_baseline,2021.2.3,Win32,90.09009009
,,,,,,,,,,,,,,,,,flézeztek,flézletek,left,11.148,0,24,24,134,1,81,flézlik / flézezik,"flézlik, flézezni",tek,NA,"János imád flézezni, ezért sokat flézlik.",Ti ritkán...,flézletek,flézeztek,cselekszik,-lik,1,PR2071,2003,nő,nem,2022-04-18_12h23.48.369,hesp_baseline,2021.2.3,Win32,90.09009009
,,,,,,,,,,,,,,,,,kluhéjnál,kluhéjnél,left,4.636,0,25,25,24,1,79,kluhéj,kluhéj,nál,é,Ez itt egy kluhéj.,Nincs is jobb egy jó...,kluhéjnél,kluhéjnál,dzsungel,NA,NA,PR2071,2003,nő,nem,2022-04-18_12h23.48.369,hesp_baseline,2021.2.3,Win32,90.09009009
,,,,,,,,,,,,,,,,,nyádlanak,nyádoznak,right,14.902,0,26,26,120,1,67,nyádlik / nyádozik,"nyádlik, nyádozni",nek,NA,"János imád nyádozni, ezért sokat nyádlik.",Ők ritkán...,nyádlanak,nyádoznak,cselekszik,-lik,1,PR2071,2003,nő,nem,2022-04-18_12h23.48.369,hesp_baseline,2021.2.3,Win32,90.09009009
,,,,,,,,,,,,,,,,,fojlegynek,fojlegynak,left,7.837,0,27,27,3,1,58,fojlegy,fojlegy,nak,e,Ez itt egy fojlegy.,Elneveztem a kutyámat...,fojlegynek,fojlegynak,dzsungel,NA,NA,PR2071,2003,nő,nem,2022-04-18_12h23.48.369,hesp_baseline,2021.2.3,Win32,90.09009009
,,,,,,,,,,,,,,,,,flüröslök,flüröslöm,left,11.858,0,28,28,87,1,88,flüröslik,flüröslesz,NA,NA,Te bizony sokat flüröslesz.,Én is sokat...,flüröslök,flüröslöm,lakik,-lik,2,PR2071,2003,nő,nem,2022-04-18_12h23.48.369,hesp_baseline,2021.2.3,Win32,90.09009009
,,,,,,,,,,,,,,,,,spubonylom,spubonylok,right,7.482,0,29,29,104,1,105,spubonylik,spubonylasz,NA,NA,Te bizony sokat spubonylasz.,Én is sokat...,spubonylok,spubonylom,lakik,-lik,2,PR2071,2003,nő,nem,2022-04-18_12h23.48.369,hesp_baseline,2021.2.3,Win32,90.09009009
,,,,,,,,,,,,,,,,,lírlanak,líroznak,right,8.058,0,30,30,115,1,62,lírlik / lírozik,"lírlik, lírozni",nek,NA,"János imád lírozni, ezért sokat lírlik.",Ők ritkán...,lírlanak,líroznak,cselekszik,-lik,1,PR2071,2003,nő,nem,2022-04-18_12h23.48.369,hesp_baseline,2021.2.3,Win32,90.09009009
,,,,,,,,,,,,,,,,,pítendben,pítendban,left,5.714,0,31,31,18,1,73,pítend,pítend,ban,e,Ez itt egy pítend.,Ott vagyunk a...,pítendben,pítendban,dzsungel,NA,NA,PR2071,2003,nő,nem,2022-04-18_12h23.48.369,hesp_baseline,2021.2.3,Win32,90.09009009
,,,,,,,,,,,,,,,,,spivélnek,spivélnak,left,6.182,0,32,32,27,1,82,spivél,spivél,nak,é,Ez itt egy spivél.,Elneveztem a kutyámat...,spivélnek,spivélnak,dzsungel,NA,NA,PR2071,2003,nő,nem,2022-04-18_12h23.48.369,hesp_baseline,2021.2.3,Win32,90.09009009
,,,,,,,,,,,,,,,,,nyábétben,nyábétban,left,11.458,0,33,33,21,1,76,nyábét,nyábét,ban,é,Ez itt egy nyábét.,Ott vagyunk a...,nyábétben,nyábétban,dzsungel,NA,NA,PR2071,2003,nő,nem,2022-04-18_12h23.48.369,hesp_baseline,2021.2.3,Win32,90.09009009
,,,,,,,,,,,,,,,,,prihekszem,prihekszek,right,9.193,0,34,34,100,1,101,prihekszik,prihekszel,NA,NA,Te bizony sokat prihekszel.,Én is sokat...,prihekszek,prihekszem,lakik,-szik,2,PR2071,2003,nő,nem,2022-04-18_12h23.48.369,hesp_baseline,2021.2.3,Win32,90.09009009
,,,,,,,,,,,,,,,,,lihadzom,lihadzok,left,9.872,0,35,35,101,1,102,lihadzik,lihadzol,NA,NA,Te bizony sokat lihadzol.,Én is sokat...,lihadzok,lihadzom,lakik,-zik,2,PR2071,2003,nő,nem,2022-04-18_12h23.48.369,hesp_baseline,2021.2.3,Win32,90.09009009
,,,,,,,,,,,,,,,,,tribejeztek,tribejletek,left,16.779,0,36,36,132,1,79,tribejlik / tribejezik,"tribejlik, tribejezni",tek,NA,"János imád tribejezni, ezért sokat tribejlik.",Ti ritkán...,tribejletek,tribejeztek,cselekszik,-lik,2,PR2071,2003,nő,nem,2022-04-18_12h23.48.369,hesp_baseline,2021.2.3,Win32,90.09009009
,,,,,,,,,,,,,,,,,tosélyben,tosélyban,right,6.514,0,37,37,25,1,80,tosély,tosély,ban,é,Ez itt egy tosély.,Ott vagyunk a...,tosélyben,tosélyban,dzsungel,NA,NA,PR2071,2003,nő,nem,2022-04-18_12h23.48.369,hesp_baseline,2021.2.3,Win32,90.09009009
,,,,,,,,,,,,,,,,,nyürzenek,nyüröznek,right,9.066,0,38,38,123,1,70,nyürzik / nyürözik,"nyürzik, nyürözni",nek,NA,"János imád nyürözni, ezért sokat nyürzik.",Ők ritkán...,nyürzenek,nyüröznek,cselekszik,-zik,1,PR2071,2003,nő,nem,2022-04-18_12h23.48.369,hesp_baseline,2021.2.3,Win32,90.09009009
,,,,,,,,,,,,,,,,,friszlok,friszlom,left,6.258,0,39,39,97,1,98,friszlik,friszlasz,NA,NA,Te bizony sokat friszlasz.,Én is sokat...,friszlok,friszlom,lakik,-lik,1,PR2071,2003,nő,nem,2022-04-18_12h23.48.369,hesp_baseline,2021.2.3,Win32,90.09009009
,,,,,,,,,,,,,,,,,csubzunk,csubozunk,left,8.371,0,40,40,111,1,58,csubzik / csubozik,"csubzik, csubozni",ünk,NA,"János imád csubozni, ezért sokat csubzik.",Mi ritkán...,csubzunk,csubozunk,cselekszik,-zik,1,PR2071,2003,nő,nem,2022-04-18_12h23.48.369,hesp_baseline,2021.2.3,Win32,90.09009009
,,,,,,,,,,,,,,,,,sprízemnál,sprízemnél,right,5.213,0,41,41,22,1,77,sprízem,sprízem,nál,e,Ez itt egy sprízem.,Nincs is jobb egy jó...,sprízemnél,sprízemnál,dzsungel,NA,NA,PR2071,2003,nő,nem,2022-04-18_12h23.48.369,hesp_baseline,2021.2.3,Win32,90.09009009
,,,,,,,,,,,,,,,,,rapszeknél,rapszeknál,left,7.361,0,42,42,35,1,90,rapszek,rapszek,nál,e,Ez itt egy rapszek.,Nincs is jobb egy jó...,rapszeknél,rapszeknál,dzsungel,NA,NA,PR2071,2003,nő,nem,2022-04-18_12h23.48.369,hesp_baseline,2021.2.3,Win32,90.09009009
,,,,,,,,,,,,,,,,,prihegszenek,prihegednek,left,12.814,0,43,43,155,1,102,prihegszik / prihegedik,"prihegszik, prihegedni",nek,NA,"János imád prihegedni, ezért sokat prihegszik.",Ők ritkán...,prihegszenek,prihegednek,cselekszik,-szik,2,PR2071,2003,nő,nem,2022-04-18_12h23.48.369,hesp_baseline,2021.2.3,Win32,90.09009009
,,,,,,,,,,,,,,,,,frivamozunk,frivamlunk,right,10.469,0,44,44,122,1,69,frivamlik / frivamozik,"frivamlik, frivamozni",ünk,NA,"János imád frivamozni, ezért sokat frivamlik.",Mi ritkán...,frivamlunk,frivamozunk,cselekszik,-lik,2,PR2071,2003,nő,nem,2022-04-18_12h23.48.369,hesp_baseline,2021.2.3,Win32,90.09009009
,,,,,,,,,,,,,,,,,zarcégnál,zarcégnél,left,5.979,0,45,45,29,1,84,zarcég,zarcég,nál,é,Ez itt egy zarcég.,Nincs is jobb egy jó...,zarcégnél,zarcégnál,dzsungel,NA,NA,PR2071,2003,nő,nem,2022-04-18_12h23.48.369,hesp_baseline,2021.2.3,Win32,90.09009009
,,,,,,,,,,,,,,,,,sprogzok,sprogzom,left,4.701,0,46,46,89,1,90,sprogzik,sprogzol,NA,NA,Te bizony sokat sprogzol.,Én is sokat...,sprogzok,sprogzom,lakik,-zik,1,PR2071,2003,nő,nem,2022-04-18_12h23.48.369,hesp_baseline,2021.2.3,Win32,90.09009009
,,,,,,,,,,,,,,,,,brivegzek,brivegzem,left,10.426,0,47,47,70,1,71,brivegzik,brivegzel,NA,NA,Te bizony sokat brivegzel.,Én is sokat...,brivegzek,brivegzem,lakik,-zik,2,PR2071,2003,nő,nem,2022-04-18_12h23.48.369,hesp_baseline,2021.2.3,Win32,90.09009009
,,,,,,,,,,,,,,,,,lijeznek,lijeznak,left,5.704,0,48,48,40,1,95,lijez,lijez,nak,e,Ez itt egy lijez.,Elneveztem a kutyámat...,lijeznek,lijeznak,dzsungel,NA,NA,PR2071,2003,nő,nem,2022-04-18_12h23.48.369,hesp_baseline,2021.2.3,Win32,90.09009009
,,,,,,,,,,,,,,,,,spülűdzök,spülűdzöm,left,7.311,0,49,49,56,1,57,spülűdzik,spülűdzöl,NA,NA,Te bizony sokat spülűdzöl.,Én is sokat...,spülűdzök,spülűdzöm,lakik,-zik,2,PR2071,2003,nő,nem,2022-04-18_12h23.48.369,hesp_baseline,2021.2.3,Win32,90.09009009
,,,,,,,,,,,,,,,,,prilepszünk,prilepedünk,left,7.858,0,50,50,161,1,108,prilepszik / prilepedik,"prilepszik, prilepedni",ünk,NA,"János imád prilepedni, ezért sokat prilepszik.",Mi ritkán...,prilepszünk,prilepedünk,cselekszik,-szik,2,PR2071,2003,nő,nem,2022-04-18_12h23.48.369,hesp_baseline,2021.2.3,Win32,90.09009009
,,,,,,,,,,,,,,,,,trírzunk,trírozunk,left,7.215,0,51,51,116,1,63,trírzik / trírozik,"trírzik, trírozni",ünk,NA,"János imád trírozni, ezért sokat trírzik.",Mi ritkán...,trírzunk,trírozunk,cselekszik,-zik,1,PR2071,2003,nő,nem,2022-04-18_12h23.48.369,hesp_baseline,2021.2.3,Win32,90.09009009
,,,,,,,,,,,,,,,,,ronvetnak,ronvetnek,right,7.801,0,52,52,9,1,64,ronvet,ronvet,nak,e,Ez itt egy ronvet.,Elneveztem a kutyámat...,ronvetnek,ronvetnak,dzsungel,NA,NA,PR2071,2003,nő,nem,2022-04-18_12h23.48.369,hesp_baseline,2021.2.3,Win32,90.09009009
,,,,,,,,,,,,,,,,,klehényeztek,klehényletek,right,10.201,0,53,53,113,1,60,klehénylik / klehényezik,"klehénylik, klehényezni",tek,NA,"János imád klehényezni, ezért sokat klehénylik.",Ti ritkán...,klehényletek,klehényeztek,cselekszik,-lik,2,PR2071,2003,nő,nem,2022-04-18_12h23.48.369,hesp_baseline,2021.2.3,Win32,90.09009009
,,,,,,,,,,,,,,,,,dóbemnak,dóbemnek,right,7.347,0,54,54,48,1,103,dóbem,dóbem,nak,e,Ez itt egy dóbem.,Elneveztem a kutyámat...,dóbemnek,dóbemnak,dzsungel,NA,NA,PR2071,2003,nő,nem,2022-04-18_12h23.48.369,hesp_baseline,2021.2.3,Win32,90.09009009
,,,,,,,,,,,,,,,,,gilárzom,gilárzok,right,28.381,0,55,55,94,1,95,gilárzik,gilárzol,NA,NA,Te bizony sokat gilárzol.,Én is sokat...,gilárzok,gilárzom,lakik,-zik,2,PR2071,2003,nő,nem,2022-04-18_12h23.48.369,hesp_baseline,2021.2.3,Win32,90.09009009
,,,,,,,,,,,,,,,,,klidlok,klidlom,left,2.815,0,56,56,72,1,73,klidlik,klidlasz,NA,NA,Te bizony sokat klidlasz.,Én is sokat...,klidlok,klidlom,lakik,-lik,1,PR2071,2003,nő,nem,2022-04-18_12h23.48.369,hesp_baseline,2021.2.3,Win32,90.09009009
,,,,,,,,,,,,,,,,,hubonyoztok,hubonylotok,left,9.736,0,57,57,157,1,104,hubonylik / hubonyozik,"hubonylik, hubonyozni",tek,NA,"János imád hubonyozni, ezért sokat hubonylik.",Ti ritkán...,hubonylotok,hubonyoztok,cselekszik,-lik,2,PR2071,2003,nő,nem,2022-04-18_12h23.48.369,hesp_baseline,2021.2.3,Win32,90.09009009
,,,,,,,,,,,,,,,,,flerékedünk,flerékszünk,right,6.003,0,58,58,159,1,106,flerékszik / flerékedik,"flerékszik, flerékedni",ünk,NA,"János imád flerékedni, ezért sokat flerékszik.",Mi ritkán...,flerékszünk,flerékedünk,cselekszik,-szik,2,PR2071,2003,nő,nem,2022-04-18_12h23.48.369,hesp_baseline,2021.2.3,Win32,90.09009009
,,,,,,,,,,,,,,,,,dibáglotok,dibágoztok,right,3.957,0,59,59,154,1,101,dibáglik / dibágozik,"dibáglik, dibágozni",tek,NA,"János imád dibágozni, ezért sokat dibáglik.",Ti ritkán...,dibáglotok,dibágoztok,cselekszik,-lik,2,PR2071,2003,nő,nem,2022-04-18_12h23.48.369,hesp_baseline,2021.2.3,Win32,90.09009009
,,,,,,,,,,,,,,,,,sprebzenek,sprebeznek,left,13.634,0,60,60,139,1,86,sprebzik / sprebezik,"sprebzik, sprebezni",nek,NA,"János imád sprebezni, ezért sokat sprebzik.",Ők ritkán...,sprebzenek,sprebeznek,cselekszik,-zik,1,PR2071,2003,nő,nem,2022-04-18_12h23.48.369,hesp_baseline,2021.2.3,Win32,90.09009009
,,,,,,,,,,,,,,,,,spöközünk,spöklünk,right,4.48,0,61,61,130,1,77,spöklik / spöközik,"spöklik, spöközni",ünk,NA,"János imád spöközni, ezért sokat spöklik.",Mi ritkán...,spöklünk,spöközünk,cselekszik,-lik,1,PR2071,2003,nő,nem,2022-04-18_12h23.48.369,hesp_baseline,2021.2.3,Win32,90.09009009
,,,,,,,,,,,,,,,,,nyöbzenek,nyöböznek,left,5.559,0,62,62,152,1,99,nyöbzik / nyöbözik,"nyöbzik, nyöbözni",nek,NA,"János imád nyöbözni, ezért sokat nyöbzik.",Ők ritkán...,nyöbzenek,nyöböznek,cselekszik,-zik,1,PR2071,2003,nő,nem,2022-04-18_12h23.48.369,hesp_baseline,2021.2.3,Win32,90.09009009
,,,,,,,,,,,,,,,,,bribékszetek,bribékedtek,left,6.258,0,63,63,141,1,88,bribékszik / bribékedik,"bribékszik, bribékedni",tek,NA,"János imád bribékedni, ezért sokat bribékszik.",Ti ritkán...,bribékszetek,bribékedtek,cselekszik,-szik,2,PR2071,2003,nő,nem,2022-04-18_12h23.48.369,hesp_baseline,2021.2.3,Win32,90.09009009
,,,,,,,,,,,,,,,,,drojzunk,drojozunk,left,4.069,0,64,64,140,1,87,drojzik / drojozik,"drojzik, drojozni",ünk,NA,"János imád drojozni, ezért sokat drojzik.",Mi ritkán...,drojzunk,drojozunk,cselekszik,-zik,1,PR2071,2003,nő,nem,2022-04-18_12h23.48.369,hesp_baseline,2021.2.3,Win32,90.09009009
,,,,,,,,,,,,,,,,,sporzemnek,sporzemnak,left,3.947,0,65,65,26,1,81,sporzem,sporzem,nak,e,Ez itt egy sporzem.,Elneveztem a kutyámat...,sporzemnek,sporzemnak,dzsungel,NA,NA,PR2071,2003,nő,nem,2022-04-18_12h23.48.369,hesp_baseline,2021.2.3,Win32,90.09009009
,,,,,,,,,,,,,,,,,jábézben,jábézban,left,9.13,0,66,66,34,1,89,jábéz,jábéz,ban,é,Ez itt egy jábéz.,Ott vagyunk a...,jábézben,jábézban,dzsungel,NA,NA,PR2071,2003,nő,nem,2022-04-18_12h23.48.369,hesp_baseline,2021.2.3,Win32,90.09009009
,,,,,,,,,,,,,,,,,trugoznak,trugzanak,left,4.126,0,67,67,146,1,93,trugzik / trugozik,"trugzik, trugozni",nek,NA,"János imád trugozni, ezért sokat trugzik.",Ők ritkán...,trugzanak,trugoznak,cselekszik,-zik,1,PR2071,2003,nő,nem,2022-04-18_12h23.48.369,hesp_baseline,2021.2.3,Win32,90.09009009
,,,,,,,,,,,,,,,,,pivegszem,pivegszek,right,3.779,0,68,68,99,1,100,pivegszik,pivegszel,NA,NA,Te bizony sokat pivegszel.,Én is sokat...,pivegszek,pivegszem,lakik,-szik,2,PR2071,2003,nő,nem,2022-04-18_12h23.48.369,hesp_baseline,2021.2.3,Win32,90.09009009
,,,,,,,,,,,,,,,,,branylanak,branyoznak,left,5.213,0,69,69,136,1,83,branylik / branyozik,"branylik, branyozni",nek,NA,"János imád branyozni, ezért sokat branylik.",Ők ritkán...,branylanak,branyoznak,cselekszik,-lik,1,PR2071,2003,nő,nem,2022-04-18_12h23.48.369,hesp_baseline,2021.2.3,Win32,90.09009009
,,,,,,,,,,,,,,,,,tranékben,tranékban,left,6.056,0,70,70,2,1,57,tranék,tranék,ban,é,Ez itt egy tranék.,Ott vagyunk a...,tranékben,tranékban,dzsungel,NA,NA,PR2071,2003,nő,nem,2022-04-18_12h23.48.369,hesp_baseline,2021.2.3,Win32,90.09009009
,,,,,,,,,,,,,,,,,cságyeltben,cságyeltban,left,7.183,0,71,71,10,1,65,cságyelt,cságyelt,ban,e,Ez itt egy cságyelt.,Ott vagyunk a...,cságyeltben,cságyeltban,dzsungel,NA,NA,PR2071,2003,nő,nem,2022-04-18_12h23.48.369,hesp_baseline,2021.2.3,Win32,90.09009009
,,,,,,,,,,,,,,,,,dilakoztok,dilaklotok,left,4.014,0,72,72,158,1,105,dilaklik / dilakozik,"dilaklik, dilakozni",tek,NA,"János imád dilakozni, ezért sokat dilaklik.",Ti ritkán...,dilaklotok,dilakoztok,cselekszik,-lik,2,PR2071,2003,nő,nem,2022-04-18_12h23.48.369,hesp_baseline,2021.2.3,Win32,90.09009009
,,,,,,,,,,,,,,,,,huroslom,huroslok,right,2.682,0,73,73,76,1,77,huroslik,huroslasz,NA,NA,Te bizony sokat huroslasz.,Én is sokat...,huroslok,huroslom,lakik,-lik,2,PR2071,2003,nő,nem,2022-04-18_12h23.48.369,hesp_baseline,2021.2.3,Win32,90.09009009
,,,,,,,,,,,,,,,,,navecban,navecben,right,5.693,0,74,74,8,1,63,navec,navec,ban,e,Ez itt egy navec.,Ott vagyunk a...,navecben,navecban,dzsungel,NA,NA,PR2071,2003,nő,nem,2022-04-18_12h23.48.369,hesp_baseline,2021.2.3,Win32,90.09009009
,,,,,,,,,,,,,,,,,spáraklok,spáraklom,left,9.024,0,75,75,96,1,97,spáraklik,spáraklasz,NA,NA,Te bizony sokat spáraklasz.,Én is sokat...,spáraklok,spáraklom,lakik,-lik,2,PR2071,2003,nő,nem,2022-04-18_12h23.48.369,hesp_baseline,2021.2.3,Win32,90.09009009
,,,,,,,,,,,,,,,,,szanéjnek,szanéjnak,left,4.046,0,76,76,13,1,68,szanéj,szanéj,nak,é,Ez itt egy szanéj.,Elneveztem a kutyámat...,szanéjnek,szanéjnak,dzsungel,NA,NA,PR2071,2003,nő,nem,2022-04-18_12h23.48.369,hesp_baseline,2021.2.3,Win32,90.09009009
,,,,,,,,,,,,,,,,,jóbecnek,jóbecnak,left,5.226,0,77,77,11,1,66,jóbec,jóbec,nak,e,Ez itt egy jóbec.,Elneveztem a kutyámat...,jóbecnek,jóbecnak,dzsungel,NA,NA,PR2071,2003,nő,nem,2022-04-18_12h23.48.369,hesp_baseline,2021.2.3,Win32,90.09009009
,,,,,,,,,,,,,,,,,floglok,floglom,left,3.003,0,78,78,92,1,93,floglik,floglasz,NA,NA,Te bizony sokat floglasz.,Én is sokat...,floglok,floglom,lakik,-lik,1,PR2071,2003,nő,nem,2022-04-18_12h23.48.369,hesp_baseline,2021.2.3,Win32,90.09009009
,,,,,,,,,,,,,,,,,klajrénnak,klajrénnek,right,6.779,0,79,79,41,1,96,klajrén,klajrén,nak,é,Ez itt egy klajrén.,Elneveztem a kutyámat...,klajrénnek,klajrénnak,dzsungel,NA,NA,PR2071,2003,nő,nem,2022-04-18_12h23.48.369,hesp_baseline,2021.2.3,Win32,90.09009009
,,,,,,,,,,,,,,,,,bivégszek,bivégszem,left,2.713,0,80,80,68,1,69,bivégszik,bivégszel,NA,NA,Te bizony sokat bivégszel.,Én is sokat...,bivégszek,bivégszem,lakik,-szik,2,PR2071,2003,nő,nem,2022-04-18_12h23.48.369,hesp_baseline,2021.2.3,Win32,90.09009009
,,,,,,,,,,,,,,,,,szirlok,szirlom,left,2.35,0,81,81,62,1,63,szirlik,szirlasz,NA,NA,Te bizony sokat szirlasz.,Én is sokat...,szirlok,szirlom,lakik,-lik,1,PR2071,2003,nő,nem,2022-04-18_12h23.48.369,hesp_baseline,2021.2.3,Win32,90.09009009
,,,,,,,,,,,,,,,,,nidétben,nidétban,left,10.181,0,82,82,39,1,94,nidét,nidét,ban,é,Ez itt egy nidét.,Ott vagyunk a...,nidétben,nidétban,dzsungel,NA,NA,PR2071,2003,nő,nem,2022-04-18_12h23.48.369,hesp_baseline,2021.2.3,Win32,90.09009009
,,,,,,,,,,,,,,,,,lingéknál,lingéknél,right,5.37,0,83,83,32,1,87,lingék,lingék,nál,é,Ez itt egy lingék.,Nincs is jobb egy jó...,lingéknél,lingéknál,dzsungel,NA,NA,PR2071,2003,nő,nem,2022-04-18_12h23.48.369,hesp_baseline,2021.2.3,Win32,90.09009009
,,,,,,,,,,,,,,,,,klűmlötök,klűmöztök,left,7.881,0,84,84,108,1,55,klűmlik / klűmözik,"klűmlik, klűmözni",tek,NA,"János imád klűmözni, ezért sokat klűmlik.",Ti ritkán...,klűmlötök,klűmöztök,cselekszik,-lik,1,PR2071,2003,nő,nem,2022-04-18_12h23.48.369,hesp_baseline,2021.2.3,Win32,90.09009009
,,,,,,,,,,,,,,,,,dingecnak,dingecnek,right,3.69,0,85,85,42,1,97,dingec,dingec,nak,e,Ez itt egy dingec.,Elneveztem a kutyámat...,dingecnek,dingecnak,dzsungel,NA,NA,PR2071,2003,nő,nem,2022-04-18_12h23.48.369,hesp_baseline,2021.2.3,Win32,90.09009009
,,,,,,,,,,,,,,,,,pratelynak,pratelynek,right,6.038,0,86,86,47,1,102,prately,prately,nak,e,Ez itt egy prately.,Elneveztem a kutyámat...,pratelynek,pratelynak,dzsungel,NA,NA,PR2071,2003,nő,nem,2022-04-18_12h23.48.369,hesp_baseline,2021.2.3,Win32,90.09009009
,,,,,,,,,,,,,,,,,gyihegeztek,gyihegzetek,left,6.561,0,87,87,124,1,71,gyihegzik / gyihegezik,"gyihegzik, gyihegezni",tek,NA,"János imád gyihegezni, ezért sokat gyihegzik.",Ti ritkán...,gyihegzetek,gyihegeztek,cselekszik,-zik,2,PR2071,2003,nő,nem,2022-04-18_12h23.48.369,hesp_baseline,2021.2.3,Win32,90.09009009
,,,,,,,,,,,,,,,,,frodlom,frodlok,right,3.495,0,88,88,61,1,62,frodlik,frodlasz,NA,NA,Te bizony sokat frodlasz.,Én is sokat...,frodlok,frodlom,lakik,-lik,1,PR2071,2003,nő,nem,2022-04-18_12h23.48.369,hesp_baseline,2021.2.3,Win32,90.09009009
,,,,,,,,,,,,,,,,,csíszlom,csíszlok,right,7.793,0,89,89,84,1,85,csíszlik,csíszlasz,NA,NA,Te bizony sokat csíszlasz.,Én is sokat...,csíszlok,csíszlom,lakik,-lik,1,PR2071,2003,nő,nem,2022-04-18_12h23.48.369,hesp_baseline,2021.2.3,Win32,90.09009009
,,,,,,,,,,,,,,,,,gihesztnek,gihesztnak,left,2.476,0,90,90,36,1,91,giheszt,giheszt,nak,e,Ez itt egy giheszt.,Elneveztem a kutyámat...,gihesztnek,gihesztnak,dzsungel,NA,NA,PR2071,2003,nő,nem,2022-04-18_12h23.48.369,hesp_baseline,2021.2.3,Win32,90.09009009
,,,,,,,,,,,,,,,,,bingéjnek,bingéjnak,left,4.682,0,91,91,49,1,104,bingéj,bingéj,nak,é,Ez itt egy bingéj.,Elneveztem a kutyámat...,bingéjnek,bingéjnak,dzsungel,NA,NA,PR2071,2003,nő,nem,2022-04-18_12h23.48.369,hesp_baseline,2021.2.3,Win32,90.09009009
,,,,,,,,,,,,,,,,,dineltban,dineltben,right,2.401,0,92,92,0,1,55,dinelt,dinelt,ban,e,Ez itt egy dinelt.,Ott vagyunk a...,dineltben,dineltban,dzsungel,NA,NA,PR2071,2003,nő,nem,2022-04-18_12h23.48.369,hesp_baseline,2021.2.3,Win32,90.09009009
,,,,,,,,,,,,,,,,,flátszom,flátszok,left,3.538,0,93,93,98,1,99,flátszik,flátszol,NA,NA,Te bizony sokat flátszol.,Én is sokat...,flátszok,flátszom,lakik,-szik,1,PR2071,2003,nő,nem,2022-04-18_12h23.48.369,hesp_baseline,2021.2.3,Win32,90.09009009
,,,,,,,,,,,,,,,,,flibekszek,flibekszem,right,12.515,0,94,94,93,1,94,flibekszik,flibekszel,NA,NA,Te bizony sokat flibekszel.,Én is sokat...,flibekszek,flibekszem,lakik,-szik,2,PR2071,2003,nő,nem,2022-04-18_12h23.48.369,hesp_baseline,2021.2.3,Win32,90.09009009
,,,,,,,,,,,,,,,,,poslotok,posoztok,right,8.548,0,95,95,121,1,68,poslik / posozik,"poslik, posozni",tek,NA,"János imád posozni, ezért sokat poslik.",Ti ritkán...,poslotok,posoztok,cselekszik,-lik,1,PR2071,2003,nő,nem,2022-04-18_12h23.48.369,hesp_baseline,2021.2.3,Win32,90.09009009
,,,,,,,,,,,,,,,,,tumélynél,tumélynál,left,2.147,0,96,96,28,1,83,tumély,tumély,nál,é,Ez itt egy tumély.,Nincs is jobb egy jó...,tumélynél,tumélynál,dzsungel,NA,NA,PR2071,2003,nő,nem,2022-04-18_12h23.48.369,hesp_baseline,2021.2.3,Win32,90.09009009
,,,,,,,,,,,,,,,,,zsigénnál,zsigénnél,right,8.36,0,97,97,12,1,67,zsigén,zsigén,nál,é,Ez itt egy zsigén.,Nincs is jobb egy jó...,zsigénnél,zsigénnál,dzsungel,NA,NA,PR2071,2003,nő,nem,2022-04-18_12h23.48.369,hesp_baseline,2021.2.3,Win32,90.09009009
,,,,,,,,,,,,,,,,,flagánylom,flagánylok,right,5.068,0,98,98,82,1,83,flagánylik,flagánylasz,NA,NA,Te bizony sokat flagánylasz.,Én is sokat...,flagánylok,flagánylom,lakik,-lik,2,PR2071,2003,nő,nem,2022-04-18_12h23.48.369,hesp_baseline,2021.2.3,Win32,90.09009009
,,,,,,,,,,,,,,,,,dabzotok,daboztok,left,3.903,0,99,99,109,1,56,dabzik / dabozik,"dabzik, dabozni",tek,NA,"János imád dabozni, ezért sokat dabzik.",Ti ritkán...,dabzotok,daboztok,cselekszik,-zik,1,PR2071,2003,nő,nem,2022-04-18_12h23.48.369,hesp_baseline,2021.2.3,Win32,90.09009009
,,,,,,,,,,,,,,,,,zihencnek,zihencnak,left,6.898,0,100,100,52,1,107,zihenc,zihenc,nak,e,Ez itt egy zihenc.,Elneveztem a kutyámat...,zihencnek,zihencnak,dzsungel,NA,NA,PR2071,2003,nő,nem,2022-04-18_12h23.48.369,hesp_baseline,2021.2.3,Win32,90.09009009
,,,,,,,,,,,,,,,,,ribzok,ribzom,left,5.813,0,101,101,58,1,59,ribzik,ribzol,NA,NA,Te bizony sokat ribzol.,Én is sokat...,ribzok,ribzom,lakik,-zik,1,PR2071,2003,nő,nem,2022-04-18_12h23.48.369,hesp_baseline,2021.2.3,Win32,90.09009009
,,,,,,,,,,,,,,,,,spüjzök,spüjzöm,left,16.238,0,102,102,59,1,60,spüjzik,spüjzöl,NA,NA,Te bizony sokat spüjzöl.,Én is sokat...,spüjzök,spüjzöm,lakik,-zik,1,PR2071,2003,nő,nem,2022-04-18_12h23.48.369,hesp_baseline,2021.2.3,Win32,90.09009009
,,,,,,,,,,,,,,,,,kumlom,kumlok,right,2.738,0,103,103,105,1,106,kumlik,kumlasz,NA,NA,Te bizony sokat kumlasz.,Én is sokat...,kumlok,kumlom,lakik,-lik,1,PR2071,2003,nő,nem,2022-04-18_12h23.48.369,hesp_baseline,2021.2.3,Win32,90.09009009
,,,,,,,,,,,,,,,,,brágaklok,brágaklom,left,3.392,0,104,104,71,1,72,brágaklik,brágaklasz,NA,NA,Te bizony sokat brágaklasz.,Én is sokat...,brágaklok,brágaklom,lakik,-lik,2,PR2071,2003,nő,nem,2022-04-18_12h23.48.369,hesp_baseline,2021.2.3,Win32,90.09009009
,,,,,,,,,,,,,,,,,sponylanak,sponyoznak,left,4.192,0,105,105,125,1,72,sponylik / sponyozik,"sponylik, sponyozni",nek,NA,"János imád sponyozni, ezért sokat sponylik.",Ők ritkán...,sponylanak,sponyoznak,cselekszik,-lik,1,PR2071,2003,nő,nem,2022-04-18_12h23.48.369,hesp_baseline,2021.2.3,Win32,90.09009009
,,,,,,,,,,,,,,,,,gúdenben,gúdenban,left,15.601,0,106,106,4,1,59,gúden,gúden,ban,e,Ez itt egy gúden.,Ott vagyunk a...,gúdenben,gúdenban,dzsungel,NA,NA,PR2071,2003,nő,nem,2022-04-18_12h23.48.369,hesp_baseline,2021.2.3,Win32,90.09009009
,,,,,,,,,,,,,,,,,fréslünk,frésezünk,left,4.56,0,107,107,138,1,85,fréslik / frésezik,"fréslik, frésezni",ünk,NA,"János imád frésezni, ezért sokat fréslik.",Mi ritkán...,fréslünk,frésezünk,cselekszik,-lik,1,PR2071,2003,nő,nem,2022-04-18_12h23.48.369,hesp_baseline,2021.2.3,Win32,90.09009009
,,,,,,,,,,,,,,,,,flodoztok,flodlotok,left,3.048,0,108,108,144,1,91,flodlik / flodozik,"flodlik, flodozni",tek,NA,"János imád flodozni, ezért sokat flodlik.",Ti ritkán...,flodlotok,flodoztok,cselekszik,-lik,1,PR2071,2003,nő,nem,2022-04-18_12h23.48.369,hesp_baseline,2021.2.3,Win32,90.09009009
,,,,,,,,,,,,,,,,,livénylünk,livényezünk,left,4.335,0,109,109,128,1,75,livénylik / livényezik,"livénylik, livényezni",ünk,NA,"János imád livényezni, ezért sokat livénylik.",Mi ritkán...,livénylünk,livényezünk,cselekszik,-lik,2,PR2071,2003,nő,nem,2022-04-18_12h23.48.369,hesp_baseline,2021.2.3,Win32,90.09009009
,,,,,,,,,,,,,,,,,spátennek,spátennak,left,4.414,0,110,110,33,1,88,spáten,spáten,nak,e,Ez itt egy spáten.,Elneveztem a kutyámat...,spátennek,spátennak,dzsungel,NA,NA,PR2071,2003,nő,nem,2022-04-18_12h23.48.369,hesp_baseline,2021.2.3,Win32,90.09009009
,,,,,,,,,,,,,,,,,tiregzek,tiregzem,left,4.579,0,111,111,64,1,65,tiregzik,tiregzel,NA,NA,Te bizony sokat tiregzel.,Én is sokat...,tiregzek,tiregzem,lakik,-zik,2,PR2071,2003,nő,nem,2022-04-18_12h23.48.369,hesp_baseline,2021.2.3,Win32,90.09009009
,,,,,,,,,,,,,,,,,spügözünk,spügzünk,right,20.459,0,112,112,143,1,90,spügzik / spügözik,"spügzik, spügözni",ünk,NA,"János imád spügözni, ezért sokat spügzik.",Mi ritkán...,spügzünk,spügözünk,cselekszik,-zik,1,PR2071,2003,nő,nem,2022-04-18_12h23.48.369,hesp_baseline,2021.2.3,Win32,90.09009009
,,,,,,,,,,,,,,,,,flűmlök,flűmlöm,left,4.469,0,113,113,54,1,55,flűmlik,flűmlesz,NA,NA,Te bizony sokat flűmlesz.,Én is sokat...,flűmlök,flűmlöm,lakik,-lik,1,PR2071,2003,nő,nem,2022-04-18_12h23.48.369,hesp_baseline,2021.2.3,Win32,90.09009009
,,,,,,,,,,,,,,,,,driládzok,driládzom,left,4.882,0,114,114,67,1,68,driládzik,driládzol,NA,NA,Te bizony sokat driládzol.,Én is sokat...,driládzok,driládzom,lakik,-zik,2,PR2071,2003,nő,nem,2022-04-18_12h23.48.369,hesp_baseline,2021.2.3,Win32,90.09009009
,,,,,,,,,,,,,,,,,csintékban,csintékben,right,44.437,0,115,115,23,1,78,csinték,csinték,ban,é,Ez itt egy csinték.,Ott vagyunk a...,csintékben,csintékban,dzsungel,NA,NA,PR2071,2003,nő,nem,2022-04-18_12h23.48.369,hesp_baseline,2021.2.3,Win32,90.09009009
,,,,,,,,,,,,,,,,,forzédnek,forzédnak,left,5.159,0,116,116,46,1,101,forzéd,forzéd,nak,é,Ez itt egy forzéd.,Elneveztem a kutyámat...,forzédnek,forzédnak,dzsungel,NA,NA,PR2071,2003,nő,nem,2022-04-18_12h23.48.369,hesp_baseline,2021.2.3,Win32,90.09009009
,,,,,,,,,,,,,,,,,dihelynak,dihelynek,right,28.248,0,117,117,20,1,75,dihely,dihely,nak,e,Ez itt egy dihely.,Elneveztem a kutyámat...,dihelynek,dihelynak,dzsungel,NA,NA,PR2071,2003,nő,nem,2022-04-18_12h23.48.369,hesp_baseline,2021.2.3,Win32,90.09009009
,,,,,,,,,,,,,,,,,trigencnek,trigencnak,left,4.494,0,118,118,31,1,86,trigenc,trigenc,nak,e,Ez itt egy trigenc.,Elneveztem a kutyámat...,trigencnek,trigencnak,dzsungel,NA,NA,PR2071,2003,nő,nem,2022-04-18_12h23.48.369,hesp_baseline,2021.2.3,Win32,90.09009009
,,,,,,,,,,,,,,,,,flűgözünk,flűgzünk,right,7.858,0,119,119,160,1,107,flűgzik / flűgözik,"flűgzik, flűgözni",ünk,NA,"János imád flűgözni, ezért sokat flűgzik.",Mi ritkán...,flűgzünk,flűgözünk,cselekszik,-zik,1,PR2071,2003,nő,nem,2022-04-18_12h23.48.369,hesp_baseline,2021.2.3,Win32,90.09009009
,,,,,,,,,,,,,,,,,brágédnek,brágédnak,left,2.671,0,120,120,45,1,100,brágéd,brágéd,nak,é,Ez itt egy brágéd.,Elneveztem a kutyámat...,brágédnek,brágédnak,dzsungel,NA,NA,PR2071,2003,nő,nem,2022-04-18_12h23.48.369,hesp_baseline,2021.2.3,Win32,90.09009009
,,,,,,,,,,,,,,,,,péleslem,péleslek,right,53.835,0,121,121,73,1,74,péleslik,péleslesz,NA,NA,Te bizony sokat péleslesz.,Én is sokat...,péleslek,péleslem,lakik,-lik,2,PR2071,2003,nő,nem,2022-04-18_12h23.48.369,hesp_baseline,2021.2.3,Win32,90.09009009
,,,,,,,,,,,,,,,,,fröjzötök,fröjöztök,right,2.179,0,122,122,153,1,100,fröjzik / fröjözik,"fröjzik, fröjözni",tek,NA,"János imád fröjözni, ezért sokat fröjzik.",Ti ritkán...,fröjzötök,fröjöztök,cselekszik,-zik,1,PR2071,2003,nő,nem,2022-04-18_12h23.48.369,hesp_baseline,2021.2.3,Win32,90.09009009
,,,,,,,,,,,,,,,,,metégednek,metégszenek,left,13.549,0,123,123,112,1,59,metégszik / metégedik,"metégszik, metégedni",nek,NA,"János imád metégedni, ezért sokat metégszik.",Ők ritkán...,metégszenek,metégednek,cselekszik,-szik,2,PR2071,2003,nő,nem,2022-04-18_12h23.48.369,hesp_baseline,2021.2.3,Win32,90.09009009
,,,,,,,,,,,,,,,,,nűröklöm,nűröklök,right,5.89,0,124,124,106,1,107,nűröklik,nűröklesz,NA,NA,Te bizony sokat nűröklesz.,Én is sokat...,nűröklök,nűröklöm,lakik,-lik,2,PR2071,2003,nő,nem,2022-04-18_12h23.48.369,hesp_baseline,2021.2.3,Win32,90.09009009
,,,,,,,,,,,,,,,,,kluzlotok,kluzoztok,left,3.071,0,125,125,148,1,95,kluzlik / kluzozik,"kluzlik, kluzozni",tek,NA,"János imád kluzozni, ezért sokat kluzlik.",Ti ritkán...,kluzlotok,kluzoztok,cselekszik,-lik,1,PR2071,2003,nő,nem,2022-04-18_12h23.48.369,hesp_baseline,2021.2.3,Win32,90.09009009
,,,,,,,,,,,,,,,,,flűröklök,flűröklöm,left,2.079,0,126,126,91,1,92,flűröklik,flűröklesz,NA,NA,Te bizony sokat flűröklesz.,Én is sokat...,flűröklök,flűröklöm,lakik,-lik,2,PR2071,2003,nő,nem,2022-04-18_12h23.48.369,hesp_baseline,2021.2.3,Win32,90.09009009
,,,,,,,,,,,,,,,,,csólorzok,csólorzom,left,5.849,0,127,127,102,1,103,csólorzik,csólorzol,NA,NA,Te bizony sokat csólorzol.,Én is sokat...,csólorzok,csólorzom,lakik,-zik,2,PR2071,2003,nő,nem,2022-04-18_12h23.48.369,hesp_baseline,2021.2.3,Win32,90.09009009
,,,,,,,,,,,,,,,,,fájézban,fájézben,left,4.247,0,128,128,7,1,62,fájéz,fájéz,ban,é,Ez itt egy fájéz.,Ott vagyunk a...,fájézben,fájézban,dzsungel,NA,NA,PR2071,2003,nő,nem,2022-04-18_12h23.48.369,hesp_baseline,2021.2.3,Win32,90.09009009
,,,,,,,,,,,,,,,,,kátédnál,kátédnél,right,10.004,0,129,129,37,1,92,kátéd,kátéd,nál,é,Ez itt egy kátéd.,Nincs is jobb egy jó...,kátédnél,kátédnál,dzsungel,NA,NA,PR2071,2003,nő,nem,2022-04-18_12h23.48.369,hesp_baseline,2021.2.3,Win32,90.09009009
,,,,,,,,,,,,,,,,,sprűrlenek,sprűröznek,left,4.545,0,130,130,135,1,82,sprűrlik / sprűrözik,"sprűrlik, sprűrözni",nek,NA,"János imád sprűrözni, ezért sokat sprűrlik.",Ők ritkán...,sprűrlenek,sprűröznek,cselekszik,-lik,1,PR2071,2003,nő,nem,2022-04-18_12h23.48.369,hesp_baseline,2021.2.3,Win32,90.09009009
,,,,,,,,,,,,,,,,,flemlünk,flemezünk,right,7.292,0,131,131,137,1,84,flemlik / flemezik,"flemlik, flemezni",ünk,NA,"János imád flemezni, ezért sokat flemlik.",Mi ritkán...,flemlünk,flemezünk,cselekszik,-lik,1,PR2071,2003,nő,nem,2022-04-18_12h23.48.369,hesp_baseline,2021.2.3,Win32,90.09009009
,,,,,,,,,,,,,,,,,jonylok,jonylom,left,4.249,0,132,132,55,1,56,jonylik,jonylasz,NA,NA,Te bizony sokat jonylasz.,Én is sokat...,jonylok,jonylom,lakik,-lik,1,PR2071,2003,nő,nem,2022-04-18_12h23.48.369,hesp_baseline,2021.2.3,Win32,90.09009009
,,,,,,,,,,,,,,,,,ítensban,ítensben,right,3.015,0,133,133,50,1,105,ítens,ítens,ban,e,Ez itt egy ítens.,Ott vagyunk a...,ítensben,ítensban,dzsungel,NA,NA,PR2071,2003,nő,nem,2022-04-18_12h23.48.369,hesp_baseline,2021.2.3,Win32,90.09009009
,,,,,,,,,,,,,,,,,klazérban,klazérben,right,3.827,0,134,134,51,1,106,klazér,klazér,ban,é,Ez itt egy klazér.,Ott vagyunk a...,klazérben,klazérban,dzsungel,NA,NA,PR2071,2003,nő,nem,2022-04-18_12h23.48.369,hesp_baseline,2021.2.3,Win32,90.09009009
,,,,,,,,,,,,,,,,,klítegynál,klítegynél,right,4.414,0,135,135,5,1,60,klítegy,klítegy,nál,e,Ez itt egy klítegy.,Nincs is jobb egy jó...,klítegynél,klítegynál,dzsungel,NA,NA,PR2071,2003,nő,nem,2022-04-18_12h23.48.369,hesp_baseline,2021.2.3,Win32,90.09009009
,,,,,,,,,,,,,,,,,praslok,praslom,left,2.036,0,136,136,80,1,81,praslik,praslasz,NA,NA,Te bizony sokat praslasz.,Én is sokat...,praslok,praslom,lakik,-lik,1,PR2071,2003,nő,nem,2022-04-18_12h23.48.369,hesp_baseline,2021.2.3,Win32,90.09009009
,,,,,,,,,,,,,,,,,ruslok,ruslom,left,1.537,0,137,137,83,1,84,ruslik,ruslasz,NA,NA,Te bizony sokat ruslasz.,Én is sokat...,ruslok,ruslom,lakik,-lik,1,PR2071,2003,nő,nem,2022-04-18_12h23.48.369,hesp_baseline,2021.2.3,Win32,90.09009009
,,,,,,,,,,,,,,,,,spatárzok,spatárzom,left,3.337,0,138,138,69,1,70,spatárzik,spatárzol,NA,NA,Te bizony sokat spatárzol.,Én is sokat...,spatárzok,spatárzom,lakik,-zik,2,PR2071,2003,nő,nem,2022-04-18_12h23.48.369,hesp_baseline,2021.2.3,Win32,90.09009009
,,,,,,,,,,,,,,,,,prohódzok,prohódzom,left,1.737,0,139,139,66,1,67,prohódzik,prohódzol,NA,NA,Te bizony sokat prohódzol.,Én is sokat...,prohódzok,prohódzom,lakik,-zik,2,PR2071,2003,nő,nem,2022-04-18_12h23.48.369,hesp_baseline,2021.2.3,Win32,90.09009009
,,,,,,,,,,,,,,,,,juszlom,juszlok,right,1.515,0,140,140,79,1,80,juszlik,juszlasz,NA,NA,Te bizony sokat juszlasz.,Én is sokat...,juszlok,juszlom,lakik,-lik,1,PR2071,2003,nő,nem,2022-04-18_12h23.48.369,hesp_baseline,2021.2.3,Win32,90.09009009
,,,,,,,,,,,,,,,,,gihamlanak,gihamoznak,left,3.704,0,141,141,133,1,80,gihamlik / gihamozik,"gihamlik, gihamozni",nek,NA,"János imád gihamozni, ezért sokat gihamlik.",Ők ritkán...,gihamlanak,gihamoznak,cselekszik,-lik,2,PR2071,2003,nő,nem,2022-04-18_12h23.48.369,hesp_baseline,2021.2.3,Win32,90.09009009
,,,,,,,,,,,,,,,,,plugzok,plugzom,left,5.414,0,142,142,60,1,61,plugzik,plugzol,NA,NA,Te bizony sokat plugzol.,Én is sokat...,plugzok,plugzom,lakik,-zik,1,PR2071,2003,nő,nem,2022-04-18_12h23.48.369,hesp_baseline,2021.2.3,Win32,90.09009009
,,,,,,,,,,,,,,,,,lorjódzom,lorjódzok,right,1.871,0,143,143,88,1,89,lorjódzik,lorjódzol,NA,NA,Te bizony sokat lorjódzol.,Én is sokat...,lorjódzok,lorjódzom,lakik,-zik,2,PR2071,2003,nő,nem,2022-04-18_12h23.48.369,hesp_baseline,2021.2.3,Win32,90.09009009
,,,,,,,,,,,,,,,,,figlok,figlom,left,1.461,0,144,144,75,1,76,figlik,figlasz,NA,NA,Te bizony sokat figlasz.,Én is sokat...,figlok,figlom,lakik,-lik,1,PR2071,2003,nő,nem,2022-04-18_12h23.48.369,hesp_baseline,2021.2.3,Win32,90.09009009
,,,,,,,,,,,,,,,,,flehékszem,flehékszek,right,1.425,0,145,145,77,1,78,flehékszik,flehékszel,NA,NA,Te bizony sokat flehékszel.,Én is sokat...,flehékszek,flehékszem,lakik,-szik,2,PR2071,2003,nő,nem,2022-04-18_12h23.48.369,hesp_baseline,2021.2.3,Win32,90.09009009
,,,,,,,,,,,,,,,,,sojzom,sojzok,right,1.417,0,146,146,74,1,75,sojzik,sojzol,NA,NA,Te bizony sokat sojzol.,Én is sokat...,sojzok,sojzom,lakik,-zik,1,PR2071,2003,nő,nem,2022-04-18_12h23.48.369,hesp_baseline,2021.2.3,Win32,90.09009009
,,,,,,,,,,,,,,,,,pratánylom,pratánylok,right,1.628,0,147,147,95,1,96,pratánylik,pratánylasz,NA,NA,Te bizony sokat pratánylasz.,Én is sokat...,pratánylok,pratánylom,lakik,-lik,2,PR2071,2003,nő,nem,2022-04-18_12h23.48.369,hesp_baseline,2021.2.3,Win32,90.09009009
,,,,,,,,,,,,,,,,,ribegzem,ribegzek,right,2.692,0,148,148,63,1,64,ribegzik,ribegzel,NA,NA,Te bizony sokat ribegzel.,Én is sokat...,ribegzek,ribegzem,lakik,-zik,2,PR2071,2003,nő,nem,2022-04-18_12h23.48.369,hesp_baseline,2021.2.3,Win32,90.09009009
,,,,,,,,,,,,,,,,,spihegzem,spihegzek,right,1.071,0,149,149,81,1,82,spihegzik,spihegzel,NA,NA,Te bizony sokat spihegzel.,Én is sokat...,spihegzek,spihegzem,lakik,-zik,2,PR2071,2003,nő,nem,2022-04-18_12h23.48.369,hesp_baseline,2021.2.3,Win32,90.09009009
,,,,,,,,,,,,,,,,,sortemnál,sortemnél,right,3.944,0,150,150,15,1,70,sortem,sortem,nál,e,Ez itt egy sortem.,Nincs is jobb egy jó...,sortemnél,sortemnál,dzsungel,NA,NA,PR2071,2003,nő,nem,2022-04-18_12h23.48.369,hesp_baseline,2021.2.3,Win32,90.09009009
,,,,,,,,,,,,,,,,,ikszertben,ikszertban,left,3.119,0,151,151,19,1,74,ikszert,ikszert,ban,e,Ez itt egy ikszert.,Ott vagyunk a...,ikszertben,ikszertban,dzsungel,NA,NA,PR2071,2003,nő,nem,2022-04-18_12h23.48.369,hesp_baseline,2021.2.3,Win32,90.09009009
,,,,,,,,,,,,,,,,,flüröklötök,flürököztök,right,5.936,0,152,152,149,1,96,flüröklik / flüröközik,"flüröklik, flüröközni",tek,NA,"János imád flüröközni, ezért sokat flüröklik.",Ti ritkán...,flüröklötök,flürököztök,cselekszik,-lik,2,PR2071,2003,nő,nem,2022-04-18_12h23.48.369,hesp_baseline,2021.2.3,Win32,90.09009009
,,,,,,,,,,,,,,,,,hákszanak,hákodnak,right,4.815,0,153,153,150,1,97,hákszik / hákodik,"hákszik, hákodni",nek,NA,"János imád hákodni, ezért sokat hákszik.",Ők ritkán...,hákszanak,hákodnak,cselekszik,-szik,1,PR2071,2003,nő,nem,2022-04-18_12h23.48.369,hesp_baseline,2021.2.3,Win32,90.09009009
,,,,,,,,,,,,,,,,,csimennél,csimennál,left,2.782,0,154,154,44,1,99,csimen,csimen,nál,e,Ez itt egy csimen.,Nincs is jobb egy jó...,csimennél,csimennál,dzsungel,NA,NA,PR2071,2003,nő,nem,2022-04-18_12h23.48.369,hesp_baseline,2021.2.3,Win32,90.09009009
,,,,,,,,,,,,,,,,,sprigzotok,sprigoztok,right,2.381,0,155,155,129,1,76,sprigzik / sprigozik,"sprigzik, sprigozni",tek,NA,"János imád sprigozni, ezért sokat sprigzik.",Ti ritkán...,sprigzotok,sprigoztok,cselekszik,-zik,1,PR2071,2003,nő,nem,2022-04-18_12h23.48.369,hesp_baseline,2021.2.3,Win32,90.09009009
,,,,,,,,,,,,,,,,,fibamlok,fibamlom,left,2.369,0,156,156,65,1,66,fibamlik,fibamlasz,NA,NA,Te bizony sokat fibamlasz.,Én is sokat...,fibamlok,fibamlom,lakik,-lik,2,PR2071,2003,nő,nem,2022-04-18_12h23.48.369,hesp_baseline,2021.2.3,Win32,90.09009009
,,,,,,,,,,,,,,,,,frálaslanak,frálasoznak,left,6.08,0,157,157,110,1,57,frálaslik / frálasozik,"frálaslik, frálasozni",nek,NA,"János imád frálasozni, ezért sokat frálaslik.",Ők ritkán...,frálaslanak,frálasoznak,cselekszik,-lik,2,PR2071,2003,nő,nem,2022-04-18_12h23.48.369,hesp_baseline,2021.2.3,Win32,90.09009009
,,,,,,,,,,,,,,,,,femlem,femlek,right,2.524,0,158,158,57,1,58,femlik,femlesz,NA,NA,Te bizony sokat femlesz.,Én is sokat...,femlek,femlem,lakik,-lik,1,PR2071,2003,nő,nem,2022-04-18_12h23.48.369,hesp_baseline,2021.2.3,Win32,90.09009009
,,,,,,,,,,,,,,,,,fupétnél,fupétnál,left,6.693,0,159,159,14,1,69,fupét,fupét,nál,é,Ez itt egy fupét.,Nincs is jobb egy jó...,fupétnél,fupétnál,dzsungel,NA,NA,PR2071,2003,nő,nem,2022-04-18_12h23.48.369,hesp_baseline,2021.2.3,Win32,90.09009009
,,,,,,,,,,,,,,,,,nuroklunk,nurokozunk,left,2.669,0,160,160,131,1,78,nuroklik / nurokozik,"nuroklik, nurokozni",ünk,NA,"János imád nurokozni, ezért sokat nuroklik.",Mi ritkán...,nuroklunk,nurokozunk,cselekszik,-lik,2,PR2071,2003,nő,nem,2022-04-18_12h23.48.369,hesp_baseline,2021.2.3,Win32,90.09009009
,,,,,,,,,,,,,,,,,flitlok,flitlom,left,1.659,0,161,161,90,1,91,flitlik,flitlasz,NA,NA,Te bizony sokat flitlasz.,Én is sokat...,flitlok,flitlom,lakik,-lik,1,PR2071,2003,nő,nem,2022-04-18_12h23.48.369,hesp_baseline,2021.2.3,Win32,90.09009009
