my_list,key.keys,key.rt,key_2.keys,key_2.rt,keyboard_input_2.keys,keyboard_input_2.rt,key_3.keys,key_3.rt,keyboard_input_3.keys,keyboard_input_3.rt,key_4.keys,key_4.rt,keyboard_input_4.keys,keyboard_input_4.rt,key_5.keys,key_5.rt,my_button1,my_button2,keyboard_input.keys,keyboard_input.rt,withinBlock.thisRepN,withinBlock.thisTrialN,withinBlock.thisN,withinBlock.thisIndex,withinBlock.ran,rowname,word,prompt,suffix,vowel,carrier_sentence,target_sentence,target1,target2,category,derivational,nsyl,Azonosító,Melyik évben születtél?,Mi a nemed?,Tanultál nyelvészetet?,date,expName,psychopyVersion,OS,frameRate
list2.csv,space,18.0159,space,5.8114,right,8.3789,space,9.2388,left,7.2533,space,3.1613,left,7.3606,space,4.9448,brivegzem,brivegzek,right,9.6584,0,0,0,70,1,71,brivegzik,brivegzel,NA,NA,Te bizony sokat brivegzel.,Én is sokat...,brivegzek,brivegzem,lakik,-zik,2,PR2035,1983,nő,nem,2022-04-12_18h30.31.020,hesp_baseline,2021.2.3,Win32,59.99880002
,,,,,,,,,,,,,,,,,klehényletek,klehényeztek,right,8.0789,0,1,1,113,1,60,klehénylik / klehényezik,"klehénylik, klehényezni",tek,NA,"János imád klehényezni, ezért sokat klehénylik.",Ti ritkán...,klehényletek,klehényeztek,cselekszik,-lik,2,PR2035,1983,nő,nem,2022-04-12_18h30.31.020,hesp_baseline,2021.2.3,Win32,59.99880002
,,,,,,,,,,,,,,,,,ikszertban,ikszertben,right,4.8606,0,2,2,19,1,74,ikszert,ikszert,ban,e,Ez itt egy ikszert.,Ott vagyunk a...,ikszertben,ikszertban,dzsungel,NA,NA,PR2035,1983,nő,nem,2022-04-12_18h30.31.020,hesp_baseline,2021.2.3,Win32,59.99880002
,,,,,,,,,,,,,,,,,nyádlanak,nyádoznak,right,13.0645,0,3,3,120,1,67,nyádlik / nyádozik,"nyádlik, nyádozni",nek,NA,"János imád nyádozni, ezért sokat nyádlik.",Ők ritkán...,nyádlanak,nyádoznak,cselekszik,-lik,1,PR2035,1983,nő,nem,2022-04-12_18h30.31.020,hesp_baseline,2021.2.3,Win32,59.99880002
,,,,,,,,,,,,,,,,,mihágzotok,mihágoztok,right,10.9632,0,4,4,118,1,65,mihágzik / mihágozik,"mihágzik, mihágozni",tek,NA,"János imád mihágozni, ezért sokat mihágzik.",Ti ritkán...,mihágzotok,mihágoztok,cselekszik,-zik,2,PR2035,1983,nő,nem,2022-04-12_18h30.31.020,hesp_baseline,2021.2.3,Win32,59.99880002
,,,,,,,,,,,,,,,,,zihencnek,zihencnak,left,6.7323,0,5,5,52,1,107,zihenc,zihenc,nak,e,Ez itt egy zihenc.,Elneveztem a kutyámat...,zihencnek,zihencnak,dzsungel,NA,NA,PR2035,1983,nő,nem,2022-04-12_18h30.31.020,hesp_baseline,2021.2.3,Win32,59.99880002
,,,,,,,,,,,,,,,,,flitlok,flitlom,left,9.8609,0,6,6,90,1,91,flitlik,flitlasz,NA,NA,Te bizony sokat flitlasz.,Én is sokat...,flitlok,flitlom,lakik,-lik,1,PR2035,1983,nő,nem,2022-04-12_18h30.31.020,hesp_baseline,2021.2.3,Win32,59.99880002
,,,,,,,,,,,,,,,,,sponyoznak,sponylanak,left,13.0934,0,7,7,125,1,72,sponylik / sponyozik,"sponylik, sponyozni",nek,NA,"János imád sponyozni, ezért sokat sponylik.",Ők ritkán...,sponylanak,sponyoznak,cselekszik,-lik,1,PR2035,1983,nő,nem,2022-04-12_18h30.31.020,hesp_baseline,2021.2.3,Win32,59.99880002
,,,,,,,,,,,,,,,,,spubonylok,spubonylom,left,4.0969,0,8,8,104,1,105,spubonylik,spubonylasz,NA,NA,Te bizony sokat spubonylasz.,Én is sokat...,spubonylok,spubonylom,lakik,-lik,2,PR2035,1983,nő,nem,2022-04-12_18h30.31.020,hesp_baseline,2021.2.3,Win32,59.99880002
,,,,,,,,,,,,,,,,,nuroklunk,nurokozunk,right,5.2809,0,9,9,131,1,78,nuroklik / nurokozik,"nuroklik, nurokozni",ünk,NA,"János imád nurokozni, ezért sokat nuroklik.",Mi ritkán...,nuroklunk,nurokozunk,cselekszik,-lik,2,PR2035,1983,nő,nem,2022-04-12_18h30.31.020,hesp_baseline,2021.2.3,Win32,59.99880002
,,,,,,,,,,,,,,,,,fojlegynak,fojlegynek,right,5.3141,0,10,10,3,1,58,fojlegy,fojlegy,nak,e,Ez itt egy fojlegy.,Elneveztem a kutyámat...,fojlegynek,fojlegynak,dzsungel,NA,NA,PR2035,1983,nő,nem,2022-04-12_18h30.31.020,hesp_baseline,2021.2.3,Win32,59.99880002
,,,,,,,,,,,,,,,,,spivélnek,spivélnak,left,2.8484,0,11,11,27,1,82,spivél,spivél,nak,é,Ez itt egy spivél.,Elneveztem a kutyámat...,spivélnek,spivélnak,dzsungel,NA,NA,PR2035,1983,nő,nem,2022-04-12_18h30.31.020,hesp_baseline,2021.2.3,Win32,59.99880002
,,,,,,,,,,,,,,,,,fájézban,fájézben,right,7.1042,0,12,12,7,1,62,fájéz,fájéz,ban,é,Ez itt egy fájéz.,Ott vagyunk a...,fájézben,fájézban,dzsungel,NA,NA,PR2035,1983,nő,nem,2022-04-12_18h30.31.020,hesp_baseline,2021.2.3,Win32,59.99880002
,,,,,,,,,,,,,,,,,sojzom,sojzok,left,7.8786,0,13,13,74,1,75,sojzik,sojzol,NA,NA,Te bizony sokat sojzol.,Én is sokat...,sojzok,sojzom,lakik,-zik,1,PR2035,1983,nő,nem,2022-04-12_18h30.31.020,hesp_baseline,2021.2.3,Win32,59.99880002
,,,,,,,,,,,,,,,,,bivégszem,bivégszek,left,9.7116,0,14,14,68,1,69,bivégszik,bivégszel,NA,NA,Te bizony sokat bivégszel.,Én is sokat...,bivégszek,bivégszem,lakik,-szik,2,PR2035,1983,nő,nem,2022-04-12_18h30.31.020,hesp_baseline,2021.2.3,Win32,59.99880002
,,,,,,,,,,,,,,,,,flemlünk,flemezünk,right,9.7125,0,15,15,137,1,84,flemlik / flemezik,"flemlik, flemezni",ünk,NA,"János imád flemezni, ezért sokat flemlik.",Mi ritkán...,flemlünk,flemezünk,cselekszik,-lik,1,PR2035,1983,nő,nem,2022-04-12_18h30.31.020,hesp_baseline,2021.2.3,Win32,59.99880002
,,,,,,,,,,,,,,,,,lorjódzom,lorjódzok,right,4.269,0,16,16,88,1,89,lorjódzik,lorjódzol,NA,NA,Te bizony sokat lorjódzol.,Én is sokat...,lorjódzok,lorjódzom,lakik,-zik,2,PR2035,1983,nő,nem,2022-04-12_18h30.31.020,hesp_baseline,2021.2.3,Win32,59.99880002
,,,,,,,,,,,,,,,,,fluboklotok,flubokoztok,right,3.0392,0,17,17,151,1,98,fluboklik / flubokozik,"fluboklik, flubokozni",tek,NA,"János imád flubokozni, ezért sokat fluboklik.",Ti ritkán...,fluboklotok,flubokoztok,cselekszik,-lik,2,PR2035,1983,nő,nem,2022-04-12_18h30.31.020,hesp_baseline,2021.2.3,Win32,59.99880002
,,,,,,,,,,,,,,,,,flátszom,flátszok,right,11.0571,0,18,18,98,1,99,flátszik,flátszol,NA,NA,Te bizony sokat flátszol.,Én is sokat...,flátszok,flátszom,lakik,-szik,1,PR2035,1983,nő,nem,2022-04-12_18h30.31.020,hesp_baseline,2021.2.3,Win32,59.99880002
,,,,,,,,,,,,,,,,,metégszenek,metégednek,left,5.5838,0,19,19,112,1,59,metégszik / metégedik,"metégszik, metégedni",nek,NA,"János imád metégedni, ezért sokat metégszik.",Ők ritkán...,metégszenek,metégednek,cselekszik,-szik,2,PR2035,1983,nő,nem,2022-04-12_18h30.31.020,hesp_baseline,2021.2.3,Win32,59.99880002
,,,,,,,,,,,,,,,,,klazérben,klazérban,left,5.5626,0,20,20,51,1,106,klazér,klazér,ban,é,Ez itt egy klazér.,Ott vagyunk a...,klazérben,klazérban,dzsungel,NA,NA,PR2035,1983,nő,nem,2022-04-12_18h30.31.020,hesp_baseline,2021.2.3,Win32,59.99880002
,,,,,,,,,,,,,,,,,pratelynak,pratelynek,right,7.5449,0,21,21,47,1,102,prately,prately,nak,e,Ez itt egy prately.,Elneveztem a kutyámat...,pratelynek,pratelynak,dzsungel,NA,NA,PR2035,1983,nő,nem,2022-04-12_18h30.31.020,hesp_baseline,2021.2.3,Win32,59.99880002
,,,,,,,,,,,,,,,,,fibamlom,fibamlok,left,4.1507,0,22,22,65,1,66,fibamlik,fibamlasz,NA,NA,Te bizony sokat fibamlasz.,Én is sokat...,fibamlok,fibamlom,lakik,-lik,2,PR2035,1983,nő,nem,2022-04-12_18h30.31.020,hesp_baseline,2021.2.3,Win32,59.99880002
,,,,,,,,,,,,,,,,,vorszennél,vorszennál,left,9.4749,0,23,23,30,1,85,vorszen,vorszen,nál,e,Ez itt egy vorszen.,Nincs is jobb egy jó...,vorszennél,vorszennál,dzsungel,NA,NA,PR2035,1983,nő,nem,2022-04-12_18h30.31.020,hesp_baseline,2021.2.3,Win32,59.99880002
,,,,,,,,,,,,,,,,,femlek,femlem,left,3.4062,0,24,24,57,1,58,femlik,femlesz,NA,NA,Te bizony sokat femlesz.,Én is sokat...,femlek,femlem,lakik,-lik,1,PR2035,1983,nő,nem,2022-04-12_18h30.31.020,hesp_baseline,2021.2.3,Win32,59.99880002
,,,,,,,,,,,,,,,,,dárakodunk,dárakszunk,left,3.6411,0,25,25,126,1,73,dárakszik / dárakodik,"dárakszik, dárakodni",ünk,NA,"János imád dárakodni, ezért sokat dárakszik.",Mi ritkán...,dárakszunk,dárakodunk,cselekszik,-szik,2,PR2035,1983,nő,nem,2022-04-12_18h30.31.020,hesp_baseline,2021.2.3,Win32,59.99880002
,,,,,,,,,,,,,,,,,spibegezünk,spibeglünk,left,7.96,0,26,26,147,1,94,spibeglik / spibegezik,"spibeglik, spibegezni",ünk,NA,"János imád spibegezni, ezért sokat spibeglik.",Mi ritkán...,spibeglünk,spibegezünk,cselekszik,-lik,2,PR2035,1983,nő,nem,2022-04-12_18h30.31.020,hesp_baseline,2021.2.3,Win32,59.99880002
,,,,,,,,,,,,,,,,,tosélyban,tosélyben,left,2.4016,0,27,27,25,1,80,tosély,tosély,ban,é,Ez itt egy tosély.,Ott vagyunk a...,tosélyben,tosélyban,dzsungel,NA,NA,PR2035,1983,nő,nem,2022-04-12_18h30.31.020,hesp_baseline,2021.2.3,Win32,59.99880002
,,,,,,,,,,,,,,,,,garcépnál,garcépnél,right,9.3758,0,28,28,38,1,93,garcép,garcép,nál,é,Ez itt egy garcép.,Nincs is jobb egy jó...,garcépnél,garcépnál,dzsungel,NA,NA,PR2035,1983,nő,nem,2022-04-12_18h30.31.020,hesp_baseline,2021.2.3,Win32,59.99880002
,,,,,,,,,,,,,,,,,nidétban,nidétben,right,3.1175,0,29,29,39,1,94,nidét,nidét,ban,é,Ez itt egy nidét.,Ott vagyunk a...,nidétben,nidétban,dzsungel,NA,NA,PR2035,1983,nő,nem,2022-04-12_18h30.31.020,hesp_baseline,2021.2.3,Win32,59.99880002
,,,,,,,,,,,,,,,,,tranékban,tranékben,right,3.8735,0,30,30,2,1,57,tranék,tranék,ban,é,Ez itt egy tranék.,Ott vagyunk a...,tranékben,tranékban,dzsungel,NA,NA,PR2035,1983,nő,nem,2022-04-12_18h30.31.020,hesp_baseline,2021.2.3,Win32,59.99880002
,,,,,,,,,,,,,,,,,ribegzem,ribegzek,left,2.2827,0,31,31,63,1,64,ribegzik,ribegzel,NA,NA,Te bizony sokat ribegzel.,Én is sokat...,ribegzek,ribegzem,lakik,-zik,2,PR2035,1983,nő,nem,2022-04-12_18h30.31.020,hesp_baseline,2021.2.3,Win32,59.99880002
,,,,,,,,,,,,,,,,,szűslöm,szűslök,right,8.0817,0,32,32,85,1,86,szűslik,szűslesz,NA,NA,Te bizony sokat szűslesz.,Én is sokat...,szűslök,szűslöm,lakik,-lik,1,PR2035,1983,nő,nem,2022-04-12_18h30.31.020,hesp_baseline,2021.2.3,Win32,59.99880002
,,,,,,,,,,,,,,,,,fréslünk,frésezünk,right,8.5305,0,33,33,138,1,85,fréslik / frésezik,"fréslik, frésezni",ünk,NA,"János imád frésezni, ezért sokat fréslik.",Mi ritkán...,fréslünk,frésezünk,cselekszik,-lik,1,PR2035,1983,nő,nem,2022-04-12_18h30.31.020,hesp_baseline,2021.2.3,Win32,59.99880002
,,,,,,,,,,,,,,,,,dineltban,dineltben,right,4.447,0,34,34,0,1,55,dinelt,dinelt,ban,e,Ez itt egy dinelt.,Ott vagyunk a...,dineltben,dineltban,dzsungel,NA,NA,PR2035,1983,nő,nem,2022-04-12_18h30.31.020,hesp_baseline,2021.2.3,Win32,59.99880002
,,,,,,,,,,,,,,,,,kalrézban,kalrézben,right,2.4228,0,35,35,16,1,71,kalréz,kalréz,ban,é,Ez itt egy kalréz.,Ott vagyunk a...,kalrézben,kalrézban,dzsungel,NA,NA,PR2035,1983,nő,nem,2022-04-12_18h30.31.020,hesp_baseline,2021.2.3,Win32,59.99880002
,,,,,,,,,,,,,,,,,pratánylok,pratánylom,left,1.9508,0,36,36,95,1,96,pratánylik,pratánylasz,NA,NA,Te bizony sokat pratánylasz.,Én is sokat...,pratánylok,pratánylom,lakik,-lik,2,PR2035,1983,nő,nem,2022-04-12_18h30.31.020,hesp_baseline,2021.2.3,Win32,59.99880002
,,,,,,,,,,,,,,,,,sprűröznek,sprűrlenek,right,2.6649,0,37,37,135,1,82,sprűrlik / sprűrözik,"sprűrlik, sprűrözni",nek,NA,"János imád sprűrözni, ezért sokat sprűrlik.",Ők ritkán...,sprűrlenek,sprűröznek,cselekszik,-lik,1,PR2035,1983,nő,nem,2022-04-12_18h30.31.020,hesp_baseline,2021.2.3,Win32,59.99880002
,,,,,,,,,,,,,,,,,prilepedünk,prilepszünk,left,6.0284,0,38,38,161,1,108,prilepszik / prilepedik,"prilepszik, prilepedni",ünk,NA,"János imád prilepedni, ezért sokat prilepszik.",Mi ritkán...,prilepszünk,prilepedünk,cselekszik,-szik,2,PR2035,1983,nő,nem,2022-04-12_18h30.31.020,hesp_baseline,2021.2.3,Win32,59.99880002
,,,,,,,,,,,,,,,,,pivegszek,pivegszem,right,5.4992,0,39,39,99,1,100,pivegszik,pivegszel,NA,NA,Te bizony sokat pivegszel.,Én is sokat...,pivegszek,pivegszem,lakik,-szik,2,PR2035,1983,nő,nem,2022-04-12_18h30.31.020,hesp_baseline,2021.2.3,Win32,59.99880002
,,,,,,,,,,,,,,,,,posoztok,poslotok,right,3.6976,0,40,40,121,1,68,poslik / posozik,"poslik, posozni",tek,NA,"János imád posozni, ezért sokat poslik.",Ti ritkán...,poslotok,posoztok,cselekszik,-lik,1,PR2035,1983,nő,nem,2022-04-12_18h30.31.020,hesp_baseline,2021.2.3,Win32,59.99880002
,,,,,,,,,,,,,,,,,kátédnél,kátédnál,right,3.3165,0,41,41,37,1,92,kátéd,kátéd,nál,é,Ez itt egy kátéd.,Nincs is jobb egy jó...,kátédnél,kátédnál,dzsungel,NA,NA,PR2035,1983,nő,nem,2022-04-12_18h30.31.020,hesp_baseline,2021.2.3,Win32,59.99880002
,,,,,,,,,,,,,,,,,frálaslanak,frálasoznak,right,3.9211,0,42,42,110,1,57,frálaslik / frálasozik,"frálaslik, frálasozni",nek,NA,"János imád frálasozni, ezért sokat frálaslik.",Ők ritkán...,frálaslanak,frálasoznak,cselekszik,-lik,2,PR2035,1983,nő,nem,2022-04-12_18h30.31.020,hesp_baseline,2021.2.3,Win32,59.99880002
,,,,,,,,,,,,,,,,,friszlok,friszlom,right,2.8665,0,43,43,97,1,98,friszlik,friszlasz,NA,NA,Te bizony sokat friszlasz.,Én is sokat...,friszlok,friszlom,lakik,-lik,1,PR2035,1983,nő,nem,2022-04-12_18h30.31.020,hesp_baseline,2021.2.3,Win32,59.99880002
,,,,,,,,,,,,,,,,,zarcégnél,zarcégnál,right,3.0642,0,44,44,29,1,84,zarcég,zarcég,nál,é,Ez itt egy zarcég.,Nincs is jobb egy jó...,zarcégnél,zarcégnál,dzsungel,NA,NA,PR2035,1983,nő,nem,2022-04-12_18h30.31.020,hesp_baseline,2021.2.3,Win32,59.99880002
,,,,,,,,,,,,,,,,,spatárzom,spatárzok,right,6.782,0,45,45,69,1,70,spatárzik,spatárzol,NA,NA,Te bizony sokat spatárzol.,Én is sokat...,spatárzok,spatárzom,lakik,-zik,2,PR2035,1983,nő,nem,2022-04-12_18h30.31.020,hesp_baseline,2021.2.3,Win32,59.99880002
,,,,,,,,,,,,,,,,,juszlom,juszlok,left,3.5685,0,46,46,79,1,80,juszlik,juszlasz,NA,NA,Te bizony sokat juszlasz.,Én is sokat...,juszlok,juszlom,lakik,-lik,1,PR2035,1983,nő,nem,2022-04-12_18h30.31.020,hesp_baseline,2021.2.3,Win32,59.99880002
,,,,,,,,,,,,,,,,,frodlom,frodlok,right,3.298,0,47,47,61,1,62,frodlik,frodlasz,NA,NA,Te bizony sokat frodlasz.,Én is sokat...,frodlok,frodlom,lakik,-lik,1,PR2035,1983,nő,nem,2022-04-12_18h30.31.020,hesp_baseline,2021.2.3,Win32,59.99880002
,,,,,,,,,,,,,,,,,ribzom,ribzok,left,6.1783,0,48,48,58,1,59,ribzik,ribzol,NA,NA,Te bizony sokat ribzol.,Én is sokat...,ribzok,ribzom,lakik,-zik,1,PR2035,1983,nő,nem,2022-04-12_18h30.31.020,hesp_baseline,2021.2.3,Win32,59.99880002
,,,,,,,,,,,,,,,,,gihamoznak,gihamlanak,left,3.1079,0,49,49,133,1,80,gihamlik / gihamozik,"gihamlik, gihamozni",nek,NA,"János imád gihamozni, ezért sokat gihamlik.",Ők ritkán...,gihamlanak,gihamoznak,cselekszik,-lik,2,PR2035,1983,nő,nem,2022-04-12_18h30.31.020,hesp_baseline,2021.2.3,Win32,59.99880002
,,,,,,,,,,,,,,,,,lingéknál,lingéknél,right,3.5643,0,50,50,32,1,87,lingék,lingék,nál,é,Ez itt egy lingék.,Nincs is jobb egy jó...,lingéknél,lingéknál,dzsungel,NA,NA,PR2035,1983,nő,nem,2022-04-12_18h30.31.020,hesp_baseline,2021.2.3,Win32,59.99880002
,,,,,,,,,,,,,,,,,csubzunk,csubozunk,right,2.4819,0,51,51,111,1,58,csubzik / csubozik,"csubzik, csubozni",ünk,NA,"János imád csubozni, ezért sokat csubzik.",Mi ritkán...,csubzunk,csubozunk,cselekszik,-zik,1,PR2035,1983,nő,nem,2022-04-12_18h30.31.020,hesp_baseline,2021.2.3,Win32,59.99880002
,,,,,,,,,,,,,,,,,flűgözünk,flűgzünk,left,4.5077,0,52,52,160,1,107,flűgzik / flűgözik,"flűgzik, flűgözni",ünk,NA,"János imád flűgözni, ezért sokat flűgzik.",Mi ritkán...,flűgzünk,flűgözünk,cselekszik,-zik,1,PR2035,1983,nő,nem,2022-04-12_18h30.31.020,hesp_baseline,2021.2.3,Win32,59.99880002
,,,,,,,,,,,,,,,,,sprebeznek,sprebzenek,right,8.4672,0,53,53,139,1,86,sprebzik / sprebezik,"sprebzik, sprebezni",nek,NA,"János imád sprebezni, ezért sokat sprebzik.",Ők ritkán...,sprebzenek,sprebeznek,cselekszik,-zik,1,PR2035,1983,nő,nem,2022-04-12_18h30.31.020,hesp_baseline,2021.2.3,Win32,59.99880002
,,,,,,,,,,,,,,,,,fröjlünk,fröjözünk,right,2.3037,0,54,54,117,1,64,fröjlik / fröjözik,"fröjlik, fröjözni",ünk,NA,"János imád fröjözni, ezért sokat fröjlik.",Mi ritkán...,fröjlünk,fröjözünk,cselekszik,-lik,1,PR2035,1983,nő,nem,2022-04-12_18h30.31.020,hesp_baseline,2021.2.3,Win32,59.99880002
,,,,,,,,,,,,,,,,,nyábétban,nyábétben,left,9.1632,0,55,55,21,1,76,nyábét,nyábét,ban,é,Ez itt egy nyábét.,Ott vagyunk a...,nyábétben,nyábétban,dzsungel,NA,NA,PR2035,1983,nő,nem,2022-04-12_18h30.31.020,hesp_baseline,2021.2.3,Win32,59.99880002
,,,,,,,,,,,,,,,,,fligzom,fligzok,left,2.8098,0,56,56,103,1,104,fligzik,fligzol,NA,NA,Te bizony sokat fligzol.,Én is sokat...,fligzok,fligzom,lakik,-zik,1,PR2035,1983,nő,nem,2022-04-12_18h30.31.020,hesp_baseline,2021.2.3,Win32,59.99880002
,,,,,,,,,,,,,,,,,molszotok,molodtok,left,3.4817,0,57,57,142,1,89,molszik / molodik,"molszik, molodni",tek,NA,"János imád molodni, ezért sokat molszik.",Ti ritkán...,molszotok,molodtok,cselekszik,-szik,1,PR2035,1983,nő,nem,2022-04-12_18h30.31.020,hesp_baseline,2021.2.3,Win32,59.99880002
,,,,,,,,,,,,,,,,,plugzok,plugzom,left,4.6305,0,58,58,60,1,61,plugzik,plugzol,NA,NA,Te bizony sokat plugzol.,Én is sokat...,plugzok,plugzom,lakik,-zik,1,PR2035,1983,nő,nem,2022-04-12_18h30.31.020,hesp_baseline,2021.2.3,Win32,59.99880002
,,,,,,,,,,,,,,,,,lihadzom,lihadzok,right,1.7493,0,59,59,101,1,102,lihadzik,lihadzol,NA,NA,Te bizony sokat lihadzol.,Én is sokat...,lihadzok,lihadzom,lakik,-zik,2,PR2035,1983,nő,nem,2022-04-12_18h30.31.020,hesp_baseline,2021.2.3,Win32,59.99880002
,,,,,,,,,,,,,,,,,branylanak,branyoznak,right,2.127,0,60,60,136,1,83,branylik / branyozik,"branylik, branyozni",nek,NA,"János imád branyozni, ezért sokat branylik.",Ők ritkán...,branylanak,branyoznak,cselekszik,-lik,1,PR2035,1983,nő,nem,2022-04-12_18h30.31.020,hesp_baseline,2021.2.3,Win32,59.99880002
,,,,,,,,,,,,,,,,,líroznak,lírlanak,left,5.9481,0,61,61,115,1,62,lírlik / lírozik,"lírlik, lírozni",nek,NA,"János imád lírozni, ezért sokat lírlik.",Ők ritkán...,lírlanak,líroznak,cselekszik,-lik,1,PR2035,1983,nő,nem,2022-04-12_18h30.31.020,hesp_baseline,2021.2.3,Win32,59.99880002
,,,,,,,,,,,,,,,,,spügzünk,spügözünk,left,4.9173,0,62,62,143,1,90,spügzik / spügözik,"spügzik, spügözni",ünk,NA,"János imád spügözni, ezért sokat spügzik.",Mi ritkán...,spügzünk,spügözünk,cselekszik,-zik,1,PR2035,1983,nő,nem,2022-04-12_18h30.31.020,hesp_baseline,2021.2.3,Win32,59.99880002
,,,,,,,,,,,,,,,,,kluhéjnál,kluhéjnél,left,3.5867,0,63,63,24,1,79,kluhéj,kluhéj,nál,é,Ez itt egy kluhéj.,Nincs is jobb egy jó...,kluhéjnél,kluhéjnál,dzsungel,NA,NA,PR2035,1983,nő,nem,2022-04-12_18h30.31.020,hesp_baseline,2021.2.3,Win32,59.99880002
,,,,,,,,,,,,,,,,,spáraklom,spáraklok,left,2.8713,0,64,64,96,1,97,spáraklik,spáraklasz,NA,NA,Te bizony sokat spáraklasz.,Én is sokat...,spáraklok,spáraklom,lakik,-lik,2,PR2035,1983,nő,nem,2022-04-12_18h30.31.020,hesp_baseline,2021.2.3,Win32,59.99880002
,,,,,,,,,,,,,,,,,flüröslök,flüröslöm,left,9.7083,0,65,65,87,1,88,flüröslik,flüröslesz,NA,NA,Te bizony sokat flüröslesz.,Én is sokat...,flüröslök,flüröslöm,lakik,-lik,2,PR2035,1983,nő,nem,2022-04-12_18h30.31.020,hesp_baseline,2021.2.3,Win32,59.99880002
,,,,,,,,,,,,,,,,,nyüröznek,nyürzenek,left,8.0099,0,66,66,123,1,70,nyürzik / nyürözik,"nyürzik, nyürözni",nek,NA,"János imád nyürözni, ezért sokat nyürzik.",Ők ritkán...,nyürzenek,nyüröznek,cselekszik,-zik,1,PR2035,1983,nő,nem,2022-04-12_18h30.31.020,hesp_baseline,2021.2.3,Win32,59.99880002
,,,,,,,,,,,,,,,,,driládzom,driládzok,left,2.9669,0,67,67,67,1,68,driládzik,driládzol,NA,NA,Te bizony sokat driládzol.,Én is sokat...,driládzok,driládzom,lakik,-zik,2,PR2035,1983,nő,nem,2022-04-12_18h30.31.020,hesp_baseline,2021.2.3,Win32,59.99880002
,,,,,,,,,,,,,,,,,zsigénnál,zsigénnél,right,2.7593,0,68,68,12,1,67,zsigén,zsigén,nál,é,Ez itt egy zsigén.,Nincs is jobb egy jó...,zsigénnél,zsigénnál,dzsungel,NA,NA,PR2035,1983,nő,nem,2022-04-12_18h30.31.020,hesp_baseline,2021.2.3,Win32,59.99880002
,,,,,,,,,,,,,,,,,fröjzötök,fröjöztök,left,2.857,0,69,69,153,1,100,fröjzik / fröjözik,"fröjzik, fröjözni",tek,NA,"János imád fröjözni, ezért sokat fröjzik.",Ti ritkán...,fröjzötök,fröjöztök,cselekszik,-zik,1,PR2035,1983,nő,nem,2022-04-12_18h30.31.020,hesp_baseline,2021.2.3,Win32,59.99880002
,,,,,,,,,,,,,,,,,flodlotok,flodoztok,right,0.6003,0,70,70,144,1,91,flodlik / flodozik,"flodlik, flodozni",tek,NA,"János imád flodozni, ezért sokat flodlik.",Ti ritkán...,flodlotok,flodoztok,cselekszik,-lik,1,PR2035,1983,nő,nem,2022-04-12_18h30.31.020,hesp_baseline,2021.2.3,Win32,59.99880002
,,,,,,,,,,,,,,,,,tiregzem,tiregzek,left,0.3594,0,71,71,64,1,65,tiregzik,tiregzel,NA,NA,Te bizony sokat tiregzel.,Én is sokat...,tiregzek,tiregzem,lakik,-zik,2,PR2035,1983,nő,nem,2022-04-12_18h30.31.020,hesp_baseline,2021.2.3,Win32,59.99880002
,,,,,,,,,,,,,,,,,bingéjnak,bingéjnek,right,0.3234,0,72,72,49,1,104,bingéj,bingéj,nak,é,Ez itt egy bingéj.,Elneveztem a kutyámat...,bingéjnek,bingéjnak,dzsungel,NA,NA,PR2035,1983,nő,nem,2022-04-12_18h30.31.020,hesp_baseline,2021.2.3,Win32,59.99880002
,,,,,,,,,,,,,,,,,csimennél,csimennál,left,1.2331,0,73,73,44,1,99,csimen,csimen,nál,e,Ez itt egy csimen.,Nincs is jobb egy jó...,csimennél,csimennál,dzsungel,NA,NA,PR2035,1983,nő,nem,2022-04-12_18h30.31.020,hesp_baseline,2021.2.3,Win32,59.99880002
,,,,,,,,,,,,,,,,,zutennál,zutennél,left,0.2861,0,74,74,43,1,98,zuten,zuten,nál,e,Ez itt egy zuten.,Nincs is jobb egy jó...,zutennél,zutennál,dzsungel,NA,NA,PR2035,1983,nő,nem,2022-04-12_18h30.31.020,hesp_baseline,2021.2.3,Win32,59.99880002
,,,,,,,,,,,,,,,,,brágaklom,brágaklok,left,0.2926,0,75,75,71,1,72,brágaklik,brágaklasz,NA,NA,Te bizony sokat brágaklasz.,Én is sokat...,brágaklok,brágaklom,lakik,-lik,2,PR2035,1983,nő,nem,2022-04-12_18h30.31.020,hesp_baseline,2021.2.3,Win32,59.99880002
,,,,,,,,,,,,,,,,,nyöböznek,nyöbzenek,right,0.2339,0,76,76,152,1,99,nyöbzik / nyöbözik,"nyöbzik, nyöbözni",nek,NA,"János imád nyöbözni, ezért sokat nyöbzik.",Ők ritkán...,nyöbzenek,nyöböznek,cselekszik,-zik,1,PR2035,1983,nő,nem,2022-04-12_18h30.31.020,hesp_baseline,2021.2.3,Win32,59.99880002
,,,,,,,,,,,,,,,,,júdernek,júdernak,right,0.2506,0,77,77,53,1,108,júder,júder,nak,e,Ez itt egy júder.,Elneveztem a kutyámat...,júdernek,júdernak,dzsungel,NA,NA,PR2035,1983,nő,nem,2022-04-12_18h30.31.020,hesp_baseline,2021.2.3,Win32,59.99880002
,,,,,,,,,,,,,,,,,klajrénnek,klajrénnak,left,0.2008,0,78,78,41,1,96,klajrén,klajrén,nak,é,Ez itt egy klajrén.,Elneveztem a kutyámat...,klajrénnek,klajrénnak,dzsungel,NA,NA,PR2035,1983,nő,nem,2022-04-12_18h30.31.020,hesp_baseline,2021.2.3,Win32,59.99880002
,,,,,,,,,,,,,,,,,spizecnek,spizecnak,right,0.1526,0,79,79,6,1,61,spizec,spizec,nak,e,Ez itt egy spizec.,Elneveztem a kutyámat...,spizecnek,spizecnak,dzsungel,NA,NA,PR2035,1983,nő,nem,2022-04-12_18h30.31.020,hesp_baseline,2021.2.3,Win32,59.99880002
,,,,,,,,,,,,,,,,,brágédnek,brágédnak,left,0.301,0,80,80,45,1,100,brágéd,brágéd,nak,é,Ez itt egy brágéd.,Elneveztem a kutyámat...,brágédnek,brágédnak,dzsungel,NA,NA,PR2035,1983,nő,nem,2022-04-12_18h30.31.020,hesp_baseline,2021.2.3,Win32,59.99880002
,,,,,,,,,,,,,,,,,trírzunk,trírozunk,right,4.0474,0,81,81,116,1,63,trírzik / trírozik,"trírzik, trírozni",ünk,NA,"János imád trírozni, ezért sokat trírzik.",Mi ritkán...,trírzunk,trírozunk,cselekszik,-zik,1,PR2035,1983,nő,nem,2022-04-12_18h30.31.020,hesp_baseline,2021.2.3,Win32,59.99880002
,,,,,,,,,,,,,,,,,pribemlem,pribemlek,right,1.5828,0,82,82,107,1,108,pribemlik,pribemlesz,NA,NA,Te bizony sokat pribemlesz.,Én is sokat...,pribemlek,pribemlem,lakik,-lik,2,PR2035,1983,nő,nem,2022-04-12_18h30.31.020,hesp_baseline,2021.2.3,Win32,59.99880002
,,,,,,,,,,,,,,,,,kumlom,kumlok,left,0.4284,0,83,83,105,1,106,kumlik,kumlasz,NA,NA,Te bizony sokat kumlasz.,Én is sokat...,kumlok,kumlom,lakik,-lik,1,PR2035,1983,nő,nem,2022-04-12_18h30.31.020,hesp_baseline,2021.2.3,Win32,59.99880002
,,,,,,,,,,,,,,,,,frivamozunk,frivamlunk,right,0.285,0,84,84,122,1,69,frivamlik / frivamozik,"frivamlik, frivamozni",ünk,NA,"János imád frivamozni, ezért sokat frivamlik.",Mi ritkán...,frivamlunk,frivamozunk,cselekszik,-lik,2,PR2035,1983,nő,nem,2022-04-12_18h30.31.020,hesp_baseline,2021.2.3,Win32,59.99880002
,,,,,,,,,,,,,,,,,gyihegzetek,gyihegeztek,left,0.2865,0,85,85,124,1,71,gyihegzik / gyihegezik,"gyihegzik, gyihegezni",tek,NA,"János imád gyihegezni, ezért sokat gyihegzik.",Ti ritkán...,gyihegzetek,gyihegeztek,cselekszik,-zik,2,PR2035,1983,nő,nem,2022-04-12_18h30.31.020,hesp_baseline,2021.2.3,Win32,59.99880002
,,,,,,,,,,,,,,,,,sporzemnek,sporzemnak,left,0.2839,0,86,86,26,1,81,sporzem,sporzem,nak,e,Ez itt egy sporzem.,Elneveztem a kutyámat...,sporzemnek,sporzemnak,dzsungel,NA,NA,PR2035,1983,nő,nem,2022-04-12_18h30.31.020,hesp_baseline,2021.2.3,Win32,59.99880002
,,,,,,,,,,,,,,,,,bribékedtek,bribékszetek,right,0.1273,0,87,87,141,1,88,bribékszik / bribékedik,"bribékszik, bribékedni",tek,NA,"János imád bribékedni, ezért sokat bribékszik.",Ti ritkán...,bribékszetek,bribékedtek,cselekszik,-szik,2,PR2035,1983,nő,nem,2022-04-12_18h30.31.020,hesp_baseline,2021.2.3,Win32,59.99880002
,,,,,,,,,,,,,,,,,dingecnek,dingecnak,left,0.184,0,88,88,42,1,97,dingec,dingec,nak,e,Ez itt egy dingec.,Elneveztem a kutyámat...,dingecnek,dingecnak,dzsungel,NA,NA,PR2035,1983,nő,nem,2022-04-12_18h30.31.020,hesp_baseline,2021.2.3,Win32,59.99880002
,,,,,,,,,,,,,,,,,navecban,navecben,left,0.2714,0,89,89,8,1,63,navec,navec,ban,e,Ez itt egy navec.,Ott vagyunk a...,navecben,navecban,dzsungel,NA,NA,PR2035,1983,nő,nem,2022-04-12_18h30.31.020,hesp_baseline,2021.2.3,Win32,59.99880002
,,,,,,,,,,,,,,,,,spüjzöm,spüjzök,right,0.1202,0,90,90,59,1,60,spüjzik,spüjzöl,NA,NA,Te bizony sokat spüjzöl.,Én is sokat...,spüjzök,spüjzöm,lakik,-zik,1,PR2035,1983,nő,nem,2022-04-12_18h30.31.020,hesp_baseline,2021.2.3,Win32,59.99880002
,,,,,,,,,,,,,,,,,csíszlok,csíszlom,right,0.2434,0,91,91,84,1,85,csíszlik,csíszlasz,NA,NA,Te bizony sokat csíszlasz.,Én is sokat...,csíszlok,csíszlom,lakik,-lik,1,PR2035,1983,nő,nem,2022-04-12_18h30.31.020,hesp_baseline,2021.2.3,Win32,59.99880002
,,,,,,,,,,,,,,,,,spöközünk,spöklünk,left,0.4063,0,92,92,130,1,77,spöklik / spöközik,"spöklik, spöközni",ünk,NA,"János imád spöközni, ezért sokat spöklik.",Mi ritkán...,spöklünk,spöközünk,cselekszik,-lik,1,PR2035,1983,nő,nem,2022-04-12_18h30.31.020,hesp_baseline,2021.2.3,Win32,59.99880002
,,,,,,,,,,,,,,,,,tomlok,tomlom,left,0.3505,0,93,93,86,1,87,tomlik,tomlasz,NA,NA,Te bizony sokat tomlasz.,Én is sokat...,tomlok,tomlom,lakik,-lik,1,PR2035,1983,nő,nem,2022-04-12_18h30.31.020,hesp_baseline,2021.2.3,Win32,59.99880002
,,,,,,,,,,,,,,,,,sprízemnél,sprízemnál,right,0.221,0,94,94,22,1,77,sprízem,sprízem,nál,e,Ez itt egy sprízem.,Nincs is jobb egy jó...,sprízemnél,sprízemnál,dzsungel,NA,NA,PR2035,1983,nő,nem,2022-04-12_18h30.31.020,hesp_baseline,2021.2.3,Win32,59.99880002
,,,,,,,,,,,,,,,,,cságyeltben,cságyeltban,right,0.251,0,95,95,10,1,65,cságyelt,cságyelt,ban,e,Ez itt egy cságyelt.,Ott vagyunk a...,cságyeltben,cságyeltban,dzsungel,NA,NA,PR2035,1983,nő,nem,2022-04-12_18h30.31.020,hesp_baseline,2021.2.3,Win32,59.99880002
,,,,,,,,,,,,,,,,,spülűdzöm,spülűdzök,right,0.6373,0,96,96,56,1,57,spülűdzik,spülűdzöl,NA,NA,Te bizony sokat spülűdzöl.,Én is sokat...,spülűdzök,spülűdzöm,lakik,-zik,2,PR2035,1983,nő,nem,2022-04-12_18h30.31.020,hesp_baseline,2021.2.3,Win32,59.99880002
,,,,,,,,,,,,,,,,,dóbemnek,dóbemnak,right,1.4025,0,97,97,48,1,103,dóbem,dóbem,nak,e,Ez itt egy dóbem.,Elneveztem a kutyámat...,dóbemnek,dóbemnak,dzsungel,NA,NA,PR2035,1983,nő,nem,2022-04-12_18h30.31.020,hesp_baseline,2021.2.3,Win32,59.99880002
,,,,,,,,,,,,,,,,,ronvetnek,ronvetnak,left,2.4157,0,98,98,9,1,64,ronvet,ronvet,nak,e,Ez itt egy ronvet.,Elneveztem a kutyámat...,ronvetnek,ronvetnak,dzsungel,NA,NA,PR2035,1983,nő,nem,2022-04-12_18h30.31.020,hesp_baseline,2021.2.3,Win32,59.99880002
,,,,,,,,,,,,,,,,,míjzunk,míjozunk,right,1.7247,0,99,99,114,1,61,míjzik / míjozik,"míjzik, míjozni",ünk,NA,"János imád míjozni, ezért sokat míjzik.",Mi ritkán...,míjzunk,míjozunk,cselekszik,-zik,1,PR2035,1983,nő,nem,2022-04-12_18h30.31.020,hesp_baseline,2021.2.3,Win32,59.99880002
,,,,,,,,,,,,,,,,,péleslek,péleslem,left,1.5735,0,100,100,73,1,74,péleslik,péleslesz,NA,NA,Te bizony sokat péleslesz.,Én is sokat...,péleslek,péleslem,lakik,-lik,2,PR2035,1983,nő,nem,2022-04-12_18h30.31.020,hesp_baseline,2021.2.3,Win32,59.99880002
,,,,,,,,,,,,,,,,,sortemnél,sortemnál,right,0.8542,0,101,101,15,1,70,sortem,sortem,nál,e,Ez itt egy sortem.,Nincs is jobb egy jó...,sortemnél,sortemnál,dzsungel,NA,NA,PR2035,1983,nő,nem,2022-04-12_18h30.31.020,hesp_baseline,2021.2.3,Win32,59.99880002
,,,,,,,,,,,,,,,,,tribejletek,tribejeztek,left,0.5009,0,102,102,132,1,79,tribejlik / tribejezik,"tribejlik, tribejezni",tek,NA,"János imád tribejezni, ezért sokat tribejlik.",Ti ritkán...,tribejletek,tribejeztek,cselekszik,-lik,2,PR2035,1983,nő,nem,2022-04-12_18h30.31.020,hesp_baseline,2021.2.3,Win32,59.99880002
,,,,,,,,,,,,,,,,,spiharzotok,spiharoztok,right,0.3288,0,103,103,127,1,74,spiharzik / spiharozik,"spiharzik, spiharozni",tek,NA,"János imád spiharozni, ezért sokat spiharzik.",Ti ritkán...,spiharzotok,spiharoztok,cselekszik,-zik,2,PR2035,1983,nő,nem,2022-04-12_18h30.31.020,hesp_baseline,2021.2.3,Win32,59.99880002
,,,,,,,,,,,,,,,,,flüröklötök,flürököztök,left,0.3393,0,104,104,149,1,96,flüröklik / flüröközik,"flüröklik, flüröközni",tek,NA,"János imád flüröközni, ezért sokat flüröklik.",Ti ritkán...,flüröklötök,flürököztök,cselekszik,-lik,2,PR2035,1983,nő,nem,2022-04-12_18h30.31.020,hesp_baseline,2021.2.3,Win32,59.99880002
,,,,,,,,,,,,,,,,,klítegynál,klítegynél,left,0.8164,0,105,105,5,1,60,klítegy,klítegy,nál,e,Ez itt egy klítegy.,Nincs is jobb egy jó...,klítegynél,klítegynál,dzsungel,NA,NA,PR2035,1983,nő,nem,2022-04-12_18h30.31.020,hesp_baseline,2021.2.3,Win32,59.99880002
,,,,,,,,,,,,,,,,,fivénylek,fivénylem,left,0.521,0,106,106,78,1,79,fivénylik,fivénylesz,NA,NA,Te bizony sokat fivénylesz.,Én is sokat...,fivénylek,fivénylem,lakik,-lik,2,PR2035,1983,nő,nem,2022-04-12_18h30.31.020,hesp_baseline,2021.2.3,Win32,59.99880002
,,,,,,,,,,,,,,,,,huroslok,huroslom,right,0.3773,0,107,107,76,1,77,huroslik,huroslasz,NA,NA,Te bizony sokat huroslasz.,Én is sokat...,huroslok,huroslom,lakik,-lik,2,PR2035,1983,nő,nem,2022-04-12_18h30.31.020,hesp_baseline,2021.2.3,Win32,59.99880002
,,,,,,,,,,,,,,,,,prihegszenek,prihegednek,right,0.2887,0,108,108,155,1,102,prihegszik / prihegedik,"prihegszik, prihegedni",nek,NA,"János imád prihegedni, ezért sokat prihegszik.",Ők ritkán...,prihegszenek,prihegednek,cselekszik,-szik,2,PR2035,1983,nő,nem,2022-04-12_18h30.31.020,hesp_baseline,2021.2.3,Win32,59.99880002
,,,,,,,,,,,,,,,,,gúdenban,gúdenben,right,0.3342,0,109,109,4,1,59,gúden,gúden,ban,e,Ez itt egy gúden.,Ott vagyunk a...,gúdenben,gúdenban,dzsungel,NA,NA,PR2035,1983,nő,nem,2022-04-12_18h30.31.020,hesp_baseline,2021.2.3,Win32,59.99880002
,,,,,,,,,,,,,,,,,flézletek,flézeztek,left,0.6387,0,110,110,134,1,81,flézlik / flézezik,"flézlik, flézezni",tek,NA,"János imád flézezni, ezért sokat flézlik.",Ti ritkán...,flézletek,flézeztek,cselekszik,-lik,1,PR2035,1983,nő,nem,2022-04-12_18h30.31.020,hesp_baseline,2021.2.3,Win32,59.99880002
,,,,,,,,,,,,,,,,,hubonyoztok,hubonylotok,left,0.2838,0,111,111,157,1,104,hubonylik / hubonyozik,"hubonylik, hubonyozni",tek,NA,"János imád hubonyozni, ezért sokat hubonylik.",Ti ritkán...,hubonylotok,hubonyoztok,cselekszik,-lik,2,PR2035,1983,nő,nem,2022-04-12_18h30.31.020,hesp_baseline,2021.2.3,Win32,59.99880002
,,,,,,,,,,,,,,,,,prohódzom,prohódzok,left,0.1673,0,112,112,66,1,67,prohódzik,prohódzol,NA,NA,Te bizony sokat prohódzol.,Én is sokat...,prohódzok,prohódzom,lakik,-zik,2,PR2035,1983,nő,nem,2022-04-12_18h30.31.020,hesp_baseline,2021.2.3,Win32,59.99880002
,,,,,,,,,,,,,,,,,figlom,figlok,right,0.1674,0,113,113,75,1,76,figlik,figlasz,NA,NA,Te bizony sokat figlasz.,Én is sokat...,figlok,figlom,lakik,-lik,1,PR2035,1983,nő,nem,2022-04-12_18h30.31.020,hesp_baseline,2021.2.3,Win32,59.99880002
,,,,,,,,,,,,,,,,,sprigzotok,sprigoztok,right,0.1098,0,114,114,129,1,76,sprigzik / sprigozik,"sprigzik, sprigozni",tek,NA,"János imád sprigozni, ezért sokat sprigzik.",Ti ritkán...,sprigzotok,sprigoztok,cselekszik,-zik,1,PR2035,1983,nő,nem,2022-04-12_18h30.31.020,hesp_baseline,2021.2.3,Win32,59.99880002
,,,,,,,,,,,,,,,,,floglok,floglom,right,0.1424,0,115,115,92,1,93,floglik,floglasz,NA,NA,Te bizony sokat floglasz.,Én is sokat...,floglok,floglom,lakik,-lik,1,PR2035,1983,nő,nem,2022-04-12_18h30.31.020,hesp_baseline,2021.2.3,Win32,59.99880002
,,,,,,,,,,,,,,,,,ruslom,ruslok,right,0.2889,0,116,116,83,1,84,ruslik,ruslasz,NA,NA,Te bizony sokat ruslasz.,Én is sokat...,ruslok,ruslom,lakik,-lik,1,PR2035,1983,nő,nem,2022-04-12_18h30.31.020,hesp_baseline,2021.2.3,Win32,59.99880002
,,,,,,,,,,,,,,,,,gihesztnak,gihesztnek,right,0.3044,0,117,117,36,1,91,giheszt,giheszt,nak,e,Ez itt egy giheszt.,Elneveztem a kutyámat...,gihesztnek,gihesztnak,dzsungel,NA,NA,PR2035,1983,nő,nem,2022-04-12_18h30.31.020,hesp_baseline,2021.2.3,Win32,59.99880002
,,,,,,,,,,,,,,,,,fupétnél,fupétnál,left,0.1377,0,118,118,14,1,69,fupét,fupét,nál,é,Ez itt egy fupét.,Nincs is jobb egy jó...,fupétnél,fupétnál,dzsungel,NA,NA,PR2035,1983,nő,nem,2022-04-12_18h30.31.020,hesp_baseline,2021.2.3,Win32,59.99880002
,,,,,,,,,,,,,,,,,csintékben,csintékban,left,0.1419,0,119,119,23,1,78,csinték,csinték,ban,é,Ez itt egy csinték.,Ott vagyunk a...,csintékben,csintékban,dzsungel,NA,NA,PR2035,1983,nő,nem,2022-04-12_18h30.31.020,hesp_baseline,2021.2.3,Win32,59.99880002
,,,,,,,,,,,,,,,,,praslok,praslom,left,0.1673,0,120,120,80,1,81,praslik,praslasz,NA,NA,Te bizony sokat praslasz.,Én is sokat...,praslok,praslom,lakik,-lik,1,PR2035,1983,nő,nem,2022-04-12_18h30.31.020,hesp_baseline,2021.2.3,Win32,59.99880002
,,,,,,,,,,,,,,,,,csólorzok,csólorzom,right,0.0861,0,121,121,102,1,103,csólorzik,csólorzol,NA,NA,Te bizony sokat csólorzol.,Én is sokat...,csólorzok,csólorzom,lakik,-zik,2,PR2035,1983,nő,nem,2022-04-12_18h30.31.020,hesp_baseline,2021.2.3,Win32,59.99880002
,,,,,,,,,,,,,,,,,trugoznak,trugzanak,right,0.1543,0,122,122,146,1,93,trugzik / trugozik,"trugzik, trugozni",nek,NA,"János imád trugozni, ezért sokat trugzik.",Ők ritkán...,trugzanak,trugoznak,cselekszik,-zik,1,PR2035,1983,nő,nem,2022-04-12_18h30.31.020,hesp_baseline,2021.2.3,Win32,59.99880002
,,,,,,,,,,,,,,,,,klingeszban,klingeszben,right,0.0844,0,123,123,1,1,56,klingesz,klingesz,ban,e,Ez itt egy klingesz.,Ott vagyunk a...,klingeszben,klingeszban,dzsungel,NA,NA,PR2035,1983,nő,nem,2022-04-12_18h30.31.020,hesp_baseline,2021.2.3,Win32,59.99880002
,,,,,,,,,,,,,,,,,drojzunk,drojozunk,right,0.1216,0,124,124,140,1,87,drojzik / drojozik,"drojzik, drojozni",ünk,NA,"János imád drojozni, ezért sokat drojzik.",Mi ritkán...,drojzunk,drojozunk,cselekszik,-zik,1,PR2035,1983,nő,nem,2022-04-12_18h30.31.020,hesp_baseline,2021.2.3,Win32,59.99880002
,,,,,,,,,,,,,,,,,trigencnak,trigencnek,right,0.2008,0,125,125,31,1,86,trigenc,trigenc,nak,e,Ez itt egy trigenc.,Elneveztem a kutyámat...,trigencnek,trigencnak,dzsungel,NA,NA,PR2035,1983,nő,nem,2022-04-12_18h30.31.020,hesp_baseline,2021.2.3,Win32,59.99880002
,,,,,,,,,,,,,,,,,szanéjnak,szanéjnek,right,0.2506,0,126,126,13,1,68,szanéj,szanéj,nak,é,Ez itt egy szanéj.,Elneveztem a kutyámat...,szanéjnek,szanéjnak,dzsungel,NA,NA,PR2035,1983,nő,nem,2022-04-12_18h30.31.020,hesp_baseline,2021.2.3,Win32,59.99880002
,,,,,,,,,,,,,,,,,spátennak,spátennek,right,0.134,0,127,127,33,1,88,spáten,spáten,nak,e,Ez itt egy spáten.,Elneveztem a kutyámat...,spátennek,spátennak,dzsungel,NA,NA,PR2035,1983,nő,nem,2022-04-12_18h30.31.020,hesp_baseline,2021.2.3,Win32,59.99880002
,,,,,,,,,,,,,,,,,flibekszem,flibekszek,right,0.1559,0,128,128,93,1,94,flibekszik,flibekszel,NA,NA,Te bizony sokat flibekszel.,Én is sokat...,flibekszek,flibekszem,lakik,-szik,2,PR2035,1983,nő,nem,2022-04-12_18h30.31.020,hesp_baseline,2021.2.3,Win32,59.99880002
,,,,,,,,,,,,,,,,,prazlunk,prazozunk,left,0.1122,0,129,129,119,1,66,prazlik / prazozik,"prazlik, prazozni",ünk,NA,"János imád prazozni, ezért sokat prazlik.",Mi ritkán...,prazlunk,prazozunk,cselekszik,-lik,1,PR2035,1983,nő,nem,2022-04-12_18h30.31.020,hesp_baseline,2021.2.3,Win32,59.99880002
,,,,,,,,,,,,,,,,,gilárzom,gilárzok,left,0.1066,0,130,130,94,1,95,gilárzik,gilárzol,NA,NA,Te bizony sokat gilárzol.,Én is sokat...,gilárzok,gilárzom,lakik,-zik,2,PR2035,1983,nő,nem,2022-04-12_18h30.31.020,hesp_baseline,2021.2.3,Win32,59.99880002
,,,,,,,,,,,,,,,,,dabzotok,daboztok,left,0.0738,0,131,131,109,1,56,dabzik / dabozik,"dabzik, dabozni",tek,NA,"János imád dabozni, ezért sokat dabzik.",Ti ritkán...,dabzotok,daboztok,cselekszik,-zik,1,PR2035,1983,nő,nem,2022-04-12_18h30.31.020,hesp_baseline,2021.2.3,Win32,59.99880002
,,,,,,,,,,,,,,,,,jóbecnak,jóbecnek,left,0.055,0,132,132,11,1,66,jóbec,jóbec,nak,e,Ez itt egy jóbec.,Elneveztem a kutyámat...,jóbecnek,jóbecnak,dzsungel,NA,NA,PR2035,1983,nő,nem,2022-04-12_18h30.31.020,hesp_baseline,2021.2.3,Win32,59.99880002
,,,,,,,,,,,,,,,,,klidlok,klidlom,right,0.9673,0,133,133,72,1,73,klidlik,klidlasz,NA,NA,Te bizony sokat klidlasz.,Én is sokat...,klidlok,klidlom,lakik,-lik,1,PR2035,1983,nő,nem,2022-04-12_18h30.31.020,hesp_baseline,2021.2.3,Win32,59.99880002
,,,,,,,,,,,,,,,,,tumélynál,tumélynél,right,0.1027,0,134,134,28,1,83,tumély,tumély,nál,é,Ez itt egy tumély.,Nincs is jobb egy jó...,tumélynél,tumélynál,dzsungel,NA,NA,PR2035,1983,nő,nem,2022-04-12_18h30.31.020,hesp_baseline,2021.2.3,Win32,59.99880002
,,,,,,,,,,,,,,,,,flűröklöm,flűröklök,right,0.0942,0,135,135,91,1,92,flűröklik,flűröklesz,NA,NA,Te bizony sokat flűröklesz.,Én is sokat...,flűröklök,flűröklöm,lakik,-lik,2,PR2035,1983,nő,nem,2022-04-12_18h30.31.020,hesp_baseline,2021.2.3,Win32,59.99880002
,,,,,,,,,,,,,,,,,jonylok,jonylom,right,0.0423,0,136,136,55,1,56,jonylik,jonylasz,NA,NA,Te bizony sokat jonylasz.,Én is sokat...,jonylok,jonylom,lakik,-lik,1,PR2035,1983,nő,nem,2022-04-12_18h30.31.020,hesp_baseline,2021.2.3,Win32,59.99880002
,,,,,,,,,,,,,,,,,játlunk,játozunk,left,0.0094,0,137,137,145,1,92,játlik / játozik,"játlik, játozni",ünk,NA,"János imád játozni, ezért sokat játlik.",Mi ritkán...,játlunk,játozunk,cselekszik,-lik,1,PR2035,1983,nő,nem,2022-04-12_18h30.31.020,hesp_baseline,2021.2.3,Win32,59.99880002
,,,,,,,,,,,,,,,,,dibáglotok,dibágoztok,left,0.1633,0,138,138,154,1,101,dibáglik / dibágozik,"dibáglik, dibágozni",tek,NA,"János imád dibágozni, ezért sokat dibáglik.",Ti ritkán...,dibáglotok,dibágoztok,cselekszik,-lik,2,PR2035,1983,nő,nem,2022-04-12_18h30.31.020,hesp_baseline,2021.2.3,Win32,59.99880002
,,,,,,,,,,,,,,,,,flagánylok,flagánylom,left,0.2108,0,139,139,82,1,83,flagánylik,flagánylasz,NA,NA,Te bizony sokat flagánylasz.,Én is sokat...,flagánylok,flagánylom,lakik,-lik,2,PR2035,1983,nő,nem,2022-04-12_18h30.31.020,hesp_baseline,2021.2.3,Win32,59.99880002
,,,,,,,,,,,,,,,,,forzédnak,forzédnek,left,0.1243,0,140,140,46,1,101,forzéd,forzéd,nak,é,Ez itt egy forzéd.,Elneveztem a kutyámat...,forzédnek,forzédnak,dzsungel,NA,NA,PR2035,1983,nő,nem,2022-04-12_18h30.31.020,hesp_baseline,2021.2.3,Win32,59.99880002
,,,,,,,,,,,,,,,,,spihegzek,spihegzem,left,0.1583,0,141,141,81,1,82,spihegzik,spihegzel,NA,NA,Te bizony sokat spihegzel.,Én is sokat...,spihegzek,spihegzem,lakik,-zik,2,PR2035,1983,nő,nem,2022-04-12_18h30.31.020,hesp_baseline,2021.2.3,Win32,59.99880002
,,,,,,,,,,,,,,,,,kluzoztok,kluzlotok,left,0.1118,0,142,142,148,1,95,kluzlik / kluzozik,"kluzlik, kluzozni",tek,NA,"János imád kluzozni, ezért sokat kluzlik.",Ti ritkán...,kluzlotok,kluzoztok,cselekszik,-lik,1,PR2035,1983,nő,nem,2022-04-12_18h30.31.020,hesp_baseline,2021.2.3,Win32,59.99880002
,,,,,,,,,,,,,,,,,flerékszünk,flerékedünk,left,0.129,0,143,143,159,1,106,flerékszik / flerékedik,"flerékszik, flerékedni",ünk,NA,"János imád flerékedni, ezért sokat flerékszik.",Mi ritkán...,flerékszünk,flerékedünk,cselekszik,-szik,2,PR2035,1983,nő,nem,2022-04-12_18h30.31.020,hesp_baseline,2021.2.3,Win32,59.99880002
,,,,,,,,,,,,,,,,,pítendben,pítendban,right,0.0009,0,144,144,18,1,73,pítend,pítend,ban,e,Ez itt egy pítend.,Ott vagyunk a...,pítendben,pítendban,dzsungel,NA,NA,PR2035,1983,nő,nem,2022-04-12_18h30.31.020,hesp_baseline,2021.2.3,Win32,59.99880002
,,,,,,,,,,,,,,,,,hákszanak,hákodnak,right,0.305,0,145,145,150,1,97,hákszik / hákodik,"hákszik, hákodni",nek,NA,"János imád hákodni, ezért sokat hákszik.",Ők ritkán...,hákszanak,hákodnak,cselekszik,-szik,1,PR2035,1983,nő,nem,2022-04-12_18h30.31.020,hesp_baseline,2021.2.3,Win32,59.99880002
,,,,,,,,,,,,,,,,,klűmlötök,klűmöztök,right,0.2776,0,146,146,108,1,55,klűmlik / klűmözik,"klűmlik, klűmözni",tek,NA,"János imád klűmözni, ezért sokat klűmlik.",Ti ritkán...,klűmlötök,klűmöztök,cselekszik,-lik,1,PR2035,1983,nő,nem,2022-04-12_18h30.31.020,hesp_baseline,2021.2.3,Win32,59.99880002
,,,,,,,,,,,,,,,,,nyametben,nyametban,right,0.0862,0,147,147,17,1,72,nyamet,nyamet,ban,e,Ez itt egy nyamet.,Ott vagyunk a...,nyametben,nyametban,dzsungel,NA,NA,PR2035,1983,nő,nem,2022-04-12_18h30.31.020,hesp_baseline,2021.2.3,Win32,59.99880002
,,,,,,,,,,,,,,,,,rapszeknál,rapszeknél,right,0.1898,0,148,148,35,1,90,rapszek,rapszek,nál,e,Ez itt egy rapszek.,Nincs is jobb egy jó...,rapszeknél,rapszeknál,dzsungel,NA,NA,PR2035,1983,nő,nem,2022-04-12_18h30.31.020,hesp_baseline,2021.2.3,Win32,59.99880002
,,,,,,,,,,,,,,,,,flehékszek,flehékszem,right,0.2912,0,149,149,77,1,78,flehékszik,flehékszel,NA,NA,Te bizony sokat flehékszel.,Én is sokat...,flehékszek,flehékszem,lakik,-szik,2,PR2035,1983,nő,nem,2022-04-12_18h30.31.020,hesp_baseline,2021.2.3,Win32,59.99880002
,,,,,,,,,,,,,,,,,dihelynak,dihelynek,right,0.3172,0,150,150,20,1,75,dihely,dihely,nak,e,Ez itt egy dihely.,Elneveztem a kutyámat...,dihelynek,dihelynak,dzsungel,NA,NA,PR2035,1983,nő,nem,2022-04-12_18h30.31.020,hesp_baseline,2021.2.3,Win32,59.99880002
,,,,,,,,,,,,,,,,,töglenek,tögöznek,left,0.8167,0,151,151,156,1,103,töglik / tögözik,"töglik, tögözni",nek,NA,"János imád tögözni, ezért sokat töglik.",Ők ritkán...,töglenek,tögöznek,cselekszik,-lik,1,PR2035,1983,nő,nem,2022-04-12_18h30.31.020,hesp_baseline,2021.2.3,Win32,59.99880002
,,,,,,,,,,,,,,,,,ítensban,ítensben,left,0.2005,0,152,152,50,1,105,ítens,ítens,ban,e,Ez itt egy ítens.,Ott vagyunk a...,ítensben,ítensban,dzsungel,NA,NA,PR2035,1983,nő,nem,2022-04-12_18h30.31.020,hesp_baseline,2021.2.3,Win32,59.99880002
,,,,,,,,,,,,,,,,,jábézben,jábézban,left,0.1546,0,153,153,34,1,89,jábéz,jábéz,ban,é,Ez itt egy jábéz.,Ott vagyunk a...,jábézben,jábézban,dzsungel,NA,NA,PR2035,1983,nő,nem,2022-04-12_18h30.31.020,hesp_baseline,2021.2.3,Win32,59.99880002
,,,,,,,,,,,,,,,,,sprogzom,sprogzok,left,0.1701,0,154,154,89,1,90,sprogzik,sprogzol,NA,NA,Te bizony sokat sprogzol.,Én is sokat...,sprogzok,sprogzom,lakik,-zik,1,PR2035,1983,nő,nem,2022-04-12_18h30.31.020,hesp_baseline,2021.2.3,Win32,59.99880002
,,,,,,,,,,,,,,,,,szirlom,szirlok,right,0.0858,0,155,155,62,1,63,szirlik,szirlasz,NA,NA,Te bizony sokat szirlasz.,Én is sokat...,szirlok,szirlom,lakik,-lik,1,PR2035,1983,nő,nem,2022-04-12_18h30.31.020,hesp_baseline,2021.2.3,Win32,59.99880002
,,,,,,,,,,,,,,,,,prihekszem,prihekszek,right,0.1058,0,156,156,100,1,101,prihekszik,prihekszel,NA,NA,Te bizony sokat prihekszel.,Én is sokat...,prihekszek,prihekszem,lakik,-szik,2,PR2035,1983,nő,nem,2022-04-12_18h30.31.020,hesp_baseline,2021.2.3,Win32,59.99880002
,,,,,,,,,,,,,,,,,nűröklöm,nűröklök,right,0.0507,0,157,157,106,1,107,nűröklik,nűröklesz,NA,NA,Te bizony sokat nűröklesz.,Én is sokat...,nűröklök,nűröklöm,lakik,-lik,2,PR2035,1983,nő,nem,2022-04-12_18h30.31.020,hesp_baseline,2021.2.3,Win32,59.99880002
,,,,,,,,,,,,,,,,,livényezünk,livénylünk,right,0.0868,0,158,158,128,1,75,livénylik / livényezik,"livénylik, livényezni",ünk,NA,"János imád livényezni, ezért sokat livénylik.",Mi ritkán...,livénylünk,livényezünk,cselekszik,-lik,2,PR2035,1983,nő,nem,2022-04-12_18h30.31.020,hesp_baseline,2021.2.3,Win32,59.99880002
,,,,,,,,,,,,,,,,,flűmlöm,flűmlök,left,0.129,0,159,159,54,1,55,flűmlik,flűmlesz,NA,NA,Te bizony sokat flűmlesz.,Én is sokat...,flűmlök,flűmlöm,lakik,-lik,1,PR2035,1983,nő,nem,2022-04-12_18h30.31.020,hesp_baseline,2021.2.3,Win32,59.99880002
,,,,,,,,,,,,,,,,,dilaklotok,dilakoztok,left,0.4594,0,160,160,158,1,105,dilaklik / dilakozik,"dilaklik, dilakozni",tek,NA,"János imád dilakozni, ezért sokat dilaklik.",Ti ritkán...,dilaklotok,dilakoztok,cselekszik,-lik,2,PR2035,1983,nő,nem,2022-04-12_18h30.31.020,hesp_baseline,2021.2.3,Win32,59.99880002
,,,,,,,,,,,,,,,,,lijeznek,lijeznak,right,0.2529,0,161,161,40,1,95,lijez,lijez,nak,e,Ez itt egy lijez.,Elneveztem a kutyámat...,lijeznek,lijeznak,dzsungel,NA,NA,PR2035,1983,nő,nem,2022-04-12_18h30.31.020,hesp_baseline,2021.2.3,Win32,59.99880002
