my_list,key.keys,key.rt,key_2.keys,key_2.rt,keyboard_input_2.keys,keyboard_input_2.rt,key_3.keys,key_3.rt,keyboard_input_3.keys,keyboard_input_3.rt,key_4.keys,key_4.rt,keyboard_input_4.keys,keyboard_input_4.rt,key_5.keys,key_5.rt,my_button1,my_button2,keyboard_input.keys,keyboard_input.rt,withinBlock.thisRepN,withinBlock.thisTrialN,withinBlock.thisN,withinBlock.thisIndex,withinBlock.ran,rowname,word,prompt,suffix,vowel,carrier_sentence,target_sentence,target1,target2,category,derivational,nsyl,Azonosító,Melyik évben születtél?,Mi a nemed?,Tanultál nyelvészetet?,date,expName,psychopyVersion,OS,frameRate
list3.csv,space,69.0389,space,13.5205,right,5.3376,space,9.3302,left,7.1223,space,8.7455,left,5.0814,space,47.4891,zábénynek,zábénynak,left,4.3885,0,0,0,43,1,152,zábény,zábény,nak,é,Ez itt egy zábény.,Elneveztem a kutyámat...,zábénynek,zábénynak,dzsungel,NA,NA,PR2036,2001,nő,nem,2022-04-12_15h50.09.493,hesp_baseline,2021.2.3,Win32,59.64807635
,,,,,,,,,,,,,,,,,vihepszek,vihepszem,right,5.465,0,1,1,59,1,114,vihepszik,vihepszel,NA,NA,Te bizony sokat vihepszel.,Én is sokat...,vihepszek,vihepszem,lakik,-szik,2,PR2036,2001,nő,nem,2022-04-12_15h50.09.493,hesp_baseline,2021.2.3,Win32,59.64807635
,,,,,,,,,,,,,,,,,lűklenek,lűköznek,right,17.7837,0,2,2,136,1,137,lűklik / lűközik,"lűklik, lűközni",nek,NA,"János imád lűközni, ezért sokat lűklik.",Ők ritkán...,lűklenek,lűköznek,cselekszik,-lik,1,PR2036,2001,nő,nem,2022-04-12_15h50.09.493,hesp_baseline,2021.2.3,Win32,59.64807635
,,,,,,,,,,,,,,,,,trikoztok,triklotok,left,60.3058,0,3,3,160,1,161,triklik / trikozik,"triklik, trikozni",tek,NA,"János imád trikozni, ezért sokat triklik.",Ti ritkán...,triklotok,trikoztok,cselekszik,-lik,1,PR2036,2001,nő,nem,2022-04-12_15h50.09.493,hesp_baseline,2021.2.3,Win32,59.64807635
,,,,,,,,,,,,,,,,,gótemnek,gótemnak,left,3.6516,0,4,4,35,1,144,gótem,gótem,nak,e,Ez itt egy gótem.,Elneveztem a kutyámat...,gótemnek,gótemnak,dzsungel,NA,NA,PR2036,2001,nő,nem,2022-04-12_15h50.09.493,hesp_baseline,2021.2.3,Win32,59.64807635
,,,,,,,,,,,,,,,,,licegyban,licegyben,right,4.0385,0,5,5,15,1,124,licegy,licegy,ban,e,Ez itt egy licegy.,Ott vagyunk a...,licegyben,licegyban,dzsungel,NA,NA,PR2036,2001,nő,nem,2022-04-12_15h50.09.493,hesp_baseline,2021.2.3,Win32,59.64807635
,,,,,,,,,,,,,,,,,pristélben,pristélban,left,2.9803,0,6,6,1,1,110,pristél,pristél,ban,é,Ez itt egy pristél.,Ott vagyunk a...,pristélben,pristélban,dzsungel,NA,NA,PR2036,2001,nő,nem,2022-04-12_15h50.09.493,hesp_baseline,2021.2.3,Win32,59.64807635
,,,,,,,,,,,,,,,,,tuboklok,tuboklom,right,7.0799,0,7,7,84,1,139,tuboklik,tuboklasz,NA,NA,Te bizony sokat tuboklasz.,Én is sokat...,tuboklok,tuboklom,lakik,-lik,2,PR2036,2001,nő,nem,2022-04-12_15h50.09.493,hesp_baseline,2021.2.3,Win32,59.64807635
,,,,,,,,,,,,,,,,,fretszem,fretszek,right,6.4183,0,8,8,66,1,121,fretszik,fretszel,NA,NA,Te bizony sokat fretszel.,Én is sokat...,fretszek,fretszem,lakik,-szik,1,PR2036,2001,nő,nem,2022-04-12_15h50.09.493,hesp_baseline,2021.2.3,Win32,59.64807635
,,,,,,,,,,,,,,,,,trincsegban,trincsegben,right,3.2858,0,9,9,46,1,155,trincseg,trincseg,ban,e,Ez itt egy trincseg.,Ott vagyunk a...,trincsegben,trincsegban,dzsungel,NA,NA,PR2036,2001,nő,nem,2022-04-12_15h50.09.493,hesp_baseline,2021.2.3,Win32,59.64807635
,,,,,,,,,,,,,,,,,brindeznek,brindeznak,left,2.5393,0,10,10,6,1,115,brindez,brindez,nak,e,Ez itt egy brindez.,Elneveztem a kutyámat...,brindeznek,brindeznak,dzsungel,NA,NA,PR2036,2001,nő,nem,2022-04-12_15h50.09.493,hesp_baseline,2021.2.3,Win32,59.64807635
,,,,,,,,,,,,,,,,,filánylunk,filányozunk,right,9.2413,0,11,11,134,1,135,filánylik / filányozik,"filánylik, filányozni",ünk,NA,"János imád filányozni, ezért sokat filánylik.",Mi ritkán...,filánylunk,filányozunk,cselekszik,-lik,2,PR2036,2001,nő,nem,2022-04-12_15h50.09.493,hesp_baseline,2021.2.3,Win32,59.64807635
,,,,,,,,,,,,,,,,,spülőrzöm,spülőrzök,left,6.2583,0,12,12,69,1,124,spülőrzik,spülőrzöl,NA,NA,Te bizony sokat spülőrzöl.,Én is sokat...,spülőrzök,spülőrzöm,lakik,-zik,2,PR2036,2001,nő,nem,2022-04-12_15h50.09.493,hesp_baseline,2021.2.3,Win32,59.64807635
,,,,,,,,,,,,,,,,,sprozlanak,sprozoznak,left,15.4736,0,13,13,147,1,148,sprozlik / sprozozik,"sprozlik, sprozozni",nek,NA,"János imád sprozozni, ezért sokat sprozlik.",Ők ritkán...,sprozlanak,sprozoznak,cselekszik,-lik,1,PR2036,2001,nő,nem,2022-04-12_15h50.09.493,hesp_baseline,2021.2.3,Win32,59.64807635
,,,,,,,,,,,,,,,,,trálodunk,trálszunk,right,6.6784,0,14,14,130,1,131,trálszik / trálodik,"trálszik, trálodni",ünk,NA,"János imád trálodni, ezért sokat trálszik.",Mi ritkán...,trálszunk,trálodunk,cselekszik,-szik,1,PR2036,2001,nő,nem,2022-04-12_15h50.09.493,hesp_baseline,2021.2.3,Win32,59.64807635
,,,,,,,,,,,,,,,,,gerénylek,gerénylem,left,5.3714,0,15,15,99,1,154,gerénylik,gerénylesz,NA,NA,Te bizony sokat gerénylesz.,Én is sokat...,gerénylek,gerénylem,lakik,-lik,2,PR2036,2001,nő,nem,2022-04-12_15h50.09.493,hesp_baseline,2021.2.3,Win32,59.64807635
,,,,,,,,,,,,,,,,,sztrozlok,sztrozlom,right,5.9266,0,16,16,104,1,159,sztrozlik,sztrozlasz,NA,NA,Te bizony sokat sztrozlasz.,Én is sokat...,sztrozlok,sztrozlom,lakik,-lik,1,PR2036,2001,nő,nem,2022-04-12_15h50.09.493,hesp_baseline,2021.2.3,Win32,59.64807635
,,,,,,,,,,,,,,,,,prűrlöm,prűrlök,left,4.6675,0,17,17,75,1,130,prűrlik,prűrlesz,NA,NA,Te bizony sokat prűrlesz.,Én is sokat...,prűrlök,prűrlöm,lakik,-lik,1,PR2036,2001,nő,nem,2022-04-12_15h50.09.493,hesp_baseline,2021.2.3,Win32,59.64807635
,,,,,,,,,,,,,,,,,spatelnek,spatelnak,left,5.4626,0,18,18,21,1,130,spatel,spatel,nak,e,Ez itt egy spatel.,Elneveztem a kutyámat...,spatelnek,spatelnak,dzsungel,NA,NA,PR2036,2001,nő,nem,2022-04-12_15h50.09.493,hesp_baseline,2021.2.3,Win32,59.64807635
,,,,,,,,,,,,,,,,,lájoztok,lájzotok,left,6.5957,0,19,19,159,1,160,lájzik / lájozik,"lájzik, lájozni",tek,NA,"János imád lájozni, ezért sokat lájzik.",Ti ritkán...,lájzotok,lájoztok,cselekszik,-zik,1,PR2036,2001,nő,nem,2022-04-12_15h50.09.493,hesp_baseline,2021.2.3,Win32,59.64807635
,,,,,,,,,,,,,,,,,trapszegynál,trapszegynél,left,5.9279,0,20,20,39,1,148,trapszegy,trapszegy,nál,e,Ez itt egy trapszegy.,Nincs is jobb egy jó...,trapszegynél,trapszegynál,dzsungel,NA,NA,PR2036,2001,nő,nem,2022-04-12_15h50.09.493,hesp_baseline,2021.2.3,Win32,59.64807635
,,,,,,,,,,,,,,,,,dorzéjnek,dorzéjnak,left,80.2737,0,21,21,29,1,138,dorzéj,dorzéj,nak,é,Ez itt egy dorzéj.,Elneveztem a kutyámat...,dorzéjnek,dorzéjnak,dzsungel,NA,NA,PR2036,2001,nő,nem,2022-04-12_15h50.09.493,hesp_baseline,2021.2.3,Win32,59.64807635
,,,,,,,,,,,,,,,,,narjárzom,narjárzok,left,6.5831,0,22,22,61,1,116,narjárzik,narjárzol,NA,NA,Te bizony sokat narjárzol.,Én is sokat...,narjárzok,narjárzom,lakik,-zik,2,PR2036,2001,nő,nem,2022-04-12_15h50.09.493,hesp_baseline,2021.2.3,Win32,59.64807635
,,,,,,,,,,,,,,,,,trivakodunk,trivakszunk,left,5.1023,0,23,23,118,1,119,trivakszik / trivakodik,"trivakszik, trivakodni",ünk,NA,"János imád trivakodni, ezért sokat trivakszik.",Mi ritkán...,trivakszunk,trivakodunk,cselekszik,-szik,2,PR2036,2001,nő,nem,2022-04-12_15h50.09.493,hesp_baseline,2021.2.3,Win32,59.64807635
,,,,,,,,,,,,,,,,,hűgzöm,hűgzök,right,4.0127,0,24,24,107,1,162,hűgzik,hűgzöl,NA,NA,Te bizony sokat hűgzöl.,Én is sokat...,hűgzök,hűgzöm,lakik,-zik,1,PR2036,2001,nő,nem,2022-04-12_15h50.09.493,hesp_baseline,2021.2.3,Win32,59.64807635
,,,,,,,,,,,,,,,,,trálaklanak,trálakoznak,right,5.9699,0,25,25,116,1,117,trálaklik / trálakozik,"trálaklik, trálakozni",nek,NA,"János imád trálakozni, ezért sokat trálaklik.",Ők ritkán...,trálaklanak,trálakoznak,cselekszik,-lik,2,PR2036,2001,nő,nem,2022-04-12_15h50.09.493,hesp_baseline,2021.2.3,Win32,59.64807635
,,,,,,,,,,,,,,,,,dirlotok,diroztok,left,5.404,0,26,26,148,1,149,dirlik / dirozik,"dirlik, dirozni",tek,NA,"János imád dirozni, ezért sokat dirlik.",Ti ritkán...,dirlotok,diroztok,cselekszik,-lik,1,PR2036,2001,nő,nem,2022-04-12_15h50.09.493,hesp_baseline,2021.2.3,Win32,59.64807635
,,,,,,,,,,,,,,,,,sartelyben,sartelyban,left,2.6588,0,27,27,40,1,149,sartely,sartely,ban,e,Ez itt egy sartely.,Ott vagyunk a...,sartelyben,sartelyban,dzsungel,NA,NA,PR2036,2001,nő,nem,2022-04-12_15h50.09.493,hesp_baseline,2021.2.3,Win32,59.64807635
,,,,,,,,,,,,,,,,,klárzok,klárzom,left,4.0694,0,28,28,85,1,140,klárzik,klárzol,NA,NA,Te bizony sokat klárzol.,Én is sokat...,klárzok,klárzom,lakik,-zik,1,PR2036,2001,nő,nem,2022-04-12_15h50.09.493,hesp_baseline,2021.2.3,Win32,59.64807635
,,,,,,,,,,,,,,,,,sztrűkszöm,sztrűkszök,left,7.0999,0,29,29,77,1,132,sztrűkszik,sztrűkszöl,NA,NA,Te bizony sokat sztrűkszöl.,Én is sokat...,sztrűkszök,sztrűkszöm,lakik,-szik,1,PR2036,2001,nő,nem,2022-04-12_15h50.09.493,hesp_baseline,2021.2.3,Win32,59.64807635
,,,,,,,,,,,,,,,,,spuménynak,spuménynek,left,9.214,0,30,30,19,1,128,spumény,spumény,nak,é,Ez itt egy spumény.,Elneveztem a kutyámat...,spuménynek,spuménynak,dzsungel,NA,NA,PR2036,2001,nő,nem,2022-04-12_15h50.09.493,hesp_baseline,2021.2.3,Win32,59.64807635
,,,,,,,,,,,,,,,,,klosétnak,klosétnek,left,2.9096,0,31,31,45,1,154,klosét,klosét,nak,é,Ez itt egy klosét.,Elneveztem a kutyámat...,klosétnek,klosétnak,dzsungel,NA,NA,PR2036,2001,nő,nem,2022-04-12_15h50.09.493,hesp_baseline,2021.2.3,Win32,59.64807635
,,,,,,,,,,,,,,,,,táklom,táklok,left,2.5915,0,32,32,79,1,134,táklik,táklasz,NA,NA,Te bizony sokat táklasz.,Én is sokat...,táklok,táklom,lakik,-lik,1,PR2036,2001,nő,nem,2022-04-12_15h50.09.493,hesp_baseline,2021.2.3,Win32,59.64807635
,,,,,,,,,,,,,,,,,brotesben,brotesban,right,3.4657,0,33,33,53,1,162,brotes,brotes,ban,e,Ez itt egy brotes.,Ott vagyunk a...,brotesben,brotesban,dzsungel,NA,NA,PR2036,2001,nő,nem,2022-04-12_15h50.09.493,hesp_baseline,2021.2.3,Win32,59.64807635
,,,,,,,,,,,,,,,,,sprivencnél,sprivencnál,left,4.033,0,34,34,13,1,122,sprivenc,sprivenc,nál,e,Ez itt egy sprivenc.,Nincs is jobb egy jó...,sprivencnél,sprivencnál,dzsungel,NA,NA,PR2036,2001,nő,nem,2022-04-12_15h50.09.493,hesp_baseline,2021.2.3,Win32,59.64807635
,,,,,,,,,,,,,,,,,huméknak,huméknek,left,13.9544,0,35,35,23,1,132,humék,humék,nak,é,Ez itt egy humék.,Elneveztem a kutyámat...,huméknek,huméknak,dzsungel,NA,NA,PR2036,2001,nő,nem,2022-04-12_15h50.09.493,hesp_baseline,2021.2.3,Win32,59.64807635
,,,,,,,,,,,,,,,,,finceknál,finceknél,left,3.1273,0,36,36,9,1,118,fincek,fincek,nál,e,Ez itt egy fincek.,Nincs is jobb egy jó...,finceknél,finceknál,dzsungel,NA,NA,PR2036,2001,nő,nem,2022-04-12_15h50.09.493,hesp_baseline,2021.2.3,Win32,59.64807635
,,,,,,,,,,,,,,,,,gyibakszom,gyibakszok,left,2.457,0,37,37,57,1,112,gyibakszik,gyibakszol,NA,NA,Te bizony sokat gyibakszol.,Én is sokat...,gyibakszok,gyibakszom,lakik,-szik,2,PR2036,2001,nő,nem,2022-04-12_15h50.09.493,hesp_baseline,2021.2.3,Win32,59.64807635
,,,,,,,,,,,,,,,,,trilekszetek,trilekedtek,right,5.8184,0,38,38,157,1,158,trilekszik / trilekedik,"trilekszik, trilekedni",tek,NA,"János imád trilekedni, ezért sokat trilekszik.",Ti ritkán...,trilekszetek,trilekedtek,cselekszik,-szik,2,PR2036,2001,nő,nem,2022-04-12_15h50.09.493,hesp_baseline,2021.2.3,Win32,59.64807635
,,,,,,,,,,,,,,,,,frilegszem,frilegszek,right,3.7349,0,39,39,72,1,127,frilegszik,frilegszel,NA,NA,Te bizony sokat frilegszel.,Én is sokat...,frilegszek,frilegszem,lakik,-szik,2,PR2036,2001,nő,nem,2022-04-12_15h50.09.493,hesp_baseline,2021.2.3,Win32,59.64807635
,,,,,,,,,,,,,,,,,trádlok,trádlom,left,2.3479,0,40,40,105,1,160,trádlik,trádlasz,NA,NA,Te bizony sokat trádlasz.,Én is sokat...,trádlok,trádlom,lakik,-lik,1,PR2036,2001,nő,nem,2022-04-12_15h50.09.493,hesp_baseline,2021.2.3,Win32,59.64807635
,,,,,,,,,,,,,,,,,vehékedünk,vehékszünk,right,16.7302,0,41,41,117,1,118,vehékszik / vehékedik,"vehékszik, vehékedni",ünk,NA,"János imád vehékedni, ezért sokat vehékszik.",Mi ritkán...,vehékszünk,vehékedünk,cselekszik,-szik,2,PR2036,2001,nő,nem,2022-04-12_15h50.09.493,hesp_baseline,2021.2.3,Win32,59.64807635
,,,,,,,,,,,,,,,,,drivegzetek,drivegeztek,right,4.8577,0,42,42,112,1,113,drivegzik / drivegezik,"drivegzik, drivegezni",tek,NA,"János imád drivegezni, ezért sokat drivegzik.",Ti ritkán...,drivegzetek,drivegeztek,cselekszik,-zik,2,PR2036,2001,nő,nem,2022-04-12_15h50.09.493,hesp_baseline,2021.2.3,Win32,59.64807635
,,,,,,,,,,,,,,,,,brivágoznak,briváglanak,left,3.4656,0,43,43,138,1,139,briváglik / brivágozik,"briváglik, brivágozni",nek,NA,"János imád brivágozni, ezért sokat briváglik.",Ők ritkán...,briváglanak,brivágoznak,cselekszik,-lik,2,PR2036,2001,nő,nem,2022-04-12_15h50.09.493,hesp_baseline,2021.2.3,Win32,59.64807635
,,,,,,,,,,,,,,,,,trűnyöznek,trűnylenek,left,19.0816,0,44,44,119,1,120,trűnylik / trűnyözik,"trűnylik, trűnyözni",nek,NA,"János imád trűnyözni, ezért sokat trűnylik.",Ők ritkán...,trűnylenek,trűnyöznek,cselekszik,-lik,1,PR2036,2001,nő,nem,2022-04-12_15h50.09.493,hesp_baseline,2021.2.3,Win32,59.64807635
,,,,,,,,,,,,,,,,,briskédnál,briskédnél,right,16.8841,0,45,45,51,1,160,briskéd,briskéd,nál,é,Ez itt egy briskéd.,Nincs is jobb egy jó...,briskédnél,briskédnál,dzsungel,NA,NA,PR2036,2001,nő,nem,2022-04-12_15h50.09.493,hesp_baseline,2021.2.3,Win32,59.64807635
,,,,,,,,,,,,,,,,,danétnál,danétnél,left,3.4102,0,46,46,38,1,147,danét,danét,nál,é,Ez itt egy danét.,Nincs is jobb egy jó...,danétnél,danétnál,dzsungel,NA,NA,PR2036,2001,nő,nem,2022-04-12_15h50.09.493,hesp_baseline,2021.2.3,Win32,59.64807635
,,,,,,,,,,,,,,,,,csodegnél,csodegnál,right,5.6136,0,47,47,28,1,137,csodeg,csodeg,nál,e,Ez itt egy csodeg.,Nincs is jobb egy jó...,csodegnél,csodegnál,dzsungel,NA,NA,PR2036,2001,nő,nem,2022-04-12_15h50.09.493,hesp_baseline,2021.2.3,Win32,59.64807635
,,,,,,,,,,,,,,,,,vűjlök,vűjlöm,left,2.6967,0,48,48,94,1,149,vűjlik,vűjlesz,NA,NA,Te bizony sokat vűjlesz.,Én is sokat...,vűjlök,vűjlöm,lakik,-lik,1,PR2036,2001,nő,nem,2022-04-12_15h50.09.493,hesp_baseline,2021.2.3,Win32,59.64807635
,,,,,,,,,,,,,,,,,rájzok,rájzom,right,3.4104,0,49,49,70,1,125,rájzik,rájzol,NA,NA,Te bizony sokat rájzol.,Én is sokat...,rájzok,rájzom,lakik,-zik,1,PR2036,2001,nő,nem,2022-04-12_15h50.09.493,hesp_baseline,2021.2.3,Win32,59.64807635
,,,,,,,,,,,,,,,,,spanélnél,spanélnál,right,2.6842,0,50,50,24,1,133,spanél,spanél,nál,é,Ez itt egy spanél.,Nincs is jobb egy jó...,spanélnél,spanélnál,dzsungel,NA,NA,PR2036,2001,nő,nem,2022-04-12_15h50.09.493,hesp_baseline,2021.2.3,Win32,59.64807635
,,,,,,,,,,,,,,,,,triképben,triképban,left,3.4236,0,51,51,33,1,142,trikép,trikép,ban,é,Ez itt egy trikép.,Ott vagyunk a...,triképben,triképban,dzsungel,NA,NA,PR2036,2001,nő,nem,2022-04-12_15h50.09.493,hesp_baseline,2021.2.3,Win32,59.64807635
,,,,,,,,,,,,,,,,,pribagszom,pribagszok,right,6.4663,0,52,52,76,1,131,pribagszik,pribagszol,NA,NA,Te bizony sokat pribagszol.,Én is sokat...,pribagszok,pribagszom,lakik,-szik,2,PR2036,2001,nő,nem,2022-04-12_15h50.09.493,hesp_baseline,2021.2.3,Win32,59.64807635
,,,,,,,,,,,,,,,,,bivejlem,bivejlek,left,4.0917,0,53,53,73,1,128,bivejlik,bivejlesz,NA,NA,Te bizony sokat bivejlesz.,Én is sokat...,bivejlek,bivejlem,lakik,-lik,2,PR2036,2001,nő,nem,2022-04-12_15h50.09.493,hesp_baseline,2021.2.3,Win32,59.64807635
,,,,,,,,,,,,,,,,,flököztök,flöklötök,left,4.2679,0,54,54,121,1,122,flöklik / flöközik,"flöklik, flöközni",tek,NA,"János imád flöközni, ezért sokat flöklik.",Ti ritkán...,flöklötök,flököztök,cselekszik,-lik,1,PR2036,2001,nő,nem,2022-04-12_15h50.09.493,hesp_baseline,2021.2.3,Win32,59.64807635
,,,,,,,,,,,,,,,,,nyáslom,nyáslok,left,4.374,0,55,55,100,1,155,nyáslik,nyáslasz,NA,NA,Te bizony sokat nyáslasz.,Én is sokat...,nyáslok,nyáslom,lakik,-lik,1,PR2036,2001,nő,nem,2022-04-12_15h50.09.493,hesp_baseline,2021.2.3,Win32,59.64807635
,,,,,,,,,,,,,,,,,klarágzotok,klarágoztok,right,12.9806,0,56,56,114,1,115,klarágzik / klarágozik,"klarágzik, klarágozni",tek,NA,"János imád klarágozni, ezért sokat klarágzik.",Ti ritkán...,klarágzotok,klarágoztok,cselekszik,-zik,2,PR2036,2001,nő,nem,2022-04-12_15h50.09.493,hesp_baseline,2021.2.3,Win32,59.64807635
,,,,,,,,,,,,,,,,,braszencnál,braszencnél,left,3.886,0,57,57,7,1,116,braszenc,braszenc,nál,e,Ez itt egy braszenc.,Nincs is jobb egy jó...,braszencnél,braszencnál,dzsungel,NA,NA,PR2036,2001,nő,nem,2022-04-12_15h50.09.493,hesp_baseline,2021.2.3,Win32,59.64807635
,,,,,,,,,,,,,,,,,sprökszöm,sprökszök,left,4.5243,0,58,58,88,1,143,sprökszik,sprökszöl,NA,NA,Te bizony sokat sprökszöl.,Én is sokat...,sprökszök,sprökszöm,lakik,-szik,1,PR2036,2001,nő,nem,2022-04-12_15h50.09.493,hesp_baseline,2021.2.3,Win32,59.64807635
,,,,,,,,,,,,,,,,,vodecnél,vodecnál,right,2.6661,0,59,59,30,1,139,vodec,vodec,nál,e,Ez itt egy vodec.,Nincs is jobb egy jó...,vodecnél,vodecnál,dzsungel,NA,NA,PR2036,2001,nő,nem,2022-04-12_15h50.09.493,hesp_baseline,2021.2.3,Win32,59.64807635
,,,,,,,,,,,,,,,,,zsádévnak,zsádévnek,right,4.8192,0,60,60,20,1,129,zsádév,zsádév,nak,é,Ez itt egy zsádév.,Elneveztem a kutyámat...,zsádévnek,zsádévnak,dzsungel,NA,NA,PR2036,2001,nő,nem,2022-04-12_15h50.09.493,hesp_baseline,2021.2.3,Win32,59.64807635
,,,,,,,,,,,,,,,,,vubletnál,vubletnél,left,3.7372,0,61,61,26,1,135,vublet,vublet,nál,e,Ez itt egy vublet.,Nincs is jobb egy jó...,vubletnél,vubletnál,dzsungel,NA,NA,PR2036,2001,nő,nem,2022-04-12_15h50.09.493,hesp_baseline,2021.2.3,Win32,59.64807635
,,,,,,,,,,,,,,,,,pibegeznek,pibegzenek,left,3.5313,0,62,62,127,1,128,pibegzik / pibegezik,"pibegzik, pibegezni",nek,NA,"János imád pibegezni, ezért sokat pibegzik.",Ők ritkán...,pibegzenek,pibegeznek,cselekszik,-zik,2,PR2036,2001,nő,nem,2022-04-12_15h50.09.493,hesp_baseline,2021.2.3,Win32,59.64807635
,,,,,,,,,,,,,,,,,brálamoznak,brálamlanak,left,5.4249,0,63,63,144,1,145,brálamlik / brálamozik,"brálamlik, brálamozni",nek,NA,"János imád brálamozni, ezért sokat brálamlik.",Ők ritkán...,brálamlanak,brálamoznak,cselekszik,-lik,2,PR2036,2001,nő,nem,2022-04-12_15h50.09.493,hesp_baseline,2021.2.3,Win32,59.64807635
,,,,,,,,,,,,,,,,,zödlöm,zödlök,left,2.977,0,64,64,106,1,161,zödlik,zödlesz,NA,NA,Te bizony sokat zödlesz.,Én is sokat...,zödlök,zödlöm,lakik,-lik,1,PR2036,2001,nő,nem,2022-04-12_15h50.09.493,hesp_baseline,2021.2.3,Win32,59.64807635
,,,,,,,,,,,,,,,,,bidemban,bidemben,right,1.9984,0,65,65,2,1,111,bidem,bidem,ban,e,Ez itt egy bidem.,Ott vagyunk a...,bidemben,bidemban,dzsungel,NA,NA,PR2036,2001,nő,nem,2022-04-12_15h50.09.493,hesp_baseline,2021.2.3,Win32,59.64807635
,,,,,,,,,,,,,,,,,kátelnak,kátelnek,right,3.3777,0,66,66,12,1,121,kátel,kátel,nak,e,Ez itt egy kátel.,Elneveztem a kutyámat...,kátelnek,kátelnak,dzsungel,NA,NA,PR2036,2001,nő,nem,2022-04-12_15h50.09.493,hesp_baseline,2021.2.3,Win32,59.64807635
,,,,,,,,,,,,,,,,,fizendban,fizendben,left,2.4063,0,67,67,49,1,158,fizend,fizend,ban,e,Ez itt egy fizend.,Ott vagyunk a...,fizendben,fizendban,dzsungel,NA,NA,PR2036,2001,nő,nem,2022-04-12_15h50.09.493,hesp_baseline,2021.2.3,Win32,59.64807635
,,,,,,,,,,,,,,,,,féjzek,féjzem,left,3.1348,0,68,68,91,1,146,féjzik,féjzel,NA,NA,Te bizony sokat féjzel.,Én is sokat...,féjzek,féjzem,lakik,-zik,1,PR2036,2001,nő,nem,2022-04-12_15h50.09.493,hesp_baseline,2021.2.3,Win32,59.64807635
,,,,,,,,,,,,,,,,,trugoklanak,trugokoznak,left,5.5548,0,69,69,109,1,110,trugoklik / trugokozik,"trugoklik, trugokozni",nek,NA,"János imád trugokozni, ezért sokat trugoklik.",Ők ritkán...,trugoklanak,trugokoznak,cselekszik,-lik,2,PR2036,2001,nő,nem,2022-04-12_15h50.09.493,hesp_baseline,2021.2.3,Win32,59.64807635
,,,,,,,,,,,,,,,,,nyarcéjnak,nyarcéjnek,left,4.592,0,70,70,37,1,146,nyarcéj,nyarcéj,nak,é,Ez itt egy nyarcéj.,Elneveztem a kutyámat...,nyarcéjnek,nyarcéjnak,dzsungel,NA,NA,PR2036,2001,nő,nem,2022-04-12_15h50.09.493,hesp_baseline,2021.2.3,Win32,59.64807635
,,,,,,,,,,,,,,,,,sűzlöm,sűzlök,left,3.1349,0,71,71,54,1,109,sűzlik,sűzlesz,NA,NA,Te bizony sokat sűzlesz.,Én is sokat...,sűzlök,sűzlöm,lakik,-lik,1,PR2036,2001,nő,nem,2022-04-12_15h50.09.493,hesp_baseline,2021.2.3,Win32,59.64807635
,,,,,,,,,,,,,,,,,trismélnak,trismélnek,right,2.9914,0,72,72,5,1,114,trismél,trismél,nak,é,Ez itt egy trismél.,Elneveztem a kutyámat...,trismélnek,trismélnak,dzsungel,NA,NA,PR2036,2001,nő,nem,2022-04-12_15h50.09.493,hesp_baseline,2021.2.3,Win32,59.64807635
,,,,,,,,,,,,,,,,,szihétnek,szihétnak,left,4.1345,0,73,73,4,1,113,szihét,szihét,nak,é,Ez itt egy szihét.,Elneveztem a kutyámat...,szihétnek,szihétnak,dzsungel,NA,NA,PR2036,2001,nő,nem,2022-04-12_15h50.09.493,hesp_baseline,2021.2.3,Win32,59.64807635
,,,,,,,,,,,,,,,,,piragszok,piragszom,left,5.8358,0,74,74,83,1,138,piragszik,piragszol,NA,NA,Te bizony sokat piragszol.,Én is sokat...,piragszok,piragszom,lakik,-szik,2,PR2036,2001,nő,nem,2022-04-12_15h50.09.493,hesp_baseline,2021.2.3,Win32,59.64807635
,,,,,,,,,,,,,,,,,tibarzanak,tibaroznak,right,6.6309,0,75,75,155,1,156,tibarzik / tibarozik,"tibarzik, tibarozni",nek,NA,"János imád tibarozni, ezért sokat tibarzik.",Ők ritkán...,tibarzanak,tibaroznak,cselekszik,-zik,2,PR2036,2001,nő,nem,2022-04-12_15h50.09.493,hesp_baseline,2021.2.3,Win32,59.64807635
,,,,,,,,,,,,,,,,,nivárzotok,nivároztok,right,8.4657,0,76,76,146,1,147,nivárzik / nivározik,"nivárzik, nivározni",tek,NA,"János imád nivározni, ezért sokat nivárzik.",Ti ritkán...,nivárzotok,nivároztok,cselekszik,-zik,2,PR2036,2001,nő,nem,2022-04-12_15h50.09.493,hesp_baseline,2021.2.3,Win32,59.64807635
,,,,,,,,,,,,,,,,,gibemezünk,gibemlünk,right,5.205,0,77,77,115,1,116,gibemlik / gibemezik,"gibemlik, gibemezni",ünk,NA,"János imád gibemezni, ezért sokat gibemlik.",Mi ritkán...,gibemlünk,gibemezünk,cselekszik,-lik,2,PR2036,2001,nő,nem,2022-04-12_15h50.09.493,hesp_baseline,2021.2.3,Win32,59.64807635
,,,,,,,,,,,,,,,,,siladzom,siladzok,left,3.4656,0,78,78,93,1,148,siladzik,siladzol,NA,NA,Te bizony sokat siladzol.,Én is sokat...,siladzok,siladzom,lakik,-zik,2,PR2036,2001,nő,nem,2022-04-12_15h50.09.493,hesp_baseline,2021.2.3,Win32,59.64807635
,,,,,,,,,,,,,,,,,kábesznél,kábesznál,left,3.2504,0,79,79,44,1,153,kábesz,kábesz,nál,e,Ez itt egy kábesz.,Nincs is jobb egy jó...,kábesznél,kábesznál,dzsungel,NA,NA,PR2036,2001,nő,nem,2022-04-12_15h50.09.493,hesp_baseline,2021.2.3,Win32,59.64807635
,,,,,,,,,,,,,,,,,sprálszok,sprálszom,left,4.4476,0,80,80,65,1,120,sprálszik,sprálszol,NA,NA,Te bizony sokat sprálszol.,Én is sokat...,sprálszok,sprálszom,lakik,-szik,1,PR2036,2001,nő,nem,2022-04-12_15h50.09.493,hesp_baseline,2021.2.3,Win32,59.64807635
,,,,,,,,,,,,,,,,,trájegban,trájegben,left,6.5081,0,81,81,14,1,123,trájeg,trájeg,ban,e,Ez itt egy trájeg.,Ott vagyunk a...,trájegben,trájegban,dzsungel,NA,NA,PR2036,2001,nő,nem,2022-04-12_15h50.09.493,hesp_baseline,2021.2.3,Win32,59.64807635
,,,,,,,,,,,,,,,,,dalencnál,dalencnél,left,2.6671,0,82,82,31,1,140,dalenc,dalenc,nál,e,Ez itt egy dalenc.,Nincs is jobb egy jó...,dalencnél,dalencnál,dzsungel,NA,NA,PR2036,2001,nő,nem,2022-04-12_15h50.09.493,hesp_baseline,2021.2.3,Win32,59.64807635
,,,,,,,,,,,,,,,,,frálapodtok,frálapszotok,left,5.7563,0,83,83,150,1,151,frálapszik / frálapodik,"frálapszik, frálapodni",tek,NA,"János imád frálapodni, ezért sokat frálapszik.",Ti ritkán...,frálapszotok,frálapodtok,cselekszik,-szik,2,PR2036,2001,nő,nem,2022-04-12_15h50.09.493,hesp_baseline,2021.2.3,Win32,59.64807635
,,,,,,,,,,,,,,,,,gicéjnél,gicéjnál,left,2.8904,0,84,84,17,1,126,gicéj,gicéj,nál,é,Ez itt egy gicéj.,Nincs is jobb egy jó...,gicéjnél,gicéjnál,dzsungel,NA,NA,PR2036,2001,nő,nem,2022-04-12_15h50.09.493,hesp_baseline,2021.2.3,Win32,59.64807635
,,,,,,,,,,,,,,,,,brűklötök,brűköztök,left,3.5845,0,85,85,153,1,154,brűklik / brűközik,"brűklik, brűközni",tek,NA,"János imád brűközni, ezért sokat brűklik.",Ti ritkán...,brűklötök,brűköztök,cselekszik,-lik,1,PR2036,2001,nő,nem,2022-04-12_15h50.09.493,hesp_baseline,2021.2.3,Win32,59.64807635
,,,,,,,,,,,,,,,,,hágyétnak,hágyétnek,left,3.2892,0,86,86,42,1,151,hágyét,hágyét,nak,é,Ez itt egy hágyét.,Elneveztem a kutyámat...,hágyétnek,hágyétnak,dzsungel,NA,NA,PR2036,2001,nő,nem,2022-04-12_15h50.09.493,hesp_baseline,2021.2.3,Win32,59.64807635
,,,,,,,,,,,,,,,,,ibékszek,ibékszem,left,2.9794,0,87,87,95,1,150,ibékszik,ibékszel,NA,NA,Te bizony sokat ibékszel.,Én is sokat...,ibékszek,ibékszem,lakik,-szik,2,PR2036,2001,nő,nem,2022-04-12_15h50.09.493,hesp_baseline,2021.2.3,Win32,59.64807635
,,,,,,,,,,,,,,,,,prínylom,prínylok,left,2.6559,0,88,88,102,1,157,prínylik,prínylasz,NA,NA,Te bizony sokat prínylasz.,Én is sokat...,prínylok,prínylom,lakik,-lik,1,PR2036,2001,nő,nem,2022-04-12_15h50.09.493,hesp_baseline,2021.2.3,Win32,59.64807635
,,,,,,,,,,,,,,,,,tínylok,tínylom,left,3.0881,0,89,89,58,1,113,tínylik,tínylasz,NA,NA,Te bizony sokat tínylasz.,Én is sokat...,tínylok,tínylom,lakik,-lik,1,PR2036,2001,nő,nem,2022-04-12_15h50.09.493,hesp_baseline,2021.2.3,Win32,59.64807635
,,,,,,,,,,,,,,,,,zatéjnál,zatéjnél,left,2.4014,0,90,90,34,1,143,zatéj,zatéj,nál,é,Ez itt egy zatéj.,Nincs is jobb egy jó...,zatéjnél,zatéjnál,dzsungel,NA,NA,PR2036,2001,nő,nem,2022-04-12_15h50.09.493,hesp_baseline,2021.2.3,Win32,59.64807635
,,,,,,,,,,,,,,,,,brüjlöm,brüjlök,left,2.3031,0,91,91,55,1,110,brüjlik,brüjlesz,NA,NA,Te bizony sokat brüjlesz.,Én is sokat...,brüjlök,brüjlöm,lakik,-lik,1,PR2036,2001,nő,nem,2022-04-12_15h50.09.493,hesp_baseline,2021.2.3,Win32,59.64807635
,,,,,,,,,,,,,,,,,frivajlom,frivajlok,right,3.9785,0,92,92,78,1,133,frivajlik,frivajlasz,NA,NA,Te bizony sokat frivajlasz.,Én is sokat...,frivajlok,frivajlom,lakik,-lik,2,PR2036,2001,nő,nem,2022-04-12_15h50.09.493,hesp_baseline,2021.2.3,Win32,59.64807635
,,,,,,,,,,,,,,,,,böjzök,böjzöm,left,3.5246,0,93,93,80,1,135,böjzik,böjzöl,NA,NA,Te bizony sokat böjzöl.,Én is sokat...,böjzök,böjzöm,lakik,-zik,1,PR2036,2001,nő,nem,2022-04-12_15h50.09.493,hesp_baseline,2021.2.3,Win32,59.64807635
,,,,,,,,,,,,,,,,,spalárzanak,spalároznak,left,8.0984,0,94,94,137,1,138,spalárzik / spalározik,"spalárzik, spalározni",nek,NA,"János imád spalározni, ezért sokat spalárzik.",Ők ritkán...,spalárzanak,spalároznak,cselekszik,-zik,2,PR2036,2001,nő,nem,2022-04-12_15h50.09.493,hesp_baseline,2021.2.3,Win32,59.64807635
,,,,,,,,,,,,,,,,,sztruglok,sztruglom,left,3.1455,0,95,95,67,1,122,sztruglik,sztruglasz,NA,NA,Te bizony sokat sztruglasz.,Én is sokat...,sztruglok,sztruglom,lakik,-lik,1,PR2036,2001,nő,nem,2022-04-12_15h50.09.493,hesp_baseline,2021.2.3,Win32,59.64807635
,,,,,,,,,,,,,,,,,brivepedünk,brivepszünk,right,3.3501,0,96,96,113,1,114,brivepszik / brivepedik,"brivepszik, brivepedni",ünk,NA,"János imád brivepedni, ezért sokat brivepszik.",Mi ritkán...,brivepszünk,brivepedünk,cselekszik,-szik,2,PR2036,2001,nő,nem,2022-04-12_15h50.09.493,hesp_baseline,2021.2.3,Win32,59.64807635
,,,,,,,,,,,,,,,,,klégezünk,kléglünk,left,5.6767,0,97,97,122,1,123,kléglik / klégezik,"kléglik, klégezni",ünk,NA,"János imád klégezni, ezért sokat kléglik.",Mi ritkán...,kléglünk,klégezünk,cselekszik,-lik,1,PR2036,2001,nő,nem,2022-04-12_15h50.09.493,hesp_baseline,2021.2.3,Win32,59.64807635
,,,,,,,,,,,,,,,,,spibamlanak,spibamoznak,right,6.8643,0,98,98,142,1,143,spibamlik / spibamozik,"spibamlik, spibamozni",nek,NA,"János imád spibamozni, ezért sokat spibamlik.",Ők ritkán...,spibamlanak,spibamoznak,cselekszik,-lik,2,PR2036,2001,nő,nem,2022-04-12_15h50.09.493,hesp_baseline,2021.2.3,Win32,59.64807635
,,,,,,,,,,,,,,,,,bródesznak,bródesznek,left,3.2489,0,99,99,32,1,141,bródesz,bródesz,nak,e,Ez itt egy bródesz.,Elneveztem a kutyámat...,bródesznek,bródesznak,dzsungel,NA,NA,PR2036,2001,nő,nem,2022-04-12_15h50.09.493,hesp_baseline,2021.2.3,Win32,59.64807635
,,,,,,,,,,,,,,,,,sztrijzom,sztrijzok,right,6.3172,0,100,100,68,1,123,sztrijzik,sztrijzol,NA,NA,Te bizony sokat sztrijzol.,Én is sokat...,sztrijzok,sztrijzom,lakik,-zik,1,PR2036,2001,nő,nem,2022-04-12_15h50.09.493,hesp_baseline,2021.2.3,Win32,59.64807635
,,,,,,,,,,,,,,,,,nyítemban,nyítemben,right,5.8721,0,101,101,41,1,150,nyítem,nyítem,ban,e,Ez itt egy nyítem.,Ott vagyunk a...,nyítemben,nyítemban,dzsungel,NA,NA,PR2036,2001,nő,nem,2022-04-12_15h50.09.493,hesp_baseline,2021.2.3,Win32,59.64807635
,,,,,,,,,,,,,,,,,klibamlok,klibamlom,left,5.2484,0,102,102,92,1,147,klibamlik,klibamlasz,NA,NA,Te bizony sokat klibamlasz.,Én is sokat...,klibamlok,klibamlom,lakik,-lik,2,PR2036,2001,nő,nem,2022-04-12_15h50.09.493,hesp_baseline,2021.2.3,Win32,59.64807635
,,,,,,,,,,,,,,,,,vilesezünk,vileslünk,left,5.5772,0,103,103,139,1,140,vileslik / vilesezik,"vileslik, vilesezni",ünk,NA,"János imád vilesezni, ezért sokat vileslik.",Mi ritkán...,vileslünk,vilesezünk,cselekszik,-lik,2,PR2036,2001,nő,nem,2022-04-12_15h50.09.493,hesp_baseline,2021.2.3,Win32,59.64807635
,,,,,,,,,,,,,,,,,spiráglotok,spirágoztok,right,4.6074,0,104,104,135,1,136,spiráglik / spirágozik,"spiráglik, spirágozni",tek,NA,"János imád spirágozni, ezért sokat spiráglik.",Ti ritkán...,spiráglotok,spirágoztok,cselekszik,-lik,2,PR2036,2001,nő,nem,2022-04-12_15h50.09.493,hesp_baseline,2021.2.3,Win32,59.64807635
,,,,,,,,,,,,,,,,,jurdentnál,jurdentnél,left,3.4131,0,105,105,16,1,125,jurdent,jurdent,nál,e,Ez itt egy jurdent.,Nincs is jobb egy jó...,jurdentnél,jurdentnál,dzsungel,NA,NA,PR2036,2001,nő,nem,2022-04-12_15h50.09.493,hesp_baseline,2021.2.3,Win32,59.64807635
,,,,,,,,,,,,,,,,,szutendban,szutendben,left,3.0989,0,106,106,11,1,120,szutend,szutend,ban,e,Ez itt egy szutend.,Ott vagyunk a...,szutendben,szutendban,dzsungel,NA,NA,PR2036,2001,nő,nem,2022-04-12_15h50.09.493,hesp_baseline,2021.2.3,Win32,59.64807635
,,,,,,,,,,,,,,,,,brároznak,brárlanak,left,4.8034,0,107,107,126,1,127,brárlik / brározik,"brárlik, brározni",nek,NA,"János imád brározni, ezért sokat brárlik.",Ők ritkán...,brárlanak,brároznak,cselekszik,-lik,1,PR2036,2001,nő,nem,2022-04-12_15h50.09.493,hesp_baseline,2021.2.3,Win32,59.64807635
,,,,,,,,,,,,,,,,,sztredeztek,sztredletek,left,3.2176,0,108,108,145,1,146,sztredlik / sztredezik,"sztredlik, sztredezni",tek,NA,"János imád sztredezni, ezért sokat sztredlik.",Ti ritkán...,sztredletek,sztredeztek,cselekszik,-lik,1,PR2036,2001,nő,nem,2022-04-12_15h50.09.493,hesp_baseline,2021.2.3,Win32,59.64807635
,,,,,,,,,,,,,,,,,spüszlöm,spüszlök,right,2.6818,0,109,109,96,1,151,spüszlik,spüszlesz,NA,NA,Te bizony sokat spüszlesz.,Én is sokat...,spüszlök,spüszlöm,lakik,-lik,1,PR2036,2001,nő,nem,2022-04-12_15h50.09.493,hesp_baseline,2021.2.3,Win32,59.64807635
,,,,,,,,,,,,,,,,,trehégszem,trehégszek,left,4.7124,0,110,110,86,1,141,trehégszik,trehégszel,NA,NA,Te bizony sokat trehégszel.,Én is sokat...,trehégszek,trehégszem,lakik,-szik,2,PR2036,2001,nő,nem,2022-04-12_15h50.09.493,hesp_baseline,2021.2.3,Win32,59.64807635
,,,,,,,,,,,,,,,,,pazévnál,pazévnél,left,3.2069,0,111,111,36,1,145,pazév,pazév,nál,é,Ez itt egy pazév.,Nincs is jobb egy jó...,pazévnél,pazévnál,dzsungel,NA,NA,PR2036,2001,nő,nem,2022-04-12_15h50.09.493,hesp_baseline,2021.2.3,Win32,59.64807635
,,,,,,,,,,,,,,,,,drilarozunk,drilarzunk,left,11.3376,0,112,112,131,1,132,drilarzik / drilarozik,"drilarzik, drilarozni",ünk,NA,"János imád drilarozni, ezért sokat drilarzik.",Mi ritkán...,drilarzunk,drilarozunk,cselekszik,-zik,2,PR2036,2001,nő,nem,2022-04-12_15h50.09.493,hesp_baseline,2021.2.3,Win32,59.64807635
,,,,,,,,,,,,,,,,,zinednek,zinednak,left,2.5656,0,113,113,22,1,131,zined,zined,nak,e,Ez itt egy zined.,Elneveztem a kutyámat...,zinednek,zinednak,dzsungel,NA,NA,PR2036,2001,nő,nem,2022-04-12_15h50.09.493,hesp_baseline,2021.2.3,Win32,59.64807635
,,,,,,,,,,,,,,,,,fliraklom,fliraklok,left,4.5455,0,114,114,98,1,153,fliraklik,fliraklasz,NA,NA,Te bizony sokat fliraklasz.,Én is sokat...,fliraklok,fliraklom,lakik,-lik,2,PR2036,2001,nő,nem,2022-04-12_15h50.09.493,hesp_baseline,2021.2.3,Win32,59.64807635
,,,,,,,,,,,,,,,,,lumoztok,lumlotok,left,3.2079,0,115,115,149,1,150,lumlik / lumozik,"lumlik, lumozni",tek,NA,"János imád lumozni, ezért sokat lumlik.",Ti ritkán...,lumlotok,lumoztok,cselekszik,-lik,1,PR2036,2001,nő,nem,2022-04-12_15h50.09.493,hesp_baseline,2021.2.3,Win32,59.64807635
,,,,,,,,,,,,,,,,,viroznak,virzanak,left,5.0501,0,116,116,125,1,126,virzik / virozik,"virzik, virozni",nek,NA,"János imád virozni, ezért sokat virzik.",Ők ritkán...,virzanak,viroznak,cselekszik,-zik,1,PR2036,2001,nő,nem,2022-04-12_15h50.09.493,hesp_baseline,2021.2.3,Win32,59.64807635
,,,,,,,,,,,,,,,,,ribegedtek,ribegszetek,right,5.8683,0,117,117,141,1,142,ribegszik / ribegedik,"ribegszik, ribegedni",tek,NA,"János imád ribegedni, ezért sokat ribegszik.",Ti ritkán...,ribegszetek,ribegedtek,cselekszik,-szik,2,PR2036,2001,nő,nem,2022-04-12_15h50.09.493,hesp_baseline,2021.2.3,Win32,59.64807635
,,,,,,,,,,,,,,,,,voboztok,vobzotok,right,3.5609,0,118,118,158,1,159,vobzik / vobozik,"vobzik, vobozni",tek,NA,"János imád vobozni, ezért sokat vobzik.",Ti ritkán...,vobzotok,voboztok,cselekszik,-zik,1,PR2036,2001,nő,nem,2022-04-12_15h50.09.493,hesp_baseline,2021.2.3,Win32,59.64807635
,,,,,,,,,,,,,,,,,brilegzünk,brilegezünk,left,4.5977,0,119,119,124,1,125,brilegzik / brilegezik,"brilegzik, brilegezni",ünk,NA,"János imád brilegezni, ezért sokat brilegzik.",Mi ritkán...,brilegzünk,brilegezünk,cselekszik,-zik,2,PR2036,2001,nő,nem,2022-04-12_15h50.09.493,hesp_baseline,2021.2.3,Win32,59.64807635
,,,,,,,,,,,,,,,,,treglem,treglek,right,4.1043,0,120,120,81,1,136,treglik,treglesz,NA,NA,Te bizony sokat treglesz.,Én is sokat...,treglek,treglem,lakik,-lik,1,PR2036,2001,nő,nem,2022-04-12_15h50.09.493,hesp_baseline,2021.2.3,Win32,59.64807635
,,,,,,,,,,,,,,,,,bihánylok,bihánylom,left,3.2514,0,121,121,89,1,144,bihánylik,bihánylasz,NA,NA,Te bizony sokat bihánylasz.,Én is sokat...,bihánylok,bihánylom,lakik,-lik,2,PR2036,2001,nő,nem,2022-04-12_15h50.09.493,hesp_baseline,2021.2.3,Win32,59.64807635
,,,,,,,,,,,,,,,,,trilszom,trilszok,right,4.1662,0,122,122,103,1,158,trilszik,trilszol,NA,NA,Te bizony sokat trilszol.,Én is sokat...,trilszok,trilszom,lakik,-szik,1,PR2036,2001,nő,nem,2022-04-12_15h50.09.493,hesp_baseline,2021.2.3,Win32,59.64807635
,,,,,,,,,,,,,,,,,spírzok,spírzom,right,6.6922,0,123,123,64,1,119,spírzik,spírzol,NA,NA,Te bizony sokat spírzol.,Én is sokat...,spírzok,spírzom,lakik,-zik,1,PR2036,2001,nő,nem,2022-04-12_15h50.09.493,hesp_baseline,2021.2.3,Win32,59.64807635
,,,,,,,,,,,,,,,,,prezlek,prezlem,left,5.9946,0,124,124,87,1,142,prezlik,prezlesz,NA,NA,Te bizony sokat prezlesz.,Én is sokat...,prezlek,prezlem,lakik,-lik,1,PR2036,2001,nő,nem,2022-04-12_15h50.09.493,hesp_baseline,2021.2.3,Win32,59.64807635
,,,,,,,,,,,,,,,,,bupézban,bupézben,left,3.9891,0,125,125,48,1,157,bupéz,bupéz,ban,é,Ez itt egy bupéz.,Ott vagyunk a...,bupézben,bupézban,dzsungel,NA,NA,PR2036,2001,nő,nem,2022-04-12_15h50.09.493,hesp_baseline,2021.2.3,Win32,59.64807635
,,,,,,,,,,,,,,,,,sűjlünk,sűjözünk,right,12.2851,0,126,126,128,1,129,sűjlik / sűjözik,"sűjlik, sűjözni",ünk,NA,"János imád sűjözni, ezért sokat sűjlik.",Mi ritkán...,sűjlünk,sűjözünk,cselekszik,-lik,1,PR2036,2001,nő,nem,2022-04-12_15h50.09.493,hesp_baseline,2021.2.3,Win32,59.64807635
,,,,,,,,,,,,,,,,,düjzök,düjzöm,right,4.1221,0,127,127,97,1,152,düjzik,düjzöl,NA,NA,Te bizony sokat düjzöl.,Én is sokat...,düjzök,düjzöm,lakik,-zik,1,PR2036,2001,nő,nem,2022-04-12_15h50.09.493,hesp_baseline,2021.2.3,Win32,59.64807635
,,,,,,,,,,,,,,,,,tűgzötök,tűgöztök,right,4.6944,0,128,128,143,1,144,tűgzik / tűgözik,"tűgzik, tűgözni",tek,NA,"János imád tűgözni, ezért sokat tűgzik.",Ti ritkán...,tűgzötök,tűgöztök,cselekszik,-zik,1,PR2036,2001,nő,nem,2022-04-12_15h50.09.493,hesp_baseline,2021.2.3,Win32,59.64807635
,,,,,,,,,,,,,,,,,mékszem,mékszek,left,3.2636,0,129,129,71,1,126,mékszik,mékszel,NA,NA,Te bizony sokat mékszel.,Én is sokat...,mékszek,mékszem,lakik,-szik,1,PR2036,2001,nő,nem,2022-04-12_15h50.09.493,hesp_baseline,2021.2.3,Win32,59.64807635
,,,,,,,,,,,,,,,,,nyupérnél,nyupérnál,right,2.4813,0,130,130,52,1,161,nyupér,nyupér,nál,é,Ez itt egy nyupér.,Nincs is jobb egy jó...,nyupérnél,nyupérnál,dzsungel,NA,NA,PR2036,2001,nő,nem,2022-04-12_15h50.09.493,hesp_baseline,2021.2.3,Win32,59.64807635
,,,,,,,,,,,,,,,,,pragányoztok,pragánylotok,left,5.6211,0,131,131,133,1,134,pragánylik / pragányozik,"pragánylik, pragányozni",tek,NA,"János imád pragányozni, ezért sokat pragánylik.",Ti ritkán...,pragánylotok,pragányoztok,cselekszik,-lik,2,PR2036,2001,nő,nem,2022-04-12_15h50.09.493,hesp_baseline,2021.2.3,Win32,59.64807635
,,,,,,,,,,,,,,,,,vurnelnek,vurnelnak,right,2.1012,0,132,132,50,1,159,vurnel,vurnel,nak,e,Ez itt egy vurnel.,Elneveztem a kutyámat...,vurnelnek,vurnelnak,dzsungel,NA,NA,PR2036,2001,nő,nem,2022-04-12_15h50.09.493,hesp_baseline,2021.2.3,Win32,59.64807635
,,,,,,,,,,,,,,,,,plágadzok,plágadzom,right,3.4335,0,133,133,74,1,129,plágadzik,plágadzol,NA,NA,Te bizony sokat plágadzol.,Én is sokat...,plágadzok,plágadzom,lakik,-zik,2,PR2036,2001,nő,nem,2022-04-12_15h50.09.493,hesp_baseline,2021.2.3,Win32,59.64807635
,,,,,,,,,,,,,,,,,zsáderben,zsáderban,right,4.7806,0,134,134,25,1,134,zsáder,zsáder,ban,e,Ez itt egy zsáder.,Ott vagyunk a...,zsáderben,zsáderban,dzsungel,NA,NA,PR2036,2001,nő,nem,2022-04-12_15h50.09.493,hesp_baseline,2021.2.3,Win32,59.64807635
,,,,,,,,,,,,,,,,,klétszem,klétszek,left,3.3707,0,135,135,60,1,115,klétszik,klétszel,NA,NA,Te bizony sokat klétszel.,Én is sokat...,klétszek,klétszem,lakik,-szik,1,PR2036,2001,nő,nem,2022-04-12_15h50.09.493,hesp_baseline,2021.2.3,Win32,59.64807635
,,,,,,,,,,,,,,,,,nágapodnak,nágapszanak,left,16.0595,0,136,136,152,1,153,nágapszik / nágapodik,"nágapszik, nágapodni",nek,NA,"János imád nágapodni, ezért sokat nágapszik.",Ők ritkán...,nágapszanak,nágapodnak,cselekszik,-szik,2,PR2036,2001,nő,nem,2022-04-12_15h50.09.493,hesp_baseline,2021.2.3,Win32,59.64807635
,,,,,,,,,,,,,,,,,büglök,büglöm,left,19.3996,0,137,137,101,1,156,büglik,büglesz,NA,NA,Te bizony sokat büglesz.,Én is sokat...,büglök,büglöm,lakik,-lik,1,PR2036,2001,nő,nem,2022-04-12_15h50.09.493,hesp_baseline,2021.2.3,Win32,59.64807635
,,,,,,,,,,,,,,,,,spuborzanak,spuboroznak,right,7.2441,0,138,138,161,1,162,spuborzik / spuborozik,"spuborzik, spuborozni",nek,NA,"János imád spuborozni, ezért sokat spuborzik.",Ők ritkán...,spuborzanak,spuboroznak,cselekszik,-zik,2,PR2036,2001,nő,nem,2022-04-12_15h50.09.493,hesp_baseline,2021.2.3,Win32,59.64807635
,,,,,,,,,,,,,,,,,lismévban,lismévben,right,5.0232,0,139,139,0,1,109,lismév,lismév,ban,é,Ez itt egy lismév.,Ott vagyunk a...,lismévben,lismévban,dzsungel,NA,NA,PR2036,2001,nő,nem,2022-04-12_15h50.09.493,hesp_baseline,2021.2.3,Win32,59.64807635
,,,,,,,,,,,,,,,,,murdesnál,murdesnél,left,7.3812,0,140,140,47,1,156,murdes,murdes,nál,e,Ez itt egy murdes.,Nincs is jobb egy jó...,murdesnél,murdesnál,dzsungel,NA,NA,PR2036,2001,nő,nem,2022-04-12_15h50.09.493,hesp_baseline,2021.2.3,Win32,59.64807635
,,,,,,,,,,,,,,,,,dibezben,dibezban,left,9.662,0,141,141,27,1,136,dibez,dibez,ban,e,Ez itt egy dibez.,Ott vagyunk a...,dibezben,dibezban,dzsungel,NA,NA,PR2036,2001,nő,nem,2022-04-12_15h50.09.493,hesp_baseline,2021.2.3,Win32,59.64807635
,,,,,,,,,,,,,,,,,flátlotok,flátoztok,left,6.7231,0,142,142,132,1,133,flátlik / flátozik,"flátlik, flátozni",tek,NA,"János imád flátozni, ezért sokat flátlik.",Ti ritkán...,flátlotok,flátoztok,cselekszik,-lik,1,PR2036,2001,nő,nem,2022-04-12_15h50.09.493,hesp_baseline,2021.2.3,Win32,59.64807635
,,,,,,,,,,,,,,,,,brukésznál,brukésznél,left,3.3392,0,143,143,10,1,119,brukész,brukész,nál,é,Ez itt egy brukész.,Nincs is jobb egy jó...,brukésznél,brukésznál,dzsungel,NA,NA,PR2036,2001,nő,nem,2022-04-12_15h50.09.493,hesp_baseline,2021.2.3,Win32,59.64807635
,,,,,,,,,,,,,,,,,spröbzök,spröbzöm,right,4.776,0,144,144,90,1,145,spröbzik,spröbzöl,NA,NA,Te bizony sokat spröbzöl.,Én is sokat...,spröbzök,spröbzöm,lakik,-zik,1,PR2036,2001,nő,nem,2022-04-12_15h50.09.493,hesp_baseline,2021.2.3,Win32,59.64807635
,,,,,,,,,,,,,,,,,bratároznak,bratárzanak,left,4.3744,0,145,145,108,1,109,bratárzik / bratározik,"bratárzik, bratározni",nek,NA,"János imád bratározni, ezért sokat bratárzik.",Ők ritkán...,bratárzanak,bratároznak,cselekszik,-zik,2,PR2036,2001,nő,nem,2022-04-12_15h50.09.493,hesp_baseline,2021.2.3,Win32,59.64807635
,,,,,,,,,,,,,,,,,pijélnél,pijélnál,left,4.0885,0,146,146,3,1,112,pijél,pijél,nál,é,Ez itt egy pijél.,Nincs is jobb egy jó...,pijélnél,pijélnál,dzsungel,NA,NA,PR2036,2001,nő,nem,2022-04-12_15h50.09.493,hesp_baseline,2021.2.3,Win32,59.64807635
,,,,,,,,,,,,,,,,,brürzenek,brüröznek,right,8.3203,0,147,147,110,1,111,brürzik / brürözik,"brürzik, brürözni",nek,NA,"János imád brürözni, ezért sokat brürzik.",Ők ritkán...,brürzenek,brüröznek,cselekszik,-zik,1,PR2036,2001,nő,nem,2022-04-12_15h50.09.493,hesp_baseline,2021.2.3,Win32,59.64807635
,,,,,,,,,,,,,,,,,mágamozunk,mágamlunk,right,4.2059,0,148,148,140,1,141,mágamlik / mágamozik,"mágamlik, mágamozni",ünk,NA,"János imád mágamozni, ezért sokat mágamlik.",Mi ritkán...,mágamlunk,mágamozunk,cselekszik,-lik,2,PR2036,2001,nő,nem,2022-04-12_15h50.09.493,hesp_baseline,2021.2.3,Win32,59.64807635
,,,,,,,,,,,,,,,,,döjöznek,döjlenek,right,5.4086,0,149,149,129,1,130,döjlik / döjözik,"döjlik, döjözni",nek,NA,"János imád döjözni, ezért sokat döjlik.",Ők ritkán...,döjlenek,döjöznek,cselekszik,-lik,1,PR2036,2001,nő,nem,2022-04-12_15h50.09.493,hesp_baseline,2021.2.3,Win32,59.64807635
,,,,,,,,,,,,,,,,,spülöklök,spülöklöm,right,3.615,0,150,150,56,1,111,spülöklik,spülöklesz,NA,NA,Te bizony sokat spülöklesz.,Én is sokat...,spülöklök,spülöklöm,lakik,-lik,2,PR2036,2001,nő,nem,2022-04-12_15h50.09.493,hesp_baseline,2021.2.3,Win32,59.64807635
,,,,,,,,,,,,,,,,,dralágzunk,dralágozunk,left,5.0949,0,151,151,156,1,157,dralágzik / dralágozik,"dralágzik, dralágozni",ünk,NA,"János imád dralágozni, ezért sokat dralágzik.",Mi ritkán...,dralágzunk,dralágozunk,cselekszik,-zik,2,PR2036,2001,nő,nem,2022-04-12_15h50.09.493,hesp_baseline,2021.2.3,Win32,59.64807635
,,,,,,,,,,,,,,,,,pehégedtek,pehégszetek,right,4.6824,0,152,152,151,1,152,pehégszik / pehégedik,"pehégszik, pehégedni",tek,NA,"János imád pehégedni, ezért sokat pehégszik.",Ti ritkán...,pehégszetek,pehégedtek,cselekszik,-szik,2,PR2036,2001,nő,nem,2022-04-12_15h50.09.493,hesp_baseline,2021.2.3,Win32,59.64807635
,,,,,,,,,,,,,,,,,sztritlanak,sztritoznak,left,4.8082,0,153,153,154,1,155,sztritlik / sztritozik,"sztritlik, sztritozni",nek,NA,"János imád sztritozni, ezért sokat sztritlik.",Ők ritkán...,sztritlanak,sztritoznak,cselekszik,-lik,1,PR2036,2001,nő,nem,2022-04-12_15h50.09.493,hesp_baseline,2021.2.3,Win32,59.64807635
,,,,,,,,,,,,,,,,,kláragodtok,kláragszotok,left,6.7964,0,154,154,123,1,124,kláragszik / kláragodik,"kláragszik, kláragodni",tek,NA,"János imád kláragodni, ezért sokat kláragszik.",Ti ritkán...,kláragszotok,kláragodtok,cselekszik,-szik,2,PR2036,2001,nő,nem,2022-04-12_15h50.09.493,hesp_baseline,2021.2.3,Win32,59.64807635
,,,,,,,,,,,,,,,,,drubódzok,drubódzom,right,4.7826,0,155,155,63,1,118,drubódzik,drubódzol,NA,NA,Te bizony sokat drubódzol.,Én is sokat...,drubódzok,drubódzom,lakik,-zik,2,PR2036,2001,nő,nem,2022-04-12_15h50.09.493,hesp_baseline,2021.2.3,Win32,59.64807635
,,,,,,,,,,,,,,,,,ronszekben,ronszekban,left,17.3747,0,156,156,18,1,127,ronszek,ronszek,ban,e,Ez itt egy ronszek.,Ott vagyunk a...,ronszekben,ronszekban,dzsungel,NA,NA,PR2036,2001,nő,nem,2022-04-12_15h50.09.493,hesp_baseline,2021.2.3,Win32,59.64807635
,,,,,,,,,,,,,,,,,klivaslom,klivaslok,right,8.8066,0,157,157,62,1,117,klivaslik,klivaslasz,NA,NA,Te bizony sokat klivaslasz.,Én is sokat...,klivaslok,klivaslom,lakik,-lik,2,PR2036,2001,nő,nem,2022-04-12_15h50.09.493,hesp_baseline,2021.2.3,Win32,59.64807635
,,,,,,,,,,,,,,,,,surnegynál,surnegynél,left,2.7706,0,158,158,8,1,117,surnegy,surnegy,nál,e,Ez itt egy surnegy.,Nincs is jobb egy jó...,surnegynél,surnegynál,dzsungel,NA,NA,PR2036,2001,nő,nem,2022-04-12_15h50.09.493,hesp_baseline,2021.2.3,Win32,59.64807635
,,,,,,,,,,,,,,,,,bűtszök,bűtszöm,left,3.4379,0,159,159,82,1,137,bűtszik,bűtszöl,NA,NA,Te bizony sokat bűtszöl.,Én is sokat...,bűtszök,bűtszöm,lakik,-szik,1,PR2036,2001,nő,nem,2022-04-12_15h50.09.493,hesp_baseline,2021.2.3,Win32,59.64807635
,,,,,,,,,,,,,,,,,mülőrözünk,mülőrzünk,right,4.3598,0,160,160,120,1,121,mülőrzik / mülőrözik,"mülőrzik, mülőrözni",ünk,NA,"János imád mülőrözni, ezért sokat mülőrzik.",Mi ritkán...,mülőrzünk,mülőrözünk,cselekszik,-zik,2,PR2036,2001,nő,nem,2022-04-12_15h50.09.493,hesp_baseline,2021.2.3,Win32,59.64807635
,,,,,,,,,,,,,,,,,flugonyoznak,flugonylanak,right,3.4546,0,161,161,111,1,112,flugonylik / flugonyozik,"flugonylik, flugonyozni",nek,NA,"János imád flugonyozni, ezért sokat flugonylik.",Ők ritkán...,flugonylanak,flugonyoznak,cselekszik,-lik,2,PR2036,2001,nő,nem,2022-04-12_15h50.09.493,hesp_baseline,2021.2.3,Win32,59.64807635
