my_list,key.keys,key.rt,key_2.keys,key_2.rt,keyboard_input_2.keys,keyboard_input_2.rt,key_3.keys,key_3.rt,keyboard_input_3.keys,keyboard_input_3.rt,key_4.keys,key_4.rt,keyboard_input_4.keys,keyboard_input_4.rt,key_5.keys,key_5.rt,my_button1,my_button2,keyboard_input.keys,keyboard_input.rt,withinBlock.thisRepN,withinBlock.thisTrialN,withinBlock.thisN,withinBlock.thisIndex,withinBlock.ran,rowname,word,prompt,suffix,vowel,carrier_sentence,target_sentence,target1,target2,category,derivational,nsyl,Azonosító,Melyik évben születtél?,Mi a nemed?,Tanultál nyelvészetet?,date,expName,psychopyVersion,OS,frameRate
list1.csv,space,24.7874,space,8.0228,right,9.8944,space,17.3773,left,9.0751,space,12.0832,left,9.4857,space,18.7794,jutélynál,jutélynél,left,6.1459,0,0,0,11,1,12,jutély,jutély,nál,é,Ez itt egy jutély.,Nincs is jobb egy jó...,jutélynél,jutélynál,dzsungel,NA,NA,PR2082,2002,nő,nem,2022-04-19_17h37.56.759,hesp_baseline,2021.2.3,Win32,143.2254368
,,,,,,,,,,,,,,,,,klihaslotok,klihasoztok,right,21.261,0,1,1,156,1,49,klihaslik / klihasozik,"klihaslik, klihasozni",tek,NA,"János imád klihasozni, ezért sokat klihaslik.",Ti ritkán...,klihaslotok,klihasoztok,cselekszik,-lik,2,PR2082,2002,nő,nem,2022-04-19_17h37.56.759,hesp_baseline,2021.2.3,Win32,143.2254368
,,,,,,,,,,,,,,,,,zopélynél,zopélynál,right,4.8701,0,2,2,5,1,6,zopély,zopély,nál,é,Ez itt egy zopély.,Nincs is jobb egy jó...,zopélynél,zopélynál,dzsungel,NA,NA,PR2082,2002,nő,nem,2022-04-19_17h37.56.759,hesp_baseline,2021.2.3,Win32,143.2254368
,,,,,,,,,,,,,,,,,tágarzunk,tágarozunk,right,9.4147,0,3,3,155,1,48,tágarzik / tágarozik,"tágarzik, tágarozni",ünk,NA,"János imád tágarozni, ezért sokat tágarzik.",Mi ritkán...,tágarzunk,tágarozunk,cselekszik,-zik,2,PR2082,2002,nő,nem,2022-04-19_17h37.56.759,hesp_baseline,2021.2.3,Win32,143.2254368
,,,,,,,,,,,,,,,,,gábédnél,gábédnál,right,4.6829,0,4,4,39,1,40,gábéd,gábéd,nál,é,Ez itt egy gábéd.,Nincs is jobb egy jó...,gábédnél,gábédnál,dzsungel,NA,NA,PR2082,2002,nő,nem,2022-04-19_17h37.56.759,hesp_baseline,2021.2.3,Win32,143.2254368
,,,,,,,,,,,,,,,,,livaklok,livaklom,right,8.6726,0,5,5,82,1,29,livaklik,livaklasz,NA,NA,Te bizony sokat livaklasz.,Én is sokat...,livaklok,livaklom,lakik,-lik,2,PR2082,2002,nő,nem,2022-04-19_17h37.56.759,hesp_baseline,2021.2.3,Win32,143.2254368
,,,,,,,,,,,,,,,,,zsalrénnak,zsalrénnek,left,6.2337,0,6,6,19,1,20,zsalrén,zsalrén,nak,é,Ez itt egy zsalrén.,Elneveztem a kutyámat...,zsalrénnek,zsalrénnak,dzsungel,NA,NA,PR2082,2002,nő,nem,2022-04-19_17h37.56.759,hesp_baseline,2021.2.3,Win32,143.2254368
,,,,,,,,,,,,,,,,,mádépnál,mádépnél,left,6.3929,0,7,7,1,1,2,mádép,mádép,nál,é,Ez itt egy mádép.,Nincs is jobb egy jó...,mádépnél,mádépnál,dzsungel,NA,NA,PR2082,2002,nő,nem,2022-04-19_17h37.56.759,hesp_baseline,2021.2.3,Win32,143.2254368
,,,,,,,,,,,,,,,,,matézban,matézben,left,5.3702,0,8,8,37,1,38,matéz,matéz,ban,é,Ez itt egy matéz.,Ott vagyunk a...,matézben,matézban,dzsungel,NA,NA,PR2082,2002,nő,nem,2022-04-19_17h37.56.759,hesp_baseline,2021.2.3,Win32,143.2254368
,,,,,,,,,,,,,,,,,géregletek,géregeztek,left,8.483,0,9,9,124,1,17,géreglik / géregezik,"géreglik, géregezni",tek,NA,"János imád géregezni, ezért sokat géreglik.",Ti ritkán...,géregletek,géregeztek,cselekszik,-lik,2,PR2082,2002,nő,nem,2022-04-19_17h37.56.759,hesp_baseline,2021.2.3,Win32,143.2254368
,,,,,,,,,,,,,,,,,pivédban,pivédben,right,5.1428,0,10,10,52,1,53,pivéd,pivéd,ban,é,Ez itt egy pivéd.,Ott vagyunk a...,pivédben,pivédban,dzsungel,NA,NA,PR2082,2002,nő,nem,2022-04-19_17h37.56.759,hesp_baseline,2021.2.3,Win32,143.2254368
,,,,,,,,,,,,,,,,,nyivágozunk,nyivágzunk,left,8.1546,0,11,11,113,1,6,nyivágzik / nyivágozik,"nyivágzik, nyivágozni",ünk,NA,"János imád nyivágozni, ezért sokat nyivágzik.",Mi ritkán...,nyivágzunk,nyivágozunk,cselekszik,-zik,2,PR2082,2002,nő,nem,2022-04-19_17h37.56.759,hesp_baseline,2021.2.3,Win32,143.2254368
,,,,,,,,,,,,,,,,,sprimozunk,sprimlunk,left,8.8624,0,12,12,127,1,20,sprimlik / sprimozik,"sprimlik, sprimozni",ünk,NA,"János imád sprimozni, ezért sokat sprimlik.",Mi ritkán...,sprimlunk,sprimozunk,cselekszik,-lik,1,PR2082,2002,nő,nem,2022-04-19_17h37.56.759,hesp_baseline,2021.2.3,Win32,143.2254368
,,,,,,,,,,,,,,,,,pliboztok,plibzotok,left,8.0103,0,13,13,140,1,33,plibzik / plibozik,"plibzik, plibozni",tek,NA,"János imád plibozni, ezért sokat plibzik.",Ti ritkán...,plibzotok,pliboztok,cselekszik,-zik,1,PR2082,2002,nő,nem,2022-04-19_17h37.56.759,hesp_baseline,2021.2.3,Win32,143.2254368
,,,,,,,,,,,,,,,,,spivejlenek,spivejeznek,left,8.5139,0,14,14,125,1,18,spivejlik / spivejezik,"spivejlik, spivejezni",nek,NA,"János imád spivejezni, ezért sokat spivejlik.",Ők ritkán...,spivejlenek,spivejeznek,cselekszik,-lik,2,PR2082,2002,nő,nem,2022-04-19_17h37.56.759,hesp_baseline,2021.2.3,Win32,143.2254368
,,,,,,,,,,,,,,,,,tragzok,tragzom,left,5.636,0,15,15,90,1,37,tragzik,tragzol,NA,NA,Te bizony sokat tragzol.,Én is sokat...,tragzok,tragzom,lakik,-zik,1,PR2082,2002,nő,nem,2022-04-19_17h37.56.759,hesp_baseline,2021.2.3,Win32,143.2254368
,,,,,,,,,,,,,,,,,frirozunk,frirzunk,left,8.2766,0,16,16,129,1,22,frirzik / frirozik,"frirzik, frirozni",ünk,NA,"János imád frirozni, ezért sokat frirzik.",Mi ritkán...,frirzunk,frirozunk,cselekszik,-zik,1,PR2082,2002,nő,nem,2022-04-19_17h37.56.759,hesp_baseline,2021.2.3,Win32,143.2254368
,,,,,,,,,,,,,,,,,trodélyban,trodélyben,left,3.2051,0,17,17,28,1,29,trodély,trodély,ban,é,Ez itt egy trodély.,Ott vagyunk a...,trodélyben,trodélyban,dzsungel,NA,NA,PR2082,2002,nő,nem,2022-04-19_17h37.56.759,hesp_baseline,2021.2.3,Win32,143.2254368
,,,,,,,,,,,,,,,,,kalhésznak,kalhésznek,left,4.203,0,18,18,46,1,47,kalhész,kalhész,nak,é,Ez itt egy kalhész.,Elneveztem a kutyámat...,kalhésznek,kalhésznak,dzsungel,NA,NA,PR2082,2002,nő,nem,2022-04-19_17h37.56.759,hesp_baseline,2021.2.3,Win32,143.2254368
,,,,,,,,,,,,,,,,,trihagzom,trihagzok,left,8.9702,0,19,19,83,1,30,trihagzik,trihagzol,NA,NA,Te bizony sokat trihagzol.,Én is sokat...,trihagzok,trihagzom,lakik,-zik,2,PR2082,2002,nő,nem,2022-04-19_17h37.56.759,hesp_baseline,2021.2.3,Win32,143.2254368
,,,,,,,,,,,,,,,,,sihennál,sihennél,right,9.4045,0,20,20,18,1,19,sihen,sihen,nál,e,Ez itt egy sihen.,Nincs is jobb egy jó...,sihennél,sihennál,dzsungel,NA,NA,PR2082,2002,nő,nem,2022-04-19_17h37.56.759,hesp_baseline,2021.2.3,Win32,143.2254368
,,,,,,,,,,,,,,,,,bügöznek,bügzenek,right,5.9326,0,21,21,118,1,11,bügzik / bügözik,"bügzik, bügözni",nek,NA,"János imád bügözni, ezért sokat bügzik.",Ők ritkán...,bügzenek,bügöznek,cselekszik,-zik,1,PR2082,2002,nő,nem,2022-04-19_17h37.56.759,hesp_baseline,2021.2.3,Win32,143.2254368
,,,,,,,,,,,,,,,,,hilarzom,hilarzok,right,5.1151,0,22,22,69,1,16,hilarzik,hilarzol,NA,NA,Te bizony sokat hilarzol.,Én is sokat...,hilarzok,hilarzom,lakik,-zik,2,PR2082,2002,nő,nem,2022-04-19_17h37.56.759,hesp_baseline,2021.2.3,Win32,143.2254368
,,,,,,,,,,,,,,,,,kadérnál,kadérnél,left,4.1225,0,23,23,7,1,8,kadér,kadér,nál,é,Ez itt egy kadér.,Nincs is jobb egy jó...,kadérnél,kadérnál,dzsungel,NA,NA,PR2082,2002,nő,nem,2022-04-19_17h37.56.759,hesp_baseline,2021.2.3,Win32,143.2254368
,,,,,,,,,,,,,,,,,jalrénynál,jalrénynél,left,6.7831,0,24,24,0,1,1,jalrény,jalrény,nál,é,Ez itt egy jalrény.,Nincs is jobb egy jó...,jalrénynél,jalrénynál,dzsungel,NA,NA,PR2082,2002,nő,nem,2022-04-19_17h37.56.759,hesp_baseline,2021.2.3,Win32,143.2254368
,,,,,,,,,,,,,,,,,pekszünk,pekedünk,left,5.6941,0,25,25,161,1,54,pekszik / pekedik,"pekszik, pekedni",ünk,NA,"János imád pekedni, ezért sokat pekszik.",Mi ritkán...,pekszünk,pekedünk,cselekszik,-szik,1,PR2082,2002,nő,nem,2022-04-19_17h37.56.759,hesp_baseline,2021.2.3,Win32,143.2254368
,,,,,,,,,,,,,,,,,trukszotok,trukodtok,right,5.4031,0,26,26,157,1,50,trukszik / trukodik,"trukszik, trukodni",tek,NA,"János imád trukodni, ezért sokat trukszik.",Ti ritkán...,trukszotok,trukodtok,cselekszik,-szik,1,PR2082,2002,nő,nem,2022-04-19_17h37.56.759,hesp_baseline,2021.2.3,Win32,143.2254368
,,,,,,,,,,,,,,,,,plövőrzök,plövőrzöm,left,7.3034,0,27,27,58,1,5,plövőrzik,plövőrzöl,NA,NA,Te bizony sokat plövőrzöl.,Én is sokat...,plövőrzök,plövőrzöm,lakik,-zik,2,PR2082,2002,nő,nem,2022-04-19_17h37.56.759,hesp_baseline,2021.2.3,Win32,143.2254368
,,,,,,,,,,,,,,,,,bejezünk,bejzünk,left,6.6635,0,28,28,148,1,41,bejzik / bejezik,"bejzik, bejezni",ünk,NA,"János imád bejezni, ezért sokat bejzik.",Mi ritkán...,bejzünk,bejezünk,cselekszik,-zik,1,PR2082,2002,nő,nem,2022-04-19_17h37.56.759,hesp_baseline,2021.2.3,Win32,143.2254368
,,,,,,,,,,,,,,,,,flagárzok,flagárzom,left,5.0191,0,29,29,64,1,11,flagárzik,flagárzol,NA,NA,Te bizony sokat flagárzol.,Én is sokat...,flagárzok,flagárzom,lakik,-zik,2,PR2082,2002,nő,nem,2022-04-19_17h37.56.759,hesp_baseline,2021.2.3,Win32,143.2254368
,,,,,,,,,,,,,,,,,klaráglom,klaráglok,left,3.9764,0,30,30,91,1,38,klaráglik,klaráglasz,NA,NA,Te bizony sokat klaráglasz.,Én is sokat...,klaráglok,klaráglom,lakik,-lik,2,PR2082,2002,nő,nem,2022-04-19_17h37.56.759,hesp_baseline,2021.2.3,Win32,143.2254368
,,,,,,,,,,,,,,,,,darhénban,darhénben,left,3.6539,0,31,31,27,1,28,darhén,darhén,ban,é,Ez itt egy darhén.,Ott vagyunk a...,darhénben,darhénban,dzsungel,NA,NA,PR2082,2002,nő,nem,2022-04-19_17h37.56.759,hesp_baseline,2021.2.3,Win32,143.2254368
,,,,,,,,,,,,,,,,,drűröznek,drűrzenek,left,10.9206,0,32,32,126,1,19,drűrzik / drűrözik,"drűrzik, drűrözni",nek,NA,"János imád drűrözni, ezért sokat drűrzik.",Ők ritkán...,drűrzenek,drűröznek,cselekszik,-zik,1,PR2082,2002,nő,nem,2022-04-19_17h37.56.759,hesp_baseline,2021.2.3,Win32,143.2254368
,,,,,,,,,,,,,,,,,spűmlök,spűmlöm,left,4.8973,0,33,33,86,1,33,spűmlik,spűmlesz,NA,NA,Te bizony sokat spűmlesz.,Én is sokat...,spűmlök,spűmlöm,lakik,-lik,1,PR2082,2002,nő,nem,2022-04-19_17h37.56.759,hesp_baseline,2021.2.3,Win32,143.2254368
,,,,,,,,,,,,,,,,,marzok,marzom,left,3.1743,0,34,34,99,1,46,marzik,marzol,NA,NA,Te bizony sokat marzol.,Én is sokat...,marzok,marzom,lakik,-zik,1,PR2082,2002,nő,nem,2022-04-19_17h37.56.759,hesp_baseline,2021.2.3,Win32,143.2254368
,,,,,,,,,,,,,,,,,lumézben,lumézban,right,3.667,0,35,35,32,1,33,luméz,luméz,ban,é,Ez itt egy luméz.,Ott vagyunk a...,lumézben,lumézban,dzsungel,NA,NA,PR2082,2002,nő,nem,2022-04-19_17h37.56.759,hesp_baseline,2021.2.3,Win32,143.2254368
,,,,,,,,,,,,,,,,,pítszok,pítszom,left,3.8486,0,36,36,62,1,9,pítszik,pítszol,NA,NA,Te bizony sokat pítszol.,Én is sokat...,pítszok,pítszom,lakik,-szik,1,PR2082,2002,nő,nem,2022-04-19_17h37.56.759,hesp_baseline,2021.2.3,Win32,143.2254368
,,,,,,,,,,,,,,,,,frélegzünk,frélegezünk,left,9.4003,0,37,37,147,1,40,frélegzik / frélegezik,"frélegzik, frélegezni",ünk,NA,"János imád frélegezni, ezért sokat frélegzik.",Mi ritkán...,frélegzünk,frélegezünk,cselekszik,-zik,2,PR2082,2002,nő,nem,2022-04-19_17h37.56.759,hesp_baseline,2021.2.3,Win32,143.2254368
,,,,,,,,,,,,,,,,,drügzök,drügzöm,left,3.1944,0,38,38,72,1,19,drügzik,drügzöl,NA,NA,Te bizony sokat drügzöl.,Én is sokat...,drügzök,drügzöm,lakik,-zik,1,PR2082,2002,nő,nem,2022-04-19_17h37.56.759,hesp_baseline,2021.2.3,Win32,143.2254368
,,,,,,,,,,,,,,,,,nuhétnál,nuhétnél,left,3.8499,0,39,39,29,1,30,nuhét,nuhét,nál,é,Ez itt egy nuhét.,Nincs is jobb egy jó...,nuhétnél,nuhétnál,dzsungel,NA,NA,PR2082,2002,nő,nem,2022-04-19_17h37.56.759,hesp_baseline,2021.2.3,Win32,143.2254368
,,,,,,,,,,,,,,,,,dutecnál,dutecnél,right,4.5212,0,40,40,22,1,23,dutec,dutec,nál,e,Ez itt egy dutec.,Nincs is jobb egy jó...,dutecnél,dutecnál,dzsungel,NA,NA,PR2082,2002,nő,nem,2022-04-19_17h37.56.759,hesp_baseline,2021.2.3,Win32,143.2254368
,,,,,,,,,,,,,,,,,riványoztok,riványlotok,left,6.1462,0,41,41,117,1,10,riványlik / riványozik,"riványlik, riványozni",tek,NA,"János imád riványozni, ezért sokat riványlik.",Ti ritkán...,riványlotok,riványoztok,cselekszik,-lik,2,PR2082,2002,nő,nem,2022-04-19_17h37.56.759,hesp_baseline,2021.2.3,Win32,143.2254368
,,,,,,,,,,,,,,,,,aglok,aglom,left,3.9412,0,42,42,100,1,47,aglik,aglasz,NA,NA,Te bizony sokat aglasz.,Én is sokat...,aglok,aglom,lakik,-lik,1,PR2082,2002,nő,nem,2022-04-19_17h37.56.759,hesp_baseline,2021.2.3,Win32,143.2254368
,,,,,,,,,,,,,,,,,prélemeznek,prélemlenek,left,9.2875,0,43,43,110,1,3,prélemlik / prélemezik,"prélemlik, prélemezni",nek,NA,"János imád prélemezni, ezért sokat prélemlik.",Ők ritkán...,prélemlenek,prélemeznek,cselekszik,-lik,2,PR2082,2002,nő,nem,2022-04-19_17h37.56.759,hesp_baseline,2021.2.3,Win32,143.2254368
,,,,,,,,,,,,,,,,,zsopédben,zsopédban,right,3.318,0,44,44,50,1,51,zsopéd,zsopéd,ban,é,Ez itt egy zsopéd.,Ott vagyunk a...,zsopédben,zsopédban,dzsungel,NA,NA,PR2082,2002,nő,nem,2022-04-19_17h37.56.759,hesp_baseline,2021.2.3,Win32,143.2254368
,,,,,,,,,,,,,,,,,sprédlek,sprédlem,left,3.5376,0,45,45,70,1,17,sprédlik,sprédlesz,NA,NA,Te bizony sokat sprédlesz.,Én is sokat...,sprédlek,sprédlem,lakik,-lik,1,PR2082,2002,nő,nem,2022-04-19_17h37.56.759,hesp_baseline,2021.2.3,Win32,143.2254368
,,,,,,,,,,,,,,,,,vihapszunk,vihapodunk,left,4.667,0,46,46,112,1,5,vihapszik / vihapodik,"vihapszik, vihapodni",ünk,NA,"János imád vihapodni, ezért sokat vihapszik.",Mi ritkán...,vihapszunk,vihapodunk,cselekszik,-szik,2,PR2082,2002,nő,nem,2022-04-19_17h37.56.759,hesp_baseline,2021.2.3,Win32,143.2254368
,,,,,,,,,,,,,,,,,brivakoztok,brivaklotok,left,5.033,0,47,47,134,1,27,brivaklik / brivakozik,"brivaklik, brivakozni",tek,NA,"János imád brivakozni, ezért sokat brivaklik.",Ti ritkán...,brivaklotok,brivakoztok,cselekszik,-lik,2,PR2082,2002,nő,nem,2022-04-19_17h37.56.759,hesp_baseline,2021.2.3,Win32,143.2254368
,,,,,,,,,,,,,,,,,fökszenek,föködnek,left,5.5745,0,48,48,131,1,24,fökszik / föködik,"fökszik, föködni",nek,NA,"János imád föködni, ezért sokat fökszik.",Ők ritkán...,fökszenek,föködnek,cselekszik,-szik,1,PR2082,2002,nő,nem,2022-04-19_17h37.56.759,hesp_baseline,2021.2.3,Win32,143.2254368
,,,,,,,,,,,,,,,,,frakozunk,fraklunk,left,5.5056,0,49,49,159,1,52,fraklik / frakozik,"fraklik, frakozni",ünk,NA,"János imád frakozni, ezért sokat fraklik.",Mi ritkán...,fraklunk,frakozunk,cselekszik,-lik,1,PR2082,2002,nő,nem,2022-04-19_17h37.56.759,hesp_baseline,2021.2.3,Win32,143.2254368
,,,,,,,,,,,,,,,,,dábegyben,dábegyban,left,3.0174,0,50,50,6,1,7,dábegy,dábegy,ban,e,Ez itt egy dábegy.,Ott vagyunk a...,dábegyben,dábegyban,dzsungel,NA,NA,PR2082,2002,nő,nem,2022-04-19_17h37.56.759,hesp_baseline,2021.2.3,Win32,143.2254368
,,,,,,,,,,,,,,,,,gihejlünk,gihejezünk,left,6.1403,0,51,51,146,1,39,gihejlik / gihejezik,"gihejlik, gihejezni",ünk,NA,"János imád gihejezni, ezért sokat gihejlik.",Mi ritkán...,gihejlünk,gihejezünk,cselekszik,-lik,2,PR2082,2002,nő,nem,2022-04-19_17h37.56.759,hesp_baseline,2021.2.3,Win32,143.2254368
,,,,,,,,,,,,,,,,,breseznek,breslenek,left,4.6269,0,52,52,115,1,8,breslik / bresezik,"breslik, bresezni",nek,NA,"János imád bresezni, ezért sokat breslik.",Ők ritkán...,breslenek,breseznek,cselekszik,-lik,1,PR2082,2002,nő,nem,2022-04-19_17h37.56.759,hesp_baseline,2021.2.3,Win32,143.2254368
,,,,,,,,,,,,,,,,,incéjnek,incéjnak,left,5.4917,0,53,53,30,1,31,incéj,incéj,nak,é,Ez itt egy incéj.,Elneveztem a kutyámat...,incéjnek,incéjnak,dzsungel,NA,NA,PR2082,2002,nő,nem,2022-04-19_17h37.56.759,hesp_baseline,2021.2.3,Win32,143.2254368
,,,,,,,,,,,,,,,,,pisélyban,pisélyben,right,3.2258,0,54,54,21,1,22,pisély,pisély,ban,é,Ez itt egy pisély.,Ott vagyunk a...,pisélyben,pisélyban,dzsungel,NA,NA,PR2082,2002,nő,nem,2022-04-19_17h37.56.759,hesp_baseline,2021.2.3,Win32,143.2254368
,,,,,,,,,,,,,,,,,pugoslom,pugoslok,right,4.7534,0,55,55,84,1,31,pugoslik,pugoslasz,NA,NA,Te bizony sokat pugoslasz.,Én is sokat...,pugoslok,pugoslom,lakik,-lik,2,PR2082,2002,nő,nem,2022-04-19_17h37.56.759,hesp_baseline,2021.2.3,Win32,143.2254368
,,,,,,,,,,,,,,,,,szibedben,szibedban,left,4.9533,0,56,56,47,1,48,szibed,szibed,ban,e,Ez itt egy szibed.,Ott vagyunk a...,szibedben,szibedban,dzsungel,NA,NA,PR2082,2002,nő,nem,2022-04-19_17h37.56.759,hesp_baseline,2021.2.3,Win32,143.2254368
,,,,,,,,,,,,,,,,,dujoznak,dujzanak,right,5.3884,0,57,57,128,1,21,dujzik / dujozik,"dujzik, dujozni",nek,NA,"János imád dujozni, ezért sokat dujzik.",Ők ritkán...,dujzanak,dujoznak,cselekszik,-zik,1,PR2082,2002,nő,nem,2022-04-19_17h37.56.759,hesp_baseline,2021.2.3,Win32,143.2254368
,,,,,,,,,,,,,,,,,rokszom,rokszok,left,4.0526,0,58,58,101,1,48,rokszik,rokszol,NA,NA,Te bizony sokat rokszol.,Én is sokat...,rokszok,rokszom,lakik,-szik,1,PR2082,2002,nő,nem,2022-04-19_17h37.56.759,hesp_baseline,2021.2.3,Win32,143.2254368
,,,,,,,,,,,,,,,,,prugoroztok,prugorzotok,left,7.8092,0,59,59,116,1,9,prugorzik / prugorozik,"prugorzik, prugorozni",tek,NA,"János imád prugorozni, ezért sokat prugorzik.",Ti ritkán...,prugorzotok,prugoroztok,cselekszik,-zik,2,PR2082,2002,nő,nem,2022-04-19_17h37.56.759,hesp_baseline,2021.2.3,Win32,143.2254368
,,,,,,,,,,,,,,,,,spéslek,spéslem,left,4.0038,0,60,60,93,1,40,spéslik,spéslesz,NA,NA,Te bizony sokat spéslesz.,Én is sokat...,spéslek,spéslem,lakik,-lik,1,PR2082,2002,nő,nem,2022-04-19_17h37.56.759,hesp_baseline,2021.2.3,Win32,143.2254368
,,,,,,,,,,,,,,,,,jukélnál,jukélnél,left,3.5128,0,61,61,42,1,43,jukél,jukél,nál,é,Ez itt egy jukél.,Nincs is jobb egy jó...,jukélnél,jukélnál,dzsungel,NA,NA,PR2082,2002,nő,nem,2022-04-19_17h37.56.759,hesp_baseline,2021.2.3,Win32,143.2254368
,,,,,,,,,,,,,,,,,dajrensnál,dajrensnél,right,3.797,0,62,62,49,1,50,dajrens,dajrens,nál,e,Ez itt egy dajrens.,Nincs is jobb egy jó...,dajrensnél,dajrensnál,dzsungel,NA,NA,PR2082,2002,nő,nem,2022-04-19_17h37.56.759,hesp_baseline,2021.2.3,Win32,143.2254368
,,,,,,,,,,,,,,,,,nyizlunk,nyizozunk,right,8.9829,0,63,63,135,1,28,nyizlik / nyizozik,"nyizlik, nyizozni",ünk,NA,"János imád nyizozni, ezért sokat nyizlik.",Mi ritkán...,nyizlunk,nyizozunk,cselekszik,-lik,1,PR2082,2002,nő,nem,2022-04-19_17h37.56.759,hesp_baseline,2021.2.3,Win32,143.2254368
,,,,,,,,,,,,,,,,,gatágozunk,gatáglunk,left,5.9377,0,64,64,137,1,30,gatáglik / gatágozik,"gatáglik, gatágozni",ünk,NA,"János imád gatágozni, ezért sokat gatáglik.",Mi ritkán...,gatáglunk,gatágozunk,cselekszik,-lik,2,PR2082,2002,nő,nem,2022-04-19_17h37.56.759,hesp_baseline,2021.2.3,Win32,143.2254368
,,,,,,,,,,,,,,,,,dunkészban,dunkészben,left,3.3792,0,65,65,24,1,25,dunkész,dunkész,ban,é,Ez itt egy dunkész.,Ott vagyunk a...,dunkészben,dunkészban,dzsungel,NA,NA,PR2082,2002,nő,nem,2022-04-19_17h37.56.759,hesp_baseline,2021.2.3,Win32,143.2254368
,,,,,,,,,,,,,,,,,flérlek,flérlem,left,3.8498,0,66,66,89,1,36,flérlik,flérlesz,NA,NA,Te bizony sokat flérlesz.,Én is sokat...,flérlek,flérlem,lakik,-lik,1,PR2082,2002,nő,nem,2022-04-19_17h37.56.759,hesp_baseline,2021.2.3,Win32,143.2254368
,,,,,,,,,,,,,,,,,frágapszok,frágapszom,right,6.2412,0,67,67,60,1,7,frágapszik,frágapszol,NA,NA,Te bizony sokat frágapszol.,Én is sokat...,frágapszok,frágapszom,lakik,-szik,2,PR2082,2002,nő,nem,2022-04-19_17h37.56.759,hesp_baseline,2021.2.3,Win32,143.2254368
,,,,,,,,,,,,,,,,,flözlök,flözlöm,left,4.0303,0,68,68,74,1,21,flözlik,flözlesz,NA,NA,Te bizony sokat flözlesz.,Én is sokat...,flözlök,flözlöm,lakik,-lik,1,PR2082,2002,nő,nem,2022-04-19_17h37.56.759,hesp_baseline,2021.2.3,Win32,143.2254368
,,,,,,,,,,,,,,,,,narádzok,narádzom,left,4.6534,0,69,69,63,1,10,narádzik,narádzol,NA,NA,Te bizony sokat narádzol.,Én is sokat...,narádzok,narádzom,lakik,-zik,2,PR2082,2002,nő,nem,2022-04-19_17h37.56.759,hesp_baseline,2021.2.3,Win32,143.2254368
,,,,,,,,,,,,,,,,,sprudozunk,sprudlunk,left,5.021,0,70,70,136,1,29,sprudlik / sprudozik,"sprudlik, sprudozni",ünk,NA,"János imád sprudozni, ezért sokat sprudlik.",Mi ritkán...,sprudlunk,sprudozunk,cselekszik,-lik,1,PR2082,2002,nő,nem,2022-04-19_17h37.56.759,hesp_baseline,2021.2.3,Win32,143.2254368
,,,,,,,,,,,,,,,,,brülösözünk,brülöslünk,left,5.7653,0,71,71,109,1,2,brülöslik / brülösözik,"brülöslik, brülösözni",ünk,NA,"János imád brülösözni, ezért sokat brülöslik.",Mi ritkán...,brülöslünk,brülösözünk,cselekszik,-lik,2,PR2082,2002,nő,nem,2022-04-19_17h37.56.759,hesp_baseline,2021.2.3,Win32,143.2254368
,,,,,,,,,,,,,,,,,spélszek,spélszem,left,2.3283,0,72,72,68,1,15,spélszik,spélszel,NA,NA,Te bizony sokat spélszel.,Én is sokat...,spélszek,spélszem,lakik,-szik,1,PR2082,2002,nő,nem,2022-04-19_17h37.56.759,hesp_baseline,2021.2.3,Win32,143.2254368
,,,,,,,,,,,,,,,,,flehénylem,flehénylek,left,4.7792,0,73,73,106,1,53,flehénylik,flehénylesz,NA,NA,Te bizony sokat flehénylesz.,Én is sokat...,flehénylek,flehénylem,lakik,-lik,2,PR2082,2002,nő,nem,2022-04-19_17h37.56.759,hesp_baseline,2021.2.3,Win32,143.2254368
,,,,,,,,,,,,,,,,,tarhézben,tarhézban,right,5.2229,0,74,74,25,1,26,tarhéz,tarhéz,ban,é,Ez itt egy tarhéz.,Ott vagyunk a...,tarhézben,tarhézban,dzsungel,NA,NA,PR2082,2002,nő,nem,2022-04-19_17h37.56.759,hesp_baseline,2021.2.3,Win32,143.2254368
,,,,,,,,,,,,,,,,,friheglünk,frihegezünk,right,5.1794,0,75,75,132,1,25,friheglik / frihegezik,"friheglik, frihegezni",ünk,NA,"János imád frihegezni, ezért sokat friheglik.",Mi ritkán...,friheglünk,frihegezünk,cselekszik,-lik,2,PR2082,2002,nő,nem,2022-04-19_17h37.56.759,hesp_baseline,2021.2.3,Win32,143.2254368
,,,,,,,,,,,,,,,,,jurozunk,jurlunk,left,3.4206,0,76,76,111,1,4,jurlik / jurozik,"jurlik, jurozni",ünk,NA,"János imád jurozni, ezért sokat jurlik.",Mi ritkán...,jurlunk,jurozunk,cselekszik,-lik,1,PR2082,2002,nő,nem,2022-04-19_17h37.56.759,hesp_baseline,2021.2.3,Win32,143.2254368
,,,,,,,,,,,,,,,,,brubzom,brubzok,left,2.9182,0,77,77,92,1,39,brubzik,brubzol,NA,NA,Te bizony sokat brubzol.,Én is sokat...,brubzok,brubzom,lakik,-zik,1,PR2082,2002,nő,nem,2022-04-19_17h37.56.759,hesp_baseline,2021.2.3,Win32,143.2254368
,,,,,,,,,,,,,,,,,spicetnek,spicetnak,left,3.4659,0,78,78,35,1,36,spicet,spicet,nak,e,Ez itt egy spicet.,Elneveztem a kutyámat...,spicetnek,spicetnak,dzsungel,NA,NA,PR2082,2002,nő,nem,2022-04-19_17h37.56.759,hesp_baseline,2021.2.3,Win32,143.2254368
,,,,,,,,,,,,,,,,,spibaklom,spibaklok,right,3.515,0,79,79,55,1,2,spibaklik,spibaklasz,NA,NA,Te bizony sokat spibaklasz.,Én is sokat...,spibaklok,spibaklom,lakik,-lik,2,PR2082,2002,nő,nem,2022-04-19_17h37.56.759,hesp_baseline,2021.2.3,Win32,143.2254368
,,,,,,,,,,,,,,,,,bribasoznak,bribaslanak,left,4.2163,0,80,80,121,1,14,bribaslik / bribasozik,"bribaslik, bribasozni",nek,NA,"János imád bribasozni, ezért sokat bribaslik.",Ők ritkán...,bribaslanak,bribasoznak,cselekszik,-lik,2,PR2082,2002,nő,nem,2022-04-19_17h37.56.759,hesp_baseline,2021.2.3,Win32,143.2254368
,,,,,,,,,,,,,,,,,szibánylok,szibánylom,left,6.0004,0,81,81,67,1,14,szibánylik,szibánylasz,NA,NA,Te bizony sokat szibánylasz.,Én is sokat...,szibánylok,szibánylom,lakik,-lik,2,PR2082,2002,nő,nem,2022-04-19_17h37.56.759,hesp_baseline,2021.2.3,Win32,143.2254368
,,,,,,,,,,,,,,,,,spihemlek,spihemlem,left,2.6708,0,82,82,94,1,41,spihemlik,spihemlesz,NA,NA,Te bizony sokat spihemlesz.,Én is sokat...,spihemlek,spihemlem,lakik,-lik,2,PR2082,2002,nő,nem,2022-04-19_17h37.56.759,hesp_baseline,2021.2.3,Win32,143.2254368
,,,,,,,,,,,,,,,,,mísozunk,míslunk,left,3.3843,0,83,83,123,1,16,míslik / mísozik,"míslik, mísozni",ünk,NA,"János imád mísozni, ezért sokat míslik.",Mi ritkán...,míslunk,mísozunk,cselekszik,-lik,1,PR2082,2002,nő,nem,2022-04-19_17h37.56.759,hesp_baseline,2021.2.3,Win32,143.2254368
,,,,,,,,,,,,,,,,,csublényben,csublényban,right,3.4418,0,84,84,16,1,17,csublény,csublény,ban,é,Ez itt egy csublény.,Ott vagyunk a...,csublényben,csublényban,dzsungel,NA,NA,PR2082,2002,nő,nem,2022-04-19_17h37.56.759,hesp_baseline,2021.2.3,Win32,143.2254368
,,,,,,,,,,,,,,,,,sztremlem,sztremlek,right,3.3366,0,85,85,95,1,42,sztremlik,sztremlesz,NA,NA,Te bizony sokat sztremlesz.,Én is sokat...,sztremlek,sztremlem,lakik,-lik,1,PR2082,2002,nő,nem,2022-04-19_17h37.56.759,hesp_baseline,2021.2.3,Win32,143.2254368
,,,,,,,,,,,,,,,,,bralképben,bralképban,right,3.4764,0,86,86,12,1,13,bralkép,bralkép,ban,é,Ez itt egy bralkép.,Ott vagyunk a...,bralképben,bralképban,dzsungel,NA,NA,PR2082,2002,nő,nem,2022-04-19_17h37.56.759,hesp_baseline,2021.2.3,Win32,143.2254368
,,,,,,,,,,,,,,,,,froroznak,frorlanak,left,6.6568,0,87,87,143,1,36,frorlik / frorozik,"frorlik, frorozni",nek,NA,"János imád frorozni, ezért sokat frorlik.",Ők ritkán...,frorlanak,froroznak,cselekszik,-lik,1,PR2082,2002,nő,nem,2022-04-19_17h37.56.759,hesp_baseline,2021.2.3,Win32,143.2254368
,,,,,,,,,,,,,,,,,spilágzok,spilágzom,left,4.6599,0,88,88,76,1,23,spilágzik,spilágzol,NA,NA,Te bizony sokat spilágzol.,Én is sokat...,spilágzok,spilágzom,lakik,-zik,2,PR2082,2002,nő,nem,2022-04-19_17h37.56.759,hesp_baseline,2021.2.3,Win32,143.2254368
,,,,,,,,,,,,,,,,,zsúdelnek,zsúdelnak,left,3.7164,0,89,89,14,1,15,zsúdel,zsúdel,nak,e,Ez itt egy zsúdel.,Elneveztem a kutyámat...,zsúdelnek,zsúdelnak,dzsungel,NA,NA,PR2082,2002,nő,nem,2022-04-19_17h37.56.759,hesp_baseline,2021.2.3,Win32,143.2254368
,,,,,,,,,,,,,,,,,frinyozunk,frinylunk,left,5.1541,0,90,90,133,1,26,frinylik / frinyozik,"frinylik, frinyozni",ünk,NA,"János imád frinyozni, ezért sokat frinylik.",Mi ritkán...,frinylunk,frinyozunk,cselekszik,-lik,1,PR2082,2002,nő,nem,2022-04-19_17h37.56.759,hesp_baseline,2021.2.3,Win32,143.2254368
,,,,,,,,,,,,,,,,,csarténynek,csarténynak,right,6.5297,0,91,91,36,1,37,csartény,csartény,nak,é,Ez itt egy csartény.,Elneveztem a kutyámat...,csarténynek,csarténynak,dzsungel,NA,NA,PR2082,2002,nő,nem,2022-04-19_17h37.56.759,hesp_baseline,2021.2.3,Win32,143.2254368
,,,,,,,,,,,,,,,,,málapszok,málapszom,left,4.423,0,92,92,66,1,13,málapszik,málapszol,NA,NA,Te bizony sokat málapszol.,Én is sokat...,málapszok,málapszom,lakik,-szik,2,PR2082,2002,nő,nem,2022-04-19_17h37.56.759,hesp_baseline,2021.2.3,Win32,143.2254368
,,,,,,,,,,,,,,,,,jorzégnek,jorzégnak,right,4.3506,0,93,93,45,1,46,jorzég,jorzég,nak,é,Ez itt egy jorzég.,Elneveztem a kutyámat...,jorzégnek,jorzégnak,dzsungel,NA,NA,PR2082,2002,nő,nem,2022-04-19_17h37.56.759,hesp_baseline,2021.2.3,Win32,143.2254368
,,,,,,,,,,,,,,,,,gyibeslek,gyibeslem,left,3.3436,0,94,94,98,1,45,gyibeslik,gyibeslesz,NA,NA,Te bizony sokat gyibeslesz.,Én is sokat...,gyibeslek,gyibeslem,lakik,-lik,2,PR2082,2002,nő,nem,2022-04-19_17h37.56.759,hesp_baseline,2021.2.3,Win32,143.2254368
,,,,,,,,,,,,,,,,,csibagoztok,csibagzotok,left,4.9707,0,95,95,114,1,7,csibagzik / csibagozik,"csibagzik, csibagozni",tek,NA,"János imád csibagozni, ezért sokat csibagzik.",Ti ritkán...,csibagzotok,csibagoztok,cselekszik,-zik,2,PR2082,2002,nő,nem,2022-04-19_17h37.56.759,hesp_baseline,2021.2.3,Win32,143.2254368
,,,,,,,,,,,,,,,,,klörlöm,klörlök,left,3.5067,0,96,96,80,1,27,klörlik,klörlesz,NA,NA,Te bizony sokat klörlesz.,Én is sokat...,klörlök,klörlöm,lakik,-lik,1,PR2082,2002,nő,nem,2022-04-19_17h37.56.759,hesp_baseline,2021.2.3,Win32,143.2254368
,,,,,,,,,,,,,,,,,vismernél,vismernál,left,7.8211,0,97,97,13,1,14,vismer,vismer,nál,e,Ez itt egy vismer.,Nincs is jobb egy jó...,vismernél,vismernál,dzsungel,NA,NA,PR2082,2002,nő,nem,2022-04-19_17h37.56.759,hesp_baseline,2021.2.3,Win32,143.2254368
,,,,,,,,,,,,,,,,,hóbensban,hóbensben,left,7.8862,0,98,98,3,1,4,hóbens,hóbens,ban,e,Ez itt egy hóbens.,Ott vagyunk a...,hóbensben,hóbensban,dzsungel,NA,NA,PR2082,2002,nő,nem,2022-04-19_17h37.56.759,hesp_baseline,2021.2.3,Win32,143.2254368
,,,,,,,,,,,,,,,,,hurjorzom,hurjorzok,right,6.7094,0,99,99,59,1,6,hurjorzik,hurjorzol,NA,NA,Te bizony sokat hurjorzol.,Én is sokat...,hurjorzok,hurjorzom,lakik,-zik,2,PR2082,2002,nő,nem,2022-04-19_17h37.56.759,hesp_baseline,2021.2.3,Win32,143.2254368
,,,,,,,,,,,,,,,,,sztrajoznak,sztrajlanak,left,3.6946,0,100,100,144,1,37,sztrajlik / sztrajozik,"sztrajlik, sztrajozni",nek,NA,"János imád sztrajozni, ezért sokat sztrajlik.",Ők ritkán...,sztrajlanak,sztrajoznak,cselekszik,-lik,1,PR2082,2002,nő,nem,2022-04-19_17h37.56.759,hesp_baseline,2021.2.3,Win32,143.2254368
,,,,,,,,,,,,,,,,,hosétnek,hosétnak,right,4.298,0,101,101,8,1,9,hosét,hosét,nak,é,Ez itt egy hosét.,Elneveztem a kutyámat...,hosétnek,hosétnak,dzsungel,NA,NA,PR2082,2002,nő,nem,2022-04-19_17h37.56.759,hesp_baseline,2021.2.3,Win32,143.2254368
,,,,,,,,,,,,,,,,,galároznak,galárzanak,left,4.9039,0,102,102,154,1,47,galárzik / galározik,"galárzik, galározni",nek,NA,"János imád galározni, ezért sokat galárzik.",Ők ritkán...,galárzanak,galároznak,cselekszik,-zik,2,PR2082,2002,nő,nem,2022-04-19_17h37.56.759,hesp_baseline,2021.2.3,Win32,143.2254368
,,,,,,,,,,,,,,,,,spábétban,spábétben,left,4.2806,0,103,103,51,1,52,spábét,spábét,ban,é,Ez itt egy spábét.,Ott vagyunk a...,spábétben,spábétban,dzsungel,NA,NA,PR2082,2002,nő,nem,2022-04-19_17h37.56.759,hesp_baseline,2021.2.3,Win32,143.2254368
,,,,,,,,,,,,,,,,,vanylok,vanylom,left,3.7577,0,104,104,61,1,8,vanylik,vanylasz,NA,NA,Te bizony sokat vanylasz.,Én is sokat...,vanylok,vanylom,lakik,-lik,1,PR2082,2002,nő,nem,2022-04-19_17h37.56.759,hesp_baseline,2021.2.3,Win32,143.2254368
,,,,,,,,,,,,,,,,,fágyépnél,fágyépnál,right,4.2079,0,105,105,10,1,11,fágyép,fágyép,nál,é,Ez itt egy fágyép.,Nincs is jobb egy jó...,fágyépnél,fágyépnál,dzsungel,NA,NA,PR2082,2002,nő,nem,2022-04-19_17h37.56.759,hesp_baseline,2021.2.3,Win32,143.2254368
,,,,,,,,,,,,,,,,,hijegynél,hijegynál,left,3.4649,0,106,106,4,1,5,hijegy,hijegy,nál,e,Ez itt egy hijegy.,Nincs is jobb egy jó...,hijegynél,hijegynál,dzsungel,NA,NA,PR2082,2002,nő,nem,2022-04-19_17h37.56.759,hesp_baseline,2021.2.3,Win32,143.2254368
,,,,,,,,,,,,,,,,,feténylem,feténylek,left,4.5464,0,107,107,85,1,32,feténylik,feténylesz,NA,NA,Te bizony sokat feténylesz.,Én is sokat...,feténylek,feténylem,lakik,-lik,2,PR2082,2002,nő,nem,2022-04-19_17h37.56.759,hesp_baseline,2021.2.3,Win32,143.2254368
,,,,,,,,,,,,,,,,,klordénynek,klordénynak,right,5.6933,0,108,108,9,1,10,klordény,klordény,nak,é,Ez itt egy klordény.,Elneveztem a kutyámat...,klordénynek,klordénynak,dzsungel,NA,NA,PR2082,2002,nő,nem,2022-04-19_17h37.56.759,hesp_baseline,2021.2.3,Win32,143.2254368
,,,,,,,,,,,,,,,,,prögöztök,prögzötök,left,4.0341,0,109,109,151,1,44,prögzik / prögözik,"prögzik, prögözni",tek,NA,"János imád prögözni, ezért sokat prögzik.",Ti ritkán...,prögzötök,prögöztök,cselekszik,-zik,1,PR2082,2002,nő,nem,2022-04-19_17h37.56.759,hesp_baseline,2021.2.3,Win32,143.2254368
,,,,,,,,,,,,,,,,,vodépnak,vodépnek,left,4.1624,0,110,110,41,1,42,vodép,vodép,nak,é,Ez itt egy vodép.,Elneveztem a kutyámat...,vodépnek,vodépnak,dzsungel,NA,NA,PR2082,2002,nő,nem,2022-04-19_17h37.56.759,hesp_baseline,2021.2.3,Win32,143.2254368
,,,,,,,,,,,,,,,,,gonszéknél,gonszéknál,right,2.9774,0,111,111,38,1,39,gonszék,gonszék,nál,é,Ez itt egy gonszék.,Nincs is jobb egy jó...,gonszéknél,gonszéknál,dzsungel,NA,NA,PR2082,2002,nő,nem,2022-04-19_17h37.56.759,hesp_baseline,2021.2.3,Win32,143.2254368
,,,,,,,,,,,,,,,,,pörzötök,pöröztök,left,6.1224,0,112,112,153,1,46,pörzik / pörözik,"pörzik, pörözni",tek,NA,"János imád pörözni, ezért sokat pörzik.",Ti ritkán...,pörzötök,pöröztök,cselekszik,-zik,1,PR2082,2002,nő,nem,2022-04-19_17h37.56.759,hesp_baseline,2021.2.3,Win32,143.2254368
,,,,,,,,,,,,,,,,,brüszöztök,brüszlötök,left,4.3572,0,113,113,130,1,23,brüszlik / brüszözik,"brüszlik, brüszözni",tek,NA,"János imád brüszözni, ezért sokat brüszlik.",Ti ritkán...,brüszlötök,brüszöztök,cselekszik,-lik,1,PR2082,2002,nő,nem,2022-04-19_17h37.56.759,hesp_baseline,2021.2.3,Win32,143.2254368
,,,,,,,,,,,,,,,,,brözöztök,brözlötök,left,6.7435,0,114,114,145,1,38,brözlik / brözözik,"brözlik, brözözni",tek,NA,"János imád brözözni, ezért sokat brözlik.",Ti ritkán...,brözlötök,brözöztök,cselekszik,-lik,1,PR2082,2002,nő,nem,2022-04-19_17h37.56.759,hesp_baseline,2021.2.3,Win32,143.2254368
,,,,,,,,,,,,,,,,,tránélynek,tránélynak,right,2.7249,0,115,115,17,1,18,tránély,tránély,nak,é,Ez itt egy tránély.,Elneveztem a kutyámat...,tránélynek,tránélynak,dzsungel,NA,NA,PR2082,2002,nő,nem,2022-04-19_17h37.56.759,hesp_baseline,2021.2.3,Win32,143.2254368
,,,,,,,,,,,,,,,,,hivépban,hivépben,left,4.8677,0,116,116,44,1,45,hivép,hivép,ban,é,Ez itt egy hivép.,Ott vagyunk a...,hivépben,hivépban,dzsungel,NA,NA,PR2082,2002,nő,nem,2022-04-19_17h37.56.759,hesp_baseline,2021.2.3,Win32,143.2254368
,,,,,,,,,,,,,,,,,jüslök,jüslöm,left,2.2155,0,117,117,56,1,3,jüslik,jüslesz,NA,NA,Te bizony sokat jüslesz.,Én is sokat...,jüslök,jüslöm,lakik,-lik,1,PR2082,2002,nő,nem,2022-04-19_17h37.56.759,hesp_baseline,2021.2.3,Win32,143.2254368
,,,,,,,,,,,,,,,,,püzlötök,püzöztök,left,3.7099,0,118,118,152,1,45,püzlik / püzözik,"püzlik, püzözni",tek,NA,"János imád püzözni, ezért sokat püzlik.",Ti ritkán...,püzlötök,püzöztök,cselekszik,-lik,1,PR2082,2002,nő,nem,2022-04-19_17h37.56.759,hesp_baseline,2021.2.3,Win32,143.2254368
,,,,,,,,,,,,,,,,,kliszernél,kliszernál,left,4.6676,0,119,119,31,1,32,kliszer,kliszer,nál,e,Ez itt egy kliszer.,Nincs is jobb egy jó...,kliszernél,kliszernál,dzsungel,NA,NA,PR2082,2002,nő,nem,2022-04-19_17h37.56.759,hesp_baseline,2021.2.3,Win32,143.2254368
,,,,,,,,,,,,,,,,,píjlok,píjlom,left,3.2875,0,120,120,75,1,22,píjlik,píjlasz,NA,NA,Te bizony sokat píjlasz.,Én is sokat...,píjlok,píjlom,lakik,-lik,1,PR2082,2002,nő,nem,2022-04-19_17h37.56.759,hesp_baseline,2021.2.3,Win32,143.2254368
,,,,,,,,,,,,,,,,,buhényban,buhényben,left,4.4683,0,121,121,43,1,44,buhény,buhény,ban,é,Ez itt egy buhény.,Ott vagyunk a...,buhényben,buhényban,dzsungel,NA,NA,PR2082,2002,nő,nem,2022-04-19_17h37.56.759,hesp_baseline,2021.2.3,Win32,143.2254368
,,,,,,,,,,,,,,,,,gyivepszenek,gyivepednek,left,4.8367,0,122,122,160,1,53,gyivepszik / gyivepedik,"gyivepszik, gyivepedni",nek,NA,"János imád gyivepedni, ezért sokat gyivepszik.",Ők ritkán...,gyivepszenek,gyivepednek,cselekszik,-szik,2,PR2082,2002,nő,nem,2022-04-19_17h37.56.759,hesp_baseline,2021.2.3,Win32,143.2254368
,,,,,,,,,,,,,,,,,spatszok,spatszom,left,1.8962,0,123,123,73,1,20,spatszik,spatszol,NA,NA,Te bizony sokat spatszol.,Én is sokat...,spatszok,spatszom,lakik,-szik,1,PR2082,2002,nő,nem,2022-04-19_17h37.56.759,hesp_baseline,2021.2.3,Win32,143.2254368
,,,,,,,,,,,,,,,,,plűbzöm,plűbzök,right,4.3716,0,124,124,107,1,54,plűbzik,plűbzöl,NA,NA,Te bizony sokat plűbzöl.,Én is sokat...,plűbzök,plűbzöm,lakik,-zik,1,PR2082,2002,nő,nem,2022-04-19_17h37.56.759,hesp_baseline,2021.2.3,Win32,143.2254368
,,,,,,,,,,,,,,,,,naremban,naremben,left,3.0735,0,125,125,2,1,3,narem,narem,ban,e,Ez itt egy narem.,Ott vagyunk a...,naremben,naremban,dzsungel,NA,NA,PR2082,2002,nő,nem,2022-04-19_17h37.56.759,hesp_baseline,2021.2.3,Win32,143.2254368
,,,,,,,,,,,,,,,,,brarlom,brarlok,right,3.1289,0,126,126,71,1,18,brarlik,brarlasz,NA,NA,Te bizony sokat brarlasz.,Én is sokat...,brarlok,brarlom,lakik,-lik,1,PR2082,2002,nő,nem,2022-04-19_17h37.56.759,hesp_baseline,2021.2.3,Win32,143.2254368
,,,,,,,,,,,,,,,,,flivegeznek,flivegzenek,left,6.4235,0,127,127,138,1,31,flivegzik / flivegezik,"flivegzik, flivegezni",nek,NA,"János imád flivegezni, ezért sokat flivegzik.",Ők ritkán...,flivegzenek,flivegeznek,cselekszik,-zik,2,PR2082,2002,nő,nem,2022-04-19_17h37.56.759,hesp_baseline,2021.2.3,Win32,143.2254368
,,,,,,,,,,,,,,,,,fádensnak,fádensnek,right,2.5354,0,128,128,33,1,34,fádens,fádens,nak,e,Ez itt egy fádens.,Elneveztem a kutyámat...,fádensnek,fádensnak,dzsungel,NA,NA,PR2082,2002,nő,nem,2022-04-19_17h37.56.759,hesp_baseline,2021.2.3,Win32,143.2254368
,,,,,,,,,,,,,,,,,vilakszok,vilakszom,left,2.6279,0,129,129,97,1,44,vilakszik,vilakszol,NA,NA,Te bizony sokat vilakszol.,Én is sokat...,vilakszok,vilakszom,lakik,-szik,2,PR2082,2002,nő,nem,2022-04-19_17h37.56.759,hesp_baseline,2021.2.3,Win32,143.2254368
,,,,,,,,,,,,,,,,,diránylanak,dirányoznak,right,9.1821,0,130,130,122,1,15,diránylik / dirányozik,"diránylik, dirányozni",nek,NA,"János imád dirányozni, ezért sokat diránylik.",Ők ritkán...,diránylanak,dirányoznak,cselekszik,-lik,2,PR2082,2002,nő,nem,2022-04-19_17h37.56.759,hesp_baseline,2021.2.3,Win32,143.2254368
,,,,,,,,,,,,,,,,,brigesztnak,brigesztnek,right,3.7179,0,131,131,48,1,49,brigeszt,brigeszt,nak,e,Ez itt egy brigeszt.,Elneveztem a kutyámat...,brigesztnek,brigesztnak,dzsungel,NA,NA,PR2082,2002,nő,nem,2022-04-19_17h37.56.759,hesp_baseline,2021.2.3,Win32,143.2254368
,,,,,,,,,,,,,,,,,bregzünk,bregezünk,right,4.4776,0,132,132,139,1,32,bregzik / bregezik,"bregzik, bregezni",ünk,NA,"János imád bregezni, ezért sokat bregzik.",Mi ritkán...,bregzünk,bregezünk,cselekszik,-zik,1,PR2082,2002,nő,nem,2022-04-19_17h37.56.759,hesp_baseline,2021.2.3,Win32,143.2254368
,,,,,,,,,,,,,,,,,bötőrzünk,bötőrözünk,right,7.7192,0,133,133,158,1,51,bötőrzik / bötőrözik,"bötőrzik, bötőrözni",ünk,NA,"János imád bötőrözni, ezért sokat bötőrzik.",Mi ritkán...,bötőrzünk,bötőrözünk,cselekszik,-zik,2,PR2082,2002,nő,nem,2022-04-19_17h37.56.759,hesp_baseline,2021.2.3,Win32,143.2254368
,,,,,,,,,,,,,,,,,spibádzok,spibádzom,left,5.0121,0,134,134,65,1,12,spibádzik,spibádzol,NA,NA,Te bizony sokat spibádzol.,Én is sokat...,spibádzok,spibádzom,lakik,-zik,2,PR2082,2002,nő,nem,2022-04-19_17h37.56.759,hesp_baseline,2021.2.3,Win32,143.2254368
,,,,,,,,,,,,,,,,,ibáglok,ibáglom,right,4.2417,0,135,135,88,1,35,ibáglik,ibáglasz,NA,NA,Te bizony sokat ibáglasz.,Én is sokat...,ibáglok,ibáglom,lakik,-lik,2,PR2082,2002,nő,nem,2022-04-19_17h37.56.759,hesp_baseline,2021.2.3,Win32,143.2254368
,,,,,,,,,,,,,,,,,kűdlenek,kűdöznek,left,3.7423,0,136,136,142,1,35,kűdlik / kűdözik,"kűdlik, kűdözni",nek,NA,"János imád kűdözni, ezért sokat kűdlik.",Ők ritkán...,kűdlenek,kűdöznek,cselekszik,-lik,1,PR2082,2002,nő,nem,2022-04-19_17h37.56.759,hesp_baseline,2021.2.3,Win32,143.2254368
,,,,,,,,,,,,,,,,,tivencban,tivencben,left,3.8427,0,137,137,53,1,54,tivenc,tivenc,ban,e,Ez itt egy tivenc.,Ott vagyunk a...,tivencben,tivencban,dzsungel,NA,NA,PR2082,2002,nő,nem,2022-04-19_17h37.56.759,hesp_baseline,2021.2.3,Win32,143.2254368
,,,,,,,,,,,,,,,,,monvegnél,monvegnál,left,4.5221,0,138,138,26,1,27,monveg,monveg,nál,e,Ez itt egy monveg.,Nincs is jobb egy jó...,monvegnél,monvegnál,dzsungel,NA,NA,PR2082,2002,nő,nem,2022-04-19_17h37.56.759,hesp_baseline,2021.2.3,Win32,143.2254368
,,,,,,,,,,,,,,,,,nyülököznek,nyülöklenek,left,4.7068,0,139,139,108,1,1,nyülöklik / nyülöközik,"nyülöklik, nyülöközni",nek,NA,"János imád nyülöközni, ezért sokat nyülöklik.",Ők ritkán...,nyülöklenek,nyülököznek,cselekszik,-lik,2,PR2082,2002,nő,nem,2022-04-19_17h37.56.759,hesp_baseline,2021.2.3,Win32,143.2254368
,,,,,,,,,,,,,,,,,küslünk,küsözünk,right,4.5845,0,140,140,141,1,34,küslik / küsözik,"küslik, küsözni",ünk,NA,"János imád küsözni, ezért sokat küslik.",Mi ritkán...,küslünk,küsözünk,cselekszik,-lik,1,PR2082,2002,nő,nem,2022-04-19_17h37.56.759,hesp_baseline,2021.2.3,Win32,143.2254368
,,,,,,,,,,,,,,,,,bölszöm,bölszök,right,2.7173,0,141,141,105,1,52,bölszik,bölszöl,NA,NA,Te bizony sokat bölszöl.,Én is sokat...,bölszök,bölszöm,lakik,-szik,1,PR2082,2002,nő,nem,2022-04-19_17h37.56.759,hesp_baseline,2021.2.3,Win32,143.2254368
,,,,,,,,,,,,,,,,,filágzok,filágzom,left,3.8635,0,142,142,102,1,49,filágzik,filágzol,NA,NA,Te bizony sokat filágzol.,Én is sokat...,filágzok,filágzom,lakik,-zik,2,PR2082,2002,nő,nem,2022-04-19_17h37.56.759,hesp_baseline,2021.2.3,Win32,143.2254368
,,,,,,,,,,,,,,,,,lihénynak,lihénynek,left,5.4394,0,143,143,23,1,24,lihény,lihény,nak,é,Ez itt egy lihény.,Elneveztem a kutyámat...,lihénynek,lihénynak,dzsungel,NA,NA,PR2082,2002,nő,nem,2022-04-19_17h37.56.759,hesp_baseline,2021.2.3,Win32,143.2254368
,,,,,,,,,,,,,,,,,gyivádzok,gyivádzom,left,2.4745,0,144,144,87,1,34,gyivádzik,gyivádzol,NA,NA,Te bizony sokat gyivádzol.,Én is sokat...,gyivádzok,gyivádzom,lakik,-zik,2,PR2082,2002,nő,nem,2022-04-19_17h37.56.759,hesp_baseline,2021.2.3,Win32,143.2254368
,,,,,,,,,,,,,,,,,priszkencnek,priszkencnak,left,3.6514,0,145,145,20,1,21,priszkenc,priszkenc,nak,e,Ez itt egy priszkenc.,Elneveztem a kutyámat...,priszkencnek,priszkencnak,dzsungel,NA,NA,PR2082,2002,nő,nem,2022-04-19_17h37.56.759,hesp_baseline,2021.2.3,Win32,143.2254368
,,,,,,,,,,,,,,,,,préleglek,préleglem,left,3.1705,0,146,146,104,1,51,préleglik,préleglesz,NA,NA,Te bizony sokat préleglesz.,Én is sokat...,préleglek,préleglem,lakik,-lik,2,PR2082,2002,nő,nem,2022-04-19_17h37.56.759,hesp_baseline,2021.2.3,Win32,143.2254368
,,,,,,,,,,,,,,,,,lorzensnél,lorzensnál,left,6.1679,0,147,147,34,1,35,lorzens,lorzens,nál,e,Ez itt egy lorzens.,Nincs is jobb egy jó...,lorzensnél,lorzensnál,dzsungel,NA,NA,PR2082,2002,nő,nem,2022-04-19_17h37.56.759,hesp_baseline,2021.2.3,Win32,143.2254368
,,,,,,,,,,,,,,,,,pebzem,pebzek,right,4.9485,0,148,148,57,1,4,pebzik,pebzel,NA,NA,Te bizony sokat pebzel.,Én is sokat...,pebzek,pebzem,lakik,-zik,1,PR2082,2002,nő,nem,2022-04-19_17h37.56.759,hesp_baseline,2021.2.3,Win32,143.2254368
,,,,,,,,,,,,,,,,,kaszépnak,kaszépnek,right,4.324,0,149,149,40,1,41,kaszép,kaszép,nak,é,Ez itt egy kaszép.,Elneveztem a kutyámat...,kaszépnek,kaszépnak,dzsungel,NA,NA,PR2082,2002,nő,nem,2022-04-19_17h37.56.759,hesp_baseline,2021.2.3,Win32,143.2254368
,,,,,,,,,,,,,,,,,priszecban,priszecben,right,3.6427,0,150,150,15,1,16,priszec,priszec,ban,e,Ez itt egy priszec.,Ott vagyunk a...,priszecben,priszecban,dzsungel,NA,NA,PR2082,2002,nő,nem,2022-04-19_17h37.56.759,hesp_baseline,2021.2.3,Win32,143.2254368
,,,,,,,,,,,,,,,,,privékednek,privékszenek,left,6.1914,0,151,151,149,1,42,privékszik / privékedik,"privékszik, privékedni",nek,NA,"János imád privékedni, ezért sokat privékszik.",Ők ritkán...,privékszenek,privékednek,cselekszik,-szik,2,PR2082,2002,nő,nem,2022-04-19_17h37.56.759,hesp_baseline,2021.2.3,Win32,143.2254368
,,,,,,,,,,,,,,,,,prilegzek,prilegzem,left,4.1616,0,152,152,79,1,26,prilegzik,prilegzel,NA,NA,Te bizony sokat prilegzel.,Én is sokat...,prilegzek,prilegzem,lakik,-zik,2,PR2082,2002,nő,nem,2022-04-19_17h37.56.759,hesp_baseline,2021.2.3,Win32,143.2254368
,,,,,,,,,,,,,,,,,vülődzök,vülődzöm,left,3.9381,0,153,153,81,1,28,vülődzik,vülődzöl,NA,NA,Te bizony sokat vülődzöl.,Én is sokat...,vülődzök,vülődzöm,lakik,-zik,2,PR2082,2002,nő,nem,2022-04-19_17h37.56.759,hesp_baseline,2021.2.3,Win32,143.2254368
,,,,,,,,,,,,,,,,,köszöztök,köszlötök,left,4.1475,0,154,154,120,1,13,köszlik / köszözik,"köszlik, köszözni",tek,NA,"János imád köszözni, ezért sokat köszlik.",Ti ritkán...,köszlötök,köszöztök,cselekszik,-lik,1,PR2082,2002,nő,nem,2022-04-19_17h37.56.759,hesp_baseline,2021.2.3,Win32,143.2254368
,,,,,,,,,,,,,,,,,pilégednek,pilégszenek,left,7.8589,0,155,155,150,1,43,pilégszik / pilégedik,"pilégszik, pilégedni",nek,NA,"János imád pilégedni, ezért sokat pilégszik.",Ők ritkán...,pilégszenek,pilégednek,cselekszik,-szik,2,PR2082,2002,nő,nem,2022-04-19_17h37.56.759,hesp_baseline,2021.2.3,Win32,143.2254368
,,,,,,,,,,,,,,,,,herégszek,herégszem,left,6.3914,0,156,156,54,1,1,herégszik,herégszel,NA,NA,Te bizony sokat herégszel.,Én is sokat...,herégszek,herégszem,lakik,-szik,2,PR2082,2002,nő,nem,2022-04-19_17h37.56.759,hesp_baseline,2021.2.3,Win32,143.2254368
,,,,,,,,,,,,,,,,,hiragoznak,hiragzanak,right,5.8587,0,157,157,119,1,12,hiragzik / hiragozik,"hiragzik, hiragozni",nek,NA,"János imád hiragozni, ezért sokat hiragzik.",Ők ritkán...,hiragzanak,hiragoznak,cselekszik,-zik,2,PR2082,2002,nő,nem,2022-04-19_17h37.56.759,hesp_baseline,2021.2.3,Win32,143.2254368
,,,,,,,,,,,,,,,,,brobódzom,brobódzok,left,2.5944,0,158,158,96,1,43,brobódzik,brobódzol,NA,NA,Te bizony sokat brobódzol.,Én is sokat...,brobódzok,brobódzom,lakik,-zik,2,PR2082,2002,nő,nem,2022-04-19_17h37.56.759,hesp_baseline,2021.2.3,Win32,143.2254368
,,,,,,,,,,,,,,,,,salárzok,salárzom,left,2.2431,0,159,159,103,1,50,salárzik,salárzol,NA,NA,Te bizony sokat salárzol.,Én is sokat...,salárzok,salárzom,lakik,-zik,2,PR2082,2002,nő,nem,2022-04-19_17h37.56.759,hesp_baseline,2021.2.3,Win32,143.2254368
,,,,,,,,,,,,,,,,,huklok,huklom,left,2.4019,0,160,160,78,1,25,huklik,huklasz,NA,NA,Te bizony sokat huklasz.,Én is sokat...,huklok,huklom,lakik,-lik,1,PR2082,2002,nő,nem,2022-04-19_17h37.56.759,hesp_baseline,2021.2.3,Win32,143.2254368
,,,,,,,,,,,,,,,,,lörűdzök,lörűdzöm,left,1.7964,0,161,161,77,1,24,lörűdzik,lörűdzöl,NA,NA,Te bizony sokat lörűdzöl.,Én is sokat...,lörűdzök,lörűdzöm,lakik,-zik,2,PR2082,2002,nő,nem,2022-04-19_17h37.56.759,hesp_baseline,2021.2.3,Win32,143.2254368
