my_list,key.keys,key.rt,key_2.keys,key_2.rt,keyboard_input_2.keys,keyboard_input_2.rt,key_3.keys,key_3.rt,keyboard_input_3.keys,keyboard_input_3.rt,key_4.keys,key_4.rt,keyboard_input_4.keys,keyboard_input_4.rt,key_5.keys,key_5.rt,my_button1,my_button2,keyboard_input.keys,keyboard_input.rt,withinBlock.thisRepN,withinBlock.thisTrialN,withinBlock.thisN,withinBlock.thisIndex,withinBlock.ran,rowname,word,prompt,suffix,vowel,carrier_sentence,target_sentence,target1,target2,category,derivational,nsyl,Azonosító,Melyik évben születtél?,Mi a nemed?,Tanultál nyelvészetet?,date,expName,psychopyVersion,OS,frameRate
list1.csv,space,12.1144,space,5.9704,right,8.5683,space,6.1869,left,3.7862,space,6.2187,left,7.5526,space,12.2006,feténylem,feténylek,right,6.2392,0,0,0,85,1,32,feténylik,feténylesz,NA,NA,Te bizony sokat feténylesz.,Én is sokat...,feténylek,feténylem,lakik,-lik,2,PR2040,1978,nő,nem,2022-04-12_19h32.43.533,hesp_baseline,2021.2.3,Win32,60.14675809
,,,,,,,,,,,,,,,,,flagárzok,flagárzom,right,6.2242,0,1,1,64,1,11,flagárzik,flagárzol,NA,NA,Te bizony sokat flagárzol.,Én is sokat...,flagárzok,flagárzom,lakik,-zik,2,PR2040,1978,nő,nem,2022-04-12_19h32.43.533,hesp_baseline,2021.2.3,Win32,60.14675809
,,,,,,,,,,,,,,,,,hosétnak,hosétnek,right,8.5285,0,2,2,8,1,9,hosét,hosét,nak,é,Ez itt egy hosét.,Elneveztem a kutyámat...,hosétnek,hosétnak,dzsungel,NA,NA,PR2040,1978,nő,nem,2022-04-12_19h32.43.533,hesp_baseline,2021.2.3,Win32,60.14675809
,,,,,,,,,,,,,,,,,gyivádzom,gyivádzok,left,7.7142,0,3,3,87,1,34,gyivádzik,gyivádzol,NA,NA,Te bizony sokat gyivádzol.,Én is sokat...,gyivádzok,gyivádzom,lakik,-zik,2,PR2040,1978,nő,nem,2022-04-12_19h32.43.533,hesp_baseline,2021.2.3,Win32,60.14675809
,,,,,,,,,,,,,,,,,nuhétnél,nuhétnál,right,7.6323,0,4,4,29,1,30,nuhét,nuhét,nál,é,Ez itt egy nuhét.,Nincs is jobb egy jó...,nuhétnél,nuhétnál,dzsungel,NA,NA,PR2040,1978,nő,nem,2022-04-12_19h32.43.533,hesp_baseline,2021.2.3,Win32,60.14675809
,,,,,,,,,,,,,,,,,vihapodunk,vihapszunk,right,11.4419,0,5,5,112,1,5,vihapszik / vihapodik,"vihapszik, vihapodni",ünk,NA,"János imád vihapodni, ezért sokat vihapszik.",Mi ritkán...,vihapszunk,vihapodunk,cselekszik,-szik,2,PR2040,1978,nő,nem,2022-04-12_19h32.43.533,hesp_baseline,2021.2.3,Win32,60.14675809
,,,,,,,,,,,,,,,,,csibagzotok,csibagoztok,right,18.3132,0,6,6,114,1,7,csibagzik / csibagozik,"csibagzik, csibagozni",tek,NA,"János imád csibagozni, ezért sokat csibagzik.",Ti ritkán...,csibagzotok,csibagoztok,cselekszik,-zik,2,PR2040,1978,nő,nem,2022-04-12_19h32.43.533,hesp_baseline,2021.2.3,Win32,60.14675809
,,,,,,,,,,,,,,,,,dajrensnál,dajrensnél,right,5.1303,0,7,7,49,1,50,dajrens,dajrens,nál,e,Ez itt egy dajrens.,Nincs is jobb egy jó...,dajrensnél,dajrensnál,dzsungel,NA,NA,PR2040,1978,nő,nem,2022-04-12_19h32.43.533,hesp_baseline,2021.2.3,Win32,60.14675809
,,,,,,,,,,,,,,,,,köszlötök,köszöztök,right,9.4011,0,8,8,120,1,13,köszlik / köszözik,"köszlik, köszözni",tek,NA,"János imád köszözni, ezért sokat köszlik.",Ti ritkán...,köszlötök,köszöztök,cselekszik,-lik,1,PR2040,1978,nő,nem,2022-04-12_19h32.43.533,hesp_baseline,2021.2.3,Win32,60.14675809
,,,,,,,,,,,,,,,,,sprudozunk,sprudlunk,right,21.3822,0,9,9,136,1,29,sprudlik / sprudozik,"sprudlik, sprudozni",ünk,NA,"János imád sprudozni, ezért sokat sprudlik.",Mi ritkán...,sprudlunk,sprudozunk,cselekszik,-lik,1,PR2040,1978,nő,nem,2022-04-12_19h32.43.533,hesp_baseline,2021.2.3,Win32,60.14675809
,,,,,,,,,,,,,,,,,mísozunk,míslunk,right,5.4939,0,10,10,123,1,16,míslik / mísozik,"míslik, mísozni",ünk,NA,"János imád mísozni, ezért sokat míslik.",Mi ritkán...,míslunk,mísozunk,cselekszik,-lik,1,PR2040,1978,nő,nem,2022-04-12_19h32.43.533,hesp_baseline,2021.2.3,Win32,60.14675809
,,,,,,,,,,,,,,,,,marzok,marzom,right,5.3947,0,11,11,99,1,46,marzik,marzol,NA,NA,Te bizony sokat marzol.,Én is sokat...,marzok,marzom,lakik,-zik,1,PR2040,1978,nő,nem,2022-04-12_19h32.43.533,hesp_baseline,2021.2.3,Win32,60.14675809
,,,,,,,,,,,,,,,,,vodépnak,vodépnek,right,5.8263,0,12,12,41,1,42,vodép,vodép,nak,é,Ez itt egy vodép.,Elneveztem a kutyámat...,vodépnek,vodépnak,dzsungel,NA,NA,PR2040,1978,nő,nem,2022-04-12_19h32.43.533,hesp_baseline,2021.2.3,Win32,60.14675809
,,,,,,,,,,,,,,,,,galárzanak,galároznak,right,7.8023,0,13,13,154,1,47,galárzik / galározik,"galárzik, galározni",nek,NA,"János imád galározni, ezért sokat galárzik.",Ők ritkán...,galárzanak,galároznak,cselekszik,-zik,2,PR2040,1978,nő,nem,2022-04-12_19h32.43.533,hesp_baseline,2021.2.3,Win32,60.14675809
,,,,,,,,,,,,,,,,,jurozunk,jurlunk,right,8.1856,0,14,14,111,1,4,jurlik / jurozik,"jurlik, jurozni",ünk,NA,"János imád jurozni, ezért sokat jurlik.",Mi ritkán...,jurlunk,jurozunk,cselekszik,-lik,1,PR2040,1978,nő,nem,2022-04-12_19h32.43.533,hesp_baseline,2021.2.3,Win32,60.14675809
,,,,,,,,,,,,,,,,,píjlok,píjlom,left,5.6052,0,15,15,75,1,22,píjlik,píjlasz,NA,NA,Te bizony sokat píjlasz.,Én is sokat...,píjlok,píjlom,lakik,-lik,1,PR2040,1978,nő,nem,2022-04-12_19h32.43.533,hesp_baseline,2021.2.3,Win32,60.14675809
,,,,,,,,,,,,,,,,,rokszok,rokszom,right,5.5597,0,16,16,101,1,48,rokszik,rokszol,NA,NA,Te bizony sokat rokszol.,Én is sokat...,rokszok,rokszom,lakik,-szik,1,PR2040,1978,nő,nem,2022-04-12_19h32.43.533,hesp_baseline,2021.2.3,Win32,60.14675809
,,,,,,,,,,,,,,,,,frágapszom,frágapszok,left,6.8027,0,17,17,60,1,7,frágapszik,frágapszol,NA,NA,Te bizony sokat frágapszol.,Én is sokat...,frágapszok,frágapszom,lakik,-szik,2,PR2040,1978,nő,nem,2022-04-12_19h32.43.533,hesp_baseline,2021.2.3,Win32,60.14675809
,,,,,,,,,,,,,,,,,kadérnál,kadérnél,left,6.1329,0,18,18,7,1,8,kadér,kadér,nál,é,Ez itt egy kadér.,Nincs is jobb egy jó...,kadérnél,kadérnál,dzsungel,NA,NA,PR2040,1978,nő,nem,2022-04-12_19h32.43.533,hesp_baseline,2021.2.3,Win32,60.14675809
,,,,,,,,,,,,,,,,,darhénben,darhénban,right,6.1953,0,19,19,27,1,28,darhén,darhén,ban,é,Ez itt egy darhén.,Ott vagyunk a...,darhénben,darhénban,dzsungel,NA,NA,PR2040,1978,nő,nem,2022-04-12_19h32.43.533,hesp_baseline,2021.2.3,Win32,60.14675809
,,,,,,,,,,,,,,,,,pörzötök,pöröztök,right,6.5404,0,20,20,153,1,46,pörzik / pörözik,"pörzik, pörözni",tek,NA,"János imád pörözni, ezért sokat pörzik.",Ti ritkán...,pörzötök,pöröztök,cselekszik,-zik,1,PR2040,1978,nő,nem,2022-04-12_19h32.43.533,hesp_baseline,2021.2.3,Win32,60.14675809
,,,,,,,,,,,,,,,,,spatszom,spatszok,left,4.6332,0,21,21,73,1,20,spatszik,spatszol,NA,NA,Te bizony sokat spatszol.,Én is sokat...,spatszok,spatszom,lakik,-szik,1,PR2040,1978,nő,nem,2022-04-12_19h32.43.533,hesp_baseline,2021.2.3,Win32,60.14675809
,,,,,,,,,,,,,,,,,gihejezünk,gihejlünk,right,6.1499,0,22,22,146,1,39,gihejlik / gihejezik,"gihejlik, gihejezni",ünk,NA,"János imád gihejezni, ezért sokat gihejlik.",Mi ritkán...,gihejlünk,gihejezünk,cselekszik,-lik,2,PR2040,1978,nő,nem,2022-04-12_19h32.43.533,hesp_baseline,2021.2.3,Win32,60.14675809
,,,,,,,,,,,,,,,,,föködnek,fökszenek,right,9.043,0,23,23,131,1,24,fökszik / föködik,"fökszik, föködni",nek,NA,"János imád föködni, ezért sokat fökszik.",Ők ritkán...,fökszenek,föködnek,cselekszik,-szik,1,PR2040,1978,nő,nem,2022-04-12_19h32.43.533,hesp_baseline,2021.2.3,Win32,60.14675809
,,,,,,,,,,,,,,,,,püzlötök,püzöztök,left,5.6092,0,24,24,152,1,45,püzlik / püzözik,"püzlik, püzözni",tek,NA,"János imád püzözni, ezért sokat püzlik.",Ti ritkán...,püzlötök,püzöztök,cselekszik,-lik,1,PR2040,1978,nő,nem,2022-04-12_19h32.43.533,hesp_baseline,2021.2.3,Win32,60.14675809
,,,,,,,,,,,,,,,,,jorzégnek,jorzégnak,right,7.1073,0,25,25,45,1,46,jorzég,jorzég,nak,é,Ez itt egy jorzég.,Elneveztem a kutyámat...,jorzégnek,jorzégnak,dzsungel,NA,NA,PR2040,1978,nő,nem,2022-04-12_19h32.43.533,hesp_baseline,2021.2.3,Win32,60.14675809
,,,,,,,,,,,,,,,,,frinyozunk,frinylunk,right,4.73,0,26,26,133,1,26,frinylik / frinyozik,"frinylik, frinyozni",ünk,NA,"János imád frinyozni, ezért sokat frinylik.",Mi ritkán...,frinylunk,frinyozunk,cselekszik,-lik,1,PR2040,1978,nő,nem,2022-04-12_19h32.43.533,hesp_baseline,2021.2.3,Win32,60.14675809
,,,,,,,,,,,,,,,,,brubzok,brubzom,right,7.9731,0,27,27,92,1,39,brubzik,brubzol,NA,NA,Te bizony sokat brubzol.,Én is sokat...,brubzok,brubzom,lakik,-zik,1,PR2040,1978,nő,nem,2022-04-12_19h32.43.533,hesp_baseline,2021.2.3,Win32,60.14675809
,,,,,,,,,,,,,,,,,filágzok,filágzom,right,13.686,0,28,28,102,1,49,filágzik,filágzol,NA,NA,Te bizony sokat filágzol.,Én is sokat...,filágzok,filágzom,lakik,-zik,2,PR2040,1978,nő,nem,2022-04-12_19h32.43.533,hesp_baseline,2021.2.3,Win32,60.14675809
,,,,,,,,,,,,,,,,,diránylanak,dirányoznak,left,8.0917,0,29,29,122,1,15,diránylik / dirányozik,"diránylik, dirányozni",nek,NA,"János imád dirányozni, ezért sokat diránylik.",Ők ritkán...,diránylanak,dirányoznak,cselekszik,-lik,2,PR2040,1978,nő,nem,2022-04-12_19h32.43.533,hesp_baseline,2021.2.3,Win32,60.14675809
,,,,,,,,,,,,,,,,,priszkencnak,priszkencnek,right,9.3394,0,30,30,20,1,21,priszkenc,priszkenc,nak,e,Ez itt egy priszkenc.,Elneveztem a kutyámat...,priszkencnek,priszkencnak,dzsungel,NA,NA,PR2040,1978,nő,nem,2022-04-12_19h32.43.533,hesp_baseline,2021.2.3,Win32,60.14675809
,,,,,,,,,,,,,,,,,flivegeznek,flivegzenek,right,10.247,0,31,31,138,1,31,flivegzik / flivegezik,"flivegzik, flivegezni",nek,NA,"János imád flivegezni, ezért sokat flivegzik.",Ők ritkán...,flivegzenek,flivegeznek,cselekszik,-zik,2,PR2040,1978,nő,nem,2022-04-12_19h32.43.533,hesp_baseline,2021.2.3,Win32,60.14675809
,,,,,,,,,,,,,,,,,hilarzom,hilarzok,left,4.063,0,32,32,69,1,16,hilarzik,hilarzol,NA,NA,Te bizony sokat hilarzol.,Én is sokat...,hilarzok,hilarzom,lakik,-zik,2,PR2040,1978,nő,nem,2022-04-12_19h32.43.533,hesp_baseline,2021.2.3,Win32,60.14675809
,,,,,,,,,,,,,,,,,tarhézben,tarhézban,right,22.9722,0,33,33,25,1,26,tarhéz,tarhéz,ban,é,Ez itt egy tarhéz.,Ott vagyunk a...,tarhézben,tarhézban,dzsungel,NA,NA,PR2040,1978,nő,nem,2022-04-12_19h32.43.533,hesp_baseline,2021.2.3,Win32,60.14675809
,,,,,,,,,,,,,,,,,ibáglok,ibáglom,right,31.2313,0,34,34,88,1,35,ibáglik,ibáglasz,NA,NA,Te bizony sokat ibáglasz.,Én is sokat...,ibáglok,ibáglom,lakik,-lik,2,PR2040,1978,nő,nem,2022-04-12_19h32.43.533,hesp_baseline,2021.2.3,Win32,60.14675809
,,,,,,,,,,,,,,,,,bribaslanak,bribasoznak,left,13.8763,0,35,35,121,1,14,bribaslik / bribasozik,"bribaslik, bribasozni",nek,NA,"János imád bribasozni, ezért sokat bribaslik.",Ők ritkán...,bribaslanak,bribasoznak,cselekszik,-lik,2,PR2040,1978,nő,nem,2022-04-12_19h32.43.533,hesp_baseline,2021.2.3,Win32,60.14675809
,,,,,,,,,,,,,,,,,pekszünk,pekedünk,right,18.9051,0,36,36,161,1,54,pekszik / pekedik,"pekszik, pekedni",ünk,NA,"János imád pekedni, ezért sokat pekszik.",Mi ritkán...,pekszünk,pekedünk,cselekszik,-szik,1,PR2040,1978,nő,nem,2022-04-12_19h32.43.533,hesp_baseline,2021.2.3,Win32,60.14675809
,,,,,,,,,,,,,,,,,klordénynek,klordénynak,right,8.9252,0,37,37,9,1,10,klordény,klordény,nak,é,Ez itt egy klordény.,Elneveztem a kutyámat...,klordénynek,klordénynak,dzsungel,NA,NA,PR2040,1978,nő,nem,2022-04-12_19h32.43.533,hesp_baseline,2021.2.3,Win32,60.14675809
,,,,,,,,,,,,,,,,,vülődzöm,vülődzök,left,7.6315,0,38,38,81,1,28,vülődzik,vülődzöl,NA,NA,Te bizony sokat vülődzöl.,Én is sokat...,vülődzök,vülődzöm,lakik,-zik,2,PR2040,1978,nő,nem,2022-04-12_19h32.43.533,hesp_baseline,2021.2.3,Win32,60.14675809
,,,,,,,,,,,,,,,,,pivédben,pivédban,left,5.1397,0,39,39,52,1,53,pivéd,pivéd,ban,é,Ez itt egy pivéd.,Ott vagyunk a...,pivédben,pivédban,dzsungel,NA,NA,PR2040,1978,nő,nem,2022-04-12_19h32.43.533,hesp_baseline,2021.2.3,Win32,60.14675809
,,,,,,,,,,,,,,,,,brivaklotok,brivakoztok,right,9.5142,0,40,40,134,1,27,brivaklik / brivakozik,"brivaklik, brivakozni",tek,NA,"János imád brivakozni, ezért sokat brivaklik.",Ti ritkán...,brivaklotok,brivakoztok,cselekszik,-lik,2,PR2040,1978,nő,nem,2022-04-12_19h32.43.533,hesp_baseline,2021.2.3,Win32,60.14675809
,,,,,,,,,,,,,,,,,naremben,naremban,left,3.9356,0,41,41,2,1,3,narem,narem,ban,e,Ez itt egy narem.,Ott vagyunk a...,naremben,naremban,dzsungel,NA,NA,PR2040,1978,nő,nem,2022-04-12_19h32.43.533,hesp_baseline,2021.2.3,Win32,60.14675809
,,,,,,,,,,,,,,,,,spéslem,spéslek,right,14.1686,0,42,42,93,1,40,spéslik,spéslesz,NA,NA,Te bizony sokat spéslesz.,Én is sokat...,spéslek,spéslem,lakik,-lik,1,PR2040,1978,nő,nem,2022-04-12_19h32.43.533,hesp_baseline,2021.2.3,Win32,60.14675809
,,,,,,,,,,,,,,,,,herégszek,herégszem,right,6.1139,0,43,43,54,1,1,herégszik,herégszel,NA,NA,Te bizony sokat herégszel.,Én is sokat...,herégszek,herégszem,lakik,-szik,2,PR2040,1978,nő,nem,2022-04-12_19h32.43.533,hesp_baseline,2021.2.3,Win32,60.14675809
,,,,,,,,,,,,,,,,,sprimozunk,sprimlunk,left,23.6475,0,44,44,127,1,20,sprimlik / sprimozik,"sprimlik, sprimozni",ünk,NA,"János imád sprimozni, ezért sokat sprimlik.",Mi ritkán...,sprimlunk,sprimozunk,cselekszik,-lik,1,PR2040,1978,nő,nem,2022-04-12_19h32.43.533,hesp_baseline,2021.2.3,Win32,60.14675809
,,,,,,,,,,,,,,,,,hiragzanak,hiragoznak,left,11.2627,0,45,45,119,1,12,hiragzik / hiragozik,"hiragzik, hiragozni",nek,NA,"János imád hiragozni, ezért sokat hiragzik.",Ők ritkán...,hiragzanak,hiragoznak,cselekszik,-zik,2,PR2040,1978,nő,nem,2022-04-12_19h32.43.533,hesp_baseline,2021.2.3,Win32,60.14675809
,,,,,,,,,,,,,,,,,nyivágozunk,nyivágzunk,right,11.9337,0,46,46,113,1,6,nyivágzik / nyivágozik,"nyivágzik, nyivágozni",ünk,NA,"János imád nyivágozni, ezért sokat nyivágzik.",Mi ritkán...,nyivágzunk,nyivágozunk,cselekszik,-zik,2,PR2040,1978,nő,nem,2022-04-12_19h32.43.533,hesp_baseline,2021.2.3,Win32,60.14675809
,,,,,,,,,,,,,,,,,plűbzök,plűbzöm,right,4.7889,0,47,47,107,1,54,plűbzik,plűbzöl,NA,NA,Te bizony sokat plűbzöl.,Én is sokat...,plűbzök,plűbzöm,lakik,-zik,1,PR2040,1978,nő,nem,2022-04-12_19h32.43.533,hesp_baseline,2021.2.3,Win32,60.14675809
,,,,,,,,,,,,,,,,,frihegezünk,friheglünk,left,18.52,0,48,48,132,1,25,friheglik / frihegezik,"friheglik, frihegezni",ünk,NA,"János imád frihegezni, ezért sokat friheglik.",Mi ritkán...,friheglünk,frihegezünk,cselekszik,-lik,2,PR2040,1978,nő,nem,2022-04-12_19h32.43.533,hesp_baseline,2021.2.3,Win32,60.14675809
,,,,,,,,,,,,,,,,,hijegynál,hijegynél,right,3.4717,0,49,49,4,1,5,hijegy,hijegy,nál,e,Ez itt egy hijegy.,Nincs is jobb egy jó...,hijegynél,hijegynál,dzsungel,NA,NA,PR2040,1978,nő,nem,2022-04-12_19h32.43.533,hesp_baseline,2021.2.3,Win32,60.14675809
,,,,,,,,,,,,,,,,,tránélynek,tránélynak,right,3.8025,0,50,50,17,1,18,tránély,tránély,nak,é,Ez itt egy tránély.,Elneveztem a kutyámat...,tránélynek,tránélynak,dzsungel,NA,NA,PR2040,1978,nő,nem,2022-04-12_19h32.43.533,hesp_baseline,2021.2.3,Win32,60.14675809
,,,,,,,,,,,,,,,,,csublényban,csublényben,left,4.095,0,51,51,16,1,17,csublény,csublény,ban,é,Ez itt egy csublény.,Ott vagyunk a...,csublényben,csublényban,dzsungel,NA,NA,PR2040,1978,nő,nem,2022-04-12_19h32.43.533,hesp_baseline,2021.2.3,Win32,60.14675809
,,,,,,,,,,,,,,,,,privékednek,privékszenek,right,8.233,0,52,52,149,1,42,privékszik / privékedik,"privékszik, privékedni",nek,NA,"János imád privékedni, ezért sokat privékszik.",Ők ritkán...,privékszenek,privékednek,cselekszik,-szik,2,PR2040,1978,nő,nem,2022-04-12_19h32.43.533,hesp_baseline,2021.2.3,Win32,60.14675809
,,,,,,,,,,,,,,,,,spivejlenek,spivejeznek,left,9.8016,0,53,53,125,1,18,spivejlik / spivejezik,"spivejlik, spivejezni",nek,NA,"János imád spivejezni, ezért sokat spivejlik.",Ők ritkán...,spivejlenek,spivejeznek,cselekszik,-lik,2,PR2040,1978,nő,nem,2022-04-12_19h32.43.533,hesp_baseline,2021.2.3,Win32,60.14675809
,,,,,,,,,,,,,,,,,pugoslok,pugoslom,right,5.3923,0,54,54,84,1,31,pugoslik,pugoslasz,NA,NA,Te bizony sokat pugoslasz.,Én is sokat...,pugoslok,pugoslom,lakik,-lik,2,PR2040,1978,nő,nem,2022-04-12_19h32.43.533,hesp_baseline,2021.2.3,Win32,60.14675809
,,,,,,,,,,,,,,,,,frélegezünk,frélegzünk,right,11.76,0,55,55,147,1,40,frélegzik / frélegezik,"frélegzik, frélegezni",ünk,NA,"János imád frélegezni, ezért sokat frélegzik.",Mi ritkán...,frélegzünk,frélegezünk,cselekszik,-zik,2,PR2040,1978,nő,nem,2022-04-12_19h32.43.533,hesp_baseline,2021.2.3,Win32,60.14675809
,,,,,,,,,,,,,,,,,gonszéknál,gonszéknél,left,3.5704,0,56,56,38,1,39,gonszék,gonszék,nál,é,Ez itt egy gonszék.,Nincs is jobb egy jó...,gonszéknél,gonszéknál,dzsungel,NA,NA,PR2040,1978,nő,nem,2022-04-12_19h32.43.533,hesp_baseline,2021.2.3,Win32,60.14675809
,,,,,,,,,,,,,,,,,klörlöm,klörlök,left,5.7915,0,57,57,80,1,27,klörlik,klörlesz,NA,NA,Te bizony sokat klörlesz.,Én is sokat...,klörlök,klörlöm,lakik,-lik,1,PR2040,1978,nő,nem,2022-04-12_19h32.43.533,hesp_baseline,2021.2.3,Win32,60.14675809
,,,,,,,,,,,,,,,,,kliszernál,kliszernél,right,3.957,0,58,58,31,1,32,kliszer,kliszer,nál,e,Ez itt egy kliszer.,Nincs is jobb egy jó...,kliszernél,kliszernál,dzsungel,NA,NA,PR2040,1978,nő,nem,2022-04-12_19h32.43.533,hesp_baseline,2021.2.3,Win32,60.14675809
,,,,,,,,,,,,,,,,,priszecban,priszecben,right,4.2718,0,59,59,15,1,16,priszec,priszec,ban,e,Ez itt egy priszec.,Ott vagyunk a...,priszecben,priszecban,dzsungel,NA,NA,PR2040,1978,nő,nem,2022-04-12_19h32.43.533,hesp_baseline,2021.2.3,Win32,60.14675809
,,,,,,,,,,,,,,,,,brülösözünk,brülöslünk,left,12.0284,0,60,60,109,1,2,brülöslik / brülösözik,"brülöslik, brülösözni",ünk,NA,"János imád brülösözni, ezért sokat brülöslik.",Mi ritkán...,brülöslünk,brülösözünk,cselekszik,-lik,2,PR2040,1978,nő,nem,2022-04-12_19h32.43.533,hesp_baseline,2021.2.3,Win32,60.14675809
,,,,,,,,,,,,,,,,,jalrénynál,jalrénynél,left,4.1936,0,61,61,0,1,1,jalrény,jalrény,nál,é,Ez itt egy jalrény.,Nincs is jobb egy jó...,jalrénynél,jalrénynál,dzsungel,NA,NA,PR2040,1978,nő,nem,2022-04-12_19h32.43.533,hesp_baseline,2021.2.3,Win32,60.14675809
,,,,,,,,,,,,,,,,,trihagzom,trihagzok,left,3.9284,0,62,62,83,1,30,trihagzik,trihagzol,NA,NA,Te bizony sokat trihagzol.,Én is sokat...,trihagzok,trihagzom,lakik,-zik,2,PR2040,1978,nő,nem,2022-04-12_19h32.43.533,hesp_baseline,2021.2.3,Win32,60.14675809
,,,,,,,,,,,,,,,,,bötőrözünk,bötőrzünk,left,5.2972,0,63,63,158,1,51,bötőrzik / bötőrözik,"bötőrzik, bötőrözni",ünk,NA,"János imád bötőrözni, ezért sokat bötőrzik.",Mi ritkán...,bötőrzünk,bötőrözünk,cselekszik,-zik,2,PR2040,1978,nő,nem,2022-04-12_19h32.43.533,hesp_baseline,2021.2.3,Win32,60.14675809
,,,,,,,,,,,,,,,,,flehénylek,flehénylem,right,10.334,0,64,64,106,1,53,flehénylik,flehénylesz,NA,NA,Te bizony sokat flehénylesz.,Én is sokat...,flehénylek,flehénylem,lakik,-lik,2,PR2040,1978,nő,nem,2022-04-12_19h32.43.533,hesp_baseline,2021.2.3,Win32,60.14675809
,,,,,,,,,,,,,,,,,géregletek,géregeztek,right,6.9304,0,65,65,124,1,17,géreglik / géregezik,"géreglik, géregezni",tek,NA,"János imád géregezni, ezért sokat géreglik.",Ti ritkán...,géregletek,géregeztek,cselekszik,-lik,2,PR2040,1978,nő,nem,2022-04-12_19h32.43.533,hesp_baseline,2021.2.3,Win32,60.14675809
,,,,,,,,,,,,,,,,,vismernél,vismernál,left,3.1743,0,66,66,13,1,14,vismer,vismer,nál,e,Ez itt egy vismer.,Nincs is jobb egy jó...,vismernél,vismernál,dzsungel,NA,NA,PR2040,1978,nő,nem,2022-04-12_19h32.43.533,hesp_baseline,2021.2.3,Win32,60.14675809
,,,,,,,,,,,,,,,,,spibaklok,spibaklom,right,3.9536,0,67,67,55,1,2,spibaklik,spibaklasz,NA,NA,Te bizony sokat spibaklasz.,Én is sokat...,spibaklok,spibaklom,lakik,-lik,2,PR2040,1978,nő,nem,2022-04-12_19h32.43.533,hesp_baseline,2021.2.3,Win32,60.14675809
,,,,,,,,,,,,,,,,,csarténynek,csarténynak,left,5.3111,0,68,68,36,1,37,csartény,csartény,nak,é,Ez itt egy csartény.,Elneveztem a kutyámat...,csarténynek,csarténynak,dzsungel,NA,NA,PR2040,1978,nő,nem,2022-04-12_19h32.43.533,hesp_baseline,2021.2.3,Win32,60.14675809
,,,,,,,,,,,,,,,,,trukszotok,trukodtok,right,10.1479,0,69,69,157,1,50,trukszik / trukodik,"trukszik, trukodni",tek,NA,"János imád trukodni, ezért sokat trukszik.",Ti ritkán...,trukszotok,trukodtok,cselekszik,-szik,1,PR2040,1978,nő,nem,2022-04-12_19h32.43.533,hesp_baseline,2021.2.3,Win32,60.14675809
,,,,,,,,,,,,,,,,,sztremlek,sztremlem,left,8.0181,0,70,70,95,1,42,sztremlik,sztremlesz,NA,NA,Te bizony sokat sztremlesz.,Én is sokat...,sztremlek,sztremlem,lakik,-lik,1,PR2040,1978,nő,nem,2022-04-12_19h32.43.533,hesp_baseline,2021.2.3,Win32,60.14675809
,,,,,,,,,,,,,,,,,tivencben,tivencban,left,3.4497,0,71,71,53,1,54,tivenc,tivenc,ban,e,Ez itt egy tivenc.,Ott vagyunk a...,tivencben,tivencban,dzsungel,NA,NA,PR2040,1978,nő,nem,2022-04-12_19h32.43.533,hesp_baseline,2021.2.3,Win32,60.14675809
,,,,,,,,,,,,,,,,,fágyépnál,fágyépnél,left,6.7293,0,72,72,10,1,11,fágyép,fágyép,nál,é,Ez itt egy fágyép.,Nincs is jobb egy jó...,fágyépnél,fágyépnál,dzsungel,NA,NA,PR2040,1978,nő,nem,2022-04-12_19h32.43.533,hesp_baseline,2021.2.3,Win32,60.14675809
,,,,,,,,,,,,,,,,,brüszöztök,brüszlötök,left,5.9458,0,73,73,130,1,23,brüszlik / brüszözik,"brüszlik, brüszözni",tek,NA,"János imád brüszözni, ezért sokat brüszlik.",Ti ritkán...,brüszlötök,brüszöztök,cselekszik,-lik,1,PR2040,1978,nő,nem,2022-04-12_19h32.43.533,hesp_baseline,2021.2.3,Win32,60.14675809
,,,,,,,,,,,,,,,,,bügöznek,bügzenek,right,4.9888,0,74,74,118,1,11,bügzik / bügözik,"bügzik, bügözni",nek,NA,"János imád bügözni, ezért sokat bügzik.",Ők ritkán...,bügzenek,bügöznek,cselekszik,-zik,1,PR2040,1978,nő,nem,2022-04-12_19h32.43.533,hesp_baseline,2021.2.3,Win32,60.14675809
,,,,,,,,,,,,,,,,,brarlom,brarlok,right,5.8921,0,75,75,71,1,18,brarlik,brarlasz,NA,NA,Te bizony sokat brarlasz.,Én is sokat...,brarlok,brarlom,lakik,-lik,1,PR2040,1978,nő,nem,2022-04-12_19h32.43.533,hesp_baseline,2021.2.3,Win32,60.14675809
,,,,,,,,,,,,,,,,,incéjnak,incéjnek,right,2.7388,0,76,76,30,1,31,incéj,incéj,nak,é,Ez itt egy incéj.,Elneveztem a kutyámat...,incéjnek,incéjnak,dzsungel,NA,NA,PR2040,1978,nő,nem,2022-04-12_19h32.43.533,hesp_baseline,2021.2.3,Win32,60.14675809
,,,,,,,,,,,,,,,,,vanylok,vanylom,right,2.4958,0,77,77,61,1,8,vanylik,vanylasz,NA,NA,Te bizony sokat vanylasz.,Én is sokat...,vanylok,vanylom,lakik,-lik,1,PR2040,1978,nő,nem,2022-04-12_19h32.43.533,hesp_baseline,2021.2.3,Win32,60.14675809
,,,,,,,,,,,,,,,,,buhényban,buhényben,right,2.9625,0,78,78,43,1,44,buhény,buhény,ban,é,Ez itt egy buhény.,Ott vagyunk a...,buhényben,buhényban,dzsungel,NA,NA,PR2040,1978,nő,nem,2022-04-12_19h32.43.533,hesp_baseline,2021.2.3,Win32,60.14675809
,,,,,,,,,,,,,,,,,préleglek,préleglem,right,6.7356,0,79,79,104,1,51,préleglik,préleglesz,NA,NA,Te bizony sokat préleglesz.,Én is sokat...,préleglek,préleglem,lakik,-lik,2,PR2040,1978,nő,nem,2022-04-12_19h32.43.533,hesp_baseline,2021.2.3,Win32,60.14675809
,,,,,,,,,,,,,,,,,tragzok,tragzom,right,2.3412,0,80,80,90,1,37,tragzik,tragzol,NA,NA,Te bizony sokat tragzol.,Én is sokat...,tragzok,tragzom,lakik,-zik,1,PR2040,1978,nő,nem,2022-04-12_19h32.43.533,hesp_baseline,2021.2.3,Win32,60.14675809
,,,,,,,,,,,,,,,,,sztrajoznak,sztrajlanak,right,7.8232,0,81,81,144,1,37,sztrajlik / sztrajozik,"sztrajlik, sztrajozni",nek,NA,"János imád sztrajozni, ezért sokat sztrajlik.",Ők ritkán...,sztrajlanak,sztrajoznak,cselekszik,-lik,1,PR2040,1978,nő,nem,2022-04-12_19h32.43.533,hesp_baseline,2021.2.3,Win32,60.14675809
,,,,,,,,,,,,,,,,,spilágzom,spilágzok,left,3.9848,0,82,82,76,1,23,spilágzik,spilágzol,NA,NA,Te bizony sokat spilágzol.,Én is sokat...,spilágzok,spilágzom,lakik,-zik,2,PR2040,1978,nő,nem,2022-04-12_19h32.43.533,hesp_baseline,2021.2.3,Win32,60.14675809
,,,,,,,,,,,,,,,,,prilegzek,prilegzem,right,3.5466,0,83,83,79,1,26,prilegzik,prilegzel,NA,NA,Te bizony sokat prilegzel.,Én is sokat...,prilegzek,prilegzem,lakik,-zik,2,PR2040,1978,nő,nem,2022-04-12_19h32.43.533,hesp_baseline,2021.2.3,Win32,60.14675809
,,,,,,,,,,,,,,,,,nyizlunk,nyizozunk,right,6.2015,0,84,84,135,1,28,nyizlik / nyizozik,"nyizlik, nyizozni",ünk,NA,"János imád nyizozni, ezért sokat nyizlik.",Mi ritkán...,nyizlunk,nyizozunk,cselekszik,-lik,1,PR2040,1978,nő,nem,2022-04-12_19h32.43.533,hesp_baseline,2021.2.3,Win32,60.14675809
,,,,,,,,,,,,,,,,,drügzöm,drügzök,left,4.3746,0,85,85,72,1,19,drügzik,drügzöl,NA,NA,Te bizony sokat drügzöl.,Én is sokat...,drügzök,drügzöm,lakik,-zik,1,PR2040,1978,nő,nem,2022-04-12_19h32.43.533,hesp_baseline,2021.2.3,Win32,60.14675809
,,,,,,,,,,,,,,,,,aglom,aglok,left,3.7979,0,86,86,100,1,47,aglik,aglasz,NA,NA,Te bizony sokat aglasz.,Én is sokat...,aglok,aglom,lakik,-lik,1,PR2040,1978,nő,nem,2022-04-12_19h32.43.533,hesp_baseline,2021.2.3,Win32,60.14675809
,,,,,,,,,,,,,,,,,plibzotok,pliboztok,right,6.723,0,87,87,140,1,33,plibzik / plibozik,"plibzik, plibozni",tek,NA,"János imád plibozni, ezért sokat plibzik.",Ti ritkán...,plibzotok,pliboztok,cselekszik,-zik,1,PR2040,1978,nő,nem,2022-04-12_19h32.43.533,hesp_baseline,2021.2.3,Win32,60.14675809
,,,,,,,,,,,,,,,,,brobódzok,brobódzom,right,4.3135,0,88,88,96,1,43,brobódzik,brobódzol,NA,NA,Te bizony sokat brobódzol.,Én is sokat...,brobódzok,brobódzom,lakik,-zik,2,PR2040,1978,nő,nem,2022-04-12_19h32.43.533,hesp_baseline,2021.2.3,Win32,60.14675809
,,,,,,,,,,,,,,,,,spűmlök,spűmlöm,right,4.2652,0,89,89,86,1,33,spűmlik,spűmlesz,NA,NA,Te bizony sokat spűmlesz.,Én is sokat...,spűmlök,spűmlöm,lakik,-lik,1,PR2040,1978,nő,nem,2022-04-12_19h32.43.533,hesp_baseline,2021.2.3,Win32,60.14675809
,,,,,,,,,,,,,,,,,narádzom,narádzok,left,4.8508,0,90,90,63,1,10,narádzik,narádzol,NA,NA,Te bizony sokat narádzol.,Én is sokat...,narádzok,narádzom,lakik,-zik,2,PR2040,1978,nő,nem,2022-04-12_19h32.43.533,hesp_baseline,2021.2.3,Win32,60.14675809
,,,,,,,,,,,,,,,,,dunkészben,dunkészban,left,3.7529,0,91,91,24,1,25,dunkész,dunkész,ban,é,Ez itt egy dunkész.,Ott vagyunk a...,dunkészben,dunkészban,dzsungel,NA,NA,PR2040,1978,nő,nem,2022-04-12_19h32.43.533,hesp_baseline,2021.2.3,Win32,60.14675809
,,,,,,,,,,,,,,,,,jüslök,jüslöm,right,2.5645,0,92,92,56,1,3,jüslik,jüslesz,NA,NA,Te bizony sokat jüslesz.,Én is sokat...,jüslök,jüslöm,lakik,-lik,1,PR2040,1978,nő,nem,2022-04-12_19h32.43.533,hesp_baseline,2021.2.3,Win32,60.14675809
,,,,,,,,,,,,,,,,,szibedben,szibedban,left,3.9158,0,93,93,47,1,48,szibed,szibed,ban,e,Ez itt egy szibed.,Ott vagyunk a...,szibedben,szibedban,dzsungel,NA,NA,PR2040,1978,nő,nem,2022-04-12_19h32.43.533,hesp_baseline,2021.2.3,Win32,60.14675809
,,,,,,,,,,,,,,,,,fádensnak,fádensnek,right,2.8311,0,94,94,33,1,34,fádens,fádens,nak,e,Ez itt egy fádens.,Elneveztem a kutyámat...,fádensnek,fádensnak,dzsungel,NA,NA,PR2040,1978,nő,nem,2022-04-12_19h32.43.533,hesp_baseline,2021.2.3,Win32,60.14675809
,,,,,,,,,,,,,,,,,szibánylom,szibánylok,left,4.8484,0,95,95,67,1,14,szibánylik,szibánylasz,NA,NA,Te bizony sokat szibánylasz.,Én is sokat...,szibánylok,szibánylom,lakik,-lik,2,PR2040,1978,nő,nem,2022-04-12_19h32.43.533,hesp_baseline,2021.2.3,Win32,60.14675809
,,,,,,,,,,,,,,,,,klaráglom,klaráglok,left,5.5435,0,96,96,91,1,38,klaráglik,klaráglasz,NA,NA,Te bizony sokat klaráglasz.,Én is sokat...,klaráglok,klaráglom,lakik,-lik,2,PR2040,1978,nő,nem,2022-04-12_19h32.43.533,hesp_baseline,2021.2.3,Win32,60.14675809
,,,,,,,,,,,,,,,,,brözlötök,brözöztök,right,6.1386,0,97,97,145,1,38,brözlik / brözözik,"brözlik, brözözni",tek,NA,"János imád brözözni, ezért sokat brözlik.",Ti ritkán...,brözlötök,brözöztök,cselekszik,-lik,1,PR2040,1978,nő,nem,2022-04-12_19h32.43.533,hesp_baseline,2021.2.3,Win32,60.14675809
,,,,,,,,,,,,,,,,,prögöztök,prögzötök,left,5.6948,0,98,98,151,1,44,prögzik / prögözik,"prögzik, prögözni",tek,NA,"János imád prögözni, ezért sokat prögzik.",Ti ritkán...,prögzötök,prögöztök,cselekszik,-zik,1,PR2040,1978,nő,nem,2022-04-12_19h32.43.533,hesp_baseline,2021.2.3,Win32,60.14675809
,,,,,,,,,,,,,,,,,bölszök,bölszöm,left,14.8959,0,99,99,105,1,52,bölszik,bölszöl,NA,NA,Te bizony sokat bölszöl.,Én is sokat...,bölszök,bölszöm,lakik,-szik,1,PR2040,1978,nő,nem,2022-04-12_19h32.43.533,hesp_baseline,2021.2.3,Win32,60.14675809
,,,,,,,,,,,,,,,,,hivépben,hivépban,left,2.814,0,100,100,44,1,45,hivép,hivép,ban,é,Ez itt egy hivép.,Ott vagyunk a...,hivépben,hivépban,dzsungel,NA,NA,PR2040,1978,nő,nem,2022-04-12_19h32.43.533,hesp_baseline,2021.2.3,Win32,60.14675809
,,,,,,,,,,,,,,,,,nyülöklenek,nyülököznek,left,8.6141,0,101,101,108,1,1,nyülöklik / nyülöközik,"nyülöklik, nyülöközni",nek,NA,"János imád nyülöközni, ezért sokat nyülöklik.",Ők ritkán...,nyülöklenek,nyülököznek,cselekszik,-lik,2,PR2040,1978,nő,nem,2022-04-12_19h32.43.533,hesp_baseline,2021.2.3,Win32,60.14675809
,,,,,,,,,,,,,,,,,spihemlek,spihemlem,left,5.9569,0,102,102,94,1,41,spihemlik,spihemlesz,NA,NA,Te bizony sokat spihemlesz.,Én is sokat...,spihemlek,spihemlem,lakik,-lik,2,PR2040,1978,nő,nem,2022-04-12_19h32.43.533,hesp_baseline,2021.2.3,Win32,60.14675809
,,,,,,,,,,,,,,,,,málapszom,málapszok,left,2.6592,0,103,103,66,1,13,málapszik,málapszol,NA,NA,Te bizony sokat málapszol.,Én is sokat...,málapszok,málapszom,lakik,-szik,2,PR2040,1978,nő,nem,2022-04-12_19h32.43.533,hesp_baseline,2021.2.3,Win32,60.14675809
,,,,,,,,,,,,,,,,,lumézben,lumézban,left,2.8466,0,104,104,32,1,33,luméz,luméz,ban,é,Ez itt egy luméz.,Ott vagyunk a...,lumézben,lumézban,dzsungel,NA,NA,PR2040,1978,nő,nem,2022-04-12_19h32.43.533,hesp_baseline,2021.2.3,Win32,60.14675809
,,,,,,,,,,,,,,,,,salárzom,salárzok,left,2.4717,0,105,105,103,1,50,salárzik,salárzol,NA,NA,Te bizony sokat salárzol.,Én is sokat...,salárzok,salárzom,lakik,-zik,2,PR2040,1978,nő,nem,2022-04-12_19h32.43.533,hesp_baseline,2021.2.3,Win32,60.14675809
,,,,,,,,,,,,,,,,,huklom,huklok,left,3.728,0,106,106,78,1,25,huklik,huklasz,NA,NA,Te bizony sokat huklasz.,Én is sokat...,huklok,huklom,lakik,-lik,1,PR2040,1978,nő,nem,2022-04-12_19h32.43.533,hesp_baseline,2021.2.3,Win32,60.14675809
,,,,,,,,,,,,,,,,,trodélyben,trodélyban,right,5.4383,0,107,107,28,1,29,trodély,trodély,ban,é,Ez itt egy trodély.,Ott vagyunk a...,trodélyben,trodélyban,dzsungel,NA,NA,PR2040,1978,nő,nem,2022-04-12_19h32.43.533,hesp_baseline,2021.2.3,Win32,60.14675809
,,,,,,,,,,,,,,,,,flözlöm,flözlök,left,3.4886,0,108,108,74,1,21,flözlik,flözlesz,NA,NA,Te bizony sokat flözlesz.,Én is sokat...,flözlök,flözlöm,lakik,-lik,1,PR2040,1978,nő,nem,2022-04-12_19h32.43.533,hesp_baseline,2021.2.3,Win32,60.14675809
,,,,,,,,,,,,,,,,,lörűdzöm,lörűdzök,left,6.0864,0,109,109,77,1,24,lörűdzik,lörűdzöl,NA,NA,Te bizony sokat lörűdzöl.,Én is sokat...,lörűdzök,lörűdzöm,lakik,-zik,2,PR2040,1978,nő,nem,2022-04-12_19h32.43.533,hesp_baseline,2021.2.3,Win32,60.14675809
,,,,,,,,,,,,,,,,,kalhésznek,kalhésznak,left,2.6752,0,110,110,46,1,47,kalhész,kalhész,nak,é,Ez itt egy kalhész.,Elneveztem a kutyámat...,kalhésznek,kalhésznak,dzsungel,NA,NA,PR2040,1978,nő,nem,2022-04-12_19h32.43.533,hesp_baseline,2021.2.3,Win32,60.14675809
,,,,,,,,,,,,,,,,,plövőrzöm,plövőrzök,left,2.8456,0,111,111,58,1,5,plövőrzik,plövőrzöl,NA,NA,Te bizony sokat plövőrzöl.,Én is sokat...,plövőrzök,plövőrzöm,lakik,-zik,2,PR2040,1978,nő,nem,2022-04-12_19h32.43.533,hesp_baseline,2021.2.3,Win32,60.14675809
,,,,,,,,,,,,,,,,,riványlotok,riványoztok,right,5.3538,0,112,112,117,1,10,riványlik / riványozik,"riványlik, riványozni",tek,NA,"János imád riványozni, ezért sokat riványlik.",Ti ritkán...,riványlotok,riványoztok,cselekszik,-lik,2,PR2040,1978,nő,nem,2022-04-12_19h32.43.533,hesp_baseline,2021.2.3,Win32,60.14675809
,,,,,,,,,,,,,,,,,hóbensben,hóbensban,left,4.8108,0,113,113,3,1,4,hóbens,hóbens,ban,e,Ez itt egy hóbens.,Ott vagyunk a...,hóbensben,hóbensban,dzsungel,NA,NA,PR2040,1978,nő,nem,2022-04-12_19h32.43.533,hesp_baseline,2021.2.3,Win32,60.14675809
,,,,,,,,,,,,,,,,,monvegnél,monvegnál,left,3.2445,0,114,114,26,1,27,monveg,monveg,nál,e,Ez itt egy monveg.,Nincs is jobb egy jó...,monvegnél,monvegnál,dzsungel,NA,NA,PR2040,1978,nő,nem,2022-04-12_19h32.43.533,hesp_baseline,2021.2.3,Win32,60.14675809
,,,,,,,,,,,,,,,,,sihennál,sihennél,right,3.9395,0,115,115,18,1,19,sihen,sihen,nál,e,Ez itt egy sihen.,Nincs is jobb egy jó...,sihennél,sihennál,dzsungel,NA,NA,PR2040,1978,nő,nem,2022-04-12_19h32.43.533,hesp_baseline,2021.2.3,Win32,60.14675809
,,,,,,,,,,,,,,,,,jutélynál,jutélynél,left,3.4784,0,116,116,11,1,12,jutély,jutély,nál,é,Ez itt egy jutély.,Nincs is jobb egy jó...,jutélynél,jutélynál,dzsungel,NA,NA,PR2040,1978,nő,nem,2022-04-12_19h32.43.533,hesp_baseline,2021.2.3,Win32,60.14675809
,,,,,,,,,,,,,,,,,pisélyben,pisélyban,right,2.6693,0,117,117,21,1,22,pisély,pisély,ban,é,Ez itt egy pisély.,Ott vagyunk a...,pisélyben,pisélyban,dzsungel,NA,NA,PR2040,1978,nő,nem,2022-04-12_19h32.43.533,hesp_baseline,2021.2.3,Win32,60.14675809
,,,,,,,,,,,,,,,,,frirozunk,frirzunk,left,6.3773,0,118,118,129,1,22,frirzik / frirozik,"frirzik, frirozni",ünk,NA,"János imád frirozni, ezért sokat frirzik.",Mi ritkán...,frirzunk,frirozunk,cselekszik,-zik,1,PR2040,1978,nő,nem,2022-04-12_19h32.43.533,hesp_baseline,2021.2.3,Win32,60.14675809
,,,,,,,,,,,,,,,,,gatágozunk,gatáglunk,left,3.6367,0,119,119,137,1,30,gatáglik / gatágozik,"gatáglik, gatágozni",ünk,NA,"János imád gatágozni, ezért sokat gatáglik.",Mi ritkán...,gatáglunk,gatágozunk,cselekszik,-lik,2,PR2040,1978,nő,nem,2022-04-12_19h32.43.533,hesp_baseline,2021.2.3,Win32,60.14675809
,,,,,,,,,,,,,,,,,küsözünk,küslünk,left,4.0092,0,120,120,141,1,34,küslik / küsözik,"küslik, küsözni",ünk,NA,"János imád küsözni, ezért sokat küslik.",Mi ritkán...,küslünk,küsözünk,cselekszik,-lik,1,PR2040,1978,nő,nem,2022-04-12_19h32.43.533,hesp_baseline,2021.2.3,Win32,60.14675809
,,,,,,,,,,,,,,,,,breseznek,breslenek,right,5.682,0,121,121,115,1,8,breslik / bresezik,"breslik, bresezni",nek,NA,"János imád bresezni, ezért sokat breslik.",Ők ritkán...,breslenek,breseznek,cselekszik,-lik,1,PR2040,1978,nő,nem,2022-04-12_19h32.43.533,hesp_baseline,2021.2.3,Win32,60.14675809
,,,,,,,,,,,,,,,,,klihasoztok,klihaslotok,left,12.82,0,122,122,156,1,49,klihaslik / klihasozik,"klihaslik, klihasozni",tek,NA,"János imád klihasozni, ezért sokat klihaslik.",Ti ritkán...,klihaslotok,klihasoztok,cselekszik,-lik,2,PR2040,1978,nő,nem,2022-04-12_19h32.43.533,hesp_baseline,2021.2.3,Win32,60.14675809
,,,,,,,,,,,,,,,,,spábétban,spábétben,left,4.422,0,123,123,51,1,52,spábét,spábét,ban,é,Ez itt egy spábét.,Ott vagyunk a...,spábétben,spábétban,dzsungel,NA,NA,PR2040,1978,nő,nem,2022-04-12_19h32.43.533,hesp_baseline,2021.2.3,Win32,60.14675809
,,,,,,,,,,,,,,,,,matézben,matézban,left,2.1538,0,124,124,37,1,38,matéz,matéz,ban,é,Ez itt egy matéz.,Ott vagyunk a...,matézben,matézban,dzsungel,NA,NA,PR2040,1978,nő,nem,2022-04-12_19h32.43.533,hesp_baseline,2021.2.3,Win32,60.14675809
,,,,,,,,,,,,,,,,,zopélynél,zopélynál,right,3.7909,0,125,125,5,1,6,zopély,zopély,nál,é,Ez itt egy zopély.,Nincs is jobb egy jó...,zopélynél,zopélynál,dzsungel,NA,NA,PR2040,1978,nő,nem,2022-04-12_19h32.43.533,hesp_baseline,2021.2.3,Win32,60.14675809
,,,,,,,,,,,,,,,,,bejezünk,bejzünk,left,3.2886,0,126,126,148,1,41,bejzik / bejezik,"bejzik, bejezni",ünk,NA,"János imád bejezni, ezért sokat bejzik.",Mi ritkán...,bejzünk,bejezünk,cselekszik,-zik,1,PR2040,1978,nő,nem,2022-04-12_19h32.43.533,hesp_baseline,2021.2.3,Win32,60.14675809
,,,,,,,,,,,,,,,,,pilégszenek,pilégednek,left,7.6956,0,127,127,150,1,43,pilégszik / pilégedik,"pilégszik, pilégedni",nek,NA,"János imád pilégedni, ezért sokat pilégszik.",Ők ritkán...,pilégszenek,pilégednek,cselekszik,-szik,2,PR2040,1978,nő,nem,2022-04-12_19h32.43.533,hesp_baseline,2021.2.3,Win32,60.14675809
,,,,,,,,,,,,,,,,,dutecnál,dutecnél,right,3.378,0,128,128,22,1,23,dutec,dutec,nál,e,Ez itt egy dutec.,Nincs is jobb egy jó...,dutecnél,dutecnál,dzsungel,NA,NA,PR2040,1978,nő,nem,2022-04-12_19h32.43.533,hesp_baseline,2021.2.3,Win32,60.14675809
,,,,,,,,,,,,,,,,,pebzek,pebzem,right,5.8228,0,129,129,57,1,4,pebzik,pebzel,NA,NA,Te bizony sokat pebzel.,Én is sokat...,pebzek,pebzem,lakik,-zik,1,PR2040,1978,nő,nem,2022-04-12_19h32.43.533,hesp_baseline,2021.2.3,Win32,60.14675809
,,,,,,,,,,,,,,,,,pítszok,pítszom,right,2.9294,0,130,130,62,1,9,pítszik,pítszol,NA,NA,Te bizony sokat pítszol.,Én is sokat...,pítszok,pítszom,lakik,-szik,1,PR2040,1978,nő,nem,2022-04-12_19h32.43.533,hesp_baseline,2021.2.3,Win32,60.14675809
,,,,,,,,,,,,,,,,,spibádzom,spibádzok,left,5.0802,0,131,131,65,1,12,spibádzik,spibádzol,NA,NA,Te bizony sokat spibádzol.,Én is sokat...,spibádzok,spibádzom,lakik,-zik,2,PR2040,1978,nő,nem,2022-04-12_19h32.43.533,hesp_baseline,2021.2.3,Win32,60.14675809
,,,,,,,,,,,,,,,,,kaszépnak,kaszépnek,left,3.6042,0,132,132,40,1,41,kaszép,kaszép,nak,é,Ez itt egy kaszép.,Elneveztem a kutyámat...,kaszépnek,kaszépnak,dzsungel,NA,NA,PR2040,1978,nő,nem,2022-04-12_19h32.43.533,hesp_baseline,2021.2.3,Win32,60.14675809
,,,,,,,,,,,,,,,,,bralképban,bralképben,right,4.1528,0,133,133,12,1,13,bralkép,bralkép,ban,é,Ez itt egy bralkép.,Ott vagyunk a...,bralképben,bralképban,dzsungel,NA,NA,PR2040,1978,nő,nem,2022-04-12_19h32.43.533,hesp_baseline,2021.2.3,Win32,60.14675809
,,,,,,,,,,,,,,,,,drűröznek,drűrzenek,right,13.5606,0,134,134,126,1,19,drűrzik / drűrözik,"drűrzik, drűrözni",nek,NA,"János imád drűrözni, ezért sokat drűrzik.",Ők ritkán...,drűrzenek,drűröznek,cselekszik,-zik,1,PR2040,1978,nő,nem,2022-04-12_19h32.43.533,hesp_baseline,2021.2.3,Win32,60.14675809
,,,,,,,,,,,,,,,,,livaklom,livaklok,left,4.8436,0,135,135,82,1,29,livaklik,livaklasz,NA,NA,Te bizony sokat livaklasz.,Én is sokat...,livaklok,livaklom,lakik,-lik,2,PR2040,1978,nő,nem,2022-04-12_19h32.43.533,hesp_baseline,2021.2.3,Win32,60.14675809
,,,,,,,,,,,,,,,,,dábegyban,dábegyben,right,3.1742,0,136,136,6,1,7,dábegy,dábegy,ban,e,Ez itt egy dábegy.,Ott vagyunk a...,dábegyben,dábegyban,dzsungel,NA,NA,PR2040,1978,nő,nem,2022-04-12_19h32.43.533,hesp_baseline,2021.2.3,Win32,60.14675809
,,,,,,,,,,,,,,,,,gábédnál,gábédnél,right,3.5725,0,137,137,39,1,40,gábéd,gábéd,nál,é,Ez itt egy gábéd.,Nincs is jobb egy jó...,gábédnél,gábédnál,dzsungel,NA,NA,PR2040,1978,nő,nem,2022-04-12_19h32.43.533,hesp_baseline,2021.2.3,Win32,60.14675809
,,,,,,,,,,,,,,,,,mádépnál,mádépnél,left,5.9823,0,138,138,1,1,2,mádép,mádép,nál,é,Ez itt egy mádép.,Nincs is jobb egy jó...,mádépnél,mádépnál,dzsungel,NA,NA,PR2040,1978,nő,nem,2022-04-12_19h32.43.533,hesp_baseline,2021.2.3,Win32,60.14675809
,,,,,,,,,,,,,,,,,spélszek,spélszem,right,6.4648,0,139,139,68,1,15,spélszik,spélszel,NA,NA,Te bizony sokat spélszel.,Én is sokat...,spélszek,spélszem,lakik,-szik,1,PR2040,1978,nő,nem,2022-04-12_19h32.43.533,hesp_baseline,2021.2.3,Win32,60.14675809
,,,,,,,,,,,,,,,,,fraklunk,frakozunk,right,7.8331,0,140,140,159,1,52,fraklik / frakozik,"fraklik, frakozni",ünk,NA,"János imád frakozni, ezért sokat fraklik.",Mi ritkán...,fraklunk,frakozunk,cselekszik,-lik,1,PR2040,1978,nő,nem,2022-04-12_19h32.43.533,hesp_baseline,2021.2.3,Win32,60.14675809
,,,,,,,,,,,,,,,,,brigesztnak,brigesztnek,right,3.5502,0,141,141,48,1,49,brigeszt,brigeszt,nak,e,Ez itt egy brigeszt.,Elneveztem a kutyámat...,brigesztnek,brigesztnak,dzsungel,NA,NA,PR2040,1978,nő,nem,2022-04-12_19h32.43.533,hesp_baseline,2021.2.3,Win32,60.14675809
,,,,,,,,,,,,,,,,,jukélnál,jukélnél,left,3.9425,0,142,142,42,1,43,jukél,jukél,nál,é,Ez itt egy jukél.,Nincs is jobb egy jó...,jukélnél,jukélnál,dzsungel,NA,NA,PR2040,1978,nő,nem,2022-04-12_19h32.43.533,hesp_baseline,2021.2.3,Win32,60.14675809
,,,,,,,,,,,,,,,,,lorzensnél,lorzensnál,left,3.5921,0,143,143,34,1,35,lorzens,lorzens,nál,e,Ez itt egy lorzens.,Nincs is jobb egy jó...,lorzensnél,lorzensnál,dzsungel,NA,NA,PR2040,1978,nő,nem,2022-04-12_19h32.43.533,hesp_baseline,2021.2.3,Win32,60.14675809
,,,,,,,,,,,,,,,,,zsalrénnek,zsalrénnak,left,3.8211,0,144,144,19,1,20,zsalrén,zsalrén,nak,é,Ez itt egy zsalrén.,Elneveztem a kutyámat...,zsalrénnek,zsalrénnak,dzsungel,NA,NA,PR2040,1978,nő,nem,2022-04-12_19h32.43.533,hesp_baseline,2021.2.3,Win32,60.14675809
,,,,,,,,,,,,,,,,,spicetnek,spicetnak,left,3.5264,0,145,145,35,1,36,spicet,spicet,nak,e,Ez itt egy spicet.,Elneveztem a kutyámat...,spicetnek,spicetnak,dzsungel,NA,NA,PR2040,1978,nő,nem,2022-04-12_19h32.43.533,hesp_baseline,2021.2.3,Win32,60.14675809
,,,,,,,,,,,,,,,,,kűdöznek,kűdlenek,right,7.9422,0,146,146,142,1,35,kűdlik / kűdözik,"kűdlik, kűdözni",nek,NA,"János imád kűdözni, ezért sokat kűdlik.",Ők ritkán...,kűdlenek,kűdöznek,cselekszik,-lik,1,PR2040,1978,nő,nem,2022-04-12_19h32.43.533,hesp_baseline,2021.2.3,Win32,60.14675809
,,,,,,,,,,,,,,,,,tágarozunk,tágarzunk,left,7.1573,0,147,147,155,1,48,tágarzik / tágarozik,"tágarzik, tágarozni",ünk,NA,"János imád tágarozni, ezért sokat tágarzik.",Mi ritkán...,tágarzunk,tágarozunk,cselekszik,-zik,2,PR2040,1978,nő,nem,2022-04-12_19h32.43.533,hesp_baseline,2021.2.3,Win32,60.14675809
,,,,,,,,,,,,,,,,,zsopédban,zsopédben,right,3.3411,0,148,148,50,1,51,zsopéd,zsopéd,ban,é,Ez itt egy zsopéd.,Ott vagyunk a...,zsopédben,zsopédban,dzsungel,NA,NA,PR2040,1978,nő,nem,2022-04-12_19h32.43.533,hesp_baseline,2021.2.3,Win32,60.14675809
,,,,,,,,,,,,,,,,,dujoznak,dujzanak,right,5.2323,0,149,149,128,1,21,dujzik / dujozik,"dujzik, dujozni",nek,NA,"János imád dujozni, ezért sokat dujzik.",Ők ritkán...,dujzanak,dujoznak,cselekszik,-zik,1,PR2040,1978,nő,nem,2022-04-12_19h32.43.533,hesp_baseline,2021.2.3,Win32,60.14675809
,,,,,,,,,,,,,,,,,gyibeslem,gyibeslek,right,3.6268,0,150,150,98,1,45,gyibeslik,gyibeslesz,NA,NA,Te bizony sokat gyibeslesz.,Én is sokat...,gyibeslek,gyibeslem,lakik,-lik,2,PR2040,1978,nő,nem,2022-04-12_19h32.43.533,hesp_baseline,2021.2.3,Win32,60.14675809
,,,,,,,,,,,,,,,,,frorlanak,froroznak,left,6.0364,0,151,151,143,1,36,frorlik / frorozik,"frorlik, frorozni",nek,NA,"János imád frorozni, ezért sokat frorlik.",Ők ritkán...,frorlanak,froroznak,cselekszik,-lik,1,PR2040,1978,nő,nem,2022-04-12_19h32.43.533,hesp_baseline,2021.2.3,Win32,60.14675809
,,,,,,,,,,,,,,,,,sprédlem,sprédlek,right,4.5904,0,152,152,70,1,17,sprédlik,sprédlesz,NA,NA,Te bizony sokat sprédlesz.,Én is sokat...,sprédlek,sprédlem,lakik,-lik,1,PR2040,1978,nő,nem,2022-04-12_19h32.43.533,hesp_baseline,2021.2.3,Win32,60.14675809
,,,,,,,,,,,,,,,,,lihénynak,lihénynek,right,3.0584,0,153,153,23,1,24,lihény,lihény,nak,é,Ez itt egy lihény.,Elneveztem a kutyámat...,lihénynek,lihénynak,dzsungel,NA,NA,PR2040,1978,nő,nem,2022-04-12_19h32.43.533,hesp_baseline,2021.2.3,Win32,60.14675809
,,,,,,,,,,,,,,,,,bregzünk,bregezünk,right,6.3278,0,154,154,139,1,32,bregzik / bregezik,"bregzik, bregezni",ünk,NA,"János imád bregezni, ezért sokat bregzik.",Mi ritkán...,bregzünk,bregezünk,cselekszik,-zik,1,PR2040,1978,nő,nem,2022-04-12_19h32.43.533,hesp_baseline,2021.2.3,Win32,60.14675809
,,,,,,,,,,,,,,,,,prugoroztok,prugorzotok,left,23.6978,0,155,155,116,1,9,prugorzik / prugorozik,"prugorzik, prugorozni",tek,NA,"János imád prugorozni, ezért sokat prugorzik.",Ti ritkán...,prugorzotok,prugoroztok,cselekszik,-zik,2,PR2040,1978,nő,nem,2022-04-12_19h32.43.533,hesp_baseline,2021.2.3,Win32,60.14675809
,,,,,,,,,,,,,,,,,hurjorzok,hurjorzom,right,9.2407,0,156,156,59,1,6,hurjorzik,hurjorzol,NA,NA,Te bizony sokat hurjorzol.,Én is sokat...,hurjorzok,hurjorzom,lakik,-zik,2,PR2040,1978,nő,nem,2022-04-12_19h32.43.533,hesp_baseline,2021.2.3,Win32,60.14675809
,,,,,,,,,,,,,,,,,vilakszom,vilakszok,left,2.7582,0,157,157,97,1,44,vilakszik,vilakszol,NA,NA,Te bizony sokat vilakszol.,Én is sokat...,vilakszok,vilakszom,lakik,-szik,2,PR2040,1978,nő,nem,2022-04-12_19h32.43.533,hesp_baseline,2021.2.3,Win32,60.14675809
,,,,,,,,,,,,,,,,,zsúdelnak,zsúdelnek,right,2.5525,0,158,158,14,1,15,zsúdel,zsúdel,nak,e,Ez itt egy zsúdel.,Elneveztem a kutyámat...,zsúdelnek,zsúdelnak,dzsungel,NA,NA,PR2040,1978,nő,nem,2022-04-12_19h32.43.533,hesp_baseline,2021.2.3,Win32,60.14675809
,,,,,,,,,,,,,,,,,gyivepednek,gyivepszenek,right,6.3456,0,159,159,160,1,53,gyivepszik / gyivepedik,"gyivepszik, gyivepedni",nek,NA,"János imád gyivepedni, ezért sokat gyivepszik.",Ők ritkán...,gyivepszenek,gyivepednek,cselekszik,-szik,2,PR2040,1978,nő,nem,2022-04-12_19h32.43.533,hesp_baseline,2021.2.3,Win32,60.14675809
,,,,,,,,,,,,,,,,,prélemeznek,prélemlenek,right,6.3094,0,160,160,110,1,3,prélemlik / prélemezik,"prélemlik, prélemezni",nek,NA,"János imád prélemezni, ezért sokat prélemlik.",Ők ritkán...,prélemlenek,prélemeznek,cselekszik,-lik,2,PR2040,1978,nő,nem,2022-04-12_19h32.43.533,hesp_baseline,2021.2.3,Win32,60.14675809
,,,,,,,,,,,,,,,,,flérlek,flérlem,left,6.4022,0,161,161,89,1,36,flérlik,flérlesz,NA,NA,Te bizony sokat flérlesz.,Én is sokat...,flérlek,flérlem,lakik,-lik,1,PR2040,1978,nő,nem,2022-04-12_19h32.43.533,hesp_baseline,2021.2.3,Win32,60.14675809
