my_list,key.keys,key.rt,key_2.keys,key_2.rt,keyboard_input_2.keys,keyboard_input_2.rt,key_3.keys,key_3.rt,keyboard_input_3.keys,keyboard_input_3.rt,key_4.keys,key_4.rt,keyboard_input_4.keys,keyboard_input_4.rt,key_5.keys,key_5.rt,my_button1,my_button2,keyboard_input.keys,keyboard_input.rt,withinBlock.thisRepN,withinBlock.thisTrialN,withinBlock.thisN,withinBlock.thisIndex,withinBlock.ran,rowname,word,prompt,suffix,vowel,carrier_sentence,target_sentence,target1,target2,category,derivational,nsyl,Azonosító,Melyik évben születtél?,Mi a nemed?,Tanultál nyelvészetet?,date,expName,psychopyVersion,OS,frameRate
list1.csv,space,16.5964,space,10.4333,right,6.9507,space,12.941,left,6.4508,space,5.6013,left,10.0129,space,22.4688,gatáglunk,gatágozunk,right,11.8212,0,0,0,137,1,30,gatáglik / gatágozik,"gatáglik, gatágozni",ünk,NA,"János imád gatágozni, ezért sokat gatáglik.",Mi ritkán...,gatáglunk,gatágozunk,cselekszik,-lik,2,PR2083,2000,nő,nem,2022-04-19_19h17.33.872,hesp_baseline,2021.2.3,Win32,60.0024001
,,,,,,,,,,,,,,,,,plibzotok,pliboztok,right,14.8692,0,1,1,140,1,33,plibzik / plibozik,"plibzik, plibozni",tek,NA,"János imád plibozni, ezért sokat plibzik.",Ti ritkán...,plibzotok,pliboztok,cselekszik,-zik,1,PR2083,2000,nő,nem,2022-04-19_19h17.33.872,hesp_baseline,2021.2.3,Win32,60.0024001
,,,,,,,,,,,,,,,,,bregezünk,bregzünk,right,5.8173,0,2,2,139,1,32,bregzik / bregezik,"bregzik, bregezni",ünk,NA,"János imád bregezni, ezért sokat bregzik.",Mi ritkán...,bregzünk,bregezünk,cselekszik,-zik,1,PR2083,2000,nő,nem,2022-04-19_19h17.33.872,hesp_baseline,2021.2.3,Win32,60.0024001
,,,,,,,,,,,,,,,,,kaszépnak,kaszépnek,right,7.8937,0,3,3,40,1,41,kaszép,kaszép,nak,é,Ez itt egy kaszép.,Elneveztem a kutyámat...,kaszépnek,kaszépnak,dzsungel,NA,NA,PR2083,2000,nő,nem,2022-04-19_19h17.33.872,hesp_baseline,2021.2.3,Win32,60.0024001
,,,,,,,,,,,,,,,,,spéslem,spéslek,right,4.8174,0,4,4,93,1,40,spéslik,spéslesz,NA,NA,Te bizony sokat spéslesz.,Én is sokat...,spéslek,spéslem,lakik,-lik,1,PR2083,2000,nő,nem,2022-04-19_19h17.33.872,hesp_baseline,2021.2.3,Win32,60.0024001
,,,,,,,,,,,,,,,,,sztremlem,sztremlek,right,5.5901,0,5,5,95,1,42,sztremlik,sztremlesz,NA,NA,Te bizony sokat sztremlesz.,Én is sokat...,sztremlek,sztremlem,lakik,-lik,1,PR2083,2000,nő,nem,2022-04-19_19h17.33.872,hesp_baseline,2021.2.3,Win32,60.0024001
,,,,,,,,,,,,,,,,,küslünk,küsözünk,right,7.0245,0,6,6,141,1,34,küslik / küsözik,"küslik, küsözni",ünk,NA,"János imád küsözni, ezért sokat küslik.",Mi ritkán...,küslünk,küsözünk,cselekszik,-lik,1,PR2083,2000,nő,nem,2022-04-19_19h17.33.872,hesp_baseline,2021.2.3,Win32,60.0024001
,,,,,,,,,,,,,,,,,spihemlek,spihemlem,left,6.3675,0,7,7,94,1,41,spihemlik,spihemlesz,NA,NA,Te bizony sokat spihemlesz.,Én is sokat...,spihemlek,spihemlem,lakik,-lik,2,PR2083,2000,nő,nem,2022-04-19_19h17.33.872,hesp_baseline,2021.2.3,Win32,60.0024001
,,,,,,,,,,,,,,,,,marzok,marzom,left,18.5843,0,8,8,99,1,46,marzik,marzol,NA,NA,Te bizony sokat marzol.,Én is sokat...,marzok,marzom,lakik,-zik,1,PR2083,2000,nő,nem,2022-04-19_19h17.33.872,hesp_baseline,2021.2.3,Win32,60.0024001
,,,,,,,,,,,,,,,,,pilégszenek,pilégednek,left,15.4397,0,9,9,150,1,43,pilégszik / pilégedik,"pilégszik, pilégedni",nek,NA,"János imád pilégedni, ezért sokat pilégszik.",Ők ritkán...,pilégszenek,pilégednek,cselekszik,-szik,2,PR2083,2000,nő,nem,2022-04-19_19h17.33.872,hesp_baseline,2021.2.3,Win32,60.0024001
,,,,,,,,,,,,,,,,,pekszünk,pekedünk,left,24.8506,0,10,10,161,1,54,pekszik / pekedik,"pekszik, pekedni",ünk,NA,"János imád pekedni, ezért sokat pekszik.",Mi ritkán...,pekszünk,pekedünk,cselekszik,-szik,1,PR2083,2000,nő,nem,2022-04-19_19h17.33.872,hesp_baseline,2021.2.3,Win32,60.0024001
,,,,,,,,,,,,,,,,,tivencban,tivencben,right,7.5286,0,11,11,53,1,54,tivenc,tivenc,ban,e,Ez itt egy tivenc.,Ott vagyunk a...,tivencben,tivencban,dzsungel,NA,NA,PR2083,2000,nő,nem,2022-04-19_19h17.33.872,hesp_baseline,2021.2.3,Win32,60.0024001
,,,,,,,,,,,,,,,,,brigesztnak,brigesztnek,right,8.3898,0,12,12,48,1,49,brigeszt,brigeszt,nak,e,Ez itt egy brigeszt.,Elneveztem a kutyámat...,brigesztnek,brigesztnak,dzsungel,NA,NA,PR2083,2000,nő,nem,2022-04-19_19h17.33.872,hesp_baseline,2021.2.3,Win32,60.0024001
,,,,,,,,,,,,,,,,,spivejeznek,spivejlenek,right,14.6723,0,13,13,125,1,18,spivejlik / spivejezik,"spivejlik, spivejezni",nek,NA,"János imád spivejezni, ezért sokat spivejlik.",Ők ritkán...,spivejlenek,spivejeznek,cselekszik,-lik,2,PR2083,2000,nő,nem,2022-04-19_19h17.33.872,hesp_baseline,2021.2.3,Win32,60.0024001
,,,,,,,,,,,,,,,,,hiragzanak,hiragoznak,right,9.2716,0,14,14,119,1,12,hiragzik / hiragozik,"hiragzik, hiragozni",nek,NA,"János imád hiragozni, ezért sokat hiragzik.",Ők ritkán...,hiragzanak,hiragoznak,cselekszik,-zik,2,PR2083,2000,nő,nem,2022-04-19_19h17.33.872,hesp_baseline,2021.2.3,Win32,60.0024001
,,,,,,,,,,,,,,,,,bügöznek,bügzenek,right,4.7111,0,15,15,118,1,11,bügzik / bügözik,"bügzik, bügözni",nek,NA,"János imád bügözni, ezért sokat bügzik.",Ők ritkán...,bügzenek,bügöznek,cselekszik,-zik,1,PR2083,2000,nő,nem,2022-04-19_19h17.33.872,hesp_baseline,2021.2.3,Win32,60.0024001
,,,,,,,,,,,,,,,,,tránélynek,tránélynak,right,8.8686,0,16,16,17,1,18,tránély,tránély,nak,é,Ez itt egy tránély.,Elneveztem a kutyámat...,tránélynek,tránélynak,dzsungel,NA,NA,PR2083,2000,nő,nem,2022-04-19_19h17.33.872,hesp_baseline,2021.2.3,Win32,60.0024001
,,,,,,,,,,,,,,,,,szibánylom,szibánylok,right,7.4206,0,17,17,67,1,14,szibánylik,szibánylasz,NA,NA,Te bizony sokat szibánylasz.,Én is sokat...,szibánylok,szibánylom,lakik,-lik,2,PR2083,2000,nő,nem,2022-04-19_19h17.33.872,hesp_baseline,2021.2.3,Win32,60.0024001
,,,,,,,,,,,,,,,,,diránylanak,dirányoznak,left,17.6861,0,18,18,122,1,15,diránylik / dirányozik,"diránylik, dirányozni",nek,NA,"János imád dirányozni, ezért sokat diránylik.",Ők ritkán...,diránylanak,dirányoznak,cselekszik,-lik,2,PR2083,2000,nő,nem,2022-04-19_19h17.33.872,hesp_baseline,2021.2.3,Win32,60.0024001
,,,,,,,,,,,,,,,,,sztrajoznak,sztrajlanak,left,8.9841,0,19,19,144,1,37,sztrajlik / sztrajozik,"sztrajlik, sztrajozni",nek,NA,"János imád sztrajozni, ezért sokat sztrajlik.",Ők ritkán...,sztrajlanak,sztrajoznak,cselekszik,-lik,1,PR2083,2000,nő,nem,2022-04-19_19h17.33.872,hesp_baseline,2021.2.3,Win32,60.0024001
,,,,,,,,,,,,,,,,,zsalrénnek,zsalrénnak,left,6.2175,0,20,20,19,1,20,zsalrén,zsalrén,nak,é,Ez itt egy zsalrén.,Elneveztem a kutyámat...,zsalrénnek,zsalrénnak,dzsungel,NA,NA,PR2083,2000,nő,nem,2022-04-19_19h17.33.872,hesp_baseline,2021.2.3,Win32,60.0024001
,,,,,,,,,,,,,,,,,dujoznak,dujzanak,right,40.0511,0,21,21,128,1,21,dujzik / dujozik,"dujzik, dujozni",nek,NA,"János imád dujozni, ezért sokat dujzik.",Ők ritkán...,dujzanak,dujoznak,cselekszik,-zik,1,PR2083,2000,nő,nem,2022-04-19_19h17.33.872,hesp_baseline,2021.2.3,Win32,60.0024001
,,,,,,,,,,,,,,,,,flehénylem,flehénylek,right,5.584,0,22,22,106,1,53,flehénylik,flehénylesz,NA,NA,Te bizony sokat flehénylesz.,Én is sokat...,flehénylek,flehénylem,lakik,-lik,2,PR2083,2000,nő,nem,2022-04-19_19h17.33.872,hesp_baseline,2021.2.3,Win32,60.0024001
,,,,,,,,,,,,,,,,,kűdlenek,kűdöznek,left,9.4271,0,23,23,142,1,35,kűdlik / kűdözik,"kűdlik, kűdözni",nek,NA,"János imád kűdözni, ezért sokat kűdlik.",Ők ritkán...,kűdlenek,kűdöznek,cselekszik,-lik,1,PR2083,2000,nő,nem,2022-04-19_19h17.33.872,hesp_baseline,2021.2.3,Win32,60.0024001
,,,,,,,,,,,,,,,,,fádensnak,fádensnek,right,3.9722,0,24,24,33,1,34,fádens,fádens,nak,e,Ez itt egy fádens.,Elneveztem a kutyámat...,fádensnek,fádensnak,dzsungel,NA,NA,PR2083,2000,nő,nem,2022-04-19_19h17.33.872,hesp_baseline,2021.2.3,Win32,60.0024001
,,,,,,,,,,,,,,,,,pítszom,pítszok,right,4.1757,0,25,25,62,1,9,pítszik,pítszol,NA,NA,Te bizony sokat pítszol.,Én is sokat...,pítszok,pítszom,lakik,-szik,1,PR2083,2000,nő,nem,2022-04-19_19h17.33.872,hesp_baseline,2021.2.3,Win32,60.0024001
,,,,,,,,,,,,,,,,,plűbzök,plűbzöm,left,4.251,0,26,26,107,1,54,plűbzik,plűbzöl,NA,NA,Te bizony sokat plűbzöl.,Én is sokat...,plűbzök,plűbzöm,lakik,-zik,1,PR2083,2000,nő,nem,2022-04-19_19h17.33.872,hesp_baseline,2021.2.3,Win32,60.0024001
,,,,,,,,,,,,,,,,,csarténynak,csarténynek,right,3.7066,0,27,27,36,1,37,csartény,csartény,nak,é,Ez itt egy csartény.,Elneveztem a kutyámat...,csarténynek,csarténynak,dzsungel,NA,NA,PR2083,2000,nő,nem,2022-04-19_19h17.33.872,hesp_baseline,2021.2.3,Win32,60.0024001
,,,,,,,,,,,,,,,,,sprédlek,sprédlem,left,3.0673,0,28,28,70,1,17,sprédlik,sprédlesz,NA,NA,Te bizony sokat sprédlesz.,Én is sokat...,sprédlek,sprédlem,lakik,-lik,1,PR2083,2000,nő,nem,2022-04-19_19h17.33.872,hesp_baseline,2021.2.3,Win32,60.0024001
,,,,,,,,,,,,,,,,,kalhésznak,kalhésznek,right,3.9608,0,29,29,46,1,47,kalhész,kalhész,nak,é,Ez itt egy kalhész.,Elneveztem a kutyámat...,kalhésznek,kalhésznak,dzsungel,NA,NA,PR2083,2000,nő,nem,2022-04-19_19h17.33.872,hesp_baseline,2021.2.3,Win32,60.0024001
,,,,,,,,,,,,,,,,,jutélynál,jutélynél,right,13.2926,0,30,30,11,1,12,jutély,jutély,nál,é,Ez itt egy jutély.,Nincs is jobb egy jó...,jutélynél,jutélynál,dzsungel,NA,NA,PR2083,2000,nő,nem,2022-04-19_19h17.33.872,hesp_baseline,2021.2.3,Win32,60.0024001
,,,,,,,,,,,,,,,,,prilegzem,prilegzek,right,5.534,0,31,31,79,1,26,prilegzik,prilegzel,NA,NA,Te bizony sokat prilegzel.,Én is sokat...,prilegzek,prilegzem,lakik,-zik,2,PR2083,2000,nő,nem,2022-04-19_19h17.33.872,hesp_baseline,2021.2.3,Win32,60.0024001
,,,,,,,,,,,,,,,,,míslunk,mísozunk,left,6.2675,0,32,32,123,1,16,míslik / mísozik,"míslik, mísozni",ünk,NA,"János imád mísozni, ezért sokat míslik.",Mi ritkán...,míslunk,mísozunk,cselekszik,-lik,1,PR2083,2000,nő,nem,2022-04-19_19h17.33.872,hesp_baseline,2021.2.3,Win32,60.0024001
,,,,,,,,,,,,,,,,,dajrensnél,dajrensnál,right,4.1674,0,33,33,49,1,50,dajrens,dajrens,nál,e,Ez itt egy dajrens.,Nincs is jobb egy jó...,dajrensnél,dajrensnál,dzsungel,NA,NA,PR2083,2000,nő,nem,2022-04-19_19h17.33.872,hesp_baseline,2021.2.3,Win32,60.0024001
,,,,,,,,,,,,,,,,,vanylok,vanylom,left,3.026,0,34,34,61,1,8,vanylik,vanylasz,NA,NA,Te bizony sokat vanylasz.,Én is sokat...,vanylok,vanylom,lakik,-lik,1,PR2083,2000,nő,nem,2022-04-19_19h17.33.872,hesp_baseline,2021.2.3,Win32,60.0024001
,,,,,,,,,,,,,,,,,salárzok,salárzom,right,9.0841,0,35,35,103,1,50,salárzik,salárzol,NA,NA,Te bizony sokat salárzol.,Én is sokat...,salárzok,salárzom,lakik,-zik,2,PR2083,2000,nő,nem,2022-04-19_19h17.33.872,hesp_baseline,2021.2.3,Win32,60.0024001
,,,,,,,,,,,,,,,,,pivédben,pivédban,left,3.4843,0,36,36,52,1,53,pivéd,pivéd,ban,é,Ez itt egy pivéd.,Ott vagyunk a...,pivédben,pivédban,dzsungel,NA,NA,PR2083,2000,nő,nem,2022-04-19_19h17.33.872,hesp_baseline,2021.2.3,Win32,60.0024001
,,,,,,,,,,,,,,,,,géregletek,géregeztek,right,7.7373,0,37,37,124,1,17,géreglik / géregezik,"géreglik, géregezni",tek,NA,"János imád géregezni, ezért sokat géreglik.",Ti ritkán...,géregletek,géregeztek,cselekszik,-lik,2,PR2083,2000,nő,nem,2022-04-19_19h17.33.872,hesp_baseline,2021.2.3,Win32,60.0024001
,,,,,,,,,,,,,,,,,galároznak,galárzanak,left,4.6515,0,38,38,154,1,47,galárzik / galározik,"galárzik, galározni",nek,NA,"János imád galározni, ezért sokat galárzik.",Ők ritkán...,galárzanak,galároznak,cselekszik,-zik,2,PR2083,2000,nő,nem,2022-04-19_19h17.33.872,hesp_baseline,2021.2.3,Win32,60.0024001
,,,,,,,,,,,,,,,,,priszecban,priszecben,right,3.8342,0,39,39,15,1,16,priszec,priszec,ban,e,Ez itt egy priszec.,Ott vagyunk a...,priszecben,priszecban,dzsungel,NA,NA,PR2083,2000,nő,nem,2022-04-19_19h17.33.872,hesp_baseline,2021.2.3,Win32,60.0024001
,,,,,,,,,,,,,,,,,ibáglom,ibáglok,right,2.5673,0,40,40,88,1,35,ibáglik,ibáglasz,NA,NA,Te bizony sokat ibáglasz.,Én is sokat...,ibáglok,ibáglom,lakik,-lik,2,PR2083,2000,nő,nem,2022-04-19_19h17.33.872,hesp_baseline,2021.2.3,Win32,60.0024001
,,,,,,,,,,,,,,,,,trukszotok,trukodtok,right,4.8097,0,41,41,157,1,50,trukszik / trukodik,"trukszik, trukodni",tek,NA,"János imád trukodni, ezért sokat trukszik.",Ti ritkán...,trukszotok,trukodtok,cselekszik,-szik,1,PR2083,2000,nő,nem,2022-04-19_19h17.33.872,hesp_baseline,2021.2.3,Win32,60.0024001
,,,,,,,,,,,,,,,,,sprudozunk,sprudlunk,right,8.668,0,42,42,136,1,29,sprudlik / sprudozik,"sprudlik, sprudozni",ünk,NA,"János imád sprudozni, ezért sokat sprudlik.",Mi ritkán...,sprudlunk,sprudozunk,cselekszik,-lik,1,PR2083,2000,nő,nem,2022-04-19_19h17.33.872,hesp_baseline,2021.2.3,Win32,60.0024001
,,,,,,,,,,,,,,,,,brubzok,brubzom,left,3.4673,0,43,43,92,1,39,brubzik,brubzol,NA,NA,Te bizony sokat brubzol.,Én is sokat...,brubzok,brubzom,lakik,-zik,1,PR2083,2000,nő,nem,2022-04-19_19h17.33.872,hesp_baseline,2021.2.3,Win32,60.0024001
,,,,,,,,,,,,,,,,,spűmlök,spűmlöm,left,2.5672,0,44,44,86,1,33,spűmlik,spűmlesz,NA,NA,Te bizony sokat spűmlesz.,Én is sokat...,spűmlök,spűmlöm,lakik,-lik,1,PR2083,2000,nő,nem,2022-04-19_19h17.33.872,hesp_baseline,2021.2.3,Win32,60.0024001
,,,,,,,,,,,,,,,,,aglok,aglom,left,2.8174,0,45,45,100,1,47,aglik,aglasz,NA,NA,Te bizony sokat aglasz.,Én is sokat...,aglok,aglom,lakik,-lik,1,PR2083,2000,nő,nem,2022-04-19_19h17.33.872,hesp_baseline,2021.2.3,Win32,60.0024001
,,,,,,,,,,,,,,,,,drűröznek,drűrzenek,left,7.4717,0,46,46,126,1,19,drűrzik / drűrözik,"drűrzik, drűrözni",nek,NA,"János imád drűrözni, ezért sokat drűrzik.",Ők ritkán...,drűrzenek,drűröznek,cselekszik,-zik,1,PR2083,2000,nő,nem,2022-04-19_19h17.33.872,hesp_baseline,2021.2.3,Win32,60.0024001
,,,,,,,,,,,,,,,,,darhénben,darhénban,right,5.3035,0,47,47,27,1,28,darhén,darhén,ban,é,Ez itt egy darhén.,Ott vagyunk a...,darhénben,darhénban,dzsungel,NA,NA,PR2083,2000,nő,nem,2022-04-19_19h17.33.872,hesp_baseline,2021.2.3,Win32,60.0024001
,,,,,,,,,,,,,,,,,píjlok,píjlom,left,2.7572,0,48,48,75,1,22,píjlik,píjlasz,NA,NA,Te bizony sokat píjlasz.,Én is sokat...,píjlok,píjlom,lakik,-lik,1,PR2083,2000,nő,nem,2022-04-19_19h17.33.872,hesp_baseline,2021.2.3,Win32,60.0024001
,,,,,,,,,,,,,,,,,sihennél,sihennál,left,3.5342,0,49,49,18,1,19,sihen,sihen,nál,e,Ez itt egy sihen.,Nincs is jobb egy jó...,sihennél,sihennál,dzsungel,NA,NA,PR2083,2000,nő,nem,2022-04-19_19h17.33.872,hesp_baseline,2021.2.3,Win32,60.0024001
,,,,,,,,,,,,,,,,,jorzégnak,jorzégnek,right,5.0342,0,50,50,45,1,46,jorzég,jorzég,nak,é,Ez itt egy jorzég.,Elneveztem a kutyámat...,jorzégnek,jorzégnak,dzsungel,NA,NA,PR2083,2000,nő,nem,2022-04-19_19h17.33.872,hesp_baseline,2021.2.3,Win32,60.0024001
,,,,,,,,,,,,,,,,,nuhétnál,nuhétnél,right,8.0382,0,51,51,29,1,30,nuhét,nuhét,nál,é,Ez itt egy nuhét.,Nincs is jobb egy jó...,nuhétnél,nuhétnál,dzsungel,NA,NA,PR2083,2000,nő,nem,2022-04-19_19h17.33.872,hesp_baseline,2021.2.3,Win32,60.0024001
,,,,,,,,,,,,,,,,,hosétnak,hosétnek,left,6.367,0,52,52,8,1,9,hosét,hosét,nak,é,Ez itt egy hosét.,Elneveztem a kutyámat...,hosétnek,hosétnak,dzsungel,NA,NA,PR2083,2000,nő,nem,2022-04-19_19h17.33.872,hesp_baseline,2021.2.3,Win32,60.0024001
,,,,,,,,,,,,,,,,,flérlek,flérlem,left,5.8583,0,53,53,89,1,36,flérlik,flérlesz,NA,NA,Te bizony sokat flérlesz.,Én is sokat...,flérlek,flérlem,lakik,-lik,1,PR2083,2000,nő,nem,2022-04-19_19h17.33.872,hesp_baseline,2021.2.3,Win32,60.0024001
,,,,,,,,,,,,,,,,,málapszom,málapszok,right,4.4841,0,54,54,66,1,13,málapszik,málapszol,NA,NA,Te bizony sokat málapszol.,Én is sokat...,málapszok,málapszom,lakik,-szik,2,PR2083,2000,nő,nem,2022-04-19_19h17.33.872,hesp_baseline,2021.2.3,Win32,60.0024001
,,,,,,,,,,,,,,,,,spatszom,spatszok,right,3.6844,0,55,55,73,1,20,spatszik,spatszol,NA,NA,Te bizony sokat spatszol.,Én is sokat...,spatszok,spatszom,lakik,-szik,1,PR2083,2000,nő,nem,2022-04-19_19h17.33.872,hesp_baseline,2021.2.3,Win32,60.0024001
,,,,,,,,,,,,,,,,,brobódzom,brobódzok,right,2.7594,0,56,56,96,1,43,brobódzik,brobódzol,NA,NA,Te bizony sokat brobódzol.,Én is sokat...,brobódzok,brobódzom,lakik,-zik,2,PR2083,2000,nő,nem,2022-04-19_19h17.33.872,hesp_baseline,2021.2.3,Win32,60.0024001
,,,,,,,,,,,,,,,,,gyivepednek,gyivepszenek,left,8.4677,0,57,57,160,1,53,gyivepszik / gyivepedik,"gyivepszik, gyivepedni",nek,NA,"János imád gyivepedni, ezért sokat gyivepszik.",Ők ritkán...,gyivepszenek,gyivepednek,cselekszik,-szik,2,PR2083,2000,nő,nem,2022-04-19_19h17.33.872,hesp_baseline,2021.2.3,Win32,60.0024001
,,,,,,,,,,,,,,,,,bribasoznak,bribaslanak,left,3.6508,0,58,58,121,1,14,bribaslik / bribasozik,"bribaslik, bribasozni",nek,NA,"János imád bribasozni, ezért sokat bribaslik.",Ők ritkán...,bribaslanak,bribasoznak,cselekszik,-lik,2,PR2083,2000,nő,nem,2022-04-19_19h17.33.872,hesp_baseline,2021.2.3,Win32,60.0024001
,,,,,,,,,,,,,,,,,hóbensban,hóbensben,right,2.4027,0,59,59,3,1,4,hóbens,hóbens,ban,e,Ez itt egy hóbens.,Ott vagyunk a...,hóbensben,hóbensban,dzsungel,NA,NA,PR2083,2000,nő,nem,2022-04-19_19h17.33.872,hesp_baseline,2021.2.3,Win32,60.0024001
,,,,,,,,,,,,,,,,,lumézben,lumézban,left,7.4212,0,60,60,32,1,33,luméz,luméz,ban,é,Ez itt egy luméz.,Ott vagyunk a...,lumézben,lumézban,dzsungel,NA,NA,PR2083,2000,nő,nem,2022-04-19_19h17.33.872,hesp_baseline,2021.2.3,Win32,60.0024001
,,,,,,,,,,,,,,,,,naremben,naremban,left,3.5583,0,61,61,2,1,3,narem,narem,ban,e,Ez itt egy narem.,Ott vagyunk a...,naremben,naremban,dzsungel,NA,NA,PR2083,2000,nő,nem,2022-04-19_19h17.33.872,hesp_baseline,2021.2.3,Win32,60.0024001
,,,,,,,,,,,,,,,,,brarlok,brarlom,left,3.938,0,62,62,71,1,18,brarlik,brarlasz,NA,NA,Te bizony sokat brarlasz.,Én is sokat...,brarlok,brarlom,lakik,-lik,1,PR2083,2000,nő,nem,2022-04-19_19h17.33.872,hesp_baseline,2021.2.3,Win32,60.0024001
,,,,,,,,,,,,,,,,,nyizlunk,nyizozunk,left,3.8837,0,63,63,135,1,28,nyizlik / nyizozik,"nyizlik, nyizozni",ünk,NA,"János imád nyizozni, ezért sokat nyizlik.",Mi ritkán...,nyizlunk,nyizozunk,cselekszik,-lik,1,PR2083,2000,nő,nem,2022-04-19_19h17.33.872,hesp_baseline,2021.2.3,Win32,60.0024001
,,,,,,,,,,,,,,,,,spibaklom,spibaklok,right,5.2615,0,64,64,55,1,2,spibaklik,spibaklasz,NA,NA,Te bizony sokat spibaklasz.,Én is sokat...,spibaklok,spibaklom,lakik,-lik,2,PR2083,2000,nő,nem,2022-04-19_19h17.33.872,hesp_baseline,2021.2.3,Win32,60.0024001
,,,,,,,,,,,,,,,,,pisélyban,pisélyben,right,2.7574,0,65,65,21,1,22,pisély,pisély,ban,é,Ez itt egy pisély.,Ott vagyunk a...,pisélyben,pisélyban,dzsungel,NA,NA,PR2083,2000,nő,nem,2022-04-19_19h17.33.872,hesp_baseline,2021.2.3,Win32,60.0024001
,,,,,,,,,,,,,,,,,jalrénynál,jalrénynél,left,5.1175,0,66,66,0,1,1,jalrény,jalrény,nál,é,Ez itt egy jalrény.,Nincs is jobb egy jó...,jalrénynél,jalrénynál,dzsungel,NA,NA,PR2083,2000,nő,nem,2022-04-19_19h17.33.872,hesp_baseline,2021.2.3,Win32,60.0024001
,,,,,,,,,,,,,,,,,drügzöm,drügzök,right,2.834,0,67,67,72,1,19,drügzik,drügzöl,NA,NA,Te bizony sokat drügzöl.,Én is sokat...,drügzök,drügzöm,lakik,-zik,1,PR2083,2000,nő,nem,2022-04-19_19h17.33.872,hesp_baseline,2021.2.3,Win32,60.0024001
,,,,,,,,,,,,,,,,,köszöztök,köszlötök,left,7.8008,0,68,68,120,1,13,köszlik / köszözik,"köszlik, köszözni",tek,NA,"János imád köszözni, ezért sokat köszlik.",Ti ritkán...,köszlötök,köszöztök,cselekszik,-lik,1,PR2083,2000,nő,nem,2022-04-19_19h17.33.872,hesp_baseline,2021.2.3,Win32,60.0024001
,,,,,,,,,,,,,,,,,kliszernál,kliszernél,right,2.2414,0,69,69,31,1,32,kliszer,kliszer,nál,e,Ez itt egy kliszer.,Nincs is jobb egy jó...,kliszernél,kliszernál,dzsungel,NA,NA,PR2083,2000,nő,nem,2022-04-19_19h17.33.872,hesp_baseline,2021.2.3,Win32,60.0024001
,,,,,,,,,,,,,,,,,hurjorzom,hurjorzok,right,2.6903,0,70,70,59,1,6,hurjorzik,hurjorzol,NA,NA,Te bizony sokat hurjorzol.,Én is sokat...,hurjorzok,hurjorzom,lakik,-zik,2,PR2083,2000,nő,nem,2022-04-19_19h17.33.872,hesp_baseline,2021.2.3,Win32,60.0024001
,,,,,,,,,,,,,,,,,kadérnál,kadérnél,left,12.4412,0,71,71,7,1,8,kadér,kadér,nál,é,Ez itt egy kadér.,Nincs is jobb egy jó...,kadérnél,kadérnál,dzsungel,NA,NA,PR2083,2000,nő,nem,2022-04-19_19h17.33.872,hesp_baseline,2021.2.3,Win32,60.0024001
,,,,,,,,,,,,,,,,,nyivágzunk,nyivágozunk,left,9.4739,0,72,72,113,1,6,nyivágzik / nyivágozik,"nyivágzik, nyivágozni",ünk,NA,"János imád nyivágozni, ezért sokat nyivágzik.",Mi ritkán...,nyivágzunk,nyivágozunk,cselekszik,-zik,2,PR2083,2000,nő,nem,2022-04-19_19h17.33.872,hesp_baseline,2021.2.3,Win32,60.0024001
,,,,,,,,,,,,,,,,,brözöztök,brözlötök,right,4.905,0,73,73,145,1,38,brözlik / brözözik,"brözlik, brözözni",tek,NA,"János imád brözözni, ezért sokat brözlik.",Ti ritkán...,brözlötök,brözöztök,cselekszik,-lik,1,PR2083,2000,nő,nem,2022-04-19_19h17.33.872,hesp_baseline,2021.2.3,Win32,60.0024001
,,,,,,,,,,,,,,,,,hivépban,hivépben,right,2.4508,0,74,74,44,1,45,hivép,hivép,ban,é,Ez itt egy hivép.,Ott vagyunk a...,hivépben,hivépban,dzsungel,NA,NA,PR2083,2000,nő,nem,2022-04-19_19h17.33.872,hesp_baseline,2021.2.3,Win32,60.0024001
,,,,,,,,,,,,,,,,,flözlök,flözlöm,left,3.2229,0,75,75,74,1,21,flözlik,flözlesz,NA,NA,Te bizony sokat flözlesz.,Én is sokat...,flözlök,flözlöm,lakik,-lik,1,PR2083,2000,nő,nem,2022-04-19_19h17.33.872,hesp_baseline,2021.2.3,Win32,60.0024001
,,,,,,,,,,,,,,,,,frirzunk,frirozunk,left,15.5206,0,76,76,129,1,22,frirzik / frirozik,"frirzik, frirozni",ünk,NA,"János imád frirozni, ezért sokat frirzik.",Mi ritkán...,frirzunk,frirozunk,cselekszik,-zik,1,PR2083,2000,nő,nem,2022-04-19_19h17.33.872,hesp_baseline,2021.2.3,Win32,60.0024001
,,,,,,,,,,,,,,,,,froroznak,frorlanak,right,6.0374,0,77,77,143,1,36,frorlik / frorozik,"frorlik, frorozni",nek,NA,"János imád frorozni, ezért sokat frorlik.",Ők ritkán...,frorlanak,froroznak,cselekszik,-lik,1,PR2083,2000,nő,nem,2022-04-19_19h17.33.872,hesp_baseline,2021.2.3,Win32,60.0024001
,,,,,,,,,,,,,,,,,frakozunk,fraklunk,left,6.834,0,78,78,159,1,52,fraklik / frakozik,"fraklik, frakozni",ünk,NA,"János imád frakozni, ezért sokat fraklik.",Mi ritkán...,fraklunk,frakozunk,cselekszik,-lik,1,PR2083,2000,nő,nem,2022-04-19_19h17.33.872,hesp_baseline,2021.2.3,Win32,60.0024001
,,,,,,,,,,,,,,,,,vilakszok,vilakszom,left,2.2948,0,79,79,97,1,44,vilakszik,vilakszol,NA,NA,Te bizony sokat vilakszol.,Én is sokat...,vilakszok,vilakszom,lakik,-szik,2,PR2083,2000,nő,nem,2022-04-19_19h17.33.872,hesp_baseline,2021.2.3,Win32,60.0024001
,,,,,,,,,,,,,,,,,brülöslünk,brülösözünk,left,5.4694,0,80,80,109,1,2,brülöslik / brülösözik,"brülöslik, brülösözni",ünk,NA,"János imád brülösözni, ezért sokat brülöslik.",Mi ritkán...,brülöslünk,brülösözünk,cselekszik,-lik,2,PR2083,2000,nő,nem,2022-04-19_19h17.33.872,hesp_baseline,2021.2.3,Win32,60.0024001
,,,,,,,,,,,,,,,,,matézben,matézban,right,3.2212,0,81,81,37,1,38,matéz,matéz,ban,é,Ez itt egy matéz.,Ott vagyunk a...,matézben,matézban,dzsungel,NA,NA,PR2083,2000,nő,nem,2022-04-19_19h17.33.872,hesp_baseline,2021.2.3,Win32,60.0024001
,,,,,,,,,,,,,,,,,fökszenek,föködnek,right,7.9741,0,82,82,131,1,24,fökszik / föködik,"fökszik, föködni",nek,NA,"János imád föködni, ezért sokat fökszik.",Ők ritkán...,fökszenek,föködnek,cselekszik,-szik,1,PR2083,2000,nő,nem,2022-04-19_19h17.33.872,hesp_baseline,2021.2.3,Win32,60.0024001
,,,,,,,,,,,,,,,,,frágapszom,frágapszok,right,4.7509,0,83,83,60,1,7,frágapszik,frágapszol,NA,NA,Te bizony sokat frágapszol.,Én is sokat...,frágapszok,frágapszom,lakik,-szik,2,PR2083,2000,nő,nem,2022-04-19_19h17.33.872,hesp_baseline,2021.2.3,Win32,60.0024001
,,,,,,,,,,,,,,,,,jurlunk,jurozunk,right,4.6693,0,84,84,111,1,4,jurlik / jurozik,"jurlik, jurozni",ünk,NA,"János imád jurozni, ezért sokat jurlik.",Mi ritkán...,jurlunk,jurozunk,cselekszik,-lik,1,PR2083,2000,nő,nem,2022-04-19_19h17.33.872,hesp_baseline,2021.2.3,Win32,60.0024001
,,,,,,,,,,,,,,,,,monvegnél,monvegnál,left,4.1088,0,85,85,26,1,27,monveg,monveg,nál,e,Ez itt egy monveg.,Nincs is jobb egy jó...,monvegnél,monvegnál,dzsungel,NA,NA,PR2083,2000,nő,nem,2022-04-19_19h17.33.872,hesp_baseline,2021.2.3,Win32,60.0024001
,,,,,,,,,,,,,,,,,püzöztök,püzlötök,left,6.211,0,86,86,152,1,45,püzlik / püzözik,"püzlik, püzözni",tek,NA,"János imád püzözni, ezért sokat püzlik.",Ti ritkán...,püzlötök,püzöztök,cselekszik,-lik,1,PR2083,2000,nő,nem,2022-04-19_19h17.33.872,hesp_baseline,2021.2.3,Win32,60.0024001
,,,,,,,,,,,,,,,,,csublényban,csublényben,right,3.5252,0,87,87,16,1,17,csublény,csublény,ban,é,Ez itt egy csublény.,Ott vagyunk a...,csublényben,csublényban,dzsungel,NA,NA,PR2083,2000,nő,nem,2022-04-19_19h17.33.872,hesp_baseline,2021.2.3,Win32,60.0024001
,,,,,,,,,,,,,,,,,tragzok,tragzom,left,1.7381,0,88,88,90,1,37,tragzik,tragzol,NA,NA,Te bizony sokat tragzol.,Én is sokat...,tragzok,tragzom,lakik,-zik,1,PR2083,2000,nő,nem,2022-04-19_19h17.33.872,hesp_baseline,2021.2.3,Win32,60.0024001
,,,,,,,,,,,,,,,,,livaklom,livaklok,right,1.9188,0,89,89,82,1,29,livaklik,livaklasz,NA,NA,Te bizony sokat livaklasz.,Én is sokat...,livaklok,livaklom,lakik,-lik,2,PR2083,2000,nő,nem,2022-04-19_19h17.33.872,hesp_baseline,2021.2.3,Win32,60.0024001
,,,,,,,,,,,,,,,,,mádépnál,mádépnél,left,3.6005,0,90,90,1,1,2,mádép,mádép,nál,é,Ez itt egy mádép.,Nincs is jobb egy jó...,mádépnél,mádépnál,dzsungel,NA,NA,PR2083,2000,nő,nem,2022-04-19_19h17.33.872,hesp_baseline,2021.2.3,Win32,60.0024001
,,,,,,,,,,,,,,,,,plövőrzök,plövőrzöm,left,12.1023,0,91,91,58,1,5,plövőrzik,plövőrzöl,NA,NA,Te bizony sokat plövőrzöl.,Én is sokat...,plövőrzök,plövőrzöm,lakik,-zik,2,PR2083,2000,nő,nem,2022-04-19_19h17.33.872,hesp_baseline,2021.2.3,Win32,60.0024001
,,,,,,,,,,,,,,,,,brivaklotok,brivakoztok,right,8.2661,0,92,92,134,1,27,brivaklik / brivakozik,"brivaklik, brivakozni",tek,NA,"János imád brivakozni, ezért sokat brivaklik.",Ti ritkán...,brivaklotok,brivakoztok,cselekszik,-lik,2,PR2083,2000,nő,nem,2022-04-19_19h17.33.872,hesp_baseline,2021.2.3,Win32,60.0024001
,,,,,,,,,,,,,,,,,klordénynak,klordénynek,right,3.3086,0,93,93,9,1,10,klordény,klordény,nak,é,Ez itt egy klordény.,Elneveztem a kutyámat...,klordénynek,klordénynak,dzsungel,NA,NA,PR2083,2000,nő,nem,2022-04-19_19h17.33.872,hesp_baseline,2021.2.3,Win32,60.0024001
,,,,,,,,,,,,,,,,,breslenek,breseznek,right,7.89,0,94,94,115,1,8,breslik / bresezik,"breslik, bresezni",nek,NA,"János imád bresezni, ezért sokat breslik.",Ők ritkán...,breslenek,breseznek,cselekszik,-lik,1,PR2083,2000,nő,nem,2022-04-19_19h17.33.872,hesp_baseline,2021.2.3,Win32,60.0024001
,,,,,,,,,,,,,,,,,gábédnál,gábédnél,left,2.8411,0,95,95,39,1,40,gábéd,gábéd,nál,é,Ez itt egy gábéd.,Nincs is jobb egy jó...,gábédnél,gábédnál,dzsungel,NA,NA,PR2083,2000,nő,nem,2022-04-19_19h17.33.872,hesp_baseline,2021.2.3,Win32,60.0024001
,,,,,,,,,,,,,,,,,zsúdelnak,zsúdelnek,right,2.0895,0,96,96,14,1,15,zsúdel,zsúdel,nak,e,Ez itt egy zsúdel.,Elneveztem a kutyámat...,zsúdelnek,zsúdelnak,dzsungel,NA,NA,PR2083,2000,nő,nem,2022-04-19_19h17.33.872,hesp_baseline,2021.2.3,Win32,60.0024001
,,,,,,,,,,,,,,,,,szibedben,szibedban,left,3.5843,0,97,97,47,1,48,szibed,szibed,ban,e,Ez itt egy szibed.,Ott vagyunk a...,szibedben,szibedban,dzsungel,NA,NA,PR2083,2000,nő,nem,2022-04-19_19h17.33.872,hesp_baseline,2021.2.3,Win32,60.0024001
,,,,,,,,,,,,,,,,,privékednek,privékszenek,left,4.7071,0,98,98,149,1,42,privékszik / privékedik,"privékszik, privékedni",nek,NA,"János imád privékedni, ezért sokat privékszik.",Ők ritkán...,privékszenek,privékednek,cselekszik,-szik,2,PR2083,2000,nő,nem,2022-04-19_19h17.33.872,hesp_baseline,2021.2.3,Win32,60.0024001
,,,,,,,,,,,,,,,,,fágyépnél,fágyépnál,left,2.634,0,99,99,10,1,11,fágyép,fágyép,nál,é,Ez itt egy fágyép.,Nincs is jobb egy jó...,fágyépnél,fágyépnál,dzsungel,NA,NA,PR2083,2000,nő,nem,2022-04-19_19h17.33.872,hesp_baseline,2021.2.3,Win32,60.0024001
,,,,,,,,,,,,,,,,,prugorzotok,prugoroztok,right,5.7339,0,100,100,116,1,9,prugorzik / prugorozik,"prugorzik, prugorozni",tek,NA,"János imád prugorozni, ezért sokat prugorzik.",Ti ritkán...,prugorzotok,prugoroztok,cselekszik,-zik,2,PR2083,2000,nő,nem,2022-04-19_19h17.33.872,hesp_baseline,2021.2.3,Win32,60.0024001
,,,,,,,,,,,,,,,,,spibádzom,spibádzok,right,4.4839,0,101,101,65,1,12,spibádzik,spibádzol,NA,NA,Te bizony sokat spibádzol.,Én is sokat...,spibádzok,spibádzom,lakik,-zik,2,PR2083,2000,nő,nem,2022-04-19_19h17.33.872,hesp_baseline,2021.2.3,Win32,60.0024001
,,,,,,,,,,,,,,,,,priszkencnek,priszkencnak,left,7.2368,0,102,102,20,1,21,priszkenc,priszkenc,nak,e,Ez itt egy priszkenc.,Elneveztem a kutyámat...,priszkencnek,priszkencnak,dzsungel,NA,NA,PR2083,2000,nő,nem,2022-04-19_19h17.33.872,hesp_baseline,2021.2.3,Win32,60.0024001
,,,,,,,,,,,,,,,,,bralképban,bralképben,right,5.5674,0,103,103,12,1,13,bralkép,bralkép,ban,é,Ez itt egy bralkép.,Ott vagyunk a...,bralképben,bralképban,dzsungel,NA,NA,PR2083,2000,nő,nem,2022-04-19_19h17.33.872,hesp_baseline,2021.2.3,Win32,60.0024001
,,,,,,,,,,,,,,,,,tarhézben,tarhézban,left,2.9006,0,104,104,25,1,26,tarhéz,tarhéz,ban,é,Ez itt egy tarhéz.,Ott vagyunk a...,tarhézben,tarhézban,dzsungel,NA,NA,PR2083,2000,nő,nem,2022-04-19_19h17.33.872,hesp_baseline,2021.2.3,Win32,60.0024001
,,,,,,,,,,,,,,,,,rokszom,rokszok,right,2.4007,0,105,105,101,1,48,rokszik,rokszol,NA,NA,Te bizony sokat rokszol.,Én is sokat...,rokszok,rokszom,lakik,-szik,1,PR2083,2000,nő,nem,2022-04-19_19h17.33.872,hesp_baseline,2021.2.3,Win32,60.0024001
,,,,,,,,,,,,,,,,,tágarozunk,tágarzunk,right,3.0342,0,106,106,155,1,48,tágarzik / tágarozik,"tágarzik, tágarozni",ünk,NA,"János imád tágarozni, ezért sokat tágarzik.",Mi ritkán...,tágarzunk,tágarozunk,cselekszik,-zik,2,PR2083,2000,nő,nem,2022-04-19_19h17.33.872,hesp_baseline,2021.2.3,Win32,60.0024001
,,,,,,,,,,,,,,,,,pörzötök,pöröztök,right,4.7008,0,107,107,153,1,46,pörzik / pörözik,"pörzik, pörözni",tek,NA,"János imád pörözni, ezért sokat pörzik.",Ti ritkán...,pörzötök,pöröztök,cselekszik,-zik,1,PR2083,2000,nő,nem,2022-04-19_19h17.33.872,hesp_baseline,2021.2.3,Win32,60.0024001
,,,,,,,,,,,,,,,,,buhényban,buhényben,left,3.5518,0,108,108,43,1,44,buhény,buhény,ban,é,Ez itt egy buhény.,Ott vagyunk a...,buhényben,buhényban,dzsungel,NA,NA,PR2083,2000,nő,nem,2022-04-19_19h17.33.872,hesp_baseline,2021.2.3,Win32,60.0024001
,,,,,,,,,,,,,,,,,jukélnél,jukélnál,left,3.6673,0,109,109,42,1,43,jukél,jukél,nál,é,Ez itt egy jukél.,Nincs is jobb egy jó...,jukélnél,jukélnál,dzsungel,NA,NA,PR2083,2000,nő,nem,2022-04-19_19h17.33.872,hesp_baseline,2021.2.3,Win32,60.0024001
,,,,,,,,,,,,,,,,,narádzok,narádzom,left,1.6914,0,110,110,63,1,10,narádzik,narádzol,NA,NA,Te bizony sokat narádzol.,Én is sokat...,narádzok,narádzom,lakik,-zik,2,PR2083,2000,nő,nem,2022-04-19_19h17.33.872,hesp_baseline,2021.2.3,Win32,60.0024001
,,,,,,,,,,,,,,,,,frélegzünk,frélegezünk,left,3.7616,0,111,111,147,1,40,frélegzik / frélegezik,"frélegzik, frélegezni",ünk,NA,"János imád frélegezni, ezért sokat frélegzik.",Mi ritkán...,frélegzünk,frélegezünk,cselekszik,-zik,2,PR2083,2000,nő,nem,2022-04-19_19h17.33.872,hesp_baseline,2021.2.3,Win32,60.0024001
,,,,,,,,,,,,,,,,,lorzensnél,lorzensnál,left,4.0696,0,112,112,34,1,35,lorzens,lorzens,nál,e,Ez itt egy lorzens.,Nincs is jobb egy jó...,lorzensnél,lorzensnál,dzsungel,NA,NA,PR2083,2000,nő,nem,2022-04-19_19h17.33.872,hesp_baseline,2021.2.3,Win32,60.0024001
,,,,,,,,,,,,,,,,,vihapodunk,vihapszunk,left,3.6851,0,113,113,112,1,5,vihapszik / vihapodik,"vihapszik, vihapodni",ünk,NA,"János imád vihapodni, ezért sokat vihapszik.",Mi ritkán...,vihapszunk,vihapodunk,cselekszik,-szik,2,PR2083,2000,nő,nem,2022-04-19_19h17.33.872,hesp_baseline,2021.2.3,Win32,60.0024001
,,,,,,,,,,,,,,,,,dábegyban,dábegyben,right,3.5346,0,114,114,6,1,7,dábegy,dábegy,ban,e,Ez itt egy dábegy.,Ott vagyunk a...,dábegyben,dábegyban,dzsungel,NA,NA,PR2083,2000,nő,nem,2022-04-19_19h17.33.872,hesp_baseline,2021.2.3,Win32,60.0024001
,,,,,,,,,,,,,,,,,gyibeslek,gyibeslem,left,3.6006,0,115,115,98,1,45,gyibeslik,gyibeslesz,NA,NA,Te bizony sokat gyibeslesz.,Én is sokat...,gyibeslek,gyibeslem,lakik,-lik,2,PR2083,2000,nő,nem,2022-04-19_19h17.33.872,hesp_baseline,2021.2.3,Win32,60.0024001
,,,,,,,,,,,,,,,,,huklok,huklom,left,2.6187,0,116,116,78,1,25,huklik,huklasz,NA,NA,Te bizony sokat huklasz.,Én is sokat...,huklok,huklom,lakik,-lik,1,PR2083,2000,nő,nem,2022-04-19_19h17.33.872,hesp_baseline,2021.2.3,Win32,60.0024001
,,,,,,,,,,,,,,,,,gihejezünk,gihejlünk,right,5.9874,0,117,117,146,1,39,gihejlik / gihejezik,"gihejlik, gihejezni",ünk,NA,"János imád gihejezni, ezért sokat gihejlik.",Mi ritkán...,gihejlünk,gihejezünk,cselekszik,-lik,2,PR2083,2000,nő,nem,2022-04-19_19h17.33.872,hesp_baseline,2021.2.3,Win32,60.0024001
,,,,,,,,,,,,,,,,,frihegezünk,friheglünk,right,2.4701,0,118,118,132,1,25,friheglik / frihegezik,"friheglik, frihegezni",ünk,NA,"János imád frihegezni, ezért sokat friheglik.",Mi ritkán...,friheglünk,frihegezünk,cselekszik,-lik,2,PR2083,2000,nő,nem,2022-04-19_19h17.33.872,hesp_baseline,2021.2.3,Win32,60.0024001
,,,,,,,,,,,,,,,,,pebzek,pebzem,left,2.9844,0,119,119,57,1,4,pebzik,pebzel,NA,NA,Te bizony sokat pebzel.,Én is sokat...,pebzek,pebzem,lakik,-zik,1,PR2083,2000,nő,nem,2022-04-19_19h17.33.872,hesp_baseline,2021.2.3,Win32,60.0024001
,,,,,,,,,,,,,,,,,dutecnál,dutecnél,right,4.4724,0,120,120,22,1,23,dutec,dutec,nál,e,Ez itt egy dutec.,Nincs is jobb egy jó...,dutecnél,dutecnál,dzsungel,NA,NA,PR2083,2000,nő,nem,2022-04-19_19h17.33.872,hesp_baseline,2021.2.3,Win32,60.0024001
,,,,,,,,,,,,,,,,,klörlöm,klörlök,right,1.4174,0,121,121,80,1,27,klörlik,klörlesz,NA,NA,Te bizony sokat klörlesz.,Én is sokat...,klörlök,klörlöm,lakik,-lik,1,PR2083,2000,nő,nem,2022-04-19_19h17.33.872,hesp_baseline,2021.2.3,Win32,60.0024001
,,,,,,,,,,,,,,,,,lihénynak,lihénynek,right,2.577,0,122,122,23,1,24,lihény,lihény,nak,é,Ez itt egy lihény.,Elneveztem a kutyámat...,lihénynek,lihénynak,dzsungel,NA,NA,PR2083,2000,nő,nem,2022-04-19_19h17.33.872,hesp_baseline,2021.2.3,Win32,60.0024001
,,,,,,,,,,,,,,,,,vülődzöm,vülődzök,right,1.534,0,123,123,81,1,28,vülődzik,vülődzöl,NA,NA,Te bizony sokat vülődzöl.,Én is sokat...,vülődzök,vülődzöm,lakik,-zik,2,PR2083,2000,nő,nem,2022-04-19_19h17.33.872,hesp_baseline,2021.2.3,Win32,60.0024001
,,,,,,,,,,,,,,,,,bötőrözünk,bötőrzünk,right,7.5531,0,124,124,158,1,51,bötőrzik / bötőrözik,"bötőrzik, bötőrözni",ünk,NA,"János imád bötőrözni, ezért sokat bötőrzik.",Mi ritkán...,bötőrzünk,bötőrözünk,cselekszik,-zik,2,PR2083,2000,nő,nem,2022-04-19_19h17.33.872,hesp_baseline,2021.2.3,Win32,60.0024001
,,,,,,,,,,,,,,,,,csibagoztok,csibagzotok,right,1.8172,0,125,125,114,1,7,csibagzik / csibagozik,"csibagzik, csibagozni",tek,NA,"János imád csibagozni, ezért sokat csibagzik.",Ti ritkán...,csibagzotok,csibagoztok,cselekszik,-zik,2,PR2083,2000,nő,nem,2022-04-19_19h17.33.872,hesp_baseline,2021.2.3,Win32,60.0024001
,,,,,,,,,,,,,,,,,hilarzok,hilarzom,left,1.6381,0,126,126,69,1,16,hilarzik,hilarzol,NA,NA,Te bizony sokat hilarzol.,Én is sokat...,hilarzok,hilarzom,lakik,-zik,2,PR2083,2000,nő,nem,2022-04-19_19h17.33.872,hesp_baseline,2021.2.3,Win32,60.0024001
,,,,,,,,,,,,,,,,,bejezünk,bejzünk,right,2.184,0,127,127,148,1,41,bejzik / bejezik,"bejzik, bejezni",ünk,NA,"János imád bejezni, ezért sokat bejzik.",Mi ritkán...,bejzünk,bejezünk,cselekszik,-zik,1,PR2083,2000,nő,nem,2022-04-19_19h17.33.872,hesp_baseline,2021.2.3,Win32,60.0024001
,,,,,,,,,,,,,,,,,sprimlunk,sprimozunk,left,5.194,0,128,128,127,1,20,sprimlik / sprimozik,"sprimlik, sprimozni",ünk,NA,"János imád sprimozni, ezért sokat sprimlik.",Mi ritkán...,sprimlunk,sprimozunk,cselekszik,-lik,1,PR2083,2000,nő,nem,2022-04-19_19h17.33.872,hesp_baseline,2021.2.3,Win32,60.0024001
,,,,,,,,,,,,,,,,,riványoztok,riványlotok,right,5.4924,0,129,129,117,1,10,riványlik / riványozik,"riványlik, riványozni",tek,NA,"János imád riványozni, ezért sokat riványlik.",Ti ritkán...,riványlotok,riványoztok,cselekszik,-lik,2,PR2083,2000,nő,nem,2022-04-19_19h17.33.872,hesp_baseline,2021.2.3,Win32,60.0024001
,,,,,,,,,,,,,,,,,nyülöklenek,nyülököznek,left,3.9341,0,130,130,108,1,1,nyülöklik / nyülöközik,"nyülöklik, nyülöközni",nek,NA,"János imád nyülöközni, ezért sokat nyülöklik.",Ők ritkán...,nyülöklenek,nyülököznek,cselekszik,-lik,2,PR2083,2000,nő,nem,2022-04-19_19h17.33.872,hesp_baseline,2021.2.3,Win32,60.0024001
,,,,,,,,,,,,,,,,,dunkészben,dunkészban,left,2.2007,0,131,131,24,1,25,dunkész,dunkész,ban,é,Ez itt egy dunkész.,Ott vagyunk a...,dunkészben,dunkészban,dzsungel,NA,NA,PR2083,2000,nő,nem,2022-04-19_19h17.33.872,hesp_baseline,2021.2.3,Win32,60.0024001
,,,,,,,,,,,,,,,,,prögöztök,prögzötök,right,2.3934,0,132,132,151,1,44,prögzik / prögözik,"prögzik, prögözni",tek,NA,"János imád prögözni, ezért sokat prögzik.",Ti ritkán...,prögzötök,prögöztök,cselekszik,-zik,1,PR2083,2000,nő,nem,2022-04-19_19h17.33.872,hesp_baseline,2021.2.3,Win32,60.0024001
,,,,,,,,,,,,,,,,,gonszéknél,gonszéknál,left,7.7509,0,133,133,38,1,39,gonszék,gonszék,nál,é,Ez itt egy gonszék.,Nincs is jobb egy jó...,gonszéknél,gonszéknál,dzsungel,NA,NA,PR2083,2000,nő,nem,2022-04-19_19h17.33.872,hesp_baseline,2021.2.3,Win32,60.0024001
,,,,,,,,,,,,,,,,,vodépnek,vodépnak,left,2.1172,0,134,134,41,1,42,vodép,vodép,nak,é,Ez itt egy vodép.,Elneveztem a kutyámat...,vodépnek,vodépnak,dzsungel,NA,NA,PR2083,2000,nő,nem,2022-04-19_19h17.33.872,hesp_baseline,2021.2.3,Win32,60.0024001
,,,,,,,,,,,,,,,,,spilágzom,spilágzok,right,1.8779,0,135,135,76,1,23,spilágzik,spilágzol,NA,NA,Te bizony sokat spilágzol.,Én is sokat...,spilágzok,spilágzom,lakik,-zik,2,PR2083,2000,nő,nem,2022-04-19_19h17.33.872,hesp_baseline,2021.2.3,Win32,60.0024001
,,,,,,,,,,,,,,,,,prélemeznek,prélemlenek,right,2.7339,0,136,136,110,1,3,prélemlik / prélemezik,"prélemlik, prélemezni",nek,NA,"János imád prélemezni, ezért sokat prélemlik.",Ők ritkán...,prélemlenek,prélemeznek,cselekszik,-lik,2,PR2083,2000,nő,nem,2022-04-19_19h17.33.872,hesp_baseline,2021.2.3,Win32,60.0024001
,,,,,,,,,,,,,,,,,spélszek,spélszem,left,3.334,0,137,137,68,1,15,spélszik,spélszel,NA,NA,Te bizony sokat spélszel.,Én is sokat...,spélszek,spélszem,lakik,-szik,1,PR2083,2000,nő,nem,2022-04-19_19h17.33.872,hesp_baseline,2021.2.3,Win32,60.0024001
,,,,,,,,,,,,,,,,,flivegzenek,flivegeznek,left,4.6702,0,138,138,138,1,31,flivegzik / flivegezik,"flivegzik, flivegezni",nek,NA,"János imád flivegezni, ezért sokat flivegzik.",Ők ritkán...,flivegzenek,flivegeznek,cselekszik,-zik,2,PR2083,2000,nő,nem,2022-04-19_19h17.33.872,hesp_baseline,2021.2.3,Win32,60.0024001
,,,,,,,,,,,,,,,,,gyivádzok,gyivádzom,left,1.5896,0,139,139,87,1,34,gyivádzik,gyivádzol,NA,NA,Te bizony sokat gyivádzol.,Én is sokat...,gyivádzok,gyivádzom,lakik,-zik,2,PR2083,2000,nő,nem,2022-04-19_19h17.33.872,hesp_baseline,2021.2.3,Win32,60.0024001
,,,,,,,,,,,,,,,,,vismernál,vismernél,right,2.8176,0,140,140,13,1,14,vismer,vismer,nál,e,Ez itt egy vismer.,Nincs is jobb egy jó...,vismernél,vismernál,dzsungel,NA,NA,PR2083,2000,nő,nem,2022-04-19_19h17.33.872,hesp_baseline,2021.2.3,Win32,60.0024001
,,,,,,,,,,,,,,,,,trodélyben,trodélyban,right,3.0096,0,141,141,28,1,29,trodély,trodély,ban,é,Ez itt egy trodély.,Ott vagyunk a...,trodélyben,trodélyban,dzsungel,NA,NA,PR2083,2000,nő,nem,2022-04-19_19h17.33.872,hesp_baseline,2021.2.3,Win32,60.0024001
,,,,,,,,,,,,,,,,,lörűdzök,lörűdzöm,left,2.8115,0,142,142,77,1,24,lörűdzik,lörűdzöl,NA,NA,Te bizony sokat lörűdzöl.,Én is sokat...,lörűdzök,lörűdzöm,lakik,-zik,2,PR2083,2000,nő,nem,2022-04-19_19h17.33.872,hesp_baseline,2021.2.3,Win32,60.0024001
,,,,,,,,,,,,,,,,,flagárzom,flagárzok,right,2.1174,0,143,143,64,1,11,flagárzik,flagárzol,NA,NA,Te bizony sokat flagárzol.,Én is sokat...,flagárzok,flagárzom,lakik,-zik,2,PR2083,2000,nő,nem,2022-04-19_19h17.33.872,hesp_baseline,2021.2.3,Win32,60.0024001
,,,,,,,,,,,,,,,,,incéjnek,incéjnak,left,1.9391,0,144,144,30,1,31,incéj,incéj,nak,é,Ez itt egy incéj.,Elneveztem a kutyámat...,incéjnek,incéjnak,dzsungel,NA,NA,PR2083,2000,nő,nem,2022-04-19_19h17.33.872,hesp_baseline,2021.2.3,Win32,60.0024001
,,,,,,,,,,,,,,,,,brüszöztök,brüszlötök,right,3.6005,0,145,145,130,1,23,brüszlik / brüszözik,"brüszlik, brüszözni",tek,NA,"János imád brüszözni, ezért sokat brüszlik.",Ti ritkán...,brüszlötök,brüszöztök,cselekszik,-lik,1,PR2083,2000,nő,nem,2022-04-19_19h17.33.872,hesp_baseline,2021.2.3,Win32,60.0024001
,,,,,,,,,,,,,,,,,zopélynál,zopélynél,left,3.0574,0,146,146,5,1,6,zopély,zopély,nál,é,Ez itt egy zopély.,Nincs is jobb egy jó...,zopélynél,zopélynál,dzsungel,NA,NA,PR2083,2000,nő,nem,2022-04-19_19h17.33.872,hesp_baseline,2021.2.3,Win32,60.0024001
,,,,,,,,,,,,,,,,,hijegynél,hijegynál,left,4.6898,0,147,147,4,1,5,hijegy,hijegy,nál,e,Ez itt egy hijegy.,Nincs is jobb egy jó...,hijegynél,hijegynál,dzsungel,NA,NA,PR2083,2000,nő,nem,2022-04-19_19h17.33.872,hesp_baseline,2021.2.3,Win32,60.0024001
,,,,,,,,,,,,,,,,,spicetnak,spicetnek,right,3.1922,0,148,148,35,1,36,spicet,spicet,nak,e,Ez itt egy spicet.,Elneveztem a kutyámat...,spicetnek,spicetnak,dzsungel,NA,NA,PR2083,2000,nő,nem,2022-04-19_19h17.33.872,hesp_baseline,2021.2.3,Win32,60.0024001
,,,,,,,,,,,,,,,,,trihagzok,trihagzom,left,2.939,0,149,149,83,1,30,trihagzik,trihagzol,NA,NA,Te bizony sokat trihagzol.,Én is sokat...,trihagzok,trihagzom,lakik,-zik,2,PR2083,2000,nő,nem,2022-04-19_19h17.33.872,hesp_baseline,2021.2.3,Win32,60.0024001
,,,,,,,,,,,,,,,,,zsopédban,zsopédben,right,4.1009,0,150,150,50,1,51,zsopéd,zsopéd,ban,é,Ez itt egy zsopéd.,Ott vagyunk a...,zsopédben,zsopédban,dzsungel,NA,NA,PR2083,2000,nő,nem,2022-04-19_19h17.33.872,hesp_baseline,2021.2.3,Win32,60.0024001
,,,,,,,,,,,,,,,,,jüslök,jüslöm,left,3.6858,0,151,151,56,1,3,jüslik,jüslesz,NA,NA,Te bizony sokat jüslesz.,Én is sokat...,jüslök,jüslöm,lakik,-lik,1,PR2083,2000,nő,nem,2022-04-19_19h17.33.872,hesp_baseline,2021.2.3,Win32,60.0024001
,,,,,,,,,,,,,,,,,klaráglok,klaráglom,left,6.3674,0,152,152,91,1,38,klaráglik,klaráglasz,NA,NA,Te bizony sokat klaráglasz.,Én is sokat...,klaráglok,klaráglom,lakik,-lik,2,PR2083,2000,nő,nem,2022-04-19_19h17.33.872,hesp_baseline,2021.2.3,Win32,60.0024001
,,,,,,,,,,,,,,,,,filágzok,filágzom,left,2.0507,0,153,153,102,1,49,filágzik,filágzol,NA,NA,Te bizony sokat filágzol.,Én is sokat...,filágzok,filágzom,lakik,-zik,2,PR2083,2000,nő,nem,2022-04-19_19h17.33.872,hesp_baseline,2021.2.3,Win32,60.0024001
,,,,,,,,,,,,,,,,,préleglem,préleglek,right,6.0075,0,154,154,104,1,51,préleglik,préleglesz,NA,NA,Te bizony sokat préleglesz.,Én is sokat...,préleglek,préleglem,lakik,-lik,2,PR2083,2000,nő,nem,2022-04-19_19h17.33.872,hesp_baseline,2021.2.3,Win32,60.0024001
,,,,,,,,,,,,,,,,,herégszem,herégszek,right,2.8579,0,155,155,54,1,1,herégszik,herégszel,NA,NA,Te bizony sokat herégszel.,Én is sokat...,herégszek,herégszem,lakik,-szik,2,PR2083,2000,nő,nem,2022-04-19_19h17.33.872,hesp_baseline,2021.2.3,Win32,60.0024001
,,,,,,,,,,,,,,,,,klihaslotok,klihasoztok,left,5.7615,0,156,156,156,1,49,klihaslik / klihasozik,"klihaslik, klihasozni",tek,NA,"János imád klihasozni, ezért sokat klihaslik.",Ti ritkán...,klihaslotok,klihasoztok,cselekszik,-lik,2,PR2083,2000,nő,nem,2022-04-19_19h17.33.872,hesp_baseline,2021.2.3,Win32,60.0024001
,,,,,,,,,,,,,,,,,spábétban,spábétben,left,3.4218,0,157,157,51,1,52,spábét,spábét,ban,é,Ez itt egy spábét.,Ott vagyunk a...,spábétben,spábétban,dzsungel,NA,NA,PR2083,2000,nő,nem,2022-04-19_19h17.33.872,hesp_baseline,2021.2.3,Win32,60.0024001
,,,,,,,,,,,,,,,,,feténylem,feténylek,right,3.159,0,158,158,85,1,32,feténylik,feténylesz,NA,NA,Te bizony sokat feténylesz.,Én is sokat...,feténylek,feténylem,lakik,-lik,2,PR2083,2000,nő,nem,2022-04-19_19h17.33.872,hesp_baseline,2021.2.3,Win32,60.0024001
,,,,,,,,,,,,,,,,,pugoslom,pugoslok,right,1.8588,0,159,159,84,1,31,pugoslik,pugoslasz,NA,NA,Te bizony sokat pugoslasz.,Én is sokat...,pugoslok,pugoslom,lakik,-lik,2,PR2083,2000,nő,nem,2022-04-19_19h17.33.872,hesp_baseline,2021.2.3,Win32,60.0024001
,,,,,,,,,,,,,,,,,frinyozunk,frinylunk,left,5.4433,0,160,160,133,1,26,frinylik / frinyozik,"frinylik, frinyozni",ünk,NA,"János imád frinyozni, ezért sokat frinylik.",Mi ritkán...,frinylunk,frinyozunk,cselekszik,-lik,1,PR2083,2000,nő,nem,2022-04-19_19h17.33.872,hesp_baseline,2021.2.3,Win32,60.0024001
,,,,,,,,,,,,,,,,,bölszök,bölszöm,left,2.5875,0,161,161,105,1,52,bölszik,bölszöl,NA,NA,Te bizony sokat bölszöl.,Én is sokat...,bölszök,bölszöm,lakik,-szik,1,PR2083,2000,nő,nem,2022-04-19_19h17.33.872,hesp_baseline,2021.2.3,Win32,60.0024001
