my_list,key.keys,key.rt,key_2.keys,key_2.rt,keyboard_input_2.keys,keyboard_input_2.rt,key_3.keys,key_3.rt,keyboard_input_3.keys,keyboard_input_3.rt,key_4.keys,key_4.rt,keyboard_input_4.keys,keyboard_input_4.rt,key_5.keys,key_5.rt,my_button1,my_button2,keyboard_input.keys,keyboard_input.rt,withinBlock.thisRepN,withinBlock.thisTrialN,withinBlock.thisN,withinBlock.thisIndex,withinBlock.ran,rowname,word,prompt,suffix,vowel,carrier_sentence,target_sentence,target1,target2,category,derivational,nsyl,Azonosító,Melyik évben születtél?,Mi a nemed?,Tanultál nyelvészetet?,date,expName,psychopyVersion,OS,frameRate
list3.csv,space,179.2213,space,13.0654,right,10.3136,space,16.8517,left,15.8798,space,11.0873,left,10.2321,space,19.6483,vűjlöm,vűjlök,left,30.845,0,0,0,94,1,149,vűjlik,vűjlesz,NA,NA,Te bizony sokat vűjlesz.,Én is sokat...,vűjlök,vűjlöm,lakik,-lik,1,PR2064,1973.10.07.,nő,nem,2022-04-15_18h09.27.240,hesp_baseline,2021.2.3,Win32,59.76214666
,,,,,,,,,,,,,,,,,spibamlanak,spibamoznak,left,20.0165,0,1,1,142,1,143,spibamlik / spibamozik,"spibamlik, spibamozni",nek,NA,"János imád spibamozni, ezért sokat spibamlik.",Ők ritkán...,spibamlanak,spibamoznak,cselekszik,-lik,2,PR2064,1973.10.07.,nő,nem,2022-04-15_18h09.27.240,hesp_baseline,2021.2.3,Win32,59.76214666
,,,,,,,,,,,,,,,,,zinednak,zinednek,right,8.5151,0,2,2,22,1,131,zined,zined,nak,e,Ez itt egy zined.,Elneveztem a kutyámat...,zinednek,zinednak,dzsungel,NA,NA,PR2064,1973.10.07.,nő,nem,2022-04-15_18h09.27.240,hesp_baseline,2021.2.3,Win32,59.76214666
,,,,,,,,,,,,,,,,,trűnylenek,trűnyöznek,left,10.8614,0,3,3,119,1,120,trűnylik / trűnyözik,"trűnylik, trűnyözni",nek,NA,"János imád trűnyözni, ezért sokat trűnylik.",Ők ritkán...,trűnylenek,trűnyöznek,cselekszik,-lik,1,PR2064,1973.10.07.,nő,nem,2022-04-15_18h09.27.240,hesp_baseline,2021.2.3,Win32,59.76214666
,,,,,,,,,,,,,,,,,prezlem,prezlek,right,8.1743,0,4,4,87,1,142,prezlik,prezlesz,NA,NA,Te bizony sokat prezlesz.,Én is sokat...,prezlek,prezlem,lakik,-lik,1,PR2064,1973.10.07.,nő,nem,2022-04-15_18h09.27.240,hesp_baseline,2021.2.3,Win32,59.76214666
,,,,,,,,,,,,,,,,,murdesnál,murdesnél,right,7.1219,0,5,5,47,1,156,murdes,murdes,nál,e,Ez itt egy murdes.,Nincs is jobb egy jó...,murdesnél,murdesnál,dzsungel,NA,NA,PR2064,1973.10.07.,nő,nem,2022-04-15_18h09.27.240,hesp_baseline,2021.2.3,Win32,59.76214666
,,,,,,,,,,,,,,,,,spülőrzöm,spülőrzök,left,21.7064,0,6,6,69,1,124,spülőrzik,spülőrzöl,NA,NA,Te bizony sokat spülőrzöl.,Én is sokat...,spülőrzök,spülőrzöm,lakik,-zik,2,PR2064,1973.10.07.,nő,nem,2022-04-15_18h09.27.240,hesp_baseline,2021.2.3,Win32,59.76214666
,,,,,,,,,,,,,,,,,zábénynak,zábénynek,right,9.9765,0,7,7,43,1,152,zábény,zábény,nak,é,Ez itt egy zábény.,Elneveztem a kutyámat...,zábénynek,zábénynak,dzsungel,NA,NA,PR2064,1973.10.07.,nő,nem,2022-04-15_18h09.27.240,hesp_baseline,2021.2.3,Win32,59.76214666
,,,,,,,,,,,,,,,,,trismélnak,trismélnek,right,6.3501,0,8,8,5,1,114,trismél,trismél,nak,é,Ez itt egy trismél.,Elneveztem a kutyámat...,trismélnek,trismélnak,dzsungel,NA,NA,PR2064,1973.10.07.,nő,nem,2022-04-15_18h09.27.240,hesp_baseline,2021.2.3,Win32,59.76214666
,,,,,,,,,,,,,,,,,spuboroznak,spuborzanak,left,10.4675,0,9,9,161,1,162,spuborzik / spuborozik,"spuborzik, spuborozni",nek,NA,"János imád spuborozni, ezért sokat spuborzik.",Ők ritkán...,spuborzanak,spuboroznak,cselekszik,-zik,2,PR2064,1973.10.07.,nő,nem,2022-04-15_18h09.27.240,hesp_baseline,2021.2.3,Win32,59.76214666
,,,,,,,,,,,,,,,,,sprivencnál,sprivencnél,right,5.1208,0,10,10,13,1,122,sprivenc,sprivenc,nál,e,Ez itt egy sprivenc.,Nincs is jobb egy jó...,sprivencnél,sprivencnál,dzsungel,NA,NA,PR2064,1973.10.07.,nő,nem,2022-04-15_18h09.27.240,hesp_baseline,2021.2.3,Win32,59.76214666
,,,,,,,,,,,,,,,,,trilekszetek,trilekedtek,right,9.6137,0,11,11,157,1,158,trilekszik / trilekedik,"trilekszik, trilekedni",tek,NA,"János imád trilekedni, ezért sokat trilekszik.",Ti ritkán...,trilekszetek,trilekedtek,cselekszik,-szik,2,PR2064,1973.10.07.,nő,nem,2022-04-15_18h09.27.240,hesp_baseline,2021.2.3,Win32,59.76214666
,,,,,,,,,,,,,,,,,sztruglok,sztruglom,right,7.411,0,12,12,67,1,122,sztruglik,sztruglasz,NA,NA,Te bizony sokat sztruglasz.,Én is sokat...,sztruglok,sztruglom,lakik,-lik,1,PR2064,1973.10.07.,nő,nem,2022-04-15_18h09.27.240,hesp_baseline,2021.2.3,Win32,59.76214666
,,,,,,,,,,,,,,,,,voboztok,vobzotok,left,20.9571,0,13,13,158,1,159,vobzik / vobozik,"vobzik, vobozni",tek,NA,"János imád vobozni, ezért sokat vobzik.",Ti ritkán...,vobzotok,voboztok,cselekszik,-zik,1,PR2064,1973.10.07.,nő,nem,2022-04-15_18h09.27.240,hesp_baseline,2021.2.3,Win32,59.76214666
,,,,,,,,,,,,,,,,,drivegzetek,drivegeztek,right,31.7123,0,14,14,112,1,113,drivegzik / drivegezik,"drivegzik, drivegezni",tek,NA,"János imád drivegezni, ezért sokat drivegzik.",Ti ritkán...,drivegzetek,drivegeztek,cselekszik,-zik,2,PR2064,1973.10.07.,nő,nem,2022-04-15_18h09.27.240,hesp_baseline,2021.2.3,Win32,59.76214666
,,,,,,,,,,,,,,,,,zatéjnál,zatéjnél,right,10.7506,0,15,15,34,1,143,zatéj,zatéj,nál,é,Ez itt egy zatéj.,Nincs is jobb egy jó...,zatéjnél,zatéjnál,dzsungel,NA,NA,PR2064,1973.10.07.,nő,nem,2022-04-15_18h09.27.240,hesp_baseline,2021.2.3,Win32,59.76214666
,,,,,,,,,,,,,,,,,táklok,táklom,right,6.874,0,16,16,79,1,134,táklik,táklasz,NA,NA,Te bizony sokat táklasz.,Én is sokat...,táklok,táklom,lakik,-lik,1,PR2064,1973.10.07.,nő,nem,2022-04-15_18h09.27.240,hesp_baseline,2021.2.3,Win32,59.76214666
,,,,,,,,,,,,,,,,,dibezban,dibezben,right,7.2176,0,17,17,27,1,136,dibez,dibez,ban,e,Ez itt egy dibez.,Ott vagyunk a...,dibezben,dibezban,dzsungel,NA,NA,PR2064,1973.10.07.,nő,nem,2022-04-15_18h09.27.240,hesp_baseline,2021.2.3,Win32,59.76214666
,,,,,,,,,,,,,,,,,pragányoztok,pragánylotok,left,13.941,0,18,18,133,1,134,pragánylik / pragányozik,"pragánylik, pragányozni",tek,NA,"János imád pragányozni, ezért sokat pragánylik.",Ti ritkán...,pragánylotok,pragányoztok,cselekszik,-lik,2,PR2064,1973.10.07.,nő,nem,2022-04-15_18h09.27.240,hesp_baseline,2021.2.3,Win32,59.76214666
,,,,,,,,,,,,,,,,,pibegzenek,pibegeznek,right,9.0337,0,19,19,127,1,128,pibegzik / pibegezik,"pibegzik, pibegezni",nek,NA,"János imád pibegezni, ezért sokat pibegzik.",Ők ritkán...,pibegzenek,pibegeznek,cselekszik,-zik,2,PR2064,1973.10.07.,nő,nem,2022-04-15_18h09.27.240,hesp_baseline,2021.2.3,Win32,59.76214666
,,,,,,,,,,,,,,,,,düjzöm,düjzök,left,11.5116,0,20,20,97,1,152,düjzik,düjzöl,NA,NA,Te bizony sokat düjzöl.,Én is sokat...,düjzök,düjzöm,lakik,-zik,1,PR2064,1973.10.07.,nő,nem,2022-04-15_18h09.27.240,hesp_baseline,2021.2.3,Win32,59.76214666
,,,,,,,,,,,,,,,,,diroztok,dirlotok,right,5.7385,0,21,21,148,1,149,dirlik / dirozik,"dirlik, dirozni",tek,NA,"János imád dirozni, ezért sokat dirlik.",Ti ritkán...,dirlotok,diroztok,cselekszik,-lik,1,PR2064,1973.10.07.,nő,nem,2022-04-15_18h09.27.240,hesp_baseline,2021.2.3,Win32,59.76214666
,,,,,,,,,,,,,,,,,sprálszom,sprálszok,right,9.5367,0,22,22,65,1,120,sprálszik,sprálszol,NA,NA,Te bizony sokat sprálszol.,Én is sokat...,sprálszok,sprálszom,lakik,-szik,1,PR2064,1973.10.07.,nő,nem,2022-04-15_18h09.27.240,hesp_baseline,2021.2.3,Win32,59.76214666
,,,,,,,,,,,,,,,,,nyarcéjnek,nyarcéjnak,left,15.3272,0,23,23,37,1,146,nyarcéj,nyarcéj,nak,é,Ez itt egy nyarcéj.,Elneveztem a kutyámat...,nyarcéjnek,nyarcéjnak,dzsungel,NA,NA,PR2064,1973.10.07.,nő,nem,2022-04-15_18h09.27.240,hesp_baseline,2021.2.3,Win32,59.76214666
,,,,,,,,,,,,,,,,,sztrijzom,sztrijzok,left,6.8292,0,24,24,68,1,123,sztrijzik,sztrijzol,NA,NA,Te bizony sokat sztrijzol.,Én is sokat...,sztrijzok,sztrijzom,lakik,-zik,1,PR2064,1973.10.07.,nő,nem,2022-04-15_18h09.27.240,hesp_baseline,2021.2.3,Win32,59.76214666
,,,,,,,,,,,,,,,,,szutendban,szutendben,right,8.6668,0,25,25,11,1,120,szutend,szutend,ban,e,Ez itt egy szutend.,Ott vagyunk a...,szutendben,szutendban,dzsungel,NA,NA,PR2064,1973.10.07.,nő,nem,2022-04-15_18h09.27.240,hesp_baseline,2021.2.3,Win32,59.76214666
,,,,,,,,,,,,,,,,,huméknak,huméknek,right,8.5592,0,26,26,23,1,132,humék,humék,nak,é,Ez itt egy humék.,Elneveztem a kutyámat...,huméknek,huméknak,dzsungel,NA,NA,PR2064,1973.10.07.,nő,nem,2022-04-15_18h09.27.240,hesp_baseline,2021.2.3,Win32,59.76214666
,,,,,,,,,,,,,,,,,tuboklok,tuboklom,right,8.0742,0,27,27,84,1,139,tuboklik,tuboklasz,NA,NA,Te bizony sokat tuboklasz.,Én is sokat...,tuboklok,tuboklom,lakik,-lik,2,PR2064,1973.10.07.,nő,nem,2022-04-15_18h09.27.240,hesp_baseline,2021.2.3,Win32,59.76214666
,,,,,,,,,,,,,,,,,klivaslok,klivaslom,right,7.2523,0,28,28,62,1,117,klivaslik,klivaslasz,NA,NA,Te bizony sokat klivaslasz.,Én is sokat...,klivaslok,klivaslom,lakik,-lik,2,PR2064,1973.10.07.,nő,nem,2022-04-15_18h09.27.240,hesp_baseline,2021.2.3,Win32,59.76214666
,,,,,,,,,,,,,,,,,trehégszem,trehégszek,left,11.7945,0,29,29,86,1,141,trehégszik,trehégszel,NA,NA,Te bizony sokat trehégszel.,Én is sokat...,trehégszek,trehégszem,lakik,-szik,2,PR2064,1973.10.07.,nő,nem,2022-04-15_18h09.27.240,hesp_baseline,2021.2.3,Win32,59.76214666
,,,,,,,,,,,,,,,,,klétszem,klétszek,left,5.939,0,30,30,60,1,115,klétszik,klétszel,NA,NA,Te bizony sokat klétszel.,Én is sokat...,klétszek,klétszem,lakik,-szik,1,PR2064,1973.10.07.,nő,nem,2022-04-15_18h09.27.240,hesp_baseline,2021.2.3,Win32,59.76214666
,,,,,,,,,,,,,,,,,spülöklöm,spülöklök,left,5.9751,0,31,31,56,1,111,spülöklik,spülöklesz,NA,NA,Te bizony sokat spülöklesz.,Én is sokat...,spülöklök,spülöklöm,lakik,-lik,2,PR2064,1973.10.07.,nő,nem,2022-04-15_18h09.27.240,hesp_baseline,2021.2.3,Win32,59.76214666
,,,,,,,,,,,,,,,,,csodegnál,csodegnél,right,6.0077,0,32,32,28,1,137,csodeg,csodeg,nál,e,Ez itt egy csodeg.,Nincs is jobb egy jó...,csodegnél,csodegnál,dzsungel,NA,NA,PR2064,1973.10.07.,nő,nem,2022-04-15_18h09.27.240,hesp_baseline,2021.2.3,Win32,59.76214666
,,,,,,,,,,,,,,,,,fizendben,fizendban,left,4.9306,0,33,33,49,1,158,fizend,fizend,ban,e,Ez itt egy fizend.,Ott vagyunk a...,fizendben,fizendban,dzsungel,NA,NA,PR2064,1973.10.07.,nő,nem,2022-04-15_18h09.27.240,hesp_baseline,2021.2.3,Win32,59.76214666
,,,,,,,,,,,,,,,,,zsádévnak,zsádévnek,right,4.7873,0,34,34,20,1,129,zsádév,zsádév,nak,é,Ez itt egy zsádév.,Elneveztem a kutyámat...,zsádévnek,zsádévnak,dzsungel,NA,NA,PR2064,1973.10.07.,nő,nem,2022-04-15_18h09.27.240,hesp_baseline,2021.2.3,Win32,59.76214666
,,,,,,,,,,,,,,,,,pazévnél,pazévnál,left,5.8502,0,35,35,36,1,145,pazév,pazév,nál,é,Ez itt egy pazév.,Nincs is jobb egy jó...,pazévnél,pazévnál,dzsungel,NA,NA,PR2064,1973.10.07.,nő,nem,2022-04-15_18h09.27.240,hesp_baseline,2021.2.3,Win32,59.76214666
,,,,,,,,,,,,,,,,,bratárzanak,bratároznak,right,16.3357,0,36,36,108,1,109,bratárzik / bratározik,"bratárzik, bratározni",nek,NA,"János imád bratározni, ezért sokat bratárzik.",Ők ritkán...,bratárzanak,bratároznak,cselekszik,-zik,2,PR2064,1973.10.07.,nő,nem,2022-04-15_18h09.27.240,hesp_baseline,2021.2.3,Win32,59.76214666
,,,,,,,,,,,,,,,,,gibemlünk,gibemezünk,right,9.3341,0,37,37,115,1,116,gibemlik / gibemezik,"gibemlik, gibemezni",ünk,NA,"János imád gibemezni, ezért sokat gibemlik.",Mi ritkán...,gibemlünk,gibemezünk,cselekszik,-lik,2,PR2064,1973.10.07.,nő,nem,2022-04-15_18h09.27.240,hesp_baseline,2021.2.3,Win32,59.76214666
,,,,,,,,,,,,,,,,,döjöznek,döjlenek,left,27.5302,0,38,38,129,1,130,döjlik / döjözik,"döjlik, döjözni",nek,NA,"János imád döjözni, ezért sokat döjlik.",Ők ritkán...,döjlenek,döjöznek,cselekszik,-lik,1,PR2064,1973.10.07.,nő,nem,2022-04-15_18h09.27.240,hesp_baseline,2021.2.3,Win32,59.76214666
,,,,,,,,,,,,,,,,,sűjlünk,sűjözünk,right,12.2002,0,39,39,128,1,129,sűjlik / sűjözik,"sűjlik, sűjözni",ünk,NA,"János imád sűjözni, ezért sokat sűjlik.",Mi ritkán...,sűjlünk,sűjözünk,cselekszik,-lik,1,PR2064,1973.10.07.,nő,nem,2022-04-15_18h09.27.240,hesp_baseline,2021.2.3,Win32,59.76214666
,,,,,,,,,,,,,,,,,ronszekban,ronszekben,right,5.5533,0,40,40,18,1,127,ronszek,ronszek,ban,e,Ez itt egy ronszek.,Ott vagyunk a...,ronszekben,ronszekban,dzsungel,NA,NA,PR2064,1973.10.07.,nő,nem,2022-04-15_18h09.27.240,hesp_baseline,2021.2.3,Win32,59.76214666
,,,,,,,,,,,,,,,,,braszencnél,braszencnál,left,12.1996,0,41,41,7,1,116,braszenc,braszenc,nál,e,Ez itt egy braszenc.,Nincs is jobb egy jó...,braszencnél,braszencnál,dzsungel,NA,NA,PR2064,1973.10.07.,nő,nem,2022-04-15_18h09.27.240,hesp_baseline,2021.2.3,Win32,59.76214666
,,,,,,,,,,,,,,,,,gyibakszok,gyibakszom,right,8.5157,0,42,42,57,1,112,gyibakszik,gyibakszol,NA,NA,Te bizony sokat gyibakszol.,Én is sokat...,gyibakszok,gyibakszom,lakik,-szik,2,PR2064,1973.10.07.,nő,nem,2022-04-15_18h09.27.240,hesp_baseline,2021.2.3,Win32,59.76214666
,,,,,,,,,,,,,,,,,gicéjnél,gicéjnál,left,4.6277,0,43,43,17,1,126,gicéj,gicéj,nál,é,Ez itt egy gicéj.,Nincs is jobb egy jó...,gicéjnél,gicéjnál,dzsungel,NA,NA,PR2064,1973.10.07.,nő,nem,2022-04-15_18h09.27.240,hesp_baseline,2021.2.3,Win32,59.76214666
,,,,,,,,,,,,,,,,,klibamlok,klibamlom,right,7.9049,0,44,44,92,1,147,klibamlik,klibamlasz,NA,NA,Te bizony sokat klibamlasz.,Én is sokat...,klibamlok,klibamlom,lakik,-lik,2,PR2064,1973.10.07.,nő,nem,2022-04-15_18h09.27.240,hesp_baseline,2021.2.3,Win32,59.76214666
,,,,,,,,,,,,,,,,,sztrűkszök,sztrűkszöm,right,7.1795,0,45,45,77,1,132,sztrűkszik,sztrűkszöl,NA,NA,Te bizony sokat sztrűkszöl.,Én is sokat...,sztrűkszök,sztrűkszöm,lakik,-szik,1,PR2064,1973.10.07.,nő,nem,2022-04-15_18h09.27.240,hesp_baseline,2021.2.3,Win32,59.76214666
,,,,,,,,,,,,,,,,,böjzöm,böjzök,right,7.6527,0,46,46,80,1,135,böjzik,böjzöl,NA,NA,Te bizony sokat böjzöl.,Én is sokat...,böjzök,böjzöm,lakik,-zik,1,PR2064,1973.10.07.,nő,nem,2022-04-15_18h09.27.240,hesp_baseline,2021.2.3,Win32,59.76214666
,,,,,,,,,,,,,,,,,spírzok,spírzom,right,6.4663,0,47,47,64,1,119,spírzik,spírzol,NA,NA,Te bizony sokat spírzol.,Én is sokat...,spírzok,spírzom,lakik,-zik,1,PR2064,1973.10.07.,nő,nem,2022-04-15_18h09.27.240,hesp_baseline,2021.2.3,Win32,59.76214666
,,,,,,,,,,,,,,,,,drubódzom,drubódzok,left,5.4588,0,48,48,63,1,118,drubódzik,drubódzol,NA,NA,Te bizony sokat drubódzol.,Én is sokat...,drubódzok,drubódzom,lakik,-zik,2,PR2064,1973.10.07.,nő,nem,2022-04-15_18h09.27.240,hesp_baseline,2021.2.3,Win32,59.76214666
,,,,,,,,,,,,,,,,,bivejlek,bivejlem,right,6.4425,0,49,49,73,1,128,bivejlik,bivejlesz,NA,NA,Te bizony sokat bivejlesz.,Én is sokat...,bivejlek,bivejlem,lakik,-lik,2,PR2064,1973.10.07.,nő,nem,2022-04-15_18h09.27.240,hesp_baseline,2021.2.3,Win32,59.76214666
,,,,,,,,,,,,,,,,,flátlotok,flátoztok,right,7.3342,0,50,50,132,1,133,flátlik / flátozik,"flátlik, flátozni",tek,NA,"János imád flátozni, ezért sokat flátlik.",Ti ritkán...,flátlotok,flátoztok,cselekszik,-lik,1,PR2064,1973.10.07.,nő,nem,2022-04-15_18h09.27.240,hesp_baseline,2021.2.3,Win32,59.76214666
,,,,,,,,,,,,,,,,,siladzom,siladzok,left,7.4611,0,51,51,93,1,148,siladzik,siladzol,NA,NA,Te bizony sokat siladzol.,Én is sokat...,siladzok,siladzom,lakik,-zik,2,PR2064,1973.10.07.,nő,nem,2022-04-15_18h09.27.240,hesp_baseline,2021.2.3,Win32,59.76214666
,,,,,,,,,,,,,,,,,fliraklok,fliraklom,right,5.1246,0,52,52,98,1,153,fliraklik,fliraklasz,NA,NA,Te bizony sokat fliraklasz.,Én is sokat...,fliraklok,fliraklom,lakik,-lik,2,PR2064,1973.10.07.,nő,nem,2022-04-15_18h09.27.240,hesp_baseline,2021.2.3,Win32,59.76214666
,,,,,,,,,,,,,,,,,sprozlanak,sprozoznak,right,8.9341,0,53,53,147,1,148,sprozlik / sprozozik,"sprozlik, sprozozni",nek,NA,"János imád sprozozni, ezért sokat sprozlik.",Ők ritkán...,sprozlanak,sprozoznak,cselekszik,-lik,1,PR2064,1973.10.07.,nő,nem,2022-04-15_18h09.27.240,hesp_baseline,2021.2.3,Win32,59.76214666
,,,,,,,,,,,,,,,,,lismévban,lismévben,right,4.7734,0,54,54,0,1,109,lismév,lismév,ban,é,Ez itt egy lismév.,Ott vagyunk a...,lismévben,lismévban,dzsungel,NA,NA,PR2064,1973.10.07.,nő,nem,2022-04-15_18h09.27.240,hesp_baseline,2021.2.3,Win32,59.76214666
,,,,,,,,,,,,,,,,,nágapszanak,nágapodnak,left,11.6342,0,55,55,152,1,153,nágapszik / nágapodik,"nágapszik, nágapodni",nek,NA,"János imád nágapodni, ezért sokat nágapszik.",Ők ritkán...,nágapszanak,nágapodnak,cselekszik,-szik,2,PR2064,1973.10.07.,nő,nem,2022-04-15_18h09.27.240,hesp_baseline,2021.2.3,Win32,59.76214666
,,,,,,,,,,,,,,,,,danétnél,danétnál,left,4.2435,0,56,56,38,1,147,danét,danét,nál,é,Ez itt egy danét.,Nincs is jobb egy jó...,danétnél,danétnál,dzsungel,NA,NA,PR2064,1973.10.07.,nő,nem,2022-04-15_18h09.27.240,hesp_baseline,2021.2.3,Win32,59.76214666
,,,,,,,,,,,,,,,,,pribagszom,pribagszok,left,5.464,0,57,57,76,1,131,pribagszik,pribagszol,NA,NA,Te bizony sokat pribagszol.,Én is sokat...,pribagszok,pribagszom,lakik,-szik,2,PR2064,1973.10.07.,nő,nem,2022-04-15_18h09.27.240,hesp_baseline,2021.2.3,Win32,59.76214666
,,,,,,,,,,,,,,,,,licegyben,licegyban,left,6.3717,0,58,58,15,1,124,licegy,licegy,ban,e,Ez itt egy licegy.,Ott vagyunk a...,licegyben,licegyban,dzsungel,NA,NA,PR2064,1973.10.07.,nő,nem,2022-04-15_18h09.27.240,hesp_baseline,2021.2.3,Win32,59.76214666
,,,,,,,,,,,,,,,,,lájoztok,lájzotok,right,8.0507,0,59,59,159,1,160,lájzik / lájozik,"lájzik, lájozni",tek,NA,"János imád lájozni, ezért sokat lájzik.",Ti ritkán...,lájzotok,lájoztok,cselekszik,-zik,1,PR2064,1973.10.07.,nő,nem,2022-04-15_18h09.27.240,hesp_baseline,2021.2.3,Win32,59.76214666
,,,,,,,,,,,,,,,,,vihepszek,vihepszem,right,6.5044,0,60,60,59,1,114,vihepszik,vihepszel,NA,NA,Te bizony sokat vihepszel.,Én is sokat...,vihepszek,vihepszem,lakik,-szik,2,PR2064,1973.10.07.,nő,nem,2022-04-15_18h09.27.240,hesp_baseline,2021.2.3,Win32,59.76214666
,,,,,,,,,,,,,,,,,zsáderban,zsáderben,right,4.0125,0,61,61,25,1,134,zsáder,zsáder,ban,e,Ez itt egy zsáder.,Ott vagyunk a...,zsáderben,zsáderban,dzsungel,NA,NA,PR2064,1973.10.07.,nő,nem,2022-04-15_18h09.27.240,hesp_baseline,2021.2.3,Win32,59.76214666
,,,,,,,,,,,,,,,,,zödlök,zödlöm,right,4.9848,0,62,62,106,1,161,zödlik,zödlesz,NA,NA,Te bizony sokat zödlesz.,Én is sokat...,zödlök,zödlöm,lakik,-lik,1,PR2064,1973.10.07.,nő,nem,2022-04-15_18h09.27.240,hesp_baseline,2021.2.3,Win32,59.76214666
,,,,,,,,,,,,,,,,,trájegben,trájegban,left,4.8159,0,63,63,14,1,123,trájeg,trájeg,ban,e,Ez itt egy trájeg.,Ott vagyunk a...,trájegben,trájegban,dzsungel,NA,NA,PR2064,1973.10.07.,nő,nem,2022-04-15_18h09.27.240,hesp_baseline,2021.2.3,Win32,59.76214666
,,,,,,,,,,,,,,,,,trádlok,trádlom,right,7.8696,0,64,64,105,1,160,trádlik,trádlasz,NA,NA,Te bizony sokat trádlasz.,Én is sokat...,trádlok,trádlom,lakik,-lik,1,PR2064,1973.10.07.,nő,nem,2022-04-15_18h09.27.240,hesp_baseline,2021.2.3,Win32,59.76214666
,,,,,,,,,,,,,,,,,flugonylanak,flugonyoznak,right,5.7202,0,65,65,111,1,112,flugonylik / flugonyozik,"flugonylik, flugonyozni",nek,NA,"János imád flugonyozni, ezért sokat flugonylik.",Ők ritkán...,flugonylanak,flugonyoznak,cselekszik,-lik,2,PR2064,1973.10.07.,nő,nem,2022-04-15_18h09.27.240,hesp_baseline,2021.2.3,Win32,59.76214666
,,,,,,,,,,,,,,,,,sztredeztek,sztredletek,left,7.584,0,66,66,145,1,146,sztredlik / sztredezik,"sztredlik, sztredezni",tek,NA,"János imád sztredezni, ezért sokat sztredlik.",Ti ritkán...,sztredletek,sztredeztek,cselekszik,-lik,1,PR2064,1973.10.07.,nő,nem,2022-04-15_18h09.27.240,hesp_baseline,2021.2.3,Win32,59.76214666
,,,,,,,,,,,,,,,,,drilarzunk,drilarozunk,right,6.6802,0,67,67,131,1,132,drilarzik / drilarozik,"drilarzik, drilarozni",ünk,NA,"János imád drilarozni, ezért sokat drilarzik.",Mi ritkán...,drilarzunk,drilarozunk,cselekszik,-zik,2,PR2064,1973.10.07.,nő,nem,2022-04-15_18h09.27.240,hesp_baseline,2021.2.3,Win32,59.76214666
,,,,,,,,,,,,,,,,,bűtszöm,bűtszök,left,4.8415,0,68,68,82,1,137,bűtszik,bűtszöl,NA,NA,Te bizony sokat bűtszöl.,Én is sokat...,bűtszök,bűtszöm,lakik,-szik,1,PR2064,1973.10.07.,nő,nem,2022-04-15_18h09.27.240,hesp_baseline,2021.2.3,Win32,59.76214666
,,,,,,,,,,,,,,,,,brukésznál,brukésznél,right,6.2281,0,69,69,10,1,119,brukész,brukész,nál,é,Ez itt egy brukész.,Nincs is jobb egy jó...,brukésznél,brukésznál,dzsungel,NA,NA,PR2064,1973.10.07.,nő,nem,2022-04-15_18h09.27.240,hesp_baseline,2021.2.3,Win32,59.76214666
,,,,,,,,,,,,,,,,,büglöm,büglök,left,4.7247,0,70,70,101,1,156,büglik,büglesz,NA,NA,Te bizony sokat büglesz.,Én is sokat...,büglök,büglöm,lakik,-lik,1,PR2064,1973.10.07.,nő,nem,2022-04-15_18h09.27.240,hesp_baseline,2021.2.3,Win32,59.76214666
,,,,,,,,,,,,,,,,,vehékszünk,vehékedünk,left,6.4172,0,71,71,117,1,118,vehékszik / vehékedik,"vehékszik, vehékedni",ünk,NA,"János imád vehékedni, ezért sokat vehékszik.",Mi ritkán...,vehékszünk,vehékedünk,cselekszik,-szik,2,PR2064,1973.10.07.,nő,nem,2022-04-15_18h09.27.240,hesp_baseline,2021.2.3,Win32,59.76214666
,,,,,,,,,,,,,,,,,trálszunk,trálodunk,right,7.8055,0,72,72,130,1,131,trálszik / trálodik,"trálszik, trálodni",ünk,NA,"János imád trálodni, ezért sokat trálszik.",Mi ritkán...,trálszunk,trálodunk,cselekszik,-szik,1,PR2064,1973.10.07.,nő,nem,2022-04-15_18h09.27.240,hesp_baseline,2021.2.3,Win32,59.76214666
,,,,,,,,,,,,,,,,,féjzek,féjzem,left,8.4764,0,73,73,91,1,146,féjzik,féjzel,NA,NA,Te bizony sokat féjzel.,Én is sokat...,féjzek,féjzem,lakik,-zik,1,PR2064,1973.10.07.,nő,nem,2022-04-15_18h09.27.240,hesp_baseline,2021.2.3,Win32,59.76214666
,,,,,,,,,,,,,,,,,triképban,triképben,right,5.9032,0,74,74,33,1,142,trikép,trikép,ban,é,Ez itt egy trikép.,Ott vagyunk a...,triképben,triképban,dzsungel,NA,NA,PR2064,1973.10.07.,nő,nem,2022-04-15_18h09.27.240,hesp_baseline,2021.2.3,Win32,59.76214666
,,,,,,,,,,,,,,,,,brindeznek,brindeznak,left,6.0274,0,75,75,6,1,115,brindez,brindez,nak,e,Ez itt egy brindez.,Elneveztem a kutyámat...,brindeznek,brindeznak,dzsungel,NA,NA,PR2064,1973.10.07.,nő,nem,2022-04-15_18h09.27.240,hesp_baseline,2021.2.3,Win32,59.76214666
,,,,,,,,,,,,,,,,,trapszegynél,trapszegynál,left,4.808,0,76,76,39,1,148,trapszegy,trapszegy,nál,e,Ez itt egy trapszegy.,Nincs is jobb egy jó...,trapszegynél,trapszegynál,dzsungel,NA,NA,PR2064,1973.10.07.,nő,nem,2022-04-15_18h09.27.240,hesp_baseline,2021.2.3,Win32,59.76214666
,,,,,,,,,,,,,,,,,trálakoznak,trálaklanak,right,25.7193,0,77,77,116,1,117,trálaklik / trálakozik,"trálaklik, trálakozni",nek,NA,"János imád trálakozni, ezért sokat trálaklik.",Ők ritkán...,trálaklanak,trálakoznak,cselekszik,-lik,2,PR2064,1973.10.07.,nő,nem,2022-04-15_18h09.27.240,hesp_baseline,2021.2.3,Win32,59.76214666
,,,,,,,,,,,,,,,,,trivakodunk,trivakszunk,right,27.2095,0,78,78,118,1,119,trivakszik / trivakodik,"trivakszik, trivakodni",ünk,NA,"János imád trivakodni, ezért sokat trivakszik.",Mi ritkán...,trivakszunk,trivakodunk,cselekszik,-szik,2,PR2064,1973.10.07.,nő,nem,2022-04-15_18h09.27.240,hesp_baseline,2021.2.3,Win32,59.76214666
,,,,,,,,,,,,,,,,,virzanak,viroznak,left,6.5176,0,79,79,125,1,126,virzik / virozik,"virzik, virozni",nek,NA,"János imád virozni, ezért sokat virzik.",Ők ritkán...,virzanak,viroznak,cselekszik,-zik,1,PR2064,1973.10.07.,nő,nem,2022-04-15_18h09.27.240,hesp_baseline,2021.2.3,Win32,59.76214666
,,,,,,,,,,,,,,,,,tűgöztök,tűgzötök,left,6.4147,0,80,80,143,1,144,tűgzik / tűgözik,"tűgzik, tűgözni",tek,NA,"János imád tűgözni, ezért sokat tűgzik.",Ti ritkán...,tűgzötök,tűgöztök,cselekszik,-zik,1,PR2064,1973.10.07.,nő,nem,2022-04-15_18h09.27.240,hesp_baseline,2021.2.3,Win32,59.76214666
,,,,,,,,,,,,,,,,,lűköznek,lűklenek,left,6.7027,0,81,81,136,1,137,lűklik / lűközik,"lűklik, lűközni",nek,NA,"János imád lűközni, ezért sokat lűklik.",Ők ritkán...,lűklenek,lűköznek,cselekszik,-lik,1,PR2064,1973.10.07.,nő,nem,2022-04-15_18h09.27.240,hesp_baseline,2021.2.3,Win32,59.76214666
,,,,,,,,,,,,,,,,,sztrozlom,sztrozlok,left,5.4117,0,82,82,104,1,159,sztrozlik,sztrozlasz,NA,NA,Te bizony sokat sztrozlasz.,Én is sokat...,sztrozlok,sztrozlom,lakik,-lik,1,PR2064,1973.10.07.,nő,nem,2022-04-15_18h09.27.240,hesp_baseline,2021.2.3,Win32,59.76214666
,,,,,,,,,,,,,,,,,vubletnél,vubletnál,left,4.5331,0,83,83,26,1,135,vublet,vublet,nál,e,Ez itt egy vublet.,Nincs is jobb egy jó...,vubletnél,vubletnál,dzsungel,NA,NA,PR2064,1973.10.07.,nő,nem,2022-04-15_18h09.27.240,hesp_baseline,2021.2.3,Win32,59.76214666
,,,,,,,,,,,,,,,,,trilszok,trilszom,right,5.4398,0,84,84,103,1,158,trilszik,trilszol,NA,NA,Te bizony sokat trilszol.,Én is sokat...,trilszok,trilszom,lakik,-szik,1,PR2064,1973.10.07.,nő,nem,2022-04-15_18h09.27.240,hesp_baseline,2021.2.3,Win32,59.76214666
,,,,,,,,,,,,,,,,,frivajlom,frivajlok,right,5.5253,0,85,85,78,1,133,frivajlik,frivajlasz,NA,NA,Te bizony sokat frivajlasz.,Én is sokat...,frivajlok,frivajlom,lakik,-lik,2,PR2064,1973.10.07.,nő,nem,2022-04-15_18h09.27.240,hesp_baseline,2021.2.3,Win32,59.76214666
,,,,,,,,,,,,,,,,,filányozunk,filánylunk,right,7.1771,0,86,86,134,1,135,filánylik / filányozik,"filánylik, filányozni",ünk,NA,"János imád filányozni, ezért sokat filánylik.",Mi ritkán...,filánylunk,filányozunk,cselekszik,-lik,2,PR2064,1973.10.07.,nő,nem,2022-04-15_18h09.27.240,hesp_baseline,2021.2.3,Win32,59.76214666
,,,,,,,,,,,,,,,,,bupézban,bupézben,left,6.9003,0,87,87,48,1,157,bupéz,bupéz,ban,é,Ez itt egy bupéz.,Ott vagyunk a...,bupézben,bupézban,dzsungel,NA,NA,PR2064,1973.10.07.,nő,nem,2022-04-15_18h09.27.240,hesp_baseline,2021.2.3,Win32,59.76214666
,,,,,,,,,,,,,,,,,plágadzok,plágadzom,right,12.0578,0,88,88,74,1,129,plágadzik,plágadzol,NA,NA,Te bizony sokat plágadzol.,Én is sokat...,plágadzok,plágadzom,lakik,-zik,2,PR2064,1973.10.07.,nő,nem,2022-04-15_18h09.27.240,hesp_baseline,2021.2.3,Win32,59.76214666
,,,,,,,,,,,,,,,,,gerénylek,gerénylem,left,14.2322,0,89,89,99,1,154,gerénylik,gerénylesz,NA,NA,Te bizony sokat gerénylesz.,Én is sokat...,gerénylek,gerénylem,lakik,-lik,2,PR2064,1973.10.07.,nő,nem,2022-04-15_18h09.27.240,hesp_baseline,2021.2.3,Win32,59.76214666
,,,,,,,,,,,,,,,,,pijélnél,pijélnál,left,5.8223,0,90,90,3,1,112,pijél,pijél,nál,é,Ez itt egy pijél.,Nincs is jobb egy jó...,pijélnél,pijélnál,dzsungel,NA,NA,PR2064,1973.10.07.,nő,nem,2022-04-15_18h09.27.240,hesp_baseline,2021.2.3,Win32,59.76214666
,,,,,,,,,,,,,,,,,rájzom,rájzok,right,5.8048,0,91,91,70,1,125,rájzik,rájzol,NA,NA,Te bizony sokat rájzol.,Én is sokat...,rájzok,rájzom,lakik,-zik,1,PR2064,1973.10.07.,nő,nem,2022-04-15_18h09.27.240,hesp_baseline,2021.2.3,Win32,59.76214666
,,,,,,,,,,,,,,,,,fretszem,fretszek,left,8.8672,0,92,92,66,1,121,fretszik,fretszel,NA,NA,Te bizony sokat fretszel.,Én is sokat...,fretszek,fretszem,lakik,-szik,1,PR2064,1973.10.07.,nő,nem,2022-04-15_18h09.27.240,hesp_baseline,2021.2.3,Win32,59.76214666
,,,,,,,,,,,,,,,,,mülőrözünk,mülőrzünk,right,11.1353,0,93,93,120,1,121,mülőrzik / mülőrözik,"mülőrzik, mülőrözni",ünk,NA,"János imád mülőrözni, ezért sokat mülőrzik.",Mi ritkán...,mülőrzünk,mülőrözünk,cselekszik,-zik,2,PR2064,1973.10.07.,nő,nem,2022-04-15_18h09.27.240,hesp_baseline,2021.2.3,Win32,59.76214666
,,,,,,,,,,,,,,,,,frilegszem,frilegszek,left,4.8547,0,94,94,72,1,127,frilegszik,frilegszel,NA,NA,Te bizony sokat frilegszel.,Én is sokat...,frilegszek,frilegszem,lakik,-szik,2,PR2064,1973.10.07.,nő,nem,2022-04-15_18h09.27.240,hesp_baseline,2021.2.3,Win32,59.76214666
,,,,,,,,,,,,,,,,,spirágoztok,spiráglotok,left,9.0344,0,95,95,135,1,136,spiráglik / spirágozik,"spiráglik, spirágozni",tek,NA,"János imád spirágozni, ezért sokat spiráglik.",Ti ritkán...,spiráglotok,spirágoztok,cselekszik,-lik,2,PR2064,1973.10.07.,nő,nem,2022-04-15_18h09.27.240,hesp_baseline,2021.2.3,Win32,59.76214666
,,,,,,,,,,,,,,,,,ribegedtek,ribegszetek,right,8.8582,0,96,96,141,1,142,ribegszik / ribegedik,"ribegszik, ribegedni",tek,NA,"János imád ribegedni, ezért sokat ribegszik.",Ti ritkán...,ribegszetek,ribegedtek,cselekszik,-szik,2,PR2064,1973.10.07.,nő,nem,2022-04-15_18h09.27.240,hesp_baseline,2021.2.3,Win32,59.76214666
,,,,,,,,,,,,,,,,,bródesznek,bródesznak,left,9.1888,0,97,97,32,1,141,bródesz,bródesz,nak,e,Ez itt egy bródesz.,Elneveztem a kutyámat...,bródesznek,bródesznak,dzsungel,NA,NA,PR2064,1973.10.07.,nő,nem,2022-04-15_18h09.27.240,hesp_baseline,2021.2.3,Win32,59.76214666
,,,,,,,,,,,,,,,,,sprökszöm,sprökszök,left,5.4037,0,98,98,88,1,143,sprökszik,sprökszöl,NA,NA,Te bizony sokat sprökszöl.,Én is sokat...,sprökszök,sprökszöm,lakik,-szik,1,PR2064,1973.10.07.,nő,nem,2022-04-15_18h09.27.240,hesp_baseline,2021.2.3,Win32,59.76214666
,,,,,,,,,,,,,,,,,spalároznak,spalárzanak,left,7.2935,0,99,99,137,1,138,spalárzik / spalározik,"spalárzik, spalározni",nek,NA,"János imád spalározni, ezért sokat spalárzik.",Ők ritkán...,spalárzanak,spalároznak,cselekszik,-zik,2,PR2064,1973.10.07.,nő,nem,2022-04-15_18h09.27.240,hesp_baseline,2021.2.3,Win32,59.76214666
,,,,,,,,,,,,,,,,,narjárzok,narjárzom,right,5.888,0,100,100,61,1,116,narjárzik,narjárzol,NA,NA,Te bizony sokat narjárzol.,Én is sokat...,narjárzok,narjárzom,lakik,-zik,2,PR2064,1973.10.07.,nő,nem,2022-04-15_18h09.27.240,hesp_baseline,2021.2.3,Win32,59.76214666
,,,,,,,,,,,,,,,,,spanélnél,spanélnál,left,6.3185,0,101,101,24,1,133,spanél,spanél,nál,é,Ez itt egy spanél.,Nincs is jobb egy jó...,spanélnél,spanélnál,dzsungel,NA,NA,PR2064,1973.10.07.,nő,nem,2022-04-15_18h09.27.240,hesp_baseline,2021.2.3,Win32,59.76214666
,,,,,,,,,,,,,,,,,brivepedünk,brivepszünk,right,8.6547,0,102,102,113,1,114,brivepszik / brivepedik,"brivepszik, brivepedni",ünk,NA,"János imád brivepedni, ezért sokat brivepszik.",Mi ritkán...,brivepszünk,brivepedünk,cselekszik,-szik,2,PR2064,1973.10.07.,nő,nem,2022-04-15_18h09.27.240,hesp_baseline,2021.2.3,Win32,59.76214666
,,,,,,,,,,,,,,,,,spüszlöm,spüszlök,left,4.4766,0,103,103,96,1,151,spüszlik,spüszlesz,NA,NA,Te bizony sokat spüszlesz.,Én is sokat...,spüszlök,spüszlöm,lakik,-lik,1,PR2064,1973.10.07.,nő,nem,2022-04-15_18h09.27.240,hesp_baseline,2021.2.3,Win32,59.76214666
,,,,,,,,,,,,,,,,,sartelyban,sartelyben,right,5.2736,0,104,104,40,1,149,sartely,sartely,ban,e,Ez itt egy sartely.,Ott vagyunk a...,sartelyben,sartelyban,dzsungel,NA,NA,PR2064,1973.10.07.,nő,nem,2022-04-15_18h09.27.240,hesp_baseline,2021.2.3,Win32,59.76214666
,,,,,,,,,,,,,,,,,kábesznál,kábesznél,right,5.3613,0,105,105,44,1,153,kábesz,kábesz,nál,e,Ez itt egy kábesz.,Nincs is jobb egy jó...,kábesznél,kábesznál,dzsungel,NA,NA,PR2064,1973.10.07.,nő,nem,2022-04-15_18h09.27.240,hesp_baseline,2021.2.3,Win32,59.76214666
,,,,,,,,,,,,,,,,,brüjlöm,brüjlök,left,7.1054,0,106,106,55,1,110,brüjlik,brüjlesz,NA,NA,Te bizony sokat brüjlesz.,Én is sokat...,brüjlök,brüjlöm,lakik,-lik,1,PR2064,1973.10.07.,nő,nem,2022-04-15_18h09.27.240,hesp_baseline,2021.2.3,Win32,59.76214666
,,,,,,,,,,,,,,,,,tibaroznak,tibarzanak,left,7.8248,0,107,107,155,1,156,tibarzik / tibarozik,"tibarzik, tibarozni",nek,NA,"János imád tibarozni, ezért sokat tibarzik.",Ők ritkán...,tibarzanak,tibaroznak,cselekszik,-zik,2,PR2064,1973.10.07.,nő,nem,2022-04-15_18h09.27.240,hesp_baseline,2021.2.3,Win32,59.76214666
,,,,,,,,,,,,,,,,,nyáslom,nyáslok,left,4.4569,0,108,108,100,1,155,nyáslik,nyáslasz,NA,NA,Te bizony sokat nyáslasz.,Én is sokat...,nyáslok,nyáslom,lakik,-lik,1,PR2064,1973.10.07.,nő,nem,2022-04-15_18h09.27.240,hesp_baseline,2021.2.3,Win32,59.76214666
,,,,,,,,,,,,,,,,,lumoztok,lumlotok,left,11.9888,0,109,109,149,1,150,lumlik / lumozik,"lumlik, lumozni",tek,NA,"János imád lumozni, ezért sokat lumlik.",Ti ritkán...,lumlotok,lumoztok,cselekszik,-lik,1,PR2064,1973.10.07.,nő,nem,2022-04-15_18h09.27.240,hesp_baseline,2021.2.3,Win32,59.76214666
,,,,,,,,,,,,,,,,,dralágozunk,dralágzunk,right,45.2299,0,110,110,156,1,157,dralágzik / dralágozik,"dralágzik, dralágozni",ünk,NA,"János imád dralágozni, ezért sokat dralágzik.",Mi ritkán...,dralágzunk,dralágozunk,cselekszik,-zik,2,PR2064,1973.10.07.,nő,nem,2022-04-15_18h09.27.240,hesp_baseline,2021.2.3,Win32,59.76214666
,,,,,,,,,,,,,,,,,klégezünk,kléglünk,left,19.8499,0,111,111,122,1,123,kléglik / klégezik,"kléglik, klégezni",ünk,NA,"János imád klégezni, ezért sokat kléglik.",Mi ritkán...,kléglünk,klégezünk,cselekszik,-lik,1,PR2064,1973.10.07.,nő,nem,2022-04-15_18h09.27.240,hesp_baseline,2021.2.3,Win32,59.76214666
,,,,,,,,,,,,,,,,,hágyétnek,hágyétnak,right,10.5853,0,112,112,42,1,151,hágyét,hágyét,nak,é,Ez itt egy hágyét.,Elneveztem a kutyámat...,hágyétnek,hágyétnak,dzsungel,NA,NA,PR2064,1973.10.07.,nő,nem,2022-04-15_18h09.27.240,hesp_baseline,2021.2.3,Win32,59.76214666
,,,,,,,,,,,,,,,,,spröbzök,spröbzöm,left,6.9274,0,113,113,90,1,145,spröbzik,spröbzöl,NA,NA,Te bizony sokat spröbzöl.,Én is sokat...,spröbzök,spröbzöm,lakik,-zik,1,PR2064,1973.10.07.,nő,nem,2022-04-15_18h09.27.240,hesp_baseline,2021.2.3,Win32,59.76214666
,,,,,,,,,,,,,,,,,bidemben,bidemban,left,6.4535,0,114,114,2,1,111,bidem,bidem,ban,e,Ez itt egy bidem.,Ott vagyunk a...,bidemben,bidemban,dzsungel,NA,NA,PR2064,1973.10.07.,nő,nem,2022-04-15_18h09.27.240,hesp_baseline,2021.2.3,Win32,59.76214666
,,,,,,,,,,,,,,,,,sztritoznak,sztritlanak,left,9.2153,0,115,115,154,1,155,sztritlik / sztritozik,"sztritlik, sztritozni",nek,NA,"János imád sztritozni, ezért sokat sztritlik.",Ők ritkán...,sztritlanak,sztritoznak,cselekszik,-lik,1,PR2064,1973.10.07.,nő,nem,2022-04-15_18h09.27.240,hesp_baseline,2021.2.3,Win32,59.76214666
,,,,,,,,,,,,,,,,,nivárzotok,nivároztok,right,7.3095,0,116,116,146,1,147,nivárzik / nivározik,"nivárzik, nivározni",tek,NA,"János imád nivározni, ezért sokat nivárzik.",Ti ritkán...,nivárzotok,nivároztok,cselekszik,-zik,2,PR2064,1973.10.07.,nő,nem,2022-04-15_18h09.27.240,hesp_baseline,2021.2.3,Win32,59.76214666
,,,,,,,,,,,,,,,,,frálapszotok,frálapodtok,left,8.2542,0,117,117,150,1,151,frálapszik / frálapodik,"frálapszik, frálapodni",tek,NA,"János imád frálapodni, ezért sokat frálapszik.",Ti ritkán...,frálapszotok,frálapodtok,cselekszik,-szik,2,PR2064,1973.10.07.,nő,nem,2022-04-15_18h09.27.240,hesp_baseline,2021.2.3,Win32,59.76214666
,,,,,,,,,,,,,,,,,prínylom,prínylok,right,4.4674,0,118,118,102,1,157,prínylik,prínylasz,NA,NA,Te bizony sokat prínylasz.,Én is sokat...,prínylok,prínylom,lakik,-lik,1,PR2064,1973.10.07.,nő,nem,2022-04-15_18h09.27.240,hesp_baseline,2021.2.3,Win32,59.76214666
,,,,,,,,,,,,,,,,,mékszek,mékszem,right,3.8237,0,119,119,71,1,126,mékszik,mékszel,NA,NA,Te bizony sokat mékszel.,Én is sokat...,mékszek,mékszem,lakik,-szik,1,PR2064,1973.10.07.,nő,nem,2022-04-15_18h09.27.240,hesp_baseline,2021.2.3,Win32,59.76214666
,,,,,,,,,,,,,,,,,mágamozunk,mágamlunk,left,6.713,0,120,120,140,1,141,mágamlik / mágamozik,"mágamlik, mágamozni",ünk,NA,"János imád mágamozni, ezért sokat mágamlik.",Mi ritkán...,mágamlunk,mágamozunk,cselekszik,-lik,2,PR2064,1973.10.07.,nő,nem,2022-04-15_18h09.27.240,hesp_baseline,2021.2.3,Win32,59.76214666
,,,,,,,,,,,,,,,,,pehégszetek,pehégedtek,left,9.0867,0,121,121,151,1,152,pehégszik / pehégedik,"pehégszik, pehégedni",tek,NA,"János imád pehégedni, ezért sokat pehégszik.",Ti ritkán...,pehégszetek,pehégedtek,cselekszik,-szik,2,PR2064,1973.10.07.,nő,nem,2022-04-15_18h09.27.240,hesp_baseline,2021.2.3,Win32,59.76214666
,,,,,,,,,,,,,,,,,tínylok,tínylom,left,7.419,0,122,122,58,1,113,tínylik,tínylasz,NA,NA,Te bizony sokat tínylasz.,Én is sokat...,tínylok,tínylom,lakik,-lik,1,PR2064,1973.10.07.,nő,nem,2022-04-15_18h09.27.240,hesp_baseline,2021.2.3,Win32,59.76214666
,,,,,,,,,,,,,,,,,klárzom,klárzok,left,3.6053,0,123,123,85,1,140,klárzik,klárzol,NA,NA,Te bizony sokat klárzol.,Én is sokat...,klárzok,klárzom,lakik,-zik,1,PR2064,1973.10.07.,nő,nem,2022-04-15_18h09.27.240,hesp_baseline,2021.2.3,Win32,59.76214666
,,,,,,,,,,,,,,,,,kátelnek,kátelnak,left,9.9817,0,124,124,12,1,121,kátel,kátel,nak,e,Ez itt egy kátel.,Elneveztem a kutyámat...,kátelnek,kátelnak,dzsungel,NA,NA,PR2064,1973.10.07.,nő,nem,2022-04-15_18h09.27.240,hesp_baseline,2021.2.3,Win32,59.76214666
,,,,,,,,,,,,,,,,,finceknél,finceknál,left,4.4421,0,125,125,9,1,118,fincek,fincek,nál,e,Ez itt egy fincek.,Nincs is jobb egy jó...,finceknél,finceknál,dzsungel,NA,NA,PR2064,1973.10.07.,nő,nem,2022-04-15_18h09.27.240,hesp_baseline,2021.2.3,Win32,59.76214666
,,,,,,,,,,,,,,,,,vodecnél,vodecnál,left,5.3076,0,126,126,30,1,139,vodec,vodec,nál,e,Ez itt egy vodec.,Nincs is jobb egy jó...,vodecnél,vodecnál,dzsungel,NA,NA,PR2064,1973.10.07.,nő,nem,2022-04-15_18h09.27.240,hesp_baseline,2021.2.3,Win32,59.76214666
,,,,,,,,,,,,,,,,,gótemnak,gótemnek,right,4.6064,0,127,127,35,1,144,gótem,gótem,nak,e,Ez itt egy gótem.,Elneveztem a kutyámat...,gótemnek,gótemnak,dzsungel,NA,NA,PR2064,1973.10.07.,nő,nem,2022-04-15_18h09.27.240,hesp_baseline,2021.2.3,Win32,59.76214666
,,,,,,,,,,,,,,,,,treglek,treglem,right,5.2742,0,128,128,81,1,136,treglik,treglesz,NA,NA,Te bizony sokat treglesz.,Én is sokat...,treglek,treglem,lakik,-lik,1,PR2064,1973.10.07.,nő,nem,2022-04-15_18h09.27.240,hesp_baseline,2021.2.3,Win32,59.76214666
,,,,,,,,,,,,,,,,,pristélban,pristélben,right,4.0855,0,129,129,1,1,110,pristél,pristél,ban,é,Ez itt egy pristél.,Ott vagyunk a...,pristélben,pristélban,dzsungel,NA,NA,PR2064,1973.10.07.,nő,nem,2022-04-15_18h09.27.240,hesp_baseline,2021.2.3,Win32,59.76214666
,,,,,,,,,,,,,,,,,nyupérnál,nyupérnél,right,5.9763,0,130,130,52,1,161,nyupér,nyupér,nál,é,Ez itt egy nyupér.,Nincs is jobb egy jó...,nyupérnél,nyupérnál,dzsungel,NA,NA,PR2064,1973.10.07.,nő,nem,2022-04-15_18h09.27.240,hesp_baseline,2021.2.3,Win32,59.76214666
,,,,,,,,,,,,,,,,,trincsegben,trincsegban,left,3.6712,0,131,131,46,1,155,trincseg,trincseg,ban,e,Ez itt egy trincseg.,Ott vagyunk a...,trincsegben,trincsegban,dzsungel,NA,NA,PR2064,1973.10.07.,nő,nem,2022-04-15_18h09.27.240,hesp_baseline,2021.2.3,Win32,59.76214666
,,,,,,,,,,,,,,,,,surnegynál,surnegynél,right,4.7675,0,132,132,8,1,117,surnegy,surnegy,nál,e,Ez itt egy surnegy.,Nincs is jobb egy jó...,surnegynél,surnegynál,dzsungel,NA,NA,PR2064,1973.10.07.,nő,nem,2022-04-15_18h09.27.240,hesp_baseline,2021.2.3,Win32,59.76214666
,,,,,,,,,,,,,,,,,brűköztök,brűklötök,left,9.558,0,133,133,153,1,154,brűklik / brűközik,"brűklik, brűközni",tek,NA,"János imád brűközni, ezért sokat brűklik.",Ti ritkán...,brűklötök,brűköztök,cselekszik,-lik,1,PR2064,1973.10.07.,nő,nem,2022-04-15_18h09.27.240,hesp_baseline,2021.2.3,Win32,59.76214666
,,,,,,,,,,,,,,,,,trikoztok,triklotok,left,22.8223,0,134,134,160,1,161,triklik / trikozik,"triklik, trikozni",tek,NA,"János imád trikozni, ezért sokat triklik.",Ti ritkán...,triklotok,trikoztok,cselekszik,-lik,1,PR2064,1973.10.07.,nő,nem,2022-04-15_18h09.27.240,hesp_baseline,2021.2.3,Win32,59.76214666
,,,,,,,,,,,,,,,,,spuménynak,spuménynek,right,10.5358,0,135,135,19,1,128,spumény,spumény,nak,é,Ez itt egy spumény.,Elneveztem a kutyámat...,spuménynek,spuménynak,dzsungel,NA,NA,PR2064,1973.10.07.,nő,nem,2022-04-15_18h09.27.240,hesp_baseline,2021.2.3,Win32,59.76214666
,,,,,,,,,,,,,,,,,brivágoznak,briváglanak,left,6.8628,0,136,136,138,1,139,briváglik / brivágozik,"briváglik, brivágozni",nek,NA,"János imád brivágozni, ezért sokat briváglik.",Ők ritkán...,briváglanak,brivágoznak,cselekszik,-lik,2,PR2064,1973.10.07.,nő,nem,2022-04-15_18h09.27.240,hesp_baseline,2021.2.3,Win32,59.76214666
,,,,,,,,,,,,,,,,,hűgzöm,hűgzök,left,3.8396,0,137,137,107,1,162,hűgzik,hűgzöl,NA,NA,Te bizony sokat hűgzöl.,Én is sokat...,hűgzök,hűgzöm,lakik,-zik,1,PR2064,1973.10.07.,nő,nem,2022-04-15_18h09.27.240,hesp_baseline,2021.2.3,Win32,59.76214666
,,,,,,,,,,,,,,,,,prűrlöm,prűrlök,left,8.2914,0,138,138,75,1,130,prűrlik,prűrlesz,NA,NA,Te bizony sokat prűrlesz.,Én is sokat...,prűrlök,prűrlöm,lakik,-lik,1,PR2064,1973.10.07.,nő,nem,2022-04-15_18h09.27.240,hesp_baseline,2021.2.3,Win32,59.76214666
,,,,,,,,,,,,,,,,,dorzéjnek,dorzéjnak,left,5.7224,0,139,139,29,1,138,dorzéj,dorzéj,nak,é,Ez itt egy dorzéj.,Elneveztem a kutyámat...,dorzéjnek,dorzéjnak,dzsungel,NA,NA,PR2064,1973.10.07.,nő,nem,2022-04-15_18h09.27.240,hesp_baseline,2021.2.3,Win32,59.76214666
,,,,,,,,,,,,,,,,,brárlanak,brároznak,right,10.9339,0,140,140,126,1,127,brárlik / brározik,"brárlik, brározni",nek,NA,"János imád brározni, ezért sokat brárlik.",Ők ritkán...,brárlanak,brároznak,cselekszik,-lik,1,PR2064,1973.10.07.,nő,nem,2022-04-15_18h09.27.240,hesp_baseline,2021.2.3,Win32,59.76214666
,,,,,,,,,,,,,,,,,klarágzotok,klarágoztok,right,9.2959,0,141,141,114,1,115,klarágzik / klarágozik,"klarágzik, klarágozni",tek,NA,"János imád klarágozni, ezért sokat klarágzik.",Ti ritkán...,klarágzotok,klarágoztok,cselekszik,-zik,2,PR2064,1973.10.07.,nő,nem,2022-04-15_18h09.27.240,hesp_baseline,2021.2.3,Win32,59.76214666
,,,,,,,,,,,,,,,,,sűzlöm,sűzlök,right,4.6801,0,142,142,54,1,109,sűzlik,sűzlesz,NA,NA,Te bizony sokat sűzlesz.,Én is sokat...,sűzlök,sűzlöm,lakik,-lik,1,PR2064,1973.10.07.,nő,nem,2022-04-15_18h09.27.240,hesp_baseline,2021.2.3,Win32,59.76214666
,,,,,,,,,,,,,,,,,ibékszek,ibékszem,right,4.9374,0,143,143,95,1,150,ibékszik,ibékszel,NA,NA,Te bizony sokat ibékszel.,Én is sokat...,ibékszek,ibékszem,lakik,-szik,2,PR2064,1973.10.07.,nő,nem,2022-04-15_18h09.27.240,hesp_baseline,2021.2.3,Win32,59.76214666
,,,,,,,,,,,,,,,,,spatelnak,spatelnek,right,4.3402,0,144,144,21,1,130,spatel,spatel,nak,e,Ez itt egy spatel.,Elneveztem a kutyámat...,spatelnek,spatelnak,dzsungel,NA,NA,PR2064,1973.10.07.,nő,nem,2022-04-15_18h09.27.240,hesp_baseline,2021.2.3,Win32,59.76214666
,,,,,,,,,,,,,,,,,dalencnál,dalencnél,right,5.3171,0,145,145,31,1,140,dalenc,dalenc,nál,e,Ez itt egy dalenc.,Nincs is jobb egy jó...,dalencnél,dalencnál,dzsungel,NA,NA,PR2064,1973.10.07.,nő,nem,2022-04-15_18h09.27.240,hesp_baseline,2021.2.3,Win32,59.76214666
,,,,,,,,,,,,,,,,,szihétnak,szihétnek,right,4.1912,0,146,146,4,1,113,szihét,szihét,nak,é,Ez itt egy szihét.,Elneveztem a kutyámat...,szihétnek,szihétnak,dzsungel,NA,NA,PR2064,1973.10.07.,nő,nem,2022-04-15_18h09.27.240,hesp_baseline,2021.2.3,Win32,59.76214666
,,,,,,,,,,,,,,,,,brotesban,brotesben,right,6.3443,0,147,147,53,1,162,brotes,brotes,ban,e,Ez itt egy brotes.,Ott vagyunk a...,brotesben,brotesban,dzsungel,NA,NA,PR2064,1973.10.07.,nő,nem,2022-04-15_18h09.27.240,hesp_baseline,2021.2.3,Win32,59.76214666
,,,,,,,,,,,,,,,,,brilegzünk,brilegezünk,left,11.7679,0,148,148,124,1,125,brilegzik / brilegezik,"brilegzik, brilegezni",ünk,NA,"János imád brilegezni, ezért sokat brilegzik.",Mi ritkán...,brilegzünk,brilegezünk,cselekszik,-zik,2,PR2064,1973.10.07.,nő,nem,2022-04-15_18h09.27.240,hesp_baseline,2021.2.3,Win32,59.76214666
,,,,,,,,,,,,,,,,,trugokoznak,trugoklanak,left,21.2194,0,149,149,109,1,110,trugoklik / trugokozik,"trugoklik, trugokozni",nek,NA,"János imád trugokozni, ezért sokat trugoklik.",Ők ritkán...,trugoklanak,trugokoznak,cselekszik,-lik,2,PR2064,1973.10.07.,nő,nem,2022-04-15_18h09.27.240,hesp_baseline,2021.2.3,Win32,59.76214666
,,,,,,,,,,,,,,,,,kláragodtok,kláragszotok,left,7.893,0,150,150,123,1,124,kláragszik / kláragodik,"kláragszik, kláragodni",tek,NA,"János imád kláragodni, ezért sokat kláragszik.",Ti ritkán...,kláragszotok,kláragodtok,cselekszik,-szik,2,PR2064,1973.10.07.,nő,nem,2022-04-15_18h09.27.240,hesp_baseline,2021.2.3,Win32,59.76214666
,,,,,,,,,,,,,,,,,brálamoznak,brálamlanak,left,9.8352,0,151,151,144,1,145,brálamlik / brálamozik,"brálamlik, brálamozni",nek,NA,"János imád brálamozni, ezért sokat brálamlik.",Ők ritkán...,brálamlanak,brálamoznak,cselekszik,-lik,2,PR2064,1973.10.07.,nő,nem,2022-04-15_18h09.27.240,hesp_baseline,2021.2.3,Win32,59.76214666
,,,,,,,,,,,,,,,,,jurdentnál,jurdentnél,right,3.7669,0,152,152,16,1,125,jurdent,jurdent,nál,e,Ez itt egy jurdent.,Nincs is jobb egy jó...,jurdentnél,jurdentnál,dzsungel,NA,NA,PR2064,1973.10.07.,nő,nem,2022-04-15_18h09.27.240,hesp_baseline,2021.2.3,Win32,59.76214666
,,,,,,,,,,,,,,,,,brüröznek,brürzenek,left,6.5678,0,153,153,110,1,111,brürzik / brürözik,"brürzik, brürözni",nek,NA,"János imád brürözni, ezért sokat brürzik.",Ők ritkán...,brürzenek,brüröznek,cselekszik,-zik,1,PR2064,1973.10.07.,nő,nem,2022-04-15_18h09.27.240,hesp_baseline,2021.2.3,Win32,59.76214666
,,,,,,,,,,,,,,,,,piragszok,piragszom,right,4.1191,0,154,154,83,1,138,piragszik,piragszol,NA,NA,Te bizony sokat piragszol.,Én is sokat...,piragszok,piragszom,lakik,-szik,2,PR2064,1973.10.07.,nő,nem,2022-04-15_18h09.27.240,hesp_baseline,2021.2.3,Win32,59.76214666
,,,,,,,,,,,,,,,,,bihánylok,bihánylom,left,8.2629,0,155,155,89,1,144,bihánylik,bihánylasz,NA,NA,Te bizony sokat bihánylasz.,Én is sokat...,bihánylok,bihánylom,lakik,-lik,2,PR2064,1973.10.07.,nő,nem,2022-04-15_18h09.27.240,hesp_baseline,2021.2.3,Win32,59.76214666
,,,,,,,,,,,,,,,,,briskédnél,briskédnál,left,4.2963,0,156,156,51,1,160,briskéd,briskéd,nál,é,Ez itt egy briskéd.,Nincs is jobb egy jó...,briskédnél,briskédnál,dzsungel,NA,NA,PR2064,1973.10.07.,nő,nem,2022-04-15_18h09.27.240,hesp_baseline,2021.2.3,Win32,59.76214666
,,,,,,,,,,,,,,,,,vileslünk,vilesezünk,right,6.784,0,157,157,139,1,140,vileslik / vilesezik,"vileslik, vilesezni",ünk,NA,"János imád vilesezni, ezért sokat vileslik.",Mi ritkán...,vileslünk,vilesezünk,cselekszik,-lik,2,PR2064,1973.10.07.,nő,nem,2022-04-15_18h09.27.240,hesp_baseline,2021.2.3,Win32,59.76214666
,,,,,,,,,,,,,,,,,flököztök,flöklötök,left,5.7982,0,158,158,121,1,122,flöklik / flöközik,"flöklik, flöközni",tek,NA,"János imád flöközni, ezért sokat flöklik.",Ti ritkán...,flöklötök,flököztök,cselekszik,-lik,1,PR2064,1973.10.07.,nő,nem,2022-04-15_18h09.27.240,hesp_baseline,2021.2.3,Win32,59.76214666
,,,,,,,,,,,,,,,,,vurnelnek,vurnelnak,left,4.2228,0,159,159,50,1,159,vurnel,vurnel,nak,e,Ez itt egy vurnel.,Elneveztem a kutyámat...,vurnelnek,vurnelnak,dzsungel,NA,NA,PR2064,1973.10.07.,nő,nem,2022-04-15_18h09.27.240,hesp_baseline,2021.2.3,Win32,59.76214666
,,,,,,,,,,,,,,,,,nyítemban,nyítemben,right,4.0935,0,160,160,41,1,150,nyítem,nyítem,ban,e,Ez itt egy nyítem.,Ott vagyunk a...,nyítemben,nyítemban,dzsungel,NA,NA,PR2064,1973.10.07.,nő,nem,2022-04-15_18h09.27.240,hesp_baseline,2021.2.3,Win32,59.76214666
,,,,,,,,,,,,,,,,,klosétnek,klosétnak,left,3.9923,0,161,161,45,1,154,klosét,klosét,nak,é,Ez itt egy klosét.,Elneveztem a kutyámat...,klosétnek,klosétnak,dzsungel,NA,NA,PR2064,1973.10.07.,nő,nem,2022-04-15_18h09.27.240,hesp_baseline,2021.2.3,Win32,59.76214666
