my_list,key.keys,key.rt,key_2.keys,key_2.rt,keyboard_input_2.keys,keyboard_input_2.rt,key_3.keys,key_3.rt,keyboard_input_3.keys,keyboard_input_3.rt,key_4.keys,key_4.rt,keyboard_input_4.keys,keyboard_input_4.rt,key_5.keys,key_5.rt,my_button1,my_button2,keyboard_input.keys,keyboard_input.rt,withinBlock.thisRepN,withinBlock.thisTrialN,withinBlock.thisN,withinBlock.thisIndex,withinBlock.ran,rowname,word,prompt,suffix,vowel,carrier_sentence,target_sentence,target1,target2,category,derivational,nsyl,Azonosító,Melyik évben születtél?,Mi a nemed?,Tanultál nyelvészetet?,date,expName,psychopyVersion,OS,frameRate
list2.csv,space,14.898,space,5.85,right,8.323,space,10.771,left,5.262,space,8.069,left,7.126,space,17.374,jábézban,jábézben,left,15.158,0,0,0,34,1,89,jábéz,jábéz,ban,é,Ez itt egy jábéz.,Ott vagyunk a...,jábézben,jábézban,dzsungel,NA,NA,PR2004,1997,férfi,nem,2022-03-30_01h01.58.316,hesp_baseline,2021.2.3,Win32,59.95203837
,,,,,,,,,,,,,,,,,driládzom,driládzok,right,8.082,0,1,1,67,1,68,driládzik,driládzol,NA,NA,Te bizony sokat driládzol.,Én is sokat...,driládzok,driládzom,lakik,-zik,2,PR2004,1997,férfi,nem,2022-03-30_01h01.58.316,hesp_baseline,2021.2.3,Win32,59.95203837
,,,,,,,,,,,,,,,,,ruslok,ruslom,left,5.616,0,2,2,83,1,84,ruslik,ruslasz,NA,NA,Te bizony sokat ruslasz.,Én is sokat...,ruslok,ruslom,lakik,-lik,1,PR2004,1997,férfi,nem,2022-03-30_01h01.58.316,hesp_baseline,2021.2.3,Win32,59.95203837
,,,,,,,,,,,,,,,,,zarcégnél,zarcégnál,left,7.467,0,3,3,29,1,84,zarcég,zarcég,nál,é,Ez itt egy zarcég.,Nincs is jobb egy jó...,zarcégnél,zarcégnál,dzsungel,NA,NA,PR2004,1997,férfi,nem,2022-03-30_01h01.58.316,hesp_baseline,2021.2.3,Win32,59.95203837
,,,,,,,,,,,,,,,,,gilárzom,gilárzok,left,16.468,0,4,4,94,1,95,gilárzik,gilárzol,NA,NA,Te bizony sokat gilárzol.,Én is sokat...,gilárzok,gilárzom,lakik,-zik,2,PR2004,1997,férfi,nem,2022-03-30_01h01.58.316,hesp_baseline,2021.2.3,Win32,59.95203837
,,,,,,,,,,,,,,,,,bivégszek,bivégszem,right,5.481,0,5,5,68,1,69,bivégszik,bivégszel,NA,NA,Te bizony sokat bivégszel.,Én is sokat...,bivégszek,bivégszem,lakik,-szik,2,PR2004,1997,férfi,nem,2022-03-30_01h01.58.316,hesp_baseline,2021.2.3,Win32,59.95203837
,,,,,,,,,,,,,,,,,garcépnál,garcépnél,right,4.72,0,6,6,38,1,93,garcép,garcép,nál,é,Ez itt egy garcép.,Nincs is jobb egy jó...,garcépnél,garcépnál,dzsungel,NA,NA,PR2004,1997,férfi,nem,2022-03-30_01h01.58.316,hesp_baseline,2021.2.3,Win32,59.95203837
,,,,,,,,,,,,,,,,,spügözünk,spügzünk,right,10.449,0,7,7,143,1,90,spügzik / spügözik,"spügzik, spügözni",ünk,NA,"János imád spügözni, ezért sokat spügzik.",Mi ritkán...,spügzünk,spügözünk,cselekszik,-zik,1,PR2004,1997,férfi,nem,2022-03-30_01h01.58.316,hesp_baseline,2021.2.3,Win32,59.95203837
,,,,,,,,,,,,,,,,,dárakodunk,dárakszunk,right,9.203,0,8,8,126,1,73,dárakszik / dárakodik,"dárakszik, dárakodni",ünk,NA,"János imád dárakodni, ezért sokat dárakszik.",Mi ritkán...,dárakszunk,dárakodunk,cselekszik,-szik,2,PR2004,1997,férfi,nem,2022-03-30_01h01.58.316,hesp_baseline,2021.2.3,Win32,59.95203837
,,,,,,,,,,,,,,,,,dabzotok,daboztok,left,7.002,0,9,9,109,1,56,dabzik / dabozik,"dabzik, dabozni",tek,NA,"János imád dabozni, ezért sokat dabzik.",Ti ritkán...,dabzotok,daboztok,cselekszik,-zik,1,PR2004,1997,férfi,nem,2022-03-30_01h01.58.316,hesp_baseline,2021.2.3,Win32,59.95203837
,,,,,,,,,,,,,,,,,tosélyben,tosélyban,right,21.798,0,10,10,25,1,80,tosély,tosély,ban,é,Ez itt egy tosély.,Ott vagyunk a...,tosélyben,tosélyban,dzsungel,NA,NA,PR2004,1997,férfi,nem,2022-03-30_01h01.58.316,hesp_baseline,2021.2.3,Win32,59.95203837
,,,,,,,,,,,,,,,,,lingéknál,lingéknél,right,4.409,0,11,11,32,1,87,lingék,lingék,nál,é,Ez itt egy lingék.,Nincs is jobb egy jó...,lingéknél,lingéknál,dzsungel,NA,NA,PR2004,1997,férfi,nem,2022-03-30_01h01.58.316,hesp_baseline,2021.2.3,Win32,59.95203837
,,,,,,,,,,,,,,,,,rapszeknál,rapszeknél,right,5.714,0,12,12,35,1,90,rapszek,rapszek,nál,e,Ez itt egy rapszek.,Nincs is jobb egy jó...,rapszeknél,rapszeknál,dzsungel,NA,NA,PR2004,1997,férfi,nem,2022-03-30_01h01.58.316,hesp_baseline,2021.2.3,Win32,59.95203837
,,,,,,,,,,,,,,,,,kluhéjnál,kluhéjnél,right,3.48,0,13,13,24,1,79,kluhéj,kluhéj,nál,é,Ez itt egy kluhéj.,Nincs is jobb egy jó...,kluhéjnél,kluhéjnál,dzsungel,NA,NA,PR2004,1997,férfi,nem,2022-03-30_01h01.58.316,hesp_baseline,2021.2.3,Win32,59.95203837
,,,,,,,,,,,,,,,,,sporzemnek,sporzemnak,right,11.07,0,14,14,26,1,81,sporzem,sporzem,nak,e,Ez itt egy sporzem.,Elneveztem a kutyámat...,sporzemnek,sporzemnak,dzsungel,NA,NA,PR2004,1997,férfi,nem,2022-03-30_01h01.58.316,hesp_baseline,2021.2.3,Win32,59.95203837
,,,,,,,,,,,,,,,,,ikszertban,ikszertben,right,6.17,0,15,15,19,1,74,ikszert,ikszert,ban,e,Ez itt egy ikszert.,Ott vagyunk a...,ikszertben,ikszertban,dzsungel,NA,NA,PR2004,1997,férfi,nem,2022-03-30_01h01.58.316,hesp_baseline,2021.2.3,Win32,59.95203837
,,,,,,,,,,,,,,,,,ítensban,ítensben,right,4.236,0,16,16,50,1,105,ítens,ítens,ban,e,Ez itt egy ítens.,Ott vagyunk a...,ítensben,ítensban,dzsungel,NA,NA,PR2004,1997,férfi,nem,2022-03-30_01h01.58.316,hesp_baseline,2021.2.3,Win32,59.95203837
,,,,,,,,,,,,,,,,,dilaklotok,dilakoztok,left,8.65,0,17,17,158,1,105,dilaklik / dilakozik,"dilaklik, dilakozni",tek,NA,"János imád dilakozni, ezért sokat dilaklik.",Ti ritkán...,dilaklotok,dilakoztok,cselekszik,-lik,2,PR2004,1997,férfi,nem,2022-03-30_01h01.58.316,hesp_baseline,2021.2.3,Win32,59.95203837
,,,,,,,,,,,,,,,,,flűgözünk,flűgzünk,right,6.994,0,18,18,160,1,107,flűgzik / flűgözik,"flűgzik, flűgözni",ünk,NA,"János imád flűgözni, ezért sokat flűgzik.",Mi ritkán...,flűgzünk,flűgözünk,cselekszik,-zik,1,PR2004,1997,férfi,nem,2022-03-30_01h01.58.316,hesp_baseline,2021.2.3,Win32,59.95203837
,,,,,,,,,,,,,,,,,nidétban,nidétben,right,4.972,0,19,19,39,1,94,nidét,nidét,ban,é,Ez itt egy nidét.,Ott vagyunk a...,nidétben,nidétban,dzsungel,NA,NA,PR2004,1997,férfi,nem,2022-03-30_01h01.58.316,hesp_baseline,2021.2.3,Win32,59.95203837
,,,,,,,,,,,,,,,,,trigencnak,trigencnek,right,4.467,0,20,20,31,1,86,trigenc,trigenc,nak,e,Ez itt egy trigenc.,Elneveztem a kutyámat...,trigencnek,trigencnak,dzsungel,NA,NA,PR2004,1997,férfi,nem,2022-03-30_01h01.58.316,hesp_baseline,2021.2.3,Win32,59.95203837
,,,,,,,,,,,,,,,,,cságyeltben,cságyeltban,right,7.092,0,21,21,10,1,65,cságyelt,cságyelt,ban,e,Ez itt egy cságyelt.,Ott vagyunk a...,cságyeltben,cságyeltban,dzsungel,NA,NA,PR2004,1997,férfi,nem,2022-03-30_01h01.58.316,hesp_baseline,2021.2.3,Win32,59.95203837
,,,,,,,,,,,,,,,,,sprigoztok,sprigzotok,left,15.81,0,22,22,129,1,76,sprigzik / sprigozik,"sprigzik, sprigozni",tek,NA,"János imád sprigozni, ezért sokat sprigzik.",Ti ritkán...,sprigzotok,sprigoztok,cselekszik,-zik,1,PR2004,1997,férfi,nem,2022-03-30_01h01.58.316,hesp_baseline,2021.2.3,Win32,59.95203837
,,,,,,,,,,,,,,,,,prihekszek,prihekszem,right,4.469,0,23,23,100,1,101,prihekszik,prihekszel,NA,NA,Te bizony sokat prihekszel.,Én is sokat...,prihekszek,prihekszem,lakik,-szik,2,PR2004,1997,férfi,nem,2022-03-30_01h01.58.316,hesp_baseline,2021.2.3,Win32,59.95203837
,,,,,,,,,,,,,,,,,plugzom,plugzok,left,4.146,0,24,24,60,1,61,plugzik,plugzol,NA,NA,Te bizony sokat plugzol.,Én is sokat...,plugzok,plugzom,lakik,-zik,1,PR2004,1997,férfi,nem,2022-03-30_01h01.58.316,hesp_baseline,2021.2.3,Win32,59.95203837
,,,,,,,,,,,,,,,,,floglok,floglom,left,5.85,0,25,25,92,1,93,floglik,floglasz,NA,NA,Te bizony sokat floglasz.,Én is sokat...,floglok,floglom,lakik,-lik,1,PR2004,1997,férfi,nem,2022-03-30_01h01.58.316,hesp_baseline,2021.2.3,Win32,59.95203837
,,,,,,,,,,,,,,,,,figlom,figlok,right,6.364,0,26,26,75,1,76,figlik,figlasz,NA,NA,Te bizony sokat figlasz.,Én is sokat...,figlok,figlom,lakik,-lik,1,PR2004,1997,férfi,nem,2022-03-30_01h01.58.316,hesp_baseline,2021.2.3,Win32,59.95203837
,,,,,,,,,,,,,,,,,huroslom,huroslok,right,3.854,0,27,27,76,1,77,huroslik,huroslasz,NA,NA,Te bizony sokat huroslasz.,Én is sokat...,huroslok,huroslom,lakik,-lik,2,PR2004,1997,férfi,nem,2022-03-30_01h01.58.316,hesp_baseline,2021.2.3,Win32,59.95203837
,,,,,,,,,,,,,,,,,flemlünk,flemezünk,left,8.619,0,28,28,137,1,84,flemlik / flemezik,"flemlik, flemezni",ünk,NA,"János imád flemezni, ezért sokat flemlik.",Mi ritkán...,flemlünk,flemezünk,cselekszik,-lik,1,PR2004,1997,férfi,nem,2022-03-30_01h01.58.316,hesp_baseline,2021.2.3,Win32,59.95203837
,,,,,,,,,,,,,,,,,flodlotok,flodoztok,left,6.832,0,29,29,144,1,91,flodlik / flodozik,"flodlik, flodozni",tek,NA,"János imád flodozni, ezért sokat flodlik.",Ti ritkán...,flodlotok,flodoztok,cselekszik,-lik,1,PR2004,1997,férfi,nem,2022-03-30_01h01.58.316,hesp_baseline,2021.2.3,Win32,59.95203837
,,,,,,,,,,,,,,,,,pratánylom,pratánylok,right,7.06,0,30,30,95,1,96,pratánylik,pratánylasz,NA,NA,Te bizony sokat pratánylasz.,Én is sokat...,pratánylok,pratánylom,lakik,-lik,2,PR2004,1997,férfi,nem,2022-03-30_01h01.58.316,hesp_baseline,2021.2.3,Win32,59.95203837
,,,,,,,,,,,,,,,,,friszlom,friszlok,right,4.666,0,31,31,97,1,98,friszlik,friszlasz,NA,NA,Te bizony sokat friszlasz.,Én is sokat...,friszlok,friszlom,lakik,-lik,1,PR2004,1997,férfi,nem,2022-03-30_01h01.58.316,hesp_baseline,2021.2.3,Win32,59.95203837
,,,,,,,,,,,,,,,,,sprebzenek,sprebeznek,left,11.288,0,32,32,139,1,86,sprebzik / sprebezik,"sprebzik, sprebezni",nek,NA,"János imád sprebezni, ezért sokat sprebzik.",Ők ritkán...,sprebzenek,sprebeznek,cselekszik,-zik,1,PR2004,1997,férfi,nem,2022-03-30_01h01.58.316,hesp_baseline,2021.2.3,Win32,59.95203837
,,,,,,,,,,,,,,,,,flibekszek,flibekszem,right,4.832,0,33,33,93,1,94,flibekszik,flibekszel,NA,NA,Te bizony sokat flibekszel.,Én is sokat...,flibekszek,flibekszem,lakik,-szik,2,PR2004,1997,férfi,nem,2022-03-30_01h01.58.316,hesp_baseline,2021.2.3,Win32,59.95203837
,,,,,,,,,,,,,,,,,prazlunk,prazozunk,left,6.633,0,34,34,119,1,66,prazlik / prazozik,"prazlik, prazozni",ünk,NA,"János imád prazozni, ezért sokat prazlik.",Mi ritkán...,prazlunk,prazozunk,cselekszik,-lik,1,PR2004,1997,férfi,nem,2022-03-30_01h01.58.316,hesp_baseline,2021.2.3,Win32,59.95203837
,,,,,,,,,,,,,,,,,nyábétben,nyábétban,right,4.317,0,35,35,21,1,76,nyábét,nyábét,ban,é,Ez itt egy nyábét.,Ott vagyunk a...,nyábétben,nyábétban,dzsungel,NA,NA,PR2004,1997,férfi,nem,2022-03-30_01h01.58.316,hesp_baseline,2021.2.3,Win32,59.95203837
,,,,,,,,,,,,,,,,,líroznak,lírlanak,right,10.951,0,36,36,115,1,62,lírlik / lírozik,"lírlik, lírozni",nek,NA,"János imád lírozni, ezért sokat lírlik.",Ők ritkán...,lírlanak,líroznak,cselekszik,-lik,1,PR2004,1997,férfi,nem,2022-03-30_01h01.58.316,hesp_baseline,2021.2.3,Win32,59.95203837
,,,,,,,,,,,,,,,,,szirlom,szirlok,right,9.215,0,37,37,62,1,63,szirlik,szirlasz,NA,NA,Te bizony sokat szirlasz.,Én is sokat...,szirlok,szirlom,lakik,-lik,1,PR2004,1997,férfi,nem,2022-03-30_01h01.58.316,hesp_baseline,2021.2.3,Win32,59.95203837
,,,,,,,,,,,,,,,,,tiregzem,tiregzek,left,4.367,0,38,38,64,1,65,tiregzik,tiregzel,NA,NA,Te bizony sokat tiregzel.,Én is sokat...,tiregzek,tiregzem,lakik,-zik,2,PR2004,1997,férfi,nem,2022-03-30_01h01.58.316,hesp_baseline,2021.2.3,Win32,59.95203837
,,,,,,,,,,,,,,,,,míjzunk,míjozunk,left,8.188,0,39,39,114,1,61,míjzik / míjozik,"míjzik, míjozni",ünk,NA,"János imád míjozni, ezért sokat míjzik.",Mi ritkán...,míjzunk,míjozunk,cselekszik,-zik,1,PR2004,1997,férfi,nem,2022-03-30_01h01.58.316,hesp_baseline,2021.2.3,Win32,59.95203837
,,,,,,,,,,,,,,,,,csíszlom,csíszlok,left,4.44,0,40,40,84,1,85,csíszlik,csíszlasz,NA,NA,Te bizony sokat csíszlasz.,Én is sokat...,csíszlok,csíszlom,lakik,-lik,1,PR2004,1997,férfi,nem,2022-03-30_01h01.58.316,hesp_baseline,2021.2.3,Win32,59.95203837
,,,,,,,,,,,,,,,,,frésezünk,fréslünk,right,4.905,0,41,41,138,1,85,fréslik / frésezik,"fréslik, frésezni",ünk,NA,"János imád frésezni, ezért sokat fréslik.",Mi ritkán...,fréslünk,frésezünk,cselekszik,-lik,1,PR2004,1997,férfi,nem,2022-03-30_01h01.58.316,hesp_baseline,2021.2.3,Win32,59.95203837
,,,,,,,,,,,,,,,,,flátszom,flátszok,left,11.607,0,42,42,98,1,99,flátszik,flátszol,NA,NA,Te bizony sokat flátszol.,Én is sokat...,flátszok,flátszom,lakik,-szik,1,PR2004,1997,férfi,nem,2022-03-30_01h01.58.316,hesp_baseline,2021.2.3,Win32,59.95203837
,,,,,,,,,,,,,,,,,prohódzom,prohódzok,left,5.366,0,43,43,66,1,67,prohódzik,prohódzol,NA,NA,Te bizony sokat prohódzol.,Én is sokat...,prohódzok,prohódzom,lakik,-zik,2,PR2004,1997,férfi,nem,2022-03-30_01h01.58.316,hesp_baseline,2021.2.3,Win32,59.95203837
,,,,,,,,,,,,,,,,,tribejeztek,tribejletek,right,6.833,0,44,44,132,1,79,tribejlik / tribejezik,"tribejlik, tribejezni",tek,NA,"János imád tribejezni, ezért sokat tribejlik.",Ti ritkán...,tribejletek,tribejeztek,cselekszik,-lik,2,PR2004,1997,férfi,nem,2022-03-30_01h01.58.316,hesp_baseline,2021.2.3,Win32,59.95203837
,,,,,,,,,,,,,,,,,spiharoztok,spiharzotok,left,9.255,0,45,45,127,1,74,spiharzik / spiharozik,"spiharzik, spiharozni",tek,NA,"János imád spiharozni, ezért sokat spiharzik.",Ti ritkán...,spiharzotok,spiharoztok,cselekszik,-zik,2,PR2004,1997,férfi,nem,2022-03-30_01h01.58.316,hesp_baseline,2021.2.3,Win32,59.95203837
,,,,,,,,,,,,,,,,,gihesztnek,gihesztnak,left,4.099,0,46,46,36,1,91,giheszt,giheszt,nak,e,Ez itt egy giheszt.,Elneveztem a kutyámat...,gihesztnek,gihesztnak,dzsungel,NA,NA,PR2004,1997,férfi,nem,2022-03-30_01h01.58.316,hesp_baseline,2021.2.3,Win32,59.95203837
,,,,,,,,,,,,,,,,,klidlom,klidlok,right,7.46,0,47,47,72,1,73,klidlik,klidlasz,NA,NA,Te bizony sokat klidlasz.,Én is sokat...,klidlok,klidlom,lakik,-lik,1,PR2004,1997,férfi,nem,2022-03-30_01h01.58.316,hesp_baseline,2021.2.3,Win32,59.95203837
,,,,,,,,,,,,,,,,,branylanak,branyoznak,left,4.614,0,48,48,136,1,83,branylik / branyozik,"branylik, branyozni",nek,NA,"János imád branyozni, ezért sokat branylik.",Ők ritkán...,branylanak,branyoznak,cselekszik,-lik,1,PR2004,1997,férfi,nem,2022-03-30_01h01.58.316,hesp_baseline,2021.2.3,Win32,59.95203837
,,,,,,,,,,,,,,,,,forzédnek,forzédnak,right,3.927,0,49,49,46,1,101,forzéd,forzéd,nak,é,Ez itt egy forzéd.,Elneveztem a kutyámat...,forzédnek,forzédnak,dzsungel,NA,NA,PR2004,1997,férfi,nem,2022-03-30_01h01.58.316,hesp_baseline,2021.2.3,Win32,59.95203837
,,,,,,,,,,,,,,,,,sprűröznek,sprűrlenek,right,8.43,0,50,50,135,1,82,sprűrlik / sprűrözik,"sprűrlik, sprűrözni",nek,NA,"János imád sprűrözni, ezért sokat sprűrlik.",Ők ritkán...,sprűrlenek,sprűröznek,cselekszik,-lik,1,PR2004,1997,férfi,nem,2022-03-30_01h01.58.316,hesp_baseline,2021.2.3,Win32,59.95203837
,,,,,,,,,,,,,,,,,zihencnek,zihencnak,left,3.853,0,51,51,52,1,107,zihenc,zihenc,nak,e,Ez itt egy zihenc.,Elneveztem a kutyámat...,zihencnek,zihencnak,dzsungel,NA,NA,PR2004,1997,férfi,nem,2022-03-30_01h01.58.316,hesp_baseline,2021.2.3,Win32,59.95203837
,,,,,,,,,,,,,,,,,gúdenben,gúdenban,left,5.416,0,52,52,4,1,59,gúden,gúden,ban,e,Ez itt egy gúden.,Ott vagyunk a...,gúdenben,gúdenban,dzsungel,NA,NA,PR2004,1997,férfi,nem,2022-03-30_01h01.58.316,hesp_baseline,2021.2.3,Win32,59.95203837
,,,,,,,,,,,,,,,,,klítegynál,klítegynél,right,4.998,0,53,53,5,1,60,klítegy,klítegy,nál,e,Ez itt egy klítegy.,Nincs is jobb egy jó...,klítegynél,klítegynál,dzsungel,NA,NA,PR2004,1997,férfi,nem,2022-03-30_01h01.58.316,hesp_baseline,2021.2.3,Win32,59.95203837
,,,,,,,,,,,,,,,,,nyürzenek,nyüröznek,left,5.472,0,54,54,123,1,70,nyürzik / nyürözik,"nyürzik, nyürözni",nek,NA,"János imád nyürözni, ezért sokat nyürzik.",Ők ritkán...,nyürzenek,nyüröznek,cselekszik,-zik,1,PR2004,1997,férfi,nem,2022-03-30_01h01.58.316,hesp_baseline,2021.2.3,Win32,59.95203837
,,,,,,,,,,,,,,,,,pribemlem,pribemlek,right,3.219,0,55,55,107,1,108,pribemlik,pribemlesz,NA,NA,Te bizony sokat pribemlesz.,Én is sokat...,pribemlek,pribemlem,lakik,-lik,2,PR2004,1997,férfi,nem,2022-03-30_01h01.58.316,hesp_baseline,2021.2.3,Win32,59.95203837
,,,,,,,,,,,,,,,,,hubonylotok,hubonyoztok,left,6.573,0,56,56,157,1,104,hubonylik / hubonyozik,"hubonylik, hubonyozni",tek,NA,"János imád hubonyozni, ezért sokat hubonylik.",Ti ritkán...,hubonylotok,hubonyoztok,cselekszik,-lik,2,PR2004,1997,férfi,nem,2022-03-30_01h01.58.316,hesp_baseline,2021.2.3,Win32,59.95203837
,,,,,,,,,,,,,,,,,sortemnál,sortemnél,right,10.909,0,57,57,15,1,70,sortem,sortem,nál,e,Ez itt egy sortem.,Nincs is jobb egy jó...,sortemnél,sortemnál,dzsungel,NA,NA,PR2004,1997,férfi,nem,2022-03-30_01h01.58.316,hesp_baseline,2021.2.3,Win32,59.95203837
,,,,,,,,,,,,,,,,,lihadzom,lihadzok,right,5.15,0,58,58,101,1,102,lihadzik,lihadzol,NA,NA,Te bizony sokat lihadzol.,Én is sokat...,lihadzok,lihadzom,lakik,-zik,2,PR2004,1997,férfi,nem,2022-03-30_01h01.58.316,hesp_baseline,2021.2.3,Win32,59.95203837
,,,,,,,,,,,,,,,,,csintékben,csintékban,left,4.953,0,59,59,23,1,78,csinték,csinték,ban,é,Ez itt egy csinték.,Ott vagyunk a...,csintékben,csintékban,dzsungel,NA,NA,PR2004,1997,férfi,nem,2022-03-30_01h01.58.316,hesp_baseline,2021.2.3,Win32,59.95203837
,,,,,,,,,,,,,,,,,sprogzom,sprogzok,left,2.945,0,60,60,89,1,90,sprogzik,sprogzol,NA,NA,Te bizony sokat sprogzol.,Én is sokat...,sprogzok,sprogzom,lakik,-zik,1,PR2004,1997,férfi,nem,2022-03-30_01h01.58.316,hesp_baseline,2021.2.3,Win32,59.95203837
,,,,,,,,,,,,,,,,,mihágoztok,mihágzotok,left,7.184,0,61,61,118,1,65,mihágzik / mihágozik,"mihágzik, mihágozni",tek,NA,"János imád mihágozni, ezért sokat mihágzik.",Ti ritkán...,mihágzotok,mihágoztok,cselekszik,-zik,2,PR2004,1997,férfi,nem,2022-03-30_01h01.58.316,hesp_baseline,2021.2.3,Win32,59.95203837
,,,,,,,,,,,,,,,,,drojzunk,drojozunk,left,5.561,0,62,62,140,1,87,drojzik / drojozik,"drojzik, drojozni",ünk,NA,"János imád drojozni, ezért sokat drojzik.",Mi ritkán...,drojzunk,drojozunk,cselekszik,-zik,1,PR2004,1997,férfi,nem,2022-03-30_01h01.58.316,hesp_baseline,2021.2.3,Win32,59.95203837
,,,,,,,,,,,,,,,,,posoztok,poslotok,right,7.886,0,63,63,121,1,68,poslik / posozik,"poslik, posozni",tek,NA,"János imád posozni, ezért sokat poslik.",Ti ritkán...,poslotok,posoztok,cselekszik,-lik,1,PR2004,1997,férfi,nem,2022-03-30_01h01.58.316,hesp_baseline,2021.2.3,Win32,59.95203837
,,,,,,,,,,,,,,,,,nurokozunk,nuroklunk,right,6.724,0,64,64,131,1,78,nuroklik / nurokozik,"nuroklik, nurokozni",ünk,NA,"János imád nurokozni, ezért sokat nuroklik.",Mi ritkán...,nuroklunk,nurokozunk,cselekszik,-lik,2,PR2004,1997,férfi,nem,2022-03-30_01h01.58.316,hesp_baseline,2021.2.3,Win32,59.95203837
,,,,,,,,,,,,,,,,,klingeszban,klingeszben,right,3.769,0,65,65,1,1,56,klingesz,klingesz,ban,e,Ez itt egy klingesz.,Ott vagyunk a...,klingeszben,klingeszban,dzsungel,NA,NA,PR2004,1997,férfi,nem,2022-03-30_01h01.58.316,hesp_baseline,2021.2.3,Win32,59.95203837
,,,,,,,,,,,,,,,,,júdernek,júdernak,right,9.057,0,66,66,53,1,108,júder,júder,nak,e,Ez itt egy júder.,Elneveztem a kutyámat...,júdernek,júdernak,dzsungel,NA,NA,PR2004,1997,férfi,nem,2022-03-30_01h01.58.316,hesp_baseline,2021.2.3,Win32,59.95203837
,,,,,,,,,,,,,,,,,spülűdzöm,spülűdzök,left,6.416,0,67,67,56,1,57,spülűdzik,spülűdzöl,NA,NA,Te bizony sokat spülűdzöl.,Én is sokat...,spülűdzök,spülűdzöm,lakik,-zik,2,PR2004,1997,férfi,nem,2022-03-30_01h01.58.316,hesp_baseline,2021.2.3,Win32,59.95203837
,,,,,,,,,,,,,,,,,metégszenek,metégednek,left,8.447,0,68,68,112,1,59,metégszik / metégedik,"metégszik, metégedni",nek,NA,"János imád metégedni, ezért sokat metégszik.",Ők ritkán...,metégszenek,metégednek,cselekszik,-szik,2,PR2004,1997,férfi,nem,2022-03-30_01h01.58.316,hesp_baseline,2021.2.3,Win32,59.95203837
,,,,,,,,,,,,,,,,,prilepszünk,prilepedünk,left,5.672,0,69,69,161,1,108,prilepszik / prilepedik,"prilepszik, prilepedni",ünk,NA,"János imád prilepedni, ezért sokat prilepszik.",Mi ritkán...,prilepszünk,prilepedünk,cselekszik,-szik,2,PR2004,1997,férfi,nem,2022-03-30_01h01.58.316,hesp_baseline,2021.2.3,Win32,59.95203837
,,,,,,,,,,,,,,,,,juszlok,juszlom,right,4.605,0,70,70,79,1,80,juszlik,juszlasz,NA,NA,Te bizony sokat juszlasz.,Én is sokat...,juszlok,juszlom,lakik,-lik,1,PR2004,1997,férfi,nem,2022-03-30_01h01.58.316,hesp_baseline,2021.2.3,Win32,59.95203837
,,,,,,,,,,,,,,,,,flüröklötök,flürököztök,left,3.651,0,71,71,149,1,96,flüröklik / flüröközik,"flüröklik, flüröközni",tek,NA,"János imád flüröközni, ezért sokat flüröklik.",Ti ritkán...,flüröklötök,flürököztök,cselekszik,-lik,2,PR2004,1997,férfi,nem,2022-03-30_01h01.58.316,hesp_baseline,2021.2.3,Win32,59.95203837
,,,,,,,,,,,,,,,,,zsigénnél,zsigénnál,left,4.311,0,72,72,12,1,67,zsigén,zsigén,nál,é,Ez itt egy zsigén.,Nincs is jobb egy jó...,zsigénnél,zsigénnál,dzsungel,NA,NA,PR2004,1997,férfi,nem,2022-03-30_01h01.58.316,hesp_baseline,2021.2.3,Win32,59.95203837
,,,,,,,,,,,,,,,,,sojzok,sojzom,right,5.043,0,73,73,74,1,75,sojzik,sojzol,NA,NA,Te bizony sokat sojzol.,Én is sokat...,sojzok,sojzom,lakik,-zik,1,PR2004,1997,férfi,nem,2022-03-30_01h01.58.316,hesp_baseline,2021.2.3,Win32,59.95203837
,,,,,,,,,,,,,,,,,nyametban,nyametben,left,3.512,0,74,74,17,1,72,nyamet,nyamet,ban,e,Ez itt egy nyamet.,Ott vagyunk a...,nyametben,nyametban,dzsungel,NA,NA,PR2004,1997,férfi,nem,2022-03-30_01h01.58.316,hesp_baseline,2021.2.3,Win32,59.95203837
,,,,,,,,,,,,,,,,,pratelynak,pratelynek,left,2.613,0,75,75,47,1,102,prately,prately,nak,e,Ez itt egy prately.,Elneveztem a kutyámat...,pratelynek,pratelynak,dzsungel,NA,NA,PR2004,1997,férfi,nem,2022-03-30_01h01.58.316,hesp_baseline,2021.2.3,Win32,59.95203837
,,,,,,,,,,,,,,,,,fligzok,fligzom,right,2.012,0,76,76,103,1,104,fligzik,fligzol,NA,NA,Te bizony sokat fligzol.,Én is sokat...,fligzok,fligzom,lakik,-zik,1,PR2004,1997,férfi,nem,2022-03-30_01h01.58.316,hesp_baseline,2021.2.3,Win32,59.95203837
,,,,,,,,,,,,,,,,,fojlegynek,fojlegynak,left,5.386,0,77,77,3,1,58,fojlegy,fojlegy,nak,e,Ez itt egy fojlegy.,Elneveztem a kutyámat...,fojlegynek,fojlegynak,dzsungel,NA,NA,PR2004,1997,férfi,nem,2022-03-30_01h01.58.316,hesp_baseline,2021.2.3,Win32,59.95203837
,,,,,,,,,,,,,,,,,femlek,femlem,left,3.819,0,78,78,57,1,58,femlik,femlesz,NA,NA,Te bizony sokat femlesz.,Én is sokat...,femlek,femlem,lakik,-lik,1,PR2004,1997,férfi,nem,2022-03-30_01h01.58.316,hesp_baseline,2021.2.3,Win32,59.95203837
,,,,,,,,,,,,,,,,,prihegszenek,prihegednek,left,5.087,0,79,79,155,1,102,prihegszik / prihegedik,"prihegszik, prihegedni",nek,NA,"János imád prihegedni, ezért sokat prihegszik.",Ők ritkán...,prihegszenek,prihegednek,cselekszik,-szik,2,PR2004,1997,férfi,nem,2022-03-30_01h01.58.316,hesp_baseline,2021.2.3,Win32,59.95203837
,,,,,,,,,,,,,,,,,frálasoznak,frálaslanak,right,18.995,0,80,80,110,1,57,frálaslik / frálasozik,"frálaslik, frálasozni",nek,NA,"János imád frálasozni, ezért sokat frálaslik.",Ők ritkán...,frálaslanak,frálasoznak,cselekszik,-lik,2,PR2004,1997,férfi,nem,2022-03-30_01h01.58.316,hesp_baseline,2021.2.3,Win32,59.95203837
,,,,,,,,,,,,,,,,,spöközünk,spöklünk,right,5.547,0,81,81,130,1,77,spöklik / spöközik,"spöklik, spöközni",ünk,NA,"János imád spöközni, ezért sokat spöklik.",Mi ritkán...,spöklünk,spöközünk,cselekszik,-lik,1,PR2004,1997,férfi,nem,2022-03-30_01h01.58.316,hesp_baseline,2021.2.3,Win32,59.95203837
,,,,,,,,,,,,,,,,,klazérban,klazérben,left,4.369,0,82,82,51,1,106,klazér,klazér,ban,é,Ez itt egy klazér.,Ott vagyunk a...,klazérben,klazérban,dzsungel,NA,NA,PR2004,1997,férfi,nem,2022-03-30_01h01.58.316,hesp_baseline,2021.2.3,Win32,59.95203837
,,,,,,,,,,,,,,,,,flűmlök,flűmlöm,left,4.414,0,83,83,54,1,55,flűmlik,flűmlesz,NA,NA,Te bizony sokat flűmlesz.,Én is sokat...,flűmlök,flűmlöm,lakik,-lik,1,PR2004,1997,férfi,nem,2022-03-30_01h01.58.316,hesp_baseline,2021.2.3,Win32,59.95203837
,,,,,,,,,,,,,,,,,gihamoznak,gihamlanak,right,4.559,0,84,84,133,1,80,gihamlik / gihamozik,"gihamlik, gihamozni",nek,NA,"János imád gihamozni, ezért sokat gihamlik.",Ők ritkán...,gihamlanak,gihamoznak,cselekszik,-lik,2,PR2004,1997,férfi,nem,2022-03-30_01h01.58.316,hesp_baseline,2021.2.3,Win32,59.95203837
,,,,,,,,,,,,,,,,,szűslök,szűslöm,left,5.531,0,85,85,85,1,86,szűslik,szűslesz,NA,NA,Te bizony sokat szűslesz.,Én is sokat...,szűslök,szűslöm,lakik,-lik,1,PR2004,1997,férfi,nem,2022-03-30_01h01.58.316,hesp_baseline,2021.2.3,Win32,59.95203837
,,,,,,,,,,,,,,,,,jonylok,jonylom,left,4.864,0,86,86,55,1,56,jonylik,jonylasz,NA,NA,Te bizony sokat jonylasz.,Én is sokat...,jonylok,jonylom,lakik,-lik,1,PR2004,1997,férfi,nem,2022-03-30_01h01.58.316,hesp_baseline,2021.2.3,Win32,59.95203837
,,,,,,,,,,,,,,,,,spibeglünk,spibegezünk,left,5.901,0,87,87,147,1,94,spibeglik / spibegezik,"spibeglik, spibegezni",ünk,NA,"János imád spibegezni, ezért sokat spibeglik.",Mi ritkán...,spibeglünk,spibegezünk,cselekszik,-lik,2,PR2004,1997,férfi,nem,2022-03-30_01h01.58.316,hesp_baseline,2021.2.3,Win32,59.95203837
,,,,,,,,,,,,,,,,,frodlok,frodlom,left,3.272,0,88,88,61,1,62,frodlik,frodlasz,NA,NA,Te bizony sokat frodlasz.,Én is sokat...,frodlok,frodlom,lakik,-lik,1,PR2004,1997,férfi,nem,2022-03-30_01h01.58.316,hesp_baseline,2021.2.3,Win32,59.95203837
,,,,,,,,,,,,,,,,,ribegzem,ribegzek,left,3.588,0,89,89,63,1,64,ribegzik,ribegzel,NA,NA,Te bizony sokat ribegzel.,Én is sokat...,ribegzek,ribegzem,lakik,-zik,2,PR2004,1997,férfi,nem,2022-03-30_01h01.58.316,hesp_baseline,2021.2.3,Win32,59.95203837
,,,,,,,,,,,,,,,,,tumélynál,tumélynél,right,3.207,0,90,90,28,1,83,tumély,tumély,nál,é,Ez itt egy tumély.,Nincs is jobb egy jó...,tumélynél,tumélynál,dzsungel,NA,NA,PR2004,1997,férfi,nem,2022-03-30_01h01.58.316,hesp_baseline,2021.2.3,Win32,59.95203837
,,,,,,,,,,,,,,,,,molszotok,molodtok,left,8.486,0,91,91,142,1,89,molszik / molodik,"molszik, molodni",tek,NA,"János imád molodni, ezért sokat molszik.",Ti ritkán...,molszotok,molodtok,cselekszik,-szik,1,PR2004,1997,férfi,nem,2022-03-30_01h01.58.316,hesp_baseline,2021.2.3,Win32,59.95203837
,,,,,,,,,,,,,,,,,sprízemnál,sprízemnél,right,4.375,0,92,92,22,1,77,sprízem,sprízem,nál,e,Ez itt egy sprízem.,Nincs is jobb egy jó...,sprízemnél,sprízemnál,dzsungel,NA,NA,PR2004,1997,férfi,nem,2022-03-30_01h01.58.316,hesp_baseline,2021.2.3,Win32,59.95203837
,,,,,,,,,,,,,,,,,flehékszek,flehékszem,right,4.614,0,93,93,77,1,78,flehékszik,flehékszel,NA,NA,Te bizony sokat flehékszel.,Én is sokat...,flehékszek,flehékszem,lakik,-szik,2,PR2004,1997,férfi,nem,2022-03-30_01h01.58.316,hesp_baseline,2021.2.3,Win32,59.95203837
,,,,,,,,,,,,,,,,,livényezünk,livénylünk,right,5.248,0,94,94,128,1,75,livénylik / livényezik,"livénylik, livényezni",ünk,NA,"János imád livényezni, ezért sokat livénylik.",Mi ritkán...,livénylünk,livényezünk,cselekszik,-lik,2,PR2004,1997,férfi,nem,2022-03-30_01h01.58.316,hesp_baseline,2021.2.3,Win32,59.95203837
,,,,,,,,,,,,,,,,,spizecnek,spizecnak,left,3.499,0,95,95,6,1,61,spizec,spizec,nak,e,Ez itt egy spizec.,Elneveztem a kutyámat...,spizecnek,spizecnak,dzsungel,NA,NA,PR2004,1997,férfi,nem,2022-03-30_01h01.58.316,hesp_baseline,2021.2.3,Win32,59.95203837
,,,,,,,,,,,,,,,,,nyádlanak,nyádoznak,left,4.831,0,96,96,120,1,67,nyádlik / nyádozik,"nyádlik, nyádozni",nek,NA,"János imád nyádozni, ezért sokat nyádlik.",Ők ritkán...,nyádlanak,nyádoznak,cselekszik,-lik,1,PR2004,1997,férfi,nem,2022-03-30_01h01.58.316,hesp_baseline,2021.2.3,Win32,59.95203837
,,,,,,,,,,,,,,,,,kátédnál,kátédnél,left,2.929,0,97,97,37,1,92,kátéd,kátéd,nál,é,Ez itt egy kátéd.,Nincs is jobb egy jó...,kátédnél,kátédnál,dzsungel,NA,NA,PR2004,1997,férfi,nem,2022-03-30_01h01.58.316,hesp_baseline,2021.2.3,Win32,59.95203837
,,,,,,,,,,,,,,,,,brágaklok,brágaklom,right,5.224,0,98,98,71,1,72,brágaklik,brágaklasz,NA,NA,Te bizony sokat brágaklasz.,Én is sokat...,brágaklok,brágaklom,lakik,-lik,2,PR2004,1997,férfi,nem,2022-03-30_01h01.58.316,hesp_baseline,2021.2.3,Win32,59.95203837
,,,,,,,,,,,,,,,,,fivénylem,fivénylek,left,4.084,0,99,99,78,1,79,fivénylik,fivénylesz,NA,NA,Te bizony sokat fivénylesz.,Én is sokat...,fivénylek,fivénylem,lakik,-lik,2,PR2004,1997,férfi,nem,2022-03-30_01h01.58.316,hesp_baseline,2021.2.3,Win32,59.95203837
,,,,,,,,,,,,,,,,,kalrézben,kalrézban,right,6.199,0,100,100,16,1,71,kalréz,kalréz,ban,é,Ez itt egy kalréz.,Ott vagyunk a...,kalrézben,kalrézban,dzsungel,NA,NA,PR2004,1997,férfi,nem,2022-03-30_01h01.58.316,hesp_baseline,2021.2.3,Win32,59.95203837
,,,,,,,,,,,,,,,,,töglenek,tögöznek,left,4.215,0,101,101,156,1,103,töglik / tögözik,"töglik, tögözni",nek,NA,"János imád tögözni, ezért sokat töglik.",Ők ritkán...,töglenek,tögöznek,cselekszik,-lik,1,PR2004,1997,férfi,nem,2022-03-30_01h01.58.316,hesp_baseline,2021.2.3,Win32,59.95203837
,,,,,,,,,,,,,,,,,csólorzok,csólorzom,right,5.528,0,102,102,102,1,103,csólorzik,csólorzol,NA,NA,Te bizony sokat csólorzol.,Én is sokat...,csólorzok,csólorzom,lakik,-zik,2,PR2004,1997,férfi,nem,2022-03-30_01h01.58.316,hesp_baseline,2021.2.3,Win32,59.95203837
,,,,,,,,,,,,,,,,,csimennél,csimennál,left,2.928,0,103,103,44,1,99,csimen,csimen,nál,e,Ez itt egy csimen.,Nincs is jobb egy jó...,csimennél,csimennál,dzsungel,NA,NA,PR2004,1997,férfi,nem,2022-03-30_01h01.58.316,hesp_baseline,2021.2.3,Win32,59.95203837
,,,,,,,,,,,,,,,,,ronvetnek,ronvetnak,left,16.04,0,104,104,9,1,64,ronvet,ronvet,nak,e,Ez itt egy ronvet.,Elneveztem a kutyámat...,ronvetnek,ronvetnak,dzsungel,NA,NA,PR2004,1997,férfi,nem,2022-03-30_01h01.58.316,hesp_baseline,2021.2.3,Win32,59.95203837
,,,,,,,,,,,,,,,,,kluzoztok,kluzlotok,left,5.651,0,105,105,148,1,95,kluzlik / kluzozik,"kluzlik, kluzozni",tek,NA,"János imád kluzozni, ezért sokat kluzlik.",Ti ritkán...,kluzlotok,kluzoztok,cselekszik,-lik,1,PR2004,1997,férfi,nem,2022-03-30_01h01.58.316,hesp_baseline,2021.2.3,Win32,59.95203837
,,,,,,,,,,,,,,,,,zutennél,zutennál,left,2.545,0,106,106,43,1,98,zuten,zuten,nál,e,Ez itt egy zuten.,Nincs is jobb egy jó...,zutennél,zutennál,dzsungel,NA,NA,PR2004,1997,férfi,nem,2022-03-30_01h01.58.316,hesp_baseline,2021.2.3,Win32,59.95203837
,,,,,,,,,,,,,,,,,nűröklök,nűröklöm,right,4.002,0,107,107,106,1,107,nűröklik,nűröklesz,NA,NA,Te bizony sokat nűröklesz.,Én is sokat...,nűröklök,nűröklöm,lakik,-lik,2,PR2004,1997,férfi,nem,2022-03-30_01h01.58.316,hesp_baseline,2021.2.3,Win32,59.95203837
,,,,,,,,,,,,,,,,,trugoznak,trugzanak,right,4.897,0,108,108,146,1,93,trugzik / trugozik,"trugzik, trugozni",nek,NA,"János imád trugozni, ezért sokat trugzik.",Ők ritkán...,trugzanak,trugoznak,cselekszik,-zik,1,PR2004,1997,férfi,nem,2022-03-30_01h01.58.316,hesp_baseline,2021.2.3,Win32,59.95203837
,,,,,,,,,,,,,,,,,dóbemnek,dóbemnak,right,4.168,0,109,109,48,1,103,dóbem,dóbem,nak,e,Ez itt egy dóbem.,Elneveztem a kutyámat...,dóbemnek,dóbemnak,dzsungel,NA,NA,PR2004,1997,férfi,nem,2022-03-30_01h01.58.316,hesp_baseline,2021.2.3,Win32,59.95203837
,,,,,,,,,,,,,,,,,dineltben,dineltban,left,2.52,0,110,110,0,1,55,dinelt,dinelt,ban,e,Ez itt egy dinelt.,Ott vagyunk a...,dineltben,dineltban,dzsungel,NA,NA,PR2004,1997,férfi,nem,2022-03-30_01h01.58.316,hesp_baseline,2021.2.3,Win32,59.95203837
,,,,,,,,,,,,,,,,,klehényletek,klehényeztek,left,4.77,0,111,111,113,1,60,klehénylik / klehényezik,"klehénylik, klehényezni",tek,NA,"János imád klehényezni, ezért sokat klehénylik.",Ti ritkán...,klehényletek,klehényeztek,cselekszik,-lik,2,PR2004,1997,férfi,nem,2022-03-30_01h01.58.316,hesp_baseline,2021.2.3,Win32,59.95203837
,,,,,,,,,,,,,,,,,gyihegzetek,gyihegeztek,right,13.532,0,112,112,124,1,71,gyihegzik / gyihegezik,"gyihegzik, gyihegezni",tek,NA,"János imád gyihegezni, ezért sokat gyihegzik.",Ti ritkán...,gyihegzetek,gyihegeztek,cselekszik,-zik,2,PR2004,1997,férfi,nem,2022-03-30_01h01.58.316,hesp_baseline,2021.2.3,Win32,59.95203837
,,,,,,,,,,,,,,,,,pivegszek,pivegszem,left,3.611,0,113,113,99,1,100,pivegszik,pivegszel,NA,NA,Te bizony sokat pivegszel.,Én is sokat...,pivegszek,pivegszem,lakik,-szik,2,PR2004,1997,férfi,nem,2022-03-30_01h01.58.316,hesp_baseline,2021.2.3,Win32,59.95203837
,,,,,,,,,,,,,,,,,fröjlünk,fröjözünk,left,4.799,0,114,114,117,1,64,fröjlik / fröjözik,"fröjlik, fröjözni",ünk,NA,"János imád fröjözni, ezért sokat fröjlik.",Mi ritkán...,fröjlünk,fröjözünk,cselekszik,-lik,1,PR2004,1997,férfi,nem,2022-03-30_01h01.58.316,hesp_baseline,2021.2.3,Win32,59.95203837
,,,,,,,,,,,,,,,,,flűröklöm,flűröklök,left,4.545,0,115,115,91,1,92,flűröklik,flűröklesz,NA,NA,Te bizony sokat flűröklesz.,Én is sokat...,flűröklök,flűröklöm,lakik,-lik,2,PR2004,1997,férfi,nem,2022-03-30_01h01.58.316,hesp_baseline,2021.2.3,Win32,59.95203837
,,,,,,,,,,,,,,,,,ribzom,ribzok,right,3.269,0,116,116,58,1,59,ribzik,ribzol,NA,NA,Te bizony sokat ribzol.,Én is sokat...,ribzok,ribzom,lakik,-zik,1,PR2004,1997,férfi,nem,2022-03-30_01h01.58.316,hesp_baseline,2021.2.3,Win32,59.95203837
,,,,,,,,,,,,,,,,,spüjzök,spüjzöm,left,3.754,0,117,117,59,1,60,spüjzik,spüjzöl,NA,NA,Te bizony sokat spüjzöl.,Én is sokat...,spüjzök,spüjzöm,lakik,-zik,1,PR2004,1997,férfi,nem,2022-03-30_01h01.58.316,hesp_baseline,2021.2.3,Win32,59.95203837
,,,,,,,,,,,,,,,,,trírozunk,trírzunk,right,8.905,0,118,118,116,1,63,trírzik / trírozik,"trírzik, trírozni",ünk,NA,"János imád trírozni, ezért sokat trírzik.",Mi ritkán...,trírzunk,trírozunk,cselekszik,-zik,1,PR2004,1997,férfi,nem,2022-03-30_01h01.58.316,hesp_baseline,2021.2.3,Win32,59.95203837
,,,,,,,,,,,,,,,,,brivegzem,brivegzek,left,3.384,0,119,119,70,1,71,brivegzik,brivegzel,NA,NA,Te bizony sokat brivegzel.,Én is sokat...,brivegzek,brivegzem,lakik,-zik,2,PR2004,1997,férfi,nem,2022-03-30_01h01.58.316,hesp_baseline,2021.2.3,Win32,59.95203837
,,,,,,,,,,,,,,,,,bingéjnek,bingéjnak,left,4.696,0,120,120,49,1,104,bingéj,bingéj,nak,é,Ez itt egy bingéj.,Elneveztem a kutyámat...,bingéjnek,bingéjnak,dzsungel,NA,NA,PR2004,1997,férfi,nem,2022-03-30_01h01.58.316,hesp_baseline,2021.2.3,Win32,59.95203837
,,,,,,,,,,,,,,,,,fájézban,fájézben,left,2.757,0,121,121,7,1,62,fájéz,fájéz,ban,é,Ez itt egy fájéz.,Ott vagyunk a...,fájézben,fájézban,dzsungel,NA,NA,PR2004,1997,férfi,nem,2022-03-30_01h01.58.316,hesp_baseline,2021.2.3,Win32,59.95203837
,,,,,,,,,,,,,,,,,brágédnak,brágédnek,left,3.472,0,122,122,45,1,100,brágéd,brágéd,nak,é,Ez itt egy brágéd.,Elneveztem a kutyámat...,brágédnek,brágédnak,dzsungel,NA,NA,PR2004,1997,férfi,nem,2022-03-30_01h01.58.316,hesp_baseline,2021.2.3,Win32,59.95203837
,,,,,,,,,,,,,,,,,flubokoztok,fluboklotok,right,5.765,0,123,123,151,1,98,fluboklik / flubokozik,"fluboklik, flubokozni",tek,NA,"János imád flubokozni, ezért sokat fluboklik.",Ti ritkán...,fluboklotok,flubokoztok,cselekszik,-lik,2,PR2004,1997,férfi,nem,2022-03-30_01h01.58.316,hesp_baseline,2021.2.3,Win32,59.95203837
,,,,,,,,,,,,,,,,,csubozunk,csubzunk,right,4.24,0,124,124,111,1,58,csubzik / csubozik,"csubzik, csubozni",ünk,NA,"János imád csubozni, ezért sokat csubzik.",Mi ritkán...,csubzunk,csubozunk,cselekszik,-zik,1,PR2004,1997,férfi,nem,2022-03-30_01h01.58.316,hesp_baseline,2021.2.3,Win32,59.95203837
,,,,,,,,,,,,,,,,,flitlok,flitlom,left,3.416,0,125,125,90,1,91,flitlik,flitlasz,NA,NA,Te bizony sokat flitlasz.,Én is sokat...,flitlok,flitlom,lakik,-lik,1,PR2004,1997,férfi,nem,2022-03-30_01h01.58.316,hesp_baseline,2021.2.3,Win32,59.95203837
,,,,,,,,,,,,,,,,,dihelynek,dihelynak,left,3.038,0,126,126,20,1,75,dihely,dihely,nak,e,Ez itt egy dihely.,Elneveztem a kutyámat...,dihelynek,dihelynak,dzsungel,NA,NA,PR2004,1997,férfi,nem,2022-03-30_01h01.58.316,hesp_baseline,2021.2.3,Win32,59.95203837
,,,,,,,,,,,,,,,,,spáraklok,spáraklom,left,4.665,0,127,127,96,1,97,spáraklik,spáraklasz,NA,NA,Te bizony sokat spáraklasz.,Én is sokat...,spáraklok,spáraklom,lakik,-lik,2,PR2004,1997,férfi,nem,2022-03-30_01h01.58.316,hesp_baseline,2021.2.3,Win32,59.95203837
,,,,,,,,,,,,,,,,,bribékszetek,bribékedtek,left,7.684,0,128,128,141,1,88,bribékszik / bribékedik,"bribékszik, bribékedni",tek,NA,"János imád bribékedni, ezért sokat bribékszik.",Ti ritkán...,bribékszetek,bribékedtek,cselekszik,-szik,2,PR2004,1997,férfi,nem,2022-03-30_01h01.58.316,hesp_baseline,2021.2.3,Win32,59.95203837
,,,,,,,,,,,,,,,,,péleslek,péleslem,right,5.981,0,129,129,73,1,74,péleslik,péleslesz,NA,NA,Te bizony sokat péleslesz.,Én is sokat...,péleslek,péleslem,lakik,-lik,2,PR2004,1997,férfi,nem,2022-03-30_01h01.58.316,hesp_baseline,2021.2.3,Win32,59.95203837
,,,,,,,,,,,,,,,,,lijeznek,lijeznak,left,3.93,0,130,130,40,1,95,lijez,lijez,nak,e,Ez itt egy lijez.,Elneveztem a kutyámat...,lijeznek,lijeznak,dzsungel,NA,NA,PR2004,1997,férfi,nem,2022-03-30_01h01.58.316,hesp_baseline,2021.2.3,Win32,59.95203837
,,,,,,,,,,,,,,,,,lorjódzok,lorjódzom,right,6.007,0,131,131,88,1,89,lorjódzik,lorjódzol,NA,NA,Te bizony sokat lorjódzol.,Én is sokat...,lorjódzok,lorjódzom,lakik,-zik,2,PR2004,1997,férfi,nem,2022-03-30_01h01.58.316,hesp_baseline,2021.2.3,Win32,59.95203837
,,,,,,,,,,,,,,,,,fröjöztök,fröjzötök,left,7.232,0,132,132,153,1,100,fröjzik / fröjözik,"fröjzik, fröjözni",tek,NA,"János imád fröjözni, ezért sokat fröjzik.",Ti ritkán...,fröjzötök,fröjöztök,cselekszik,-zik,1,PR2004,1997,férfi,nem,2022-03-30_01h01.58.316,hesp_baseline,2021.2.3,Win32,59.95203837
,,,,,,,,,,,,,,,,,spubonylom,spubonylok,left,3.982,0,133,133,104,1,105,spubonylik,spubonylasz,NA,NA,Te bizony sokat spubonylasz.,Én is sokat...,spubonylok,spubonylom,lakik,-lik,2,PR2004,1997,férfi,nem,2022-03-30_01h01.58.316,hesp_baseline,2021.2.3,Win32,59.95203837
,,,,,,,,,,,,,,,,,nyöbzenek,nyöböznek,left,5.125,0,134,134,152,1,99,nyöbzik / nyöbözik,"nyöbzik, nyöbözni",nek,NA,"János imád nyöbözni, ezért sokat nyöbzik.",Ők ritkán...,nyöbzenek,nyöböznek,cselekszik,-zik,1,PR2004,1997,férfi,nem,2022-03-30_01h01.58.316,hesp_baseline,2021.2.3,Win32,59.95203837
,,,,,,,,,,,,,,,,,spihegzem,spihegzek,left,5.566,0,135,135,81,1,82,spihegzik,spihegzel,NA,NA,Te bizony sokat spihegzel.,Én is sokat...,spihegzek,spihegzem,lakik,-zik,2,PR2004,1997,férfi,nem,2022-03-30_01h01.58.316,hesp_baseline,2021.2.3,Win32,59.95203837
,,,,,,,,,,,,,,,,,spatárzok,spatárzom,right,4.655,0,136,136,69,1,70,spatárzik,spatárzol,NA,NA,Te bizony sokat spatárzol.,Én is sokat...,spatárzok,spatárzom,lakik,-zik,2,PR2004,1997,férfi,nem,2022-03-30_01h01.58.316,hesp_baseline,2021.2.3,Win32,59.95203837
,,,,,,,,,,,,,,,,,klűmöztök,klűmlötök,left,6.73,0,137,137,108,1,55,klűmlik / klűmözik,"klűmlik, klűmözni",tek,NA,"János imád klűmözni, ezért sokat klűmlik.",Ti ritkán...,klűmlötök,klűmöztök,cselekszik,-lik,1,PR2004,1997,férfi,nem,2022-03-30_01h01.58.316,hesp_baseline,2021.2.3,Win32,59.95203837
,,,,,,,,,,,,,,,,,kumlom,kumlok,right,6.037,0,138,138,105,1,106,kumlik,kumlasz,NA,NA,Te bizony sokat kumlasz.,Én is sokat...,kumlok,kumlom,lakik,-lik,1,PR2004,1997,férfi,nem,2022-03-30_01h01.58.316,hesp_baseline,2021.2.3,Win32,59.95203837
,,,,,,,,,,,,,,,,,fupétnél,fupétnál,left,3.047,0,139,139,14,1,69,fupét,fupét,nál,é,Ez itt egy fupét.,Nincs is jobb egy jó...,fupétnél,fupétnál,dzsungel,NA,NA,PR2004,1997,férfi,nem,2022-03-30_01h01.58.316,hesp_baseline,2021.2.3,Win32,59.95203837
,,,,,,,,,,,,,,,,,flézeztek,flézletek,right,7.268,0,140,140,134,1,81,flézlik / flézezik,"flézlik, flézezni",tek,NA,"János imád flézezni, ezért sokat flézlik.",Ti ritkán...,flézletek,flézeztek,cselekszik,-lik,1,PR2004,1997,férfi,nem,2022-03-30_01h01.58.316,hesp_baseline,2021.2.3,Win32,59.95203837
,,,,,,,,,,,,,,,,,dibáglotok,dibágoztok,left,5.903,0,141,141,154,1,101,dibáglik / dibágozik,"dibáglik, dibágozni",tek,NA,"János imád dibágozni, ezért sokat dibáglik.",Ti ritkán...,dibáglotok,dibágoztok,cselekszik,-lik,2,PR2004,1997,férfi,nem,2022-03-30_01h01.58.316,hesp_baseline,2021.2.3,Win32,59.95203837
,,,,,,,,,,,,,,,,,jóbecnek,jóbecnak,right,4.009,0,142,142,11,1,66,jóbec,jóbec,nak,e,Ez itt egy jóbec.,Elneveztem a kutyámat...,jóbecnek,jóbecnak,dzsungel,NA,NA,PR2004,1997,férfi,nem,2022-03-30_01h01.58.316,hesp_baseline,2021.2.3,Win32,59.95203837
,,,,,,,,,,,,,,,,,navecben,navecban,right,2.483,0,143,143,8,1,63,navec,navec,ban,e,Ez itt egy navec.,Ott vagyunk a...,navecben,navecban,dzsungel,NA,NA,PR2004,1997,férfi,nem,2022-03-30_01h01.58.316,hesp_baseline,2021.2.3,Win32,59.95203837
,,,,,,,,,,,,,,,,,spivélnak,spivélnek,right,4.857,0,144,144,27,1,82,spivél,spivél,nak,é,Ez itt egy spivél.,Elneveztem a kutyámat...,spivélnek,spivélnak,dzsungel,NA,NA,PR2004,1997,férfi,nem,2022-03-30_01h01.58.316,hesp_baseline,2021.2.3,Win32,59.95203837
,,,,,,,,,,,,,,,,,sponylanak,sponyoznak,left,4.468,0,145,145,125,1,72,sponylik / sponyozik,"sponylik, sponyozni",nek,NA,"János imád sponyozni, ezért sokat sponylik.",Ők ritkán...,sponylanak,sponyoznak,cselekszik,-lik,1,PR2004,1997,férfi,nem,2022-03-30_01h01.58.316,hesp_baseline,2021.2.3,Win32,59.95203837
,,,,,,,,,,,,,,,,,tomlom,tomlok,right,3.162,0,146,146,86,1,87,tomlik,tomlasz,NA,NA,Te bizony sokat tomlasz.,Én is sokat...,tomlok,tomlom,lakik,-lik,1,PR2004,1997,férfi,nem,2022-03-30_01h01.58.316,hesp_baseline,2021.2.3,Win32,59.95203837
,,,,,,,,,,,,,,,,,vorszennél,vorszennál,left,7.408,0,147,147,30,1,85,vorszen,vorszen,nál,e,Ez itt egy vorszen.,Nincs is jobb egy jó...,vorszennél,vorszennál,dzsungel,NA,NA,PR2004,1997,férfi,nem,2022-03-30_01h01.58.316,hesp_baseline,2021.2.3,Win32,59.95203837
,,,,,,,,,,,,,,,,,spátennak,spátennek,left,3.385,0,148,148,33,1,88,spáten,spáten,nak,e,Ez itt egy spáten.,Elneveztem a kutyámat...,spátennek,spátennak,dzsungel,NA,NA,PR2004,1997,férfi,nem,2022-03-30_01h01.58.316,hesp_baseline,2021.2.3,Win32,59.95203837
,,,,,,,,,,,,,,,,,flerékedünk,flerékszünk,right,6.277,0,149,149,159,1,106,flerékszik / flerékedik,"flerékszik, flerékedni",ünk,NA,"János imád flerékedni, ezért sokat flerékszik.",Mi ritkán...,flerékszünk,flerékedünk,cselekszik,-szik,2,PR2004,1997,férfi,nem,2022-03-30_01h01.58.316,hesp_baseline,2021.2.3,Win32,59.95203837
,,,,,,,,,,,,,,,,,hákszanak,hákodnak,left,6.646,0,150,150,150,1,97,hákszik / hákodik,"hákszik, hákodni",nek,NA,"János imád hákodni, ezért sokat hákszik.",Ők ritkán...,hákszanak,hákodnak,cselekszik,-szik,1,PR2004,1997,férfi,nem,2022-03-30_01h01.58.316,hesp_baseline,2021.2.3,Win32,59.95203837
,,,,,,,,,,,,,,,,,szanéjnak,szanéjnek,left,5.699,0,151,151,13,1,68,szanéj,szanéj,nak,é,Ez itt egy szanéj.,Elneveztem a kutyámat...,szanéjnek,szanéjnak,dzsungel,NA,NA,PR2004,1997,férfi,nem,2022-03-30_01h01.58.316,hesp_baseline,2021.2.3,Win32,59.95203837
,,,,,,,,,,,,,,,,,klajrénnek,klajrénnak,right,3.822,0,152,152,41,1,96,klajrén,klajrén,nak,é,Ez itt egy klajrén.,Elneveztem a kutyámat...,klajrénnek,klajrénnak,dzsungel,NA,NA,PR2004,1997,férfi,nem,2022-03-30_01h01.58.316,hesp_baseline,2021.2.3,Win32,59.95203837
,,,,,,,,,,,,,,,,,flüröslöm,flüröslök,left,3.013,0,153,153,87,1,88,flüröslik,flüröslesz,NA,NA,Te bizony sokat flüröslesz.,Én is sokat...,flüröslök,flüröslöm,lakik,-lik,2,PR2004,1997,férfi,nem,2022-03-30_01h01.58.316,hesp_baseline,2021.2.3,Win32,59.95203837
,,,,,,,,,,,,,,,,,tranékben,tranékban,right,2.587,0,154,154,2,1,57,tranék,tranék,ban,é,Ez itt egy tranék.,Ott vagyunk a...,tranékben,tranékban,dzsungel,NA,NA,PR2004,1997,férfi,nem,2022-03-30_01h01.58.316,hesp_baseline,2021.2.3,Win32,59.95203837
,,,,,,,,,,,,,,,,,flagánylok,flagánylom,right,3.417,0,155,155,82,1,83,flagánylik,flagánylasz,NA,NA,Te bizony sokat flagánylasz.,Én is sokat...,flagánylok,flagánylom,lakik,-lik,2,PR2004,1997,férfi,nem,2022-03-30_01h01.58.316,hesp_baseline,2021.2.3,Win32,59.95203837
,,,,,,,,,,,,,,,,,frivamlunk,frivamozunk,left,4.195,0,156,156,122,1,69,frivamlik / frivamozik,"frivamlik, frivamozni",ünk,NA,"János imád frivamozni, ezért sokat frivamlik.",Mi ritkán...,frivamlunk,frivamozunk,cselekszik,-lik,2,PR2004,1997,férfi,nem,2022-03-30_01h01.58.316,hesp_baseline,2021.2.3,Win32,59.95203837
,,,,,,,,,,,,,,,,,játozunk,játlunk,right,5.436,0,157,157,145,1,92,játlik / játozik,"játlik, játozni",ünk,NA,"János imád játozni, ezért sokat játlik.",Mi ritkán...,játlunk,játozunk,cselekszik,-lik,1,PR2004,1997,férfi,nem,2022-03-30_01h01.58.316,hesp_baseline,2021.2.3,Win32,59.95203837
,,,,,,,,,,,,,,,,,pítendban,pítendben,right,3.544,0,158,158,18,1,73,pítend,pítend,ban,e,Ez itt egy pítend.,Ott vagyunk a...,pítendben,pítendban,dzsungel,NA,NA,PR2004,1997,férfi,nem,2022-03-30_01h01.58.316,hesp_baseline,2021.2.3,Win32,59.95203837
,,,,,,,,,,,,,,,,,dingecnek,dingecnak,left,2.433,0,159,159,42,1,97,dingec,dingec,nak,e,Ez itt egy dingec.,Elneveztem a kutyámat...,dingecnek,dingecnak,dzsungel,NA,NA,PR2004,1997,férfi,nem,2022-03-30_01h01.58.316,hesp_baseline,2021.2.3,Win32,59.95203837
,,,,,,,,,,,,,,,,,praslom,praslok,right,3.897,0,160,160,80,1,81,praslik,praslasz,NA,NA,Te bizony sokat praslasz.,Én is sokat...,praslok,praslom,lakik,-lik,1,PR2004,1997,férfi,nem,2022-03-30_01h01.58.316,hesp_baseline,2021.2.3,Win32,59.95203837
,,,,,,,,,,,,,,,,,fibamlom,fibamlok,right,5.27,0,161,161,65,1,66,fibamlik,fibamlasz,NA,NA,Te bizony sokat fibamlasz.,Én is sokat...,fibamlok,fibamlom,lakik,-lik,2,PR2004,1997,férfi,nem,2022-03-30_01h01.58.316,hesp_baseline,2021.2.3,Win32,59.95203837
