my_list,key.keys,key.rt,key_2.keys,key_2.rt,keyboard_input_2.keys,keyboard_input_2.rt,key_3.keys,key_3.rt,keyboard_input_3.keys,keyboard_input_3.rt,key_4.keys,key_4.rt,keyboard_input_4.keys,keyboard_input_4.rt,key_5.keys,key_5.rt,my_button1,my_button2,keyboard_input.keys,keyboard_input.rt,withinBlock.thisRepN,withinBlock.thisTrialN,withinBlock.thisN,withinBlock.thisIndex,withinBlock.ran,rowname,word,prompt,suffix,vowel,carrier_sentence,target_sentence,target1,target2,category,derivational,nsyl,Azonosító,Melyik évben születtél?,Mi a nemed?,Tanultál nyelvészetet?,date,expName,psychopyVersion,OS,frameRate
list2.csv,space,9.4045,space,4.8884,right,3.7857,space,8.1177,right,6.7581,space,5.4398,left,6.8991,space,16.2424,plugzom,plugzok,right,10.6792,0,0,0,60,1,61,plugzik,plugzol,NA,NA,Te bizony sokat plugzol.,Én is sokat...,plugzok,plugzom,lakik,-zik,1,PR2031,2002,nő,nem,2022-04-08_22h06.42.058,hesp_baseline,2021.2.3,Win32,59.8372427
,,,,,,,,,,,,,,,,,spibeglünk,spibegezünk,left,8.8539,0,1,1,147,1,94,spibeglik / spibegezik,"spibeglik, spibegezni",ünk,NA,"János imád spibegezni, ezért sokat spibeglik.",Mi ritkán...,spibeglünk,spibegezünk,cselekszik,-lik,2,PR2031,2002,nő,nem,2022-04-08_22h06.42.058,hesp_baseline,2021.2.3,Win32,59.8372427
,,,,,,,,,,,,,,,,,trírzunk,trírozunk,right,22.7604,0,2,2,116,1,63,trírzik / trírozik,"trírzik, trírozni",ünk,NA,"János imád trírozni, ezért sokat trírzik.",Mi ritkán...,trírzunk,trírozunk,cselekszik,-zik,1,PR2031,2002,nő,nem,2022-04-08_22h06.42.058,hesp_baseline,2021.2.3,Win32,59.8372427
,,,,,,,,,,,,,,,,,kalrézban,kalrézben,left,5.8749,0,3,3,16,1,71,kalréz,kalréz,ban,é,Ez itt egy kalréz.,Ott vagyunk a...,kalrézben,kalrézban,dzsungel,NA,NA,PR2031,2002,nő,nem,2022-04-08_22h06.42.058,hesp_baseline,2021.2.3,Win32,59.8372427
,,,,,,,,,,,,,,,,,sortemnál,sortemnél,right,5.4887,0,4,4,15,1,70,sortem,sortem,nál,e,Ez itt egy sortem.,Nincs is jobb egy jó...,sortemnél,sortemnál,dzsungel,NA,NA,PR2031,2002,nő,nem,2022-04-08_22h06.42.058,hesp_baseline,2021.2.3,Win32,59.8372427
,,,,,,,,,,,,,,,,,brágaklok,brágaklom,right,7.3218,0,5,5,71,1,72,brágaklik,brágaklasz,NA,NA,Te bizony sokat brágaklasz.,Én is sokat...,brágaklok,brágaklom,lakik,-lik,2,PR2031,2002,nő,nem,2022-04-08_22h06.42.058,hesp_baseline,2021.2.3,Win32,59.8372427
,,,,,,,,,,,,,,,,,spiharzotok,spiharoztok,right,7.2625,0,6,6,127,1,74,spiharzik / spiharozik,"spiharzik, spiharozni",tek,NA,"János imád spiharozni, ezért sokat spiharzik.",Ti ritkán...,spiharzotok,spiharoztok,cselekszik,-zik,2,PR2031,2002,nő,nem,2022-04-08_22h06.42.058,hesp_baseline,2021.2.3,Win32,59.8372427
,,,,,,,,,,,,,,,,,hubonyoztok,hubonylotok,left,7.1616,0,7,7,157,1,104,hubonylik / hubonyozik,"hubonylik, hubonyozni",tek,NA,"János imád hubonyozni, ezért sokat hubonylik.",Ti ritkán...,hubonylotok,hubonyoztok,cselekszik,-lik,2,PR2031,2002,nő,nem,2022-04-08_22h06.42.058,hesp_baseline,2021.2.3,Win32,59.8372427
,,,,,,,,,,,,,,,,,csintékben,csintékban,left,4.6408,0,8,8,23,1,78,csinték,csinték,ban,é,Ez itt egy csinték.,Ott vagyunk a...,csintékben,csintékban,dzsungel,NA,NA,PR2031,2002,nő,nem,2022-04-08_22h06.42.058,hesp_baseline,2021.2.3,Win32,59.8372427
,,,,,,,,,,,,,,,,,fájézban,fájézben,left,4.2606,0,9,9,7,1,62,fájéz,fájéz,ban,é,Ez itt egy fájéz.,Ott vagyunk a...,fájézben,fájézban,dzsungel,NA,NA,PR2031,2002,nő,nem,2022-04-08_22h06.42.058,hesp_baseline,2021.2.3,Win32,59.8372427
,,,,,,,,,,,,,,,,,rapszeknél,rapszeknál,left,9.3263,0,10,10,35,1,90,rapszek,rapszek,nál,e,Ez itt egy rapszek.,Nincs is jobb egy jó...,rapszeknél,rapszeknál,dzsungel,NA,NA,PR2031,2002,nő,nem,2022-04-08_22h06.42.058,hesp_baseline,2021.2.3,Win32,59.8372427
,,,,,,,,,,,,,,,,,lorjódzok,lorjódzom,right,5.9831,0,11,11,88,1,89,lorjódzik,lorjódzol,NA,NA,Te bizony sokat lorjódzol.,Én is sokat...,lorjódzok,lorjódzom,lakik,-zik,2,PR2031,2002,nő,nem,2022-04-08_22h06.42.058,hesp_baseline,2021.2.3,Win32,59.8372427
,,,,,,,,,,,,,,,,,drojozunk,drojzunk,right,5.5989,0,12,12,140,1,87,drojzik / drojozik,"drojzik, drojozni",ünk,NA,"János imád drojozni, ezért sokat drojzik.",Mi ritkán...,drojzunk,drojozunk,cselekszik,-zik,1,PR2031,2002,nő,nem,2022-04-08_22h06.42.058,hesp_baseline,2021.2.3,Win32,59.8372427
,,,,,,,,,,,,,,,,,praslom,praslok,left,7.4933,0,13,13,80,1,81,praslik,praslasz,NA,NA,Te bizony sokat praslasz.,Én is sokat...,praslok,praslom,lakik,-lik,1,PR2031,2002,nő,nem,2022-04-08_22h06.42.058,hesp_baseline,2021.2.3,Win32,59.8372427
,,,,,,,,,,,,,,,,,szirlok,szirlom,left,15.1462,0,14,14,62,1,63,szirlik,szirlasz,NA,NA,Te bizony sokat szirlasz.,Én is sokat...,szirlok,szirlom,lakik,-lik,1,PR2031,2002,nő,nem,2022-04-08_22h06.42.058,hesp_baseline,2021.2.3,Win32,59.8372427
,,,,,,,,,,,,,,,,,nuroklunk,nurokozunk,left,8.3299,0,15,15,131,1,78,nuroklik / nurokozik,"nuroklik, nurokozni",ünk,NA,"János imád nurokozni, ezért sokat nuroklik.",Mi ritkán...,nuroklunk,nurokozunk,cselekszik,-lik,2,PR2031,2002,nő,nem,2022-04-08_22h06.42.058,hesp_baseline,2021.2.3,Win32,59.8372427
,,,,,,,,,,,,,,,,,livénylünk,livényezünk,left,5.2606,0,16,16,128,1,75,livénylik / livényezik,"livénylik, livényezni",ünk,NA,"János imád livényezni, ezért sokat livénylik.",Mi ritkán...,livénylünk,livényezünk,cselekszik,-lik,2,PR2031,2002,nő,nem,2022-04-08_22h06.42.058,hesp_baseline,2021.2.3,Win32,59.8372427
,,,,,,,,,,,,,,,,,csíszlok,csíszlom,left,3.5219,0,17,17,84,1,85,csíszlik,csíszlasz,NA,NA,Te bizony sokat csíszlasz.,Én is sokat...,csíszlok,csíszlom,lakik,-lik,1,PR2031,2002,nő,nem,2022-04-08_22h06.42.058,hesp_baseline,2021.2.3,Win32,59.8372427
,,,,,,,,,,,,,,,,,csimennál,csimennél,right,3.9342,0,18,18,44,1,99,csimen,csimen,nál,e,Ez itt egy csimen.,Nincs is jobb egy jó...,csimennél,csimennál,dzsungel,NA,NA,PR2031,2002,nő,nem,2022-04-08_22h06.42.058,hesp_baseline,2021.2.3,Win32,59.8372427
,,,,,,,,,,,,,,,,,trigencnek,trigencnak,left,3.4452,0,19,19,31,1,86,trigenc,trigenc,nak,e,Ez itt egy trigenc.,Elneveztem a kutyámat...,trigencnek,trigencnak,dzsungel,NA,NA,PR2031,2002,nő,nem,2022-04-08_22h06.42.058,hesp_baseline,2021.2.3,Win32,59.8372427
,,,,,,,,,,,,,,,,,dabzotok,daboztok,right,7.5493,0,20,20,109,1,56,dabzik / dabozik,"dabzik, dabozni",tek,NA,"János imád dabozni, ezért sokat dabzik.",Ti ritkán...,dabzotok,daboztok,cselekszik,-zik,1,PR2031,2002,nő,nem,2022-04-08_22h06.42.058,hesp_baseline,2021.2.3,Win32,59.8372427
,,,,,,,,,,,,,,,,,spivélnek,spivélnak,left,3.2613,0,21,21,27,1,82,spivél,spivél,nak,é,Ez itt egy spivél.,Elneveztem a kutyámat...,spivélnek,spivélnak,dzsungel,NA,NA,PR2031,2002,nő,nem,2022-04-08_22h06.42.058,hesp_baseline,2021.2.3,Win32,59.8372427
,,,,,,,,,,,,,,,,,posoztok,poslotok,right,4.8795,0,22,22,121,1,68,poslik / posozik,"poslik, posozni",tek,NA,"János imád posozni, ezért sokat poslik.",Ti ritkán...,poslotok,posoztok,cselekszik,-lik,1,PR2031,2002,nő,nem,2022-04-08_22h06.42.058,hesp_baseline,2021.2.3,Win32,59.8372427
,,,,,,,,,,,,,,,,,flibekszem,flibekszek,left,6.6411,0,23,23,93,1,94,flibekszik,flibekszel,NA,NA,Te bizony sokat flibekszel.,Én is sokat...,flibekszek,flibekszem,lakik,-szik,2,PR2031,2002,nő,nem,2022-04-08_22h06.42.058,hesp_baseline,2021.2.3,Win32,59.8372427
,,,,,,,,,,,,,,,,,tosélyben,tosélyban,right,3.7614,0,24,24,25,1,80,tosély,tosély,ban,é,Ez itt egy tosély.,Ott vagyunk a...,tosélyben,tosélyban,dzsungel,NA,NA,PR2031,2002,nő,nem,2022-04-08_22h06.42.058,hesp_baseline,2021.2.3,Win32,59.8372427
,,,,,,,,,,,,,,,,,fligzok,fligzom,right,19.9277,0,25,25,103,1,104,fligzik,fligzol,NA,NA,Te bizony sokat fligzol.,Én is sokat...,fligzok,fligzom,lakik,-zik,1,PR2031,2002,nő,nem,2022-04-08_22h06.42.058,hesp_baseline,2021.2.3,Win32,59.8372427
,,,,,,,,,,,,,,,,,spüjzök,spüjzöm,left,2.382,0,26,26,59,1,60,spüjzik,spüjzöl,NA,NA,Te bizony sokat spüjzöl.,Én is sokat...,spüjzök,spüjzöm,lakik,-zik,1,PR2031,2002,nő,nem,2022-04-08_22h06.42.058,hesp_baseline,2021.2.3,Win32,59.8372427
,,,,,,,,,,,,,,,,,branyoznak,branylanak,right,7.4934,0,27,27,136,1,83,branylik / branyozik,"branylik, branyozni",nek,NA,"János imád branyozni, ezért sokat branylik.",Ők ritkán...,branylanak,branyoznak,cselekszik,-lik,1,PR2031,2002,nő,nem,2022-04-08_22h06.42.058,hesp_baseline,2021.2.3,Win32,59.8372427
,,,,,,,,,,,,,,,,,zarcégnél,zarcégnál,left,3.74,0,28,28,29,1,84,zarcég,zarcég,nál,é,Ez itt egy zarcég.,Nincs is jobb egy jó...,zarcégnél,zarcégnál,dzsungel,NA,NA,PR2031,2002,nő,nem,2022-04-08_22h06.42.058,hesp_baseline,2021.2.3,Win32,59.8372427
,,,,,,,,,,,,,,,,,fivénylek,fivénylem,left,3.4481,0,29,29,78,1,79,fivénylik,fivénylesz,NA,NA,Te bizony sokat fivénylesz.,Én is sokat...,fivénylek,fivénylem,lakik,-lik,2,PR2031,2002,nő,nem,2022-04-08_22h06.42.058,hesp_baseline,2021.2.3,Win32,59.8372427
,,,,,,,,,,,,,,,,,klidlok,klidlom,left,5.421,0,30,30,72,1,73,klidlik,klidlasz,NA,NA,Te bizony sokat klidlasz.,Én is sokat...,klidlok,klidlom,lakik,-lik,1,PR2031,2002,nő,nem,2022-04-08_22h06.42.058,hesp_baseline,2021.2.3,Win32,59.8372427
,,,,,,,,,,,,,,,,,pratelynak,pratelynek,left,7.5998,0,31,31,47,1,102,prately,prately,nak,e,Ez itt egy prately.,Elneveztem a kutyámat...,pratelynek,pratelynak,dzsungel,NA,NA,PR2031,2002,nő,nem,2022-04-08_22h06.42.058,hesp_baseline,2021.2.3,Win32,59.8372427
,,,,,,,,,,,,,,,,,szűslök,szűslöm,left,12.1772,0,32,32,85,1,86,szűslik,szűslesz,NA,NA,Te bizony sokat szűslesz.,Én is sokat...,szűslök,szűslöm,lakik,-lik,1,PR2031,2002,nő,nem,2022-04-08_22h06.42.058,hesp_baseline,2021.2.3,Win32,59.8372427
,,,,,,,,,,,,,,,,,sprízemnál,sprízemnél,right,3.7727,0,33,33,22,1,77,sprízem,sprízem,nál,e,Ez itt egy sprízem.,Nincs is jobb egy jó...,sprízemnél,sprízemnál,dzsungel,NA,NA,PR2031,2002,nő,nem,2022-04-08_22h06.42.058,hesp_baseline,2021.2.3,Win32,59.8372427
,,,,,,,,,,,,,,,,,zutennál,zutennél,right,2.495,0,34,34,43,1,98,zuten,zuten,nál,e,Ez itt egy zuten.,Nincs is jobb egy jó...,zutennél,zutennál,dzsungel,NA,NA,PR2031,2002,nő,nem,2022-04-08_22h06.42.058,hesp_baseline,2021.2.3,Win32,59.8372427
,,,,,,,,,,,,,,,,,garcépnél,garcépnál,left,2.3625,0,35,35,38,1,93,garcép,garcép,nál,é,Ez itt egy garcép.,Nincs is jobb egy jó...,garcépnél,garcépnál,dzsungel,NA,NA,PR2031,2002,nő,nem,2022-04-08_22h06.42.058,hesp_baseline,2021.2.3,Win32,59.8372427
,,,,,,,,,,,,,,,,,floglok,floglom,left,8.6623,0,36,36,92,1,93,floglik,floglasz,NA,NA,Te bizony sokat floglasz.,Én is sokat...,floglok,floglom,lakik,-lik,1,PR2031,2002,nő,nem,2022-04-08_22h06.42.058,hesp_baseline,2021.2.3,Win32,59.8372427
,,,,,,,,,,,,,,,,,metégednek,metégszenek,right,13.1201,0,37,37,112,1,59,metégszik / metégedik,"metégszik, metégedni",nek,NA,"János imád metégedni, ezért sokat metégszik.",Ők ritkán...,metégszenek,metégednek,cselekszik,-szik,2,PR2031,2002,nő,nem,2022-04-08_22h06.42.058,hesp_baseline,2021.2.3,Win32,59.8372427
,,,,,,,,,,,,,,,,,flézeztek,flézletek,left,6.6021,0,38,38,134,1,81,flézlik / flézezik,"flézlik, flézezni",tek,NA,"János imád flézezni, ezért sokat flézlik.",Ti ritkán...,flézletek,flézeztek,cselekszik,-lik,1,PR2031,2002,nő,nem,2022-04-08_22h06.42.058,hesp_baseline,2021.2.3,Win32,59.8372427
,,,,,,,,,,,,,,,,,klazérben,klazérban,left,3.1971,0,39,39,51,1,106,klazér,klazér,ban,é,Ez itt egy klazér.,Ott vagyunk a...,klazérben,klazérban,dzsungel,NA,NA,PR2031,2002,nő,nem,2022-04-08_22h06.42.058,hesp_baseline,2021.2.3,Win32,59.8372427
,,,,,,,,,,,,,,,,,spihegzek,spihegzem,left,2.2982,0,40,40,81,1,82,spihegzik,spihegzel,NA,NA,Te bizony sokat spihegzel.,Én is sokat...,spihegzek,spihegzem,lakik,-zik,2,PR2031,2002,nő,nem,2022-04-08_22h06.42.058,hesp_baseline,2021.2.3,Win32,59.8372427
,,,,,,,,,,,,,,,,,nűröklöm,nűröklök,left,2.4618,0,41,41,106,1,107,nűröklik,nűröklesz,NA,NA,Te bizony sokat nűröklesz.,Én is sokat...,nűröklök,nűröklöm,lakik,-lik,2,PR2031,2002,nő,nem,2022-04-08_22h06.42.058,hesp_baseline,2021.2.3,Win32,59.8372427
,,,,,,,,,,,,,,,,,friszlok,friszlom,right,4.2433,0,42,42,97,1,98,friszlik,friszlasz,NA,NA,Te bizony sokat friszlasz.,Én is sokat...,friszlok,friszlom,lakik,-lik,1,PR2031,2002,nő,nem,2022-04-08_22h06.42.058,hesp_baseline,2021.2.3,Win32,59.8372427
,,,,,,,,,,,,,,,,,jonylok,jonylom,left,5.3492,0,43,43,55,1,56,jonylik,jonylasz,NA,NA,Te bizony sokat jonylasz.,Én is sokat...,jonylok,jonylom,lakik,-lik,1,PR2031,2002,nő,nem,2022-04-08_22h06.42.058,hesp_baseline,2021.2.3,Win32,59.8372427
,,,,,,,,,,,,,,,,,spügzünk,spügözünk,left,3.1999,0,44,44,143,1,90,spügzik / spügözik,"spügzik, spügözni",ünk,NA,"János imád spügözni, ezért sokat spügzik.",Mi ritkán...,spügzünk,spügözünk,cselekszik,-zik,1,PR2031,2002,nő,nem,2022-04-08_22h06.42.058,hesp_baseline,2021.2.3,Win32,59.8372427
,,,,,,,,,,,,,,,,,spubonylok,spubonylom,left,2.9594,0,45,45,104,1,105,spubonylik,spubonylasz,NA,NA,Te bizony sokat spubonylasz.,Én is sokat...,spubonylok,spubonylom,lakik,-lik,2,PR2031,2002,nő,nem,2022-04-08_22h06.42.058,hesp_baseline,2021.2.3,Win32,59.8372427
,,,,,,,,,,,,,,,,,sojzok,sojzom,right,6.1002,0,46,46,74,1,75,sojzik,sojzol,NA,NA,Te bizony sokat sojzol.,Én is sokat...,sojzok,sojzom,lakik,-zik,1,PR2031,2002,nő,nem,2022-04-08_22h06.42.058,hesp_baseline,2021.2.3,Win32,59.8372427
,,,,,,,,,,,,,,,,,fojlegynek,fojlegynak,left,2.3692,0,47,47,3,1,58,fojlegy,fojlegy,nak,e,Ez itt egy fojlegy.,Elneveztem a kutyámat...,fojlegynek,fojlegynak,dzsungel,NA,NA,PR2031,2002,nő,nem,2022-04-08_22h06.42.058,hesp_baseline,2021.2.3,Win32,59.8372427
,,,,,,,,,,,,,,,,,nyádlanak,nyádoznak,left,3.8953,0,48,48,120,1,67,nyádlik / nyádozik,"nyádlik, nyádozni",nek,NA,"János imád nyádozni, ezért sokat nyádlik.",Ők ritkán...,nyádlanak,nyádoznak,cselekszik,-lik,1,PR2031,2002,nő,nem,2022-04-08_22h06.42.058,hesp_baseline,2021.2.3,Win32,59.8372427
,,,,,,,,,,,,,,,,,sprogzom,sprogzok,left,2.4197,0,49,49,89,1,90,sprogzik,sprogzol,NA,NA,Te bizony sokat sprogzol.,Én is sokat...,sprogzok,sprogzom,lakik,-zik,1,PR2031,2002,nő,nem,2022-04-08_22h06.42.058,hesp_baseline,2021.2.3,Win32,59.8372427
,,,,,,,,,,,,,,,,,gihesztnek,gihesztnak,left,2.1847,0,50,50,36,1,91,giheszt,giheszt,nak,e,Ez itt egy giheszt.,Elneveztem a kutyámat...,gihesztnek,gihesztnak,dzsungel,NA,NA,PR2031,2002,nő,nem,2022-04-08_22h06.42.058,hesp_baseline,2021.2.3,Win32,59.8372427
,,,,,,,,,,,,,,,,,gyihegzetek,gyihegeztek,left,5.5787,0,51,51,124,1,71,gyihegzik / gyihegezik,"gyihegzik, gyihegezni",tek,NA,"János imád gyihegezni, ezért sokat gyihegzik.",Ti ritkán...,gyihegzetek,gyihegeztek,cselekszik,-zik,2,PR2031,2002,nő,nem,2022-04-08_22h06.42.058,hesp_baseline,2021.2.3,Win32,59.8372427
,,,,,,,,,,,,,,,,,klehényletek,klehényeztek,right,10.9298,0,52,52,113,1,60,klehénylik / klehényezik,"klehénylik, klehényezni",tek,NA,"János imád klehényezni, ezért sokat klehénylik.",Ti ritkán...,klehényletek,klehényeztek,cselekszik,-lik,2,PR2031,2002,nő,nem,2022-04-08_22h06.42.058,hesp_baseline,2021.2.3,Win32,59.8372427
,,,,,,,,,,,,,,,,,prazlunk,prazozunk,left,6.5188,0,53,53,119,1,66,prazlik / prazozik,"prazlik, prazozni",ünk,NA,"János imád prazozni, ezért sokat prazlik.",Mi ritkán...,prazlunk,prazozunk,cselekszik,-lik,1,PR2031,2002,nő,nem,2022-04-08_22h06.42.058,hesp_baseline,2021.2.3,Win32,59.8372427
,,,,,,,,,,,,,,,,,sporzemnak,sporzemnek,right,3.6614,0,54,54,26,1,81,sporzem,sporzem,nak,e,Ez itt egy sporzem.,Elneveztem a kutyámat...,sporzemnek,sporzemnak,dzsungel,NA,NA,PR2031,2002,nő,nem,2022-04-08_22h06.42.058,hesp_baseline,2021.2.3,Win32,59.8372427
,,,,,,,,,,,,,,,,,nyöbzenek,nyöböznek,left,4.4058,0,55,55,152,1,99,nyöbzik / nyöbözik,"nyöbzik, nyöbözni",nek,NA,"János imád nyöbözni, ezért sokat nyöbzik.",Ők ritkán...,nyöbzenek,nyöböznek,cselekszik,-zik,1,PR2031,2002,nő,nem,2022-04-08_22h06.42.058,hesp_baseline,2021.2.3,Win32,59.8372427
,,,,,,,,,,,,,,,,,tranékben,tranékban,right,3.0558,0,56,56,2,1,57,tranék,tranék,ban,é,Ez itt egy tranék.,Ott vagyunk a...,tranékben,tranékban,dzsungel,NA,NA,PR2031,2002,nő,nem,2022-04-08_22h06.42.058,hesp_baseline,2021.2.3,Win32,59.8372427
,,,,,,,,,,,,,,,,,gúdenben,gúdenban,left,4.2325,0,57,57,4,1,59,gúden,gúden,ban,e,Ez itt egy gúden.,Ott vagyunk a...,gúdenben,gúdenban,dzsungel,NA,NA,PR2031,2002,nő,nem,2022-04-08_22h06.42.058,hesp_baseline,2021.2.3,Win32,59.8372427
,,,,,,,,,,,,,,,,,spizecnek,spizecnak,left,2.9173,0,58,58,6,1,61,spizec,spizec,nak,e,Ez itt egy spizec.,Elneveztem a kutyámat...,spizecnek,spizecnak,dzsungel,NA,NA,PR2031,2002,nő,nem,2022-04-08_22h06.42.058,hesp_baseline,2021.2.3,Win32,59.8372427
,,,,,,,,,,,,,,,,,pribemlek,pribemlem,left,5.2956,0,59,59,107,1,108,pribemlik,pribemlesz,NA,NA,Te bizony sokat pribemlesz.,Én is sokat...,pribemlek,pribemlem,lakik,-lik,2,PR2031,2002,nő,nem,2022-04-08_22h06.42.058,hesp_baseline,2021.2.3,Win32,59.8372427
,,,,,,,,,,,,,,,,,fluboklotok,flubokoztok,right,3.4863,0,60,60,151,1,98,fluboklik / flubokozik,"fluboklik, flubokozni",tek,NA,"János imád flubokozni, ezért sokat fluboklik.",Ti ritkán...,fluboklotok,flubokoztok,cselekszik,-lik,2,PR2031,2002,nő,nem,2022-04-08_22h06.42.058,hesp_baseline,2021.2.3,Win32,59.8372427
,,,,,,,,,,,,,,,,,molszotok,molodtok,left,3.1651,0,61,61,142,1,89,molszik / molodik,"molszik, molodni",tek,NA,"János imád molodni, ezért sokat molszik.",Ti ritkán...,molszotok,molodtok,cselekszik,-szik,1,PR2031,2002,nő,nem,2022-04-08_22h06.42.058,hesp_baseline,2021.2.3,Win32,59.8372427
,,,,,,,,,,,,,,,,,játlunk,játozunk,left,3.9724,0,62,62,145,1,92,játlik / játozik,"játlik, játozni",ünk,NA,"János imád játozni, ezért sokat játlik.",Mi ritkán...,játlunk,játozunk,cselekszik,-lik,1,PR2031,2002,nő,nem,2022-04-08_22h06.42.058,hesp_baseline,2021.2.3,Win32,59.8372427
,,,,,,,,,,,,,,,,,juszlom,juszlok,right,4.5461,0,63,63,79,1,80,juszlik,juszlasz,NA,NA,Te bizony sokat juszlasz.,Én is sokat...,juszlok,juszlom,lakik,-lik,1,PR2031,2002,nő,nem,2022-04-08_22h06.42.058,hesp_baseline,2021.2.3,Win32,59.8372427
,,,,,,,,,,,,,,,,,bivégszem,bivégszek,right,3.1098,0,64,64,68,1,69,bivégszik,bivégszel,NA,NA,Te bizony sokat bivégszel.,Én is sokat...,bivégszek,bivégszem,lakik,-szik,2,PR2031,2002,nő,nem,2022-04-08_22h06.42.058,hesp_baseline,2021.2.3,Win32,59.8372427
,,,,,,,,,,,,,,,,,gihamlanak,gihamoznak,right,3.0108,0,65,65,133,1,80,gihamlik / gihamozik,"gihamlik, gihamozni",nek,NA,"János imád gihamozni, ezért sokat gihamlik.",Ők ritkán...,gihamlanak,gihamoznak,cselekszik,-lik,2,PR2031,2002,nő,nem,2022-04-08_22h06.42.058,hesp_baseline,2021.2.3,Win32,59.8372427
,,,,,,,,,,,,,,,,,mihágzotok,mihágoztok,right,4.6054,0,66,66,118,1,65,mihágzik / mihágozik,"mihágzik, mihágozni",tek,NA,"János imád mihágozni, ezért sokat mihágzik.",Ti ritkán...,mihágzotok,mihágoztok,cselekszik,-zik,2,PR2031,2002,nő,nem,2022-04-08_22h06.42.058,hesp_baseline,2021.2.3,Win32,59.8372427
,,,,,,,,,,,,,,,,,nyametban,nyametben,right,2.6979,0,67,67,17,1,72,nyamet,nyamet,ban,e,Ez itt egy nyamet.,Ott vagyunk a...,nyametben,nyametban,dzsungel,NA,NA,PR2031,2002,nő,nem,2022-04-08_22h06.42.058,hesp_baseline,2021.2.3,Win32,59.8372427
,,,,,,,,,,,,,,,,,flagánylok,flagánylom,right,2.2964,0,68,68,82,1,83,flagánylik,flagánylasz,NA,NA,Te bizony sokat flagánylasz.,Én is sokat...,flagánylok,flagánylom,lakik,-lik,2,PR2031,2002,nő,nem,2022-04-08_22h06.42.058,hesp_baseline,2021.2.3,Win32,59.8372427
,,,,,,,,,,,,,,,,,ítensben,ítensban,left,2.5459,0,69,69,50,1,105,ítens,ítens,ban,e,Ez itt egy ítens.,Ott vagyunk a...,ítensben,ítensban,dzsungel,NA,NA,PR2031,2002,nő,nem,2022-04-08_22h06.42.058,hesp_baseline,2021.2.3,Win32,59.8372427
,,,,,,,,,,,,,,,,,flerékszünk,flerékedünk,left,4.2629,0,70,70,159,1,106,flerékszik / flerékedik,"flerékszik, flerékedni",ünk,NA,"János imád flerékedni, ezért sokat flerékszik.",Mi ritkán...,flerékszünk,flerékedünk,cselekszik,-szik,2,PR2031,2002,nő,nem,2022-04-08_22h06.42.058,hesp_baseline,2021.2.3,Win32,59.8372427
,,,,,,,,,,,,,,,,,lijeznak,lijeznek,right,2.0269,0,71,71,40,1,95,lijez,lijez,nak,e,Ez itt egy lijez.,Elneveztem a kutyámat...,lijeznek,lijeznak,dzsungel,NA,NA,PR2031,2002,nő,nem,2022-04-08_22h06.42.058,hesp_baseline,2021.2.3,Win32,59.8372427
,,,,,,,,,,,,,,,,,fröjzötök,fröjöztök,left,3.5065,0,72,72,153,1,100,fröjzik / fröjözik,"fröjzik, fröjözni",tek,NA,"János imád fröjözni, ezért sokat fröjzik.",Ti ritkán...,fröjzötök,fröjöztök,cselekszik,-zik,1,PR2031,2002,nő,nem,2022-04-08_22h06.42.058,hesp_baseline,2021.2.3,Win32,59.8372427
,,,,,,,,,,,,,,,,,csólorzom,csólorzok,left,8.8986,0,73,73,102,1,103,csólorzik,csólorzol,NA,NA,Te bizony sokat csólorzol.,Én is sokat...,csólorzok,csólorzom,lakik,-zik,2,PR2031,2002,nő,nem,2022-04-08_22h06.42.058,hesp_baseline,2021.2.3,Win32,59.8372427
,,,,,,,,,,,,,,,,,tumélynál,tumélynél,right,2.3589,0,74,74,28,1,83,tumély,tumély,nál,é,Ez itt egy tumély.,Nincs is jobb egy jó...,tumélynél,tumélynál,dzsungel,NA,NA,PR2031,2002,nő,nem,2022-04-08_22h06.42.058,hesp_baseline,2021.2.3,Win32,59.8372427
,,,,,,,,,,,,,,,,,flátszok,flátszom,left,3.4131,0,75,75,98,1,99,flátszik,flátszol,NA,NA,Te bizony sokat flátszol.,Én is sokat...,flátszok,flátszom,lakik,-szik,1,PR2031,2002,nő,nem,2022-04-08_22h06.42.058,hesp_baseline,2021.2.3,Win32,59.8372427
,,,,,,,,,,,,,,,,,dóbemnak,dóbemnek,right,3.2146,0,76,76,48,1,103,dóbem,dóbem,nak,e,Ez itt egy dóbem.,Elneveztem a kutyámat...,dóbemnek,dóbemnak,dzsungel,NA,NA,PR2031,2002,nő,nem,2022-04-08_22h06.42.058,hesp_baseline,2021.2.3,Win32,59.8372427
,,,,,,,,,,,,,,,,,prilepszünk,prilepedünk,left,3.8935,0,77,77,161,1,108,prilepszik / prilepedik,"prilepszik, prilepedni",ünk,NA,"János imád prilepedni, ezért sokat prilepszik.",Mi ritkán...,prilepszünk,prilepedünk,cselekszik,-szik,2,PR2031,2002,nő,nem,2022-04-08_22h06.42.058,hesp_baseline,2021.2.3,Win32,59.8372427
,,,,,,,,,,,,,,,,,tribejeztek,tribejletek,left,5.1524,0,78,78,132,1,79,tribejlik / tribejezik,"tribejlik, tribejezni",tek,NA,"János imád tribejezni, ezért sokat tribejlik.",Ti ritkán...,tribejletek,tribejeztek,cselekszik,-lik,2,PR2031,2002,nő,nem,2022-04-08_22h06.42.058,hesp_baseline,2021.2.3,Win32,59.8372427
,,,,,,,,,,,,,,,,,lírlanak,líroznak,left,4.0977,0,79,79,115,1,62,lírlik / lírozik,"lírlik, lírozni",nek,NA,"János imád lírozni, ezért sokat lírlik.",Ők ritkán...,lírlanak,líroznak,cselekszik,-lik,1,PR2031,2002,nő,nem,2022-04-08_22h06.42.058,hesp_baseline,2021.2.3,Win32,59.8372427
,,,,,,,,,,,,,,,,,fibamlok,fibamlom,left,2.6146,0,80,80,65,1,66,fibamlik,fibamlasz,NA,NA,Te bizony sokat fibamlasz.,Én is sokat...,fibamlok,fibamlom,lakik,-lik,2,PR2031,2002,nő,nem,2022-04-08_22h06.42.058,hesp_baseline,2021.2.3,Win32,59.8372427
,,,,,,,,,,,,,,,,,sprigoztok,sprigzotok,left,4.1212,0,81,81,129,1,76,sprigzik / sprigozik,"sprigzik, sprigozni",tek,NA,"János imád sprigozni, ezért sokat sprigzik.",Ti ritkán...,sprigzotok,sprigoztok,cselekszik,-zik,1,PR2031,2002,nő,nem,2022-04-08_22h06.42.058,hesp_baseline,2021.2.3,Win32,59.8372427
,,,,,,,,,,,,,,,,,flitlom,flitlok,right,3.6007,0,82,82,90,1,91,flitlik,flitlasz,NA,NA,Te bizony sokat flitlasz.,Én is sokat...,flitlok,flitlom,lakik,-lik,1,PR2031,2002,nő,nem,2022-04-08_22h06.42.058,hesp_baseline,2021.2.3,Win32,59.8372427
,,,,,,,,,,,,,,,,,lihadzok,lihadzom,right,3.0974,0,83,83,101,1,102,lihadzik,lihadzol,NA,NA,Te bizony sokat lihadzol.,Én is sokat...,lihadzok,lihadzom,lakik,-zik,2,PR2031,2002,nő,nem,2022-04-08_22h06.42.058,hesp_baseline,2021.2.3,Win32,59.8372427
,,,,,,,,,,,,,,,,,ikszertban,ikszertben,right,2.1256,0,84,84,19,1,74,ikszert,ikszert,ban,e,Ez itt egy ikszert.,Ott vagyunk a...,ikszertben,ikszertban,dzsungel,NA,NA,PR2031,2002,nő,nem,2022-04-08_22h06.42.058,hesp_baseline,2021.2.3,Win32,59.8372427
,,,,,,,,,,,,,,,,,cságyeltben,cságyeltban,left,2.4432,0,85,85,10,1,65,cságyelt,cságyelt,ban,e,Ez itt egy cságyelt.,Ott vagyunk a...,cságyeltben,cságyeltban,dzsungel,NA,NA,PR2031,2002,nő,nem,2022-04-08_22h06.42.058,hesp_baseline,2021.2.3,Win32,59.8372427
,,,,,,,,,,,,,,,,,navecben,navecban,left,2.5352,0,86,86,8,1,63,navec,navec,ban,e,Ez itt egy navec.,Ott vagyunk a...,navecben,navecban,dzsungel,NA,NA,PR2031,2002,nő,nem,2022-04-08_22h06.42.058,hesp_baseline,2021.2.3,Win32,59.8372427
,,,,,,,,,,,,,,,,,bribékszetek,bribékedtek,left,5.9298,0,87,87,141,1,88,bribékszik / bribékedik,"bribékszik, bribékedni",tek,NA,"János imád bribékedni, ezért sokat bribékszik.",Ti ritkán...,bribékszetek,bribékedtek,cselekszik,-szik,2,PR2031,2002,nő,nem,2022-04-08_22h06.42.058,hesp_baseline,2021.2.3,Win32,59.8372427
,,,,,,,,,,,,,,,,,nyábétben,nyábétban,right,2.9017,0,88,88,21,1,76,nyábét,nyábét,ban,é,Ez itt egy nyábét.,Ott vagyunk a...,nyábétben,nyábétban,dzsungel,NA,NA,PR2031,2002,nő,nem,2022-04-08_22h06.42.058,hesp_baseline,2021.2.3,Win32,59.8372427
,,,,,,,,,,,,,,,,,brágédnek,brágédnak,left,7.0852,0,89,89,45,1,100,brágéd,brágéd,nak,é,Ez itt egy brágéd.,Elneveztem a kutyámat...,brágédnek,brágédnak,dzsungel,NA,NA,PR2031,2002,nő,nem,2022-04-08_22h06.42.058,hesp_baseline,2021.2.3,Win32,59.8372427
,,,,,,,,,,,,,,,,,csubzunk,csubozunk,left,3.093,0,90,90,111,1,58,csubzik / csubozik,"csubzik, csubozni",ünk,NA,"János imád csubozni, ezért sokat csubzik.",Mi ritkán...,csubzunk,csubozunk,cselekszik,-zik,1,PR2031,2002,nő,nem,2022-04-08_22h06.42.058,hesp_baseline,2021.2.3,Win32,59.8372427
,,,,,,,,,,,,,,,,,nidétben,nidétban,left,1.8232,0,91,91,39,1,94,nidét,nidét,ban,é,Ez itt egy nidét.,Ott vagyunk a...,nidétben,nidétban,dzsungel,NA,NA,PR2031,2002,nő,nem,2022-04-08_22h06.42.058,hesp_baseline,2021.2.3,Win32,59.8372427
,,,,,,,,,,,,,,,,,kluhéjnál,kluhéjnél,right,3.0853,0,92,92,24,1,79,kluhéj,kluhéj,nál,é,Ez itt egy kluhéj.,Nincs is jobb egy jó...,kluhéjnél,kluhéjnál,dzsungel,NA,NA,PR2031,2002,nő,nem,2022-04-08_22h06.42.058,hesp_baseline,2021.2.3,Win32,59.8372427
,,,,,,,,,,,,,,,,,fupétnál,fupétnél,right,1.9687,0,93,93,14,1,69,fupét,fupét,nál,é,Ez itt egy fupét.,Nincs is jobb egy jó...,fupétnél,fupétnál,dzsungel,NA,NA,PR2031,2002,nő,nem,2022-04-08_22h06.42.058,hesp_baseline,2021.2.3,Win32,59.8372427
,,,,,,,,,,,,,,,,,driládzok,driládzom,right,3.2631,0,94,94,67,1,68,driládzik,driládzol,NA,NA,Te bizony sokat driládzol.,Én is sokat...,driládzok,driládzom,lakik,-zik,2,PR2031,2002,nő,nem,2022-04-08_22h06.42.058,hesp_baseline,2021.2.3,Win32,59.8372427
,,,,,,,,,,,,,,,,,spátennek,spátennak,left,2.5646,0,95,95,33,1,88,spáten,spáten,nak,e,Ez itt egy spáten.,Elneveztem a kutyámat...,spátennek,spátennak,dzsungel,NA,NA,PR2031,2002,nő,nem,2022-04-08_22h06.42.058,hesp_baseline,2021.2.3,Win32,59.8372427
,,,,,,,,,,,,,,,,,kumlok,kumlom,left,1.8613,0,96,96,105,1,106,kumlik,kumlasz,NA,NA,Te bizony sokat kumlasz.,Én is sokat...,kumlok,kumlom,lakik,-lik,1,PR2031,2002,nő,nem,2022-04-08_22h06.42.058,hesp_baseline,2021.2.3,Win32,59.8372427
,,,,,,,,,,,,,,,,,prihegszenek,prihegednek,left,6.4522,0,97,97,155,1,102,prihegszik / prihegedik,"prihegszik, prihegedni",nek,NA,"János imád prihegedni, ezért sokat prihegszik.",Ők ritkán...,prihegszenek,prihegednek,cselekszik,-szik,2,PR2031,2002,nő,nem,2022-04-08_22h06.42.058,hesp_baseline,2021.2.3,Win32,59.8372427
,,,,,,,,,,,,,,,,,dingecnek,dingecnak,left,2.6831,0,98,98,42,1,97,dingec,dingec,nak,e,Ez itt egy dingec.,Elneveztem a kutyámat...,dingecnek,dingecnak,dzsungel,NA,NA,PR2031,2002,nő,nem,2022-04-08_22h06.42.058,hesp_baseline,2021.2.3,Win32,59.8372427
,,,,,,,,,,,,,,,,,pivegszem,pivegszek,left,3.4505,0,99,99,99,1,100,pivegszik,pivegszel,NA,NA,Te bizony sokat pivegszel.,Én is sokat...,pivegszek,pivegszem,lakik,-szik,2,PR2031,2002,nő,nem,2022-04-08_22h06.42.058,hesp_baseline,2021.2.3,Win32,59.8372427
,,,,,,,,,,,,,,,,,flűröklök,flűröklöm,left,5.3905,0,100,100,91,1,92,flűröklik,flűröklesz,NA,NA,Te bizony sokat flűröklesz.,Én is sokat...,flűröklök,flűröklöm,lakik,-lik,2,PR2031,2002,nő,nem,2022-04-08_22h06.42.058,hesp_baseline,2021.2.3,Win32,59.8372427
,,,,,,,,,,,,,,,,,dineltban,dineltben,right,1.8754,0,101,101,0,1,55,dinelt,dinelt,ban,e,Ez itt egy dinelt.,Ott vagyunk a...,dineltben,dineltban,dzsungel,NA,NA,PR2031,2002,nő,nem,2022-04-08_22h06.42.058,hesp_baseline,2021.2.3,Win32,59.8372427
,,,,,,,,,,,,,,,,,pítendban,pítendben,right,2.5988,0,102,102,18,1,73,pítend,pítend,ban,e,Ez itt egy pítend.,Ott vagyunk a...,pítendben,pítendban,dzsungel,NA,NA,PR2031,2002,nő,nem,2022-04-08_22h06.42.058,hesp_baseline,2021.2.3,Win32,59.8372427
,,,,,,,,,,,,,,,,,flemlünk,flemezünk,left,2.622,0,103,103,137,1,84,flemlik / flemezik,"flemlik, flemezni",ünk,NA,"János imád flemezni, ezért sokat flemlik.",Mi ritkán...,flemlünk,flemezünk,cselekszik,-lik,1,PR2031,2002,nő,nem,2022-04-08_22h06.42.058,hesp_baseline,2021.2.3,Win32,59.8372427
,,,,,,,,,,,,,,,,,frálaslanak,frálasoznak,left,4.0221,0,104,104,110,1,57,frálaslik / frálasozik,"frálaslik, frálasozni",nek,NA,"János imád frálasozni, ezért sokat frálaslik.",Ők ritkán...,frálaslanak,frálasoznak,cselekszik,-lik,2,PR2031,2002,nő,nem,2022-04-08_22h06.42.058,hesp_baseline,2021.2.3,Win32,59.8372427
,,,,,,,,,,,,,,,,,tomlok,tomlom,left,4.0238,0,105,105,86,1,87,tomlik,tomlasz,NA,NA,Te bizony sokat tomlasz.,Én is sokat...,tomlok,tomlom,lakik,-lik,1,PR2031,2002,nő,nem,2022-04-08_22h06.42.058,hesp_baseline,2021.2.3,Win32,59.8372427
,,,,,,,,,,,,,,,,,zsigénnél,zsigénnál,left,2.6194,0,106,106,12,1,67,zsigén,zsigén,nál,é,Ez itt egy zsigén.,Nincs is jobb egy jó...,zsigénnél,zsigénnál,dzsungel,NA,NA,PR2031,2002,nő,nem,2022-04-08_22h06.42.058,hesp_baseline,2021.2.3,Win32,59.8372427
,,,,,,,,,,,,,,,,,flűgözünk,flűgzünk,right,4.2096,0,107,107,160,1,107,flűgzik / flűgözik,"flűgzik, flűgözni",ünk,NA,"János imád flűgözni, ezért sokat flűgzik.",Mi ritkán...,flűgzünk,flűgözünk,cselekszik,-zik,1,PR2031,2002,nő,nem,2022-04-08_22h06.42.058,hesp_baseline,2021.2.3,Win32,59.8372427
,,,,,,,,,,,,,,,,,huroslom,huroslok,right,26.2435,0,108,108,76,1,77,huroslik,huroslasz,NA,NA,Te bizony sokat huroslasz.,Én is sokat...,huroslok,huroslom,lakik,-lik,2,PR2031,2002,nő,nem,2022-04-08_22h06.42.058,hesp_baseline,2021.2.3,Win32,59.8372427
,,,,,,,,,,,,,,,,,spáraklok,spáraklom,left,4.2343,0,109,109,96,1,97,spáraklik,spáraklasz,NA,NA,Te bizony sokat spáraklasz.,Én is sokat...,spáraklok,spáraklom,lakik,-lik,2,PR2031,2002,nő,nem,2022-04-08_22h06.42.058,hesp_baseline,2021.2.3,Win32,59.8372427
,,,,,,,,,,,,,,,,,flüröslök,flüröslöm,left,3.4279,0,110,110,87,1,88,flüröslik,flüröslesz,NA,NA,Te bizony sokat flüröslesz.,Én is sokat...,flüröslök,flüröslöm,lakik,-lik,2,PR2031,2002,nő,nem,2022-04-08_22h06.42.058,hesp_baseline,2021.2.3,Win32,59.8372427
,,,,,,,,,,,,,,,,,femlek,femlem,left,2.1064,0,111,111,57,1,58,femlik,femlesz,NA,NA,Te bizony sokat femlesz.,Én is sokat...,femlek,femlem,lakik,-lik,1,PR2031,2002,nő,nem,2022-04-08_22h06.42.058,hesp_baseline,2021.2.3,Win32,59.8372427
,,,,,,,,,,,,,,,,,tögöznek,töglenek,right,8.0519,0,112,112,156,1,103,töglik / tögözik,"töglik, tögözni",nek,NA,"János imád tögözni, ezért sokat töglik.",Ők ritkán...,töglenek,tögöznek,cselekszik,-lik,1,PR2031,2002,nő,nem,2022-04-08_22h06.42.058,hesp_baseline,2021.2.3,Win32,59.8372427
,,,,,,,,,,,,,,,,,spülűdzöm,spülűdzök,left,3.5026,0,113,113,56,1,57,spülűdzik,spülűdzöl,NA,NA,Te bizony sokat spülűdzöl.,Én is sokat...,spülűdzök,spülűdzöm,lakik,-zik,2,PR2031,2002,nő,nem,2022-04-08_22h06.42.058,hesp_baseline,2021.2.3,Win32,59.8372427
,,,,,,,,,,,,,,,,,flűmlöm,flűmlök,right,2.2865,0,114,114,54,1,55,flűmlik,flűmlesz,NA,NA,Te bizony sokat flűmlesz.,Én is sokat...,flűmlök,flűmlöm,lakik,-lik,1,PR2031,2002,nő,nem,2022-04-08_22h06.42.058,hesp_baseline,2021.2.3,Win32,59.8372427
,,,,,,,,,,,,,,,,,jábézban,jábézben,left,4.793,0,115,115,34,1,89,jábéz,jábéz,ban,é,Ez itt egy jábéz.,Ott vagyunk a...,jábézben,jábézban,dzsungel,NA,NA,PR2031,2002,nő,nem,2022-04-08_22h06.42.058,hesp_baseline,2021.2.3,Win32,59.8372427
,,,,,,,,,,,,,,,,,dihelynek,dihelynak,left,2.1295,0,116,116,20,1,75,dihely,dihely,nak,e,Ez itt egy dihely.,Elneveztem a kutyámat...,dihelynek,dihelynak,dzsungel,NA,NA,PR2031,2002,nő,nem,2022-04-08_22h06.42.058,hesp_baseline,2021.2.3,Win32,59.8372427
,,,,,,,,,,,,,,,,,bingéjnek,bingéjnak,left,2.3315,0,117,117,49,1,104,bingéj,bingéj,nak,é,Ez itt egy bingéj.,Elneveztem a kutyámat...,bingéjnek,bingéjnak,dzsungel,NA,NA,PR2031,2002,nő,nem,2022-04-08_22h06.42.058,hesp_baseline,2021.2.3,Win32,59.8372427
,,,,,,,,,,,,,,,,,klingeszben,klingeszban,left,2.4508,0,118,118,1,1,56,klingesz,klingesz,ban,e,Ez itt egy klingesz.,Ott vagyunk a...,klingeszben,klingeszban,dzsungel,NA,NA,PR2031,2002,nő,nem,2022-04-08_22h06.42.058,hesp_baseline,2021.2.3,Win32,59.8372427
,,,,,,,,,,,,,,,,,péleslem,péleslek,left,2.1281,0,119,119,73,1,74,péleslik,péleslesz,NA,NA,Te bizony sokat péleslesz.,Én is sokat...,péleslek,péleslem,lakik,-lik,2,PR2031,2002,nő,nem,2022-04-08_22h06.42.058,hesp_baseline,2021.2.3,Win32,59.8372427
,,,,,,,,,,,,,,,,,figlom,figlok,right,2.4949,0,120,120,75,1,76,figlik,figlasz,NA,NA,Te bizony sokat figlasz.,Én is sokat...,figlok,figlom,lakik,-lik,1,PR2031,2002,nő,nem,2022-04-08_22h06.42.058,hesp_baseline,2021.2.3,Win32,59.8372427
,,,,,,,,,,,,,,,,,brivegzek,brivegzem,right,2.4126,0,121,121,70,1,71,brivegzik,brivegzel,NA,NA,Te bizony sokat brivegzel.,Én is sokat...,brivegzek,brivegzem,lakik,-zik,2,PR2031,2002,nő,nem,2022-04-08_22h06.42.058,hesp_baseline,2021.2.3,Win32,59.8372427
,,,,,,,,,,,,,,,,,gilárzok,gilárzom,right,2.7423,0,122,122,94,1,95,gilárzik,gilárzol,NA,NA,Te bizony sokat gilárzol.,Én is sokat...,gilárzok,gilárzom,lakik,-zik,2,PR2031,2002,nő,nem,2022-04-08_22h06.42.058,hesp_baseline,2021.2.3,Win32,59.8372427
,,,,,,,,,,,,,,,,,sprebeznek,sprebzenek,right,6.2208,0,123,123,139,1,86,sprebzik / sprebezik,"sprebzik, sprebezni",nek,NA,"János imád sprebezni, ezért sokat sprebzik.",Ők ritkán...,sprebzenek,sprebeznek,cselekszik,-zik,1,PR2031,2002,nő,nem,2022-04-08_22h06.42.058,hesp_baseline,2021.2.3,Win32,59.8372427
,,,,,,,,,,,,,,,,,spöklünk,spöközünk,left,3.0231,0,124,124,130,1,77,spöklik / spöközik,"spöklik, spöközni",ünk,NA,"János imád spöközni, ezért sokat spöklik.",Mi ritkán...,spöklünk,spöközünk,cselekszik,-lik,1,PR2031,2002,nő,nem,2022-04-08_22h06.42.058,hesp_baseline,2021.2.3,Win32,59.8372427
,,,,,,,,,,,,,,,,,dibágoztok,dibáglotok,right,7.9374,0,125,125,154,1,101,dibáglik / dibágozik,"dibáglik, dibágozni",tek,NA,"János imád dibágozni, ezért sokat dibáglik.",Ti ritkán...,dibáglotok,dibágoztok,cselekszik,-lik,2,PR2031,2002,nő,nem,2022-04-08_22h06.42.058,hesp_baseline,2021.2.3,Win32,59.8372427
,,,,,,,,,,,,,,,,,klűmlötök,klűmöztök,right,8.757,0,126,126,108,1,55,klűmlik / klűmözik,"klűmlik, klűmözni",tek,NA,"János imád klűmözni, ezért sokat klűmlik.",Ti ritkán...,klűmlötök,klűmöztök,cselekszik,-lik,1,PR2031,2002,nő,nem,2022-04-08_22h06.42.058,hesp_baseline,2021.2.3,Win32,59.8372427
,,,,,,,,,,,,,,,,,fréslünk,frésezünk,left,3.3116,0,127,127,138,1,85,fréslik / frésezik,"fréslik, frésezni",ünk,NA,"János imád frésezni, ezért sokat fréslik.",Mi ritkán...,fréslünk,frésezünk,cselekszik,-lik,1,PR2031,2002,nő,nem,2022-04-08_22h06.42.058,hesp_baseline,2021.2.3,Win32,59.8372427
,,,,,,,,,,,,,,,,,júdernek,júdernak,left,3.137,0,128,128,53,1,108,júder,júder,nak,e,Ez itt egy júder.,Elneveztem a kutyámat...,júdernek,júdernak,dzsungel,NA,NA,PR2031,2002,nő,nem,2022-04-08_22h06.42.058,hesp_baseline,2021.2.3,Win32,59.8372427
,,,,,,,,,,,,,,,,,hákodnak,hákszanak,right,6.4883,0,129,129,150,1,97,hákszik / hákodik,"hákszik, hákodni",nek,NA,"János imád hákodni, ezért sokat hákszik.",Ők ritkán...,hákszanak,hákodnak,cselekszik,-szik,1,PR2031,2002,nő,nem,2022-04-08_22h06.42.058,hesp_baseline,2021.2.3,Win32,59.8372427
,,,,,,,,,,,,,,,,,prohódzok,prohódzom,right,3.0088,0,130,130,66,1,67,prohódzik,prohódzol,NA,NA,Te bizony sokat prohódzol.,Én is sokat...,prohódzok,prohódzom,lakik,-zik,2,PR2031,2002,nő,nem,2022-04-08_22h06.42.058,hesp_baseline,2021.2.3,Win32,59.8372427
,,,,,,,,,,,,,,,,,frivamozunk,frivamlunk,right,4.3251,0,131,131,122,1,69,frivamlik / frivamozik,"frivamlik, frivamozni",ünk,NA,"János imád frivamozni, ezért sokat frivamlik.",Mi ritkán...,frivamlunk,frivamozunk,cselekszik,-lik,2,PR2031,2002,nő,nem,2022-04-08_22h06.42.058,hesp_baseline,2021.2.3,Win32,59.8372427
,,,,,,,,,,,,,,,,,míjozunk,míjzunk,right,5.2958,0,132,132,114,1,61,míjzik / míjozik,"míjzik, míjozni",ünk,NA,"János imád míjozni, ezért sokat míjzik.",Mi ritkán...,míjzunk,míjozunk,cselekszik,-zik,1,PR2031,2002,nő,nem,2022-04-08_22h06.42.058,hesp_baseline,2021.2.3,Win32,59.8372427
,,,,,,,,,,,,,,,,,prihekszem,prihekszek,left,24.6214,0,133,133,100,1,101,prihekszik,prihekszel,NA,NA,Te bizony sokat prihekszel.,Én is sokat...,prihekszek,prihekszem,lakik,-szik,2,PR2031,2002,nő,nem,2022-04-08_22h06.42.058,hesp_baseline,2021.2.3,Win32,59.8372427
,,,,,,,,,,,,,,,,,flodoztok,flodlotok,right,8.5763,0,134,134,144,1,91,flodlik / flodozik,"flodlik, flodozni",tek,NA,"János imád flodozni, ezért sokat flodlik.",Ti ritkán...,flodlotok,flodoztok,cselekszik,-lik,1,PR2031,2002,nő,nem,2022-04-08_22h06.42.058,hesp_baseline,2021.2.3,Win32,59.8372427
,,,,,,,,,,,,,,,,,kátédnál,kátédnél,left,2.9944,0,135,135,37,1,92,kátéd,kátéd,nál,é,Ez itt egy kátéd.,Nincs is jobb egy jó...,kátédnél,kátédnál,dzsungel,NA,NA,PR2031,2002,nő,nem,2022-04-08_22h06.42.058,hesp_baseline,2021.2.3,Win32,59.8372427
,,,,,,,,,,,,,,,,,klítegynál,klítegynél,right,2.9648,0,136,136,5,1,60,klítegy,klítegy,nál,e,Ez itt egy klítegy.,Nincs is jobb egy jó...,klítegynél,klítegynál,dzsungel,NA,NA,PR2031,2002,nő,nem,2022-04-08_22h06.42.058,hesp_baseline,2021.2.3,Win32,59.8372427
,,,,,,,,,,,,,,,,,tiregzem,tiregzek,left,9.3223,0,137,137,64,1,65,tiregzik,tiregzel,NA,NA,Te bizony sokat tiregzel.,Én is sokat...,tiregzek,tiregzem,lakik,-zik,2,PR2031,2002,nő,nem,2022-04-08_22h06.42.058,hesp_baseline,2021.2.3,Win32,59.8372427
,,,,,,,,,,,,,,,,,zihencnak,zihencnek,right,2.8232,0,138,138,52,1,107,zihenc,zihenc,nak,e,Ez itt egy zihenc.,Elneveztem a kutyámat...,zihencnek,zihencnak,dzsungel,NA,NA,PR2031,2002,nő,nem,2022-04-08_22h06.42.058,hesp_baseline,2021.2.3,Win32,59.8372427
,,,,,,,,,,,,,,,,,klajrénnak,klajrénnek,right,4.2736,0,139,139,41,1,96,klajrén,klajrén,nak,é,Ez itt egy klajrén.,Elneveztem a kutyámat...,klajrénnek,klajrénnak,dzsungel,NA,NA,PR2031,2002,nő,nem,2022-04-08_22h06.42.058,hesp_baseline,2021.2.3,Win32,59.8372427
,,,,,,,,,,,,,,,,,ribzom,ribzok,left,2.0723,0,140,140,58,1,59,ribzik,ribzol,NA,NA,Te bizony sokat ribzol.,Én is sokat...,ribzok,ribzom,lakik,-zik,1,PR2031,2002,nő,nem,2022-04-08_22h06.42.058,hesp_baseline,2021.2.3,Win32,59.8372427
,,,,,,,,,,,,,,,,,fröjözünk,fröjlünk,left,11.8242,0,141,141,117,1,64,fröjlik / fröjözik,"fröjlik, fröjözni",ünk,NA,"János imád fröjözni, ezért sokat fröjlik.",Mi ritkán...,fröjlünk,fröjözünk,cselekszik,-lik,1,PR2031,2002,nő,nem,2022-04-08_22h06.42.058,hesp_baseline,2021.2.3,Win32,59.8372427
,,,,,,,,,,,,,,,,,dárakodunk,dárakszunk,right,4.0565,0,142,142,126,1,73,dárakszik / dárakodik,"dárakszik, dárakodni",ünk,NA,"János imád dárakodni, ezért sokat dárakszik.",Mi ritkán...,dárakszunk,dárakodunk,cselekszik,-szik,2,PR2031,2002,nő,nem,2022-04-08_22h06.42.058,hesp_baseline,2021.2.3,Win32,59.8372427
,,,,,,,,,,,,,,,,,vorszennél,vorszennál,left,2.7236,0,143,143,30,1,85,vorszen,vorszen,nál,e,Ez itt egy vorszen.,Nincs is jobb egy jó...,vorszennél,vorszennál,dzsungel,NA,NA,PR2031,2002,nő,nem,2022-04-08_22h06.42.058,hesp_baseline,2021.2.3,Win32,59.8372427
,,,,,,,,,,,,,,,,,ruslok,ruslom,left,3.2876,0,144,144,83,1,84,ruslik,ruslasz,NA,NA,Te bizony sokat ruslasz.,Én is sokat...,ruslok,ruslom,lakik,-lik,1,PR2031,2002,nő,nem,2022-04-08_22h06.42.058,hesp_baseline,2021.2.3,Win32,59.8372427
,,,,,,,,,,,,,,,,,dilakoztok,dilaklotok,left,6.3389,0,145,145,158,1,105,dilaklik / dilakozik,"dilaklik, dilakozni",tek,NA,"János imád dilakozni, ezért sokat dilaklik.",Ti ritkán...,dilaklotok,dilakoztok,cselekszik,-lik,2,PR2031,2002,nő,nem,2022-04-08_22h06.42.058,hesp_baseline,2021.2.3,Win32,59.8372427
,,,,,,,,,,,,,,,,,sponylanak,sponyoznak,left,3.605,0,146,146,125,1,72,sponylik / sponyozik,"sponylik, sponyozni",nek,NA,"János imád sponyozni, ezért sokat sponylik.",Ők ritkán...,sponylanak,sponyoznak,cselekszik,-lik,1,PR2031,2002,nő,nem,2022-04-08_22h06.42.058,hesp_baseline,2021.2.3,Win32,59.8372427
,,,,,,,,,,,,,,,,,szanéjnek,szanéjnak,left,3.5875,0,147,147,13,1,68,szanéj,szanéj,nak,é,Ez itt egy szanéj.,Elneveztem a kutyámat...,szanéjnek,szanéjnak,dzsungel,NA,NA,PR2031,2002,nő,nem,2022-04-08_22h06.42.058,hesp_baseline,2021.2.3,Win32,59.8372427
,,,,,,,,,,,,,,,,,frodlok,frodlom,right,2.6872,0,148,148,61,1,62,frodlik,frodlasz,NA,NA,Te bizony sokat frodlasz.,Én is sokat...,frodlok,frodlom,lakik,-lik,1,PR2031,2002,nő,nem,2022-04-08_22h06.42.058,hesp_baseline,2021.2.3,Win32,59.8372427
,,,,,,,,,,,,,,,,,ribegzek,ribegzem,right,2.1385,0,149,149,63,1,64,ribegzik,ribegzel,NA,NA,Te bizony sokat ribegzel.,Én is sokat...,ribegzek,ribegzem,lakik,-zik,2,PR2031,2002,nő,nem,2022-04-08_22h06.42.058,hesp_baseline,2021.2.3,Win32,59.8372427
,,,,,,,,,,,,,,,,,nyürzenek,nyüröznek,left,13.2988,0,150,150,123,1,70,nyürzik / nyürözik,"nyürzik, nyürözni",nek,NA,"János imád nyürözni, ezért sokat nyürzik.",Ők ritkán...,nyürzenek,nyüröznek,cselekszik,-zik,1,PR2031,2002,nő,nem,2022-04-08_22h06.42.058,hesp_baseline,2021.2.3,Win32,59.8372427
,,,,,,,,,,,,,,,,,forzédnak,forzédnek,right,3.4542,0,151,151,46,1,101,forzéd,forzéd,nak,é,Ez itt egy forzéd.,Elneveztem a kutyámat...,forzédnek,forzédnak,dzsungel,NA,NA,PR2031,2002,nő,nem,2022-04-08_22h06.42.058,hesp_baseline,2021.2.3,Win32,59.8372427
,,,,,,,,,,,,,,,,,pratánylok,pratánylom,left,5.0243,0,152,152,95,1,96,pratánylik,pratánylasz,NA,NA,Te bizony sokat pratánylasz.,Én is sokat...,pratánylok,pratánylom,lakik,-lik,2,PR2031,2002,nő,nem,2022-04-08_22h06.42.058,hesp_baseline,2021.2.3,Win32,59.8372427
,,,,,,,,,,,,,,,,,kluzlotok,kluzoztok,right,5.2924,0,153,153,148,1,95,kluzlik / kluzozik,"kluzlik, kluzozni",tek,NA,"János imád kluzozni, ezért sokat kluzlik.",Ti ritkán...,kluzlotok,kluzoztok,cselekszik,-lik,1,PR2031,2002,nő,nem,2022-04-08_22h06.42.058,hesp_baseline,2021.2.3,Win32,59.8372427
,,,,,,,,,,,,,,,,,jóbecnak,jóbecnek,right,5.1088,0,154,154,11,1,66,jóbec,jóbec,nak,e,Ez itt egy jóbec.,Elneveztem a kutyámat...,jóbecnek,jóbecnak,dzsungel,NA,NA,PR2031,2002,nő,nem,2022-04-08_22h06.42.058,hesp_baseline,2021.2.3,Win32,59.8372427
,,,,,,,,,,,,,,,,,spatárzok,spatárzom,right,5.4292,0,155,155,69,1,70,spatárzik,spatárzol,NA,NA,Te bizony sokat spatárzol.,Én is sokat...,spatárzok,spatárzom,lakik,-zik,2,PR2031,2002,nő,nem,2022-04-08_22h06.42.058,hesp_baseline,2021.2.3,Win32,59.8372427
,,,,,,,,,,,,,,,,,flüröklötök,flürököztök,left,4.0651,0,156,156,149,1,96,flüröklik / flüröközik,"flüröklik, flüröközni",tek,NA,"János imád flüröközni, ezért sokat flüröklik.",Ti ritkán...,flüröklötök,flürököztök,cselekszik,-lik,2,PR2031,2002,nő,nem,2022-04-08_22h06.42.058,hesp_baseline,2021.2.3,Win32,59.8372427
,,,,,,,,,,,,,,,,,trugzanak,trugoznak,left,3.3541,0,157,157,146,1,93,trugzik / trugozik,"trugzik, trugozni",nek,NA,"János imád trugozni, ezért sokat trugzik.",Ők ritkán...,trugzanak,trugoznak,cselekszik,-zik,1,PR2031,2002,nő,nem,2022-04-08_22h06.42.058,hesp_baseline,2021.2.3,Win32,59.8372427
,,,,,,,,,,,,,,,,,sprűröznek,sprűrlenek,right,6.8257,0,158,158,135,1,82,sprűrlik / sprűrözik,"sprűrlik, sprűrözni",nek,NA,"János imád sprűrözni, ezért sokat sprűrlik.",Ők ritkán...,sprűrlenek,sprűröznek,cselekszik,-lik,1,PR2031,2002,nő,nem,2022-04-08_22h06.42.058,hesp_baseline,2021.2.3,Win32,59.8372427
,,,,,,,,,,,,,,,,,ronvetnak,ronvetnek,right,2.6088,0,159,159,9,1,64,ronvet,ronvet,nak,e,Ez itt egy ronvet.,Elneveztem a kutyámat...,ronvetnek,ronvetnak,dzsungel,NA,NA,PR2031,2002,nő,nem,2022-04-08_22h06.42.058,hesp_baseline,2021.2.3,Win32,59.8372427
,,,,,,,,,,,,,,,,,flehékszem,flehékszek,left,4.0429,0,160,160,77,1,78,flehékszik,flehékszel,NA,NA,Te bizony sokat flehékszel.,Én is sokat...,flehékszek,flehékszem,lakik,-szik,2,PR2031,2002,nő,nem,2022-04-08_22h06.42.058,hesp_baseline,2021.2.3,Win32,59.8372427
,,,,,,,,,,,,,,,,,lingéknál,lingéknél,right,2.6371,0,161,161,32,1,87,lingék,lingék,nál,é,Ez itt egy lingék.,Nincs is jobb egy jó...,lingéknél,lingéknál,dzsungel,NA,NA,PR2031,2002,nő,nem,2022-04-08_22h06.42.058,hesp_baseline,2021.2.3,Win32,59.8372427
