my_list,key.keys,key.rt,key_2.keys,key_2.rt,keyboard_input_2.keys,keyboard_input_2.rt,key_3.keys,key_3.rt,keyboard_input_3.keys,keyboard_input_3.rt,key_4.keys,key_4.rt,keyboard_input_4.keys,keyboard_input_4.rt,key_5.keys,key_5.rt,my_button1,my_button2,keyboard_input.keys,keyboard_input.rt,withinBlock.thisRepN,withinBlock.thisTrialN,withinBlock.thisN,withinBlock.thisIndex,withinBlock.ran,rowname,word,prompt,suffix,vowel,carrier_sentence,target_sentence,target1,target2,category,derivational,nsyl,Azonosító,Melyik évben születtél?,Mi a nemed?,Tanultál nyelvészetet?,date,expName,psychopyVersion,OS,frameRate
list3.csv,space,32.0216,space,11.8298,right,7.2244,space,13.8119,left,5.0831,space,12.1542,left,9.1434,space,15.4747,kláragszotok,kláragodtok,left,13.5863,0,0,0,123,1,124,kláragszik / kláragodik,"kláragszik, kláragodni",tek,NA,"János imád kláragodni, ezért sokat kláragszik.",Ti ritkán...,kláragszotok,kláragodtok,cselekszik,-szik,2,PR2058,2000,nő,nem,2022-04-14_18h12.19.048,hesp_baseline,2021.2.3,Win32,59.89458553
,,,,,,,,,,,,,,,,,narjárzom,narjárzok,left,11.5024,0,1,1,61,1,116,narjárzik,narjárzol,NA,NA,Te bizony sokat narjárzol.,Én is sokat...,narjárzok,narjárzom,lakik,-zik,2,PR2058,2000,nő,nem,2022-04-14_18h12.19.048,hesp_baseline,2021.2.3,Win32,59.89458553
,,,,,,,,,,,,,,,,,dorzéjnek,dorzéjnak,right,9.0382,0,2,2,29,1,138,dorzéj,dorzéj,nak,é,Ez itt egy dorzéj.,Elneveztem a kutyámat...,dorzéjnek,dorzéjnak,dzsungel,NA,NA,PR2058,2000,nő,nem,2022-04-14_18h12.19.048,hesp_baseline,2021.2.3,Win32,59.89458553
,,,,,,,,,,,,,,,,,trilekedtek,trilekszetek,right,16.9072,0,3,3,157,1,158,trilekszik / trilekedik,"trilekszik, trilekedni",tek,NA,"János imád trilekedni, ezért sokat trilekszik.",Ti ritkán...,trilekszetek,trilekedtek,cselekszik,-szik,2,PR2058,2000,nő,nem,2022-04-14_18h12.19.048,hesp_baseline,2021.2.3,Win32,59.89458553
,,,,,,,,,,,,,,,,,klosétnek,klosétnak,right,8.8413,0,4,4,45,1,154,klosét,klosét,nak,é,Ez itt egy klosét.,Elneveztem a kutyámat...,klosétnek,klosétnak,dzsungel,NA,NA,PR2058,2000,nő,nem,2022-04-14_18h12.19.048,hesp_baseline,2021.2.3,Win32,59.89458553
,,,,,,,,,,,,,,,,,diroztok,dirlotok,right,6.8063,0,5,5,148,1,149,dirlik / dirozik,"dirlik, dirozni",tek,NA,"János imád dirozni, ezért sokat dirlik.",Ti ritkán...,dirlotok,diroztok,cselekszik,-lik,1,PR2058,2000,nő,nem,2022-04-14_18h12.19.048,hesp_baseline,2021.2.3,Win32,59.89458553
,,,,,,,,,,,,,,,,,hágyétnak,hágyétnek,right,7.3493,0,6,6,42,1,151,hágyét,hágyét,nak,é,Ez itt egy hágyét.,Elneveztem a kutyámat...,hágyétnek,hágyétnak,dzsungel,NA,NA,PR2058,2000,nő,nem,2022-04-14_18h12.19.048,hesp_baseline,2021.2.3,Win32,59.89458553
,,,,,,,,,,,,,,,,,piragszok,piragszom,right,4.1779,0,7,7,83,1,138,piragszik,piragszol,NA,NA,Te bizony sokat piragszol.,Én is sokat...,piragszok,piragszom,lakik,-szik,2,PR2058,2000,nő,nem,2022-04-14_18h12.19.048,hesp_baseline,2021.2.3,Win32,59.89458553
,,,,,,,,,,,,,,,,,brűklötök,brűköztök,left,7.551,0,8,8,153,1,154,brűklik / brűközik,"brűklik, brűközni",tek,NA,"János imád brűközni, ezért sokat brűklik.",Ti ritkán...,brűklötök,brűköztök,cselekszik,-lik,1,PR2058,2000,nő,nem,2022-04-14_18h12.19.048,hesp_baseline,2021.2.3,Win32,59.89458553
,,,,,,,,,,,,,,,,,trálodunk,trálszunk,right,5.3625,0,9,9,130,1,131,trálszik / trálodik,"trálszik, trálodni",ünk,NA,"János imád trálodni, ezért sokat trálszik.",Mi ritkán...,trálszunk,trálodunk,cselekszik,-szik,1,PR2058,2000,nő,nem,2022-04-14_18h12.19.048,hesp_baseline,2021.2.3,Win32,59.89458553
,,,,,,,,,,,,,,,,,kléglünk,klégezünk,right,8.8296,0,10,10,122,1,123,kléglik / klégezik,"kléglik, klégezni",ünk,NA,"János imád klégezni, ezért sokat kléglik.",Mi ritkán...,kléglünk,klégezünk,cselekszik,-lik,1,PR2058,2000,nő,nem,2022-04-14_18h12.19.048,hesp_baseline,2021.2.3,Win32,59.89458553
,,,,,,,,,,,,,,,,,gicéjnél,gicéjnál,left,5.3745,0,11,11,17,1,126,gicéj,gicéj,nál,é,Ez itt egy gicéj.,Nincs is jobb egy jó...,gicéjnél,gicéjnál,dzsungel,NA,NA,PR2058,2000,nő,nem,2022-04-14_18h12.19.048,hesp_baseline,2021.2.3,Win32,59.89458553
,,,,,,,,,,,,,,,,,fliraklom,fliraklok,right,11.9635,0,12,12,98,1,153,fliraklik,fliraklasz,NA,NA,Te bizony sokat fliraklasz.,Én is sokat...,fliraklok,fliraklom,lakik,-lik,2,PR2058,2000,nő,nem,2022-04-14_18h12.19.048,hesp_baseline,2021.2.3,Win32,59.89458553
,,,,,,,,,,,,,,,,,vehékedünk,vehékszünk,right,6.5404,0,13,13,117,1,118,vehékszik / vehékedik,"vehékszik, vehékedni",ünk,NA,"János imád vehékedni, ezért sokat vehékszik.",Mi ritkán...,vehékszünk,vehékedünk,cselekszik,-szik,2,PR2058,2000,nő,nem,2022-04-14_18h12.19.048,hesp_baseline,2021.2.3,Win32,59.89458553
,,,,,,,,,,,,,,,,,mülőrözünk,mülőrzünk,right,8.6564,0,14,14,120,1,121,mülőrzik / mülőrözik,"mülőrzik, mülőrözni",ünk,NA,"János imád mülőrözni, ezért sokat mülőrzik.",Mi ritkán...,mülőrzünk,mülőrözünk,cselekszik,-zik,2,PR2058,2000,nő,nem,2022-04-14_18h12.19.048,hesp_baseline,2021.2.3,Win32,59.89458553
,,,,,,,,,,,,,,,,,pragányoztok,pragánylotok,right,6.675,0,15,15,133,1,134,pragánylik / pragányozik,"pragánylik, pragányozni",tek,NA,"János imád pragányozni, ezért sokat pragánylik.",Ti ritkán...,pragánylotok,pragányoztok,cselekszik,-lik,2,PR2058,2000,nő,nem,2022-04-14_18h12.19.048,hesp_baseline,2021.2.3,Win32,59.89458553
,,,,,,,,,,,,,,,,,mágamozunk,mágamlunk,right,7.321,0,16,16,140,1,141,mágamlik / mágamozik,"mágamlik, mágamozni",ünk,NA,"János imád mágamozni, ezért sokat mágamlik.",Mi ritkán...,mágamlunk,mágamozunk,cselekszik,-lik,2,PR2058,2000,nő,nem,2022-04-14_18h12.19.048,hesp_baseline,2021.2.3,Win32,59.89458553
,,,,,,,,,,,,,,,,,gerénylem,gerénylek,right,7.8806,0,17,17,99,1,154,gerénylik,gerénylesz,NA,NA,Te bizony sokat gerénylesz.,Én is sokat...,gerénylek,gerénylem,lakik,-lik,2,PR2058,2000,nő,nem,2022-04-14_18h12.19.048,hesp_baseline,2021.2.3,Win32,59.89458553
,,,,,,,,,,,,,,,,,klarágzotok,klarágoztok,right,9.5373,0,18,18,114,1,115,klarágzik / klarágozik,"klarágzik, klarágozni",tek,NA,"János imád klarágozni, ezért sokat klarágzik.",Ti ritkán...,klarágzotok,klarágoztok,cselekszik,-zik,2,PR2058,2000,nő,nem,2022-04-14_18h12.19.048,hesp_baseline,2021.2.3,Win32,59.89458553
,,,,,,,,,,,,,,,,,drubódzok,drubódzom,left,5.3205,0,19,19,63,1,118,drubódzik,drubódzol,NA,NA,Te bizony sokat drubódzol.,Én is sokat...,drubódzok,drubódzom,lakik,-zik,2,PR2058,2000,nő,nem,2022-04-14_18h12.19.048,hesp_baseline,2021.2.3,Win32,59.89458553
,,,,,,,,,,,,,,,,,triképben,triképban,left,5.6573,0,20,20,33,1,142,trikép,trikép,ban,é,Ez itt egy trikép.,Ott vagyunk a...,triképben,triképban,dzsungel,NA,NA,PR2058,2000,nő,nem,2022-04-14_18h12.19.048,hesp_baseline,2021.2.3,Win32,59.89458553
,,,,,,,,,,,,,,,,,trűnylenek,trűnyöznek,left,7.0856,0,21,21,119,1,120,trűnylik / trűnyözik,"trűnylik, trűnyözni",nek,NA,"János imád trűnyözni, ezért sokat trűnylik.",Ők ritkán...,trűnylenek,trűnyöznek,cselekszik,-lik,1,PR2058,2000,nő,nem,2022-04-14_18h12.19.048,hesp_baseline,2021.2.3,Win32,59.89458553
,,,,,,,,,,,,,,,,,nivároztok,nivárzotok,right,8.2743,0,22,22,146,1,147,nivárzik / nivározik,"nivárzik, nivározni",tek,NA,"János imád nivározni, ezért sokat nivárzik.",Ti ritkán...,nivárzotok,nivároztok,cselekszik,-zik,2,PR2058,2000,nő,nem,2022-04-14_18h12.19.048,hesp_baseline,2021.2.3,Win32,59.89458553
,,,,,,,,,,,,,,,,,vodecnál,vodecnél,right,4.1386,0,23,23,30,1,139,vodec,vodec,nál,e,Ez itt egy vodec.,Nincs is jobb egy jó...,vodecnél,vodecnál,dzsungel,NA,NA,PR2058,2000,nő,nem,2022-04-14_18h12.19.048,hesp_baseline,2021.2.3,Win32,59.89458553
,,,,,,,,,,,,,,,,,brüröznek,brürzenek,right,6.5384,0,24,24,110,1,111,brürzik / brürözik,"brürzik, brürözni",nek,NA,"János imád brürözni, ezért sokat brürzik.",Ők ritkán...,brürzenek,brüröznek,cselekszik,-zik,1,PR2058,2000,nő,nem,2022-04-14_18h12.19.048,hesp_baseline,2021.2.3,Win32,59.89458553
,,,,,,,,,,,,,,,,,ribegszetek,ribegedtek,left,6.4571,0,25,25,141,1,142,ribegszik / ribegedik,"ribegszik, ribegedni",tek,NA,"János imád ribegedni, ezért sokat ribegszik.",Ti ritkán...,ribegszetek,ribegedtek,cselekszik,-szik,2,PR2058,2000,nő,nem,2022-04-14_18h12.19.048,hesp_baseline,2021.2.3,Win32,59.89458553
,,,,,,,,,,,,,,,,,dralágozunk,dralágzunk,left,5.0889,0,26,26,156,1,157,dralágzik / dralágozik,"dralágzik, dralágozni",ünk,NA,"János imád dralágozni, ezért sokat dralágzik.",Mi ritkán...,dralágzunk,dralágozunk,cselekszik,-zik,2,PR2058,2000,nő,nem,2022-04-14_18h12.19.048,hesp_baseline,2021.2.3,Win32,59.89458553
,,,,,,,,,,,,,,,,,trádlok,trádlom,left,4.0515,0,27,27,105,1,160,trádlik,trádlasz,NA,NA,Te bizony sokat trádlasz.,Én is sokat...,trádlok,trádlom,lakik,-lik,1,PR2058,2000,nő,nem,2022-04-14_18h12.19.048,hesp_baseline,2021.2.3,Win32,59.89458553
,,,,,,,,,,,,,,,,,nyítemban,nyítemben,right,4.365,0,28,28,41,1,150,nyítem,nyítem,ban,e,Ez itt egy nyítem.,Ott vagyunk a...,nyítemben,nyítemban,dzsungel,NA,NA,PR2058,2000,nő,nem,2022-04-14_18h12.19.048,hesp_baseline,2021.2.3,Win32,59.89458553
,,,,,,,,,,,,,,,,,sztruglom,sztruglok,left,5.7902,0,29,29,67,1,122,sztruglik,sztruglasz,NA,NA,Te bizony sokat sztruglasz.,Én is sokat...,sztruglok,sztruglom,lakik,-lik,1,PR2058,2000,nő,nem,2022-04-14_18h12.19.048,hesp_baseline,2021.2.3,Win32,59.89458553
,,,,,,,,,,,,,,,,,vubletnál,vubletnél,right,3.6662,0,30,30,26,1,135,vublet,vublet,nál,e,Ez itt egy vublet.,Nincs is jobb egy jó...,vubletnél,vubletnál,dzsungel,NA,NA,PR2058,2000,nő,nem,2022-04-14_18h12.19.048,hesp_baseline,2021.2.3,Win32,59.89458553
,,,,,,,,,,,,,,,,,sprálszom,sprálszok,left,4.2422,0,31,31,65,1,120,sprálszik,sprálszol,NA,NA,Te bizony sokat sprálszol.,Én is sokat...,sprálszok,sprálszom,lakik,-szik,1,PR2058,2000,nő,nem,2022-04-14_18h12.19.048,hesp_baseline,2021.2.3,Win32,59.89458553
,,,,,,,,,,,,,,,,,spalároznak,spalárzanak,left,7.1481,0,32,32,137,1,138,spalárzik / spalározik,"spalárzik, spalározni",nek,NA,"János imád spalározni, ezért sokat spalárzik.",Ők ritkán...,spalárzanak,spalároznak,cselekszik,-zik,2,PR2058,2000,nő,nem,2022-04-14_18h12.19.048,hesp_baseline,2021.2.3,Win32,59.89458553
,,,,,,,,,,,,,,,,,spülöklök,spülöklöm,left,4.9044,0,33,33,56,1,111,spülöklik,spülöklesz,NA,NA,Te bizony sokat spülöklesz.,Én is sokat...,spülöklök,spülöklöm,lakik,-lik,2,PR2058,2000,nő,nem,2022-04-14_18h12.19.048,hesp_baseline,2021.2.3,Win32,59.89458553
,,,,,,,,,,,,,,,,,spibamlanak,spibamoznak,right,5.775,0,34,34,142,1,143,spibamlik / spibamozik,"spibamlik, spibamozni",nek,NA,"János imád spibamozni, ezért sokat spibamlik.",Ők ritkán...,spibamlanak,spibamoznak,cselekszik,-lik,2,PR2058,2000,nő,nem,2022-04-14_18h12.19.048,hesp_baseline,2021.2.3,Win32,59.89458553
,,,,,,,,,,,,,,,,,nágapszanak,nágapodnak,left,7.1829,0,35,35,152,1,153,nágapszik / nágapodik,"nágapszik, nágapodni",nek,NA,"János imád nágapodni, ezért sokat nágapszik.",Ők ritkán...,nágapszanak,nágapodnak,cselekszik,-szik,2,PR2058,2000,nő,nem,2022-04-14_18h12.19.048,hesp_baseline,2021.2.3,Win32,59.89458553
,,,,,,,,,,,,,,,,,pristélban,pristélben,right,4.1746,0,36,36,1,1,110,pristél,pristél,ban,é,Ez itt egy pristél.,Ott vagyunk a...,pristélben,pristélban,dzsungel,NA,NA,PR2058,2000,nő,nem,2022-04-14_18h12.19.048,hesp_baseline,2021.2.3,Win32,59.89458553
,,,,,,,,,,,,,,,,,spuménynek,spuménynak,left,5.1598,0,37,37,19,1,128,spumény,spumény,nak,é,Ez itt egy spumény.,Elneveztem a kutyámat...,spuménynek,spuménynak,dzsungel,NA,NA,PR2058,2000,nő,nem,2022-04-14_18h12.19.048,hesp_baseline,2021.2.3,Win32,59.89458553
,,,,,,,,,,,,,,,,,flugonylanak,flugonyoznak,right,6.8241,0,38,38,111,1,112,flugonylik / flugonyozik,"flugonylik, flugonyozni",nek,NA,"János imád flugonyozni, ezért sokat flugonylik.",Ők ritkán...,flugonylanak,flugonyoznak,cselekszik,-lik,2,PR2058,2000,nő,nem,2022-04-14_18h12.19.048,hesp_baseline,2021.2.3,Win32,59.89458553
,,,,,,,,,,,,,,,,,bivejlem,bivejlek,right,5.3734,0,39,39,73,1,128,bivejlik,bivejlesz,NA,NA,Te bizony sokat bivejlesz.,Én is sokat...,bivejlek,bivejlem,lakik,-lik,2,PR2058,2000,nő,nem,2022-04-14_18h12.19.048,hesp_baseline,2021.2.3,Win32,59.89458553
,,,,,,,,,,,,,,,,,szutendben,szutendban,left,5.2075,0,40,40,11,1,120,szutend,szutend,ban,e,Ez itt egy szutend.,Ott vagyunk a...,szutendben,szutendban,dzsungel,NA,NA,PR2058,2000,nő,nem,2022-04-14_18h12.19.048,hesp_baseline,2021.2.3,Win32,59.89458553
,,,,,,,,,,,,,,,,,gibemlünk,gibemezünk,left,5.6892,0,41,41,115,1,116,gibemlik / gibemezik,"gibemlik, gibemezni",ünk,NA,"János imád gibemezni, ezért sokat gibemlik.",Mi ritkán...,gibemlünk,gibemezünk,cselekszik,-lik,2,PR2058,2000,nő,nem,2022-04-14_18h12.19.048,hesp_baseline,2021.2.3,Win32,59.89458553
,,,,,,,,,,,,,,,,,trivakodunk,trivakszunk,right,4.7934,0,42,42,118,1,119,trivakszik / trivakodik,"trivakszik, trivakodni",ünk,NA,"János imád trivakodni, ezért sokat trivakszik.",Mi ritkán...,trivakszunk,trivakodunk,cselekszik,-szik,2,PR2058,2000,nő,nem,2022-04-14_18h12.19.048,hesp_baseline,2021.2.3,Win32,59.89458553
,,,,,,,,,,,,,,,,,licegyban,licegyben,right,5.0558,0,43,43,15,1,124,licegy,licegy,ban,e,Ez itt egy licegy.,Ott vagyunk a...,licegyben,licegyban,dzsungel,NA,NA,PR2058,2000,nő,nem,2022-04-14_18h12.19.048,hesp_baseline,2021.2.3,Win32,59.89458553
,,,,,,,,,,,,,,,,,bihánylom,bihánylok,right,3.9229,0,44,44,89,1,144,bihánylik,bihánylasz,NA,NA,Te bizony sokat bihánylasz.,Én is sokat...,bihánylok,bihánylom,lakik,-lik,2,PR2058,2000,nő,nem,2022-04-14_18h12.19.048,hesp_baseline,2021.2.3,Win32,59.89458553
,,,,,,,,,,,,,,,,,lumlotok,lumoztok,left,5.2463,0,45,45,149,1,150,lumlik / lumozik,"lumlik, lumozni",tek,NA,"János imád lumozni, ezért sokat lumlik.",Ti ritkán...,lumlotok,lumoztok,cselekszik,-lik,1,PR2058,2000,nő,nem,2022-04-14_18h12.19.048,hesp_baseline,2021.2.3,Win32,59.89458553
,,,,,,,,,,,,,,,,,tuboklok,tuboklom,left,8.1869,0,46,46,84,1,139,tuboklik,tuboklasz,NA,NA,Te bizony sokat tuboklasz.,Én is sokat...,tuboklok,tuboklom,lakik,-lik,2,PR2058,2000,nő,nem,2022-04-14_18h12.19.048,hesp_baseline,2021.2.3,Win32,59.89458553
,,,,,,,,,,,,,,,,,briskédnél,briskédnál,left,4.4226,0,47,47,51,1,160,briskéd,briskéd,nál,é,Ez itt egy briskéd.,Nincs is jobb egy jó...,briskédnél,briskédnál,dzsungel,NA,NA,PR2058,2000,nő,nem,2022-04-14_18h12.19.048,hesp_baseline,2021.2.3,Win32,59.89458553
,,,,,,,,,,,,,,,,,trálakoznak,trálaklanak,left,7.9252,0,48,48,116,1,117,trálaklik / trálakozik,"trálaklik, trálakozni",nek,NA,"János imád trálakozni, ezért sokat trálaklik.",Ők ritkán...,trálaklanak,trálakoznak,cselekszik,-lik,2,PR2058,2000,nő,nem,2022-04-14_18h12.19.048,hesp_baseline,2021.2.3,Win32,59.89458553
,,,,,,,,,,,,,,,,,frálapszotok,frálapodtok,left,6.4578,0,49,49,150,1,151,frálapszik / frálapodik,"frálapszik, frálapodni",tek,NA,"János imád frálapodni, ezért sokat frálapszik.",Ti ritkán...,frálapszotok,frálapodtok,cselekszik,-szik,2,PR2058,2000,nő,nem,2022-04-14_18h12.19.048,hesp_baseline,2021.2.3,Win32,59.89458553
,,,,,,,,,,,,,,,,,sztrűkszöm,sztrűkszök,left,6.3916,0,50,50,77,1,132,sztrűkszik,sztrűkszöl,NA,NA,Te bizony sokat sztrűkszöl.,Én is sokat...,sztrűkszök,sztrűkszöm,lakik,-szik,1,PR2058,2000,nő,nem,2022-04-14_18h12.19.048,hesp_baseline,2021.2.3,Win32,59.89458553
,,,,,,,,,,,,,,,,,lájoztok,lájzotok,right,6.0051,0,51,51,159,1,160,lájzik / lájozik,"lájzik, lájozni",tek,NA,"János imád lájozni, ezért sokat lájzik.",Ti ritkán...,lájzotok,lájoztok,cselekszik,-zik,1,PR2058,2000,nő,nem,2022-04-14_18h12.19.048,hesp_baseline,2021.2.3,Win32,59.89458553
,,,,,,,,,,,,,,,,,trilszok,trilszom,left,6.0135,0,52,52,103,1,158,trilszik,trilszol,NA,NA,Te bizony sokat trilszol.,Én is sokat...,trilszok,trilszom,lakik,-szik,1,PR2058,2000,nő,nem,2022-04-14_18h12.19.048,hesp_baseline,2021.2.3,Win32,59.89458553
,,,,,,,,,,,,,,,,,dalencnál,dalencnél,right,4.9996,0,53,53,31,1,140,dalenc,dalenc,nál,e,Ez itt egy dalenc.,Nincs is jobb egy jó...,dalencnél,dalencnál,dzsungel,NA,NA,PR2058,2000,nő,nem,2022-04-14_18h12.19.048,hesp_baseline,2021.2.3,Win32,59.89458553
,,,,,,,,,,,,,,,,,pijélnél,pijélnál,left,4.1148,0,54,54,3,1,112,pijél,pijél,nál,é,Ez itt egy pijél.,Nincs is jobb egy jó...,pijélnél,pijélnál,dzsungel,NA,NA,PR2058,2000,nő,nem,2022-04-14_18h12.19.048,hesp_baseline,2021.2.3,Win32,59.89458553
,,,,,,,,,,,,,,,,,finceknál,finceknél,right,3.5505,0,55,55,9,1,118,fincek,fincek,nál,e,Ez itt egy fincek.,Nincs is jobb egy jó...,finceknél,finceknál,dzsungel,NA,NA,PR2058,2000,nő,nem,2022-04-14_18h12.19.048,hesp_baseline,2021.2.3,Win32,59.89458553
,,,,,,,,,,,,,,,,,danétnél,danétnál,right,4.9641,0,56,56,38,1,147,danét,danét,nál,é,Ez itt egy danét.,Nincs is jobb egy jó...,danétnél,danétnál,dzsungel,NA,NA,PR2058,2000,nő,nem,2022-04-14_18h12.19.048,hesp_baseline,2021.2.3,Win32,59.89458553
,,,,,,,,,,,,,,,,,böjzöm,böjzök,left,5.3383,0,57,57,80,1,135,böjzik,böjzöl,NA,NA,Te bizony sokat böjzöl.,Én is sokat...,böjzök,böjzöm,lakik,-zik,1,PR2058,2000,nő,nem,2022-04-14_18h12.19.048,hesp_baseline,2021.2.3,Win32,59.89458553
,,,,,,,,,,,,,,,,,jurdentnél,jurdentnál,left,8.6785,0,58,58,16,1,125,jurdent,jurdent,nál,e,Ez itt egy jurdent.,Nincs is jobb egy jó...,jurdentnél,jurdentnál,dzsungel,NA,NA,PR2058,2000,nő,nem,2022-04-14_18h12.19.048,hesp_baseline,2021.2.3,Win32,59.89458553
,,,,,,,,,,,,,,,,,frilegszek,frilegszem,right,3.7296,0,59,59,72,1,127,frilegszik,frilegszel,NA,NA,Te bizony sokat frilegszel.,Én is sokat...,frilegszek,frilegszem,lakik,-szik,2,PR2058,2000,nő,nem,2022-04-14_18h12.19.048,hesp_baseline,2021.2.3,Win32,59.89458553
,,,,,,,,,,,,,,,,,vihepszem,vihepszek,left,3.7765,0,60,60,59,1,114,vihepszik,vihepszel,NA,NA,Te bizony sokat vihepszel.,Én is sokat...,vihepszek,vihepszem,lakik,-szik,2,PR2058,2000,nő,nem,2022-04-14_18h12.19.048,hesp_baseline,2021.2.3,Win32,59.89458553
,,,,,,,,,,,,,,,,,féjzek,féjzem,left,5.5288,0,61,61,91,1,146,féjzik,féjzel,NA,NA,Te bizony sokat féjzel.,Én is sokat...,féjzek,féjzem,lakik,-zik,1,PR2058,2000,nő,nem,2022-04-14_18h12.19.048,hesp_baseline,2021.2.3,Win32,59.89458553
,,,,,,,,,,,,,,,,,prezlek,prezlem,left,4.5912,0,62,62,87,1,142,prezlik,prezlesz,NA,NA,Te bizony sokat prezlesz.,Én is sokat...,prezlek,prezlem,lakik,-lik,1,PR2058,2000,nő,nem,2022-04-14_18h12.19.048,hesp_baseline,2021.2.3,Win32,59.89458553
,,,,,,,,,,,,,,,,,filányozunk,filánylunk,left,3.7744,0,63,63,134,1,135,filánylik / filányozik,"filánylik, filányozni",ünk,NA,"János imád filányozni, ezért sokat filánylik.",Mi ritkán...,filánylunk,filányozunk,cselekszik,-lik,2,PR2058,2000,nő,nem,2022-04-14_18h12.19.048,hesp_baseline,2021.2.3,Win32,59.89458553
,,,,,,,,,,,,,,,,,fretszem,fretszek,right,4.0962,0,64,64,66,1,121,fretszik,fretszel,NA,NA,Te bizony sokat fretszel.,Én is sokat...,fretszek,fretszem,lakik,-szik,1,PR2058,2000,nő,nem,2022-04-14_18h12.19.048,hesp_baseline,2021.2.3,Win32,59.89458553
,,,,,,,,,,,,,,,,,klibamlok,klibamlom,left,4.0129,0,65,65,92,1,147,klibamlik,klibamlasz,NA,NA,Te bizony sokat klibamlasz.,Én is sokat...,klibamlok,klibamlom,lakik,-lik,2,PR2058,2000,nő,nem,2022-04-14_18h12.19.048,hesp_baseline,2021.2.3,Win32,59.89458553
,,,,,,,,,,,,,,,,,trapszegynál,trapszegynél,right,3.8387,0,66,66,39,1,148,trapszegy,trapszegy,nál,e,Ez itt egy trapszegy.,Nincs is jobb egy jó...,trapszegynél,trapszegynál,dzsungel,NA,NA,PR2058,2000,nő,nem,2022-04-14_18h12.19.048,hesp_baseline,2021.2.3,Win32,59.89458553
,,,,,,,,,,,,,,,,,ronszekben,ronszekban,right,5.6583,0,67,67,18,1,127,ronszek,ronszek,ban,e,Ez itt egy ronszek.,Ott vagyunk a...,ronszekben,ronszekban,dzsungel,NA,NA,PR2058,2000,nő,nem,2022-04-14_18h12.19.048,hesp_baseline,2021.2.3,Win32,59.89458553
,,,,,,,,,,,,,,,,,tibaroznak,tibarzanak,left,5.6047,0,68,68,155,1,156,tibarzik / tibarozik,"tibarzik, tibarozni",nek,NA,"János imád tibarozni, ezért sokat tibarzik.",Ők ritkán...,tibarzanak,tibaroznak,cselekszik,-zik,2,PR2058,2000,nő,nem,2022-04-14_18h12.19.048,hesp_baseline,2021.2.3,Win32,59.89458553
,,,,,,,,,,,,,,,,,szihétnek,szihétnak,left,4.8403,0,69,69,4,1,113,szihét,szihét,nak,é,Ez itt egy szihét.,Elneveztem a kutyámat...,szihétnek,szihétnak,dzsungel,NA,NA,PR2058,2000,nő,nem,2022-04-14_18h12.19.048,hesp_baseline,2021.2.3,Win32,59.89458553
,,,,,,,,,,,,,,,,,spanélnál,spanélnél,left,6.3611,0,70,70,24,1,133,spanél,spanél,nál,é,Ez itt egy spanél.,Nincs is jobb egy jó...,spanélnél,spanélnál,dzsungel,NA,NA,PR2058,2000,nő,nem,2022-04-14_18h12.19.048,hesp_baseline,2021.2.3,Win32,59.89458553
,,,,,,,,,,,,,,,,,gyibakszok,gyibakszom,right,4.7565,0,71,71,57,1,112,gyibakszik,gyibakszol,NA,NA,Te bizony sokat gyibakszol.,Én is sokat...,gyibakszok,gyibakszom,lakik,-szik,2,PR2058,2000,nő,nem,2022-04-14_18h12.19.048,hesp_baseline,2021.2.3,Win32,59.89458553
,,,,,,,,,,,,,,,,,brivepszünk,brivepedünk,left,6.6438,0,72,72,113,1,114,brivepszik / brivepedik,"brivepszik, brivepedni",ünk,NA,"János imád brivepedni, ezért sokat brivepszik.",Mi ritkán...,brivepszünk,brivepedünk,cselekszik,-szik,2,PR2058,2000,nő,nem,2022-04-14_18h12.19.048,hesp_baseline,2021.2.3,Win32,59.89458553
,,,,,,,,,,,,,,,,,voboztok,vobzotok,right,6.7236,0,73,73,158,1,159,vobzik / vobozik,"vobzik, vobozni",tek,NA,"János imád vobozni, ezért sokat vobzik.",Ti ritkán...,vobzotok,voboztok,cselekszik,-zik,1,PR2058,2000,nő,nem,2022-04-14_18h12.19.048,hesp_baseline,2021.2.3,Win32,59.89458553
,,,,,,,,,,,,,,,,,treglek,treglem,left,7.2583,0,74,74,81,1,136,treglik,treglesz,NA,NA,Te bizony sokat treglesz.,Én is sokat...,treglek,treglem,lakik,-lik,1,PR2058,2000,nő,nem,2022-04-14_18h12.19.048,hesp_baseline,2021.2.3,Win32,59.89458553
,,,,,,,,,,,,,,,,,sprozlanak,sprozoznak,left,4.4579,0,75,75,147,1,148,sprozlik / sprozozik,"sprozlik, sprozozni",nek,NA,"János imád sprozozni, ezért sokat sprozlik.",Ők ritkán...,sprozlanak,sprozoznak,cselekszik,-lik,1,PR2058,2000,nő,nem,2022-04-14_18h12.19.048,hesp_baseline,2021.2.3,Win32,59.89458553
,,,,,,,,,,,,,,,,,trehégszek,trehégszem,left,5.5218,0,76,76,86,1,141,trehégszik,trehégszel,NA,NA,Te bizony sokat trehégszel.,Én is sokat...,trehégszek,trehégszem,lakik,-szik,2,PR2058,2000,nő,nem,2022-04-14_18h12.19.048,hesp_baseline,2021.2.3,Win32,59.89458553
,,,,,,,,,,,,,,,,,brálamoznak,brálamlanak,left,5.0388,0,77,77,144,1,145,brálamlik / brálamozik,"brálamlik, brálamozni",nek,NA,"János imád brálamozni, ezért sokat brálamlik.",Ők ritkán...,brálamlanak,brálamoznak,cselekszik,-lik,2,PR2058,2000,nő,nem,2022-04-14_18h12.19.048,hesp_baseline,2021.2.3,Win32,59.89458553
,,,,,,,,,,,,,,,,,trincsegban,trincsegben,right,4.1791,0,78,78,46,1,155,trincseg,trincseg,ban,e,Ez itt egy trincseg.,Ott vagyunk a...,trincsegben,trincsegban,dzsungel,NA,NA,PR2058,2000,nő,nem,2022-04-14_18h12.19.048,hesp_baseline,2021.2.3,Win32,59.89458553
,,,,,,,,,,,,,,,,,sztredletek,sztredeztek,left,5.6822,0,79,79,145,1,146,sztredlik / sztredezik,"sztredlik, sztredezni",tek,NA,"János imád sztredezni, ezért sokat sztredlik.",Ti ritkán...,sztredletek,sztredeztek,cselekszik,-lik,1,PR2058,2000,nő,nem,2022-04-14_18h12.19.048,hesp_baseline,2021.2.3,Win32,59.89458553
,,,,,,,,,,,,,,,,,brotesban,brotesben,right,3.5412,0,80,80,53,1,162,brotes,brotes,ban,e,Ez itt egy brotes.,Ott vagyunk a...,brotesben,brotesban,dzsungel,NA,NA,PR2058,2000,nő,nem,2022-04-14_18h12.19.048,hesp_baseline,2021.2.3,Win32,59.89458553
,,,,,,,,,,,,,,,,,virzanak,viroznak,right,3.9891,0,81,81,125,1,126,virzik / virozik,"virzik, virozni",nek,NA,"János imád virozni, ezért sokat virzik.",Ők ritkán...,virzanak,viroznak,cselekszik,-zik,1,PR2058,2000,nő,nem,2022-04-14_18h12.19.048,hesp_baseline,2021.2.3,Win32,59.89458553
,,,,,,,,,,,,,,,,,prűrlöm,prűrlök,right,4.062,0,82,82,75,1,130,prűrlik,prűrlesz,NA,NA,Te bizony sokat prűrlesz.,Én is sokat...,prűrlök,prűrlöm,lakik,-lik,1,PR2058,2000,nő,nem,2022-04-14_18h12.19.048,hesp_baseline,2021.2.3,Win32,59.89458553
,,,,,,,,,,,,,,,,,bupézban,bupézben,left,5.5476,0,83,83,48,1,157,bupéz,bupéz,ban,é,Ez itt egy bupéz.,Ott vagyunk a...,bupézben,bupézban,dzsungel,NA,NA,PR2058,2000,nő,nem,2022-04-14_18h12.19.048,hesp_baseline,2021.2.3,Win32,59.89458553
,,,,,,,,,,,,,,,,,sztrozlom,sztrozlok,right,5.1571,0,84,84,104,1,159,sztrozlik,sztrozlasz,NA,NA,Te bizony sokat sztrozlasz.,Én is sokat...,sztrozlok,sztrozlom,lakik,-lik,1,PR2058,2000,nő,nem,2022-04-14_18h12.19.048,hesp_baseline,2021.2.3,Win32,59.89458553
,,,,,,,,,,,,,,,,,bratároznak,bratárzanak,left,7.299,0,85,85,108,1,109,bratárzik / bratározik,"bratárzik, bratározni",nek,NA,"János imád bratározni, ezért sokat bratárzik.",Ők ritkán...,bratárzanak,bratároznak,cselekszik,-zik,2,PR2058,2000,nő,nem,2022-04-14_18h12.19.048,hesp_baseline,2021.2.3,Win32,59.89458553
,,,,,,,,,,,,,,,,,plágadzok,plágadzom,right,5.9702,0,86,86,74,1,129,plágadzik,plágadzol,NA,NA,Te bizony sokat plágadzol.,Én is sokat...,plágadzok,plágadzom,lakik,-zik,2,PR2058,2000,nő,nem,2022-04-14_18h12.19.048,hesp_baseline,2021.2.3,Win32,59.89458553
,,,,,,,,,,,,,,,,,flöklötök,flököztök,right,5.7557,0,87,87,121,1,122,flöklik / flöközik,"flöklik, flöközni",tek,NA,"János imád flöközni, ezért sokat flöklik.",Ti ritkán...,flöklötök,flököztök,cselekszik,-lik,1,PR2058,2000,nő,nem,2022-04-14_18h12.19.048,hesp_baseline,2021.2.3,Win32,59.89458553
,,,,,,,,,,,,,,,,,pehégszetek,pehégedtek,left,4.8758,0,88,88,151,1,152,pehégszik / pehégedik,"pehégszik, pehégedni",tek,NA,"János imád pehégedni, ezért sokat pehégszik.",Ti ritkán...,pehégszetek,pehégedtek,cselekszik,-szik,2,PR2058,2000,nő,nem,2022-04-14_18h12.19.048,hesp_baseline,2021.2.3,Win32,59.89458553
,,,,,,,,,,,,,,,,,sartelyban,sartelyben,right,5.0118,0,89,89,40,1,149,sartely,sartely,ban,e,Ez itt egy sartely.,Ott vagyunk a...,sartelyben,sartelyban,dzsungel,NA,NA,PR2058,2000,nő,nem,2022-04-14_18h12.19.048,hesp_baseline,2021.2.3,Win32,59.89458553
,,,,,,,,,,,,,,,,,brukésznál,brukésznél,left,5.3719,0,90,90,10,1,119,brukész,brukész,nál,é,Ez itt egy brukész.,Nincs is jobb egy jó...,brukésznél,brukésznál,dzsungel,NA,NA,PR2058,2000,nő,nem,2022-04-14_18h12.19.048,hesp_baseline,2021.2.3,Win32,59.89458553
,,,,,,,,,,,,,,,,,trájegban,trájegben,right,5.3395,0,91,91,14,1,123,trájeg,trájeg,ban,e,Ez itt egy trájeg.,Ott vagyunk a...,trájegben,trájegban,dzsungel,NA,NA,PR2058,2000,nő,nem,2022-04-14_18h12.19.048,hesp_baseline,2021.2.3,Win32,59.89458553
,,,,,,,,,,,,,,,,,ibékszek,ibékszem,left,3.2797,0,92,92,95,1,150,ibékszik,ibékszel,NA,NA,Te bizony sokat ibékszel.,Én is sokat...,ibékszek,ibékszem,lakik,-szik,2,PR2058,2000,nő,nem,2022-04-14_18h12.19.048,hesp_baseline,2021.2.3,Win32,59.89458553
,,,,,,,,,,,,,,,,,fizendben,fizendban,left,3.8679,0,93,93,49,1,158,fizend,fizend,ban,e,Ez itt egy fizend.,Ott vagyunk a...,fizendben,fizendban,dzsungel,NA,NA,PR2058,2000,nő,nem,2022-04-14_18h12.19.048,hesp_baseline,2021.2.3,Win32,59.89458553
,,,,,,,,,,,,,,,,,mékszek,mékszem,left,3.0971,0,94,94,71,1,126,mékszik,mékszel,NA,NA,Te bizony sokat mékszel.,Én is sokat...,mékszek,mékszem,lakik,-szik,1,PR2058,2000,nő,nem,2022-04-14_18h12.19.048,hesp_baseline,2021.2.3,Win32,59.89458553
,,,,,,,,,,,,,,,,,zinednak,zinednek,right,3.3972,0,95,95,22,1,131,zined,zined,nak,e,Ez itt egy zined.,Elneveztem a kutyámat...,zinednek,zinednak,dzsungel,NA,NA,PR2058,2000,nő,nem,2022-04-14_18h12.19.048,hesp_baseline,2021.2.3,Win32,59.89458553
,,,,,,,,,,,,,,,,,spatelnek,spatelnak,left,4.0035,0,96,96,21,1,130,spatel,spatel,nak,e,Ez itt egy spatel.,Elneveztem a kutyámat...,spatelnek,spatelnak,dzsungel,NA,NA,PR2058,2000,nő,nem,2022-04-14_18h12.19.048,hesp_baseline,2021.2.3,Win32,59.89458553
,,,,,,,,,,,,,,,,,spröbzök,spröbzöm,left,5.2422,0,97,97,90,1,145,spröbzik,spröbzöl,NA,NA,Te bizony sokat spröbzöl.,Én is sokat...,spröbzök,spröbzöm,lakik,-zik,1,PR2058,2000,nő,nem,2022-04-14_18h12.19.048,hesp_baseline,2021.2.3,Win32,59.89458553
,,,,,,,,,,,,,,,,,flátlotok,flátoztok,right,4.8389,0,98,98,132,1,133,flátlik / flátozik,"flátlik, flátozni",tek,NA,"János imád flátozni, ezért sokat flátlik.",Ti ritkán...,flátlotok,flátoztok,cselekszik,-lik,1,PR2058,2000,nő,nem,2022-04-14_18h12.19.048,hesp_baseline,2021.2.3,Win32,59.89458553
,,,,,,,,,,,,,,,,,spírzom,spírzok,left,3.3475,0,99,99,64,1,119,spírzik,spírzol,NA,NA,Te bizony sokat spírzol.,Én is sokat...,spírzok,spírzom,lakik,-zik,1,PR2058,2000,nő,nem,2022-04-14_18h12.19.048,hesp_baseline,2021.2.3,Win32,59.89458553
,,,,,,,,,,,,,,,,,spüszlöm,spüszlök,left,3.8072,0,100,100,96,1,151,spüszlik,spüszlesz,NA,NA,Te bizony sokat spüszlesz.,Én is sokat...,spüszlök,spüszlöm,lakik,-lik,1,PR2058,2000,nő,nem,2022-04-14_18h12.19.048,hesp_baseline,2021.2.3,Win32,59.89458553
,,,,,,,,,,,,,,,,,trismélnek,trismélnak,left,4.3274,0,101,101,5,1,114,trismél,trismél,nak,é,Ez itt egy trismél.,Elneveztem a kutyámat...,trismélnek,trismélnak,dzsungel,NA,NA,PR2058,2000,nő,nem,2022-04-14_18h12.19.048,hesp_baseline,2021.2.3,Win32,59.89458553
,,,,,,,,,,,,,,,,,büglök,büglöm,left,3.8551,0,102,102,101,1,156,büglik,büglesz,NA,NA,Te bizony sokat büglesz.,Én is sokat...,büglök,büglöm,lakik,-lik,1,PR2058,2000,nő,nem,2022-04-14_18h12.19.048,hesp_baseline,2021.2.3,Win32,59.89458553
,,,,,,,,,,,,,,,,,brüjlöm,brüjlök,right,2.8749,0,103,103,55,1,110,brüjlik,brüjlesz,NA,NA,Te bizony sokat brüjlesz.,Én is sokat...,brüjlök,brüjlöm,lakik,-lik,1,PR2058,2000,nő,nem,2022-04-14_18h12.19.048,hesp_baseline,2021.2.3,Win32,59.89458553
,,,,,,,,,,,,,,,,,tínylok,tínylom,left,6.5266,0,104,104,58,1,113,tínylik,tínylasz,NA,NA,Te bizony sokat tínylasz.,Én is sokat...,tínylok,tínylom,lakik,-lik,1,PR2058,2000,nő,nem,2022-04-14_18h12.19.048,hesp_baseline,2021.2.3,Win32,59.89458553
,,,,,,,,,,,,,,,,,zsádévnak,zsádévnek,left,9.0049,0,105,105,20,1,129,zsádév,zsádév,nak,é,Ez itt egy zsádév.,Elneveztem a kutyámat...,zsádévnek,zsádévnak,dzsungel,NA,NA,PR2058,2000,nő,nem,2022-04-14_18h12.19.048,hesp_baseline,2021.2.3,Win32,59.89458553
,,,,,,,,,,,,,,,,,siladzok,siladzom,left,6.1592,0,106,106,93,1,148,siladzik,siladzol,NA,NA,Te bizony sokat siladzol.,Én is sokat...,siladzok,siladzom,lakik,-zik,2,PR2058,2000,nő,nem,2022-04-14_18h12.19.048,hesp_baseline,2021.2.3,Win32,59.89458553
,,,,,,,,,,,,,,,,,pribagszom,pribagszok,left,4.0419,0,107,107,76,1,131,pribagszik,pribagszol,NA,NA,Te bizony sokat pribagszol.,Én is sokat...,pribagszok,pribagszom,lakik,-szik,2,PR2058,2000,nő,nem,2022-04-14_18h12.19.048,hesp_baseline,2021.2.3,Win32,59.89458553
,,,,,,,,,,,,,,,,,brindeznak,brindeznek,right,6.7384,0,108,108,6,1,115,brindez,brindez,nak,e,Ez itt egy brindez.,Elneveztem a kutyámat...,brindeznek,brindeznak,dzsungel,NA,NA,PR2058,2000,nő,nem,2022-04-14_18h12.19.048,hesp_baseline,2021.2.3,Win32,59.89458553
,,,,,,,,,,,,,,,,,sűjlünk,sűjözünk,left,5.0487,0,109,109,128,1,129,sűjlik / sűjözik,"sűjlik, sűjözni",ünk,NA,"János imád sűjözni, ezért sokat sűjlik.",Mi ritkán...,sűjlünk,sűjözünk,cselekszik,-lik,1,PR2058,2000,nő,nem,2022-04-14_18h12.19.048,hesp_baseline,2021.2.3,Win32,59.89458553
,,,,,,,,,,,,,,,,,nyarcéjnek,nyarcéjnak,left,7.9294,0,110,110,37,1,146,nyarcéj,nyarcéj,nak,é,Ez itt egy nyarcéj.,Elneveztem a kutyámat...,nyarcéjnek,nyarcéjnak,dzsungel,NA,NA,PR2058,2000,nő,nem,2022-04-14_18h12.19.048,hesp_baseline,2021.2.3,Win32,59.89458553
,,,,,,,,,,,,,,,,,trugokoznak,trugoklanak,left,4.8326,0,111,111,109,1,110,trugoklik / trugokozik,"trugoklik, trugokozni",nek,NA,"János imád trugokozni, ezért sokat trugoklik.",Ők ritkán...,trugoklanak,trugokoznak,cselekszik,-lik,2,PR2058,2000,nő,nem,2022-04-14_18h12.19.048,hesp_baseline,2021.2.3,Win32,59.89458553
,,,,,,,,,,,,,,,,,sprivencnál,sprivencnél,right,6.089,0,112,112,13,1,122,sprivenc,sprivenc,nál,e,Ez itt egy sprivenc.,Nincs is jobb egy jó...,sprivencnél,sprivencnál,dzsungel,NA,NA,PR2058,2000,nő,nem,2022-04-14_18h12.19.048,hesp_baseline,2021.2.3,Win32,59.89458553
,,,,,,,,,,,,,,,,,hűgzöm,hűgzök,right,5.8754,0,113,113,107,1,162,hűgzik,hűgzöl,NA,NA,Te bizony sokat hűgzöl.,Én is sokat...,hűgzök,hűgzöm,lakik,-zik,1,PR2058,2000,nő,nem,2022-04-14_18h12.19.048,hesp_baseline,2021.2.3,Win32,59.89458553
,,,,,,,,,,,,,,,,,klétszek,klétszem,right,5.4287,0,114,114,60,1,115,klétszik,klétszel,NA,NA,Te bizony sokat klétszel.,Én is sokat...,klétszek,klétszem,lakik,-szik,1,PR2058,2000,nő,nem,2022-04-14_18h12.19.048,hesp_baseline,2021.2.3,Win32,59.89458553
,,,,,,,,,,,,,,,,,klivaslok,klivaslom,left,4.8071,0,115,115,62,1,117,klivaslik,klivaslasz,NA,NA,Te bizony sokat klivaslasz.,Én is sokat...,klivaslok,klivaslom,lakik,-lik,2,PR2058,2000,nő,nem,2022-04-14_18h12.19.048,hesp_baseline,2021.2.3,Win32,59.89458553
,,,,,,,,,,,,,,,,,zödlöm,zödlök,right,3.0093,0,116,116,106,1,161,zödlik,zödlesz,NA,NA,Te bizony sokat zödlesz.,Én is sokat...,zödlök,zödlöm,lakik,-lik,1,PR2058,2000,nő,nem,2022-04-14_18h12.19.048,hesp_baseline,2021.2.3,Win32,59.89458553
,,,,,,,,,,,,,,,,,drivegzetek,drivegeztek,left,16.6846,0,117,117,112,1,113,drivegzik / drivegezik,"drivegzik, drivegezni",tek,NA,"János imád drivegezni, ezért sokat drivegzik.",Ti ritkán...,drivegzetek,drivegeztek,cselekszik,-zik,2,PR2058,2000,nő,nem,2022-04-14_18h12.19.048,hesp_baseline,2021.2.3,Win32,59.89458553
,,,,,,,,,,,,,,,,,vurnelnek,vurnelnak,left,52.756,0,118,118,50,1,159,vurnel,vurnel,nak,e,Ez itt egy vurnel.,Elneveztem a kutyámat...,vurnelnek,vurnelnak,dzsungel,NA,NA,PR2058,2000,nő,nem,2022-04-14_18h12.19.048,hesp_baseline,2021.2.3,Win32,59.89458553
,,,,,,,,,,,,,,,,,zábénynek,zábénynak,left,2.937,0,119,119,43,1,152,zábény,zábény,nak,é,Ez itt egy zábény.,Elneveztem a kutyámat...,zábénynek,zábénynak,dzsungel,NA,NA,PR2058,2000,nő,nem,2022-04-14_18h12.19.048,hesp_baseline,2021.2.3,Win32,59.89458553
,,,,,,,,,,,,,,,,,klárzok,klárzom,left,3.3382,0,120,120,85,1,140,klárzik,klárzol,NA,NA,Te bizony sokat klárzol.,Én is sokat...,klárzok,klárzom,lakik,-zik,1,PR2058,2000,nő,nem,2022-04-14_18h12.19.048,hesp_baseline,2021.2.3,Win32,59.89458553
,,,,,,,,,,,,,,,,,lismévben,lismévban,left,3.2056,0,121,121,0,1,109,lismév,lismév,ban,é,Ez itt egy lismév.,Ott vagyunk a...,lismévben,lismévban,dzsungel,NA,NA,PR2058,2000,nő,nem,2022-04-14_18h12.19.048,hesp_baseline,2021.2.3,Win32,59.89458553
,,,,,,,,,,,,,,,,,gótemnek,gótemnak,left,2.8506,0,122,122,35,1,144,gótem,gótem,nak,e,Ez itt egy gótem.,Elneveztem a kutyámat...,gótemnek,gótemnak,dzsungel,NA,NA,PR2058,2000,nő,nem,2022-04-14_18h12.19.048,hesp_baseline,2021.2.3,Win32,59.89458553
,,,,,,,,,,,,,,,,,spiráglotok,spirágoztok,right,2.9883,0,123,123,135,1,136,spiráglik / spirágozik,"spiráglik, spirágozni",tek,NA,"János imád spirágozni, ezért sokat spiráglik.",Ti ritkán...,spiráglotok,spirágoztok,cselekszik,-lik,2,PR2058,2000,nő,nem,2022-04-14_18h12.19.048,hesp_baseline,2021.2.3,Win32,59.89458553
,,,,,,,,,,,,,,,,,nyupérnél,nyupérnál,right,3.6757,0,124,124,52,1,161,nyupér,nyupér,nál,é,Ez itt egy nyupér.,Nincs is jobb egy jó...,nyupérnél,nyupérnál,dzsungel,NA,NA,PR2058,2000,nő,nem,2022-04-14_18h12.19.048,hesp_baseline,2021.2.3,Win32,59.89458553
,,,,,,,,,,,,,,,,,spülőrzök,spülőrzöm,right,6.6844,0,125,125,69,1,124,spülőrzik,spülőrzöl,NA,NA,Te bizony sokat spülőrzöl.,Én is sokat...,spülőrzök,spülőrzöm,lakik,-zik,2,PR2058,2000,nő,nem,2022-04-14_18h12.19.048,hesp_baseline,2021.2.3,Win32,59.89458553
,,,,,,,,,,,,,,,,,táklok,táklom,right,2.493,0,126,126,79,1,134,táklik,táklasz,NA,NA,Te bizony sokat táklasz.,Én is sokat...,táklok,táklom,lakik,-lik,1,PR2058,2000,nő,nem,2022-04-14_18h12.19.048,hesp_baseline,2021.2.3,Win32,59.89458553
,,,,,,,,,,,,,,,,,frivajlok,frivajlom,left,2.5636,0,127,127,78,1,133,frivajlik,frivajlasz,NA,NA,Te bizony sokat frivajlasz.,Én is sokat...,frivajlok,frivajlom,lakik,-lik,2,PR2058,2000,nő,nem,2022-04-14_18h12.19.048,hesp_baseline,2021.2.3,Win32,59.89458553
,,,,,,,,,,,,,,,,,bűtszöm,bűtszök,left,3.3745,0,128,128,82,1,137,bűtszik,bűtszöl,NA,NA,Te bizony sokat bűtszöl.,Én is sokat...,bűtszök,bűtszöm,lakik,-szik,1,PR2058,2000,nő,nem,2022-04-14_18h12.19.048,hesp_baseline,2021.2.3,Win32,59.89458553
,,,,,,,,,,,,,,,,,pazévnél,pazévnál,right,3.8993,0,129,129,36,1,145,pazév,pazév,nál,é,Ez itt egy pazév.,Nincs is jobb egy jó...,pazévnél,pazévnál,dzsungel,NA,NA,PR2058,2000,nő,nem,2022-04-14_18h12.19.048,hesp_baseline,2021.2.3,Win32,59.89458553
,,,,,,,,,,,,,,,,,brároznak,brárlanak,left,3.1252,0,130,130,126,1,127,brárlik / brározik,"brárlik, brározni",nek,NA,"János imád brározni, ezért sokat brárlik.",Ők ritkán...,brárlanak,brároznak,cselekszik,-lik,1,PR2058,2000,nő,nem,2022-04-14_18h12.19.048,hesp_baseline,2021.2.3,Win32,59.89458553
,,,,,,,,,,,,,,,,,drilarozunk,drilarzunk,left,3.0567,0,131,131,131,1,132,drilarzik / drilarozik,"drilarzik, drilarozni",ünk,NA,"János imád drilarozni, ezért sokat drilarzik.",Mi ritkán...,drilarzunk,drilarozunk,cselekszik,-zik,2,PR2058,2000,nő,nem,2022-04-14_18h12.19.048,hesp_baseline,2021.2.3,Win32,59.89458553
,,,,,,,,,,,,,,,,,bidemban,bidemben,right,4.3904,0,132,132,2,1,111,bidem,bidem,ban,e,Ez itt egy bidem.,Ott vagyunk a...,bidemben,bidemban,dzsungel,NA,NA,PR2058,2000,nő,nem,2022-04-14_18h12.19.048,hesp_baseline,2021.2.3,Win32,59.89458553
,,,,,,,,,,,,,,,,,prínylok,prínylom,left,4.4053,0,133,133,102,1,157,prínylik,prínylasz,NA,NA,Te bizony sokat prínylasz.,Én is sokat...,prínylok,prínylom,lakik,-lik,1,PR2058,2000,nő,nem,2022-04-14_18h12.19.048,hesp_baseline,2021.2.3,Win32,59.89458553
,,,,,,,,,,,,,,,,,lűköznek,lűklenek,left,2.3931,0,134,134,136,1,137,lűklik / lűközik,"lűklik, lűközni",nek,NA,"János imád lűközni, ezért sokat lűklik.",Ők ritkán...,lűklenek,lűköznek,cselekszik,-lik,1,PR2058,2000,nő,nem,2022-04-14_18h12.19.048,hesp_baseline,2021.2.3,Win32,59.89458553
,,,,,,,,,,,,,,,,,sűzlök,sűzlöm,right,1.7034,0,135,135,54,1,109,sűzlik,sűzlesz,NA,NA,Te bizony sokat sűzlesz.,Én is sokat...,sűzlök,sűzlöm,lakik,-lik,1,PR2058,2000,nő,nem,2022-04-14_18h12.19.048,hesp_baseline,2021.2.3,Win32,59.89458553
,,,,,,,,,,,,,,,,,dibezban,dibezben,left,2.5088,0,136,136,27,1,136,dibez,dibez,ban,e,Ez itt egy dibez.,Ott vagyunk a...,dibezben,dibezban,dzsungel,NA,NA,PR2058,2000,nő,nem,2022-04-14_18h12.19.048,hesp_baseline,2021.2.3,Win32,59.89458553
,,,,,,,,,,,,,,,,,bródesznek,bródesznak,left,2.8084,0,137,137,32,1,141,bródesz,bródesz,nak,e,Ez itt egy bródesz.,Elneveztem a kutyámat...,bródesznek,bródesznak,dzsungel,NA,NA,PR2058,2000,nő,nem,2022-04-14_18h12.19.048,hesp_baseline,2021.2.3,Win32,59.89458553
,,,,,,,,,,,,,,,,,kábesznél,kábesznál,right,3.2948,0,138,138,44,1,153,kábesz,kábesz,nál,e,Ez itt egy kábesz.,Nincs is jobb egy jó...,kábesznél,kábesznál,dzsungel,NA,NA,PR2058,2000,nő,nem,2022-04-14_18h12.19.048,hesp_baseline,2021.2.3,Win32,59.89458553
,,,,,,,,,,,,,,,,,sztrijzok,sztrijzom,left,3.5746,0,139,139,68,1,123,sztrijzik,sztrijzol,NA,NA,Te bizony sokat sztrijzol.,Én is sokat...,sztrijzok,sztrijzom,lakik,-zik,1,PR2058,2000,nő,nem,2022-04-14_18h12.19.048,hesp_baseline,2021.2.3,Win32,59.89458553
,,,,,,,,,,,,,,,,,döjlenek,döjöznek,right,2.6759,0,140,140,129,1,130,döjlik / döjözik,"döjlik, döjözni",nek,NA,"János imád döjözni, ezért sokat döjlik.",Ők ritkán...,döjlenek,döjöznek,cselekszik,-lik,1,PR2058,2000,nő,nem,2022-04-14_18h12.19.048,hesp_baseline,2021.2.3,Win32,59.89458553
,,,,,,,,,,,,,,,,,pibegzenek,pibegeznek,left,3.6606,0,141,141,127,1,128,pibegzik / pibegezik,"pibegzik, pibegezni",nek,NA,"János imád pibegezni, ezért sokat pibegzik.",Ők ritkán...,pibegzenek,pibegeznek,cselekszik,-zik,2,PR2058,2000,nő,nem,2022-04-14_18h12.19.048,hesp_baseline,2021.2.3,Win32,59.89458553
,,,,,,,,,,,,,,,,,vűjlöm,vűjlök,left,2.1563,0,142,142,94,1,149,vűjlik,vűjlesz,NA,NA,Te bizony sokat vűjlesz.,Én is sokat...,vűjlök,vűjlöm,lakik,-lik,1,PR2058,2000,nő,nem,2022-04-14_18h12.19.048,hesp_baseline,2021.2.3,Win32,59.89458553
,,,,,,,,,,,,,,,,,braszencnél,braszencnál,left,6.31,0,143,143,7,1,116,braszenc,braszenc,nál,e,Ez itt egy braszenc.,Nincs is jobb egy jó...,braszencnél,braszencnál,dzsungel,NA,NA,PR2058,2000,nő,nem,2022-04-14_18h12.19.048,hesp_baseline,2021.2.3,Win32,59.89458553
,,,,,,,,,,,,,,,,,csodegnál,csodegnél,right,4.7917,0,144,144,28,1,137,csodeg,csodeg,nál,e,Ez itt egy csodeg.,Nincs is jobb egy jó...,csodegnél,csodegnál,dzsungel,NA,NA,PR2058,2000,nő,nem,2022-04-14_18h12.19.048,hesp_baseline,2021.2.3,Win32,59.89458553
,,,,,,,,,,,,,,,,,nyáslok,nyáslom,left,2.2093,0,145,145,100,1,155,nyáslik,nyáslasz,NA,NA,Te bizony sokat nyáslasz.,Én is sokat...,nyáslok,nyáslom,lakik,-lik,1,PR2058,2000,nő,nem,2022-04-14_18h12.19.048,hesp_baseline,2021.2.3,Win32,59.89458553
,,,,,,,,,,,,,,,,,düjzöm,düjzök,left,2.5485,0,146,146,97,1,152,düjzik,düjzöl,NA,NA,Te bizony sokat düjzöl.,Én is sokat...,düjzök,düjzöm,lakik,-zik,1,PR2058,2000,nő,nem,2022-04-14_18h12.19.048,hesp_baseline,2021.2.3,Win32,59.89458553
,,,,,,,,,,,,,,,,,murdesnál,murdesnél,right,5.4551,0,147,147,47,1,156,murdes,murdes,nál,e,Ez itt egy murdes.,Nincs is jobb egy jó...,murdesnél,murdesnál,dzsungel,NA,NA,PR2058,2000,nő,nem,2022-04-14_18h12.19.048,hesp_baseline,2021.2.3,Win32,59.89458553
,,,,,,,,,,,,,,,,,kátelnek,kátelnak,left,3.4094,0,148,148,12,1,121,kátel,kátel,nak,e,Ez itt egy kátel.,Elneveztem a kutyámat...,kátelnek,kátelnak,dzsungel,NA,NA,PR2058,2000,nő,nem,2022-04-14_18h12.19.048,hesp_baseline,2021.2.3,Win32,59.89458553
,,,,,,,,,,,,,,,,,trikoztok,triklotok,right,2.9263,0,149,149,160,1,161,triklik / trikozik,"triklik, trikozni",tek,NA,"János imád trikozni, ezért sokat triklik.",Ti ritkán...,triklotok,trikoztok,cselekszik,-lik,1,PR2058,2000,nő,nem,2022-04-14_18h12.19.048,hesp_baseline,2021.2.3,Win32,59.89458553
,,,,,,,,,,,,,,,,,vilesezünk,vileslünk,left,1.464,0,150,150,139,1,140,vileslik / vilesezik,"vileslik, vilesezni",ünk,NA,"János imád vilesezni, ezért sokat vileslik.",Mi ritkán...,vileslünk,vilesezünk,cselekszik,-lik,2,PR2058,2000,nő,nem,2022-04-14_18h12.19.048,hesp_baseline,2021.2.3,Win32,59.89458553
,,,,,,,,,,,,,,,,,sprökszök,sprökszöm,left,2.3414,0,151,151,88,1,143,sprökszik,sprökszöl,NA,NA,Te bizony sokat sprökszöl.,Én is sokat...,sprökszök,sprökszöm,lakik,-szik,1,PR2058,2000,nő,nem,2022-04-14_18h12.19.048,hesp_baseline,2021.2.3,Win32,59.89458553
,,,,,,,,,,,,,,,,,zatéjnál,zatéjnél,left,3.0908,0,152,152,34,1,143,zatéj,zatéj,nál,é,Ez itt egy zatéj.,Nincs is jobb egy jó...,zatéjnél,zatéjnál,dzsungel,NA,NA,PR2058,2000,nő,nem,2022-04-14_18h12.19.048,hesp_baseline,2021.2.3,Win32,59.89458553
,,,,,,,,,,,,,,,,,brilegezünk,brilegzünk,left,3.6796,0,153,153,124,1,125,brilegzik / brilegezik,"brilegzik, brilegezni",ünk,NA,"János imád brilegezni, ezért sokat brilegzik.",Mi ritkán...,brilegzünk,brilegezünk,cselekszik,-zik,2,PR2058,2000,nő,nem,2022-04-14_18h12.19.048,hesp_baseline,2021.2.3,Win32,59.89458553
,,,,,,,,,,,,,,,,,briváglanak,brivágoznak,right,2.0965,0,154,154,138,1,139,briváglik / brivágozik,"briváglik, brivágozni",nek,NA,"János imád brivágozni, ezért sokat briváglik.",Ők ritkán...,briváglanak,brivágoznak,cselekszik,-lik,2,PR2058,2000,nő,nem,2022-04-14_18h12.19.048,hesp_baseline,2021.2.3,Win32,59.89458553
,,,,,,,,,,,,,,,,,huméknak,huméknek,left,3.2105,0,155,155,23,1,132,humék,humék,nak,é,Ez itt egy humék.,Elneveztem a kutyámat...,huméknek,huméknak,dzsungel,NA,NA,PR2058,2000,nő,nem,2022-04-14_18h12.19.048,hesp_baseline,2021.2.3,Win32,59.89458553
,,,,,,,,,,,,,,,,,rájzom,rájzok,left,2.4186,0,156,156,70,1,125,rájzik,rájzol,NA,NA,Te bizony sokat rájzol.,Én is sokat...,rájzok,rájzom,lakik,-zik,1,PR2058,2000,nő,nem,2022-04-14_18h12.19.048,hesp_baseline,2021.2.3,Win32,59.89458553
,,,,,,,,,,,,,,,,,sztritoznak,sztritlanak,left,2.8301,0,157,157,154,1,155,sztritlik / sztritozik,"sztritlik, sztritozni",nek,NA,"János imád sztritozni, ezért sokat sztritlik.",Ők ritkán...,sztritlanak,sztritoznak,cselekszik,-lik,1,PR2058,2000,nő,nem,2022-04-14_18h12.19.048,hesp_baseline,2021.2.3,Win32,59.89458553
,,,,,,,,,,,,,,,,,surnegynál,surnegynél,left,6.1966,0,158,158,8,1,117,surnegy,surnegy,nál,e,Ez itt egy surnegy.,Nincs is jobb egy jó...,surnegynél,surnegynál,dzsungel,NA,NA,PR2058,2000,nő,nem,2022-04-14_18h12.19.048,hesp_baseline,2021.2.3,Win32,59.89458553
,,,,,,,,,,,,,,,,,zsáderben,zsáderban,right,2.2228,0,159,159,25,1,134,zsáder,zsáder,ban,e,Ez itt egy zsáder.,Ott vagyunk a...,zsáderben,zsáderban,dzsungel,NA,NA,PR2058,2000,nő,nem,2022-04-14_18h12.19.048,hesp_baseline,2021.2.3,Win32,59.89458553
,,,,,,,,,,,,,,,,,tűgzötök,tűgöztök,left,2.0081,0,160,160,143,1,144,tűgzik / tűgözik,"tűgzik, tűgözni",tek,NA,"János imád tűgözni, ezért sokat tűgzik.",Ti ritkán...,tűgzötök,tűgöztök,cselekszik,-zik,1,PR2058,2000,nő,nem,2022-04-14_18h12.19.048,hesp_baseline,2021.2.3,Win32,59.89458553
,,,,,,,,,,,,,,,,,spuborzanak,spuboroznak,left,3.8329,0,161,161,161,1,162,spuborzik / spuborozik,"spuborzik, spuborozni",nek,NA,"János imád spuborozni, ezért sokat spuborzik.",Ők ritkán...,spuborzanak,spuboroznak,cselekszik,-zik,2,PR2058,2000,nő,nem,2022-04-14_18h12.19.048,hesp_baseline,2021.2.3,Win32,59.89458553
