my_list,key.keys,key.rt,key_2.keys,key_2.rt,keyboard_input_2.keys,keyboard_input_2.rt,key_3.keys,key_3.rt,keyboard_input_3.keys,keyboard_input_3.rt,key_4.keys,key_4.rt,keyboard_input_4.keys,keyboard_input_4.rt,key_5.keys,key_5.rt,my_button1,my_button2,keyboard_input.keys,keyboard_input.rt,withinBlock.thisRepN,withinBlock.thisTrialN,withinBlock.thisN,withinBlock.thisIndex,withinBlock.ran,rowname,word,prompt,suffix,vowel,carrier_sentence,target_sentence,target1,target2,category,derivational,nsyl,Azonosító,Melyik évben születtél?,Mi a nemed?,Tanultál nyelvészetet?,date,expName,psychopyVersion,OS,frameRate
list2.csv,space,13.97,space,6.991,left,36.382,space,17.383,right,3.791,space,7.657,left,8.726,space,11.644,flézletek,flézeztek,right,8.276,0,0,0,134,1,81,flézlik / flézezik,"flézlik, flézezni",tek,NA,"János imád flézezni, ezért sokat flézlik.",Ti ritkán...,flézletek,flézeztek,cselekszik,-lik,1,nincsen,1979,nő,igen,2022-04-18_21h22.15.241,hesp_baseline,2021.2.3,Win32,60.0240096
,,,,,,,,,,,,,,,,,dineltban,dineltben,right,6.505,0,1,1,0,1,55,dinelt,dinelt,ban,e,Ez itt egy dinelt.,Ott vagyunk a...,dineltben,dineltban,dzsungel,NA,NA,nincsen,1979,nő,igen,2022-04-18_21h22.15.241,hesp_baseline,2021.2.3,Win32,60.0240096
,,,,,,,,,,,,,,,,,sprebzenek,sprebeznek,right,10.507,0,2,2,139,1,86,sprebzik / sprebezik,"sprebzik, sprebezni",nek,NA,"János imád sprebezni, ezért sokat sprebzik.",Ők ritkán...,sprebzenek,sprebeznek,cselekszik,-zik,1,nincsen,1979,nő,igen,2022-04-18_21h22.15.241,hesp_baseline,2021.2.3,Win32,60.0240096
,,,,,,,,,,,,,,,,,gúdenban,gúdenben,right,3.63,0,3,3,4,1,59,gúden,gúden,ban,e,Ez itt egy gúden.,Ott vagyunk a...,gúdenben,gúdenban,dzsungel,NA,NA,nincsen,1979,nő,igen,2022-04-18_21h22.15.241,hesp_baseline,2021.2.3,Win32,60.0240096
,,,,,,,,,,,,,,,,,pribemlek,pribemlem,left,7.851,0,4,4,107,1,108,pribemlik,pribemlesz,NA,NA,Te bizony sokat pribemlesz.,Én is sokat...,pribemlek,pribemlem,lakik,-lik,2,nincsen,1979,nő,igen,2022-04-18_21h22.15.241,hesp_baseline,2021.2.3,Win32,60.0240096
,,,,,,,,,,,,,,,,,zsigénnál,zsigénnél,right,4.138,0,5,5,12,1,67,zsigén,zsigén,nál,é,Ez itt egy zsigén.,Nincs is jobb egy jó...,zsigénnél,zsigénnál,dzsungel,NA,NA,nincsen,1979,nő,igen,2022-04-18_21h22.15.241,hesp_baseline,2021.2.3,Win32,60.0240096
,,,,,,,,,,,,,,,,,flibekszem,flibekszek,left,8.866,0,6,6,93,1,94,flibekszik,flibekszel,NA,NA,Te bizony sokat flibekszel.,Én is sokat...,flibekszek,flibekszem,lakik,-szik,2,nincsen,1979,nő,igen,2022-04-18_21h22.15.241,hesp_baseline,2021.2.3,Win32,60.0240096
,,,,,,,,,,,,,,,,,cságyeltban,cságyeltben,right,4.717,0,7,7,10,1,65,cságyelt,cságyelt,ban,e,Ez itt egy cságyelt.,Ott vagyunk a...,cságyeltben,cságyeltban,dzsungel,NA,NA,nincsen,1979,nő,igen,2022-04-18_21h22.15.241,hesp_baseline,2021.2.3,Win32,60.0240096
,,,,,,,,,,,,,,,,,drojozunk,drojzunk,right,6.201,0,8,8,140,1,87,drojzik / drojozik,"drojzik, drojozni",ünk,NA,"János imád drojozni, ezért sokat drojzik.",Mi ritkán...,drojzunk,drojozunk,cselekszik,-zik,1,nincsen,1979,nő,igen,2022-04-18_21h22.15.241,hesp_baseline,2021.2.3,Win32,60.0240096
,,,,,,,,,,,,,,,,,lihadzom,lihadzok,left,3.678,0,9,9,101,1,102,lihadzik,lihadzol,NA,NA,Te bizony sokat lihadzol.,Én is sokat...,lihadzok,lihadzom,lakik,-zik,2,nincsen,1979,nő,igen,2022-04-18_21h22.15.241,hesp_baseline,2021.2.3,Win32,60.0240096
,,,,,,,,,,,,,,,,,nyöbzenek,nyöböznek,right,4.837,0,10,10,152,1,99,nyöbzik / nyöbözik,"nyöbzik, nyöbözni",nek,NA,"János imád nyöbözni, ezért sokat nyöbzik.",Ők ritkán...,nyöbzenek,nyöböznek,cselekszik,-zik,1,nincsen,1979,nő,igen,2022-04-18_21h22.15.241,hesp_baseline,2021.2.3,Win32,60.0240096
,,,,,,,,,,,,,,,,,huroslok,huroslom,right,4.97,0,11,11,76,1,77,huroslik,huroslasz,NA,NA,Te bizony sokat huroslasz.,Én is sokat...,huroslok,huroslom,lakik,-lik,2,nincsen,1979,nő,igen,2022-04-18_21h22.15.241,hesp_baseline,2021.2.3,Win32,60.0240096
,,,,,,,,,,,,,,,,,csíszlok,csíszlom,right,3.228,0,12,12,84,1,85,csíszlik,csíszlasz,NA,NA,Te bizony sokat csíszlasz.,Én is sokat...,csíszlok,csíszlom,lakik,-lik,1,nincsen,1979,nő,igen,2022-04-18_21h22.15.241,hesp_baseline,2021.2.3,Win32,60.0240096
,,,,,,,,,,,,,,,,,flitlok,flitlom,right,3.929,0,13,13,90,1,91,flitlik,flitlasz,NA,NA,Te bizony sokat flitlasz.,Én is sokat...,flitlok,flitlom,lakik,-lik,1,nincsen,1979,nő,igen,2022-04-18_21h22.15.241,hesp_baseline,2021.2.3,Win32,60.0240096
,,,,,,,,,,,,,,,,,molodtok,molszotok,right,8.349,0,14,14,142,1,89,molszik / molodik,"molszik, molodni",tek,NA,"János imád molodni, ezért sokat molszik.",Ti ritkán...,molszotok,molodtok,cselekszik,-szik,1,nincsen,1979,nő,igen,2022-04-18_21h22.15.241,hesp_baseline,2021.2.3,Win32,60.0240096
,,,,,,,,,,,,,,,,,frodlok,frodlom,right,5.659,0,15,15,61,1,62,frodlik,frodlasz,NA,NA,Te bizony sokat frodlasz.,Én is sokat...,frodlok,frodlom,lakik,-lik,1,nincsen,1979,nő,igen,2022-04-18_21h22.15.241,hesp_baseline,2021.2.3,Win32,60.0240096
,,,,,,,,,,,,,,,,,spüjzök,spüjzöm,right,2.483,0,16,16,59,1,60,spüjzik,spüjzöl,NA,NA,Te bizony sokat spüjzöl.,Én is sokat...,spüjzök,spüjzöm,lakik,-zik,1,nincsen,1979,nő,igen,2022-04-18_21h22.15.241,hesp_baseline,2021.2.3,Win32,60.0240096
,,,,,,,,,,,,,,,,,driládzok,driládzom,right,3.129,0,17,17,67,1,68,driládzik,driládzol,NA,NA,Te bizony sokat driládzol.,Én is sokat...,driládzok,driládzom,lakik,-zik,2,nincsen,1979,nő,igen,2022-04-18_21h22.15.241,hesp_baseline,2021.2.3,Win32,60.0240096
,,,,,,,,,,,,,,,,,lijeznek,lijeznak,left,3.67,0,18,18,40,1,95,lijez,lijez,nak,e,Ez itt egy lijez.,Elneveztem a kutyámat...,lijeznek,lijeznak,dzsungel,NA,NA,nincsen,1979,nő,igen,2022-04-18_21h22.15.241,hesp_baseline,2021.2.3,Win32,60.0240096
,,,,,,,,,,,,,,,,,zarcégnál,zarcégnél,left,8.975,0,19,19,29,1,84,zarcég,zarcég,nál,é,Ez itt egy zarcég.,Nincs is jobb egy jó...,zarcégnél,zarcégnál,dzsungel,NA,NA,nincsen,1979,nő,igen,2022-04-18_21h22.15.241,hesp_baseline,2021.2.3,Win32,60.0240096
,,,,,,,,,,,,,,,,,ribegzem,ribegzek,right,4.106,0,20,20,63,1,64,ribegzik,ribegzel,NA,NA,Te bizony sokat ribegzel.,Én is sokat...,ribegzek,ribegzem,lakik,-zik,2,nincsen,1979,nő,igen,2022-04-18_21h22.15.241,hesp_baseline,2021.2.3,Win32,60.0240096
,,,,,,,,,,,,,,,,,rapszeknél,rapszeknál,right,5.966,0,21,21,35,1,90,rapszek,rapszek,nál,e,Ez itt egy rapszek.,Nincs is jobb egy jó...,rapszeknél,rapszeknál,dzsungel,NA,NA,nincsen,1979,nő,igen,2022-04-18_21h22.15.241,hesp_baseline,2021.2.3,Win32,60.0240096
,,,,,,,,,,,,,,,,,nyürzenek,nyüröznek,right,5.152,0,22,22,123,1,70,nyürzik / nyürözik,"nyürzik, nyürözni",nek,NA,"János imád nyürözni, ezért sokat nyürzik.",Ők ritkán...,nyürzenek,nyüröznek,cselekszik,-zik,1,nincsen,1979,nő,igen,2022-04-18_21h22.15.241,hesp_baseline,2021.2.3,Win32,60.0240096
,,,,,,,,,,,,,,,,,dingecnek,dingecnak,left,4.991,0,23,23,42,1,97,dingec,dingec,nak,e,Ez itt egy dingec.,Elneveztem a kutyámat...,dingecnek,dingecnak,dzsungel,NA,NA,nincsen,1979,nő,igen,2022-04-18_21h22.15.241,hesp_baseline,2021.2.3,Win32,60.0240096
,,,,,,,,,,,,,,,,,dilaklotok,dilakoztok,left,15.042,0,24,24,158,1,105,dilaklik / dilakozik,"dilaklik, dilakozni",tek,NA,"János imád dilakozni, ezért sokat dilaklik.",Ti ritkán...,dilaklotok,dilakoztok,cselekszik,-lik,2,nincsen,1979,nő,igen,2022-04-18_21h22.15.241,hesp_baseline,2021.2.3,Win32,60.0240096
,,,,,,,,,,,,,,,,,flüröslöm,flüröslök,right,4.809,0,25,25,87,1,88,flüröslik,flüröslesz,NA,NA,Te bizony sokat flüröslesz.,Én is sokat...,flüröslök,flüröslöm,lakik,-lik,2,nincsen,1979,nő,igen,2022-04-18_21h22.15.241,hesp_baseline,2021.2.3,Win32,60.0240096
,,,,,,,,,,,,,,,,,spizecnek,spizecnak,left,4.294,0,26,26,6,1,61,spizec,spizec,nak,e,Ez itt egy spizec.,Elneveztem a kutyámat...,spizecnek,spizecnak,dzsungel,NA,NA,nincsen,1979,nő,igen,2022-04-18_21h22.15.241,hesp_baseline,2021.2.3,Win32,60.0240096
,,,,,,,,,,,,,,,,,klazérben,klazérban,right,3.654,0,27,27,51,1,106,klazér,klazér,ban,é,Ez itt egy klazér.,Ott vagyunk a...,klazérben,klazérban,dzsungel,NA,NA,nincsen,1979,nő,igen,2022-04-18_21h22.15.241,hesp_baseline,2021.2.3,Win32,60.0240096
,,,,,,,,,,,,,,,,,sprűrlenek,sprűröznek,right,21.024,0,28,28,135,1,82,sprűrlik / sprűrözik,"sprűrlik, sprűrözni",nek,NA,"János imád sprűrözni, ezért sokat sprűrlik.",Ők ritkán...,sprűrlenek,sprűröznek,cselekszik,-lik,1,nincsen,1979,nő,igen,2022-04-18_21h22.15.241,hesp_baseline,2021.2.3,Win32,60.0240096
,,,,,,,,,,,,,,,,,brágédnek,brágédnak,right,8.036,0,29,29,45,1,100,brágéd,brágéd,nak,é,Ez itt egy brágéd.,Elneveztem a kutyámat...,brágédnek,brágédnak,dzsungel,NA,NA,nincsen,1979,nő,igen,2022-04-18_21h22.15.241,hesp_baseline,2021.2.3,Win32,60.0240096
,,,,,,,,,,,,,,,,,spihegzek,spihegzem,right,8.653,0,30,30,81,1,82,spihegzik,spihegzel,NA,NA,Te bizony sokat spihegzel.,Én is sokat...,spihegzek,spihegzem,lakik,-zik,2,nincsen,1979,nő,igen,2022-04-18_21h22.15.241,hesp_baseline,2021.2.3,Win32,60.0240096
,,,,,,,,,,,,,,,,,míjzunk,míjozunk,right,4.355,0,31,31,114,1,61,míjzik / míjozik,"míjzik, míjozni",ünk,NA,"János imád míjozni, ezért sokat míjzik.",Mi ritkán...,míjzunk,míjozunk,cselekszik,-zik,1,nincsen,1979,nő,igen,2022-04-18_21h22.15.241,hesp_baseline,2021.2.3,Win32,60.0240096
,,,,,,,,,,,,,,,,,frálasoznak,frálaslanak,left,7.12,0,32,32,110,1,57,frálaslik / frálasozik,"frálaslik, frálasozni",nek,NA,"János imád frálasozni, ezért sokat frálaslik.",Ők ritkán...,frálaslanak,frálasoznak,cselekszik,-lik,2,nincsen,1979,nő,igen,2022-04-18_21h22.15.241,hesp_baseline,2021.2.3,Win32,60.0240096
,,,,,,,,,,,,,,,,,jábézban,jábézben,left,3.977,0,33,33,34,1,89,jábéz,jábéz,ban,é,Ez itt egy jábéz.,Ott vagyunk a...,jábézben,jábézban,dzsungel,NA,NA,nincsen,1979,nő,igen,2022-04-18_21h22.15.241,hesp_baseline,2021.2.3,Win32,60.0240096
,,,,,,,,,,,,,,,,,gilárzom,gilárzok,left,9.762,0,34,34,94,1,95,gilárzik,gilárzol,NA,NA,Te bizony sokat gilárzol.,Én is sokat...,gilárzok,gilárzom,lakik,-zik,2,nincsen,1979,nő,igen,2022-04-18_21h22.15.241,hesp_baseline,2021.2.3,Win32,60.0240096
,,,,,,,,,,,,,,,,,flubokoztok,fluboklotok,right,9.575,0,35,35,151,1,98,fluboklik / flubokozik,"fluboklik, flubokozni",tek,NA,"János imád flubokozni, ezért sokat fluboklik.",Ti ritkán...,fluboklotok,flubokoztok,cselekszik,-lik,2,nincsen,1979,nő,igen,2022-04-18_21h22.15.241,hesp_baseline,2021.2.3,Win32,60.0240096
,,,,,,,,,,,,,,,,,fligzom,fligzok,left,7.356,0,36,36,103,1,104,fligzik,fligzol,NA,NA,Te bizony sokat fligzol.,Én is sokat...,fligzok,fligzom,lakik,-zik,1,nincsen,1979,nő,igen,2022-04-18_21h22.15.241,hesp_baseline,2021.2.3,Win32,60.0240096
,,,,,,,,,,,,,,,,,ikszertben,ikszertban,left,4.343,0,37,37,19,1,74,ikszert,ikszert,ban,e,Ez itt egy ikszert.,Ott vagyunk a...,ikszertben,ikszertban,dzsungel,NA,NA,nincsen,1979,nő,igen,2022-04-18_21h22.15.241,hesp_baseline,2021.2.3,Win32,60.0240096
,,,,,,,,,,,,,,,,,fröjözünk,fröjlünk,left,5.895,0,38,38,117,1,64,fröjlik / fröjözik,"fröjlik, fröjözni",ünk,NA,"János imád fröjözni, ezért sokat fröjlik.",Mi ritkán...,fröjlünk,fröjözünk,cselekszik,-lik,1,nincsen,1979,nő,igen,2022-04-18_21h22.15.241,hesp_baseline,2021.2.3,Win32,60.0240096
,,,,,,,,,,,,,,,,,flagánylom,flagánylok,right,6.36,0,39,39,82,1,83,flagánylik,flagánylasz,NA,NA,Te bizony sokat flagánylasz.,Én is sokat...,flagánylok,flagánylom,lakik,-lik,2,nincsen,1979,nő,igen,2022-04-18_21h22.15.241,hesp_baseline,2021.2.3,Win32,60.0240096
,,,,,,,,,,,,,,,,,kluhéjnél,kluhéjnál,right,4.578,0,40,40,24,1,79,kluhéj,kluhéj,nál,é,Ez itt egy kluhéj.,Nincs is jobb egy jó...,kluhéjnél,kluhéjnál,dzsungel,NA,NA,nincsen,1979,nő,igen,2022-04-18_21h22.15.241,hesp_baseline,2021.2.3,Win32,60.0240096
,,,,,,,,,,,,,,,,,friszlom,friszlok,left,3.658,0,41,41,97,1,98,friszlik,friszlasz,NA,NA,Te bizony sokat friszlasz.,Én is sokat...,friszlok,friszlom,lakik,-lik,1,nincsen,1979,nő,igen,2022-04-18_21h22.15.241,hesp_baseline,2021.2.3,Win32,60.0240096
,,,,,,,,,,,,,,,,,péleslem,péleslek,left,3.349,0,42,42,73,1,74,péleslik,péleslesz,NA,NA,Te bizony sokat péleslesz.,Én is sokat...,péleslek,péleslem,lakik,-lik,2,nincsen,1979,nő,igen,2022-04-18_21h22.15.241,hesp_baseline,2021.2.3,Win32,60.0240096
,,,,,,,,,,,,,,,,,hákodnak,hákszanak,left,6.17,0,43,43,150,1,97,hákszik / hákodik,"hákszik, hákodni",nek,NA,"János imád hákodni, ezért sokat hákszik.",Ők ritkán...,hákszanak,hákodnak,cselekszik,-szik,1,nincsen,1979,nő,igen,2022-04-18_21h22.15.241,hesp_baseline,2021.2.3,Win32,60.0240096
,,,,,,,,,,,,,,,,,jonylom,jonylok,right,5.162,0,44,44,55,1,56,jonylik,jonylasz,NA,NA,Te bizony sokat jonylasz.,Én is sokat...,jonylok,jonylom,lakik,-lik,1,nincsen,1979,nő,igen,2022-04-18_21h22.15.241,hesp_baseline,2021.2.3,Win32,60.0240096
,,,,,,,,,,,,,,,,,spügzünk,spügözünk,right,4.11,0,45,45,143,1,90,spügzik / spügözik,"spügzik, spügözni",ünk,NA,"János imád spügözni, ezért sokat spügzik.",Mi ritkán...,spügzünk,spügözünk,cselekszik,-zik,1,nincsen,1979,nő,igen,2022-04-18_21h22.15.241,hesp_baseline,2021.2.3,Win32,60.0240096
,,,,,,,,,,,,,,,,,branyoznak,branylanak,left,13.695,0,46,46,136,1,83,branylik / branyozik,"branylik, branyozni",nek,NA,"János imád branyozni, ezért sokat branylik.",Ők ritkán...,branylanak,branyoznak,cselekszik,-lik,1,nincsen,1979,nő,igen,2022-04-18_21h22.15.241,hesp_baseline,2021.2.3,Win32,60.0240096
,,,,,,,,,,,,,,,,,ruslok,ruslom,left,5.018,0,47,47,83,1,84,ruslik,ruslasz,NA,NA,Te bizony sokat ruslasz.,Én is sokat...,ruslok,ruslom,lakik,-lik,1,nincsen,1979,nő,igen,2022-04-18_21h22.15.241,hesp_baseline,2021.2.3,Win32,60.0240096
,,,,,,,,,,,,,,,,,frivamozunk,frivamlunk,right,27.099,0,48,48,122,1,69,frivamlik / frivamozik,"frivamlik, frivamozni",ünk,NA,"János imád frivamozni, ezért sokat frivamlik.",Mi ritkán...,frivamlunk,frivamozunk,cselekszik,-lik,2,nincsen,1979,nő,igen,2022-04-18_21h22.15.241,hesp_baseline,2021.2.3,Win32,60.0240096
,,,,,,,,,,,,,,,,,csólorzom,csólorzok,right,20.627,0,49,49,102,1,103,csólorzik,csólorzol,NA,NA,Te bizony sokat csólorzol.,Én is sokat...,csólorzok,csólorzom,lakik,-zik,2,nincsen,1979,nő,igen,2022-04-18_21h22.15.241,hesp_baseline,2021.2.3,Win32,60.0240096
,,,,,,,,,,,,,,,,,ítensben,ítensban,left,8.098,0,50,50,50,1,105,ítens,ítens,ban,e,Ez itt egy ítens.,Ott vagyunk a...,ítensben,ítensban,dzsungel,NA,NA,nincsen,1979,nő,igen,2022-04-18_21h22.15.241,hesp_baseline,2021.2.3,Win32,60.0240096
,,,,,,,,,,,,,,,,,vorszennál,vorszennél,right,5.546,0,51,51,30,1,85,vorszen,vorszen,nál,e,Ez itt egy vorszen.,Nincs is jobb egy jó...,vorszennél,vorszennál,dzsungel,NA,NA,nincsen,1979,nő,igen,2022-04-18_21h22.15.241,hesp_baseline,2021.2.3,Win32,60.0240096
,,,,,,,,,,,,,,,,,prohódzom,prohódzok,left,14.236,0,52,52,66,1,67,prohódzik,prohódzol,NA,NA,Te bizony sokat prohódzol.,Én is sokat...,prohódzok,prohódzom,lakik,-zik,2,nincsen,1979,nő,igen,2022-04-18_21h22.15.241,hesp_baseline,2021.2.3,Win32,60.0240096
,,,,,,,,,,,,,,,,,flodlotok,flodoztok,left,17.528,0,53,53,144,1,91,flodlik / flodozik,"flodlik, flodozni",tek,NA,"János imád flodozni, ezért sokat flodlik.",Ti ritkán...,flodlotok,flodoztok,cselekszik,-lik,1,nincsen,1979,nő,igen,2022-04-18_21h22.15.241,hesp_baseline,2021.2.3,Win32,60.0240096
,,,,,,,,,,,,,,,,,pratelynak,pratelynek,right,13.842,0,54,54,47,1,102,prately,prately,nak,e,Ez itt egy prately.,Elneveztem a kutyámat...,pratelynek,pratelynak,dzsungel,NA,NA,nincsen,1979,nő,igen,2022-04-18_21h22.15.241,hesp_baseline,2021.2.3,Win32,60.0240096
,,,,,,,,,,,,,,,,,bribékszetek,bribékedtek,left,24.069,0,55,55,141,1,88,bribékszik / bribékedik,"bribékszik, bribékedni",tek,NA,"János imád bribékedni, ezért sokat bribékszik.",Ti ritkán...,bribékszetek,bribékedtek,cselekszik,-szik,2,nincsen,1979,nő,igen,2022-04-18_21h22.15.241,hesp_baseline,2021.2.3,Win32,60.0240096
,,,,,,,,,,,,,,,,,tosélyban,tosélyben,left,4.591,0,56,56,25,1,80,tosély,tosély,ban,é,Ez itt egy tosély.,Ott vagyunk a...,tosélyben,tosélyban,dzsungel,NA,NA,nincsen,1979,nő,igen,2022-04-18_21h22.15.241,hesp_baseline,2021.2.3,Win32,60.0240096
,,,,,,,,,,,,,,,,,kátédnál,kátédnél,left,8.333,0,57,57,37,1,92,kátéd,kátéd,nál,é,Ez itt egy kátéd.,Nincs is jobb egy jó...,kátédnél,kátédnál,dzsungel,NA,NA,nincsen,1979,nő,igen,2022-04-18_21h22.15.241,hesp_baseline,2021.2.3,Win32,60.0240096
,,,,,,,,,,,,,,,,,zutennál,zutennél,right,6.243,0,58,58,43,1,98,zuten,zuten,nál,e,Ez itt egy zuten.,Nincs is jobb egy jó...,zutennél,zutennál,dzsungel,NA,NA,nincsen,1979,nő,igen,2022-04-18_21h22.15.241,hesp_baseline,2021.2.3,Win32,60.0240096
,,,,,,,,,,,,,,,,,ronvetnak,ronvetnek,right,12.062,0,59,59,9,1,64,ronvet,ronvet,nak,e,Ez itt egy ronvet.,Elneveztem a kutyámat...,ronvetnek,ronvetnak,dzsungel,NA,NA,nincsen,1979,nő,igen,2022-04-18_21h22.15.241,hesp_baseline,2021.2.3,Win32,60.0240096
,,,,,,,,,,,,,,,,,flátszok,flátszom,right,5.263,0,60,60,98,1,99,flátszik,flátszol,NA,NA,Te bizony sokat flátszol.,Én is sokat...,flátszok,flátszom,lakik,-szik,1,nincsen,1979,nő,igen,2022-04-18_21h22.15.241,hesp_baseline,2021.2.3,Win32,60.0240096
,,,,,,,,,,,,,,,,,fréslünk,frésezünk,left,7.32,0,61,61,138,1,85,fréslik / frésezik,"fréslik, frésezni",ünk,NA,"János imád frésezni, ezért sokat fréslik.",Mi ritkán...,fréslünk,frésezünk,cselekszik,-lik,1,nincsen,1979,nő,igen,2022-04-18_21h22.15.241,hesp_baseline,2021.2.3,Win32,60.0240096
,,,,,,,,,,,,,,,,,szűslöm,szűslök,right,19.39,0,62,62,85,1,86,szűslik,szűslesz,NA,NA,Te bizony sokat szűslesz.,Én is sokat...,szűslök,szűslöm,lakik,-lik,1,nincsen,1979,nő,igen,2022-04-18_21h22.15.241,hesp_baseline,2021.2.3,Win32,60.0240096
,,,,,,,,,,,,,,,,,nyametben,nyametban,left,6.663,0,63,63,17,1,72,nyamet,nyamet,ban,e,Ez itt egy nyamet.,Ott vagyunk a...,nyametben,nyametban,dzsungel,NA,NA,nincsen,1979,nő,igen,2022-04-18_21h22.15.241,hesp_baseline,2021.2.3,Win32,60.0240096
,,,,,,,,,,,,,,,,,klítegynál,klítegynél,right,6.416,0,64,64,5,1,60,klítegy,klítegy,nál,e,Ez itt egy klítegy.,Nincs is jobb egy jó...,klítegynél,klítegynál,dzsungel,NA,NA,nincsen,1979,nő,igen,2022-04-18_21h22.15.241,hesp_baseline,2021.2.3,Win32,60.0240096
,,,,,,,,,,,,,,,,,líroznak,lírlanak,right,9.427,0,65,65,115,1,62,lírlik / lírozik,"lírlik, lírozni",nek,NA,"János imád lírozni, ezért sokat lírlik.",Ők ritkán...,lírlanak,líroznak,cselekszik,-lik,1,nincsen,1979,nő,igen,2022-04-18_21h22.15.241,hesp_baseline,2021.2.3,Win32,60.0240096
,,,,,,,,,,,,,,,,,dihelynek,dihelynak,left,9.693,0,66,66,20,1,75,dihely,dihely,nak,e,Ez itt egy dihely.,Elneveztem a kutyámat...,dihelynek,dihelynak,dzsungel,NA,NA,nincsen,1979,nő,igen,2022-04-18_21h22.15.241,hesp_baseline,2021.2.3,Win32,60.0240096
,,,,,,,,,,,,,,,,,mihágzotok,mihágoztok,left,1.386,0,67,67,118,1,65,mihágzik / mihágozik,"mihágzik, mihágozni",tek,NA,"János imád mihágozni, ezért sokat mihágzik.",Ti ritkán...,mihágzotok,mihágoztok,cselekszik,-zik,2,nincsen,1979,nő,igen,2022-04-18_21h22.15.241,hesp_baseline,2021.2.3,Win32,60.0240096
,,,,,,,,,,,,,,,,,csintékban,csintékben,left,4.691,0,68,68,23,1,78,csinték,csinték,ban,é,Ez itt egy csinték.,Ott vagyunk a...,csintékben,csintékban,dzsungel,NA,NA,nincsen,1979,nő,igen,2022-04-18_21h22.15.241,hesp_baseline,2021.2.3,Win32,60.0240096
,,,,,,,,,,,,,,,,,szirlok,szirlom,left,27.744,0,69,69,62,1,63,szirlik,szirlasz,NA,NA,Te bizony sokat szirlasz.,Én is sokat...,szirlok,szirlom,lakik,-lik,1,nincsen,1979,nő,igen,2022-04-18_21h22.15.241,hesp_baseline,2021.2.3,Win32,60.0240096
,,,,,,,,,,,,,,,,,brivegzek,brivegzem,left,5.293,0,70,70,70,1,71,brivegzik,brivegzel,NA,NA,Te bizony sokat brivegzel.,Én is sokat...,brivegzek,brivegzem,lakik,-zik,2,nincsen,1979,nő,igen,2022-04-18_21h22.15.241,hesp_baseline,2021.2.3,Win32,60.0240096
,,,,,,,,,,,,,,,,,tomlok,tomlom,left,7.348,0,71,71,86,1,87,tomlik,tomlasz,NA,NA,Te bizony sokat tomlasz.,Én is sokat...,tomlok,tomlom,lakik,-lik,1,nincsen,1979,nő,igen,2022-04-18_21h22.15.241,hesp_baseline,2021.2.3,Win32,60.0240096
,,,,,,,,,,,,,,,,,posoztok,poslotok,right,8.711,0,72,72,121,1,68,poslik / posozik,"poslik, posozni",tek,NA,"János imád posozni, ezért sokat poslik.",Ti ritkán...,poslotok,posoztok,cselekszik,-lik,1,nincsen,1979,nő,igen,2022-04-18_21h22.15.241,hesp_baseline,2021.2.3,Win32,60.0240096
,,,,,,,,,,,,,,,,,csubzunk,csubozunk,left,11.332,0,73,73,111,1,58,csubzik / csubozik,"csubzik, csubozni",ünk,NA,"János imád csubozni, ezért sokat csubzik.",Mi ritkán...,csubzunk,csubozunk,cselekszik,-zik,1,nincsen,1979,nő,igen,2022-04-18_21h22.15.241,hesp_baseline,2021.2.3,Win32,60.0240096
,,,,,,,,,,,,,,,,,sponyoznak,sponylanak,right,6.412,0,74,74,125,1,72,sponylik / sponyozik,"sponylik, sponyozni",nek,NA,"János imád sponyozni, ezért sokat sponylik.",Ők ritkán...,sponylanak,sponyoznak,cselekszik,-lik,1,nincsen,1979,nő,igen,2022-04-18_21h22.15.241,hesp_baseline,2021.2.3,Win32,60.0240096
,,,,,,,,,,,,,,,,,prihegednek,prihegszenek,right,8.139,0,75,75,155,1,102,prihegszik / prihegedik,"prihegszik, prihegedni",nek,NA,"János imád prihegedni, ezért sokat prihegszik.",Ők ritkán...,prihegszenek,prihegednek,cselekszik,-szik,2,nincsen,1979,nő,igen,2022-04-18_21h22.15.241,hesp_baseline,2021.2.3,Win32,60.0240096
,,,,,,,,,,,,,,,,,spülűdzök,spülűdzöm,right,9.211,0,76,76,56,1,57,spülűdzik,spülűdzöl,NA,NA,Te bizony sokat spülűdzöl.,Én is sokat...,spülűdzök,spülűdzöm,lakik,-zik,2,nincsen,1979,nő,igen,2022-04-18_21h22.15.241,hesp_baseline,2021.2.3,Win32,60.0240096
,,,,,,,,,,,,,,,,,flűmlöm,flűmlök,right,9.076,0,77,77,54,1,55,flűmlik,flűmlesz,NA,NA,Te bizony sokat flűmlesz.,Én is sokat...,flűmlök,flűmlöm,lakik,-lik,1,nincsen,1979,nő,igen,2022-04-18_21h22.15.241,hesp_baseline,2021.2.3,Win32,60.0240096
,,,,,,,,,,,,,,,,,lorjódzom,lorjódzok,right,7.586,0,78,78,88,1,89,lorjódzik,lorjódzol,NA,NA,Te bizony sokat lorjódzol.,Én is sokat...,lorjódzok,lorjódzom,lakik,-zik,2,nincsen,1979,nő,igen,2022-04-18_21h22.15.241,hesp_baseline,2021.2.3,Win32,60.0240096
,,,,,,,,,,,,,,,,,kluzoztok,kluzlotok,right,9.616,0,79,79,148,1,95,kluzlik / kluzozik,"kluzlik, kluzozni",tek,NA,"János imád kluzozni, ezért sokat kluzlik.",Ti ritkán...,kluzlotok,kluzoztok,cselekszik,-lik,1,nincsen,1979,nő,igen,2022-04-18_21h22.15.241,hesp_baseline,2021.2.3,Win32,60.0240096
,,,,,,,,,,,,,,,,,brágaklom,brágaklok,left,64.265,0,80,80,71,1,72,brágaklik,brágaklasz,NA,NA,Te bizony sokat brágaklasz.,Én is sokat...,brágaklok,brágaklom,lakik,-lik,2,nincsen,1979,nő,igen,2022-04-18_21h22.15.241,hesp_baseline,2021.2.3,Win32,60.0240096
,,,,,,,,,,,,,,,,,zihencnek,zihencnak,left,5.734,0,81,81,52,1,107,zihenc,zihenc,nak,e,Ez itt egy zihenc.,Elneveztem a kutyámat...,zihencnek,zihencnak,dzsungel,NA,NA,nincsen,1979,nő,igen,2022-04-18_21h22.15.241,hesp_baseline,2021.2.3,Win32,60.0240096
,,,,,,,,,,,,,,,,,bivégszem,bivégszek,left,7.98,0,82,82,68,1,69,bivégszik,bivégszel,NA,NA,Te bizony sokat bivégszel.,Én is sokat...,bivégszek,bivégszem,lakik,-szik,2,nincsen,1979,nő,igen,2022-04-18_21h22.15.241,hesp_baseline,2021.2.3,Win32,60.0240096
,,,,,,,,,,,,,,,,,garcépnél,garcépnál,left,5.206,0,83,83,38,1,93,garcép,garcép,nál,é,Ez itt egy garcép.,Nincs is jobb egy jó...,garcépnél,garcépnál,dzsungel,NA,NA,nincsen,1979,nő,igen,2022-04-18_21h22.15.241,hesp_baseline,2021.2.3,Win32,60.0240096
,,,,,,,,,,,,,,,,,sprízemnél,sprízemnál,left,5.935,0,84,84,22,1,77,sprízem,sprízem,nál,e,Ez itt egy sprízem.,Nincs is jobb egy jó...,sprízemnél,sprízemnál,dzsungel,NA,NA,nincsen,1979,nő,igen,2022-04-18_21h22.15.241,hesp_baseline,2021.2.3,Win32,60.0240096
,,,,,,,,,,,,,,,,,figlom,figlok,right,34.894,0,85,85,75,1,76,figlik,figlasz,NA,NA,Te bizony sokat figlasz.,Én is sokat...,figlok,figlom,lakik,-lik,1,nincsen,1979,nő,igen,2022-04-18_21h22.15.241,hesp_baseline,2021.2.3,Win32,60.0240096
,,,,,,,,,,,,,,,,,spatárzok,spatárzom,left,13.296,0,86,86,69,1,70,spatárzik,spatárzol,NA,NA,Te bizony sokat spatárzol.,Én is sokat...,spatárzok,spatárzom,lakik,-zik,2,nincsen,1979,nő,igen,2022-04-18_21h22.15.241,hesp_baseline,2021.2.3,Win32,60.0240096
,,,,,,,,,,,,,,,,,klidlok,klidlom,left,4.859,0,87,87,72,1,73,klidlik,klidlasz,NA,NA,Te bizony sokat klidlasz.,Én is sokat...,klidlok,klidlom,lakik,-lik,1,nincsen,1979,nő,igen,2022-04-18_21h22.15.241,hesp_baseline,2021.2.3,Win32,60.0240096
,,,,,,,,,,,,,,,,,trírzunk,trírozunk,left,10.478,0,88,88,116,1,63,trírzik / trírozik,"trírzik, trírozni",ünk,NA,"János imád trírozni, ezért sokat trírzik.",Mi ritkán...,trírzunk,trírozunk,cselekszik,-zik,1,nincsen,1979,nő,igen,2022-04-18_21h22.15.241,hesp_baseline,2021.2.3,Win32,60.0240096
,,,,,,,,,,,,,,,,,fibamlom,fibamlok,right,5.942,0,89,89,65,1,66,fibamlik,fibamlasz,NA,NA,Te bizony sokat fibamlasz.,Én is sokat...,fibamlok,fibamlom,lakik,-lik,2,nincsen,1979,nő,igen,2022-04-18_21h22.15.241,hesp_baseline,2021.2.3,Win32,60.0240096
,,,,,,,,,,,,,,,,,spubonylok,spubonylom,left,5.689,0,90,90,104,1,105,spubonylik,spubonylasz,NA,NA,Te bizony sokat spubonylasz.,Én is sokat...,spubonylok,spubonylom,lakik,-lik,2,nincsen,1979,nő,igen,2022-04-18_21h22.15.241,hesp_baseline,2021.2.3,Win32,60.0240096
,,,,,,,,,,,,,,,,,juszlom,juszlok,left,11.293,0,91,91,79,1,80,juszlik,juszlasz,NA,NA,Te bizony sokat juszlasz.,Én is sokat...,juszlok,juszlom,lakik,-lik,1,nincsen,1979,nő,igen,2022-04-18_21h22.15.241,hesp_baseline,2021.2.3,Win32,60.0240096
,,,,,,,,,,,,,,,,,tranékben,tranékban,right,5.604,0,92,92,2,1,57,tranék,tranék,ban,é,Ez itt egy tranék.,Ott vagyunk a...,tranékben,tranékban,dzsungel,NA,NA,nincsen,1979,nő,igen,2022-04-18_21h22.15.241,hesp_baseline,2021.2.3,Win32,60.0240096
,,,,,,,,,,,,,,,,,metégszenek,metégednek,left,8.001,0,93,93,112,1,59,metégszik / metégedik,"metégszik, metégedni",nek,NA,"János imád metégedni, ezért sokat metégszik.",Ők ritkán...,metégszenek,metégednek,cselekszik,-szik,2,nincsen,1979,nő,igen,2022-04-18_21h22.15.241,hesp_baseline,2021.2.3,Win32,60.0240096
,,,,,,,,,,,,,,,,,flemezünk,flemlünk,right,10.781,0,94,94,137,1,84,flemlik / flemezik,"flemlik, flemezni",ünk,NA,"János imád flemezni, ezért sokat flemlik.",Mi ritkán...,flemlünk,flemezünk,cselekszik,-lik,1,nincsen,1979,nő,igen,2022-04-18_21h22.15.241,hesp_baseline,2021.2.3,Win32,60.0240096
,,,,,,,,,,,,,,,,,dibáglotok,dibágoztok,left,6.507,0,95,95,154,1,101,dibáglik / dibágozik,"dibáglik, dibágozni",tek,NA,"János imád dibágozni, ezért sokat dibáglik.",Ti ritkán...,dibáglotok,dibágoztok,cselekszik,-lik,2,nincsen,1979,nő,igen,2022-04-18_21h22.15.241,hesp_baseline,2021.2.3,Win32,60.0240096
,,,,,,,,,,,,,,,,,sojzok,sojzom,left,6.546,0,96,96,74,1,75,sojzik,sojzol,NA,NA,Te bizony sokat sojzol.,Én is sokat...,sojzok,sojzom,lakik,-zik,1,nincsen,1979,nő,igen,2022-04-18_21h22.15.241,hesp_baseline,2021.2.3,Win32,60.0240096
,,,,,,,,,,,,,,,,,nűröklök,nűröklöm,right,6.167,0,97,97,106,1,107,nűröklik,nűröklesz,NA,NA,Te bizony sokat nűröklesz.,Én is sokat...,nűröklök,nűröklöm,lakik,-lik,2,nincsen,1979,nő,igen,2022-04-18_21h22.15.241,hesp_baseline,2021.2.3,Win32,60.0240096
,,,,,,,,,,,,,,,,,fojlegynek,fojlegynak,left,6.148,0,98,98,3,1,58,fojlegy,fojlegy,nak,e,Ez itt egy fojlegy.,Elneveztem a kutyámat...,fojlegynek,fojlegynak,dzsungel,NA,NA,nincsen,1979,nő,igen,2022-04-18_21h22.15.241,hesp_baseline,2021.2.3,Win32,60.0240096
,,,,,,,,,,,,,,,,,kalrézban,kalrézben,left,5.111,0,99,99,16,1,71,kalréz,kalréz,ban,é,Ez itt egy kalréz.,Ott vagyunk a...,kalrézben,kalrézban,dzsungel,NA,NA,nincsen,1979,nő,igen,2022-04-18_21h22.15.241,hesp_baseline,2021.2.3,Win32,60.0240096
,,,,,,,,,,,,,,,,,sporzemnak,sporzemnek,right,7.338,0,100,100,26,1,81,sporzem,sporzem,nak,e,Ez itt egy sporzem.,Elneveztem a kutyámat...,sporzemnek,sporzemnak,dzsungel,NA,NA,nincsen,1979,nő,igen,2022-04-18_21h22.15.241,hesp_baseline,2021.2.3,Win32,60.0240096
,,,,,,,,,,,,,,,,,nyádlanak,nyádoznak,left,70.628,0,101,101,120,1,67,nyádlik / nyádozik,"nyádlik, nyádozni",nek,NA,"János imád nyádozni, ezért sokat nyádlik.",Ők ritkán...,nyádlanak,nyádoznak,cselekszik,-lik,1,nincsen,1979,nő,igen,2022-04-18_21h22.15.241,hesp_baseline,2021.2.3,Win32,60.0240096
,,,,,,,,,,,,,,,,,prilepszünk,prilepedünk,left,6.764,0,102,102,161,1,108,prilepszik / prilepedik,"prilepszik, prilepedni",ünk,NA,"János imád prilepedni, ezért sokat prilepszik.",Mi ritkán...,prilepszünk,prilepedünk,cselekszik,-szik,2,nincsen,1979,nő,igen,2022-04-18_21h22.15.241,hesp_baseline,2021.2.3,Win32,60.0240096
,,,,,,,,,,,,,,,,,lingéknál,lingéknél,right,5.547,0,103,103,32,1,87,lingék,lingék,nál,é,Ez itt egy lingék.,Nincs is jobb egy jó...,lingéknél,lingéknál,dzsungel,NA,NA,nincsen,1979,nő,igen,2022-04-18_21h22.15.241,hesp_baseline,2021.2.3,Win32,60.0240096
,,,,,,,,,,,,,,,,,floglok,floglom,left,5.705,0,104,104,92,1,93,floglik,floglasz,NA,NA,Te bizony sokat floglasz.,Én is sokat...,floglok,floglom,lakik,-lik,1,nincsen,1979,nő,igen,2022-04-18_21h22.15.241,hesp_baseline,2021.2.3,Win32,60.0240096
,,,,,,,,,,,,,,,,,spiharoztok,spiharzotok,left,133.537,0,105,105,127,1,74,spiharzik / spiharozik,"spiharzik, spiharozni",tek,NA,"János imád spiharozni, ezért sokat spiharzik.",Ti ritkán...,spiharzotok,spiharoztok,cselekszik,-zik,2,nincsen,1979,nő,igen,2022-04-18_21h22.15.241,hesp_baseline,2021.2.3,Win32,60.0240096
,,,,,,,,,,,,,,,,,szanéjnak,szanéjnek,left,6.21,0,106,106,13,1,68,szanéj,szanéj,nak,é,Ez itt egy szanéj.,Elneveztem a kutyámat...,szanéjnek,szanéjnak,dzsungel,NA,NA,nincsen,1979,nő,igen,2022-04-18_21h22.15.241,hesp_baseline,2021.2.3,Win32,60.0240096
,,,,,,,,,,,,,,,,,játozunk,játlunk,right,33.349,0,107,107,145,1,92,játlik / játozik,"játlik, játozni",ünk,NA,"János imád játozni, ezért sokat játlik.",Mi ritkán...,játlunk,játozunk,cselekszik,-lik,1,nincsen,1979,nő,igen,2022-04-18_21h22.15.241,hesp_baseline,2021.2.3,Win32,60.0240096
,,,,,,,,,,,,,,,,,trugoznak,trugzanak,right,8.715,0,108,108,146,1,93,trugzik / trugozik,"trugzik, trugozni",nek,NA,"János imád trugozni, ezért sokat trugzik.",Ők ritkán...,trugzanak,trugoznak,cselekszik,-zik,1,nincsen,1979,nő,igen,2022-04-18_21h22.15.241,hesp_baseline,2021.2.3,Win32,60.0240096
,,,,,,,,,,,,,,,,,ribzom,ribzok,right,5.543,0,109,109,58,1,59,ribzik,ribzol,NA,NA,Te bizony sokat ribzol.,Én is sokat...,ribzok,ribzom,lakik,-zik,1,nincsen,1979,nő,igen,2022-04-18_21h22.15.241,hesp_baseline,2021.2.3,Win32,60.0240096
,,,,,,,,,,,,,,,,,nurokozunk,nuroklunk,right,11.64,0,110,110,131,1,78,nuroklik / nurokozik,"nuroklik, nurokozni",ünk,NA,"János imád nurokozni, ezért sokat nuroklik.",Mi ritkán...,nuroklunk,nurokozunk,cselekszik,-lik,2,nincsen,1979,nő,igen,2022-04-18_21h22.15.241,hesp_baseline,2021.2.3,Win32,60.0240096
,,,,,,,,,,,,,,,,,tumélynál,tumélynél,right,27.094,0,111,111,28,1,83,tumély,tumély,nál,é,Ez itt egy tumély.,Nincs is jobb egy jó...,tumélynél,tumélynál,dzsungel,NA,NA,nincsen,1979,nő,igen,2022-04-18_21h22.15.241,hesp_baseline,2021.2.3,Win32,60.0240096
,,,,,,,,,,,,,,,,,csimennál,csimennél,right,10.414,0,112,112,44,1,99,csimen,csimen,nál,e,Ez itt egy csimen.,Nincs is jobb egy jó...,csimennél,csimennál,dzsungel,NA,NA,nincsen,1979,nő,igen,2022-04-18_21h22.15.241,hesp_baseline,2021.2.3,Win32,60.0240096
,,,,,,,,,,,,,,,,,fivénylem,fivénylek,right,5.708,0,113,113,78,1,79,fivénylik,fivénylesz,NA,NA,Te bizony sokat fivénylesz.,Én is sokat...,fivénylek,fivénylem,lakik,-lik,2,nincsen,1979,nő,igen,2022-04-18_21h22.15.241,hesp_baseline,2021.2.3,Win32,60.0240096
,,,,,,,,,,,,,,,,,prihekszek,prihekszem,right,6.115,0,114,114,100,1,101,prihekszik,prihekszel,NA,NA,Te bizony sokat prihekszel.,Én is sokat...,prihekszek,prihekszem,lakik,-szik,2,nincsen,1979,nő,igen,2022-04-18_21h22.15.241,hesp_baseline,2021.2.3,Win32,60.0240096
,,,,,,,,,,,,,,,,,navecben,navecban,right,19.618,0,115,115,8,1,63,navec,navec,ban,e,Ez itt egy navec.,Ott vagyunk a...,navecben,navecban,dzsungel,NA,NA,nincsen,1979,nő,igen,2022-04-18_21h22.15.241,hesp_baseline,2021.2.3,Win32,60.0240096
,,,,,,,,,,,,,,,,,flerékedünk,flerékszünk,right,7.954,0,116,116,159,1,106,flerékszik / flerékedik,"flerékszik, flerékedni",ünk,NA,"János imád flerékedni, ezért sokat flerékszik.",Mi ritkán...,flerékszünk,flerékedünk,cselekszik,-szik,2,nincsen,1979,nő,igen,2022-04-18_21h22.15.241,hesp_baseline,2021.2.3,Win32,60.0240096
,,,,,,,,,,,,,,,,,tribejeztek,tribejletek,right,14.75,0,117,117,132,1,79,tribejlik / tribejezik,"tribejlik, tribejezni",tek,NA,"János imád tribejezni, ezért sokat tribejlik.",Ti ritkán...,tribejletek,tribejeztek,cselekszik,-lik,2,nincsen,1979,nő,igen,2022-04-18_21h22.15.241,hesp_baseline,2021.2.3,Win32,60.0240096
,,,,,,,,,,,,,,,,,spáraklok,spáraklom,left,15.107,0,118,118,96,1,97,spáraklik,spáraklasz,NA,NA,Te bizony sokat spáraklasz.,Én is sokat...,spáraklok,spáraklom,lakik,-lik,2,nincsen,1979,nő,igen,2022-04-18_21h22.15.241,hesp_baseline,2021.2.3,Win32,60.0240096
,,,,,,,,,,,,,,,,,pítendban,pítendben,right,11.094,0,119,119,18,1,73,pítend,pítend,ban,e,Ez itt egy pítend.,Ott vagyunk a...,pítendben,pítendban,dzsungel,NA,NA,nincsen,1979,nő,igen,2022-04-18_21h22.15.241,hesp_baseline,2021.2.3,Win32,60.0240096
,,,,,,,,,,,,,,,,,gihesztnek,gihesztnak,left,5.207,0,120,120,36,1,91,giheszt,giheszt,nak,e,Ez itt egy giheszt.,Elneveztem a kutyámat...,gihesztnek,gihesztnak,dzsungel,NA,NA,nincsen,1979,nő,igen,2022-04-18_21h22.15.241,hesp_baseline,2021.2.3,Win32,60.0240096
,,,,,,,,,,,,,,,,,klűmlötök,klűmöztök,left,9.767,0,121,121,108,1,55,klűmlik / klűmözik,"klűmlik, klűmözni",tek,NA,"János imád klűmözni, ezért sokat klűmlik.",Ti ritkán...,klűmlötök,klűmöztök,cselekszik,-lik,1,nincsen,1979,nő,igen,2022-04-18_21h22.15.241,hesp_baseline,2021.2.3,Win32,60.0240096
,,,,,,,,,,,,,,,,,jóbecnek,jóbecnak,left,6.296,0,122,122,11,1,66,jóbec,jóbec,nak,e,Ez itt egy jóbec.,Elneveztem a kutyámat...,jóbecnek,jóbecnak,dzsungel,NA,NA,nincsen,1979,nő,igen,2022-04-18_21h22.15.241,hesp_baseline,2021.2.3,Win32,60.0240096
,,,,,,,,,,,,,,,,,klingeszben,klingeszban,left,5.509,0,123,123,1,1,56,klingesz,klingesz,ban,e,Ez itt egy klingesz.,Ott vagyunk a...,klingeszben,klingeszban,dzsungel,NA,NA,nincsen,1979,nő,igen,2022-04-18_21h22.15.241,hesp_baseline,2021.2.3,Win32,60.0240096
,,,,,,,,,,,,,,,,,klehényeztek,klehényletek,right,8.587,0,124,124,113,1,60,klehénylik / klehényezik,"klehénylik, klehényezni",tek,NA,"János imád klehényezni, ezért sokat klehénylik.",Ti ritkán...,klehényletek,klehényeztek,cselekszik,-lik,2,nincsen,1979,nő,igen,2022-04-18_21h22.15.241,hesp_baseline,2021.2.3,Win32,60.0240096
,,,,,,,,,,,,,,,,,flűgzünk,flűgözünk,left,10.546,0,125,125,160,1,107,flűgzik / flűgözik,"flűgzik, flűgözni",ünk,NA,"János imád flűgözni, ezért sokat flűgzik.",Mi ritkán...,flűgzünk,flűgözünk,cselekszik,-zik,1,nincsen,1979,nő,igen,2022-04-18_21h22.15.241,hesp_baseline,2021.2.3,Win32,60.0240096
,,,,,,,,,,,,,,,,,nidétben,nidétban,left,59.59,0,126,126,39,1,94,nidét,nidét,ban,é,Ez itt egy nidét.,Ott vagyunk a...,nidétben,nidétban,dzsungel,NA,NA,nincsen,1979,nő,igen,2022-04-18_21h22.15.241,hesp_baseline,2021.2.3,Win32,60.0240096
,,,,,,,,,,,,,,,,,flüröklötök,flürököztök,left,9.176,0,127,127,149,1,96,flüröklik / flüröközik,"flüröklik, flüröközni",tek,NA,"János imád flüröközni, ezért sokat flüröklik.",Ti ritkán...,flüröklötök,flürököztök,cselekszik,-lik,2,nincsen,1979,nő,igen,2022-04-18_21h22.15.241,hesp_baseline,2021.2.3,Win32,60.0240096
,,,,,,,,,,,,,,,,,sortemnál,sortemnél,right,5.399,0,128,128,15,1,70,sortem,sortem,nál,e,Ez itt egy sortem.,Nincs is jobb egy jó...,sortemnél,sortemnál,dzsungel,NA,NA,nincsen,1979,nő,igen,2022-04-18_21h22.15.241,hesp_baseline,2021.2.3,Win32,60.0240096
,,,,,,,,,,,,,,,,,praslok,praslom,left,6.762,0,129,129,80,1,81,praslik,praslasz,NA,NA,Te bizony sokat praslasz.,Én is sokat...,praslok,praslom,lakik,-lik,1,nincsen,1979,nő,igen,2022-04-18_21h22.15.241,hesp_baseline,2021.2.3,Win32,60.0240096
,,,,,,,,,,,,,,,,,gyihegeztek,gyihegzetek,right,9.121,0,130,130,124,1,71,gyihegzik / gyihegezik,"gyihegzik, gyihegezni",tek,NA,"János imád gyihegezni, ezért sokat gyihegzik.",Ti ritkán...,gyihegzetek,gyihegeztek,cselekszik,-zik,2,nincsen,1979,nő,igen,2022-04-18_21h22.15.241,hesp_baseline,2021.2.3,Win32,60.0240096
,,,,,,,,,,,,,,,,,sprigoztok,sprigzotok,right,7.699,0,131,131,129,1,76,sprigzik / sprigozik,"sprigzik, sprigozni",tek,NA,"János imád sprigozni, ezért sokat sprigzik.",Ti ritkán...,sprigzotok,sprigoztok,cselekszik,-zik,1,nincsen,1979,nő,igen,2022-04-18_21h22.15.241,hesp_baseline,2021.2.3,Win32,60.0240096
,,,,,,,,,,,,,,,,,júdernek,júdernak,left,8.291,0,132,132,53,1,108,júder,júder,nak,e,Ez itt egy júder.,Elneveztem a kutyámat...,júdernek,júdernak,dzsungel,NA,NA,nincsen,1979,nő,igen,2022-04-18_21h22.15.241,hesp_baseline,2021.2.3,Win32,60.0240096
,,,,,,,,,,,,,,,,,kumlom,kumlok,right,4.731,0,133,133,105,1,106,kumlik,kumlasz,NA,NA,Te bizony sokat kumlasz.,Én is sokat...,kumlok,kumlom,lakik,-lik,1,nincsen,1979,nő,igen,2022-04-18_21h22.15.241,hesp_baseline,2021.2.3,Win32,60.0240096
,,,,,,,,,,,,,,,,,dóbemnek,dóbemnak,left,5.867,0,134,134,48,1,103,dóbem,dóbem,nak,e,Ez itt egy dóbem.,Elneveztem a kutyámat...,dóbemnek,dóbemnak,dzsungel,NA,NA,nincsen,1979,nő,igen,2022-04-18_21h22.15.241,hesp_baseline,2021.2.3,Win32,60.0240096
,,,,,,,,,,,,,,,,,sprogzok,sprogzom,left,11.507,0,135,135,89,1,90,sprogzik,sprogzol,NA,NA,Te bizony sokat sprogzol.,Én is sokat...,sprogzok,sprogzom,lakik,-zik,1,nincsen,1979,nő,igen,2022-04-18_21h22.15.241,hesp_baseline,2021.2.3,Win32,60.0240096
,,,,,,,,,,,,,,,,,hubonyoztok,hubonylotok,right,11.19,0,136,136,157,1,104,hubonylik / hubonyozik,"hubonylik, hubonyozni",tek,NA,"János imád hubonyozni, ezért sokat hubonylik.",Ti ritkán...,hubonylotok,hubonyoztok,cselekszik,-lik,2,nincsen,1979,nő,igen,2022-04-18_21h22.15.241,hesp_baseline,2021.2.3,Win32,60.0240096
,,,,,,,,,,,,,,,,,livényezünk,livénylünk,right,10.59,0,137,137,128,1,75,livénylik / livényezik,"livénylik, livényezni",ünk,NA,"János imád livényezni, ezért sokat livénylik.",Mi ritkán...,livénylünk,livényezünk,cselekszik,-lik,2,nincsen,1979,nő,igen,2022-04-18_21h22.15.241,hesp_baseline,2021.2.3,Win32,60.0240096
,,,,,,,,,,,,,,,,,klajrénnak,klajrénnek,left,10.843,0,138,138,41,1,96,klajrén,klajrén,nak,é,Ez itt egy klajrén.,Elneveztem a kutyámat...,klajrénnek,klajrénnak,dzsungel,NA,NA,nincsen,1979,nő,igen,2022-04-18_21h22.15.241,hesp_baseline,2021.2.3,Win32,60.0240096
,,,,,,,,,,,,,,,,,bingéjnak,bingéjnek,right,5.318,0,139,139,49,1,104,bingéj,bingéj,nak,é,Ez itt egy bingéj.,Elneveztem a kutyámat...,bingéjnek,bingéjnak,dzsungel,NA,NA,nincsen,1979,nő,igen,2022-04-18_21h22.15.241,hesp_baseline,2021.2.3,Win32,60.0240096
,,,,,,,,,,,,,,,,,spivélnek,spivélnak,left,4.447,0,140,140,27,1,82,spivél,spivél,nak,é,Ez itt egy spivél.,Elneveztem a kutyámat...,spivélnek,spivélnak,dzsungel,NA,NA,nincsen,1979,nő,igen,2022-04-18_21h22.15.241,hesp_baseline,2021.2.3,Win32,60.0240096
,,,,,,,,,,,,,,,,,gihamoznak,gihamlanak,right,6.1,0,141,141,133,1,80,gihamlik / gihamozik,"gihamlik, gihamozni",nek,NA,"János imád gihamozni, ezért sokat gihamlik.",Ők ritkán...,gihamlanak,gihamoznak,cselekszik,-lik,2,nincsen,1979,nő,igen,2022-04-18_21h22.15.241,hesp_baseline,2021.2.3,Win32,60.0240096
,,,,,,,,,,,,,,,,,nyábétben,nyábétban,left,12.05,0,142,142,21,1,76,nyábét,nyábét,ban,é,Ez itt egy nyábét.,Ott vagyunk a...,nyábétben,nyábétban,dzsungel,NA,NA,nincsen,1979,nő,igen,2022-04-18_21h22.15.241,hesp_baseline,2021.2.3,Win32,60.0240096
,,,,,,,,,,,,,,,,,spibegezünk,spibeglünk,right,5.797,0,143,143,147,1,94,spibeglik / spibegezik,"spibeglik, spibegezni",ünk,NA,"János imád spibegezni, ezért sokat spibeglik.",Mi ritkán...,spibeglünk,spibegezünk,cselekszik,-lik,2,nincsen,1979,nő,igen,2022-04-18_21h22.15.241,hesp_baseline,2021.2.3,Win32,60.0240096
,,,,,,,,,,,,,,,,,fröjzötök,fröjöztök,left,14.945,0,144,144,153,1,100,fröjzik / fröjözik,"fröjzik, fröjözni",tek,NA,"János imád fröjözni, ezért sokat fröjzik.",Ti ritkán...,fröjzötök,fröjöztök,cselekszik,-zik,1,nincsen,1979,nő,igen,2022-04-18_21h22.15.241,hesp_baseline,2021.2.3,Win32,60.0240096
,,,,,,,,,,,,,,,,,tiregzek,tiregzem,left,14.925,0,145,145,64,1,65,tiregzik,tiregzel,NA,NA,Te bizony sokat tiregzel.,Én is sokat...,tiregzek,tiregzem,lakik,-zik,2,nincsen,1979,nő,igen,2022-04-18_21h22.15.241,hesp_baseline,2021.2.3,Win32,60.0240096
,,,,,,,,,,,,,,,,,flűröklöm,flűröklök,right,9.894,0,146,146,91,1,92,flűröklik,flűröklesz,NA,NA,Te bizony sokat flűröklesz.,Én is sokat...,flűröklök,flűröklöm,lakik,-lik,2,nincsen,1979,nő,igen,2022-04-18_21h22.15.241,hesp_baseline,2021.2.3,Win32,60.0240096
,,,,,,,,,,,,,,,,,fájézben,fájézban,left,10.392,0,147,147,7,1,62,fájéz,fájéz,ban,é,Ez itt egy fájéz.,Ott vagyunk a...,fájézben,fájézban,dzsungel,NA,NA,nincsen,1979,nő,igen,2022-04-18_21h22.15.241,hesp_baseline,2021.2.3,Win32,60.0240096
,,,,,,,,,,,,,,,,,prazozunk,prazlunk,right,7.084,0,148,148,119,1,66,prazlik / prazozik,"prazlik, prazozni",ünk,NA,"János imád prazozni, ezért sokat prazlik.",Mi ritkán...,prazlunk,prazozunk,cselekszik,-lik,1,nincsen,1979,nő,igen,2022-04-18_21h22.15.241,hesp_baseline,2021.2.3,Win32,60.0240096
,,,,,,,,,,,,,,,,,spöközünk,spöklünk,right,10.156,0,149,149,130,1,77,spöklik / spöközik,"spöklik, spöközni",ünk,NA,"János imád spöközni, ezért sokat spöklik.",Mi ritkán...,spöklünk,spöközünk,cselekszik,-lik,1,nincsen,1979,nő,igen,2022-04-18_21h22.15.241,hesp_baseline,2021.2.3,Win32,60.0240096
,,,,,,,,,,,,,,,,,plugzok,plugzom,left,10.872,0,150,150,60,1,61,plugzik,plugzol,NA,NA,Te bizony sokat plugzol.,Én is sokat...,plugzok,plugzom,lakik,-zik,1,nincsen,1979,nő,igen,2022-04-18_21h22.15.241,hesp_baseline,2021.2.3,Win32,60.0240096
,,,,,,,,,,,,,,,,,fupétnál,fupétnél,left,9.906,0,151,151,14,1,69,fupét,fupét,nál,é,Ez itt egy fupét.,Nincs is jobb egy jó...,fupétnél,fupétnál,dzsungel,NA,NA,nincsen,1979,nő,igen,2022-04-18_21h22.15.241,hesp_baseline,2021.2.3,Win32,60.0240096
,,,,,,,,,,,,,,,,,forzédnak,forzédnek,right,9.411,0,152,152,46,1,101,forzéd,forzéd,nak,é,Ez itt egy forzéd.,Elneveztem a kutyámat...,forzédnek,forzédnak,dzsungel,NA,NA,nincsen,1979,nő,igen,2022-04-18_21h22.15.241,hesp_baseline,2021.2.3,Win32,60.0240096
,,,,,,,,,,,,,,,,,pivegszek,pivegszem,left,6,0,153,153,99,1,100,pivegszik,pivegszel,NA,NA,Te bizony sokat pivegszel.,Én is sokat...,pivegszek,pivegszem,lakik,-szik,2,nincsen,1979,nő,igen,2022-04-18_21h22.15.241,hesp_baseline,2021.2.3,Win32,60.0240096
,,,,,,,,,,,,,,,,,töglenek,tögöznek,left,13.288,0,154,154,156,1,103,töglik / tögözik,"töglik, tögözni",nek,NA,"János imád tögözni, ezért sokat töglik.",Ők ritkán...,töglenek,tögöznek,cselekszik,-lik,1,nincsen,1979,nő,igen,2022-04-18_21h22.15.241,hesp_baseline,2021.2.3,Win32,60.0240096
,,,,,,,,,,,,,,,,,flehékszek,flehékszem,right,15.609,0,155,155,77,1,78,flehékszik,flehékszel,NA,NA,Te bizony sokat flehékszel.,Én is sokat...,flehékszek,flehékszem,lakik,-szik,2,nincsen,1979,nő,igen,2022-04-18_21h22.15.241,hesp_baseline,2021.2.3,Win32,60.0240096
,,,,,,,,,,,,,,,,,spátennak,spátennek,right,6.499,0,156,156,33,1,88,spáten,spáten,nak,e,Ez itt egy spáten.,Elneveztem a kutyámat...,spátennek,spátennak,dzsungel,NA,NA,nincsen,1979,nő,igen,2022-04-18_21h22.15.241,hesp_baseline,2021.2.3,Win32,60.0240096
,,,,,,,,,,,,,,,,,pratánylok,pratánylom,left,6.241,0,157,157,95,1,96,pratánylik,pratánylasz,NA,NA,Te bizony sokat pratánylasz.,Én is sokat...,pratánylok,pratánylom,lakik,-lik,2,nincsen,1979,nő,igen,2022-04-18_21h22.15.241,hesp_baseline,2021.2.3,Win32,60.0240096
,,,,,,,,,,,,,,,,,dárakszunk,dárakodunk,left,6.83,0,158,158,126,1,73,dárakszik / dárakodik,"dárakszik, dárakodni",ünk,NA,"János imád dárakodni, ezért sokat dárakszik.",Mi ritkán...,dárakszunk,dárakodunk,cselekszik,-szik,2,nincsen,1979,nő,igen,2022-04-18_21h22.15.241,hesp_baseline,2021.2.3,Win32,60.0240096
,,,,,,,,,,,,,,,,,femlem,femlek,right,4.227,0,159,159,57,1,58,femlik,femlesz,NA,NA,Te bizony sokat femlesz.,Én is sokat...,femlek,femlem,lakik,-lik,1,nincsen,1979,nő,igen,2022-04-18_21h22.15.241,hesp_baseline,2021.2.3,Win32,60.0240096
,,,,,,,,,,,,,,,,,trigencnak,trigencnek,right,4.575,0,160,160,31,1,86,trigenc,trigenc,nak,e,Ez itt egy trigenc.,Elneveztem a kutyámat...,trigencnek,trigencnak,dzsungel,NA,NA,nincsen,1979,nő,igen,2022-04-18_21h22.15.241,hesp_baseline,2021.2.3,Win32,60.0240096
,,,,,,,,,,,,,,,,,daboztok,dabzotok,right,8.284,0,161,161,109,1,56,dabzik / dabozik,"dabzik, dabozni",tek,NA,"János imád dabozni, ezért sokat dabzik.",Ti ritkán...,dabzotok,daboztok,cselekszik,-zik,1,nincsen,1979,nő,igen,2022-04-18_21h22.15.241,hesp_baseline,2021.2.3,Win32,60.0240096
