my_list,key.keys,key.rt,key_2.keys,key_2.rt,keyboard_input_2.keys,keyboard_input_2.rt,key_3.keys,key_3.rt,keyboard_input_3.keys,keyboard_input_3.rt,key_4.keys,key_4.rt,keyboard_input_4.keys,keyboard_input_4.rt,key_5.keys,key_5.rt,my_button1,my_button2,keyboard_input.keys,keyboard_input.rt,withinBlock.thisRepN,withinBlock.thisTrialN,withinBlock.thisN,withinBlock.thisIndex,withinBlock.ran,rowname,word,prompt,suffix,vowel,carrier_sentence,target_sentence,target1,target2,category,derivational,nsyl,Azonosító,Melyik évben születtél?,Mi a nemed?,Tanultál nyelvészetet?,date,expName,psychopyVersion,OS,frameRate
list2.csv,space,16.8208,space,8.6847,right,9.4328,space,6.1222,right,4.2871,space,1.0316,left,8.7232,space,0.7361,huroslom,huroslok,right,5.8414,0,0,0,76,1,77,huroslik,huroslasz,NA,NA,Te bizony sokat huroslasz.,Én is sokat...,huroslok,huroslom,lakik,-lik,2,L0PVAK,2002,nő,nem,2022-04-19_21h37.19.394,hesp_baseline,2021.2.3,MacIntel,60.04202942
,,,,,,,,,,,,,,,,,lorjódzok,lorjódzom,right,4.8122,0,1,1,88,1,89,lorjódzik,lorjódzol,NA,NA,Te bizony sokat lorjódzol.,Én is sokat...,lorjódzok,lorjódzom,lakik,-zik,2,L0PVAK,2002,nő,nem,2022-04-19_21h37.19.394,hesp_baseline,2021.2.3,MacIntel,60.04202942
,,,,,,,,,,,,,,,,,nyábétben,nyábétban,left,13.0297,0,2,2,21,1,76,nyábét,nyábét,ban,é,Ez itt egy nyábét.,Ott vagyunk a...,nyábétben,nyábétban,dzsungel,NA,NA,L0PVAK,2002,nő,nem,2022-04-19_21h37.19.394,hesp_baseline,2021.2.3,MacIntel,60.04202942
,,,,,,,,,,,,,,,,,szirlom,szirlok,right,7.6188,0,3,3,62,1,63,szirlik,szirlasz,NA,NA,Te bizony sokat szirlasz.,Én is sokat...,szirlok,szirlom,lakik,-lik,1,L0PVAK,2002,nő,nem,2022-04-19_21h37.19.394,hesp_baseline,2021.2.3,MacIntel,60.04202942
,,,,,,,,,,,,,,,,,brágaklok,brágaklom,right,19.9811,0,4,4,71,1,72,brágaklik,brágaklasz,NA,NA,Te bizony sokat brágaklasz.,Én is sokat...,brágaklok,brágaklom,lakik,-lik,2,L0PVAK,2002,nő,nem,2022-04-19_21h37.19.394,hesp_baseline,2021.2.3,MacIntel,60.04202942
,,,,,,,,,,,,,,,,,nyádoznak,nyádlanak,right,13.0987,0,5,5,120,1,67,nyádlik / nyádozik,"nyádlik, nyádozni",nek,NA,"János imád nyádozni, ezért sokat nyádlik.",Ők ritkán...,nyádlanak,nyádoznak,cselekszik,-lik,1,L0PVAK,2002,nő,nem,2022-04-19_21h37.19.394,hesp_baseline,2021.2.3,MacIntel,60.04202942
,,,,,,,,,,,,,,,,,csíszlok,csíszlom,left,7.5809,0,6,6,84,1,85,csíszlik,csíszlasz,NA,NA,Te bizony sokat csíszlasz.,Én is sokat...,csíszlok,csíszlom,lakik,-lik,1,L0PVAK,2002,nő,nem,2022-04-19_21h37.19.394,hesp_baseline,2021.2.3,MacIntel,60.04202942
,,,,,,,,,,,,,,,,,drojozunk,drojzunk,right,8.0633,0,7,7,140,1,87,drojzik / drojozik,"drojzik, drojozni",ünk,NA,"János imád drojozni, ezért sokat drojzik.",Mi ritkán...,drojzunk,drojozunk,cselekszik,-zik,1,L0PVAK,2002,nő,nem,2022-04-19_21h37.19.394,hesp_baseline,2021.2.3,MacIntel,60.04202942
,,,,,,,,,,,,,,,,,flehékszem,flehékszek,right,5.2327,0,8,8,77,1,78,flehékszik,flehékszel,NA,NA,Te bizony sokat flehékszel.,Én is sokat...,flehékszek,flehékszem,lakik,-szik,2,L0PVAK,2002,nő,nem,2022-04-19_21h37.19.394,hesp_baseline,2021.2.3,MacIntel,60.04202942
,,,,,,,,,,,,,,,,,friszlom,friszlok,right,4.2765,0,9,9,97,1,98,friszlik,friszlasz,NA,NA,Te bizony sokat friszlasz.,Én is sokat...,friszlok,friszlom,lakik,-lik,1,L0PVAK,2002,nő,nem,2022-04-19_21h37.19.394,hesp_baseline,2021.2.3,MacIntel,60.04202942
,,,,,,,,,,,,,,,,,pratánylom,pratánylok,right,5.0896,0,10,10,95,1,96,pratánylik,pratánylasz,NA,NA,Te bizony sokat pratánylasz.,Én is sokat...,pratánylok,pratánylom,lakik,-lik,2,L0PVAK,2002,nő,nem,2022-04-19_21h37.19.394,hesp_baseline,2021.2.3,MacIntel,60.04202942
,,,,,,,,,,,,,,,,,flodlotok,flodoztok,left,5.9616,0,11,11,144,1,91,flodlik / flodozik,"flodlik, flodozni",tek,NA,"János imád flodozni, ezért sokat flodlik.",Ti ritkán...,flodlotok,flodoztok,cselekszik,-lik,1,L0PVAK,2002,nő,nem,2022-04-19_21h37.19.394,hesp_baseline,2021.2.3,MacIntel,60.04202942
,,,,,,,,,,,,,,,,,tribejletek,tribejeztek,left,6.9678,0,12,12,132,1,79,tribejlik / tribejezik,"tribejlik, tribejezni",tek,NA,"János imád tribejezni, ezért sokat tribejlik.",Ti ritkán...,tribejletek,tribejeztek,cselekszik,-lik,2,L0PVAK,2002,nő,nem,2022-04-19_21h37.19.394,hesp_baseline,2021.2.3,MacIntel,60.04202942
,,,,,,,,,,,,,,,,,jóbecnak,jóbecnek,right,5.0634,0,13,13,11,1,66,jóbec,jóbec,nak,e,Ez itt egy jóbec.,Elneveztem a kutyámat...,jóbecnek,jóbecnak,dzsungel,NA,NA,L0PVAK,2002,nő,nem,2022-04-19_21h37.19.394,hesp_baseline,2021.2.3,MacIntel,60.04202942
,,,,,,,,,,,,,,,,,játozunk,játlunk,right,4.4335,0,14,14,145,1,92,játlik / játozik,"játlik, játozni",ünk,NA,"János imád játozni, ezért sokat játlik.",Mi ritkán...,játlunk,játozunk,cselekszik,-lik,1,L0PVAK,2002,nő,nem,2022-04-19_21h37.19.394,hesp_baseline,2021.2.3,MacIntel,60.04202942
,,,,,,,,,,,,,,,,,ruslok,ruslom,right,3.7337,0,15,15,83,1,84,ruslik,ruslasz,NA,NA,Te bizony sokat ruslasz.,Én is sokat...,ruslok,ruslom,lakik,-lik,1,L0PVAK,2002,nő,nem,2022-04-19_21h37.19.394,hesp_baseline,2021.2.3,MacIntel,60.04202942
,,,,,,,,,,,,,,,,,zutennél,zutennál,left,5.1056,0,16,16,43,1,98,zuten,zuten,nál,e,Ez itt egy zuten.,Nincs is jobb egy jó...,zutennél,zutennál,dzsungel,NA,NA,L0PVAK,2002,nő,nem,2022-04-19_21h37.19.394,hesp_baseline,2021.2.3,MacIntel,60.04202942
,,,,,,,,,,,,,,,,,pribemlek,pribemlem,left,7.5913,0,17,17,107,1,108,pribemlik,pribemlesz,NA,NA,Te bizony sokat pribemlesz.,Én is sokat...,pribemlek,pribemlem,lakik,-lik,2,L0PVAK,2002,nő,nem,2022-04-19_21h37.19.394,hesp_baseline,2021.2.3,MacIntel,60.04202942
,,,,,,,,,,,,,,,,,jonylom,jonylok,right,5.5661,0,18,18,55,1,56,jonylik,jonylasz,NA,NA,Te bizony sokat jonylasz.,Én is sokat...,jonylok,jonylom,lakik,-lik,1,L0PVAK,2002,nő,nem,2022-04-19_21h37.19.394,hesp_baseline,2021.2.3,MacIntel,60.04202942
,,,,,,,,,,,,,,,,,sprigoztok,sprigzotok,left,8.1414,0,19,19,129,1,76,sprigzik / sprigozik,"sprigzik, sprigozni",tek,NA,"János imád sprigozni, ezért sokat sprigzik.",Ti ritkán...,sprigzotok,sprigoztok,cselekszik,-zik,1,L0PVAK,2002,nő,nem,2022-04-19_21h37.19.394,hesp_baseline,2021.2.3,MacIntel,60.04202942
,,,,,,,,,,,,,,,,,fupétnál,fupétnél,right,4.3628,0,20,20,14,1,69,fupét,fupét,nál,é,Ez itt egy fupét.,Nincs is jobb egy jó...,fupétnél,fupétnál,dzsungel,NA,NA,L0PVAK,2002,nő,nem,2022-04-19_21h37.19.394,hesp_baseline,2021.2.3,MacIntel,60.04202942
,,,,,,,,,,,,,,,,,spöklünk,spöközünk,left,6.4801,0,21,21,130,1,77,spöklik / spöközik,"spöklik, spöközni",ünk,NA,"János imád spöközni, ezért sokat spöklik.",Mi ritkán...,spöklünk,spöközünk,cselekszik,-lik,1,L0PVAK,2002,nő,nem,2022-04-19_21h37.19.394,hesp_baseline,2021.2.3,MacIntel,60.04202942
,,,,,,,,,,,,,,,,,rapszeknál,rapszeknél,right,4.5594,0,22,22,35,1,90,rapszek,rapszek,nál,e,Ez itt egy rapszek.,Nincs is jobb egy jó...,rapszeknél,rapszeknál,dzsungel,NA,NA,L0PVAK,2002,nő,nem,2022-04-19_21h37.19.394,hesp_baseline,2021.2.3,MacIntel,60.04202942
,,,,,,,,,,,,,,,,,pratelynek,pratelynak,right,10.8861,0,23,23,47,1,102,prately,prately,nak,e,Ez itt egy prately.,Elneveztem a kutyámat...,pratelynek,pratelynak,dzsungel,NA,NA,L0PVAK,2002,nő,nem,2022-04-19_21h37.19.394,hesp_baseline,2021.2.3,MacIntel,60.04202942
,,,,,,,,,,,,,,,,,poslotok,posoztok,right,6.0057,0,24,24,121,1,68,poslik / posozik,"poslik, posozni",tek,NA,"János imád posozni, ezért sokat poslik.",Ti ritkán...,poslotok,posoztok,cselekszik,-lik,1,L0PVAK,2002,nő,nem,2022-04-19_21h37.19.394,hesp_baseline,2021.2.3,MacIntel,60.04202942
,,,,,,,,,,,,,,,,,flagánylom,flagánylok,right,4.3152,0,25,25,82,1,83,flagánylik,flagánylasz,NA,NA,Te bizony sokat flagánylasz.,Én is sokat...,flagánylok,flagánylom,lakik,-lik,2,L0PVAK,2002,nő,nem,2022-04-19_21h37.19.394,hesp_baseline,2021.2.3,MacIntel,60.04202942
,,,,,,,,,,,,,,,,,ribzok,ribzom,right,7.5337,0,26,26,58,1,59,ribzik,ribzol,NA,NA,Te bizony sokat ribzol.,Én is sokat...,ribzok,ribzom,lakik,-zik,1,L0PVAK,2002,nő,nem,2022-04-19_21h37.19.394,hesp_baseline,2021.2.3,MacIntel,60.04202942
,,,,,,,,,,,,,,,,,driládzok,driládzom,right,4.5428,0,27,27,67,1,68,driládzik,driládzol,NA,NA,Te bizony sokat driládzol.,Én is sokat...,driládzok,driládzom,lakik,-zik,2,L0PVAK,2002,nő,nem,2022-04-19_21h37.19.394,hesp_baseline,2021.2.3,MacIntel,60.04202942
,,,,,,,,,,,,,,,,,kátédnél,kátédnál,right,4.0422,0,28,28,37,1,92,kátéd,kátéd,nál,é,Ez itt egy kátéd.,Nincs is jobb egy jó...,kátédnél,kátédnál,dzsungel,NA,NA,L0PVAK,2002,nő,nem,2022-04-19_21h37.19.394,hesp_baseline,2021.2.3,MacIntel,60.04202942
,,,,,,,,,,,,,,,,,tumélynél,tumélynál,right,6.3907,0,29,29,28,1,83,tumély,tumély,nál,é,Ez itt egy tumély.,Nincs is jobb egy jó...,tumélynél,tumélynál,dzsungel,NA,NA,L0PVAK,2002,nő,nem,2022-04-19_21h37.19.394,hesp_baseline,2021.2.3,MacIntel,60.04202942
,,,,,,,,,,,,,,,,,sporzemnak,sporzemnek,right,6.5165,0,30,30,26,1,81,sporzem,sporzem,nak,e,Ez itt egy sporzem.,Elneveztem a kutyámat...,sporzemnek,sporzemnak,dzsungel,NA,NA,L0PVAK,2002,nő,nem,2022-04-19_21h37.19.394,hesp_baseline,2021.2.3,MacIntel,60.04202942
,,,,,,,,,,,,,,,,,femlek,femlem,left,5.3381,0,31,31,57,1,58,femlik,femlesz,NA,NA,Te bizony sokat femlesz.,Én is sokat...,femlek,femlem,lakik,-lik,1,L0PVAK,2002,nő,nem,2022-04-19_21h37.19.394,hesp_baseline,2021.2.3,MacIntel,60.04202942
,,,,,,,,,,,,,,,,,dárakodunk,dárakszunk,left,7.2654,0,32,32,126,1,73,dárakszik / dárakodik,"dárakszik, dárakodni",ünk,NA,"János imád dárakodni, ezért sokat dárakszik.",Mi ritkán...,dárakszunk,dárakodunk,cselekszik,-szik,2,L0PVAK,2002,nő,nem,2022-04-19_21h37.19.394,hesp_baseline,2021.2.3,MacIntel,60.04202942
,,,,,,,,,,,,,,,,,klítegynál,klítegynél,right,5.205,0,33,33,5,1,60,klítegy,klítegy,nál,e,Ez itt egy klítegy.,Nincs is jobb egy jó...,klítegynél,klítegynál,dzsungel,NA,NA,L0PVAK,2002,nő,nem,2022-04-19_21h37.19.394,hesp_baseline,2021.2.3,MacIntel,60.04202942
,,,,,,,,,,,,,,,,,tosélyban,tosélyben,left,3.9828,0,34,34,25,1,80,tosély,tosély,ban,é,Ez itt egy tosély.,Ott vagyunk a...,tosélyben,tosélyban,dzsungel,NA,NA,L0PVAK,2002,nő,nem,2022-04-19_21h37.19.394,hesp_baseline,2021.2.3,MacIntel,60.04202942
,,,,,,,,,,,,,,,,,csimennál,csimennél,right,3.6019,0,35,35,44,1,99,csimen,csimen,nál,e,Ez itt egy csimen.,Nincs is jobb egy jó...,csimennél,csimennál,dzsungel,NA,NA,L0PVAK,2002,nő,nem,2022-04-19_21h37.19.394,hesp_baseline,2021.2.3,MacIntel,60.04202942
,,,,,,,,,,,,,,,,,nyametban,nyametben,right,5.7764,0,36,36,17,1,72,nyamet,nyamet,ban,e,Ez itt egy nyamet.,Ott vagyunk a...,nyametben,nyametban,dzsungel,NA,NA,L0PVAK,2002,nő,nem,2022-04-19_21h37.19.394,hesp_baseline,2021.2.3,MacIntel,60.04202942
,,,,,,,,,,,,,,,,,gihesztnek,gihesztnak,left,7.7783,0,37,37,36,1,91,giheszt,giheszt,nak,e,Ez itt egy giheszt.,Elneveztem a kutyámat...,gihesztnek,gihesztnak,dzsungel,NA,NA,L0PVAK,2002,nő,nem,2022-04-19_21h37.19.394,hesp_baseline,2021.2.3,MacIntel,60.04202942
,,,,,,,,,,,,,,,,,prihekszem,prihekszek,right,3.6676,0,38,38,100,1,101,prihekszik,prihekszel,NA,NA,Te bizony sokat prihekszel.,Én is sokat...,prihekszek,prihekszem,lakik,-szik,2,L0PVAK,2002,nő,nem,2022-04-19_21h37.19.394,hesp_baseline,2021.2.3,MacIntel,60.04202942
,,,,,,,,,,,,,,,,,dóbemnek,dóbemnak,left,7.6975,0,39,39,48,1,103,dóbem,dóbem,nak,e,Ez itt egy dóbem.,Elneveztem a kutyámat...,dóbemnek,dóbemnak,dzsungel,NA,NA,L0PVAK,2002,nő,nem,2022-04-19_21h37.19.394,hesp_baseline,2021.2.3,MacIntel,60.04202942
,,,,,,,,,,,,,,,,,livényezünk,livénylünk,right,4.8546,0,40,40,128,1,75,livénylik / livényezik,"livénylik, livényezni",ünk,NA,"János imád livényezni, ezért sokat livénylik.",Mi ritkán...,livénylünk,livényezünk,cselekszik,-lik,2,L0PVAK,2002,nő,nem,2022-04-19_21h37.19.394,hesp_baseline,2021.2.3,MacIntel,60.04202942
,,,,,,,,,,,,,,,,,ribegzek,ribegzem,right,4.5337,0,41,41,63,1,64,ribegzik,ribegzel,NA,NA,Te bizony sokat ribegzel.,Én is sokat...,ribegzek,ribegzem,lakik,-zik,2,L0PVAK,2002,nő,nem,2022-04-19_21h37.19.394,hesp_baseline,2021.2.3,MacIntel,60.04202942
,,,,,,,,,,,,,,,,,szűslök,szűslöm,right,4.8013,0,42,42,85,1,86,szűslik,szűslesz,NA,NA,Te bizony sokat szűslesz.,Én is sokat...,szűslök,szűslöm,lakik,-lik,1,L0PVAK,2002,nő,nem,2022-04-19_21h37.19.394,hesp_baseline,2021.2.3,MacIntel,60.04202942
,,,,,,,,,,,,,,,,,csubzunk,csubozunk,left,5.0224,0,43,43,111,1,58,csubzik / csubozik,"csubzik, csubozni",ünk,NA,"János imád csubozni, ezért sokat csubzik.",Mi ritkán...,csubzunk,csubozunk,cselekszik,-zik,1,L0PVAK,2002,nő,nem,2022-04-19_21h37.19.394,hesp_baseline,2021.2.3,MacIntel,60.04202942
,,,,,,,,,,,,,,,,,flibekszem,flibekszek,left,4.0044,0,44,44,93,1,94,flibekszik,flibekszel,NA,NA,Te bizony sokat flibekszel.,Én is sokat...,flibekszek,flibekszem,lakik,-szik,2,L0PVAK,2002,nő,nem,2022-04-19_21h37.19.394,hesp_baseline,2021.2.3,MacIntel,60.04202942
,,,,,,,,,,,,,,,,,prilepedünk,prilepszünk,left,9.7124,0,45,45,161,1,108,prilepszik / prilepedik,"prilepszik, prilepedni",ünk,NA,"János imád prilepedni, ezért sokat prilepszik.",Mi ritkán...,prilepszünk,prilepedünk,cselekszik,-szik,2,L0PVAK,2002,nő,nem,2022-04-19_21h37.19.394,hesp_baseline,2021.2.3,MacIntel,60.04202942
,,,,,,,,,,,,,,,,,spibegezünk,spibeglünk,right,6.2916,0,46,46,147,1,94,spibeglik / spibegezik,"spibeglik, spibegezni",ünk,NA,"János imád spibegezni, ezért sokat spibeglik.",Mi ritkán...,spibeglünk,spibegezünk,cselekszik,-lik,2,L0PVAK,2002,nő,nem,2022-04-19_21h37.19.394,hesp_baseline,2021.2.3,MacIntel,60.04202942
,,,,,,,,,,,,,,,,,bingéjnak,bingéjnek,right,4.2247,0,47,47,49,1,104,bingéj,bingéj,nak,é,Ez itt egy bingéj.,Elneveztem a kutyámat...,bingéjnek,bingéjnak,dzsungel,NA,NA,L0PVAK,2002,nő,nem,2022-04-19_21h37.19.394,hesp_baseline,2021.2.3,MacIntel,60.04202942
,,,,,,,,,,,,,,,,,fivénylek,fivénylem,right,3.8337,0,48,48,78,1,79,fivénylik,fivénylesz,NA,NA,Te bizony sokat fivénylesz.,Én is sokat...,fivénylek,fivénylem,lakik,-lik,2,L0PVAK,2002,nő,nem,2022-04-19_21h37.19.394,hesp_baseline,2021.2.3,MacIntel,60.04202942
,,,,,,,,,,,,,,,,,klazérban,klazérben,left,4.8875,0,49,49,51,1,106,klazér,klazér,ban,é,Ez itt egy klazér.,Ott vagyunk a...,klazérben,klazérban,dzsungel,NA,NA,L0PVAK,2002,nő,nem,2022-04-19_21h37.19.394,hesp_baseline,2021.2.3,MacIntel,60.04202942
,,,,,,,,,,,,,,,,,flátszok,flátszom,right,3.9173,0,50,50,98,1,99,flátszik,flátszol,NA,NA,Te bizony sokat flátszol.,Én is sokat...,flátszok,flátszom,lakik,-szik,1,L0PVAK,2002,nő,nem,2022-04-19_21h37.19.394,hesp_baseline,2021.2.3,MacIntel,60.04202942
,,,,,,,,,,,,,,,,,frodlom,frodlok,right,3.1716,0,51,51,61,1,62,frodlik,frodlasz,NA,NA,Te bizony sokat frodlasz.,Én is sokat...,frodlok,frodlom,lakik,-lik,1,L0PVAK,2002,nő,nem,2022-04-19_21h37.19.394,hesp_baseline,2021.2.3,MacIntel,60.04202942
,,,,,,,,,,,,,,,,,dibágoztok,dibáglotok,right,6.3517,0,52,52,154,1,101,dibáglik / dibágozik,"dibáglik, dibágozni",tek,NA,"János imád dibágozni, ezért sokat dibáglik.",Ti ritkán...,dibáglotok,dibágoztok,cselekszik,-lik,2,L0PVAK,2002,nő,nem,2022-04-19_21h37.19.394,hesp_baseline,2021.2.3,MacIntel,60.04202942
,,,,,,,,,,,,,,,,,fibamlom,fibamlok,right,4.3401,0,53,53,65,1,66,fibamlik,fibamlasz,NA,NA,Te bizony sokat fibamlasz.,Én is sokat...,fibamlok,fibamlom,lakik,-lik,2,L0PVAK,2002,nő,nem,2022-04-19_21h37.19.394,hesp_baseline,2021.2.3,MacIntel,60.04202942
,,,,,,,,,,,,,,,,,hubonylotok,hubonyoztok,left,4.9816,0,54,54,157,1,104,hubonylik / hubonyozik,"hubonylik, hubonyozni",tek,NA,"János imád hubonyozni, ezért sokat hubonylik.",Ti ritkán...,hubonylotok,hubonyoztok,cselekszik,-lik,2,L0PVAK,2002,nő,nem,2022-04-19_21h37.19.394,hesp_baseline,2021.2.3,MacIntel,60.04202942
,,,,,,,,,,,,,,,,,sprebzenek,sprebeznek,left,2.7201,0,55,55,139,1,86,sprebzik / sprebezik,"sprebzik, sprebezni",nek,NA,"János imád sprebezni, ezért sokat sprebzik.",Ők ritkán...,sprebzenek,sprebeznek,cselekszik,-zik,1,L0PVAK,2002,nő,nem,2022-04-19_21h37.19.394,hesp_baseline,2021.2.3,MacIntel,60.04202942
,,,,,,,,,,,,,,,,,prihegednek,prihegszenek,right,0.5046,0,56,56,155,1,102,prihegszik / prihegedik,"prihegszik, prihegedni",nek,NA,"János imád prihegedni, ezért sokat prihegszik.",Ők ritkán...,prihegszenek,prihegednek,cselekszik,-szik,2,L0PVAK,2002,nő,nem,2022-04-19_21h37.19.394,hesp_baseline,2021.2.3,MacIntel,60.04202942
,,,,,,,,,,,,,,,,,klingeszban,klingeszben,right,0.4701,0,57,57,1,1,56,klingesz,klingesz,ban,e,Ez itt egy klingesz.,Ott vagyunk a...,klingeszben,klingeszban,dzsungel,NA,NA,L0PVAK,2002,nő,nem,2022-04-19_21h37.19.394,hesp_baseline,2021.2.3,MacIntel,60.04202942
,,,,,,,,,,,,,,,,,flézletek,flézeztek,left,0.3411,0,58,58,134,1,81,flézlik / flézezik,"flézlik, flézezni",tek,NA,"János imád flézezni, ezért sokat flézlik.",Ti ritkán...,flézletek,flézeztek,cselekszik,-lik,1,L0PVAK,2002,nő,nem,2022-04-19_21h37.19.394,hesp_baseline,2021.2.3,MacIntel,60.04202942
,,,,,,,,,,,,,,,,,sortemnál,sortemnél,right,0.7295,0,59,59,15,1,70,sortem,sortem,nál,e,Ez itt egy sortem.,Nincs is jobb egy jó...,sortemnél,sortemnál,dzsungel,NA,NA,L0PVAK,2002,nő,nem,2022-04-19_21h37.19.394,hesp_baseline,2021.2.3,MacIntel,60.04202942
,,,,,,,,,,,,,,,,,spivélnek,spivélnak,right,0.3507,0,60,60,27,1,82,spivél,spivél,nak,é,Ez itt egy spivél.,Elneveztem a kutyámat...,spivélnek,spivélnak,dzsungel,NA,NA,L0PVAK,2002,nő,nem,2022-04-19_21h37.19.394,hesp_baseline,2021.2.3,MacIntel,60.04202942
,,,,,,,,,,,,,,,,,brivegzem,brivegzek,left,0.2798,0,61,61,70,1,71,brivegzik,brivegzel,NA,NA,Te bizony sokat brivegzel.,Én is sokat...,brivegzek,brivegzem,lakik,-zik,2,L0PVAK,2002,nő,nem,2022-04-19_21h37.19.394,hesp_baseline,2021.2.3,MacIntel,60.04202942
,,,,,,,,,,,,,,,,,nyüröznek,nyürzenek,right,0.4127,0,62,62,123,1,70,nyürzik / nyürözik,"nyürzik, nyürözni",nek,NA,"János imád nyürözni, ezért sokat nyürzik.",Ők ritkán...,nyürzenek,nyüröznek,cselekszik,-zik,1,L0PVAK,2002,nő,nem,2022-04-19_21h37.19.394,hesp_baseline,2021.2.3,MacIntel,60.04202942
,,,,,,,,,,,,,,,,,plugzok,plugzom,right,0.2861,0,63,63,60,1,61,plugzik,plugzol,NA,NA,Te bizony sokat plugzol.,Én is sokat...,plugzok,plugzom,lakik,-zik,1,L0PVAK,2002,nő,nem,2022-04-19_21h37.19.394,hesp_baseline,2021.2.3,MacIntel,60.04202942
,,,,,,,,,,,,,,,,,júdernek,júdernak,left,0.3527,0,64,64,53,1,108,júder,júder,nak,e,Ez itt egy júder.,Elneveztem a kutyámat...,júdernek,júdernak,dzsungel,NA,NA,L0PVAK,2002,nő,nem,2022-04-19_21h37.19.394,hesp_baseline,2021.2.3,MacIntel,60.04202942
,,,,,,,,,,,,,,,,,zarcégnál,zarcégnél,right,0.4119,0,65,65,29,1,84,zarcég,zarcég,nál,é,Ez itt egy zarcég.,Nincs is jobb egy jó...,zarcégnél,zarcégnál,dzsungel,NA,NA,L0PVAK,2002,nő,nem,2022-04-19_21h37.19.394,hesp_baseline,2021.2.3,MacIntel,60.04202942
,,,,,,,,,,,,,,,,,dineltben,dineltban,right,0.2866,0,66,66,0,1,55,dinelt,dinelt,ban,e,Ez itt egy dinelt.,Ott vagyunk a...,dineltben,dineltban,dzsungel,NA,NA,L0PVAK,2002,nő,nem,2022-04-19_21h37.19.394,hesp_baseline,2021.2.3,MacIntel,60.04202942
,,,,,,,,,,,,,,,,,fligzok,fligzom,left,0.8359,0,67,67,103,1,104,fligzik,fligzol,NA,NA,Te bizony sokat fligzol.,Én is sokat...,fligzok,fligzom,lakik,-zik,1,L0PVAK,2002,nő,nem,2022-04-19_21h37.19.394,hesp_baseline,2021.2.3,MacIntel,60.04202942
,,,,,,,,,,,,,,,,,pivegszek,pivegszem,left,0.304,0,68,68,99,1,100,pivegszik,pivegszel,NA,NA,Te bizony sokat pivegszel.,Én is sokat...,pivegszek,pivegszem,lakik,-szik,2,L0PVAK,2002,nő,nem,2022-04-19_21h37.19.394,hesp_baseline,2021.2.3,MacIntel,60.04202942
,,,,,,,,,,,,,,,,,spülűdzök,spülűdzöm,right,0.2548,0,69,69,56,1,57,spülűdzik,spülűdzöl,NA,NA,Te bizony sokat spülűdzöl.,Én is sokat...,spülűdzök,spülűdzöm,lakik,-zik,2,L0PVAK,2002,nő,nem,2022-04-19_21h37.19.394,hesp_baseline,2021.2.3,MacIntel,60.04202942
,,,,,,,,,,,,,,,,,flüröslök,flüröslöm,right,0.2275,0,70,70,87,1,88,flüröslik,flüröslesz,NA,NA,Te bizony sokat flüröslesz.,Én is sokat...,flüröslök,flüröslöm,lakik,-lik,2,L0PVAK,2002,nő,nem,2022-04-19_21h37.19.394,hesp_baseline,2021.2.3,MacIntel,60.04202942
,,,,,,,,,,,,,,,,,floglok,floglom,right,0.2738,0,71,71,92,1,93,floglik,floglasz,NA,NA,Te bizony sokat floglasz.,Én is sokat...,floglok,floglom,lakik,-lik,1,L0PVAK,2002,nő,nem,2022-04-19_21h37.19.394,hesp_baseline,2021.2.3,MacIntel,60.04202942
,,,,,,,,,,,,,,,,,praslok,praslom,left,0.192,0,72,72,80,1,81,praslik,praslasz,NA,NA,Te bizony sokat praslasz.,Én is sokat...,praslok,praslom,lakik,-lik,1,L0PVAK,2002,nő,nem,2022-04-19_21h37.19.394,hesp_baseline,2021.2.3,MacIntel,60.04202942
,,,,,,,,,,,,,,,,,ikszertban,ikszertben,right,0.3534,0,73,73,19,1,74,ikszert,ikszert,ban,e,Ez itt egy ikszert.,Ott vagyunk a...,ikszertben,ikszertban,dzsungel,NA,NA,L0PVAK,2002,nő,nem,2022-04-19_21h37.19.394,hesp_baseline,2021.2.3,MacIntel,60.04202942
,,,,,,,,,,,,,,,,,líroznak,lírlanak,left,0.2875,0,74,74,115,1,62,lírlik / lírozik,"lírlik, lírozni",nek,NA,"János imád lírozni, ezért sokat lírlik.",Ők ritkán...,lírlanak,líroznak,cselekszik,-lik,1,L0PVAK,2002,nő,nem,2022-04-19_21h37.19.394,hesp_baseline,2021.2.3,MacIntel,60.04202942
,,,,,,,,,,,,,,,,,lingéknál,lingéknél,left,0.6947,0,75,75,32,1,87,lingék,lingék,nál,é,Ez itt egy lingék.,Nincs is jobb egy jó...,lingéknél,lingéknál,dzsungel,NA,NA,L0PVAK,2002,nő,nem,2022-04-19_21h37.19.394,hesp_baseline,2021.2.3,MacIntel,60.04202942
,,,,,,,,,,,,,,,,,kluhéjnél,kluhéjnál,right,0.1434,0,76,76,24,1,79,kluhéj,kluhéj,nál,é,Ez itt egy kluhéj.,Nincs is jobb egy jó...,kluhéjnél,kluhéjnál,dzsungel,NA,NA,L0PVAK,2002,nő,nem,2022-04-19_21h37.19.394,hesp_baseline,2021.2.3,MacIntel,60.04202942
,,,,,,,,,,,,,,,,,klehényletek,klehényeztek,right,0.2732,0,77,77,113,1,60,klehénylik / klehényezik,"klehénylik, klehényezni",tek,NA,"János imád klehényezni, ezért sokat klehénylik.",Ti ritkán...,klehényletek,klehényeztek,cselekszik,-lik,2,L0PVAK,2002,nő,nem,2022-04-19_21h37.19.394,hesp_baseline,2021.2.3,MacIntel,60.04202942
,,,,,,,,,,,,,,,,,kalrézban,kalrézben,left,0.3379,0,78,78,16,1,71,kalréz,kalréz,ban,é,Ez itt egy kalréz.,Ott vagyunk a...,kalrézben,kalrézban,dzsungel,NA,NA,L0PVAK,2002,nő,nem,2022-04-19_21h37.19.394,hesp_baseline,2021.2.3,MacIntel,60.04202942
,,,,,,,,,,,,,,,,,lijeznek,lijeznak,left,0.2611,0,79,79,40,1,95,lijez,lijez,nak,e,Ez itt egy lijez.,Elneveztem a kutyámat...,lijeznek,lijeznak,dzsungel,NA,NA,L0PVAK,2002,nő,nem,2022-04-19_21h37.19.394,hesp_baseline,2021.2.3,MacIntel,60.04202942
,,,,,,,,,,,,,,,,,míjzunk,míjozunk,right,0.2573,0,80,80,114,1,61,míjzik / míjozik,"míjzik, míjozni",ünk,NA,"János imád míjozni, ezért sokat míjzik.",Mi ritkán...,míjzunk,míjozunk,cselekszik,-zik,1,L0PVAK,2002,nő,nem,2022-04-19_21h37.19.394,hesp_baseline,2021.2.3,MacIntel,60.04202942
,,,,,,,,,,,,,,,,,navecben,navecban,right,0.3374,0,81,81,8,1,63,navec,navec,ban,e,Ez itt egy navec.,Ott vagyunk a...,navecben,navecban,dzsungel,NA,NA,L0PVAK,2002,nő,nem,2022-04-19_21h37.19.394,hesp_baseline,2021.2.3,MacIntel,60.04202942
,,,,,,,,,,,,,,,,,gyihegeztek,gyihegzetek,left,0.3588,0,82,82,124,1,71,gyihegzik / gyihegezik,"gyihegzik, gyihegezni",tek,NA,"János imád gyihegezni, ezért sokat gyihegzik.",Ti ritkán...,gyihegzetek,gyihegeztek,cselekszik,-zik,2,L0PVAK,2002,nő,nem,2022-04-19_21h37.19.394,hesp_baseline,2021.2.3,MacIntel,60.04202942
,,,,,,,,,,,,,,,,,flürököztök,flüröklötök,left,0.2432,0,83,83,149,1,96,flüröklik / flüröközik,"flüröklik, flüröközni",tek,NA,"János imád flüröközni, ezért sokat flüröklik.",Ti ritkán...,flüröklötök,flürököztök,cselekszik,-lik,2,L0PVAK,2002,nő,nem,2022-04-19_21h37.19.394,hesp_baseline,2021.2.3,MacIntel,60.04202942
,,,,,,,,,,,,,,,,,flitlok,flitlom,left,0.5372,0,84,84,90,1,91,flitlik,flitlasz,NA,NA,Te bizony sokat flitlasz.,Én is sokat...,flitlok,flitlom,lakik,-lik,1,L0PVAK,2002,nő,nem,2022-04-19_21h37.19.394,hesp_baseline,2021.2.3,MacIntel,60.04202942
,,,,,,,,,,,,,,,,,kluzoztok,kluzlotok,left,1.1906,0,85,85,148,1,95,kluzlik / kluzozik,"kluzlik, kluzozni",tek,NA,"János imád kluzozni, ezért sokat kluzlik.",Ti ritkán...,kluzlotok,kluzoztok,cselekszik,-lik,1,L0PVAK,2002,nő,nem,2022-04-19_21h37.19.394,hesp_baseline,2021.2.3,MacIntel,60.04202942
,,,,,,,,,,,,,,,,,spubonylom,spubonylok,left,0.7939,0,86,86,104,1,105,spubonylik,spubonylasz,NA,NA,Te bizony sokat spubonylasz.,Én is sokat...,spubonylok,spubonylom,lakik,-lik,2,L0PVAK,2002,nő,nem,2022-04-19_21h37.19.394,hesp_baseline,2021.2.3,MacIntel,60.04202942
,,,,,,,,,,,,,,,,,csólorzok,csólorzom,right,0.4618,0,87,87,102,1,103,csólorzik,csólorzol,NA,NA,Te bizony sokat csólorzol.,Én is sokat...,csólorzok,csólorzom,lakik,-zik,2,L0PVAK,2002,nő,nem,2022-04-19_21h37.19.394,hesp_baseline,2021.2.3,MacIntel,60.04202942
,,,,,,,,,,,,,,,,,gihamlanak,gihamoznak,right,0.3357,0,88,88,133,1,80,gihamlik / gihamozik,"gihamlik, gihamozni",nek,NA,"János imád gihamozni, ezért sokat gihamlik.",Ők ritkán...,gihamlanak,gihamoznak,cselekszik,-lik,2,L0PVAK,2002,nő,nem,2022-04-19_21h37.19.394,hesp_baseline,2021.2.3,MacIntel,60.04202942
,,,,,,,,,,,,,,,,,lihadzom,lihadzok,right,1.7677,0,89,89,101,1,102,lihadzik,lihadzol,NA,NA,Te bizony sokat lihadzol.,Én is sokat...,lihadzok,lihadzom,lakik,-zik,2,L0PVAK,2002,nő,nem,2022-04-19_21h37.19.394,hesp_baseline,2021.2.3,MacIntel,60.04202942
,,,,,,,,,,,,,,,,,flubokoztok,fluboklotok,right,0.6385,0,90,90,151,1,98,fluboklik / flubokozik,"fluboklik, flubokozni",tek,NA,"János imád flubokozni, ezért sokat fluboklik.",Ti ritkán...,fluboklotok,flubokoztok,cselekszik,-lik,2,L0PVAK,2002,nő,nem,2022-04-19_21h37.19.394,hesp_baseline,2021.2.3,MacIntel,60.04202942
,,,,,,,,,,,,,,,,,tögöznek,töglenek,right,0.6236,0,91,91,156,1,103,töglik / tögözik,"töglik, tögözni",nek,NA,"János imád tögözni, ezért sokat töglik.",Ők ritkán...,töglenek,tögöznek,cselekszik,-lik,1,L0PVAK,2002,nő,nem,2022-04-19_21h37.19.394,hesp_baseline,2021.2.3,MacIntel,60.04202942
,,,,,,,,,,,,,,,,,garcépnél,garcépnál,right,0.5681,0,92,92,38,1,93,garcép,garcép,nál,é,Ez itt egy garcép.,Nincs is jobb egy jó...,garcépnél,garcépnál,dzsungel,NA,NA,L0PVAK,2002,nő,nem,2022-04-19_21h37.19.394,hesp_baseline,2021.2.3,MacIntel,60.04202942
,,,,,,,,,,,,,,,,,fájézben,fájézban,right,0.7879,0,93,93,7,1,62,fájéz,fájéz,ban,é,Ez itt egy fájéz.,Ott vagyunk a...,fájézben,fájézban,dzsungel,NA,NA,L0PVAK,2002,nő,nem,2022-04-19_21h37.19.394,hesp_baseline,2021.2.3,MacIntel,60.04202942
,,,,,,,,,,,,,,,,,dingecnek,dingecnak,left,0.5769,0,94,94,42,1,97,dingec,dingec,nak,e,Ez itt egy dingec.,Elneveztem a kutyámat...,dingecnek,dingecnak,dzsungel,NA,NA,L0PVAK,2002,nő,nem,2022-04-19_21h37.19.394,hesp_baseline,2021.2.3,MacIntel,60.04202942
,,,,,,,,,,,,,,,,,gúdenben,gúdenban,left,0.376,0,95,95,4,1,59,gúden,gúden,ban,e,Ez itt egy gúden.,Ott vagyunk a...,gúdenben,gúdenban,dzsungel,NA,NA,L0PVAK,2002,nő,nem,2022-04-19_21h37.19.394,hesp_baseline,2021.2.3,MacIntel,60.04202942
,,,,,,,,,,,,,,,,,trigencnek,trigencnak,left,0.3541,0,96,96,31,1,86,trigenc,trigenc,nak,e,Ez itt egy trigenc.,Elneveztem a kutyámat...,trigencnek,trigencnak,dzsungel,NA,NA,L0PVAK,2002,nő,nem,2022-04-19_21h37.19.394,hesp_baseline,2021.2.3,MacIntel,60.04202942
,,,,,,,,,,,,,,,,,spátennek,spátennak,left,0.4885,0,97,97,33,1,88,spáten,spáten,nak,e,Ez itt egy spáten.,Elneveztem a kutyámat...,spátennek,spátennak,dzsungel,NA,NA,L0PVAK,2002,nő,nem,2022-04-19_21h37.19.394,hesp_baseline,2021.2.3,MacIntel,60.04202942
,,,,,,,,,,,,,,,,,flerékszünk,flerékedünk,left,1.3213,0,98,98,159,1,106,flerékszik / flerékedik,"flerékszik, flerékedni",ünk,NA,"János imád flerékedni, ezért sokat flerékszik.",Mi ritkán...,flerékszünk,flerékedünk,cselekszik,-szik,2,L0PVAK,2002,nő,nem,2022-04-19_21h37.19.394,hesp_baseline,2021.2.3,MacIntel,60.04202942
,,,,,,,,,,,,,,,,,cságyeltban,cságyeltben,left,0.5759,0,99,99,10,1,65,cságyelt,cságyelt,ban,e,Ez itt egy cságyelt.,Ott vagyunk a...,cságyeltben,cságyeltban,dzsungel,NA,NA,L0PVAK,2002,nő,nem,2022-04-19_21h37.19.394,hesp_baseline,2021.2.3,MacIntel,60.04202942
,,,,,,,,,,,,,,,,,nidétban,nidétben,left,0.5373,0,100,100,39,1,94,nidét,nidét,ban,é,Ez itt egy nidét.,Ott vagyunk a...,nidétben,nidétban,dzsungel,NA,NA,L0PVAK,2002,nő,nem,2022-04-19_21h37.19.394,hesp_baseline,2021.2.3,MacIntel,60.04202942
,,,,,,,,,,,,,,,,,sprogzom,sprogzok,left,0.4886,0,101,101,89,1,90,sprogzik,sprogzol,NA,NA,Te bizony sokat sprogzol.,Én is sokat...,sprogzok,sprogzom,lakik,-zik,1,L0PVAK,2002,nő,nem,2022-04-19_21h37.19.394,hesp_baseline,2021.2.3,MacIntel,60.04202942
,,,,,,,,,,,,,,,,,tomlom,tomlok,right,0.4587,0,102,102,86,1,87,tomlik,tomlasz,NA,NA,Te bizony sokat tomlasz.,Én is sokat...,tomlok,tomlom,lakik,-lik,1,L0PVAK,2002,nő,nem,2022-04-19_21h37.19.394,hesp_baseline,2021.2.3,MacIntel,60.04202942
,,,,,,,,,,,,,,,,,flemlünk,flemezünk,right,0.4053,0,103,103,137,1,84,flemlik / flemezik,"flemlik, flemezni",ünk,NA,"János imád flemezni, ezért sokat flemlik.",Mi ritkán...,flemlünk,flemezünk,cselekszik,-lik,1,L0PVAK,2002,nő,nem,2022-04-19_21h37.19.394,hesp_baseline,2021.2.3,MacIntel,60.04202942
,,,,,,,,,,,,,,,,,zihencnak,zihencnek,right,0.5105,0,104,104,52,1,107,zihenc,zihenc,nak,e,Ez itt egy zihenc.,Elneveztem a kutyámat...,zihencnek,zihencnak,dzsungel,NA,NA,L0PVAK,2002,nő,nem,2022-04-19_21h37.19.394,hesp_baseline,2021.2.3,MacIntel,60.04202942
,,,,,,,,,,,,,,,,,bribékedtek,bribékszetek,left,0.4553,0,105,105,141,1,88,bribékszik / bribékedik,"bribékszik, bribékedni",tek,NA,"János imád bribékedni, ezért sokat bribékszik.",Ti ritkán...,bribékszetek,bribékedtek,cselekszik,-szik,2,L0PVAK,2002,nő,nem,2022-04-19_21h37.19.394,hesp_baseline,2021.2.3,MacIntel,60.04202942
,,,,,,,,,,,,,,,,,molszotok,molodtok,left,0.4915,0,106,106,142,1,89,molszik / molodik,"molszik, molodni",tek,NA,"János imád molodni, ezért sokat molszik.",Ti ritkán...,molszotok,molodtok,cselekszik,-szik,1,L0PVAK,2002,nő,nem,2022-04-19_21h37.19.394,hesp_baseline,2021.2.3,MacIntel,60.04202942
,,,,,,,,,,,,,,,,,nűröklöm,nűröklök,left,0.5574,0,107,107,106,1,107,nűröklik,nűröklesz,NA,NA,Te bizony sokat nűröklesz.,Én is sokat...,nűröklök,nűröklöm,lakik,-lik,2,L0PVAK,2002,nő,nem,2022-04-19_21h37.19.394,hesp_baseline,2021.2.3,MacIntel,60.04202942
,,,,,,,,,,,,,,,,,szanéjnak,szanéjnek,left,0.5097,0,108,108,13,1,68,szanéj,szanéj,nak,é,Ez itt egy szanéj.,Elneveztem a kutyámat...,szanéjnek,szanéjnak,dzsungel,NA,NA,L0PVAK,2002,nő,nem,2022-04-19_21h37.19.394,hesp_baseline,2021.2.3,MacIntel,60.04202942
,,,,,,,,,,,,,,,,,trugzanak,trugoznak,right,0.6463,0,109,109,146,1,93,trugzik / trugozik,"trugzik, trugozni",nek,NA,"János imád trugozni, ezért sokat trugzik.",Ők ritkán...,trugzanak,trugoznak,cselekszik,-zik,1,L0PVAK,2002,nő,nem,2022-04-19_21h37.19.394,hesp_baseline,2021.2.3,MacIntel,60.04202942
,,,,,,,,,,,,,,,,,juszlok,juszlom,right,0.4197,0,110,110,79,1,80,juszlik,juszlasz,NA,NA,Te bizony sokat juszlasz.,Én is sokat...,juszlok,juszlom,lakik,-lik,1,L0PVAK,2002,nő,nem,2022-04-19_21h37.19.394,hesp_baseline,2021.2.3,MacIntel,60.04202942
,,,,,,,,,,,,,,,,,spizecnek,spizecnak,left,0.5182,0,111,111,6,1,61,spizec,spizec,nak,e,Ez itt egy spizec.,Elneveztem a kutyámat...,spizecnek,spizecnak,dzsungel,NA,NA,L0PVAK,2002,nő,nem,2022-04-19_21h37.19.394,hesp_baseline,2021.2.3,MacIntel,60.04202942
,,,,,,,,,,,,,,,,,sponyoznak,sponylanak,left,0.4848,0,112,112,125,1,72,sponylik / sponyozik,"sponylik, sponyozni",nek,NA,"János imád sponyozni, ezért sokat sponylik.",Ők ritkán...,sponylanak,sponyoznak,cselekszik,-lik,1,L0PVAK,2002,nő,nem,2022-04-19_21h37.19.394,hesp_baseline,2021.2.3,MacIntel,60.04202942
,,,,,,,,,,,,,,,,,fröjzötök,fröjöztök,left,0.6505,0,113,113,153,1,100,fröjzik / fröjözik,"fröjzik, fröjözni",tek,NA,"János imád fröjözni, ezért sokat fröjzik.",Ti ritkán...,fröjzötök,fröjöztök,cselekszik,-zik,1,L0PVAK,2002,nő,nem,2022-04-19_21h37.19.394,hesp_baseline,2021.2.3,MacIntel,60.04202942
,,,,,,,,,,,,,,,,,fröjözünk,fröjlünk,right,0.3281,0,114,114,117,1,64,fröjlik / fröjözik,"fröjlik, fröjözni",ünk,NA,"János imád fröjözni, ezért sokat fröjlik.",Mi ritkán...,fröjlünk,fröjözünk,cselekszik,-lik,1,L0PVAK,2002,nő,nem,2022-04-19_21h37.19.394,hesp_baseline,2021.2.3,MacIntel,60.04202942
,,,,,,,,,,,,,,,,,dihelynek,dihelynak,right,0.378,0,115,115,20,1,75,dihely,dihely,nak,e,Ez itt egy dihely.,Elneveztem a kutyámat...,dihelynek,dihelynak,dzsungel,NA,NA,L0PVAK,2002,nő,nem,2022-04-19_21h37.19.394,hesp_baseline,2021.2.3,MacIntel,60.04202942
,,,,,,,,,,,,,,,,,flűgzünk,flűgözünk,left,0.4019,0,116,116,160,1,107,flűgzik / flűgözik,"flűgzik, flűgözni",ünk,NA,"János imád flűgözni, ezért sokat flűgzik.",Mi ritkán...,flűgzünk,flűgözünk,cselekszik,-zik,1,L0PVAK,2002,nő,nem,2022-04-19_21h37.19.394,hesp_baseline,2021.2.3,MacIntel,60.04202942
,,,,,,,,,,,,,,,,,brágédnak,brágédnek,left,0.4222,0,117,117,45,1,100,brágéd,brágéd,nak,é,Ez itt egy brágéd.,Elneveztem a kutyámat...,brágédnek,brágédnak,dzsungel,NA,NA,L0PVAK,2002,nő,nem,2022-04-19_21h37.19.394,hesp_baseline,2021.2.3,MacIntel,60.04202942
,,,,,,,,,,,,,,,,,frálaslanak,frálasoznak,right,0.3207,0,118,118,110,1,57,frálaslik / frálasozik,"frálaslik, frálasozni",nek,NA,"János imád frálasozni, ezért sokat frálaslik.",Ők ritkán...,frálaslanak,frálasoznak,cselekszik,-lik,2,L0PVAK,2002,nő,nem,2022-04-19_21h37.19.394,hesp_baseline,2021.2.3,MacIntel,60.04202942
,,,,,,,,,,,,,,,,,mihágzotok,mihágoztok,right,0.2452,0,119,119,118,1,65,mihágzik / mihágozik,"mihágzik, mihágozni",tek,NA,"János imád mihágozni, ezért sokat mihágzik.",Ti ritkán...,mihágzotok,mihágoztok,cselekszik,-zik,2,L0PVAK,2002,nő,nem,2022-04-19_21h37.19.394,hesp_baseline,2021.2.3,MacIntel,60.04202942
,,,,,,,,,,,,,,,,,prohódzok,prohódzom,left,0.442,0,120,120,66,1,67,prohódzik,prohódzol,NA,NA,Te bizony sokat prohódzol.,Én is sokat...,prohódzok,prohódzom,lakik,-zik,2,L0PVAK,2002,nő,nem,2022-04-19_21h37.19.394,hesp_baseline,2021.2.3,MacIntel,60.04202942
,,,,,,,,,,,,,,,,,pítendben,pítendban,left,0.3602,0,121,121,18,1,73,pítend,pítend,ban,e,Ez itt egy pítend.,Ott vagyunk a...,pítendben,pítendban,dzsungel,NA,NA,L0PVAK,2002,nő,nem,2022-04-19_21h37.19.394,hesp_baseline,2021.2.3,MacIntel,60.04202942
,,,,,,,,,,,,,,,,,ronvetnek,ronvetnak,right,0.1919,0,122,122,9,1,64,ronvet,ronvet,nak,e,Ez itt egy ronvet.,Elneveztem a kutyámat...,ronvetnek,ronvetnak,dzsungel,NA,NA,L0PVAK,2002,nő,nem,2022-04-19_21h37.19.394,hesp_baseline,2021.2.3,MacIntel,60.04202942
,,,,,,,,,,,,,,,,,klajrénnek,klajrénnak,right,0.2213,0,123,123,41,1,96,klajrén,klajrén,nak,é,Ez itt egy klajrén.,Elneveztem a kutyámat...,klajrénnek,klajrénnak,dzsungel,NA,NA,L0PVAK,2002,nő,nem,2022-04-19_21h37.19.394,hesp_baseline,2021.2.3,MacIntel,60.04202942
,,,,,,,,,,,,,,,,,sprűröznek,sprűrlenek,right,0.4926,0,124,124,135,1,82,sprűrlik / sprűrözik,"sprűrlik, sprűrözni",nek,NA,"János imád sprűrözni, ezért sokat sprűrlik.",Ők ritkán...,sprűrlenek,sprűröznek,cselekszik,-lik,1,L0PVAK,2002,nő,nem,2022-04-19_21h37.19.394,hesp_baseline,2021.2.3,MacIntel,60.04202942
,,,,,,,,,,,,,,,,,flűmlöm,flűmlök,right,0.2708,0,125,125,54,1,55,flűmlik,flűmlesz,NA,NA,Te bizony sokat flűmlesz.,Én is sokat...,flűmlök,flűmlöm,lakik,-lik,1,L0PVAK,2002,nő,nem,2022-04-19_21h37.19.394,hesp_baseline,2021.2.3,MacIntel,60.04202942
,,,,,,,,,,,,,,,,,nyöbzenek,nyöböznek,left,0.1106,0,126,126,152,1,99,nyöbzik / nyöbözik,"nyöbzik, nyöbözni",nek,NA,"János imád nyöbözni, ezért sokat nyöbzik.",Ők ritkán...,nyöbzenek,nyöböznek,cselekszik,-zik,1,L0PVAK,2002,nő,nem,2022-04-19_21h37.19.394,hesp_baseline,2021.2.3,MacIntel,60.04202942
,,,,,,,,,,,,,,,,,fojlegynek,fojlegynak,left,0.1515,0,127,127,3,1,58,fojlegy,fojlegy,nak,e,Ez itt egy fojlegy.,Elneveztem a kutyámat...,fojlegynek,fojlegynak,dzsungel,NA,NA,L0PVAK,2002,nő,nem,2022-04-19_21h37.19.394,hesp_baseline,2021.2.3,MacIntel,60.04202942
,,,,,,,,,,,,,,,,,spihegzek,spihegzem,left,0.0234,0,128,128,81,1,82,spihegzik,spihegzel,NA,NA,Te bizony sokat spihegzel.,Én is sokat...,spihegzek,spihegzem,lakik,-zik,2,L0PVAK,2002,nő,nem,2022-04-19_21h37.19.394,hesp_baseline,2021.2.3,MacIntel,60.04202942
,,,,,,,,,,,,,,,,,frivamlunk,frivamozunk,left,0.2908,0,129,129,122,1,69,frivamlik / frivamozik,"frivamlik, frivamozni",ünk,NA,"János imád frivamozni, ezért sokat frivamlik.",Mi ritkán...,frivamlunk,frivamozunk,cselekszik,-lik,2,L0PVAK,2002,nő,nem,2022-04-19_21h37.19.394,hesp_baseline,2021.2.3,MacIntel,60.04202942
,,,,,,,,,,,,,,,,,branyoznak,branylanak,right,0.1714,0,130,130,136,1,83,branylik / branyozik,"branylik, branyozni",nek,NA,"János imád branyozni, ezért sokat branylik.",Ők ritkán...,branylanak,branyoznak,cselekszik,-lik,1,L0PVAK,2002,nő,nem,2022-04-19_21h37.19.394,hesp_baseline,2021.2.3,MacIntel,60.04202942
,,,,,,,,,,,,,,,,,jábézben,jábézban,right,0.2847,0,131,131,34,1,89,jábéz,jábéz,ban,é,Ez itt egy jábéz.,Ott vagyunk a...,jábézben,jábézban,dzsungel,NA,NA,L0PVAK,2002,nő,nem,2022-04-19_21h37.19.394,hesp_baseline,2021.2.3,MacIntel,60.04202942
,,,,,,,,,,,,,,,,,gilárzok,gilárzom,left,0.6736,0,132,132,94,1,95,gilárzik,gilárzol,NA,NA,Te bizony sokat gilárzol.,Én is sokat...,gilárzok,gilárzom,lakik,-zik,2,L0PVAK,2002,nő,nem,2022-04-19_21h37.19.394,hesp_baseline,2021.2.3,MacIntel,60.04202942
,,,,,,,,,,,,,,,,,péleslek,péleslem,right,0.7866,0,133,133,73,1,74,péleslik,péleslesz,NA,NA,Te bizony sokat péleslesz.,Én is sokat...,péleslek,péleslem,lakik,-lik,2,L0PVAK,2002,nő,nem,2022-04-19_21h37.19.394,hesp_baseline,2021.2.3,MacIntel,60.04202942
,,,,,,,,,,,,,,,,,bivégszem,bivégszek,left,0.4399,0,134,134,68,1,69,bivégszik,bivégszel,NA,NA,Te bizony sokat bivégszel.,Én is sokat...,bivégszek,bivégszem,lakik,-szik,2,L0PVAK,2002,nő,nem,2022-04-19_21h37.19.394,hesp_baseline,2021.2.3,MacIntel,60.04202942
,,,,,,,,,,,,,,,,,vorszennál,vorszennél,left,0.1463,0,135,135,30,1,85,vorszen,vorszen,nál,e,Ez itt egy vorszen.,Nincs is jobb egy jó...,vorszennél,vorszennál,dzsungel,NA,NA,L0PVAK,2002,nő,nem,2022-04-19_21h37.19.394,hesp_baseline,2021.2.3,MacIntel,60.04202942
,,,,,,,,,,,,,,,,,dilaklotok,dilakoztok,right,1.6918,0,136,136,158,1,105,dilaklik / dilakozik,"dilaklik, dilakozni",tek,NA,"János imád dilakozni, ezért sokat dilaklik.",Ti ritkán...,dilaklotok,dilakoztok,cselekszik,-lik,2,L0PVAK,2002,nő,nem,2022-04-19_21h37.19.394,hesp_baseline,2021.2.3,MacIntel,60.04202942
,,,,,,,,,,,,,,,,,metégednek,metégszenek,right,0.3769,0,137,137,112,1,59,metégszik / metégedik,"metégszik, metégedni",nek,NA,"János imád metégedni, ezért sokat metégszik.",Ők ritkán...,metégszenek,metégednek,cselekszik,-szik,2,L0PVAK,2002,nő,nem,2022-04-19_21h37.19.394,hesp_baseline,2021.2.3,MacIntel,60.04202942
,,,,,,,,,,,,,,,,,flűröklök,flűröklöm,left,1.5193,0,138,138,91,1,92,flűröklik,flűröklesz,NA,NA,Te bizony sokat flűröklesz.,Én is sokat...,flűröklök,flűröklöm,lakik,-lik,2,L0PVAK,2002,nő,nem,2022-04-19_21h37.19.394,hesp_baseline,2021.2.3,MacIntel,60.04202942
,,,,,,,,,,,,,,,,,tranékben,tranékban,left,0.2788,0,139,139,2,1,57,tranék,tranék,ban,é,Ez itt egy tranék.,Ott vagyunk a...,tranékben,tranékban,dzsungel,NA,NA,L0PVAK,2002,nő,nem,2022-04-19_21h37.19.394,hesp_baseline,2021.2.3,MacIntel,60.04202942
,,,,,,,,,,,,,,,,,sojzok,sojzom,right,1.5853,0,140,140,74,1,75,sojzik,sojzol,NA,NA,Te bizony sokat sojzol.,Én is sokat...,sojzok,sojzom,lakik,-zik,1,L0PVAK,2002,nő,nem,2022-04-19_21h37.19.394,hesp_baseline,2021.2.3,MacIntel,60.04202942
,,,,,,,,,,,,,,,,,spüjzöm,spüjzök,right,0.2591,0,141,141,59,1,60,spüjzik,spüjzöl,NA,NA,Te bizony sokat spüjzöl.,Én is sokat...,spüjzök,spüjzöm,lakik,-zik,1,L0PVAK,2002,nő,nem,2022-04-19_21h37.19.394,hesp_baseline,2021.2.3,MacIntel,60.04202942
,,,,,,,,,,,,,,,,,ítensban,ítensben,left,0.4845,0,142,142,50,1,105,ítens,ítens,ban,e,Ez itt egy ítens.,Ott vagyunk a...,ítensben,ítensban,dzsungel,NA,NA,L0PVAK,2002,nő,nem,2022-04-19_21h37.19.394,hesp_baseline,2021.2.3,MacIntel,60.04202942
,,,,,,,,,,,,,,,,,forzédnek,forzédnak,left,0.636,0,143,143,46,1,101,forzéd,forzéd,nak,é,Ez itt egy forzéd.,Elneveztem a kutyámat...,forzédnek,forzédnak,dzsungel,NA,NA,L0PVAK,2002,nő,nem,2022-04-19_21h37.19.394,hesp_baseline,2021.2.3,MacIntel,60.04202942
,,,,,,,,,,,,,,,,,hákodnak,hákszanak,right,0.3626,0,144,144,150,1,97,hákszik / hákodik,"hákszik, hákodni",nek,NA,"János imád hákodni, ezért sokat hákszik.",Ők ritkán...,hákszanak,hákodnak,cselekszik,-szik,1,L0PVAK,2002,nő,nem,2022-04-19_21h37.19.394,hesp_baseline,2021.2.3,MacIntel,60.04202942
,,,,,,,,,,,,,,,,,klűmlötök,klűmöztök,right,0.5191,0,145,145,108,1,55,klűmlik / klűmözik,"klűmlik, klűmözni",tek,NA,"János imád klűmözni, ezért sokat klűmlik.",Ti ritkán...,klűmlötök,klűmöztök,cselekszik,-lik,1,L0PVAK,2002,nő,nem,2022-04-19_21h37.19.394,hesp_baseline,2021.2.3,MacIntel,60.04202942
,,,,,,,,,,,,,,,,,klidlom,klidlok,right,0.8533,0,146,146,72,1,73,klidlik,klidlasz,NA,NA,Te bizony sokat klidlasz.,Én is sokat...,klidlok,klidlom,lakik,-lik,1,L0PVAK,2002,nő,nem,2022-04-19_21h37.19.394,hesp_baseline,2021.2.3,MacIntel,60.04202942
,,,,,,,,,,,,,,,,,kumlom,kumlok,right,0.6446,0,147,147,105,1,106,kumlik,kumlasz,NA,NA,Te bizony sokat kumlasz.,Én is sokat...,kumlok,kumlom,lakik,-lik,1,L0PVAK,2002,nő,nem,2022-04-19_21h37.19.394,hesp_baseline,2021.2.3,MacIntel,60.04202942
,,,,,,,,,,,,,,,,,figlok,figlom,left,0.2941,0,148,148,75,1,76,figlik,figlasz,NA,NA,Te bizony sokat figlasz.,Én is sokat...,figlok,figlom,lakik,-lik,1,L0PVAK,2002,nő,nem,2022-04-19_21h37.19.394,hesp_baseline,2021.2.3,MacIntel,60.04202942
,,,,,,,,,,,,,,,,,csintékban,csintékben,left,1.4585,0,149,149,23,1,78,csinték,csinték,ban,é,Ez itt egy csinték.,Ott vagyunk a...,csintékben,csintékban,dzsungel,NA,NA,L0PVAK,2002,nő,nem,2022-04-19_21h37.19.394,hesp_baseline,2021.2.3,MacIntel,60.04202942
,,,,,,,,,,,,,,,,,nuroklunk,nurokozunk,right,1.2094,0,150,150,131,1,78,nuroklik / nurokozik,"nuroklik, nurokozni",ünk,NA,"János imád nurokozni, ezért sokat nuroklik.",Mi ritkán...,nuroklunk,nurokozunk,cselekszik,-lik,2,L0PVAK,2002,nő,nem,2022-04-19_21h37.19.394,hesp_baseline,2021.2.3,MacIntel,60.04202942
,,,,,,,,,,,,,,,,,frésezünk,fréslünk,left,0.6538,0,151,151,138,1,85,fréslik / frésezik,"fréslik, frésezni",ünk,NA,"János imád frésezni, ezért sokat fréslik.",Mi ritkán...,fréslünk,frésezünk,cselekszik,-lik,1,L0PVAK,2002,nő,nem,2022-04-19_21h37.19.394,hesp_baseline,2021.2.3,MacIntel,60.04202942
,,,,,,,,,,,,,,,,,spáraklom,spáraklok,right,1.4269,0,152,152,96,1,97,spáraklik,spáraklasz,NA,NA,Te bizony sokat spáraklasz.,Én is sokat...,spáraklok,spáraklom,lakik,-lik,2,L0PVAK,2002,nő,nem,2022-04-19_21h37.19.394,hesp_baseline,2021.2.3,MacIntel,60.04202942
,,,,,,,,,,,,,,,,,prazlunk,prazozunk,right,0.3746,0,153,153,119,1,66,prazlik / prazozik,"prazlik, prazozni",ünk,NA,"János imád prazozni, ezért sokat prazlik.",Mi ritkán...,prazlunk,prazozunk,cselekszik,-lik,1,L0PVAK,2002,nő,nem,2022-04-19_21h37.19.394,hesp_baseline,2021.2.3,MacIntel,60.04202942
,,,,,,,,,,,,,,,,,sprízemnél,sprízemnál,left,0.5935,0,154,154,22,1,77,sprízem,sprízem,nál,e,Ez itt egy sprízem.,Nincs is jobb egy jó...,sprízemnél,sprízemnál,dzsungel,NA,NA,L0PVAK,2002,nő,nem,2022-04-19_21h37.19.394,hesp_baseline,2021.2.3,MacIntel,60.04202942
,,,,,,,,,,,,,,,,,spatárzom,spatárzok,right,0.5856,0,155,155,69,1,70,spatárzik,spatárzol,NA,NA,Te bizony sokat spatárzol.,Én is sokat...,spatárzok,spatárzom,lakik,-zik,2,L0PVAK,2002,nő,nem,2022-04-19_21h37.19.394,hesp_baseline,2021.2.3,MacIntel,60.04202942
,,,,,,,,,,,,,,,,,daboztok,dabzotok,right,0.4772,0,156,156,109,1,56,dabzik / dabozik,"dabzik, dabozni",tek,NA,"János imád dabozni, ezért sokat dabzik.",Ti ritkán...,dabzotok,daboztok,cselekszik,-zik,1,L0PVAK,2002,nő,nem,2022-04-19_21h37.19.394,hesp_baseline,2021.2.3,MacIntel,60.04202942
,,,,,,,,,,,,,,,,,zsigénnál,zsigénnél,right,1.1204,0,157,157,12,1,67,zsigén,zsigén,nál,é,Ez itt egy zsigén.,Nincs is jobb egy jó...,zsigénnél,zsigénnál,dzsungel,NA,NA,L0PVAK,2002,nő,nem,2022-04-19_21h37.19.394,hesp_baseline,2021.2.3,MacIntel,60.04202942
,,,,,,,,,,,,,,,,,tiregzem,tiregzek,right,2.1032,0,158,158,64,1,65,tiregzik,tiregzel,NA,NA,Te bizony sokat tiregzel.,Én is sokat...,tiregzek,tiregzem,lakik,-zik,2,L0PVAK,2002,nő,nem,2022-04-19_21h37.19.394,hesp_baseline,2021.2.3,MacIntel,60.04202942
,,,,,,,,,,,,,,,,,spügzünk,spügözünk,left,0.6863,0,159,159,143,1,90,spügzik / spügözik,"spügzik, spügözni",ünk,NA,"János imád spügözni, ezért sokat spügzik.",Mi ritkán...,spügzünk,spügözünk,cselekszik,-zik,1,L0PVAK,2002,nő,nem,2022-04-19_21h37.19.394,hesp_baseline,2021.2.3,MacIntel,60.04202942
,,,,,,,,,,,,,,,,,trírozunk,trírzunk,left,0.1567,0,160,160,116,1,63,trírzik / trírozik,"trírzik, trírozni",ünk,NA,"János imád trírozni, ezért sokat trírzik.",Mi ritkán...,trírzunk,trírozunk,cselekszik,-zik,1,L0PVAK,2002,nő,nem,2022-04-19_21h37.19.394,hesp_baseline,2021.2.3,MacIntel,60.04202942
,,,,,,,,,,,,,,,,,spiharzotok,spiharoztok,right,0.3866,0,161,161,127,1,74,spiharzik / spiharozik,"spiharzik, spiharozni",tek,NA,"János imád spiharozni, ezért sokat spiharzik.",Ti ritkán...,spiharzotok,spiharoztok,cselekszik,-zik,2,L0PVAK,2002,nő,nem,2022-04-19_21h37.19.394,hesp_baseline,2021.2.3,MacIntel,60.04202942
