my_list,key.keys,key.rt,key_2.keys,key_2.rt,keyboard_input_2.keys,keyboard_input_2.rt,key_3.keys,key_3.rt,keyboard_input_3.keys,keyboard_input_3.rt,key_4.keys,key_4.rt,keyboard_input_4.keys,keyboard_input_4.rt,key_5.keys,key_5.rt,my_button1,my_button2,keyboard_input.keys,keyboard_input.rt,withinBlock.thisRepN,withinBlock.thisTrialN,withinBlock.thisN,withinBlock.thisIndex,withinBlock.ran,rowname,word,prompt,suffix,vowel,carrier_sentence,target_sentence,target1,target2,category,derivational,nsyl,Azonosító,Melyik évben születtél?,Mi a nemed?,Tanultál nyelvészetet?,date,expName,psychopyVersion,OS,frameRate
list3.csv,space,11.4242,space,5.2581,right,8.4074,space,7.223,left,5.4296,space,0.9258,left,8.1114,space,4.206,bihánylom,bihánylok,left,10.9981,0,0,0,89,1,144,bihánylik,bihánylasz,NA,NA,Te bizony sokat bihánylasz.,Én is sokat...,bihánylok,bihánylom,lakik,-lik,2,PR2017,2001,nő,nem,2022-04-06_11h41.24.361,hesp_baseline,2021.2.3,Win32,118.4834123
,,,,,,,,,,,,,,,,,trehégszek,trehégszem,right,5.0192,0,1,1,86,1,141,trehégszik,trehégszel,NA,NA,Te bizony sokat trehégszel.,Én is sokat...,trehégszek,trehégszem,lakik,-szik,2,PR2017,2001,nő,nem,2022-04-06_11h41.24.361,hesp_baseline,2021.2.3,Win32,118.4834123
,,,,,,,,,,,,,,,,,spülöklöm,spülöklök,right,3.7576,0,2,2,56,1,111,spülöklik,spülöklesz,NA,NA,Te bizony sokat spülöklesz.,Én is sokat...,spülöklök,spülöklöm,lakik,-lik,2,PR2017,2001,nő,nem,2022-04-06_11h41.24.361,hesp_baseline,2021.2.3,Win32,118.4834123
,,,,,,,,,,,,,,,,,kábesznál,kábesznél,right,14.5955,0,3,3,44,1,153,kábesz,kábesz,nál,e,Ez itt egy kábesz.,Nincs is jobb egy jó...,kábesznél,kábesznál,dzsungel,NA,NA,PR2017,2001,nő,nem,2022-04-06_11h41.24.361,hesp_baseline,2021.2.3,Win32,118.4834123
,,,,,,,,,,,,,,,,,tuboklok,tuboklom,right,5.0975,0,4,4,84,1,139,tuboklik,tuboklasz,NA,NA,Te bizony sokat tuboklasz.,Én is sokat...,tuboklok,tuboklom,lakik,-lik,2,PR2017,2001,nő,nem,2022-04-06_11h41.24.361,hesp_baseline,2021.2.3,Win32,118.4834123
,,,,,,,,,,,,,,,,,frálapodtok,frálapszotok,right,6.7933,0,5,5,150,1,151,frálapszik / frálapodik,"frálapszik, frálapodni",tek,NA,"János imád frálapodni, ezért sokat frálapszik.",Ti ritkán...,frálapszotok,frálapodtok,cselekszik,-szik,2,PR2017,2001,nő,nem,2022-04-06_11h41.24.361,hesp_baseline,2021.2.3,Win32,118.4834123
,,,,,,,,,,,,,,,,,prezlem,prezlek,right,3.103,0,6,6,87,1,142,prezlik,prezlesz,NA,NA,Te bizony sokat prezlesz.,Én is sokat...,prezlek,prezlem,lakik,-lik,1,PR2017,2001,nő,nem,2022-04-06_11h41.24.361,hesp_baseline,2021.2.3,Win32,118.4834123
,,,,,,,,,,,,,,,,,klivaslom,klivaslok,right,6.7127,0,7,7,62,1,117,klivaslik,klivaslasz,NA,NA,Te bizony sokat klivaslasz.,Én is sokat...,klivaslok,klivaslom,lakik,-lik,2,PR2017,2001,nő,nem,2022-04-06_11h41.24.361,hesp_baseline,2021.2.3,Win32,118.4834123
,,,,,,,,,,,,,,,,,spüszlöm,spüszlök,right,21.061,0,8,8,96,1,151,spüszlik,spüszlesz,NA,NA,Te bizony sokat spüszlesz.,Én is sokat...,spüszlök,spüszlöm,lakik,-lik,1,PR2017,2001,nő,nem,2022-04-06_11h41.24.361,hesp_baseline,2021.2.3,Win32,118.4834123
,,,,,,,,,,,,,,,,,klétszek,klétszem,left,8.8995,0,9,9,60,1,115,klétszik,klétszel,NA,NA,Te bizony sokat klétszel.,Én is sokat...,klétszek,klétszem,lakik,-szik,1,PR2017,2001,nő,nem,2022-04-06_11h41.24.361,hesp_baseline,2021.2.3,Win32,118.4834123
,,,,,,,,,,,,,,,,,tűgöztök,tűgzötök,left,6.4606,0,10,10,143,1,144,tűgzik / tűgözik,"tűgzik, tűgözni",tek,NA,"János imád tűgözni, ezért sokat tűgzik.",Ti ritkán...,tűgzötök,tűgöztök,cselekszik,-zik,1,PR2017,2001,nő,nem,2022-04-06_11h41.24.361,hesp_baseline,2021.2.3,Win32,118.4834123
,,,,,,,,,,,,,,,,,sztredletek,sztredeztek,right,6.076,0,11,11,145,1,146,sztredlik / sztredezik,"sztredlik, sztredezni",tek,NA,"János imád sztredezni, ezért sokat sztredlik.",Ti ritkán...,sztredletek,sztredeztek,cselekszik,-lik,1,PR2017,2001,nő,nem,2022-04-06_11h41.24.361,hesp_baseline,2021.2.3,Win32,118.4834123
,,,,,,,,,,,,,,,,,gicéjnél,gicéjnál,left,3.5736,0,12,12,17,1,126,gicéj,gicéj,nál,é,Ez itt egy gicéj.,Nincs is jobb egy jó...,gicéjnél,gicéjnál,dzsungel,NA,NA,PR2017,2001,nő,nem,2022-04-06_11h41.24.361,hesp_baseline,2021.2.3,Win32,118.4834123
,,,,,,,,,,,,,,,,,gótemnak,gótemnek,right,4.0584,0,13,13,35,1,144,gótem,gótem,nak,e,Ez itt egy gótem.,Elneveztem a kutyámat...,gótemnek,gótemnak,dzsungel,NA,NA,PR2017,2001,nő,nem,2022-04-06_11h41.24.361,hesp_baseline,2021.2.3,Win32,118.4834123
,,,,,,,,,,,,,,,,,büglöm,büglök,right,4.3948,0,14,14,101,1,156,büglik,büglesz,NA,NA,Te bizony sokat büglesz.,Én is sokat...,büglök,büglöm,lakik,-lik,1,PR2017,2001,nő,nem,2022-04-06_11h41.24.361,hesp_baseline,2021.2.3,Win32,118.4834123
,,,,,,,,,,,,,,,,,pijélnál,pijélnél,right,3.1344,0,15,15,3,1,112,pijél,pijél,nál,é,Ez itt egy pijél.,Nincs is jobb egy jó...,pijélnél,pijélnál,dzsungel,NA,NA,PR2017,2001,nő,nem,2022-04-06_11h41.24.361,hesp_baseline,2021.2.3,Win32,118.4834123
,,,,,,,,,,,,,,,,,bivejlek,bivejlem,left,3.5642,0,16,16,73,1,128,bivejlik,bivejlesz,NA,NA,Te bizony sokat bivejlesz.,Én is sokat...,bivejlek,bivejlem,lakik,-lik,2,PR2017,2001,nő,nem,2022-04-06_11h41.24.361,hesp_baseline,2021.2.3,Win32,118.4834123
,,,,,,,,,,,,,,,,,döjöznek,döjlenek,left,7.8646,0,17,17,129,1,130,döjlik / döjözik,"döjlik, döjözni",nek,NA,"János imád döjözni, ezért sokat döjlik.",Ők ritkán...,döjlenek,döjöznek,cselekszik,-lik,1,PR2017,2001,nő,nem,2022-04-06_11h41.24.361,hesp_baseline,2021.2.3,Win32,118.4834123
,,,,,,,,,,,,,,,,,gyibakszom,gyibakszok,right,3.4523,0,18,18,57,1,112,gyibakszik,gyibakszol,NA,NA,Te bizony sokat gyibakszol.,Én is sokat...,gyibakszok,gyibakszom,lakik,-szik,2,PR2017,2001,nő,nem,2022-04-06_11h41.24.361,hesp_baseline,2021.2.3,Win32,118.4834123
,,,,,,,,,,,,,,,,,licegyben,licegyban,left,4.3249,0,19,19,15,1,124,licegy,licegy,ban,e,Ez itt egy licegy.,Ott vagyunk a...,licegyben,licegyban,dzsungel,NA,NA,PR2017,2001,nő,nem,2022-04-06_11h41.24.361,hesp_baseline,2021.2.3,Win32,118.4834123
,,,,,,,,,,,,,,,,,lűköznek,lűklenek,left,6.3465,0,20,20,136,1,137,lűklik / lűközik,"lűklik, lűközni",nek,NA,"János imád lűközni, ezért sokat lűklik.",Ők ritkán...,lűklenek,lűköznek,cselekszik,-lik,1,PR2017,2001,nő,nem,2022-04-06_11h41.24.361,hesp_baseline,2021.2.3,Win32,118.4834123
,,,,,,,,,,,,,,,,,sztrijzok,sztrijzom,right,1.5766,0,21,21,68,1,123,sztrijzik,sztrijzol,NA,NA,Te bizony sokat sztrijzol.,Én is sokat...,sztrijzok,sztrijzom,lakik,-zik,1,PR2017,2001,nő,nem,2022-04-06_11h41.24.361,hesp_baseline,2021.2.3,Win32,118.4834123
,,,,,,,,,,,,,,,,,vilesezünk,vileslünk,left,0.3946,0,22,22,139,1,140,vileslik / vilesezik,"vileslik, vilesezni",ünk,NA,"János imád vilesezni, ezért sokat vileslik.",Mi ritkán...,vileslünk,vilesezünk,cselekszik,-lik,2,PR2017,2001,nő,nem,2022-04-06_11h41.24.361,hesp_baseline,2021.2.3,Win32,118.4834123
,,,,,,,,,,,,,,,,,brilegezünk,brilegzünk,right,4.0364,0,23,23,124,1,125,brilegzik / brilegezik,"brilegzik, brilegezni",ünk,NA,"János imád brilegezni, ezért sokat brilegzik.",Mi ritkán...,brilegzünk,brilegezünk,cselekszik,-zik,2,PR2017,2001,nő,nem,2022-04-06_11h41.24.361,hesp_baseline,2021.2.3,Win32,118.4834123
,,,,,,,,,,,,,,,,,klarágzotok,klarágoztok,left,3.9457,0,24,24,114,1,115,klarágzik / klarágozik,"klarágzik, klarágozni",tek,NA,"János imád klarágozni, ezért sokat klarágzik.",Ti ritkán...,klarágzotok,klarágoztok,cselekszik,-zik,2,PR2017,2001,nő,nem,2022-04-06_11h41.24.361,hesp_baseline,2021.2.3,Win32,118.4834123
,,,,,,,,,,,,,,,,,finceknál,finceknél,left,3.2097,0,25,25,9,1,118,fincek,fincek,nál,e,Ez itt egy fincek.,Nincs is jobb egy jó...,finceknél,finceknál,dzsungel,NA,NA,PR2017,2001,nő,nem,2022-04-06_11h41.24.361,hesp_baseline,2021.2.3,Win32,118.4834123
,,,,,,,,,,,,,,,,,prínylom,prínylok,right,2.739,0,26,26,102,1,157,prínylik,prínylasz,NA,NA,Te bizony sokat prínylasz.,Én is sokat...,prínylok,prínylom,lakik,-lik,1,PR2017,2001,nő,nem,2022-04-06_11h41.24.361,hesp_baseline,2021.2.3,Win32,118.4834123
,,,,,,,,,,,,,,,,,siladzok,siladzom,right,2.6614,0,27,27,93,1,148,siladzik,siladzol,NA,NA,Te bizony sokat siladzol.,Én is sokat...,siladzok,siladzom,lakik,-zik,2,PR2017,2001,nő,nem,2022-04-06_11h41.24.361,hesp_baseline,2021.2.3,Win32,118.4834123
,,,,,,,,,,,,,,,,,spülőrzök,spülőrzöm,right,2.235,0,28,28,69,1,124,spülőrzik,spülőrzöl,NA,NA,Te bizony sokat spülőrzöl.,Én is sokat...,spülőrzök,spülőrzöm,lakik,-zik,2,PR2017,2001,nő,nem,2022-04-06_11h41.24.361,hesp_baseline,2021.2.3,Win32,118.4834123
,,,,,,,,,,,,,,,,,gibemezünk,gibemlünk,right,2.968,0,29,29,115,1,116,gibemlik / gibemezik,"gibemlik, gibemezni",ünk,NA,"János imád gibemezni, ezért sokat gibemlik.",Mi ritkán...,gibemlünk,gibemezünk,cselekszik,-lik,2,PR2017,2001,nő,nem,2022-04-06_11h41.24.361,hesp_baseline,2021.2.3,Win32,118.4834123
,,,,,,,,,,,,,,,,,sztritlanak,sztritoznak,left,2.3082,0,30,30,154,1,155,sztritlik / sztritozik,"sztritlik, sztritozni",nek,NA,"János imád sztritozni, ezért sokat sztritlik.",Ők ritkán...,sztritlanak,sztritoznak,cselekszik,-lik,1,PR2017,2001,nő,nem,2022-04-06_11h41.24.361,hesp_baseline,2021.2.3,Win32,118.4834123
,,,,,,,,,,,,,,,,,spírzok,spírzom,right,3.3027,0,31,31,64,1,119,spírzik,spírzol,NA,NA,Te bizony sokat spírzol.,Én is sokat...,spírzok,spírzom,lakik,-zik,1,PR2017,2001,nő,nem,2022-04-06_11h41.24.361,hesp_baseline,2021.2.3,Win32,118.4834123
,,,,,,,,,,,,,,,,,brüjlöm,brüjlök,left,2.7261,0,32,32,55,1,110,brüjlik,brüjlesz,NA,NA,Te bizony sokat brüjlesz.,Én is sokat...,brüjlök,brüjlöm,lakik,-lik,1,PR2017,2001,nő,nem,2022-04-06_11h41.24.361,hesp_baseline,2021.2.3,Win32,118.4834123
,,,,,,,,,,,,,,,,,flugonyoznak,flugonylanak,right,3.3085,0,33,33,111,1,112,flugonylik / flugonyozik,"flugonylik, flugonyozni",nek,NA,"János imád flugonyozni, ezért sokat flugonylik.",Ők ritkán...,flugonylanak,flugonyoznak,cselekszik,-lik,2,PR2017,2001,nő,nem,2022-04-06_11h41.24.361,hesp_baseline,2021.2.3,Win32,118.4834123
,,,,,,,,,,,,,,,,,triklotok,trikoztok,left,6.0828,0,34,34,160,1,161,triklik / trikozik,"triklik, trikozni",tek,NA,"János imád trikozni, ezért sokat triklik.",Ti ritkán...,triklotok,trikoztok,cselekszik,-lik,1,PR2017,2001,nő,nem,2022-04-06_11h41.24.361,hesp_baseline,2021.2.3,Win32,118.4834123
,,,,,,,,,,,,,,,,,mülőrözünk,mülőrzünk,right,3.8904,0,35,35,120,1,121,mülőrzik / mülőrözik,"mülőrzik, mülőrözni",ünk,NA,"János imád mülőrözni, ezért sokat mülőrzik.",Mi ritkán...,mülőrzünk,mülőrözünk,cselekszik,-zik,2,PR2017,2001,nő,nem,2022-04-06_11h41.24.361,hesp_baseline,2021.2.3,Win32,118.4834123
,,,,,,,,,,,,,,,,,zinednek,zinednak,left,4.3918,0,36,36,22,1,131,zined,zined,nak,e,Ez itt egy zined.,Elneveztem a kutyámat...,zinednek,zinednak,dzsungel,NA,NA,PR2017,2001,nő,nem,2022-04-06_11h41.24.361,hesp_baseline,2021.2.3,Win32,118.4834123
,,,,,,,,,,,,,,,,,sűzlök,sűzlöm,right,2.4647,0,37,37,54,1,109,sűzlik,sűzlesz,NA,NA,Te bizony sokat sűzlesz.,Én is sokat...,sűzlök,sűzlöm,lakik,-lik,1,PR2017,2001,nő,nem,2022-04-06_11h41.24.361,hesp_baseline,2021.2.3,Win32,118.4834123
,,,,,,,,,,,,,,,,,trincsegben,trincsegban,right,2.7914,0,38,38,46,1,155,trincseg,trincseg,ban,e,Ez itt egy trincseg.,Ott vagyunk a...,trincsegben,trincsegban,dzsungel,NA,NA,PR2017,2001,nő,nem,2022-04-06_11h41.24.361,hesp_baseline,2021.2.3,Win32,118.4834123
,,,,,,,,,,,,,,,,,briskédnál,briskédnél,right,6.0773,0,39,39,51,1,160,briskéd,briskéd,nál,é,Ez itt egy briskéd.,Nincs is jobb egy jó...,briskédnél,briskédnál,dzsungel,NA,NA,PR2017,2001,nő,nem,2022-04-06_11h41.24.361,hesp_baseline,2021.2.3,Win32,118.4834123
,,,,,,,,,,,,,,,,,treglem,treglek,right,2.0113,0,40,40,81,1,136,treglik,treglesz,NA,NA,Te bizony sokat treglesz.,Én is sokat...,treglek,treglem,lakik,-lik,1,PR2017,2001,nő,nem,2022-04-06_11h41.24.361,hesp_baseline,2021.2.3,Win32,118.4834123
,,,,,,,,,,,,,,,,,drubódzok,drubódzom,right,0.3266,0,41,41,63,1,118,drubódzik,drubódzol,NA,NA,Te bizony sokat drubódzol.,Én is sokat...,drubódzok,drubódzom,lakik,-zik,2,PR2017,2001,nő,nem,2022-04-06_11h41.24.361,hesp_baseline,2021.2.3,Win32,118.4834123
,,,,,,,,,,,,,,,,,briváglanak,brivágoznak,left,0.1905,0,42,42,138,1,139,briváglik / brivágozik,"briváglik, brivágozni",nek,NA,"János imád brivágozni, ezért sokat briváglik.",Ők ritkán...,briváglanak,brivágoznak,cselekszik,-lik,2,PR2017,2001,nő,nem,2022-04-06_11h41.24.361,hesp_baseline,2021.2.3,Win32,118.4834123
,,,,,,,,,,,,,,,,,sprozoznak,sprozlanak,left,0.2044,0,43,43,147,1,148,sprozlik / sprozozik,"sprozlik, sprozozni",nek,NA,"János imád sprozozni, ezért sokat sprozlik.",Ők ritkán...,sprozlanak,sprozoznak,cselekszik,-lik,1,PR2017,2001,nő,nem,2022-04-06_11h41.24.361,hesp_baseline,2021.2.3,Win32,118.4834123
,,,,,,,,,,,,,,,,,brindeznak,brindeznek,right,0.5918,0,44,44,6,1,115,brindez,brindez,nak,e,Ez itt egy brindez.,Elneveztem a kutyámat...,brindeznek,brindeznak,dzsungel,NA,NA,PR2017,2001,nő,nem,2022-04-06_11h41.24.361,hesp_baseline,2021.2.3,Win32,118.4834123
,,,,,,,,,,,,,,,,,pristélban,pristélben,left,0.1963,0,45,45,1,1,110,pristél,pristél,ban,é,Ez itt egy pristél.,Ott vagyunk a...,pristélben,pristélban,dzsungel,NA,NA,PR2017,2001,nő,nem,2022-04-06_11h41.24.361,hesp_baseline,2021.2.3,Win32,118.4834123
,,,,,,,,,,,,,,,,,dorzéjnak,dorzéjnek,right,0.8433,0,46,46,29,1,138,dorzéj,dorzéj,nak,é,Ez itt egy dorzéj.,Elneveztem a kutyámat...,dorzéjnek,dorzéjnak,dzsungel,NA,NA,PR2017,2001,nő,nem,2022-04-06_11h41.24.361,hesp_baseline,2021.2.3,Win32,118.4834123
,,,,,,,,,,,,,,,,,trugoklanak,trugokoznak,left,2.1758,0,47,47,109,1,110,trugoklik / trugokozik,"trugoklik, trugokozni",nek,NA,"János imád trugokozni, ezért sokat trugoklik.",Ők ritkán...,trugoklanak,trugokoznak,cselekszik,-lik,2,PR2017,2001,nő,nem,2022-04-06_11h41.24.361,hesp_baseline,2021.2.3,Win32,118.4834123
,,,,,,,,,,,,,,,,,pazévnél,pazévnál,left,2.8921,0,48,48,36,1,145,pazév,pazév,nál,é,Ez itt egy pazév.,Nincs is jobb egy jó...,pazévnél,pazévnál,dzsungel,NA,NA,PR2017,2001,nő,nem,2022-04-06_11h41.24.361,hesp_baseline,2021.2.3,Win32,118.4834123
,,,,,,,,,,,,,,,,,tibaroznak,tibarzanak,left,2.7253,0,49,49,155,1,156,tibarzik / tibarozik,"tibarzik, tibarozni",nek,NA,"János imád tibarozni, ezért sokat tibarzik.",Ők ritkán...,tibarzanak,tibaroznak,cselekszik,-zik,2,PR2017,2001,nő,nem,2022-04-06_11h41.24.361,hesp_baseline,2021.2.3,Win32,118.4834123
,,,,,,,,,,,,,,,,,sprálszok,sprálszom,right,3.8785,0,50,50,65,1,120,sprálszik,sprálszol,NA,NA,Te bizony sokat sprálszol.,Én is sokat...,sprálszok,sprálszom,lakik,-szik,1,PR2017,2001,nő,nem,2022-04-06_11h41.24.361,hesp_baseline,2021.2.3,Win32,118.4834123
,,,,,,,,,,,,,,,,,sartelyban,sartelyben,left,1.8731,0,51,51,40,1,149,sartely,sartely,ban,e,Ez itt egy sartely.,Ott vagyunk a...,sartelyben,sartelyban,dzsungel,NA,NA,PR2017,2001,nő,nem,2022-04-06_11h41.24.361,hesp_baseline,2021.2.3,Win32,118.4834123
,,,,,,,,,,,,,,,,,trálszunk,trálodunk,right,3.5028,0,52,52,130,1,131,trálszik / trálodik,"trálszik, trálodni",ünk,NA,"János imád trálodni, ezért sokat trálszik.",Mi ritkán...,trálszunk,trálodunk,cselekszik,-szik,1,PR2017,2001,nő,nem,2022-04-06_11h41.24.361,hesp_baseline,2021.2.3,Win32,118.4834123
,,,,,,,,,,,,,,,,,bródesznek,bródesznak,right,3.1315,0,53,53,32,1,141,bródesz,bródesz,nak,e,Ez itt egy bródesz.,Elneveztem a kutyámat...,bródesznek,bródesznak,dzsungel,NA,NA,PR2017,2001,nő,nem,2022-04-06_11h41.24.361,hesp_baseline,2021.2.3,Win32,118.4834123
,,,,,,,,,,,,,,,,,spröbzöm,spröbzök,right,4.1834,0,54,54,90,1,145,spröbzik,spröbzöl,NA,NA,Te bizony sokat spröbzöl.,Én is sokat...,spröbzök,spröbzöm,lakik,-zik,1,PR2017,2001,nő,nem,2022-04-06_11h41.24.361,hesp_baseline,2021.2.3,Win32,118.4834123
,,,,,,,,,,,,,,,,,bupézban,bupézben,right,4.1838,0,55,55,48,1,157,bupéz,bupéz,ban,é,Ez itt egy bupéz.,Ott vagyunk a...,bupézben,bupézban,dzsungel,NA,NA,PR2017,2001,nő,nem,2022-04-06_11h41.24.361,hesp_baseline,2021.2.3,Win32,118.4834123
,,,,,,,,,,,,,,,,,nágapszanak,nágapodnak,right,3.0707,0,56,56,152,1,153,nágapszik / nágapodik,"nágapszik, nágapodni",nek,NA,"János imád nágapodni, ezért sokat nágapszik.",Ők ritkán...,nágapszanak,nágapodnak,cselekszik,-szik,2,PR2017,2001,nő,nem,2022-04-06_11h41.24.361,hesp_baseline,2021.2.3,Win32,118.4834123
,,,,,,,,,,,,,,,,,szihétnek,szihétnak,left,3.1737,0,57,57,4,1,113,szihét,szihét,nak,é,Ez itt egy szihét.,Elneveztem a kutyámat...,szihétnek,szihétnak,dzsungel,NA,NA,PR2017,2001,nő,nem,2022-04-06_11h41.24.361,hesp_baseline,2021.2.3,Win32,118.4834123
,,,,,,,,,,,,,,,,,trismélnak,trismélnek,right,5.0088,0,58,58,5,1,114,trismél,trismél,nak,é,Ez itt egy trismél.,Elneveztem a kutyámat...,trismélnek,trismélnak,dzsungel,NA,NA,PR2017,2001,nő,nem,2022-04-06_11h41.24.361,hesp_baseline,2021.2.3,Win32,118.4834123
,,,,,,,,,,,,,,,,,prűrlöm,prűrlök,right,2.7468,0,59,59,75,1,130,prűrlik,prűrlesz,NA,NA,Te bizony sokat prűrlesz.,Én is sokat...,prűrlök,prűrlöm,lakik,-lik,1,PR2017,2001,nő,nem,2022-04-06_11h41.24.361,hesp_baseline,2021.2.3,Win32,118.4834123
,,,,,,,,,,,,,,,,,ribegedtek,ribegszetek,left,3.5305,0,60,60,141,1,142,ribegszik / ribegedik,"ribegszik, ribegedni",tek,NA,"János imád ribegedni, ezért sokat ribegszik.",Ti ritkán...,ribegszetek,ribegedtek,cselekszik,-szik,2,PR2017,2001,nő,nem,2022-04-06_11h41.24.361,hesp_baseline,2021.2.3,Win32,118.4834123
,,,,,,,,,,,,,,,,,nyítemban,nyítemben,right,2.8265,0,61,61,41,1,150,nyítem,nyítem,ban,e,Ez itt egy nyítem.,Ott vagyunk a...,nyítemben,nyítemban,dzsungel,NA,NA,PR2017,2001,nő,nem,2022-04-06_11h41.24.361,hesp_baseline,2021.2.3,Win32,118.4834123
,,,,,,,,,,,,,,,,,brukésznál,brukésznél,left,3.2699,0,62,62,10,1,119,brukész,brukész,nál,é,Ez itt egy brukész.,Nincs is jobb egy jó...,brukésznél,brukésznál,dzsungel,NA,NA,PR2017,2001,nő,nem,2022-04-06_11h41.24.361,hesp_baseline,2021.2.3,Win32,118.4834123
,,,,,,,,,,,,,,,,,mékszek,mékszem,left,9.3079,0,63,63,71,1,126,mékszik,mékszel,NA,NA,Te bizony sokat mékszel.,Én is sokat...,mékszek,mékszem,lakik,-szik,1,PR2017,2001,nő,nem,2022-04-06_11h41.24.361,hesp_baseline,2021.2.3,Win32,118.4834123
,,,,,,,,,,,,,,,,,dalencnél,dalencnál,right,4.1999,0,64,64,31,1,140,dalenc,dalenc,nál,e,Ez itt egy dalenc.,Nincs is jobb egy jó...,dalencnél,dalencnál,dzsungel,NA,NA,PR2017,2001,nő,nem,2022-04-06_11h41.24.361,hesp_baseline,2021.2.3,Win32,118.4834123
,,,,,,,,,,,,,,,,,frivajlok,frivajlom,left,2.6929,0,65,65,78,1,133,frivajlik,frivajlasz,NA,NA,Te bizony sokat frivajlasz.,Én is sokat...,frivajlok,frivajlom,lakik,-lik,2,PR2017,2001,nő,nem,2022-04-06_11h41.24.361,hesp_baseline,2021.2.3,Win32,118.4834123
,,,,,,,,,,,,,,,,,spuboroznak,spuborzanak,right,3.9057,0,66,66,161,1,162,spuborzik / spuborozik,"spuborzik, spuborozni",nek,NA,"János imád spuborozni, ezért sokat spuborzik.",Ők ritkán...,spuborzanak,spuboroznak,cselekszik,-zik,2,PR2017,2001,nő,nem,2022-04-06_11h41.24.361,hesp_baseline,2021.2.3,Win32,118.4834123
,,,,,,,,,,,,,,,,,spatelnak,spatelnek,right,4.9585,0,67,67,21,1,130,spatel,spatel,nak,e,Ez itt egy spatel.,Elneveztem a kutyámat...,spatelnek,spatelnak,dzsungel,NA,NA,PR2017,2001,nő,nem,2022-04-06_11h41.24.361,hesp_baseline,2021.2.3,Win32,118.4834123
,,,,,,,,,,,,,,,,,csodegnál,csodegnél,right,2.5512,0,68,68,28,1,137,csodeg,csodeg,nál,e,Ez itt egy csodeg.,Nincs is jobb egy jó...,csodegnél,csodegnál,dzsungel,NA,NA,PR2017,2001,nő,nem,2022-04-06_11h41.24.361,hesp_baseline,2021.2.3,Win32,118.4834123
,,,,,,,,,,,,,,,,,hűgzök,hűgzöm,right,19.5676,0,69,69,107,1,162,hűgzik,hűgzöl,NA,NA,Te bizony sokat hűgzöl.,Én is sokat...,hűgzök,hűgzöm,lakik,-zik,1,PR2017,2001,nő,nem,2022-04-06_11h41.24.361,hesp_baseline,2021.2.3,Win32,118.4834123
,,,,,,,,,,,,,,,,,fizendban,fizendben,right,7.7006,0,70,70,49,1,158,fizend,fizend,ban,e,Ez itt egy fizend.,Ott vagyunk a...,fizendben,fizendban,dzsungel,NA,NA,PR2017,2001,nő,nem,2022-04-06_11h41.24.361,hesp_baseline,2021.2.3,Win32,118.4834123
,,,,,,,,,,,,,,,,,kátelnak,kátelnek,left,0.9345,0,71,71,12,1,121,kátel,kátel,nak,e,Ez itt egy kátel.,Elneveztem a kutyámat...,kátelnek,kátelnak,dzsungel,NA,NA,PR2017,2001,nő,nem,2022-04-06_11h41.24.361,hesp_baseline,2021.2.3,Win32,118.4834123
,,,,,,,,,,,,,,,,,zsádévnak,zsádévnek,left,0.9191,0,72,72,20,1,129,zsádév,zsádév,nak,é,Ez itt egy zsádév.,Elneveztem a kutyámat...,zsádévnek,zsádévnak,dzsungel,NA,NA,PR2017,2001,nő,nem,2022-04-06_11h41.24.361,hesp_baseline,2021.2.3,Win32,118.4834123
,,,,,,,,,,,,,,,,,nyáslom,nyáslok,right,0.477,0,73,73,100,1,155,nyáslik,nyáslasz,NA,NA,Te bizony sokat nyáslasz.,Én is sokat...,nyáslok,nyáslom,lakik,-lik,1,PR2017,2001,nő,nem,2022-04-06_11h41.24.361,hesp_baseline,2021.2.3,Win32,118.4834123
,,,,,,,,,,,,,,,,,jurdentnál,jurdentnél,right,0.52,0,74,74,16,1,125,jurdent,jurdent,nál,e,Ez itt egy jurdent.,Nincs is jobb egy jó...,jurdentnél,jurdentnál,dzsungel,NA,NA,PR2017,2001,nő,nem,2022-04-06_11h41.24.361,hesp_baseline,2021.2.3,Win32,118.4834123
,,,,,,,,,,,,,,,,,táklom,táklok,left,0.5528,0,75,75,79,1,134,táklik,táklasz,NA,NA,Te bizony sokat táklasz.,Én is sokat...,táklok,táklom,lakik,-lik,1,PR2017,2001,nő,nem,2022-04-06_11h41.24.361,hesp_baseline,2021.2.3,Win32,118.4834123
,,,,,,,,,,,,,,,,,braszencnál,braszencnél,left,0.2183,0,76,76,7,1,116,braszenc,braszenc,nál,e,Ez itt egy braszenc.,Nincs is jobb egy jó...,braszencnél,braszencnál,dzsungel,NA,NA,PR2017,2001,nő,nem,2022-04-06_11h41.24.361,hesp_baseline,2021.2.3,Win32,118.4834123
,,,,,,,,,,,,,,,,,trálakoznak,trálaklanak,right,0.2374,0,77,77,116,1,117,trálaklik / trálakozik,"trálaklik, trálakozni",nek,NA,"János imád trálakozni, ezért sokat trálaklik.",Ők ritkán...,trálaklanak,trálakoznak,cselekszik,-lik,2,PR2017,2001,nő,nem,2022-04-06_11h41.24.361,hesp_baseline,2021.2.3,Win32,118.4834123
,,,,,,,,,,,,,,,,,bűtszök,bűtszöm,left,0.0462,0,78,78,82,1,137,bűtszik,bűtszöl,NA,NA,Te bizony sokat bűtszöl.,Én is sokat...,bűtszök,bűtszöm,lakik,-szik,1,PR2017,2001,nő,nem,2022-04-06_11h41.24.361,hesp_baseline,2021.2.3,Win32,118.4834123
,,,,,,,,,,,,,,,,,drilarzunk,drilarozunk,left,0.1501,0,79,79,131,1,132,drilarzik / drilarozik,"drilarzik, drilarozni",ünk,NA,"János imád drilarozni, ezért sokat drilarzik.",Mi ritkán...,drilarzunk,drilarozunk,cselekszik,-zik,2,PR2017,2001,nő,nem,2022-04-06_11h41.24.361,hesp_baseline,2021.2.3,Win32,118.4834123
,,,,,,,,,,,,,,,,,vihepszem,vihepszek,left,0.3191,0,80,80,59,1,114,vihepszik,vihepszel,NA,NA,Te bizony sokat vihepszel.,Én is sokat...,vihepszek,vihepszem,lakik,-szik,2,PR2017,2001,nő,nem,2022-04-06_11h41.24.361,hesp_baseline,2021.2.3,Win32,118.4834123
,,,,,,,,,,,,,,,,,dibezban,dibezben,right,0.1875,0,81,81,27,1,136,dibez,dibez,ban,e,Ez itt egy dibez.,Ott vagyunk a...,dibezben,dibezban,dzsungel,NA,NA,PR2017,2001,nő,nem,2022-04-06_11h41.24.361,hesp_baseline,2021.2.3,Win32,118.4834123
,,,,,,,,,,,,,,,,,huméknek,huméknak,left,0.219,0,82,82,23,1,132,humék,humék,nak,é,Ez itt egy humék.,Elneveztem a kutyámat...,huméknek,huméknak,dzsungel,NA,NA,PR2017,2001,nő,nem,2022-04-06_11h41.24.361,hesp_baseline,2021.2.3,Win32,118.4834123
,,,,,,,,,,,,,,,,,klibamlom,klibamlok,left,0.2339,0,83,83,92,1,147,klibamlik,klibamlasz,NA,NA,Te bizony sokat klibamlasz.,Én is sokat...,klibamlok,klibamlom,lakik,-lik,2,PR2017,2001,nő,nem,2022-04-06_11h41.24.361,hesp_baseline,2021.2.3,Win32,118.4834123
,,,,,,,,,,,,,,,,,dirlotok,diroztok,right,0.2351,0,84,84,148,1,149,dirlik / dirozik,"dirlik, dirozni",tek,NA,"János imád dirozni, ezért sokat dirlik.",Ti ritkán...,dirlotok,diroztok,cselekszik,-lik,1,PR2017,2001,nő,nem,2022-04-06_11h41.24.361,hesp_baseline,2021.2.3,Win32,118.4834123
,,,,,,,,,,,,,,,,,fretszek,fretszem,right,0.1674,0,85,85,66,1,121,fretszik,fretszel,NA,NA,Te bizony sokat fretszel.,Én is sokat...,fretszek,fretszem,lakik,-szik,1,PR2017,2001,nő,nem,2022-04-06_11h41.24.361,hesp_baseline,2021.2.3,Win32,118.4834123
,,,,,,,,,,,,,,,,,nivárzotok,nivároztok,right,0.0582,0,86,86,146,1,147,nivárzik / nivározik,"nivárzik, nivározni",tek,NA,"János imád nivározni, ezért sokat nivárzik.",Ti ritkán...,nivárzotok,nivároztok,cselekszik,-zik,2,PR2017,2001,nő,nem,2022-04-06_11h41.24.361,hesp_baseline,2021.2.3,Win32,118.4834123
,,,,,,,,,,,,,,,,,sztrozlom,sztrozlok,left,0.2596,0,87,87,104,1,159,sztrozlik,sztrozlasz,NA,NA,Te bizony sokat sztrozlasz.,Én is sokat...,sztrozlok,sztrozlom,lakik,-lik,1,PR2017,2001,nő,nem,2022-04-06_11h41.24.361,hesp_baseline,2021.2.3,Win32,118.4834123
,,,,,,,,,,,,,,,,,vodecnél,vodecnál,right,0.1633,0,88,88,30,1,139,vodec,vodec,nál,e,Ez itt egy vodec.,Nincs is jobb egy jó...,vodecnél,vodecnál,dzsungel,NA,NA,PR2017,2001,nő,nem,2022-04-06_11h41.24.361,hesp_baseline,2021.2.3,Win32,118.4834123
,,,,,,,,,,,,,,,,,vehékedünk,vehékszünk,right,6.733,0,89,89,117,1,118,vehékszik / vehékedik,"vehékszik, vehékedni",ünk,NA,"János imád vehékedni, ezért sokat vehékszik.",Mi ritkán...,vehékszünk,vehékedünk,cselekszik,-szik,2,PR2017,2001,nő,nem,2022-04-06_11h41.24.361,hesp_baseline,2021.2.3,Win32,118.4834123
,,,,,,,,,,,,,,,,,kláragodtok,kláragszotok,right,0.2921,0,90,90,123,1,124,kláragszik / kláragodik,"kláragszik, kláragodni",tek,NA,"János imád kláragodni, ezért sokat kláragszik.",Ti ritkán...,kláragszotok,kláragodtok,cselekszik,-szik,2,PR2017,2001,nő,nem,2022-04-06_11h41.24.361,hesp_baseline,2021.2.3,Win32,118.4834123
,,,,,,,,,,,,,,,,,spanélnél,spanélnál,left,2.78,0,91,91,24,1,133,spanél,spanél,nál,é,Ez itt egy spanél.,Nincs is jobb egy jó...,spanélnél,spanélnál,dzsungel,NA,NA,PR2017,2001,nő,nem,2022-04-06_11h41.24.361,hesp_baseline,2021.2.3,Win32,118.4834123
,,,,,,,,,,,,,,,,,trádlok,trádlom,right,0.8285,0,92,92,105,1,160,trádlik,trádlasz,NA,NA,Te bizony sokat trádlasz.,Én is sokat...,trádlok,trádlom,lakik,-lik,1,PR2017,2001,nő,nem,2022-04-06_11h41.24.361,hesp_baseline,2021.2.3,Win32,118.4834123
,,,,,,,,,,,,,,,,,pibegzenek,pibegeznek,right,0.1241,0,93,93,127,1,128,pibegzik / pibegezik,"pibegzik, pibegezni",nek,NA,"János imád pibegezni, ezért sokat pibegzik.",Ők ritkán...,pibegzenek,pibegeznek,cselekszik,-zik,2,PR2017,2001,nő,nem,2022-04-06_11h41.24.361,hesp_baseline,2021.2.3,Win32,118.4834123
,,,,,,,,,,,,,,,,,fliraklom,fliraklok,left,0.3175,0,94,94,98,1,153,fliraklik,fliraklasz,NA,NA,Te bizony sokat fliraklasz.,Én is sokat...,fliraklok,fliraklom,lakik,-lik,2,PR2017,2001,nő,nem,2022-04-06_11h41.24.361,hesp_baseline,2021.2.3,Win32,118.4834123
,,,,,,,,,,,,,,,,,flátlotok,flátoztok,right,2.4057,0,95,95,132,1,133,flátlik / flátozik,"flátlik, flátozni",tek,NA,"János imád flátozni, ezért sokat flátlik.",Ti ritkán...,flátlotok,flátoztok,cselekszik,-lik,1,PR2017,2001,nő,nem,2022-04-06_11h41.24.361,hesp_baseline,2021.2.3,Win32,118.4834123
,,,,,,,,,,,,,,,,,zsáderban,zsáderben,left,0.2484,0,96,96,25,1,134,zsáder,zsáder,ban,e,Ez itt egy zsáder.,Ott vagyunk a...,zsáderben,zsáderban,dzsungel,NA,NA,PR2017,2001,nő,nem,2022-04-06_11h41.24.361,hesp_baseline,2021.2.3,Win32,118.4834123
,,,,,,,,,,,,,,,,,pehégedtek,pehégszetek,left,0.175,0,97,97,151,1,152,pehégszik / pehégedik,"pehégszik, pehégedni",tek,NA,"János imád pehégedni, ezért sokat pehégszik.",Ti ritkán...,pehégszetek,pehégedtek,cselekszik,-szik,2,PR2017,2001,nő,nem,2022-04-06_11h41.24.361,hesp_baseline,2021.2.3,Win32,118.4834123
,,,,,,,,,,,,,,,,,virzanak,viroznak,right,0.0921,0,98,98,125,1,126,virzik / virozik,"virzik, virozni",nek,NA,"János imád virozni, ezért sokat virzik.",Ők ritkán...,virzanak,viroznak,cselekszik,-zik,1,PR2017,2001,nő,nem,2022-04-06_11h41.24.361,hesp_baseline,2021.2.3,Win32,118.4834123
,,,,,,,,,,,,,,,,,düjzöm,düjzök,right,0.5586,0,99,99,97,1,152,düjzik,düjzöl,NA,NA,Te bizony sokat düjzöl.,Én is sokat...,düjzök,düjzöm,lakik,-zik,1,PR2017,2001,nő,nem,2022-04-06_11h41.24.361,hesp_baseline,2021.2.3,Win32,118.4834123
,,,,,,,,,,,,,,,,,drivegeztek,drivegzetek,right,1.9427,0,100,100,112,1,113,drivegzik / drivegezik,"drivegzik, drivegezni",tek,NA,"János imád drivegezni, ezért sokat drivegzik.",Ti ritkán...,drivegzetek,drivegeztek,cselekszik,-zik,2,PR2017,2001,nő,nem,2022-04-06_11h41.24.361,hesp_baseline,2021.2.3,Win32,118.4834123
,,,,,,,,,,,,,,,,,spuménynek,spuménynak,left,0.1936,0,101,101,19,1,128,spumény,spumény,nak,é,Ez itt egy spumény.,Elneveztem a kutyámat...,spuménynek,spuménynak,dzsungel,NA,NA,PR2017,2001,nő,nem,2022-04-06_11h41.24.361,hesp_baseline,2021.2.3,Win32,118.4834123
,,,,,,,,,,,,,,,,,bidemben,bidemban,left,0.2497,0,102,102,2,1,111,bidem,bidem,ban,e,Ez itt egy bidem.,Ott vagyunk a...,bidemben,bidemban,dzsungel,NA,NA,PR2017,2001,nő,nem,2022-04-06_11h41.24.361,hesp_baseline,2021.2.3,Win32,118.4834123
,,,,,,,,,,,,,,,,,flöklötök,flököztök,right,3.885,0,103,103,121,1,122,flöklik / flöközik,"flöklik, flöközni",tek,NA,"János imád flöközni, ezért sokat flöklik.",Ti ritkán...,flöklötök,flököztök,cselekszik,-lik,1,PR2017,2001,nő,nem,2022-04-06_11h41.24.361,hesp_baseline,2021.2.3,Win32,118.4834123
,,,,,,,,,,,,,,,,,ibékszek,ibékszem,right,12.4931,0,104,104,95,1,150,ibékszik,ibékszel,NA,NA,Te bizony sokat ibékszel.,Én is sokat...,ibékszek,ibékszem,lakik,-szik,2,PR2017,2001,nő,nem,2022-04-06_11h41.24.361,hesp_baseline,2021.2.3,Win32,118.4834123
,,,,,,,,,,,,,,,,,trűnylenek,trűnyöznek,right,3.3893,0,105,105,119,1,120,trűnylik / trűnyözik,"trűnylik, trűnyözni",nek,NA,"János imád trűnyözni, ezért sokat trűnylik.",Ők ritkán...,trűnylenek,trűnyöznek,cselekszik,-lik,1,PR2017,2001,nő,nem,2022-04-06_11h41.24.361,hesp_baseline,2021.2.3,Win32,118.4834123
,,,,,,,,,,,,,,,,,trájegban,trájegben,right,9.4571,0,106,106,14,1,123,trájeg,trájeg,ban,e,Ez itt egy trájeg.,Ott vagyunk a...,trájegben,trájegban,dzsungel,NA,NA,PR2017,2001,nő,nem,2022-04-06_11h41.24.361,hesp_baseline,2021.2.3,Win32,118.4834123
,,,,,,,,,,,,,,,,,nyupérnél,nyupérnál,left,2.0866,0,107,107,52,1,161,nyupér,nyupér,nál,é,Ez itt egy nyupér.,Nincs is jobb egy jó...,nyupérnél,nyupérnál,dzsungel,NA,NA,PR2017,2001,nő,nem,2022-04-06_11h41.24.361,hesp_baseline,2021.2.3,Win32,118.4834123
,,,,,,,,,,,,,,,,,lismévban,lismévben,left,0.9379,0,108,108,0,1,109,lismév,lismév,ban,é,Ez itt egy lismév.,Ott vagyunk a...,lismévben,lismévban,dzsungel,NA,NA,PR2017,2001,nő,nem,2022-04-06_11h41.24.361,hesp_baseline,2021.2.3,Win32,118.4834123
,,,,,,,,,,,,,,,,,brűklötök,brűköztök,right,2.4506,0,109,109,153,1,154,brűklik / brűközik,"brűklik, brűközni",tek,NA,"János imád brűközni, ezért sokat brűklik.",Ti ritkán...,brűklötök,brűköztök,cselekszik,-lik,1,PR2017,2001,nő,nem,2022-04-06_11h41.24.361,hesp_baseline,2021.2.3,Win32,118.4834123
,,,,,,,,,,,,,,,,,vubletnél,vubletnál,right,1.1606,0,110,110,26,1,135,vublet,vublet,nál,e,Ez itt egy vublet.,Nincs is jobb egy jó...,vubletnél,vubletnál,dzsungel,NA,NA,PR2017,2001,nő,nem,2022-04-06_11h41.24.361,hesp_baseline,2021.2.3,Win32,118.4834123
,,,,,,,,,,,,,,,,,trapszegynál,trapszegynél,right,2.5695,0,111,111,39,1,148,trapszegy,trapszegy,nál,e,Ez itt egy trapszegy.,Nincs is jobb egy jó...,trapszegynél,trapszegynál,dzsungel,NA,NA,PR2017,2001,nő,nem,2022-04-06_11h41.24.361,hesp_baseline,2021.2.3,Win32,118.4834123
,,,,,,,,,,,,,,,,,vűjlök,vűjlöm,left,2.3793,0,112,112,94,1,149,vűjlik,vűjlesz,NA,NA,Te bizony sokat vűjlesz.,Én is sokat...,vűjlök,vűjlöm,lakik,-lik,1,PR2017,2001,nő,nem,2022-04-06_11h41.24.361,hesp_baseline,2021.2.3,Win32,118.4834123
,,,,,,,,,,,,,,,,,trivakszunk,trivakodunk,right,4.2411,0,113,113,118,1,119,trivakszik / trivakodik,"trivakszik, trivakodni",ünk,NA,"János imád trivakodni, ezért sokat trivakszik.",Mi ritkán...,trivakszunk,trivakodunk,cselekszik,-szik,2,PR2017,2001,nő,nem,2022-04-06_11h41.24.361,hesp_baseline,2021.2.3,Win32,118.4834123
,,,,,,,,,,,,,,,,,danétnél,danétnál,right,12.1507,0,114,114,38,1,147,danét,danét,nál,é,Ez itt egy danét.,Nincs is jobb egy jó...,danétnél,danétnál,dzsungel,NA,NA,PR2017,2001,nő,nem,2022-04-06_11h41.24.361,hesp_baseline,2021.2.3,Win32,118.4834123
,,,,,,,,,,,,,,,,,sűjözünk,sűjlünk,right,3.4738,0,115,115,128,1,129,sűjlik / sűjözik,"sűjlik, sűjözni",ünk,NA,"János imád sűjözni, ezért sokat sűjlik.",Mi ritkán...,sűjlünk,sűjözünk,cselekszik,-lik,1,PR2017,2001,nő,nem,2022-04-06_11h41.24.361,hesp_baseline,2021.2.3,Win32,118.4834123
,,,,,,,,,,,,,,,,,spibamlanak,spibamoznak,right,5.7015,0,116,116,142,1,143,spibamlik / spibamozik,"spibamlik, spibamozni",nek,NA,"János imád spibamozni, ezért sokat spibamlik.",Ők ritkán...,spibamlanak,spibamoznak,cselekszik,-lik,2,PR2017,2001,nő,nem,2022-04-06_11h41.24.361,hesp_baseline,2021.2.3,Win32,118.4834123
,,,,,,,,,,,,,,,,,szutendban,szutendben,left,7.2751,0,117,117,11,1,120,szutend,szutend,ban,e,Ez itt egy szutend.,Ott vagyunk a...,szutendben,szutendban,dzsungel,NA,NA,PR2017,2001,nő,nem,2022-04-06_11h41.24.361,hesp_baseline,2021.2.3,Win32,118.4834123
,,,,,,,,,,,,,,,,,lájoztok,lájzotok,right,8.7725,0,118,118,159,1,160,lájzik / lájozik,"lájzik, lájozni",tek,NA,"János imád lájozni, ezért sokat lájzik.",Ti ritkán...,lájzotok,lájoztok,cselekszik,-zik,1,PR2017,2001,nő,nem,2022-04-06_11h41.24.361,hesp_baseline,2021.2.3,Win32,118.4834123
,,,,,,,,,,,,,,,,,vurnelnek,vurnelnak,right,7.1343,0,119,119,50,1,159,vurnel,vurnel,nak,e,Ez itt egy vurnel.,Elneveztem a kutyámat...,vurnelnek,vurnelnak,dzsungel,NA,NA,PR2017,2001,nő,nem,2022-04-06_11h41.24.361,hesp_baseline,2021.2.3,Win32,118.4834123
,,,,,,,,,,,,,,,,,sprökszök,sprökszöm,right,13.0841,0,120,120,88,1,143,sprökszik,sprökszöl,NA,NA,Te bizony sokat sprökszöl.,Én is sokat...,sprökszök,sprökszöm,lakik,-szik,1,PR2017,2001,nő,nem,2022-04-06_11h41.24.361,hesp_baseline,2021.2.3,Win32,118.4834123
,,,,,,,,,,,,,,,,,pragányoztok,pragánylotok,right,5.7373,0,121,121,133,1,134,pragánylik / pragányozik,"pragánylik, pragányozni",tek,NA,"János imád pragányozni, ezért sokat pragánylik.",Ti ritkán...,pragánylotok,pragányoztok,cselekszik,-lik,2,PR2017,2001,nő,nem,2022-04-06_11h41.24.361,hesp_baseline,2021.2.3,Win32,118.4834123
,,,,,,,,,,,,,,,,,zábénynek,zábénynak,right,4.5122,0,122,122,43,1,152,zábény,zábény,nak,é,Ez itt egy zábény.,Elneveztem a kutyámat...,zábénynek,zábénynak,dzsungel,NA,NA,PR2017,2001,nő,nem,2022-04-06_11h41.24.361,hesp_baseline,2021.2.3,Win32,118.4834123
,,,,,,,,,,,,,,,,,hágyétnak,hágyétnek,right,5.4548,0,123,123,42,1,151,hágyét,hágyét,nak,é,Ez itt egy hágyét.,Elneveztem a kutyámat...,hágyétnek,hágyétnak,dzsungel,NA,NA,PR2017,2001,nő,nem,2022-04-06_11h41.24.361,hesp_baseline,2021.2.3,Win32,118.4834123
,,,,,,,,,,,,,,,,,klárzok,klárzom,right,6.3484,0,124,124,85,1,140,klárzik,klárzol,NA,NA,Te bizony sokat klárzol.,Én is sokat...,klárzok,klárzom,lakik,-zik,1,PR2017,2001,nő,nem,2022-04-06_11h41.24.361,hesp_baseline,2021.2.3,Win32,118.4834123
,,,,,,,,,,,,,,,,,spalároznak,spalárzanak,right,0.5083,0,125,125,137,1,138,spalárzik / spalározik,"spalárzik, spalározni",nek,NA,"János imád spalározni, ezért sokat spalárzik.",Ők ritkán...,spalárzanak,spalároznak,cselekszik,-zik,2,PR2017,2001,nő,nem,2022-04-06_11h41.24.361,hesp_baseline,2021.2.3,Win32,118.4834123
,,,,,,,,,,,,,,,,,zatéjnál,zatéjnél,right,16.074,0,126,126,34,1,143,zatéj,zatéj,nál,é,Ez itt egy zatéj.,Nincs is jobb egy jó...,zatéjnél,zatéjnál,dzsungel,NA,NA,PR2017,2001,nő,nem,2022-04-06_11h41.24.361,hesp_baseline,2021.2.3,Win32,118.4834123
,,,,,,,,,,,,,,,,,triképben,triképban,right,8.8733,0,127,127,33,1,142,trikép,trikép,ban,é,Ez itt egy trikép.,Ott vagyunk a...,triképben,triképban,dzsungel,NA,NA,PR2017,2001,nő,nem,2022-04-06_11h41.24.361,hesp_baseline,2021.2.3,Win32,118.4834123
,,,,,,,,,,,,,,,,,ronszekban,ronszekben,right,6.3307,0,128,128,18,1,127,ronszek,ronszek,ban,e,Ez itt egy ronszek.,Ott vagyunk a...,ronszekben,ronszekban,dzsungel,NA,NA,PR2017,2001,nő,nem,2022-04-06_11h41.24.361,hesp_baseline,2021.2.3,Win32,118.4834123
,,,,,,,,,,,,,,,,,piragszok,piragszom,right,18.4733,0,129,129,83,1,138,piragszik,piragszol,NA,NA,Te bizony sokat piragszol.,Én is sokat...,piragszok,piragszom,lakik,-szik,2,PR2017,2001,nő,nem,2022-04-06_11h41.24.361,hesp_baseline,2021.2.3,Win32,118.4834123
,,,,,,,,,,,,,,,,,sztrűkszök,sztrűkszöm,right,13.3671,0,130,130,77,1,132,sztrűkszik,sztrűkszöl,NA,NA,Te bizony sokat sztrűkszöl.,Én is sokat...,sztrűkszök,sztrűkszöm,lakik,-szik,1,PR2017,2001,nő,nem,2022-04-06_11h41.24.361,hesp_baseline,2021.2.3,Win32,118.4834123
,,,,,,,,,,,,,,,,,spirágoztok,spiráglotok,right,3.3152,0,131,131,135,1,136,spiráglik / spirágozik,"spiráglik, spirágozni",tek,NA,"János imád spirágozni, ezért sokat spiráglik.",Ti ritkán...,spiráglotok,spirágoztok,cselekszik,-lik,2,PR2017,2001,nő,nem,2022-04-06_11h41.24.361,hesp_baseline,2021.2.3,Win32,118.4834123
,,,,,,,,,,,,,,,,,dralágozunk,dralágzunk,right,0.323,0,132,132,156,1,157,dralágzik / dralágozik,"dralágzik, dralágozni",ünk,NA,"János imád dralágozni, ezért sokat dralágzik.",Mi ritkán...,dralágzunk,dralágozunk,cselekszik,-zik,2,PR2017,2001,nő,nem,2022-04-06_11h41.24.361,hesp_baseline,2021.2.3,Win32,118.4834123
,,,,,,,,,,,,,,,,,klosétnek,klosétnak,left,1.6909,0,133,133,45,1,154,klosét,klosét,nak,é,Ez itt egy klosét.,Elneveztem a kutyámat...,klosétnek,klosétnak,dzsungel,NA,NA,PR2017,2001,nő,nem,2022-04-06_11h41.24.361,hesp_baseline,2021.2.3,Win32,118.4834123
,,,,,,,,,,,,,,,,,trilekedtek,trilekszetek,left,0.3752,0,134,134,157,1,158,trilekszik / trilekedik,"trilekszik, trilekedni",tek,NA,"János imád trilekedni, ezért sokat trilekszik.",Ti ritkán...,trilekszetek,trilekedtek,cselekszik,-szik,2,PR2017,2001,nő,nem,2022-04-06_11h41.24.361,hesp_baseline,2021.2.3,Win32,118.4834123
,,,,,,,,,,,,,,,,,brotesben,brotesban,right,0.2587,0,135,135,53,1,162,brotes,brotes,ban,e,Ez itt egy brotes.,Ott vagyunk a...,brotesben,brotesban,dzsungel,NA,NA,PR2017,2001,nő,nem,2022-04-06_11h41.24.361,hesp_baseline,2021.2.3,Win32,118.4834123
,,,,,,,,,,,,,,,,,surnegynál,surnegynél,left,0.3073,0,136,136,8,1,117,surnegy,surnegy,nál,e,Ez itt egy surnegy.,Nincs is jobb egy jó...,surnegynél,surnegynál,dzsungel,NA,NA,PR2017,2001,nő,nem,2022-04-06_11h41.24.361,hesp_baseline,2021.2.3,Win32,118.4834123
,,,,,,,,,,,,,,,,,brivepedünk,brivepszünk,left,0.5096,0,137,137,113,1,114,brivepszik / brivepedik,"brivepszik, brivepedni",ünk,NA,"János imád brivepedni, ezért sokat brivepszik.",Mi ritkán...,brivepszünk,brivepedünk,cselekszik,-szik,2,PR2017,2001,nő,nem,2022-04-06_11h41.24.361,hesp_baseline,2021.2.3,Win32,118.4834123
,,,,,,,,,,,,,,,,,sprivencnél,sprivencnál,right,1.7017,0,138,138,13,1,122,sprivenc,sprivenc,nál,e,Ez itt egy sprivenc.,Nincs is jobb egy jó...,sprivencnél,sprivencnál,dzsungel,NA,NA,PR2017,2001,nő,nem,2022-04-06_11h41.24.361,hesp_baseline,2021.2.3,Win32,118.4834123
,,,,,,,,,,,,,,,,,zödlöm,zödlök,left,1.5607,0,139,139,106,1,161,zödlik,zödlesz,NA,NA,Te bizony sokat zödlesz.,Én is sokat...,zödlök,zödlöm,lakik,-lik,1,PR2017,2001,nő,nem,2022-04-06_11h41.24.361,hesp_baseline,2021.2.3,Win32,118.4834123
,,,,,,,,,,,,,,,,,vobzotok,voboztok,right,1.1096,0,140,140,158,1,159,vobzik / vobozik,"vobzik, vobozni",tek,NA,"János imád vobozni, ezért sokat vobzik.",Ti ritkán...,vobzotok,voboztok,cselekszik,-zik,1,PR2017,2001,nő,nem,2022-04-06_11h41.24.361,hesp_baseline,2021.2.3,Win32,118.4834123
,,,,,,,,,,,,,,,,,brálamlanak,brálamoznak,left,1.3767,0,141,141,144,1,145,brálamlik / brálamozik,"brálamlik, brálamozni",nek,NA,"János imád brálamozni, ezért sokat brálamlik.",Ők ritkán...,brálamlanak,brálamoznak,cselekszik,-lik,2,PR2017,2001,nő,nem,2022-04-06_11h41.24.361,hesp_baseline,2021.2.3,Win32,118.4834123
,,,,,,,,,,,,,,,,,mágamozunk,mágamlunk,right,3.6954,0,142,142,140,1,141,mágamlik / mágamozik,"mágamlik, mágamozni",ünk,NA,"János imád mágamozni, ezért sokat mágamlik.",Mi ritkán...,mágamlunk,mágamozunk,cselekszik,-lik,2,PR2017,2001,nő,nem,2022-04-06_11h41.24.361,hesp_baseline,2021.2.3,Win32,118.4834123
,,,,,,,,,,,,,,,,,sztruglom,sztruglok,right,1.4571,0,143,143,67,1,122,sztruglik,sztruglasz,NA,NA,Te bizony sokat sztruglasz.,Én is sokat...,sztruglok,sztruglom,lakik,-lik,1,PR2017,2001,nő,nem,2022-04-06_11h41.24.361,hesp_baseline,2021.2.3,Win32,118.4834123
,,,,,,,,,,,,,,,,,rájzom,rájzok,left,1.8378,0,144,144,70,1,125,rájzik,rájzol,NA,NA,Te bizony sokat rájzol.,Én is sokat...,rájzok,rájzom,lakik,-zik,1,PR2017,2001,nő,nem,2022-04-06_11h41.24.361,hesp_baseline,2021.2.3,Win32,118.4834123
,,,,,,,,,,,,,,,,,gerénylem,gerénylek,right,1.6438,0,145,145,99,1,154,gerénylik,gerénylesz,NA,NA,Te bizony sokat gerénylesz.,Én is sokat...,gerénylek,gerénylem,lakik,-lik,2,PR2017,2001,nő,nem,2022-04-06_11h41.24.361,hesp_baseline,2021.2.3,Win32,118.4834123
,,,,,,,,,,,,,,,,,bratároznak,bratárzanak,left,1.4844,0,146,146,108,1,109,bratárzik / bratározik,"bratárzik, bratározni",nek,NA,"János imád bratározni, ezért sokat bratárzik.",Ők ritkán...,bratárzanak,bratároznak,cselekszik,-zik,2,PR2017,2001,nő,nem,2022-04-06_11h41.24.361,hesp_baseline,2021.2.3,Win32,118.4834123
,,,,,,,,,,,,,,,,,brároznak,brárlanak,left,1.223,0,147,147,126,1,127,brárlik / brározik,"brárlik, brározni",nek,NA,"János imád brározni, ezért sokat brárlik.",Ők ritkán...,brárlanak,brároznak,cselekszik,-lik,1,PR2017,2001,nő,nem,2022-04-06_11h41.24.361,hesp_baseline,2021.2.3,Win32,118.4834123
,,,,,,,,,,,,,,,,,filányozunk,filánylunk,left,0.9765,0,148,148,134,1,135,filánylik / filányozik,"filánylik, filányozni",ünk,NA,"János imád filányozni, ezért sokat filánylik.",Mi ritkán...,filánylunk,filányozunk,cselekszik,-lik,2,PR2017,2001,nő,nem,2022-04-06_11h41.24.361,hesp_baseline,2021.2.3,Win32,118.4834123
,,,,,,,,,,,,,,,,,böjzöm,böjzök,left,0.3032,0,149,149,80,1,135,böjzik,böjzöl,NA,NA,Te bizony sokat böjzöl.,Én is sokat...,böjzök,böjzöm,lakik,-zik,1,PR2017,2001,nő,nem,2022-04-06_11h41.24.361,hesp_baseline,2021.2.3,Win32,118.4834123
,,,,,,,,,,,,,,,,,frilegszem,frilegszek,right,0.3198,0,150,150,72,1,127,frilegszik,frilegszel,NA,NA,Te bizony sokat frilegszel.,Én is sokat...,frilegszek,frilegszem,lakik,-szik,2,PR2017,2001,nő,nem,2022-04-06_11h41.24.361,hesp_baseline,2021.2.3,Win32,118.4834123
,,,,,,,,,,,,,,,,,trilszok,trilszom,right,17.1536,0,151,151,103,1,158,trilszik,trilszol,NA,NA,Te bizony sokat trilszol.,Én is sokat...,trilszok,trilszom,lakik,-szik,1,PR2017,2001,nő,nem,2022-04-06_11h41.24.361,hesp_baseline,2021.2.3,Win32,118.4834123
,,,,,,,,,,,,,,,,,plágadzom,plágadzok,right,4.5167,0,152,152,74,1,129,plágadzik,plágadzol,NA,NA,Te bizony sokat plágadzol.,Én is sokat...,plágadzok,plágadzom,lakik,-zik,2,PR2017,2001,nő,nem,2022-04-06_11h41.24.361,hesp_baseline,2021.2.3,Win32,118.4834123
,,,,,,,,,,,,,,,,,narjárzok,narjárzom,right,5.5594,0,153,153,61,1,116,narjárzik,narjárzol,NA,NA,Te bizony sokat narjárzol.,Én is sokat...,narjárzok,narjárzom,lakik,-zik,2,PR2017,2001,nő,nem,2022-04-06_11h41.24.361,hesp_baseline,2021.2.3,Win32,118.4834123
,,,,,,,,,,,,,,,,,nyarcéjnak,nyarcéjnek,right,0.5483,0,154,154,37,1,146,nyarcéj,nyarcéj,nak,é,Ez itt egy nyarcéj.,Elneveztem a kutyámat...,nyarcéjnek,nyarcéjnak,dzsungel,NA,NA,PR2017,2001,nő,nem,2022-04-06_11h41.24.361,hesp_baseline,2021.2.3,Win32,118.4834123
,,,,,,,,,,,,,,,,,féjzem,féjzek,right,0.2352,0,155,155,91,1,146,féjzik,féjzel,NA,NA,Te bizony sokat féjzel.,Én is sokat...,féjzek,féjzem,lakik,-zik,1,PR2017,2001,nő,nem,2022-04-06_11h41.24.361,hesp_baseline,2021.2.3,Win32,118.4834123
,,,,,,,,,,,,,,,,,brürzenek,brüröznek,right,1.8761,0,156,156,110,1,111,brürzik / brürözik,"brürzik, brürözni",nek,NA,"János imád brürözni, ezért sokat brürzik.",Ők ritkán...,brürzenek,brüröznek,cselekszik,-zik,1,PR2017,2001,nő,nem,2022-04-06_11h41.24.361,hesp_baseline,2021.2.3,Win32,118.4834123
,,,,,,,,,,,,,,,,,murdesnél,murdesnál,right,0.2816,0,157,157,47,1,156,murdes,murdes,nál,e,Ez itt egy murdes.,Nincs is jobb egy jó...,murdesnél,murdesnál,dzsungel,NA,NA,PR2017,2001,nő,nem,2022-04-06_11h41.24.361,hesp_baseline,2021.2.3,Win32,118.4834123
,,,,,,,,,,,,,,,,,pribagszok,pribagszom,left,0.5751,0,158,158,76,1,131,pribagszik,pribagszol,NA,NA,Te bizony sokat pribagszol.,Én is sokat...,pribagszok,pribagszom,lakik,-szik,2,PR2017,2001,nő,nem,2022-04-06_11h41.24.361,hesp_baseline,2021.2.3,Win32,118.4834123
,,,,,,,,,,,,,,,,,tínylok,tínylom,right,37.4409,0,159,159,58,1,113,tínylik,tínylasz,NA,NA,Te bizony sokat tínylasz.,Én is sokat...,tínylok,tínylom,lakik,-lik,1,PR2017,2001,nő,nem,2022-04-06_11h41.24.361,hesp_baseline,2021.2.3,Win32,118.4834123
,,,,,,,,,,,,,,,,,kléglünk,klégezünk,right,2.1341,0,160,160,122,1,123,kléglik / klégezik,"kléglik, klégezni",ünk,NA,"János imád klégezni, ezért sokat kléglik.",Mi ritkán...,kléglünk,klégezünk,cselekszik,-lik,1,PR2017,2001,nő,nem,2022-04-06_11h41.24.361,hesp_baseline,2021.2.3,Win32,118.4834123
,,,,,,,,,,,,,,,,,lumlotok,lumoztok,right,1.8793,0,161,161,149,1,150,lumlik / lumozik,"lumlik, lumozni",tek,NA,"János imád lumozni, ezért sokat lumlik.",Ti ritkán...,lumlotok,lumoztok,cselekszik,-lik,1,PR2017,2001,nő,nem,2022-04-06_11h41.24.361,hesp_baseline,2021.2.3,Win32,118.4834123
