my_list,key.keys,key.rt,key_2.keys,key_2.rt,keyboard_input_2.keys,keyboard_input_2.rt,key_3.keys,key_3.rt,keyboard_input_3.keys,keyboard_input_3.rt,key_4.keys,key_4.rt,keyboard_input_4.keys,keyboard_input_4.rt,key_5.keys,key_5.rt,my_button1,my_button2,keyboard_input.keys,keyboard_input.rt,withinBlock.thisRepN,withinBlock.thisTrialN,withinBlock.thisN,withinBlock.thisIndex,withinBlock.ran,rowname,word,prompt,suffix,vowel,carrier_sentence,target_sentence,target1,target2,category,derivational,nsyl,Azonosító,Melyik évben születtél?,Mi a nemed?,Tanultál nyelvészetet?,date,expName,psychopyVersion,OS,frameRate
list3.csv,space,32.462,space,14.3189,right,9.0336,space,12.6218,left,6.1865,space,8.4604,left,9.4521,space,14.8042,brüröznek,brürzenek,right,21.4993,0,0,0,110,1,111,brürzik / brürözik,"brürzik, brürözni",nek,NA,"János imád brürözni, ezért sokat brürzik.",Ők ritkán...,brürzenek,brüröznek,cselekszik,-zik,1,PR2014,2003,nő,nem,2022-04-05_16h00.00.192,hesp_baseline,2021.2.3,Win32,60.07449237
,,,,,,,,,,,,,,,,,treglek,treglem,left,9.4347,0,1,1,81,1,136,treglik,treglesz,NA,NA,Te bizony sokat treglesz.,Én is sokat...,treglek,treglem,lakik,-lik,1,PR2014,2003,nő,nem,2022-04-05_16h00.00.192,hesp_baseline,2021.2.3,Win32,60.07449237
,,,,,,,,,,,,,,,,,finceknál,finceknél,right,7.1433,0,2,2,9,1,118,fincek,fincek,nál,e,Ez itt egy fincek.,Nincs is jobb egy jó...,finceknél,finceknál,dzsungel,NA,NA,PR2014,2003,nő,nem,2022-04-05_16h00.00.192,hesp_baseline,2021.2.3,Win32,60.07449237
,,,,,,,,,,,,,,,,,féjzem,féjzek,right,5.3459,0,3,3,91,1,146,féjzik,féjzel,NA,NA,Te bizony sokat féjzel.,Én is sokat...,féjzek,féjzem,lakik,-zik,1,PR2014,2003,nő,nem,2022-04-05_16h00.00.192,hesp_baseline,2021.2.3,Win32,60.07449237
,,,,,,,,,,,,,,,,,ibékszek,ibékszem,right,3.4163,0,4,4,95,1,150,ibékszik,ibékszel,NA,NA,Te bizony sokat ibékszel.,Én is sokat...,ibékszek,ibékszem,lakik,-szik,2,PR2014,2003,nő,nem,2022-04-05_16h00.00.192,hesp_baseline,2021.2.3,Win32,60.07449237
,,,,,,,,,,,,,,,,,frálapodtok,frálapszotok,right,5.7628,0,5,5,150,1,151,frálapszik / frálapodik,"frálapszik, frálapodni",tek,NA,"János imád frálapodni, ezért sokat frálapszik.",Ti ritkán...,frálapszotok,frálapodtok,cselekszik,-szik,2,PR2014,2003,nő,nem,2022-04-05_16h00.00.192,hesp_baseline,2021.2.3,Win32,60.07449237
,,,,,,,,,,,,,,,,,briskédnál,briskédnél,right,5.0152,0,6,6,51,1,160,briskéd,briskéd,nál,é,Ez itt egy briskéd.,Nincs is jobb egy jó...,briskédnél,briskédnál,dzsungel,NA,NA,PR2014,2003,nő,nem,2022-04-05_16h00.00.192,hesp_baseline,2021.2.3,Win32,60.07449237
,,,,,,,,,,,,,,,,,zábénynak,zábénynek,right,16.3578,0,7,7,43,1,152,zábény,zábény,nak,é,Ez itt egy zábény.,Elneveztem a kutyámat...,zábénynek,zábénynak,dzsungel,NA,NA,PR2014,2003,nő,nem,2022-04-05_16h00.00.192,hesp_baseline,2021.2.3,Win32,60.07449237
,,,,,,,,,,,,,,,,,lájzotok,lájoztok,left,4.1414,0,8,8,159,1,160,lájzik / lájozik,"lájzik, lájozni",tek,NA,"János imád lájozni, ezért sokat lájzik.",Ti ritkán...,lájzotok,lájoztok,cselekszik,-zik,1,PR2014,2003,nő,nem,2022-04-05_16h00.00.192,hesp_baseline,2021.2.3,Win32,60.07449237
,,,,,,,,,,,,,,,,,bűtszök,bűtszöm,right,5.1196,0,9,9,82,1,137,bűtszik,bűtszöl,NA,NA,Te bizony sokat bűtszöl.,Én is sokat...,bűtszök,bűtszöm,lakik,-szik,1,PR2014,2003,nő,nem,2022-04-05_16h00.00.192,hesp_baseline,2021.2.3,Win32,60.07449237
,,,,,,,,,,,,,,,,,sprozoznak,sprozlanak,right,7.9098,0,10,10,147,1,148,sprozlik / sprozozik,"sprozlik, sprozozni",nek,NA,"János imád sprozozni, ezért sokat sprozlik.",Ők ritkán...,sprozlanak,sprozoznak,cselekszik,-lik,1,PR2014,2003,nő,nem,2022-04-05_16h00.00.192,hesp_baseline,2021.2.3,Win32,60.07449237
,,,,,,,,,,,,,,,,,pazévnél,pazévnál,right,6.7255,0,11,11,36,1,145,pazév,pazév,nál,é,Ez itt egy pazév.,Nincs is jobb egy jó...,pazévnél,pazévnál,dzsungel,NA,NA,PR2014,2003,nő,nem,2022-04-05_16h00.00.192,hesp_baseline,2021.2.3,Win32,60.07449237
,,,,,,,,,,,,,,,,,surnegynál,surnegynél,right,12.5766,0,12,12,8,1,117,surnegy,surnegy,nál,e,Ez itt egy surnegy.,Nincs is jobb egy jó...,surnegynél,surnegynál,dzsungel,NA,NA,PR2014,2003,nő,nem,2022-04-05_16h00.00.192,hesp_baseline,2021.2.3,Win32,60.07449237
,,,,,,,,,,,,,,,,,vihepszek,vihepszem,left,14.7863,0,13,13,59,1,114,vihepszik,vihepszel,NA,NA,Te bizony sokat vihepszel.,Én is sokat...,vihepszek,vihepszem,lakik,-szik,2,PR2014,2003,nő,nem,2022-04-05_16h00.00.192,hesp_baseline,2021.2.3,Win32,60.07449237
,,,,,,,,,,,,,,,,,licegyben,licegyban,right,5.5452,0,14,14,15,1,124,licegy,licegy,ban,e,Ez itt egy licegy.,Ott vagyunk a...,licegyben,licegyban,dzsungel,NA,NA,PR2014,2003,nő,nem,2022-04-05_16h00.00.192,hesp_baseline,2021.2.3,Win32,60.07449237
,,,,,,,,,,,,,,,,,sűjlünk,sűjözünk,left,6.4734,0,15,15,128,1,129,sűjlik / sűjözik,"sűjlik, sűjözni",ünk,NA,"János imád sűjözni, ezért sokat sűjlik.",Mi ritkán...,sűjlünk,sűjözünk,cselekszik,-lik,1,PR2014,2003,nő,nem,2022-04-05_16h00.00.192,hesp_baseline,2021.2.3,Win32,60.07449237
,,,,,,,,,,,,,,,,,sprökszöm,sprökszök,left,5.8425,0,16,16,88,1,143,sprökszik,sprökszöl,NA,NA,Te bizony sokat sprökszöl.,Én is sokat...,sprökszök,sprökszöm,lakik,-szik,1,PR2014,2003,nő,nem,2022-04-05_16h00.00.192,hesp_baseline,2021.2.3,Win32,60.07449237
,,,,,,,,,,,,,,,,,spüszlöm,spüszlök,right,4.4829,0,17,17,96,1,151,spüszlik,spüszlesz,NA,NA,Te bizony sokat spüszlesz.,Én is sokat...,spüszlök,spüszlöm,lakik,-lik,1,PR2014,2003,nő,nem,2022-04-05_16h00.00.192,hesp_baseline,2021.2.3,Win32,60.07449237
,,,,,,,,,,,,,,,,,tuboklok,tuboklom,left,3.6676,0,18,18,84,1,139,tuboklik,tuboklasz,NA,NA,Te bizony sokat tuboklasz.,Én is sokat...,tuboklok,tuboklom,lakik,-lik,2,PR2014,2003,nő,nem,2022-04-05_16h00.00.192,hesp_baseline,2021.2.3,Win32,60.07449237
,,,,,,,,,,,,,,,,,sprálszom,sprálszok,left,5.3394,0,19,19,65,1,120,sprálszik,sprálszol,NA,NA,Te bizony sokat sprálszol.,Én is sokat...,sprálszok,sprálszom,lakik,-szik,1,PR2014,2003,nő,nem,2022-04-05_16h00.00.192,hesp_baseline,2021.2.3,Win32,60.07449237
,,,,,,,,,,,,,,,,,bródesznak,bródesznek,right,3.3976,0,20,20,32,1,141,bródesz,bródesz,nak,e,Ez itt egy bródesz.,Elneveztem a kutyámat...,bródesznek,bródesznak,dzsungel,NA,NA,PR2014,2003,nő,nem,2022-04-05_16h00.00.192,hesp_baseline,2021.2.3,Win32,60.07449237
,,,,,,,,,,,,,,,,,tínylok,tínylom,left,3.3018,0,21,21,58,1,113,tínylik,tínylasz,NA,NA,Te bizony sokat tínylasz.,Én is sokat...,tínylok,tínylom,lakik,-lik,1,PR2014,2003,nő,nem,2022-04-05_16h00.00.192,hesp_baseline,2021.2.3,Win32,60.07449237
,,,,,,,,,,,,,,,,,szihétnek,szihétnak,left,3.098,0,22,22,4,1,113,szihét,szihét,nak,é,Ez itt egy szihét.,Elneveztem a kutyámat...,szihétnek,szihétnak,dzsungel,NA,NA,PR2014,2003,nő,nem,2022-04-05_16h00.00.192,hesp_baseline,2021.2.3,Win32,60.07449237
,,,,,,,,,,,,,,,,,plágadzok,plágadzom,right,3.7455,0,23,23,74,1,129,plágadzik,plágadzol,NA,NA,Te bizony sokat plágadzol.,Én is sokat...,plágadzok,plágadzom,lakik,-zik,2,PR2014,2003,nő,nem,2022-04-05_16h00.00.192,hesp_baseline,2021.2.3,Win32,60.07449237
,,,,,,,,,,,,,,,,,brároznak,brárlanak,right,6.6073,0,24,24,126,1,127,brárlik / brározik,"brárlik, brározni",nek,NA,"János imád brározni, ezért sokat brárlik.",Ők ritkán...,brárlanak,brároznak,cselekszik,-lik,1,PR2014,2003,nő,nem,2022-04-05_16h00.00.192,hesp_baseline,2021.2.3,Win32,60.07449237
,,,,,,,,,,,,,,,,,pribagszom,pribagszok,left,4.3518,0,25,25,76,1,131,pribagszik,pribagszol,NA,NA,Te bizony sokat pribagszol.,Én is sokat...,pribagszok,pribagszom,lakik,-szik,2,PR2014,2003,nő,nem,2022-04-05_16h00.00.192,hesp_baseline,2021.2.3,Win32,60.07449237
,,,,,,,,,,,,,,,,,trehégszem,trehégszek,left,3.0372,0,26,26,86,1,141,trehégszik,trehégszel,NA,NA,Te bizony sokat trehégszel.,Én is sokat...,trehégszek,trehégszem,lakik,-szik,2,PR2014,2003,nő,nem,2022-04-05_16h00.00.192,hesp_baseline,2021.2.3,Win32,60.07449237
,,,,,,,,,,,,,,,,,vehékszünk,vehékedünk,left,5.1808,0,27,27,117,1,118,vehékszik / vehékedik,"vehékszik, vehékedni",ünk,NA,"János imád vehékedni, ezért sokat vehékszik.",Mi ritkán...,vehékszünk,vehékedünk,cselekszik,-szik,2,PR2014,2003,nő,nem,2022-04-05_16h00.00.192,hesp_baseline,2021.2.3,Win32,60.07449237
,,,,,,,,,,,,,,,,,trilszom,trilszok,right,3.2322,0,28,28,103,1,158,trilszik,trilszol,NA,NA,Te bizony sokat trilszol.,Én is sokat...,trilszok,trilszom,lakik,-szik,1,PR2014,2003,nő,nem,2022-04-05_16h00.00.192,hesp_baseline,2021.2.3,Win32,60.07449237
,,,,,,,,,,,,,,,,,sprivencnál,sprivencnél,right,3.3341,0,29,29,13,1,122,sprivenc,sprivenc,nál,e,Ez itt egy sprivenc.,Nincs is jobb egy jó...,sprivencnél,sprivencnál,dzsungel,NA,NA,PR2014,2003,nő,nem,2022-04-05_16h00.00.192,hesp_baseline,2021.2.3,Win32,60.07449237
,,,,,,,,,,,,,,,,,mágamlunk,mágamozunk,right,9.7107,0,30,30,140,1,141,mágamlik / mágamozik,"mágamlik, mágamozni",ünk,NA,"János imád mágamozni, ezért sokat mágamlik.",Mi ritkán...,mágamlunk,mágamozunk,cselekszik,-lik,2,PR2014,2003,nő,nem,2022-04-05_16h00.00.192,hesp_baseline,2021.2.3,Win32,60.07449237
,,,,,,,,,,,,,,,,,gótemnak,gótemnek,right,2.3372,0,31,31,35,1,144,gótem,gótem,nak,e,Ez itt egy gótem.,Elneveztem a kutyámat...,gótemnek,gótemnak,dzsungel,NA,NA,PR2014,2003,nő,nem,2022-04-05_16h00.00.192,hesp_baseline,2021.2.3,Win32,60.07449237
,,,,,,,,,,,,,,,,,klégezünk,kléglünk,right,9.2838,0,32,32,122,1,123,kléglik / klégezik,"kléglik, klégezni",ünk,NA,"János imád klégezni, ezért sokat kléglik.",Mi ritkán...,kléglünk,klégezünk,cselekszik,-lik,1,PR2014,2003,nő,nem,2022-04-05_16h00.00.192,hesp_baseline,2021.2.3,Win32,60.07449237
,,,,,,,,,,,,,,,,,nyáslok,nyáslom,left,5.0305,0,33,33,100,1,155,nyáslik,nyáslasz,NA,NA,Te bizony sokat nyáslasz.,Én is sokat...,nyáslok,nyáslom,lakik,-lik,1,PR2014,2003,nő,nem,2022-04-05_16h00.00.192,hesp_baseline,2021.2.3,Win32,60.07449237
,,,,,,,,,,,,,,,,,hágyétnek,hágyétnak,left,4.8371,0,34,34,42,1,151,hágyét,hágyét,nak,é,Ez itt egy hágyét.,Elneveztem a kutyámat...,hágyétnek,hágyétnak,dzsungel,NA,NA,PR2014,2003,nő,nem,2022-04-05_16h00.00.192,hesp_baseline,2021.2.3,Win32,60.07449237
,,,,,,,,,,,,,,,,,vűjlök,vűjlöm,left,3.195,0,35,35,94,1,149,vűjlik,vűjlesz,NA,NA,Te bizony sokat vűjlesz.,Én is sokat...,vűjlök,vűjlöm,lakik,-lik,1,PR2014,2003,nő,nem,2022-04-05_16h00.00.192,hesp_baseline,2021.2.3,Win32,60.07449237
,,,,,,,,,,,,,,,,,trálakoznak,trálaklanak,left,4.1645,0,36,36,116,1,117,trálaklik / trálakozik,"trálaklik, trálakozni",nek,NA,"János imád trálakozni, ezért sokat trálaklik.",Ők ritkán...,trálaklanak,trálakoznak,cselekszik,-lik,2,PR2014,2003,nő,nem,2022-04-05_16h00.00.192,hesp_baseline,2021.2.3,Win32,60.07449237
,,,,,,,,,,,,,,,,,brálamoznak,brálamlanak,right,7.4801,0,37,37,144,1,145,brálamlik / brálamozik,"brálamlik, brálamozni",nek,NA,"János imád brálamozni, ezért sokat brálamlik.",Ők ritkán...,brálamlanak,brálamoznak,cselekszik,-lik,2,PR2014,2003,nő,nem,2022-04-05_16h00.00.192,hesp_baseline,2021.2.3,Win32,60.07449237
,,,,,,,,,,,,,,,,,pijélnál,pijélnél,right,2.9384,0,38,38,3,1,112,pijél,pijél,nál,é,Ez itt egy pijél.,Nincs is jobb egy jó...,pijélnél,pijélnál,dzsungel,NA,NA,PR2014,2003,nő,nem,2022-04-05_16h00.00.192,hesp_baseline,2021.2.3,Win32,60.07449237
,,,,,,,,,,,,,,,,,trűnylenek,trűnyöznek,left,3.471,0,39,39,119,1,120,trűnylik / trűnyözik,"trűnylik, trűnyözni",nek,NA,"János imád trűnyözni, ezért sokat trűnylik.",Ők ritkán...,trűnylenek,trűnyöznek,cselekszik,-lik,1,PR2014,2003,nő,nem,2022-04-05_16h00.00.192,hesp_baseline,2021.2.3,Win32,60.07449237
,,,,,,,,,,,,,,,,,dibezben,dibezban,left,4.4848,0,40,40,27,1,136,dibez,dibez,ban,e,Ez itt egy dibez.,Ott vagyunk a...,dibezben,dibezban,dzsungel,NA,NA,PR2014,2003,nő,nem,2022-04-05_16h00.00.192,hesp_baseline,2021.2.3,Win32,60.07449237
,,,,,,,,,,,,,,,,,brukésznál,brukésznél,left,4.0675,0,41,41,10,1,119,brukész,brukész,nál,é,Ez itt egy brukész.,Nincs is jobb egy jó...,brukésznél,brukésznál,dzsungel,NA,NA,PR2014,2003,nő,nem,2022-04-05_16h00.00.192,hesp_baseline,2021.2.3,Win32,60.07449237
,,,,,,,,,,,,,,,,,dalencnál,dalencnél,left,2.5348,0,42,42,31,1,140,dalenc,dalenc,nál,e,Ez itt egy dalenc.,Nincs is jobb egy jó...,dalencnél,dalencnál,dzsungel,NA,NA,PR2014,2003,nő,nem,2022-04-05_16h00.00.192,hesp_baseline,2021.2.3,Win32,60.07449237
,,,,,,,,,,,,,,,,,lumlotok,lumoztok,left,4.3319,0,43,43,149,1,150,lumlik / lumozik,"lumlik, lumozni",tek,NA,"János imád lumozni, ezért sokat lumlik.",Ti ritkán...,lumlotok,lumoztok,cselekszik,-lik,1,PR2014,2003,nő,nem,2022-04-05_16h00.00.192,hesp_baseline,2021.2.3,Win32,60.07449237
,,,,,,,,,,,,,,,,,drubódzom,drubódzok,left,3.7481,0,44,44,63,1,118,drubódzik,drubódzol,NA,NA,Te bizony sokat drubódzol.,Én is sokat...,drubódzok,drubódzom,lakik,-zik,2,PR2014,2003,nő,nem,2022-04-05_16h00.00.192,hesp_baseline,2021.2.3,Win32,60.07449237
,,,,,,,,,,,,,,,,,flököztök,flöklötök,left,4.5952,0,45,45,121,1,122,flöklik / flöközik,"flöklik, flöközni",tek,NA,"János imád flöközni, ezért sokat flöklik.",Ti ritkán...,flöklötök,flököztök,cselekszik,-lik,1,PR2014,2003,nő,nem,2022-04-05_16h00.00.192,hesp_baseline,2021.2.3,Win32,60.07449237
,,,,,,,,,,,,,,,,,trilekedtek,trilekszetek,right,4.1269,0,46,46,157,1,158,trilekszik / trilekedik,"trilekszik, trilekedni",tek,NA,"János imád trilekedni, ezért sokat trilekszik.",Ti ritkán...,trilekszetek,trilekedtek,cselekszik,-szik,2,PR2014,2003,nő,nem,2022-04-05_16h00.00.192,hesp_baseline,2021.2.3,Win32,60.07449237
,,,,,,,,,,,,,,,,,trikoztok,triklotok,right,4.1352,0,47,47,160,1,161,triklik / trikozik,"triklik, trikozni",tek,NA,"János imád trikozni, ezért sokat triklik.",Ti ritkán...,triklotok,trikoztok,cselekszik,-lik,1,PR2014,2003,nő,nem,2022-04-05_16h00.00.192,hesp_baseline,2021.2.3,Win32,60.07449237
,,,,,,,,,,,,,,,,,trapszegynál,trapszegynél,right,3.7329,0,48,48,39,1,148,trapszegy,trapszegy,nál,e,Ez itt egy trapszegy.,Nincs is jobb egy jó...,trapszegynél,trapszegynál,dzsungel,NA,NA,PR2014,2003,nő,nem,2022-04-05_16h00.00.192,hesp_baseline,2021.2.3,Win32,60.07449237
,,,,,,,,,,,,,,,,,kláragodtok,kláragszotok,right,7.4645,0,49,49,123,1,124,kláragszik / kláragodik,"kláragszik, kláragodni",tek,NA,"János imád kláragodni, ezért sokat kláragszik.",Ti ritkán...,kláragszotok,kláragodtok,cselekszik,-szik,2,PR2014,2003,nő,nem,2022-04-05_16h00.00.192,hesp_baseline,2021.2.3,Win32,60.07449237
,,,,,,,,,,,,,,,,,sztrozlok,sztrozlom,left,3.4336,0,50,50,104,1,159,sztrozlik,sztrozlasz,NA,NA,Te bizony sokat sztrozlasz.,Én is sokat...,sztrozlok,sztrozlom,lakik,-lik,1,PR2014,2003,nő,nem,2022-04-05_16h00.00.192,hesp_baseline,2021.2.3,Win32,60.07449237
,,,,,,,,,,,,,,,,,nágapszanak,nágapodnak,left,3.7446,0,51,51,152,1,153,nágapszik / nágapodik,"nágapszik, nágapodni",nek,NA,"János imád nágapodni, ezért sokat nágapszik.",Ők ritkán...,nágapszanak,nágapodnak,cselekszik,-szik,2,PR2014,2003,nő,nem,2022-04-05_16h00.00.192,hesp_baseline,2021.2.3,Win32,60.07449237
,,,,,,,,,,,,,,,,,vurnelnek,vurnelnak,left,1.9668,0,52,52,50,1,159,vurnel,vurnel,nak,e,Ez itt egy vurnel.,Elneveztem a kutyámat...,vurnelnek,vurnelnak,dzsungel,NA,NA,PR2014,2003,nő,nem,2022-04-05_16h00.00.192,hesp_baseline,2021.2.3,Win32,60.07449237
,,,,,,,,,,,,,,,,,böjzök,böjzöm,left,2.366,0,53,53,80,1,135,böjzik,böjzöl,NA,NA,Te bizony sokat böjzöl.,Én is sokat...,böjzök,böjzöm,lakik,-zik,1,PR2014,2003,nő,nem,2022-04-05_16h00.00.192,hesp_baseline,2021.2.3,Win32,60.07449237
,,,,,,,,,,,,,,,,,sztruglom,sztruglok,right,2.2397,0,54,54,67,1,122,sztruglik,sztruglasz,NA,NA,Te bizony sokat sztruglasz.,Én is sokat...,sztruglok,sztruglom,lakik,-lik,1,PR2014,2003,nő,nem,2022-04-05_16h00.00.192,hesp_baseline,2021.2.3,Win32,60.07449237
,,,,,,,,,,,,,,,,,frilegszek,frilegszem,right,2.3676,0,55,55,72,1,127,frilegszik,frilegszel,NA,NA,Te bizony sokat frilegszel.,Én is sokat...,frilegszek,frilegszem,lakik,-szik,2,PR2014,2003,nő,nem,2022-04-05_16h00.00.192,hesp_baseline,2021.2.3,Win32,60.07449237
,,,,,,,,,,,,,,,,,tűgöztök,tűgzötök,right,9.7397,0,56,56,143,1,144,tűgzik / tűgözik,"tűgzik, tűgözni",tek,NA,"János imád tűgözni, ezért sokat tűgzik.",Ti ritkán...,tűgzötök,tűgöztök,cselekszik,-zik,1,PR2014,2003,nő,nem,2022-04-05_16h00.00.192,hesp_baseline,2021.2.3,Win32,60.07449237
,,,,,,,,,,,,,,,,,prínylok,prínylom,left,3.914,0,57,57,102,1,157,prínylik,prínylasz,NA,NA,Te bizony sokat prínylasz.,Én is sokat...,prínylok,prínylom,lakik,-lik,1,PR2014,2003,nő,nem,2022-04-05_16h00.00.192,hesp_baseline,2021.2.3,Win32,60.07449237
,,,,,,,,,,,,,,,,,danétnál,danétnél,left,2.5198,0,58,58,38,1,147,danét,danét,nál,é,Ez itt egy danét.,Nincs is jobb egy jó...,danétnél,danétnál,dzsungel,NA,NA,PR2014,2003,nő,nem,2022-04-05_16h00.00.192,hesp_baseline,2021.2.3,Win32,60.07449237
,,,,,,,,,,,,,,,,,brivepszünk,brivepedünk,left,3.1013,0,59,59,113,1,114,brivepszik / brivepedik,"brivepszik, brivepedni",ünk,NA,"János imád brivepedni, ezért sokat brivepszik.",Mi ritkán...,brivepszünk,brivepedünk,cselekszik,-szik,2,PR2014,2003,nő,nem,2022-04-05_16h00.00.192,hesp_baseline,2021.2.3,Win32,60.07449237
,,,,,,,,,,,,,,,,,gibemlünk,gibemezünk,left,3.7404,0,60,60,115,1,116,gibemlik / gibemezik,"gibemlik, gibemezni",ünk,NA,"János imád gibemezni, ezért sokat gibemlik.",Mi ritkán...,gibemlünk,gibemezünk,cselekszik,-lik,2,PR2014,2003,nő,nem,2022-04-05_16h00.00.192,hesp_baseline,2021.2.3,Win32,60.07449237
,,,,,,,,,,,,,,,,,düjzöm,düjzök,left,2.6127,0,61,61,97,1,152,düjzik,düjzöl,NA,NA,Te bizony sokat düjzöl.,Én is sokat...,düjzök,düjzöm,lakik,-zik,1,PR2014,2003,nő,nem,2022-04-05_16h00.00.192,hesp_baseline,2021.2.3,Win32,60.07449237
,,,,,,,,,,,,,,,,,braszencnél,braszencnál,left,4.8557,0,62,62,7,1,116,braszenc,braszenc,nál,e,Ez itt egy braszenc.,Nincs is jobb egy jó...,braszencnél,braszencnál,dzsungel,NA,NA,PR2014,2003,nő,nem,2022-04-05_16h00.00.192,hesp_baseline,2021.2.3,Win32,60.07449237
,,,,,,,,,,,,,,,,,trugokoznak,trugoklanak,right,3.6138,0,63,63,109,1,110,trugoklik / trugokozik,"trugoklik, trugokozni",nek,NA,"János imád trugokozni, ezért sokat trugoklik.",Ők ritkán...,trugoklanak,trugokoznak,cselekszik,-lik,2,PR2014,2003,nő,nem,2022-04-05_16h00.00.192,hesp_baseline,2021.2.3,Win32,60.07449237
,,,,,,,,,,,,,,,,,klibamlom,klibamlok,right,4.3449,0,64,64,92,1,147,klibamlik,klibamlasz,NA,NA,Te bizony sokat klibamlasz.,Én is sokat...,klibamlok,klibamlom,lakik,-lik,2,PR2014,2003,nő,nem,2022-04-05_16h00.00.192,hesp_baseline,2021.2.3,Win32,60.07449237
,,,,,,,,,,,,,,,,,klárzom,klárzok,right,3.6543,0,65,65,85,1,140,klárzik,klárzol,NA,NA,Te bizony sokat klárzol.,Én is sokat...,klárzok,klárzom,lakik,-zik,1,PR2014,2003,nő,nem,2022-04-05_16h00.00.192,hesp_baseline,2021.2.3,Win32,60.07449237
,,,,,,,,,,,,,,,,,spülőrzöm,spülőrzök,right,5.385,0,66,66,69,1,124,spülőrzik,spülőrzöl,NA,NA,Te bizony sokat spülőrzöl.,Én is sokat...,spülőrzök,spülőrzöm,lakik,-zik,2,PR2014,2003,nő,nem,2022-04-05_16h00.00.192,hesp_baseline,2021.2.3,Win32,60.07449237
,,,,,,,,,,,,,,,,,dorzéjnek,dorzéjnak,right,2.5463,0,67,67,29,1,138,dorzéj,dorzéj,nak,é,Ez itt egy dorzéj.,Elneveztem a kutyámat...,dorzéjnek,dorzéjnak,dzsungel,NA,NA,PR2014,2003,nő,nem,2022-04-05_16h00.00.192,hesp_baseline,2021.2.3,Win32,60.07449237
,,,,,,,,,,,,,,,,,spülöklök,spülöklöm,left,2.9885,0,68,68,56,1,111,spülöklik,spülöklesz,NA,NA,Te bizony sokat spülöklesz.,Én is sokat...,spülöklök,spülöklöm,lakik,-lik,2,PR2014,2003,nő,nem,2022-04-05_16h00.00.192,hesp_baseline,2021.2.3,Win32,60.07449237
,,,,,,,,,,,,,,,,,spuborzanak,spuboroznak,left,6.0295,0,69,69,161,1,162,spuborzik / spuborozik,"spuborzik, spuborozni",nek,NA,"János imád spuborozni, ezért sokat spuborzik.",Ők ritkán...,spuborzanak,spuboroznak,cselekszik,-zik,2,PR2014,2003,nő,nem,2022-04-05_16h00.00.192,hesp_baseline,2021.2.3,Win32,60.07449237
,,,,,,,,,,,,,,,,,bratároznak,bratárzanak,right,7.0553,0,70,70,108,1,109,bratárzik / bratározik,"bratárzik, bratározni",nek,NA,"János imád bratározni, ezért sokat bratárzik.",Ők ritkán...,bratárzanak,bratároznak,cselekszik,-zik,2,PR2014,2003,nő,nem,2022-04-05_16h00.00.192,hesp_baseline,2021.2.3,Win32,60.07449237
,,,,,,,,,,,,,,,,,jurdentnél,jurdentnál,left,4.0145,0,71,71,16,1,125,jurdent,jurdent,nál,e,Ez itt egy jurdent.,Nincs is jobb egy jó...,jurdentnél,jurdentnál,dzsungel,NA,NA,PR2014,2003,nő,nem,2022-04-05_16h00.00.192,hesp_baseline,2021.2.3,Win32,60.07449237
,,,,,,,,,,,,,,,,,kábesznál,kábesznél,left,2.356,0,72,72,44,1,153,kábesz,kábesz,nál,e,Ez itt egy kábesz.,Nincs is jobb egy jó...,kábesznél,kábesznál,dzsungel,NA,NA,PR2014,2003,nő,nem,2022-04-05_16h00.00.192,hesp_baseline,2021.2.3,Win32,60.07449237
,,,,,,,,,,,,,,,,,triképban,triképben,right,3.7127,0,73,73,33,1,142,trikép,trikép,ban,é,Ez itt egy trikép.,Ott vagyunk a...,triképben,triképban,dzsungel,NA,NA,PR2014,2003,nő,nem,2022-04-05_16h00.00.192,hesp_baseline,2021.2.3,Win32,60.07449237
,,,,,,,,,,,,,,,,,mülőrzünk,mülőrözünk,right,4.9478,0,74,74,120,1,121,mülőrzik / mülőrözik,"mülőrzik, mülőrözni",ünk,NA,"János imád mülőrözni, ezért sokat mülőrzik.",Mi ritkán...,mülőrzünk,mülőrözünk,cselekszik,-zik,2,PR2014,2003,nő,nem,2022-04-05_16h00.00.192,hesp_baseline,2021.2.3,Win32,60.07449237
,,,,,,,,,,,,,,,,,spiráglotok,spirágoztok,left,6.4313,0,75,75,135,1,136,spiráglik / spirágozik,"spiráglik, spirágozni",tek,NA,"János imád spirágozni, ezért sokat spiráglik.",Ti ritkán...,spiráglotok,spirágoztok,cselekszik,-lik,2,PR2014,2003,nő,nem,2022-04-05_16h00.00.192,hesp_baseline,2021.2.3,Win32,60.07449237
,,,,,,,,,,,,,,,,,zatéjnél,zatéjnál,right,2.2822,0,76,76,34,1,143,zatéj,zatéj,nál,é,Ez itt egy zatéj.,Nincs is jobb egy jó...,zatéjnél,zatéjnál,dzsungel,NA,NA,PR2014,2003,nő,nem,2022-04-05_16h00.00.192,hesp_baseline,2021.2.3,Win32,60.07449237
,,,,,,,,,,,,,,,,,lűköznek,lűklenek,right,2.5962,0,77,77,136,1,137,lűklik / lűközik,"lűklik, lűközni",nek,NA,"János imád lűközni, ezért sokat lűklik.",Ők ritkán...,lűklenek,lűköznek,cselekszik,-lik,1,PR2014,2003,nő,nem,2022-04-05_16h00.00.192,hesp_baseline,2021.2.3,Win32,60.07449237
,,,,,,,,,,,,,,,,,filánylunk,filányozunk,left,3.1498,0,78,78,134,1,135,filánylik / filányozik,"filánylik, filányozni",ünk,NA,"János imád filányozni, ezért sokat filánylik.",Mi ritkán...,filánylunk,filányozunk,cselekszik,-lik,2,PR2014,2003,nő,nem,2022-04-05_16h00.00.192,hesp_baseline,2021.2.3,Win32,60.07449237
,,,,,,,,,,,,,,,,,tibaroznak,tibarzanak,right,5.211,0,79,79,155,1,156,tibarzik / tibarozik,"tibarzik, tibarozni",nek,NA,"János imád tibarozni, ezért sokat tibarzik.",Ők ritkán...,tibarzanak,tibaroznak,cselekszik,-zik,2,PR2014,2003,nő,nem,2022-04-05_16h00.00.192,hesp_baseline,2021.2.3,Win32,60.07449237
,,,,,,,,,,,,,,,,,hűgzöm,hűgzök,left,2.752,0,80,80,107,1,162,hűgzik,hűgzöl,NA,NA,Te bizony sokat hűgzöl.,Én is sokat...,hűgzök,hűgzöm,lakik,-zik,1,PR2014,2003,nő,nem,2022-04-05_16h00.00.192,hesp_baseline,2021.2.3,Win32,60.07449237
,,,,,,,,,,,,,,,,,sartelyban,sartelyben,right,14.9538,0,81,81,40,1,149,sartely,sartely,ban,e,Ez itt egy sartely.,Ott vagyunk a...,sartelyben,sartelyban,dzsungel,NA,NA,PR2014,2003,nő,nem,2022-04-05_16h00.00.192,hesp_baseline,2021.2.3,Win32,60.07449237
,,,,,,,,,,,,,,,,,brilegzünk,brilegezünk,left,3.5018,0,82,82,124,1,125,brilegzik / brilegezik,"brilegzik, brilegezni",ünk,NA,"János imád brilegezni, ezért sokat brilegzik.",Mi ritkán...,brilegzünk,brilegezünk,cselekszik,-zik,2,PR2014,2003,nő,nem,2022-04-05_16h00.00.192,hesp_baseline,2021.2.3,Win32,60.07449237
,,,,,,,,,,,,,,,,,flugonyoznak,flugonylanak,right,3.5609,0,83,83,111,1,112,flugonylik / flugonyozik,"flugonylik, flugonyozni",nek,NA,"János imád flugonyozni, ezért sokat flugonylik.",Ők ritkán...,flugonylanak,flugonyoznak,cselekszik,-lik,2,PR2014,2003,nő,nem,2022-04-05_16h00.00.192,hesp_baseline,2021.2.3,Win32,60.07449237
,,,,,,,,,,,,,,,,,prűrlök,prűrlöm,right,2.6319,0,84,84,75,1,130,prűrlik,prűrlesz,NA,NA,Te bizony sokat prűrlesz.,Én is sokat...,prűrlök,prűrlöm,lakik,-lik,1,PR2014,2003,nő,nem,2022-04-05_16h00.00.192,hesp_baseline,2021.2.3,Win32,60.07449237
,,,,,,,,,,,,,,,,,spuménynak,spuménynek,right,2.484,0,85,85,19,1,128,spumény,spumény,nak,é,Ez itt egy spumény.,Elneveztem a kutyámat...,spuménynek,spuménynak,dzsungel,NA,NA,PR2014,2003,nő,nem,2022-04-05_16h00.00.192,hesp_baseline,2021.2.3,Win32,60.07449237
,,,,,,,,,,,,,,,,,gicéjnél,gicéjnál,left,2.7076,0,86,86,17,1,126,gicéj,gicéj,nál,é,Ez itt egy gicéj.,Nincs is jobb egy jó...,gicéjnél,gicéjnál,dzsungel,NA,NA,PR2014,2003,nő,nem,2022-04-05_16h00.00.192,hesp_baseline,2021.2.3,Win32,60.07449237
,,,,,,,,,,,,,,,,,sztritlanak,sztritoznak,left,2.4905,0,87,87,154,1,155,sztritlik / sztritozik,"sztritlik, sztritozni",nek,NA,"János imád sztritozni, ezért sokat sztritlik.",Ők ritkán...,sztritlanak,sztritoznak,cselekszik,-lik,1,PR2014,2003,nő,nem,2022-04-05_16h00.00.192,hesp_baseline,2021.2.3,Win32,60.07449237
,,,,,,,,,,,,,,,,,huméknak,huméknek,left,2.5006,0,88,88,23,1,132,humék,humék,nak,é,Ez itt egy humék.,Elneveztem a kutyámat...,huméknek,huméknak,dzsungel,NA,NA,PR2014,2003,nő,nem,2022-04-05_16h00.00.192,hesp_baseline,2021.2.3,Win32,60.07449237
,,,,,,,,,,,,,,,,,bupézban,bupézben,left,2.102,0,89,89,48,1,157,bupéz,bupéz,ban,é,Ez itt egy bupéz.,Ott vagyunk a...,bupézben,bupézban,dzsungel,NA,NA,PR2014,2003,nő,nem,2022-04-05_16h00.00.192,hesp_baseline,2021.2.3,Win32,60.07449237
,,,,,,,,,,,,,,,,,bidemben,bidemban,left,2.936,0,90,90,2,1,111,bidem,bidem,ban,e,Ez itt egy bidem.,Ott vagyunk a...,bidemben,bidemban,dzsungel,NA,NA,PR2014,2003,nő,nem,2022-04-05_16h00.00.192,hesp_baseline,2021.2.3,Win32,60.07449237
,,,,,,,,,,,,,,,,,dralágozunk,dralágzunk,right,4.9192,0,91,91,156,1,157,dralágzik / dralágozik,"dralágzik, dralágozni",ünk,NA,"János imád dralágozni, ezért sokat dralágzik.",Mi ritkán...,dralágzunk,dralágozunk,cselekszik,-zik,2,PR2014,2003,nő,nem,2022-04-05_16h00.00.192,hesp_baseline,2021.2.3,Win32,60.07449237
,,,,,,,,,,,,,,,,,táklom,táklok,left,2.4386,0,92,92,79,1,134,táklik,táklasz,NA,NA,Te bizony sokat táklasz.,Én is sokat...,táklok,táklom,lakik,-lik,1,PR2014,2003,nő,nem,2022-04-05_16h00.00.192,hesp_baseline,2021.2.3,Win32,60.07449237
,,,,,,,,,,,,,,,,,bivejlek,bivejlem,right,2.7377,0,93,93,73,1,128,bivejlik,bivejlesz,NA,NA,Te bizony sokat bivejlesz.,Én is sokat...,bivejlek,bivejlem,lakik,-lik,2,PR2014,2003,nő,nem,2022-04-05_16h00.00.192,hesp_baseline,2021.2.3,Win32,60.07449237
,,,,,,,,,,,,,,,,,fliraklom,fliraklok,left,2.8527,0,94,94,98,1,153,fliraklik,fliraklasz,NA,NA,Te bizony sokat fliraklasz.,Én is sokat...,fliraklok,fliraklom,lakik,-lik,2,PR2014,2003,nő,nem,2022-04-05_16h00.00.192,hesp_baseline,2021.2.3,Win32,60.07449237
,,,,,,,,,,,,,,,,,lismévben,lismévban,left,3.0803,0,95,95,0,1,109,lismév,lismév,ban,é,Ez itt egy lismév.,Ott vagyunk a...,lismévben,lismévban,dzsungel,NA,NA,PR2014,2003,nő,nem,2022-04-05_16h00.00.192,hesp_baseline,2021.2.3,Win32,60.07449237
,,,,,,,,,,,,,,,,,klosétnak,klosétnek,left,2.4379,0,96,96,45,1,154,klosét,klosét,nak,é,Ez itt egy klosét.,Elneveztem a kutyámat...,klosétnek,klosétnak,dzsungel,NA,NA,PR2014,2003,nő,nem,2022-04-05_16h00.00.192,hesp_baseline,2021.2.3,Win32,60.07449237
,,,,,,,,,,,,,,,,,voboztok,vobzotok,right,3.249,0,97,97,158,1,159,vobzik / vobozik,"vobzik, vobozni",tek,NA,"János imád vobozni, ezért sokat vobzik.",Ti ritkán...,vobzotok,voboztok,cselekszik,-zik,1,PR2014,2003,nő,nem,2022-04-05_16h00.00.192,hesp_baseline,2021.2.3,Win32,60.07449237
,,,,,,,,,,,,,,,,,büglök,büglöm,left,3.9138,0,98,98,101,1,156,büglik,büglesz,NA,NA,Te bizony sokat büglesz.,Én is sokat...,büglök,büglöm,lakik,-lik,1,PR2014,2003,nő,nem,2022-04-05_16h00.00.192,hesp_baseline,2021.2.3,Win32,60.07449237
,,,,,,,,,,,,,,,,,bihánylok,bihánylom,left,3.5159,0,99,99,89,1,144,bihánylik,bihánylasz,NA,NA,Te bizony sokat bihánylasz.,Én is sokat...,bihánylok,bihánylom,lakik,-lik,2,PR2014,2003,nő,nem,2022-04-05_16h00.00.192,hesp_baseline,2021.2.3,Win32,60.07449237
,,,,,,,,,,,,,,,,,klarágzotok,klarágoztok,left,3.7467,0,100,100,114,1,115,klarágzik / klarágozik,"klarágzik, klarágozni",tek,NA,"János imád klarágozni, ezért sokat klarágzik.",Ti ritkán...,klarágzotok,klarágoztok,cselekszik,-zik,2,PR2014,2003,nő,nem,2022-04-05_16h00.00.192,hesp_baseline,2021.2.3,Win32,60.07449237
,,,,,,,,,,,,,,,,,vodecnál,vodecnél,left,2.8136,0,101,101,30,1,139,vodec,vodec,nál,e,Ez itt egy vodec.,Nincs is jobb egy jó...,vodecnél,vodecnál,dzsungel,NA,NA,PR2014,2003,nő,nem,2022-04-05_16h00.00.192,hesp_baseline,2021.2.3,Win32,60.07449237
,,,,,,,,,,,,,,,,,vubletnél,vubletnál,left,1.9677,0,102,102,26,1,135,vublet,vublet,nál,e,Ez itt egy vublet.,Nincs is jobb egy jó...,vubletnél,vubletnál,dzsungel,NA,NA,PR2014,2003,nő,nem,2022-04-05_16h00.00.192,hesp_baseline,2021.2.3,Win32,60.07449237
,,,,,,,,,,,,,,,,,gyibakszok,gyibakszom,left,4.3764,0,103,103,57,1,112,gyibakszik,gyibakszol,NA,NA,Te bizony sokat gyibakszol.,Én is sokat...,gyibakszok,gyibakszom,lakik,-szik,2,PR2014,2003,nő,nem,2022-04-05_16h00.00.192,hesp_baseline,2021.2.3,Win32,60.07449237
,,,,,,,,,,,,,,,,,ronszekban,ronszekben,left,7.7765,0,104,104,18,1,127,ronszek,ronszek,ban,e,Ez itt egy ronszek.,Ott vagyunk a...,ronszekben,ronszekban,dzsungel,NA,NA,PR2014,2003,nő,nem,2022-04-05_16h00.00.192,hesp_baseline,2021.2.3,Win32,60.07449237
,,,,,,,,,,,,,,,,,narjárzom,narjárzok,left,2.601,0,105,105,61,1,116,narjárzik,narjárzol,NA,NA,Te bizony sokat narjárzol.,Én is sokat...,narjárzok,narjárzom,lakik,-zik,2,PR2014,2003,nő,nem,2022-04-05_16h00.00.192,hesp_baseline,2021.2.3,Win32,60.07449237
,,,,,,,,,,,,,,,,,pibegzenek,pibegeznek,left,3.3458,0,106,106,127,1,128,pibegzik / pibegezik,"pibegzik, pibegezni",nek,NA,"János imád pibegezni, ezért sokat pibegzik.",Ők ritkán...,pibegzenek,pibegeznek,cselekszik,-zik,2,PR2014,2003,nő,nem,2022-04-05_16h00.00.192,hesp_baseline,2021.2.3,Win32,60.07449237
,,,,,,,,,,,,,,,,,pristélban,pristélben,right,2.7131,0,107,107,1,1,110,pristél,pristél,ban,é,Ez itt egy pristél.,Ott vagyunk a...,pristélben,pristélban,dzsungel,NA,NA,PR2014,2003,nő,nem,2022-04-05_16h00.00.192,hesp_baseline,2021.2.3,Win32,60.07449237
,,,,,,,,,,,,,,,,,csodegnél,csodegnál,left,2.0829,0,108,108,28,1,137,csodeg,csodeg,nál,e,Ez itt egy csodeg.,Nincs is jobb egy jó...,csodegnél,csodegnál,dzsungel,NA,NA,PR2014,2003,nő,nem,2022-04-05_16h00.00.192,hesp_baseline,2021.2.3,Win32,60.07449237
,,,,,,,,,,,,,,,,,spírzok,spírzom,left,2.1981,0,109,109,64,1,119,spírzik,spírzol,NA,NA,Te bizony sokat spírzol.,Én is sokat...,spírzok,spírzom,lakik,-zik,1,PR2014,2003,nő,nem,2022-04-05_16h00.00.192,hesp_baseline,2021.2.3,Win32,60.07449237
,,,,,,,,,,,,,,,,,nyítemban,nyítemben,right,3.2952,0,110,110,41,1,150,nyítem,nyítem,ban,e,Ez itt egy nyítem.,Ott vagyunk a...,nyítemben,nyítemban,dzsungel,NA,NA,PR2014,2003,nő,nem,2022-04-05_16h00.00.192,hesp_baseline,2021.2.3,Win32,60.07449237
,,,,,,,,,,,,,,,,,sűzlök,sűzlöm,left,2.0652,0,111,111,54,1,109,sűzlik,sűzlesz,NA,NA,Te bizony sokat sűzlesz.,Én is sokat...,sűzlök,sűzlöm,lakik,-lik,1,PR2014,2003,nő,nem,2022-04-05_16h00.00.192,hesp_baseline,2021.2.3,Win32,60.07449237
,,,,,,,,,,,,,,,,,trádlok,trádlom,left,2.2032,0,112,112,105,1,160,trádlik,trádlasz,NA,NA,Te bizony sokat trádlasz.,Én is sokat...,trádlok,trádlom,lakik,-lik,1,PR2014,2003,nő,nem,2022-04-05_16h00.00.192,hesp_baseline,2021.2.3,Win32,60.07449237
,,,,,,,,,,,,,,,,,prezlek,prezlem,left,1.6698,0,113,113,87,1,142,prezlik,prezlesz,NA,NA,Te bizony sokat prezlesz.,Én is sokat...,prezlek,prezlem,lakik,-lik,1,PR2014,2003,nő,nem,2022-04-05_16h00.00.192,hesp_baseline,2021.2.3,Win32,60.07449237
,,,,,,,,,,,,,,,,,trájegben,trájegban,left,2.4314,0,114,114,14,1,123,trájeg,trájeg,ban,e,Ez itt egy trájeg.,Ott vagyunk a...,trájegben,trájegban,dzsungel,NA,NA,PR2014,2003,nő,nem,2022-04-05_16h00.00.192,hesp_baseline,2021.2.3,Win32,60.07449237
,,,,,,,,,,,,,,,,,sztredeztek,sztredletek,left,4.1967,0,115,115,145,1,146,sztredlik / sztredezik,"sztredlik, sztredezni",tek,NA,"János imád sztredezni, ezért sokat sztredlik.",Ti ritkán...,sztredletek,sztredeztek,cselekszik,-lik,1,PR2014,2003,nő,nem,2022-04-05_16h00.00.192,hesp_baseline,2021.2.3,Win32,60.07449237
,,,,,,,,,,,,,,,,,dirlotok,diroztok,left,4.3024,0,116,116,148,1,149,dirlik / dirozik,"dirlik, dirozni",tek,NA,"János imád dirozni, ezért sokat dirlik.",Ti ritkán...,dirlotok,diroztok,cselekszik,-lik,1,PR2014,2003,nő,nem,2022-04-05_16h00.00.192,hesp_baseline,2021.2.3,Win32,60.07449237
,,,,,,,,,,,,,,,,,trismélnek,trismélnak,left,2.1631,0,117,117,5,1,114,trismél,trismél,nak,é,Ez itt egy trismél.,Elneveztem a kutyámat...,trismélnek,trismélnak,dzsungel,NA,NA,PR2014,2003,nő,nem,2022-04-05_16h00.00.192,hesp_baseline,2021.2.3,Win32,60.07449237
,,,,,,,,,,,,,,,,,drilarozunk,drilarzunk,right,4.2816,0,118,118,131,1,132,drilarzik / drilarozik,"drilarzik, drilarozni",ünk,NA,"János imád drilarozni, ezért sokat drilarzik.",Mi ritkán...,drilarzunk,drilarozunk,cselekszik,-zik,2,PR2014,2003,nő,nem,2022-04-05_16h00.00.192,hesp_baseline,2021.2.3,Win32,60.07449237
,,,,,,,,,,,,,,,,,trincsegban,trincsegben,right,2.0125,0,119,119,46,1,155,trincseg,trincseg,ban,e,Ez itt egy trincseg.,Ott vagyunk a...,trincsegben,trincsegban,dzsungel,NA,NA,PR2014,2003,nő,nem,2022-04-05_16h00.00.192,hesp_baseline,2021.2.3,Win32,60.07449237
,,,,,,,,,,,,,,,,,zödlöm,zödlök,right,2.7803,0,120,120,106,1,161,zödlik,zödlesz,NA,NA,Te bizony sokat zödlesz.,Én is sokat...,zödlök,zödlöm,lakik,-lik,1,PR2014,2003,nő,nem,2022-04-05_16h00.00.192,hesp_baseline,2021.2.3,Win32,60.07449237
,,,,,,,,,,,,,,,,,brotesban,brotesben,left,2.1063,0,121,121,53,1,162,brotes,brotes,ban,e,Ez itt egy brotes.,Ott vagyunk a...,brotesben,brotesban,dzsungel,NA,NA,PR2014,2003,nő,nem,2022-04-05_16h00.00.192,hesp_baseline,2021.2.3,Win32,60.07449237
,,,,,,,,,,,,,,,,,brüjlöm,brüjlök,left,2.096,0,122,122,55,1,110,brüjlik,brüjlesz,NA,NA,Te bizony sokat brüjlesz.,Én is sokat...,brüjlök,brüjlöm,lakik,-lik,1,PR2014,2003,nő,nem,2022-04-05_16h00.00.192,hesp_baseline,2021.2.3,Win32,60.07449237
,,,,,,,,,,,,,,,,,spibamoznak,spibamlanak,right,4.5749,0,123,123,142,1,143,spibamlik / spibamozik,"spibamlik, spibamozni",nek,NA,"János imád spibamozni, ezért sokat spibamlik.",Ők ritkán...,spibamlanak,spibamoznak,cselekszik,-lik,2,PR2014,2003,nő,nem,2022-04-05_16h00.00.192,hesp_baseline,2021.2.3,Win32,60.07449237
,,,,,,,,,,,,,,,,,sztrűkszök,sztrűkszöm,left,2.7468,0,124,124,77,1,132,sztrűkszik,sztrűkszöl,NA,NA,Te bizony sokat sztrűkszöl.,Én is sokat...,sztrűkszök,sztrűkszöm,lakik,-szik,1,PR2014,2003,nő,nem,2022-04-05_16h00.00.192,hesp_baseline,2021.2.3,Win32,60.07449237
,,,,,,,,,,,,,,,,,mékszek,mékszem,left,3.3505,0,125,125,71,1,126,mékszik,mékszel,NA,NA,Te bizony sokat mékszel.,Én is sokat...,mékszek,mékszem,lakik,-szik,1,PR2014,2003,nő,nem,2022-04-05_16h00.00.192,hesp_baseline,2021.2.3,Win32,60.07449237
,,,,,,,,,,,,,,,,,flátoztok,flátlotok,right,4.5812,0,126,126,132,1,133,flátlik / flátozik,"flátlik, flátozni",tek,NA,"János imád flátozni, ezért sokat flátlik.",Ti ritkán...,flátlotok,flátoztok,cselekszik,-lik,1,PR2014,2003,nő,nem,2022-04-05_16h00.00.192,hesp_baseline,2021.2.3,Win32,60.07449237
,,,,,,,,,,,,,,,,,spatelnek,spatelnak,left,2.8149,0,127,127,21,1,130,spatel,spatel,nak,e,Ez itt egy spatel.,Elneveztem a kutyámat...,spatelnek,spatelnak,dzsungel,NA,NA,PR2014,2003,nő,nem,2022-04-05_16h00.00.192,hesp_baseline,2021.2.3,Win32,60.07449237
,,,,,,,,,,,,,,,,,döjlenek,döjöznek,left,2.5224,0,128,128,129,1,130,döjlik / döjözik,"döjlik, döjözni",nek,NA,"János imád döjözni, ezért sokat döjlik.",Ők ritkán...,döjlenek,döjöznek,cselekszik,-lik,1,PR2014,2003,nő,nem,2022-04-05_16h00.00.192,hesp_baseline,2021.2.3,Win32,60.07449237
,,,,,,,,,,,,,,,,,spröbzök,spröbzöm,left,3.7179,0,129,129,90,1,145,spröbzik,spröbzöl,NA,NA,Te bizony sokat spröbzöl.,Én is sokat...,spröbzök,spröbzöm,lakik,-zik,1,PR2014,2003,nő,nem,2022-04-05_16h00.00.192,hesp_baseline,2021.2.3,Win32,60.07449237
,,,,,,,,,,,,,,,,,spanélnél,spanélnál,right,2.5466,0,130,130,24,1,133,spanél,spanél,nál,é,Ez itt egy spanél.,Nincs is jobb egy jó...,spanélnél,spanélnál,dzsungel,NA,NA,PR2014,2003,nő,nem,2022-04-05_16h00.00.192,hesp_baseline,2021.2.3,Win32,60.07449237
,,,,,,,,,,,,,,,,,fizendban,fizendben,right,2.67,0,131,131,49,1,158,fizend,fizend,ban,e,Ez itt egy fizend.,Ott vagyunk a...,fizendben,fizendban,dzsungel,NA,NA,PR2014,2003,nő,nem,2022-04-05_16h00.00.192,hesp_baseline,2021.2.3,Win32,60.07449237
,,,,,,,,,,,,,,,,,brivágoznak,briváglanak,right,8.2756,0,132,132,138,1,139,briváglik / brivágozik,"briváglik, brivágozni",nek,NA,"János imád brivágozni, ezért sokat briváglik.",Ők ritkán...,briváglanak,brivágoznak,cselekszik,-lik,2,PR2014,2003,nő,nem,2022-04-05_16h00.00.192,hesp_baseline,2021.2.3,Win32,60.07449237
,,,,,,,,,,,,,,,,,frivajlom,frivajlok,right,3.1934,0,133,133,78,1,133,frivajlik,frivajlasz,NA,NA,Te bizony sokat frivajlasz.,Én is sokat...,frivajlok,frivajlom,lakik,-lik,2,PR2014,2003,nő,nem,2022-04-05_16h00.00.192,hesp_baseline,2021.2.3,Win32,60.07449237
,,,,,,,,,,,,,,,,,gerénylek,gerénylem,left,3.7335,0,134,134,99,1,154,gerénylik,gerénylesz,NA,NA,Te bizony sokat gerénylesz.,Én is sokat...,gerénylek,gerénylem,lakik,-lik,2,PR2014,2003,nő,nem,2022-04-05_16h00.00.192,hesp_baseline,2021.2.3,Win32,60.07449237
,,,,,,,,,,,,,,,,,zinednek,zinednak,left,2.1281,0,135,135,22,1,131,zined,zined,nak,e,Ez itt egy zined.,Elneveztem a kutyámat...,zinednek,zinednak,dzsungel,NA,NA,PR2014,2003,nő,nem,2022-04-05_16h00.00.192,hesp_baseline,2021.2.3,Win32,60.07449237
,,,,,,,,,,,,,,,,,rájzok,rájzom,left,3.05,0,136,136,70,1,125,rájzik,rájzol,NA,NA,Te bizony sokat rájzol.,Én is sokat...,rájzok,rájzom,lakik,-zik,1,PR2014,2003,nő,nem,2022-04-05_16h00.00.192,hesp_baseline,2021.2.3,Win32,60.07449237
,,,,,,,,,,,,,,,,,kátelnak,kátelnek,right,3.0824,0,137,137,12,1,121,kátel,kátel,nak,e,Ez itt egy kátel.,Elneveztem a kutyámat...,kátelnek,kátelnak,dzsungel,NA,NA,PR2014,2003,nő,nem,2022-04-05_16h00.00.192,hesp_baseline,2021.2.3,Win32,60.07449237
,,,,,,,,,,,,,,,,,pehégedtek,pehégszetek,right,2.5789,0,138,138,151,1,152,pehégszik / pehégedik,"pehégszik, pehégedni",tek,NA,"János imád pehégedni, ezért sokat pehégszik.",Ti ritkán...,pehégszetek,pehégedtek,cselekszik,-szik,2,PR2014,2003,nő,nem,2022-04-05_16h00.00.192,hesp_baseline,2021.2.3,Win32,60.07449237
,,,,,,,,,,,,,,,,,brindeznek,brindeznak,left,2.5744,0,139,139,6,1,115,brindez,brindez,nak,e,Ez itt egy brindez.,Elneveztem a kutyámat...,brindeznek,brindeznak,dzsungel,NA,NA,PR2014,2003,nő,nem,2022-04-05_16h00.00.192,hesp_baseline,2021.2.3,Win32,60.07449237
,,,,,,,,,,,,,,,,,murdesnél,murdesnál,right,2.086,0,140,140,47,1,156,murdes,murdes,nál,e,Ez itt egy murdes.,Nincs is jobb egy jó...,murdesnél,murdesnál,dzsungel,NA,NA,PR2014,2003,nő,nem,2022-04-05_16h00.00.192,hesp_baseline,2021.2.3,Win32,60.07449237
,,,,,,,,,,,,,,,,,pragánylotok,pragányoztok,left,3.5162,0,141,141,133,1,134,pragánylik / pragányozik,"pragánylik, pragányozni",tek,NA,"János imád pragányozni, ezért sokat pragánylik.",Ti ritkán...,pragánylotok,pragányoztok,cselekszik,-lik,2,PR2014,2003,nő,nem,2022-04-05_16h00.00.192,hesp_baseline,2021.2.3,Win32,60.07449237
,,,,,,,,,,,,,,,,,sztrijzom,sztrijzok,right,3.7784,0,142,142,68,1,123,sztrijzik,sztrijzol,NA,NA,Te bizony sokat sztrijzol.,Én is sokat...,sztrijzok,sztrijzom,lakik,-zik,1,PR2014,2003,nő,nem,2022-04-05_16h00.00.192,hesp_baseline,2021.2.3,Win32,60.07449237
,,,,,,,,,,,,,,,,,zsádévnek,zsádévnak,left,2.3131,0,143,143,20,1,129,zsádév,zsádév,nak,é,Ez itt egy zsádév.,Elneveztem a kutyámat...,zsádévnek,zsádévnak,dzsungel,NA,NA,PR2014,2003,nő,nem,2022-04-05_16h00.00.192,hesp_baseline,2021.2.3,Win32,60.07449237
,,,,,,,,,,,,,,,,,drivegeztek,drivegzetek,right,4.1216,0,144,144,112,1,113,drivegzik / drivegezik,"drivegzik, drivegezni",tek,NA,"János imád drivegezni, ezért sokat drivegzik.",Ti ritkán...,drivegzetek,drivegeztek,cselekszik,-zik,2,PR2014,2003,nő,nem,2022-04-05_16h00.00.192,hesp_baseline,2021.2.3,Win32,60.07449237
,,,,,,,,,,,,,,,,,nyarcéjnak,nyarcéjnek,right,3.248,0,145,145,37,1,146,nyarcéj,nyarcéj,nak,é,Ez itt egy nyarcéj.,Elneveztem a kutyámat...,nyarcéjnek,nyarcéjnak,dzsungel,NA,NA,PR2014,2003,nő,nem,2022-04-05_16h00.00.192,hesp_baseline,2021.2.3,Win32,60.07449237
,,,,,,,,,,,,,,,,,trivakszunk,trivakodunk,left,3.9418,0,146,146,118,1,119,trivakszik / trivakodik,"trivakszik, trivakodni",ünk,NA,"János imád trivakodni, ezért sokat trivakszik.",Mi ritkán...,trivakszunk,trivakodunk,cselekszik,-szik,2,PR2014,2003,nő,nem,2022-04-05_16h00.00.192,hesp_baseline,2021.2.3,Win32,60.07449237
,,,,,,,,,,,,,,,,,spalárzanak,spalároznak,left,4.8401,0,147,147,137,1,138,spalárzik / spalározik,"spalárzik, spalározni",nek,NA,"János imád spalározni, ezért sokat spalárzik.",Ők ritkán...,spalárzanak,spalároznak,cselekszik,-zik,2,PR2014,2003,nő,nem,2022-04-05_16h00.00.192,hesp_baseline,2021.2.3,Win32,60.07449237
,,,,,,,,,,,,,,,,,szutendben,szutendban,left,2.4835,0,148,148,11,1,120,szutend,szutend,ban,e,Ez itt egy szutend.,Ott vagyunk a...,szutendben,szutendban,dzsungel,NA,NA,PR2014,2003,nő,nem,2022-04-05_16h00.00.192,hesp_baseline,2021.2.3,Win32,60.07449237
,,,,,,,,,,,,,,,,,ribegszetek,ribegedtek,left,18.3027,0,149,149,141,1,142,ribegszik / ribegedik,"ribegszik, ribegedni",tek,NA,"János imád ribegedni, ezért sokat ribegszik.",Ti ritkán...,ribegszetek,ribegedtek,cselekszik,-szik,2,PR2014,2003,nő,nem,2022-04-05_16h00.00.192,hesp_baseline,2021.2.3,Win32,60.07449237
,,,,,,,,,,,,,,,,,nyupérnál,nyupérnél,right,2.2899,0,150,150,52,1,161,nyupér,nyupér,nál,é,Ez itt egy nyupér.,Nincs is jobb egy jó...,nyupérnél,nyupérnál,dzsungel,NA,NA,PR2014,2003,nő,nem,2022-04-05_16h00.00.192,hesp_baseline,2021.2.3,Win32,60.07449237
,,,,,,,,,,,,,,,,,siladzom,siladzok,right,2.6051,0,151,151,93,1,148,siladzik,siladzol,NA,NA,Te bizony sokat siladzol.,Én is sokat...,siladzok,siladzom,lakik,-zik,2,PR2014,2003,nő,nem,2022-04-05_16h00.00.192,hesp_baseline,2021.2.3,Win32,60.07449237
,,,,,,,,,,,,,,,,,virzanak,viroznak,left,4.1534,0,152,152,125,1,126,virzik / virozik,"virzik, virozni",nek,NA,"János imád virozni, ezért sokat virzik.",Ők ritkán...,virzanak,viroznak,cselekszik,-zik,1,PR2014,2003,nő,nem,2022-04-05_16h00.00.192,hesp_baseline,2021.2.3,Win32,60.07449237
,,,,,,,,,,,,,,,,,trálszunk,trálodunk,left,6.0779,0,153,153,130,1,131,trálszik / trálodik,"trálszik, trálodni",ünk,NA,"János imád trálodni, ezért sokat trálszik.",Mi ritkán...,trálszunk,trálodunk,cselekszik,-szik,1,PR2014,2003,nő,nem,2022-04-05_16h00.00.192,hesp_baseline,2021.2.3,Win32,60.07449237
,,,,,,,,,,,,,,,,,zsáderben,zsáderban,left,1.3846,0,154,154,25,1,134,zsáder,zsáder,ban,e,Ez itt egy zsáder.,Ott vagyunk a...,zsáderben,zsáderban,dzsungel,NA,NA,PR2014,2003,nő,nem,2022-04-05_16h00.00.192,hesp_baseline,2021.2.3,Win32,60.07449237
,,,,,,,,,,,,,,,,,klivaslok,klivaslom,left,1.9045,0,155,155,62,1,117,klivaslik,klivaslasz,NA,NA,Te bizony sokat klivaslasz.,Én is sokat...,klivaslok,klivaslom,lakik,-lik,2,PR2014,2003,nő,nem,2022-04-05_16h00.00.192,hesp_baseline,2021.2.3,Win32,60.07449237
,,,,,,,,,,,,,,,,,nivároztok,nivárzotok,right,3.1993,0,156,156,146,1,147,nivárzik / nivározik,"nivárzik, nivározni",tek,NA,"János imád nivározni, ezért sokat nivárzik.",Ti ritkán...,nivárzotok,nivároztok,cselekszik,-zik,2,PR2014,2003,nő,nem,2022-04-05_16h00.00.192,hesp_baseline,2021.2.3,Win32,60.07449237
,,,,,,,,,,,,,,,,,vileslünk,vilesezünk,left,3.4879,0,157,157,139,1,140,vileslik / vilesezik,"vileslik, vilesezni",ünk,NA,"János imád vilesezni, ezért sokat vileslik.",Mi ritkán...,vileslünk,vilesezünk,cselekszik,-lik,2,PR2014,2003,nő,nem,2022-04-05_16h00.00.192,hesp_baseline,2021.2.3,Win32,60.07449237
,,,,,,,,,,,,,,,,,klétszek,klétszem,right,2.5824,0,158,158,60,1,115,klétszik,klétszel,NA,NA,Te bizony sokat klétszel.,Én is sokat...,klétszek,klétszem,lakik,-szik,1,PR2014,2003,nő,nem,2022-04-05_16h00.00.192,hesp_baseline,2021.2.3,Win32,60.07449237
,,,,,,,,,,,,,,,,,fretszek,fretszem,left,2.1745,0,159,159,66,1,121,fretszik,fretszel,NA,NA,Te bizony sokat fretszel.,Én is sokat...,fretszek,fretszem,lakik,-szik,1,PR2014,2003,nő,nem,2022-04-05_16h00.00.192,hesp_baseline,2021.2.3,Win32,60.07449237
,,,,,,,,,,,,,,,,,piragszom,piragszok,left,2.0164,0,160,160,83,1,138,piragszik,piragszol,NA,NA,Te bizony sokat piragszol.,Én is sokat...,piragszok,piragszom,lakik,-szik,2,PR2014,2003,nő,nem,2022-04-05_16h00.00.192,hesp_baseline,2021.2.3,Win32,60.07449237
,,,,,,,,,,,,,,,,,brűköztök,brűklötök,right,4.0536,0,161,161,153,1,154,brűklik / brűközik,"brűklik, brűközni",tek,NA,"János imád brűközni, ezért sokat brűklik.",Ti ritkán...,brűklötök,brűköztök,cselekszik,-lik,1,PR2014,2003,nő,nem,2022-04-05_16h00.00.192,hesp_baseline,2021.2.3,Win32,60.07449237
