my_list,key.keys,key.rt,key_2.keys,key_2.rt,keyboard_input_2.keys,keyboard_input_2.rt,key_3.keys,key_3.rt,keyboard_input_3.keys,keyboard_input_3.rt,key_4.keys,key_4.rt,keyboard_input_4.keys,keyboard_input_4.rt,key_5.keys,key_5.rt,my_button1,my_button2,keyboard_input.keys,keyboard_input.rt,withinBlock.thisRepN,withinBlock.thisTrialN,withinBlock.thisN,withinBlock.thisIndex,withinBlock.ran,rowname,word,prompt,suffix,vowel,carrier_sentence,target_sentence,target1,target2,category,derivational,nsyl,Azonosító,Melyik évben születtél?,Mi a nemed?,Tanultál nyelvészetet?,date,expName,psychopyVersion,OS,frameRate
list2.csv,space,16.3766,space,16.7184,right,19.2269,space,15.326,left,4.7701,space,8.6696,left,12.2025,space,14.8954,forzédnak,forzédnek,left,9.1396,0,0,0,46,1,101,forzéd,forzéd,nak,é,Ez itt egy forzéd.,Elneveztem a kutyámat...,forzédnek,forzédnak,dzsungel,NA,NA,PR2018,1997,férfi,nem,2022-04-06_15h50.12.502,hesp_baseline,2021.2.3,Win32,59.61607249
,,,,,,,,,,,,,,,,,klítegynél,klítegynál,left,8.2347,0,1,1,5,1,60,klítegy,klítegy,nál,e,Ez itt egy klítegy.,Nincs is jobb egy jó...,klítegynél,klítegynál,dzsungel,NA,NA,PR2018,1997,férfi,nem,2022-04-06_15h50.12.502,hesp_baseline,2021.2.3,Win32,59.61607249
,,,,,,,,,,,,,,,,,pratelynek,pratelynak,left,4.1878,0,2,2,47,1,102,prately,prately,nak,e,Ez itt egy prately.,Elneveztem a kutyámat...,pratelynek,pratelynak,dzsungel,NA,NA,PR2018,1997,férfi,nem,2022-04-06_15h50.12.502,hesp_baseline,2021.2.3,Win32,59.61607249
,,,,,,,,,,,,,,,,,fröjöztök,fröjzötök,left,8.8534,0,3,3,153,1,100,fröjzik / fröjözik,"fröjzik, fröjözni",tek,NA,"János imád fröjözni, ezért sokat fröjzik.",Ti ritkán...,fröjzötök,fröjöztök,cselekszik,-zik,1,PR2018,1997,férfi,nem,2022-04-06_15h50.12.502,hesp_baseline,2021.2.3,Win32,59.61607249
,,,,,,,,,,,,,,,,,hubonyoztok,hubonylotok,right,10.1504,0,4,4,157,1,104,hubonylik / hubonyozik,"hubonylik, hubonyozni",tek,NA,"János imád hubonyozni, ezért sokat hubonylik.",Ti ritkán...,hubonylotok,hubonyoztok,cselekszik,-lik,2,PR2018,1997,férfi,nem,2022-04-06_15h50.12.502,hesp_baseline,2021.2.3,Win32,59.61607249
,,,,,,,,,,,,,,,,,flézeztek,flézletek,left,5.251,0,5,5,134,1,81,flézlik / flézezik,"flézlik, flézezni",tek,NA,"János imád flézezni, ezért sokat flézlik.",Ti ritkán...,flézletek,flézeztek,cselekszik,-lik,1,PR2018,1997,férfi,nem,2022-04-06_15h50.12.502,hesp_baseline,2021.2.3,Win32,59.61607249
,,,,,,,,,,,,,,,,,trírzunk,trírozunk,left,7.7214,0,6,6,116,1,63,trírzik / trírozik,"trírzik, trírozni",ünk,NA,"János imád trírozni, ezért sokat trírzik.",Mi ritkán...,trírzunk,trírozunk,cselekszik,-zik,1,PR2018,1997,férfi,nem,2022-04-06_15h50.12.502,hesp_baseline,2021.2.3,Win32,59.61607249
,,,,,,,,,,,,,,,,,flodoztok,flodlotok,right,4.4775,0,7,7,144,1,91,flodlik / flodozik,"flodlik, flodozni",tek,NA,"János imád flodozni, ezért sokat flodlik.",Ti ritkán...,flodlotok,flodoztok,cselekszik,-lik,1,PR2018,1997,férfi,nem,2022-04-06_15h50.12.502,hesp_baseline,2021.2.3,Win32,59.61607249
,,,,,,,,,,,,,,,,,flüröslöm,flüröslök,right,9.3429,0,8,8,87,1,88,flüröslik,flüröslesz,NA,NA,Te bizony sokat flüröslesz.,Én is sokat...,flüröslök,flüröslöm,lakik,-lik,2,PR2018,1997,férfi,nem,2022-04-06_15h50.12.502,hesp_baseline,2021.2.3,Win32,59.61607249
,,,,,,,,,,,,,,,,,fojlegynek,fojlegynak,left,8.3545,0,9,9,3,1,58,fojlegy,fojlegy,nak,e,Ez itt egy fojlegy.,Elneveztem a kutyámat...,fojlegynek,fojlegynak,dzsungel,NA,NA,PR2018,1997,férfi,nem,2022-04-06_15h50.12.502,hesp_baseline,2021.2.3,Win32,59.61607249
,,,,,,,,,,,,,,,,,nyametban,nyametben,right,8.0379,0,10,10,17,1,72,nyamet,nyamet,ban,e,Ez itt egy nyamet.,Ott vagyunk a...,nyametben,nyametban,dzsungel,NA,NA,PR2018,1997,férfi,nem,2022-04-06_15h50.12.502,hesp_baseline,2021.2.3,Win32,59.61607249
,,,,,,,,,,,,,,,,,tiregzek,tiregzem,left,4.2909,0,11,11,64,1,65,tiregzik,tiregzel,NA,NA,Te bizony sokat tiregzel.,Én is sokat...,tiregzek,tiregzem,lakik,-zik,2,PR2018,1997,férfi,nem,2022-04-06_15h50.12.502,hesp_baseline,2021.2.3,Win32,59.61607249
,,,,,,,,,,,,,,,,,ruslom,ruslok,right,7.7104,0,12,12,83,1,84,ruslik,ruslasz,NA,NA,Te bizony sokat ruslasz.,Én is sokat...,ruslok,ruslom,lakik,-lik,1,PR2018,1997,férfi,nem,2022-04-06_15h50.12.502,hesp_baseline,2021.2.3,Win32,59.61607249
,,,,,,,,,,,,,,,,,spiharoztok,spiharzotok,right,6.7361,0,13,13,127,1,74,spiharzik / spiharozik,"spiharzik, spiharozni",tek,NA,"János imád spiharozni, ezért sokat spiharzik.",Ti ritkán...,spiharzotok,spiharoztok,cselekszik,-zik,2,PR2018,1997,férfi,nem,2022-04-06_15h50.12.502,hesp_baseline,2021.2.3,Win32,59.61607249
,,,,,,,,,,,,,,,,,cságyeltben,cságyeltban,left,4.1969,0,14,14,10,1,65,cságyelt,cságyelt,ban,e,Ez itt egy cságyelt.,Ott vagyunk a...,cságyeltben,cságyeltban,dzsungel,NA,NA,PR2018,1997,férfi,nem,2022-04-06_15h50.12.502,hesp_baseline,2021.2.3,Win32,59.61607249
,,,,,,,,,,,,,,,,,jonylom,jonylok,left,3.8891,0,15,15,55,1,56,jonylik,jonylasz,NA,NA,Te bizony sokat jonylasz.,Én is sokat...,jonylok,jonylom,lakik,-lik,1,PR2018,1997,férfi,nem,2022-04-06_15h50.12.502,hesp_baseline,2021.2.3,Win32,59.61607249
,,,,,,,,,,,,,,,,,frivamlunk,frivamozunk,left,6.5256,0,16,16,122,1,69,frivamlik / frivamozik,"frivamlik, frivamozni",ünk,NA,"János imád frivamozni, ezért sokat frivamlik.",Mi ritkán...,frivamlunk,frivamozunk,cselekszik,-lik,2,PR2018,1997,férfi,nem,2022-04-06_15h50.12.502,hesp_baseline,2021.2.3,Win32,59.61607249
,,,,,,,,,,,,,,,,,jóbecnak,jóbecnek,right,4.281,0,17,17,11,1,66,jóbec,jóbec,nak,e,Ez itt egy jóbec.,Elneveztem a kutyámat...,jóbecnek,jóbecnak,dzsungel,NA,NA,PR2018,1997,férfi,nem,2022-04-06_15h50.12.502,hesp_baseline,2021.2.3,Win32,59.61607249
,,,,,,,,,,,,,,,,,pratánylom,pratánylok,left,10.3731,0,18,18,95,1,96,pratánylik,pratánylasz,NA,NA,Te bizony sokat pratánylasz.,Én is sokat...,pratánylok,pratánylom,lakik,-lik,2,PR2018,1997,férfi,nem,2022-04-06_15h50.12.502,hesp_baseline,2021.2.3,Win32,59.61607249
,,,,,,,,,,,,,,,,,fréslünk,frésezünk,left,6.1045,0,19,19,138,1,85,fréslik / frésezik,"fréslik, frésezni",ünk,NA,"János imád frésezni, ezért sokat fréslik.",Mi ritkán...,fréslünk,frésezünk,cselekszik,-lik,1,PR2018,1997,férfi,nem,2022-04-06_15h50.12.502,hesp_baseline,2021.2.3,Win32,59.61607249
,,,,,,,,,,,,,,,,,gyihegeztek,gyihegzetek,left,9.3428,0,20,20,124,1,71,gyihegzik / gyihegezik,"gyihegzik, gyihegezni",tek,NA,"János imád gyihegezni, ezért sokat gyihegzik.",Ti ritkán...,gyihegzetek,gyihegeztek,cselekszik,-zik,2,PR2018,1997,férfi,nem,2022-04-06_15h50.12.502,hesp_baseline,2021.2.3,Win32,59.61607249
,,,,,,,,,,,,,,,,,bivégszem,bivégszek,left,6.2413,0,21,21,68,1,69,bivégszik,bivégszel,NA,NA,Te bizony sokat bivégszel.,Én is sokat...,bivégszek,bivégszem,lakik,-szik,2,PR2018,1997,férfi,nem,2022-04-06_15h50.12.502,hesp_baseline,2021.2.3,Win32,59.61607249
,,,,,,,,,,,,,,,,,játlunk,játozunk,left,6.5897,0,22,22,145,1,92,játlik / játozik,"játlik, játozni",ünk,NA,"János imád játozni, ezért sokat játlik.",Mi ritkán...,játlunk,játozunk,cselekszik,-lik,1,PR2018,1997,férfi,nem,2022-04-06_15h50.12.502,hesp_baseline,2021.2.3,Win32,59.61607249
,,,,,,,,,,,,,,,,,flátszom,flátszok,left,4.4476,0,23,23,98,1,99,flátszik,flátszol,NA,NA,Te bizony sokat flátszol.,Én is sokat...,flátszok,flátszom,lakik,-szik,1,PR2018,1997,férfi,nem,2022-04-06_15h50.12.502,hesp_baseline,2021.2.3,Win32,59.61607249
,,,,,,,,,,,,,,,,,klehényeztek,klehényletek,right,7.1238,0,24,24,113,1,60,klehénylik / klehényezik,"klehénylik, klehényezni",tek,NA,"János imád klehényezni, ezért sokat klehénylik.",Ti ritkán...,klehényletek,klehényeztek,cselekszik,-lik,2,PR2018,1997,férfi,nem,2022-04-06_15h50.12.502,hesp_baseline,2021.2.3,Win32,59.61607249
,,,,,,,,,,,,,,,,,branyoznak,branylanak,right,20.5718,0,25,25,136,1,83,branylik / branyozik,"branylik, branyozni",nek,NA,"János imád branyozni, ezért sokat branylik.",Ők ritkán...,branylanak,branyoznak,cselekszik,-lik,1,PR2018,1997,férfi,nem,2022-04-06_15h50.12.502,hesp_baseline,2021.2.3,Win32,59.61607249
,,,,,,,,,,,,,,,,,lihadzom,lihadzok,left,2.1778,0,26,26,101,1,102,lihadzik,lihadzol,NA,NA,Te bizony sokat lihadzol.,Én is sokat...,lihadzok,lihadzom,lakik,-zik,2,PR2018,1997,férfi,nem,2022-04-06_15h50.12.502,hesp_baseline,2021.2.3,Win32,59.61607249
,,,,,,,,,,,,,,,,,spülűdzök,spülűdzöm,left,3.8824,0,27,27,56,1,57,spülűdzik,spülűdzöl,NA,NA,Te bizony sokat spülűdzöl.,Én is sokat...,spülűdzök,spülűdzöm,lakik,-zik,2,PR2018,1997,férfi,nem,2022-04-06_15h50.12.502,hesp_baseline,2021.2.3,Win32,59.61607249
,,,,,,,,,,,,,,,,,pribemlem,pribemlek,right,4.1856,0,28,28,107,1,108,pribemlik,pribemlesz,NA,NA,Te bizony sokat pribemlesz.,Én is sokat...,pribemlek,pribemlem,lakik,-lik,2,PR2018,1997,férfi,nem,2022-04-06_15h50.12.502,hesp_baseline,2021.2.3,Win32,59.61607249
,,,,,,,,,,,,,,,,,tranékben,tranékban,left,2.8929,0,29,29,2,1,57,tranék,tranék,ban,é,Ez itt egy tranék.,Ott vagyunk a...,tranékben,tranékban,dzsungel,NA,NA,PR2018,1997,férfi,nem,2022-04-06_15h50.12.502,hesp_baseline,2021.2.3,Win32,59.61607249
,,,,,,,,,,,,,,,,,lorjódzok,lorjódzom,right,3.8714,0,30,30,88,1,89,lorjódzik,lorjódzol,NA,NA,Te bizony sokat lorjódzol.,Én is sokat...,lorjódzok,lorjódzom,lakik,-zik,2,PR2018,1997,férfi,nem,2022-04-06_15h50.12.502,hesp_baseline,2021.2.3,Win32,59.61607249
,,,,,,,,,,,,,,,,,trugzanak,trugoznak,right,8.5886,0,31,31,146,1,93,trugzik / trugozik,"trugzik, trugozni",nek,NA,"János imád trugozni, ezért sokat trugzik.",Ők ritkán...,trugzanak,trugoznak,cselekszik,-zik,1,PR2018,1997,férfi,nem,2022-04-06_15h50.12.502,hesp_baseline,2021.2.3,Win32,59.61607249
,,,,,,,,,,,,,,,,,rapszeknél,rapszeknál,left,6.7401,0,32,32,35,1,90,rapszek,rapszek,nál,e,Ez itt egy rapszek.,Nincs is jobb egy jó...,rapszeknél,rapszeknál,dzsungel,NA,NA,PR2018,1997,férfi,nem,2022-04-06_15h50.12.502,hesp_baseline,2021.2.3,Win32,59.61607249
,,,,,,,,,,,,,,,,,csimennál,csimennél,right,4.1016,0,33,33,44,1,99,csimen,csimen,nál,e,Ez itt egy csimen.,Nincs is jobb egy jó...,csimennél,csimennál,dzsungel,NA,NA,PR2018,1997,férfi,nem,2022-04-06_15h50.12.502,hesp_baseline,2021.2.3,Win32,59.61607249
,,,,,,,,,,,,,,,,,csintékben,csintékban,left,5.7866,0,34,34,23,1,78,csinték,csinték,ban,é,Ez itt egy csinték.,Ott vagyunk a...,csintékben,csintékban,dzsungel,NA,NA,PR2018,1997,férfi,nem,2022-04-06_15h50.12.502,hesp_baseline,2021.2.3,Win32,59.61607249
,,,,,,,,,,,,,,,,,spubonylom,spubonylok,left,6.0814,0,35,35,104,1,105,spubonylik,spubonylasz,NA,NA,Te bizony sokat spubonylasz.,Én is sokat...,spubonylok,spubonylom,lakik,-lik,2,PR2018,1997,férfi,nem,2022-04-06_15h50.12.502,hesp_baseline,2021.2.3,Win32,59.61607249
,,,,,,,,,,,,,,,,,flűröklök,flűröklöm,right,5.0968,0,36,36,91,1,92,flűröklik,flűröklesz,NA,NA,Te bizony sokat flűröklesz.,Én is sokat...,flűröklök,flűröklöm,lakik,-lik,2,PR2018,1997,férfi,nem,2022-04-06_15h50.12.502,hesp_baseline,2021.2.3,Win32,59.61607249
,,,,,,,,,,,,,,,,,spihegzem,spihegzek,right,5.4526,0,37,37,81,1,82,spihegzik,spihegzel,NA,NA,Te bizony sokat spihegzel.,Én is sokat...,spihegzek,spihegzem,lakik,-zik,2,PR2018,1997,férfi,nem,2022-04-06_15h50.12.502,hesp_baseline,2021.2.3,Win32,59.61607249
,,,,,,,,,,,,,,,,,sponylanak,sponyoznak,left,9.1296,0,38,38,125,1,72,sponylik / sponyozik,"sponylik, sponyozni",nek,NA,"János imád sponyozni, ezért sokat sponylik.",Ők ritkán...,sponylanak,sponyoznak,cselekszik,-lik,1,PR2018,1997,férfi,nem,2022-04-06_15h50.12.502,hesp_baseline,2021.2.3,Win32,59.61607249
,,,,,,,,,,,,,,,,,prihegszenek,prihegednek,right,15.4919,0,39,39,155,1,102,prihegszik / prihegedik,"prihegszik, prihegedni",nek,NA,"János imád prihegedni, ezért sokat prihegszik.",Ők ritkán...,prihegszenek,prihegednek,cselekszik,-szik,2,PR2018,1997,férfi,nem,2022-04-06_15h50.12.502,hesp_baseline,2021.2.3,Win32,59.61607249
,,,,,,,,,,,,,,,,,kluzlotok,kluzoztok,right,6.3108,0,40,40,148,1,95,kluzlik / kluzozik,"kluzlik, kluzozni",tek,NA,"János imád kluzozni, ezért sokat kluzlik.",Ti ritkán...,kluzlotok,kluzoztok,cselekszik,-lik,1,PR2018,1997,férfi,nem,2022-04-06_15h50.12.502,hesp_baseline,2021.2.3,Win32,59.61607249
,,,,,,,,,,,,,,,,,gilárzok,gilárzom,right,5.2418,0,41,41,94,1,95,gilárzik,gilárzol,NA,NA,Te bizony sokat gilárzol.,Én is sokat...,gilárzok,gilárzom,lakik,-zik,2,PR2018,1997,férfi,nem,2022-04-06_15h50.12.502,hesp_baseline,2021.2.3,Win32,59.61607249
,,,,,,,,,,,,,,,,,prihekszek,prihekszem,left,2.794,0,42,42,100,1,101,prihekszik,prihekszel,NA,NA,Te bizony sokat prihekszel.,Én is sokat...,prihekszek,prihekszem,lakik,-szik,2,PR2018,1997,férfi,nem,2022-04-06_15h50.12.502,hesp_baseline,2021.2.3,Win32,59.61607249
,,,,,,,,,,,,,,,,,fibamlom,fibamlok,right,5.5247,0,43,43,65,1,66,fibamlik,fibamlasz,NA,NA,Te bizony sokat fibamlasz.,Én is sokat...,fibamlok,fibamlom,lakik,-lik,2,PR2018,1997,férfi,nem,2022-04-06_15h50.12.502,hesp_baseline,2021.2.3,Win32,59.61607249
,,,,,,,,,,,,,,,,,zihencnak,zihencnek,right,4.1956,0,44,44,52,1,107,zihenc,zihenc,nak,e,Ez itt egy zihenc.,Elneveztem a kutyámat...,zihencnek,zihencnak,dzsungel,NA,NA,PR2018,1997,férfi,nem,2022-04-06_15h50.12.502,hesp_baseline,2021.2.3,Win32,59.61607249
,,,,,,,,,,,,,,,,,friszlok,friszlom,right,5.7324,0,45,45,97,1,98,friszlik,friszlasz,NA,NA,Te bizony sokat friszlasz.,Én is sokat...,friszlok,friszlom,lakik,-lik,1,PR2018,1997,férfi,nem,2022-04-06_15h50.12.502,hesp_baseline,2021.2.3,Win32,59.61607249
,,,,,,,,,,,,,,,,,nűröklöm,nűröklök,left,5.9753,0,46,46,106,1,107,nűröklik,nűröklesz,NA,NA,Te bizony sokat nűröklesz.,Én is sokat...,nűröklök,nűröklöm,lakik,-lik,2,PR2018,1997,férfi,nem,2022-04-06_15h50.12.502,hesp_baseline,2021.2.3,Win32,59.61607249
,,,,,,,,,,,,,,,,,dihelynek,dihelynak,left,3.0702,0,47,47,20,1,75,dihely,dihely,nak,e,Ez itt egy dihely.,Elneveztem a kutyámat...,dihelynek,dihelynak,dzsungel,NA,NA,PR2018,1997,férfi,nem,2022-04-06_15h50.12.502,hesp_baseline,2021.2.3,Win32,59.61607249
,,,,,,,,,,,,,,,,,sprűrlenek,sprűröznek,left,4.4118,0,48,48,135,1,82,sprűrlik / sprűrözik,"sprűrlik, sprűrözni",nek,NA,"János imád sprűrözni, ezért sokat sprűrlik.",Ők ritkán...,sprűrlenek,sprűröznek,cselekszik,-lik,1,PR2018,1997,férfi,nem,2022-04-06_15h50.12.502,hesp_baseline,2021.2.3,Win32,59.61607249
,,,,,,,,,,,,,,,,,nyádlanak,nyádoznak,left,5.1108,0,49,49,120,1,67,nyádlik / nyádozik,"nyádlik, nyádozni",nek,NA,"János imád nyádozni, ezért sokat nyádlik.",Ők ritkán...,nyádlanak,nyádoznak,cselekszik,-lik,1,PR2018,1997,férfi,nem,2022-04-06_15h50.12.502,hesp_baseline,2021.2.3,Win32,59.61607249
,,,,,,,,,,,,,,,,,lijeznak,lijeznek,right,3.303,0,50,50,40,1,95,lijez,lijez,nak,e,Ez itt egy lijez.,Elneveztem a kutyámat...,lijeznek,lijeznak,dzsungel,NA,NA,PR2018,1997,férfi,nem,2022-04-06_15h50.12.502,hesp_baseline,2021.2.3,Win32,59.61607249
,,,,,,,,,,,,,,,,,plugzok,plugzom,left,3.6396,0,51,51,60,1,61,plugzik,plugzol,NA,NA,Te bizony sokat plugzol.,Én is sokat...,plugzok,plugzom,lakik,-zik,1,PR2018,1997,férfi,nem,2022-04-06_15h50.12.502,hesp_baseline,2021.2.3,Win32,59.61607249
,,,,,,,,,,,,,,,,,klazérben,klazérban,right,4.987,0,52,52,51,1,106,klazér,klazér,ban,é,Ez itt egy klazér.,Ott vagyunk a...,klazérben,klazérban,dzsungel,NA,NA,PR2018,1997,férfi,nem,2022-04-06_15h50.12.502,hesp_baseline,2021.2.3,Win32,59.61607249
,,,,,,,,,,,,,,,,,bribékedtek,bribékszetek,left,7.9372,0,53,53,141,1,88,bribékszik / bribékedik,"bribékszik, bribékedni",tek,NA,"János imád bribékedni, ezért sokat bribékszik.",Ti ritkán...,bribékszetek,bribékedtek,cselekszik,-szik,2,PR2018,1997,férfi,nem,2022-04-06_15h50.12.502,hesp_baseline,2021.2.3,Win32,59.61607249
,,,,,,,,,,,,,,,,,sojzok,sojzom,right,6.0227,0,54,54,74,1,75,sojzik,sojzol,NA,NA,Te bizony sokat sojzol.,Én is sokat...,sojzok,sojzom,lakik,-zik,1,PR2018,1997,férfi,nem,2022-04-06_15h50.12.502,hesp_baseline,2021.2.3,Win32,59.61607249
,,,,,,,,,,,,,,,,,flüröklötök,flürököztök,left,8.0215,0,55,55,149,1,96,flüröklik / flüröközik,"flüröklik, flüröközni",tek,NA,"János imád flüröközni, ezért sokat flüröklik.",Ti ritkán...,flüröklötök,flürököztök,cselekszik,-lik,2,PR2018,1997,férfi,nem,2022-04-06_15h50.12.502,hesp_baseline,2021.2.3,Win32,59.61607249
,,,,,,,,,,,,,,,,,dibáglotok,dibágoztok,left,5.6802,0,56,56,154,1,101,dibáglik / dibágozik,"dibáglik, dibágozni",tek,NA,"János imád dibágozni, ezért sokat dibáglik.",Ti ritkán...,dibáglotok,dibágoztok,cselekszik,-lik,2,PR2018,1997,férfi,nem,2022-04-06_15h50.12.502,hesp_baseline,2021.2.3,Win32,59.61607249
,,,,,,,,,,,,,,,,,spizecnek,spizecnak,left,4.8201,0,57,57,6,1,61,spizec,spizec,nak,e,Ez itt egy spizec.,Elneveztem a kutyámat...,spizecnek,spizecnak,dzsungel,NA,NA,PR2018,1997,férfi,nem,2022-04-06_15h50.12.502,hesp_baseline,2021.2.3,Win32,59.61607249
,,,,,,,,,,,,,,,,,flerékedünk,flerékszünk,right,5.6831,0,58,58,159,1,106,flerékszik / flerékedik,"flerékszik, flerékedni",ünk,NA,"János imád flerékedni, ezért sokat flerékszik.",Mi ritkán...,flerékszünk,flerékedünk,cselekszik,-szik,2,PR2018,1997,férfi,nem,2022-04-06_15h50.12.502,hesp_baseline,2021.2.3,Win32,59.61607249
,,,,,,,,,,,,,,,,,szűslöm,szűslök,left,4.5129,0,59,59,85,1,86,szűslik,szűslesz,NA,NA,Te bizony sokat szűslesz.,Én is sokat...,szűslök,szűslöm,lakik,-lik,1,PR2018,1997,férfi,nem,2022-04-06_15h50.12.502,hesp_baseline,2021.2.3,Win32,59.61607249
,,,,,,,,,,,,,,,,,zutennál,zutennél,right,4.91,0,60,60,43,1,98,zuten,zuten,nál,e,Ez itt egy zuten.,Nincs is jobb egy jó...,zutennél,zutennál,dzsungel,NA,NA,PR2018,1997,férfi,nem,2022-04-06_15h50.12.502,hesp_baseline,2021.2.3,Win32,59.61607249
,,,,,,,,,,,,,,,,,zsigénnél,zsigénnál,left,2.9152,0,61,61,12,1,67,zsigén,zsigén,nál,é,Ez itt egy zsigén.,Nincs is jobb egy jó...,zsigénnél,zsigénnál,dzsungel,NA,NA,PR2018,1997,férfi,nem,2022-04-06_15h50.12.502,hesp_baseline,2021.2.3,Win32,59.61607249
,,,,,,,,,,,,,,,,,flehékszem,flehékszek,left,3.0319,0,62,62,77,1,78,flehékszik,flehékszel,NA,NA,Te bizony sokat flehékszel.,Én is sokat...,flehékszek,flehékszem,lakik,-szik,2,PR2018,1997,férfi,nem,2022-04-06_15h50.12.502,hesp_baseline,2021.2.3,Win32,59.61607249
,,,,,,,,,,,,,,,,,prohódzom,prohódzok,left,5.5258,0,63,63,66,1,67,prohódzik,prohódzol,NA,NA,Te bizony sokat prohódzol.,Én is sokat...,prohódzok,prohódzom,lakik,-zik,2,PR2018,1997,férfi,nem,2022-04-06_15h50.12.502,hesp_baseline,2021.2.3,Win32,59.61607249
,,,,,,,,,,,,,,,,,péleslem,péleslek,right,4.6916,0,64,64,73,1,74,péleslik,péleslesz,NA,NA,Te bizony sokat péleslesz.,Én is sokat...,péleslek,péleslem,lakik,-lik,2,PR2018,1997,férfi,nem,2022-04-06_15h50.12.502,hesp_baseline,2021.2.3,Win32,59.61607249
,,,,,,,,,,,,,,,,,ikszertban,ikszertben,right,8.423,0,65,65,19,1,74,ikszert,ikszert,ban,e,Ez itt egy ikszert.,Ott vagyunk a...,ikszertben,ikszertban,dzsungel,NA,NA,PR2018,1997,férfi,nem,2022-04-06_15h50.12.502,hesp_baseline,2021.2.3,Win32,59.61607249
,,,,,,,,,,,,,,,,,praslok,praslom,left,3.1921,0,66,66,80,1,81,praslik,praslasz,NA,NA,Te bizony sokat praslasz.,Én is sokat...,praslok,praslom,lakik,-lik,1,PR2018,1997,férfi,nem,2022-04-06_15h50.12.502,hesp_baseline,2021.2.3,Win32,59.61607249
,,,,,,,,,,,,,,,,,ribzom,ribzok,left,5.4818,0,67,67,58,1,59,ribzik,ribzol,NA,NA,Te bizony sokat ribzol.,Én is sokat...,ribzok,ribzom,lakik,-zik,1,PR2018,1997,férfi,nem,2022-04-06_15h50.12.502,hesp_baseline,2021.2.3,Win32,59.61607249
,,,,,,,,,,,,,,,,,vorszennél,vorszennál,left,9.4377,0,68,68,30,1,85,vorszen,vorszen,nál,e,Ez itt egy vorszen.,Nincs is jobb egy jó...,vorszennél,vorszennál,dzsungel,NA,NA,PR2018,1997,férfi,nem,2022-04-06_15h50.12.502,hesp_baseline,2021.2.3,Win32,59.61607249
,,,,,,,,,,,,,,,,,flagánylom,flagánylok,left,6.4091,0,69,69,82,1,83,flagánylik,flagánylasz,NA,NA,Te bizony sokat flagánylasz.,Én is sokat...,flagánylok,flagánylom,lakik,-lik,2,PR2018,1997,férfi,nem,2022-04-06_15h50.12.502,hesp_baseline,2021.2.3,Win32,59.61607249
,,,,,,,,,,,,,,,,,spöklünk,spöközünk,left,6.887,0,70,70,130,1,77,spöklik / spöközik,"spöklik, spöközni",ünk,NA,"János imád spöközni, ezért sokat spöklik.",Mi ritkán...,spöklünk,spöközünk,cselekszik,-lik,1,PR2018,1997,férfi,nem,2022-04-06_15h50.12.502,hesp_baseline,2021.2.3,Win32,59.61607249
,,,,,,,,,,,,,,,,,dilaklotok,dilakoztok,left,39.9388,0,71,71,158,1,105,dilaklik / dilakozik,"dilaklik, dilakozni",tek,NA,"János imád dilakozni, ezért sokat dilaklik.",Ti ritkán...,dilaklotok,dilakoztok,cselekszik,-lik,2,PR2018,1997,férfi,nem,2022-04-06_15h50.12.502,hesp_baseline,2021.2.3,Win32,59.61607249
,,,,,,,,,,,,,,,,,spüjzök,spüjzöm,left,2.929,0,72,72,59,1,60,spüjzik,spüjzöl,NA,NA,Te bizony sokat spüjzöl.,Én is sokat...,spüjzök,spüjzöm,lakik,-zik,1,PR2018,1997,férfi,nem,2022-04-06_15h50.12.502,hesp_baseline,2021.2.3,Win32,59.61607249
,,,,,,,,,,,,,,,,,pivegszek,pivegszem,right,10.4732,0,73,73,99,1,100,pivegszik,pivegszel,NA,NA,Te bizony sokat pivegszel.,Én is sokat...,pivegszek,pivegszem,lakik,-szik,2,PR2018,1997,férfi,nem,2022-04-06_15h50.12.502,hesp_baseline,2021.2.3,Win32,59.61607249
,,,,,,,,,,,,,,,,,tribejletek,tribejeztek,right,6.038,0,74,74,132,1,79,tribejlik / tribejezik,"tribejlik, tribejezni",tek,NA,"János imád tribejezni, ezért sokat tribejlik.",Ti ritkán...,tribejletek,tribejeztek,cselekszik,-lik,2,PR2018,1997,férfi,nem,2022-04-06_15h50.12.502,hesp_baseline,2021.2.3,Win32,59.61607249
,,,,,,,,,,,,,,,,,daboztok,dabzotok,right,6.9745,0,75,75,109,1,56,dabzik / dabozik,"dabzik, dabozni",tek,NA,"János imád dabozni, ezért sokat dabzik.",Ti ritkán...,dabzotok,daboztok,cselekszik,-zik,1,PR2018,1997,férfi,nem,2022-04-06_15h50.12.502,hesp_baseline,2021.2.3,Win32,59.61607249
,,,,,,,,,,,,,,,,,tomlok,tomlom,left,3.9922,0,76,76,86,1,87,tomlik,tomlasz,NA,NA,Te bizony sokat tomlasz.,Én is sokat...,tomlok,tomlom,lakik,-lik,1,PR2018,1997,férfi,nem,2022-04-06_15h50.12.502,hesp_baseline,2021.2.3,Win32,59.61607249
,,,,,,,,,,,,,,,,,brágédnak,brágédnek,left,5.4929,0,77,77,45,1,100,brágéd,brágéd,nak,é,Ez itt egy brágéd.,Elneveztem a kutyámat...,brágédnek,brágédnak,dzsungel,NA,NA,PR2018,1997,férfi,nem,2022-04-06_15h50.12.502,hesp_baseline,2021.2.3,Win32,59.61607249
,,,,,,,,,,,,,,,,,gihamoznak,gihamlanak,right,3.6183,0,78,78,133,1,80,gihamlik / gihamozik,"gihamlik, gihamozni",nek,NA,"János imád gihamozni, ezért sokat gihamlik.",Ők ritkán...,gihamlanak,gihamoznak,cselekszik,-lik,2,PR2018,1997,férfi,nem,2022-04-06_15h50.12.502,hesp_baseline,2021.2.3,Win32,59.61607249
,,,,,,,,,,,,,,,,,brivegzek,brivegzem,left,5.0801,0,79,79,70,1,71,brivegzik,brivegzel,NA,NA,Te bizony sokat brivegzel.,Én is sokat...,brivegzek,brivegzem,lakik,-zik,2,PR2018,1997,férfi,nem,2022-04-06_15h50.12.502,hesp_baseline,2021.2.3,Win32,59.61607249
,,,,,,,,,,,,,,,,,flűgzünk,flűgözünk,left,4.5884,0,80,80,160,1,107,flűgzik / flűgözik,"flűgzik, flűgözni",ünk,NA,"János imád flűgözni, ezért sokat flűgzik.",Mi ritkán...,flűgzünk,flűgözünk,cselekszik,-zik,1,PR2018,1997,férfi,nem,2022-04-06_15h50.12.502,hesp_baseline,2021.2.3,Win32,59.61607249
,,,,,,,,,,,,,,,,,spibegezünk,spibeglünk,right,15.5375,0,81,81,147,1,94,spibeglik / spibegezik,"spibeglik, spibegezni",ünk,NA,"János imád spibegezni, ezért sokat spibeglik.",Mi ritkán...,spibeglünk,spibegezünk,cselekszik,-lik,2,PR2018,1997,férfi,nem,2022-04-06_15h50.12.502,hesp_baseline,2021.2.3,Win32,59.61607249
,,,,,,,,,,,,,,,,,prazozunk,prazlunk,right,3.712,0,82,82,119,1,66,prazlik / prazozik,"prazlik, prazozni",ünk,NA,"János imád prazozni, ezért sokat prazlik.",Mi ritkán...,prazlunk,prazozunk,cselekszik,-lik,1,PR2018,1997,férfi,nem,2022-04-06_15h50.12.502,hesp_baseline,2021.2.3,Win32,59.61607249
,,,,,,,,,,,,,,,,,garcépnál,garcépnél,left,5.3761,0,83,83,38,1,93,garcép,garcép,nál,é,Ez itt egy garcép.,Nincs is jobb egy jó...,garcépnél,garcépnál,dzsungel,NA,NA,PR2018,1997,férfi,nem,2022-04-06_15h50.12.502,hesp_baseline,2021.2.3,Win32,59.61607249
,,,,,,,,,,,,,,,,,sprebeznek,sprebzenek,right,6.1201,0,84,84,139,1,86,sprebzik / sprebezik,"sprebzik, sprebezni",nek,NA,"János imád sprebezni, ezért sokat sprebzik.",Ők ritkán...,sprebzenek,sprebeznek,cselekszik,-zik,1,PR2018,1997,férfi,nem,2022-04-06_15h50.12.502,hesp_baseline,2021.2.3,Win32,59.61607249
,,,,,,,,,,,,,,,,,nyüröznek,nyürzenek,right,11.5139,0,85,85,123,1,70,nyürzik / nyürözik,"nyürzik, nyürözni",nek,NA,"János imád nyürözni, ezért sokat nyürzik.",Ők ritkán...,nyürzenek,nyüröznek,cselekszik,-zik,1,PR2018,1997,férfi,nem,2022-04-06_15h50.12.502,hesp_baseline,2021.2.3,Win32,59.61607249
,,,,,,,,,,,,,,,,,dárakszunk,dárakodunk,left,9.2066,0,86,86,126,1,73,dárakszik / dárakodik,"dárakszik, dárakodni",ünk,NA,"János imád dárakodni, ezért sokat dárakszik.",Mi ritkán...,dárakszunk,dárakodunk,cselekszik,-szik,2,PR2018,1997,férfi,nem,2022-04-06_15h50.12.502,hesp_baseline,2021.2.3,Win32,59.61607249
,,,,,,,,,,,,,,,,,sprízemnél,sprízemnál,left,16.7391,0,87,87,22,1,77,sprízem,sprízem,nál,e,Ez itt egy sprízem.,Nincs is jobb egy jó...,sprízemnél,sprízemnál,dzsungel,NA,NA,PR2018,1997,férfi,nem,2022-04-06_15h50.12.502,hesp_baseline,2021.2.3,Win32,59.61607249
,,,,,,,,,,,,,,,,,töglenek,tögöznek,left,19.1285,0,88,88,156,1,103,töglik / tögözik,"töglik, tögözni",nek,NA,"János imád tögözni, ezért sokat töglik.",Ők ritkán...,töglenek,tögöznek,cselekszik,-lik,1,PR2018,1997,férfi,nem,2022-04-06_15h50.12.502,hesp_baseline,2021.2.3,Win32,59.61607249
,,,,,,,,,,,,,,,,,bingéjnak,bingéjnek,right,4.0383,0,89,89,49,1,104,bingéj,bingéj,nak,é,Ez itt egy bingéj.,Elneveztem a kutyámat...,bingéjnek,bingéjnak,dzsungel,NA,NA,PR2018,1997,férfi,nem,2022-04-06_15h50.12.502,hesp_baseline,2021.2.3,Win32,59.61607249
,,,,,,,,,,,,,,,,,molodtok,molszotok,right,5.0565,0,90,90,142,1,89,molszik / molodik,"molszik, molodni",tek,NA,"János imád molodni, ezért sokat molszik.",Ti ritkán...,molszotok,molodtok,cselekszik,-szik,1,PR2018,1997,férfi,nem,2022-04-06_15h50.12.502,hesp_baseline,2021.2.3,Win32,59.61607249
,,,,,,,,,,,,,,,,,klűmlötök,klűmöztök,left,3.673,0,91,91,108,1,55,klűmlik / klűmözik,"klűmlik, klűmözni",tek,NA,"János imád klűmözni, ezért sokat klűmlik.",Ti ritkán...,klűmlötök,klűmöztök,cselekszik,-lik,1,PR2018,1997,férfi,nem,2022-04-06_15h50.12.502,hesp_baseline,2021.2.3,Win32,59.61607249
,,,,,,,,,,,,,,,,,metégednek,metégszenek,right,5.2015,0,92,92,112,1,59,metégszik / metégedik,"metégszik, metégedni",nek,NA,"János imád metégedni, ezért sokat metégszik.",Ők ritkán...,metégszenek,metégednek,cselekszik,-szik,2,PR2018,1997,férfi,nem,2022-04-06_15h50.12.502,hesp_baseline,2021.2.3,Win32,59.61607249
,,,,,,,,,,,,,,,,,klidlok,klidlom,left,6.8489,0,93,93,72,1,73,klidlik,klidlasz,NA,NA,Te bizony sokat klidlasz.,Én is sokat...,klidlok,klidlom,lakik,-lik,1,PR2018,1997,férfi,nem,2022-04-06_15h50.12.502,hesp_baseline,2021.2.3,Win32,59.61607249
,,,,,,,,,,,,,,,,,pítendban,pítendben,right,3.2066,0,94,94,18,1,73,pítend,pítend,ban,e,Ez itt egy pítend.,Ott vagyunk a...,pítendben,pítendban,dzsungel,NA,NA,PR2018,1997,férfi,nem,2022-04-06_15h50.12.502,hesp_baseline,2021.2.3,Win32,59.61607249
,,,,,,,,,,,,,,,,,fluboklotok,flubokoztok,left,6.2178,0,95,95,151,1,98,fluboklik / flubokozik,"fluboklik, flubokozni",tek,NA,"János imád flubokozni, ezért sokat fluboklik.",Ti ritkán...,fluboklotok,flubokoztok,cselekszik,-lik,2,PR2018,1997,férfi,nem,2022-04-06_15h50.12.502,hesp_baseline,2021.2.3,Win32,59.61607249
,,,,,,,,,,,,,,,,,flemlünk,flemezünk,left,3.5396,0,96,96,137,1,84,flemlik / flemezik,"flemlik, flemezni",ünk,NA,"János imád flemezni, ezért sokat flemlik.",Mi ritkán...,flemlünk,flemezünk,cselekszik,-lik,1,PR2018,1997,férfi,nem,2022-04-06_15h50.12.502,hesp_baseline,2021.2.3,Win32,59.61607249
,,,,,,,,,,,,,,,,,fligzom,fligzok,right,5.33,0,97,97,103,1,104,fligzik,fligzol,NA,NA,Te bizony sokat fligzol.,Én is sokat...,fligzok,fligzom,lakik,-zik,1,PR2018,1997,férfi,nem,2022-04-06_15h50.12.502,hesp_baseline,2021.2.3,Win32,59.61607249
,,,,,,,,,,,,,,,,,lingéknél,lingéknál,left,3.9095,0,98,98,32,1,87,lingék,lingék,nál,é,Ez itt egy lingék.,Nincs is jobb egy jó...,lingéknél,lingéknál,dzsungel,NA,NA,PR2018,1997,férfi,nem,2022-04-06_15h50.12.502,hesp_baseline,2021.2.3,Win32,59.61607249
,,,,,,,,,,,,,,,,,tumélynál,tumélynél,right,3.9426,0,99,99,28,1,83,tumély,tumély,nál,é,Ez itt egy tumély.,Nincs is jobb egy jó...,tumélynél,tumélynál,dzsungel,NA,NA,PR2018,1997,férfi,nem,2022-04-06_15h50.12.502,hesp_baseline,2021.2.3,Win32,59.61607249
,,,,,,,,,,,,,,,,,spivélnak,spivélnek,right,4.095,0,100,100,27,1,82,spivél,spivél,nak,é,Ez itt egy spivél.,Elneveztem a kutyámat...,spivélnek,spivélnak,dzsungel,NA,NA,PR2018,1997,férfi,nem,2022-04-06_15h50.12.502,hesp_baseline,2021.2.3,Win32,59.61607249
,,,,,,,,,,,,,,,,,zarcégnél,zarcégnál,left,18.3051,0,101,101,29,1,84,zarcég,zarcég,nál,é,Ez itt egy zarcég.,Nincs is jobb egy jó...,zarcégnél,zarcégnál,dzsungel,NA,NA,PR2018,1997,férfi,nem,2022-04-06_15h50.12.502,hesp_baseline,2021.2.3,Win32,59.61607249
,,,,,,,,,,,,,,,,,mihágoztok,mihágzotok,right,6.8649,0,102,102,118,1,65,mihágzik / mihágozik,"mihágzik, mihágozni",tek,NA,"János imád mihágozni, ezért sokat mihágzik.",Ti ritkán...,mihágzotok,mihágoztok,cselekszik,-zik,2,PR2018,1997,férfi,nem,2022-04-06_15h50.12.502,hesp_baseline,2021.2.3,Win32,59.61607249
,,,,,,,,,,,,,,,,,livénylünk,livényezünk,left,3.4663,0,103,103,128,1,75,livénylik / livényezik,"livénylik, livényezni",ünk,NA,"János imád livényezni, ezért sokat livénylik.",Mi ritkán...,livénylünk,livényezünk,cselekszik,-lik,2,PR2018,1997,férfi,nem,2022-04-06_15h50.12.502,hesp_baseline,2021.2.3,Win32,59.61607249
,,,,,,,,,,,,,,,,,flitlok,flitlom,right,4.0278,0,104,104,90,1,91,flitlik,flitlasz,NA,NA,Te bizony sokat flitlasz.,Én is sokat...,flitlok,flitlom,lakik,-lik,1,PR2018,1997,férfi,nem,2022-04-06_15h50.12.502,hesp_baseline,2021.2.3,Win32,59.61607249
,,,,,,,,,,,,,,,,,spügzünk,spügözünk,left,5.9388,0,105,105,143,1,90,spügzik / spügözik,"spügzik, spügözni",ünk,NA,"János imád spügözni, ezért sokat spügzik.",Mi ritkán...,spügzünk,spügözünk,cselekszik,-zik,1,PR2018,1997,férfi,nem,2022-04-06_15h50.12.502,hesp_baseline,2021.2.3,Win32,59.61607249
,,,,,,,,,,,,,,,,,fröjlünk,fröjözünk,left,2.8198,0,106,106,117,1,64,fröjlik / fröjözik,"fröjlik, fröjözni",ünk,NA,"János imád fröjözni, ezért sokat fröjlik.",Mi ritkán...,fröjlünk,fröjözünk,cselekszik,-lik,1,PR2018,1997,férfi,nem,2022-04-06_15h50.12.502,hesp_baseline,2021.2.3,Win32,59.61607249
,,,,,,,,,,,,,,,,,frálaslanak,frálasoznak,left,5.4153,0,107,107,110,1,57,frálaslik / frálasozik,"frálaslik, frálasozni",nek,NA,"János imád frálasozni, ezért sokat frálaslik.",Ők ritkán...,frálaslanak,frálasoznak,cselekszik,-lik,2,PR2018,1997,férfi,nem,2022-04-06_15h50.12.502,hesp_baseline,2021.2.3,Win32,59.61607249
,,,,,,,,,,,,,,,,,fupétnél,fupétnál,left,5.4074,0,108,108,14,1,69,fupét,fupét,nál,é,Ez itt egy fupét.,Nincs is jobb egy jó...,fupétnél,fupétnál,dzsungel,NA,NA,PR2018,1997,férfi,nem,2022-04-06_15h50.12.502,hesp_baseline,2021.2.3,Win32,59.61607249
,,,,,,,,,,,,,,,,,jábézban,jábézben,left,4.8658,0,109,109,34,1,89,jábéz,jábéz,ban,é,Ez itt egy jábéz.,Ott vagyunk a...,jábézben,jábézban,dzsungel,NA,NA,PR2018,1997,férfi,nem,2022-04-06_15h50.12.502,hesp_baseline,2021.2.3,Win32,59.61607249
,,,,,,,,,,,,,,,,,ribegzem,ribegzek,left,4.161,0,110,110,63,1,64,ribegzik,ribegzel,NA,NA,Te bizony sokat ribegzel.,Én is sokat...,ribegzek,ribegzem,lakik,-zik,2,PR2018,1997,férfi,nem,2022-04-06_15h50.12.502,hesp_baseline,2021.2.3,Win32,59.61607249
,,,,,,,,,,,,,,,,,csólorzom,csólorzok,left,5.6256,0,111,111,102,1,103,csólorzik,csólorzol,NA,NA,Te bizony sokat csólorzol.,Én is sokat...,csólorzok,csólorzom,lakik,-zik,2,PR2018,1997,férfi,nem,2022-04-06_15h50.12.502,hesp_baseline,2021.2.3,Win32,59.61607249
,,,,,,,,,,,,,,,,,klingeszben,klingeszban,left,2.9752,0,112,112,1,1,56,klingesz,klingesz,ban,e,Ez itt egy klingesz.,Ott vagyunk a...,klingeszben,klingeszban,dzsungel,NA,NA,PR2018,1997,férfi,nem,2022-04-06_15h50.12.502,hesp_baseline,2021.2.3,Win32,59.61607249
,,,,,,,,,,,,,,,,,gúdenben,gúdenban,left,5.7314,0,113,113,4,1,59,gúden,gúden,ban,e,Ez itt egy gúden.,Ott vagyunk a...,gúdenben,gúdenban,dzsungel,NA,NA,PR2018,1997,férfi,nem,2022-04-06_15h50.12.502,hesp_baseline,2021.2.3,Win32,59.61607249
,,,,,,,,,,,,,,,,,spáraklom,spáraklok,left,2.8132,0,114,114,96,1,97,spáraklik,spáraklasz,NA,NA,Te bizony sokat spáraklasz.,Én is sokat...,spáraklok,spáraklom,lakik,-lik,2,PR2018,1997,férfi,nem,2022-04-06_15h50.12.502,hesp_baseline,2021.2.3,Win32,59.61607249
,,,,,,,,,,,,,,,,,kátédnél,kátédnál,left,5.7887,0,115,115,37,1,92,kátéd,kátéd,nál,é,Ez itt egy kátéd.,Nincs is jobb egy jó...,kátédnél,kátédnál,dzsungel,NA,NA,PR2018,1997,férfi,nem,2022-04-06_15h50.12.502,hesp_baseline,2021.2.3,Win32,59.61607249
,,,,,,,,,,,,,,,,,flűmlök,flűmlöm,left,2.1443,0,116,116,54,1,55,flűmlik,flűmlesz,NA,NA,Te bizony sokat flűmlesz.,Én is sokat...,flűmlök,flűmlöm,lakik,-lik,1,PR2018,1997,férfi,nem,2022-04-06_15h50.12.502,hesp_baseline,2021.2.3,Win32,59.61607249
,,,,,,,,,,,,,,,,,driládzom,driládzok,right,3.143,0,117,117,67,1,68,driládzik,driládzol,NA,NA,Te bizony sokat driládzol.,Én is sokat...,driládzok,driládzom,lakik,-zik,2,PR2018,1997,férfi,nem,2022-04-06_15h50.12.502,hesp_baseline,2021.2.3,Win32,59.61607249
,,,,,,,,,,,,,,,,,míjozunk,míjzunk,right,6.1063,0,118,118,114,1,61,míjzik / míjozik,"míjzik, míjozni",ünk,NA,"János imád míjozni, ezért sokat míjzik.",Mi ritkán...,míjzunk,míjozunk,cselekszik,-zik,1,PR2018,1997,férfi,nem,2022-04-06_15h50.12.502,hesp_baseline,2021.2.3,Win32,59.61607249
,,,,,,,,,,,,,,,,,ítensban,ítensben,right,2.8386,0,119,119,50,1,105,ítens,ítens,ban,e,Ez itt egy ítens.,Ott vagyunk a...,ítensben,ítensban,dzsungel,NA,NA,PR2018,1997,férfi,nem,2022-04-06_15h50.12.502,hesp_baseline,2021.2.3,Win32,59.61607249
,,,,,,,,,,,,,,,,,drojozunk,drojzunk,right,3.0528,0,120,120,140,1,87,drojzik / drojozik,"drojzik, drojozni",ünk,NA,"János imád drojozni, ezért sokat drojzik.",Mi ritkán...,drojzunk,drojozunk,cselekszik,-zik,1,PR2018,1997,férfi,nem,2022-04-06_15h50.12.502,hesp_baseline,2021.2.3,Win32,59.61607249
,,,,,,,,,,,,,,,,,fivénylem,fivénylek,left,7.1899,0,121,121,78,1,79,fivénylik,fivénylesz,NA,NA,Te bizony sokat fivénylesz.,Én is sokat...,fivénylek,fivénylem,lakik,-lik,2,PR2018,1997,férfi,nem,2022-04-06_15h50.12.502,hesp_baseline,2021.2.3,Win32,59.61607249
,,,,,,,,,,,,,,,,,kluhéjnél,kluhéjnál,right,4.2206,0,122,122,24,1,79,kluhéj,kluhéj,nál,é,Ez itt egy kluhéj.,Nincs is jobb egy jó...,kluhéjnél,kluhéjnál,dzsungel,NA,NA,PR2018,1997,férfi,nem,2022-04-06_15h50.12.502,hesp_baseline,2021.2.3,Win32,59.61607249
,,,,,,,,,,,,,,,,,nyábétben,nyábétban,right,3.2037,0,123,123,21,1,76,nyábét,nyábét,ban,é,Ez itt egy nyábét.,Ott vagyunk a...,nyábétben,nyábétban,dzsungel,NA,NA,PR2018,1997,férfi,nem,2022-04-06_15h50.12.502,hesp_baseline,2021.2.3,Win32,59.61607249
,,,,,,,,,,,,,,,,,poslotok,posoztok,left,4.1613,0,124,124,121,1,68,poslik / posozik,"poslik, posozni",tek,NA,"János imád posozni, ezért sokat poslik.",Ti ritkán...,poslotok,posoztok,cselekszik,-lik,1,PR2018,1997,férfi,nem,2022-04-06_15h50.12.502,hesp_baseline,2021.2.3,Win32,59.61607249
,,,,,,,,,,,,,,,,,tosélyben,tosélyban,right,2.31,0,125,125,25,1,80,tosély,tosély,ban,é,Ez itt egy tosély.,Ott vagyunk a...,tosélyben,tosélyban,dzsungel,NA,NA,PR2018,1997,férfi,nem,2022-04-06_15h50.12.502,hesp_baseline,2021.2.3,Win32,59.61607249
,,,,,,,,,,,,,,,,,ronvetnak,ronvetnek,right,2.9214,0,126,126,9,1,64,ronvet,ronvet,nak,e,Ez itt egy ronvet.,Elneveztem a kutyámat...,ronvetnek,ronvetnak,dzsungel,NA,NA,PR2018,1997,férfi,nem,2022-04-06_15h50.12.502,hesp_baseline,2021.2.3,Win32,59.61607249
,,,,,,,,,,,,,,,,,spátennek,spátennak,right,5.0488,0,127,127,33,1,88,spáten,spáten,nak,e,Ez itt egy spáten.,Elneveztem a kutyámat...,spátennek,spátennak,dzsungel,NA,NA,PR2018,1997,férfi,nem,2022-04-06_15h50.12.502,hesp_baseline,2021.2.3,Win32,59.61607249
,,,,,,,,,,,,,,,,,juszlok,juszlom,left,4.7372,0,128,128,79,1,80,juszlik,juszlasz,NA,NA,Te bizony sokat juszlasz.,Én is sokat...,juszlok,juszlom,lakik,-lik,1,PR2018,1997,férfi,nem,2022-04-06_15h50.12.502,hesp_baseline,2021.2.3,Win32,59.61607249
,,,,,,,,,,,,,,,,,lírlanak,líroznak,left,3.5699,0,129,129,115,1,62,lírlik / lírozik,"lírlik, lírozni",nek,NA,"János imád lírozni, ezért sokat lírlik.",Ők ritkán...,lírlanak,líroznak,cselekszik,-lik,1,PR2018,1997,férfi,nem,2022-04-06_15h50.12.502,hesp_baseline,2021.2.3,Win32,59.61607249
,,,,,,,,,,,,,,,,,kalrézban,kalrézben,left,4.6359,0,130,130,16,1,71,kalréz,kalréz,ban,é,Ez itt egy kalréz.,Ott vagyunk a...,kalrézben,kalrézban,dzsungel,NA,NA,PR2018,1997,férfi,nem,2022-04-06_15h50.12.502,hesp_baseline,2021.2.3,Win32,59.61607249
,,,,,,,,,,,,,,,,,dóbemnak,dóbemnek,left,15.9379,0,131,131,48,1,103,dóbem,dóbem,nak,e,Ez itt egy dóbem.,Elneveztem a kutyámat...,dóbemnek,dóbemnak,dzsungel,NA,NA,PR2018,1997,férfi,nem,2022-04-06_15h50.12.502,hesp_baseline,2021.2.3,Win32,59.61607249
,,,,,,,,,,,,,,,,,dingecnek,dingecnak,left,2.5628,0,132,132,42,1,97,dingec,dingec,nak,e,Ez itt egy dingec.,Elneveztem a kutyámat...,dingecnek,dingecnak,dzsungel,NA,NA,PR2018,1997,férfi,nem,2022-04-06_15h50.12.502,hesp_baseline,2021.2.3,Win32,59.61607249
,,,,,,,,,,,,,,,,,júdernek,júdernak,left,2.2409,0,133,133,53,1,108,júder,júder,nak,e,Ez itt egy júder.,Elneveztem a kutyámat...,júdernek,júdernak,dzsungel,NA,NA,PR2018,1997,férfi,nem,2022-04-06_15h50.12.502,hesp_baseline,2021.2.3,Win32,59.61607249
,,,,,,,,,,,,,,,,,szanéjnek,szanéjnak,right,2.5515,0,134,134,13,1,68,szanéj,szanéj,nak,é,Ez itt egy szanéj.,Elneveztem a kutyámat...,szanéjnek,szanéjnak,dzsungel,NA,NA,PR2018,1997,férfi,nem,2022-04-06_15h50.12.502,hesp_baseline,2021.2.3,Win32,59.61607249
,,,,,,,,,,,,,,,,,prilepedünk,prilepszünk,right,4.1596,0,135,135,161,1,108,prilepszik / prilepedik,"prilepszik, prilepedni",ünk,NA,"János imád prilepedni, ezért sokat prilepszik.",Mi ritkán...,prilepszünk,prilepedünk,cselekszik,-szik,2,PR2018,1997,férfi,nem,2022-04-06_15h50.12.502,hesp_baseline,2021.2.3,Win32,59.61607249
,,,,,,,,,,,,,,,,,trigencnek,trigencnak,left,3.1514,0,136,136,31,1,86,trigenc,trigenc,nak,e,Ez itt egy trigenc.,Elneveztem a kutyámat...,trigencnek,trigencnak,dzsungel,NA,NA,PR2018,1997,férfi,nem,2022-04-06_15h50.12.502,hesp_baseline,2021.2.3,Win32,59.61607249
,,,,,,,,,,,,,,,,,nyöbzenek,nyöböznek,left,3.4327,0,137,137,152,1,99,nyöbzik / nyöbözik,"nyöbzik, nyöbözni",nek,NA,"János imád nyöbözni, ezért sokat nyöbzik.",Ők ritkán...,nyöbzenek,nyöböznek,cselekszik,-zik,1,PR2018,1997,férfi,nem,2022-04-06_15h50.12.502,hesp_baseline,2021.2.3,Win32,59.61607249
,,,,,,,,,,,,,,,,,szirlok,szirlom,right,3.0267,0,138,138,62,1,63,szirlik,szirlasz,NA,NA,Te bizony sokat szirlasz.,Én is sokat...,szirlok,szirlom,lakik,-lik,1,PR2018,1997,férfi,nem,2022-04-06_15h50.12.502,hesp_baseline,2021.2.3,Win32,59.61607249
,,,,,,,,,,,,,,,,,klajrénnak,klajrénnek,left,3.0361,0,139,139,41,1,96,klajrén,klajrén,nak,é,Ez itt egy klajrén.,Elneveztem a kutyámat...,klajrénnek,klajrénnak,dzsungel,NA,NA,PR2018,1997,férfi,nem,2022-04-06_15h50.12.502,hesp_baseline,2021.2.3,Win32,59.61607249
,,,,,,,,,,,,,,,,,dineltban,dineltben,right,3.1939,0,140,140,0,1,55,dinelt,dinelt,ban,e,Ez itt egy dinelt.,Ott vagyunk a...,dineltben,dineltban,dzsungel,NA,NA,PR2018,1997,férfi,nem,2022-04-06_15h50.12.502,hesp_baseline,2021.2.3,Win32,59.61607249
,,,,,,,,,,,,,,,,,fájézben,fájézban,right,3.5426,0,141,141,7,1,62,fájéz,fájéz,ban,é,Ez itt egy fájéz.,Ott vagyunk a...,fájézben,fájézban,dzsungel,NA,NA,PR2018,1997,férfi,nem,2022-04-06_15h50.12.502,hesp_baseline,2021.2.3,Win32,59.61607249
,,,,,,,,,,,,,,,,,femlek,femlem,left,2.5166,0,142,142,57,1,58,femlik,femlesz,NA,NA,Te bizony sokat femlesz.,Én is sokat...,femlek,femlem,lakik,-lik,1,PR2018,1997,férfi,nem,2022-04-06_15h50.12.502,hesp_baseline,2021.2.3,Win32,59.61607249
,,,,,,,,,,,,,,,,,frodlom,frodlok,right,3.3283,0,143,143,61,1,62,frodlik,frodlasz,NA,NA,Te bizony sokat frodlasz.,Én is sokat...,frodlok,frodlom,lakik,-lik,1,PR2018,1997,férfi,nem,2022-04-06_15h50.12.502,hesp_baseline,2021.2.3,Win32,59.61607249
,,,,,,,,,,,,,,,,,csubzunk,csubozunk,left,2.4633,0,144,144,111,1,58,csubzik / csubozik,"csubzik, csubozni",ünk,NA,"János imád csubozni, ezért sokat csubzik.",Mi ritkán...,csubzunk,csubozunk,cselekszik,-zik,1,PR2018,1997,férfi,nem,2022-04-06_15h50.12.502,hesp_baseline,2021.2.3,Win32,59.61607249
,,,,,,,,,,,,,,,,,kumlom,kumlok,right,2.5946,0,145,145,105,1,106,kumlik,kumlasz,NA,NA,Te bizony sokat kumlasz.,Én is sokat...,kumlok,kumlom,lakik,-lik,1,PR2018,1997,férfi,nem,2022-04-06_15h50.12.502,hesp_baseline,2021.2.3,Win32,59.61607249
,,,,,,,,,,,,,,,,,figlok,figlom,left,5.1237,0,146,146,75,1,76,figlik,figlasz,NA,NA,Te bizony sokat figlasz.,Én is sokat...,figlok,figlom,lakik,-lik,1,PR2018,1997,férfi,nem,2022-04-06_15h50.12.502,hesp_baseline,2021.2.3,Win32,59.61607249
,,,,,,,,,,,,,,,,,nidétban,nidétben,right,4.3137,0,147,147,39,1,94,nidét,nidét,ban,é,Ez itt egy nidét.,Ott vagyunk a...,nidétben,nidétban,dzsungel,NA,NA,PR2018,1997,férfi,nem,2022-04-06_15h50.12.502,hesp_baseline,2021.2.3,Win32,59.61607249
,,,,,,,,,,,,,,,,,sporzemnek,sporzemnak,left,9.0004,0,148,148,26,1,81,sporzem,sporzem,nak,e,Ez itt egy sporzem.,Elneveztem a kutyámat...,sporzemnek,sporzemnak,dzsungel,NA,NA,PR2018,1997,férfi,nem,2022-04-06_15h50.12.502,hesp_baseline,2021.2.3,Win32,59.61607249
,,,,,,,,,,,,,,,,,csíszlom,csíszlok,right,2.835,0,149,149,84,1,85,csíszlik,csíszlasz,NA,NA,Te bizony sokat csíszlasz.,Én is sokat...,csíszlok,csíszlom,lakik,-lik,1,PR2018,1997,férfi,nem,2022-04-06_15h50.12.502,hesp_baseline,2021.2.3,Win32,59.61607249
,,,,,,,,,,,,,,,,,floglok,floglom,left,2.0299,0,150,150,92,1,93,floglik,floglasz,NA,NA,Te bizony sokat floglasz.,Én is sokat...,floglok,floglom,lakik,-lik,1,PR2018,1997,férfi,nem,2022-04-06_15h50.12.502,hesp_baseline,2021.2.3,Win32,59.61607249
,,,,,,,,,,,,,,,,,nurokozunk,nuroklunk,right,3.127,0,151,151,131,1,78,nuroklik / nurokozik,"nuroklik, nurokozni",ünk,NA,"János imád nurokozni, ezért sokat nuroklik.",Mi ritkán...,nuroklunk,nurokozunk,cselekszik,-lik,2,PR2018,1997,férfi,nem,2022-04-06_15h50.12.502,hesp_baseline,2021.2.3,Win32,59.61607249
,,,,,,,,,,,,,,,,,flibekszek,flibekszem,left,2.0092,0,152,152,93,1,94,flibekszik,flibekszel,NA,NA,Te bizony sokat flibekszel.,Én is sokat...,flibekszek,flibekszem,lakik,-szik,2,PR2018,1997,férfi,nem,2022-04-06_15h50.12.502,hesp_baseline,2021.2.3,Win32,59.61607249
,,,,,,,,,,,,,,,,,sortemnél,sortemnál,left,128.2374,0,153,153,15,1,70,sortem,sortem,nál,e,Ez itt egy sortem.,Nincs is jobb egy jó...,sortemnél,sortemnál,dzsungel,NA,NA,PR2018,1997,férfi,nem,2022-04-06_15h50.12.502,hesp_baseline,2021.2.3,Win32,59.61607249
,,,,,,,,,,,,,,,,,navecban,navecben,right,47.1167,0,154,154,8,1,63,navec,navec,ban,e,Ez itt egy navec.,Ott vagyunk a...,navecben,navecban,dzsungel,NA,NA,PR2018,1997,férfi,nem,2022-04-06_15h50.12.502,hesp_baseline,2021.2.3,Win32,59.61607249
,,,,,,,,,,,,,,,,,spatárzok,spatárzom,right,5.5581,0,155,155,69,1,70,spatárzik,spatárzol,NA,NA,Te bizony sokat spatárzol.,Én is sokat...,spatárzok,spatárzom,lakik,-zik,2,PR2018,1997,férfi,nem,2022-04-06_15h50.12.502,hesp_baseline,2021.2.3,Win32,59.61607249
,,,,,,,,,,,,,,,,,huroslok,huroslom,left,4.2011,0,156,156,76,1,77,huroslik,huroslasz,NA,NA,Te bizony sokat huroslasz.,Én is sokat...,huroslok,huroslom,lakik,-lik,2,PR2018,1997,férfi,nem,2022-04-06_15h50.12.502,hesp_baseline,2021.2.3,Win32,59.61607249
,,,,,,,,,,,,,,,,,hákodnak,hákszanak,right,2.9499,0,157,157,150,1,97,hákszik / hákodik,"hákszik, hákodni",nek,NA,"János imád hákodni, ezért sokat hákszik.",Ők ritkán...,hákszanak,hákodnak,cselekszik,-szik,1,PR2018,1997,férfi,nem,2022-04-06_15h50.12.502,hesp_baseline,2021.2.3,Win32,59.61607249
,,,,,,,,,,,,,,,,,sprigzotok,sprigoztok,left,5.9748,0,158,158,129,1,76,sprigzik / sprigozik,"sprigzik, sprigozni",tek,NA,"János imád sprigozni, ezért sokat sprigzik.",Ti ritkán...,sprigzotok,sprigoztok,cselekszik,-zik,1,PR2018,1997,férfi,nem,2022-04-06_15h50.12.502,hesp_baseline,2021.2.3,Win32,59.61607249
,,,,,,,,,,,,,,,,,gihesztnak,gihesztnek,right,24.108,0,159,159,36,1,91,giheszt,giheszt,nak,e,Ez itt egy giheszt.,Elneveztem a kutyámat...,gihesztnek,gihesztnak,dzsungel,NA,NA,PR2018,1997,férfi,nem,2022-04-06_15h50.12.502,hesp_baseline,2021.2.3,Win32,59.61607249
,,,,,,,,,,,,,,,,,sprogzom,sprogzok,left,4.8482,0,160,160,89,1,90,sprogzik,sprogzol,NA,NA,Te bizony sokat sprogzol.,Én is sokat...,sprogzok,sprogzom,lakik,-zik,1,PR2018,1997,férfi,nem,2022-04-06_15h50.12.502,hesp_baseline,2021.2.3,Win32,59.61607249
,,,,,,,,,,,,,,,,,brágaklom,brágaklok,left,1.4381,0,161,161,71,1,72,brágaklik,brágaklasz,NA,NA,Te bizony sokat brágaklasz.,Én is sokat...,brágaklok,brágaklom,lakik,-lik,2,PR2018,1997,férfi,nem,2022-04-06_15h50.12.502,hesp_baseline,2021.2.3,Win32,59.61607249
