my_list,key.keys,key.rt,key_2.keys,key_2.rt,keyboard_input_2.keys,keyboard_input_2.rt,key_3.keys,key_3.rt,keyboard_input_3.keys,keyboard_input_3.rt,key_4.keys,key_4.rt,keyboard_input_4.keys,keyboard_input_4.rt,key_5.keys,key_5.rt,my_button1,my_button2,keyboard_input.keys,keyboard_input.rt,withinBlock.thisRepN,withinBlock.thisTrialN,withinBlock.thisN,withinBlock.thisIndex,withinBlock.ran,rowname,word,prompt,suffix,vowel,carrier_sentence,target_sentence,target1,target2,category,derivational,nsyl,Azonosító,Melyik évben születtél?,Mi a nemed?,Tanultál nyelvészetet?,date,expName,psychopyVersion,OS,frameRate
list1.csv,space,17.1114,space,5.9786,left,10.4603,space,10.6507,left,3.9392,space,3.209,left,17.1831,space,12.6837,matézben,matézban,right,5.8328,0,0,0,37,1,38,matéz,matéz,ban,é,Ez itt egy matéz.,Ott vagyunk a...,matézben,matézban,dzsungel,NA,NA,PR2061,1996,nő,nem,2022-04-14_23h37.32.793,hesp_baseline,2021.2.3,Win32,59.89458553
,,,,,,,,,,,,,,,,,pöröztök,pörzötök,left,10.7944,0,1,1,153,1,46,pörzik / pörözik,"pörzik, pörözni",tek,NA,"János imád pörözni, ezért sokat pörzik.",Ti ritkán...,pörzötök,pöröztök,cselekszik,-zik,1,PR2061,1996,nő,nem,2022-04-14_23h37.32.793,hesp_baseline,2021.2.3,Win32,59.89458553
,,,,,,,,,,,,,,,,,marzok,marzom,left,7.1812,0,2,2,99,1,46,marzik,marzol,NA,NA,Te bizony sokat marzol.,Én is sokat...,marzok,marzom,lakik,-zik,1,PR2061,1996,nő,nem,2022-04-14_23h37.32.793,hesp_baseline,2021.2.3,Win32,59.89458553
,,,,,,,,,,,,,,,,,drűröznek,drűrzenek,left,13.3968,0,3,3,126,1,19,drűrzik / drűrözik,"drűrzik, drűrözni",nek,NA,"János imád drűrözni, ezért sokat drűrzik.",Ők ritkán...,drűrzenek,drűröznek,cselekszik,-zik,1,PR2061,1996,nő,nem,2022-04-14_23h37.32.793,hesp_baseline,2021.2.3,Win32,59.89458553
,,,,,,,,,,,,,,,,,mísozunk,míslunk,left,6.0666,0,4,4,123,1,16,míslik / mísozik,"míslik, mísozni",ünk,NA,"János imád mísozni, ezért sokat míslik.",Mi ritkán...,míslunk,mísozunk,cselekszik,-lik,1,PR2061,1996,nő,nem,2022-04-14_23h37.32.793,hesp_baseline,2021.2.3,Win32,59.89458553
,,,,,,,,,,,,,,,,,kadérnál,kadérnél,left,4.7982,0,5,5,7,1,8,kadér,kadér,nál,é,Ez itt egy kadér.,Nincs is jobb egy jó...,kadérnél,kadérnál,dzsungel,NA,NA,PR2061,1996,nő,nem,2022-04-14_23h37.32.793,hesp_baseline,2021.2.3,Win32,59.89458553
,,,,,,,,,,,,,,,,,tágarozunk,tágarzunk,left,10.6105,0,6,6,155,1,48,tágarzik / tágarozik,"tágarzik, tágarozni",ünk,NA,"János imád tágarozni, ezért sokat tágarzik.",Mi ritkán...,tágarzunk,tágarozunk,cselekszik,-zik,2,PR2061,1996,nő,nem,2022-04-14_23h37.32.793,hesp_baseline,2021.2.3,Win32,59.89458553
,,,,,,,,,,,,,,,,,flehénylek,flehénylem,left,5.745,0,7,7,106,1,53,flehénylik,flehénylesz,NA,NA,Te bizony sokat flehénylesz.,Én is sokat...,flehénylek,flehénylem,lakik,-lik,2,PR2061,1996,nő,nem,2022-04-14_23h37.32.793,hesp_baseline,2021.2.3,Win32,59.89458553
,,,,,,,,,,,,,,,,,jurozunk,jurlunk,left,15.6852,0,8,8,111,1,4,jurlik / jurozik,"jurlik, jurozni",ünk,NA,"János imád jurozni, ezért sokat jurlik.",Mi ritkán...,jurlunk,jurozunk,cselekszik,-lik,1,PR2061,1996,nő,nem,2022-04-14_23h37.32.793,hesp_baseline,2021.2.3,Win32,59.89458553
,,,,,,,,,,,,,,,,,gatágozunk,gatáglunk,left,8.5132,0,9,9,137,1,30,gatáglik / gatágozik,"gatáglik, gatágozni",ünk,NA,"János imád gatágozni, ezért sokat gatáglik.",Mi ritkán...,gatáglunk,gatágozunk,cselekszik,-lik,2,PR2061,1996,nő,nem,2022-04-14_23h37.32.793,hesp_baseline,2021.2.3,Win32,59.89458553
,,,,,,,,,,,,,,,,,drügzöm,drügzök,right,5.9471,0,10,10,72,1,19,drügzik,drügzöl,NA,NA,Te bizony sokat drügzöl.,Én is sokat...,drügzök,drügzöm,lakik,-zik,1,PR2061,1996,nő,nem,2022-04-14_23h37.32.793,hesp_baseline,2021.2.3,Win32,59.89458553
,,,,,,,,,,,,,,,,,flivegzenek,flivegeznek,right,9.1171,0,11,11,138,1,31,flivegzik / flivegezik,"flivegzik, flivegezni",nek,NA,"János imád flivegezni, ezért sokat flivegzik.",Ők ritkán...,flivegzenek,flivegeznek,cselekszik,-zik,2,PR2061,1996,nő,nem,2022-04-14_23h37.32.793,hesp_baseline,2021.2.3,Win32,59.89458553
,,,,,,,,,,,,,,,,,prilegzek,prilegzem,right,3.92,0,12,12,79,1,26,prilegzik,prilegzel,NA,NA,Te bizony sokat prilegzel.,Én is sokat...,prilegzek,prilegzem,lakik,-zik,2,PR2061,1996,nő,nem,2022-04-14_23h37.32.793,hesp_baseline,2021.2.3,Win32,59.89458553
,,,,,,,,,,,,,,,,,vülődzöm,vülődzök,left,5.8964,0,13,13,81,1,28,vülődzik,vülődzöl,NA,NA,Te bizony sokat vülődzöl.,Én is sokat...,vülődzök,vülődzöm,lakik,-zik,2,PR2061,1996,nő,nem,2022-04-14_23h37.32.793,hesp_baseline,2021.2.3,Win32,59.89458553
,,,,,,,,,,,,,,,,,tránélynek,tránélynak,right,11.5427,0,14,14,17,1,18,tránély,tránély,nak,é,Ez itt egy tránély.,Elneveztem a kutyámat...,tránélynek,tránélynak,dzsungel,NA,NA,PR2061,1996,nő,nem,2022-04-14_23h37.32.793,hesp_baseline,2021.2.3,Win32,59.89458553
,,,,,,,,,,,,,,,,,ibáglom,ibáglok,left,3.7146,0,15,15,88,1,35,ibáglik,ibáglasz,NA,NA,Te bizony sokat ibáglasz.,Én is sokat...,ibáglok,ibáglom,lakik,-lik,2,PR2061,1996,nő,nem,2022-04-14_23h37.32.793,hesp_baseline,2021.2.3,Win32,59.89458553
,,,,,,,,,,,,,,,,,zsopédben,zsopédban,right,2.3849,0,16,16,50,1,51,zsopéd,zsopéd,ban,é,Ez itt egy zsopéd.,Ott vagyunk a...,zsopédben,zsopédban,dzsungel,NA,NA,PR2061,1996,nő,nem,2022-04-14_23h37.32.793,hesp_baseline,2021.2.3,Win32,59.89458553
,,,,,,,,,,,,,,,,,küslünk,küsözünk,right,3.2504,0,17,17,141,1,34,küslik / küsözik,"küslik, küsözni",ünk,NA,"János imád küsözni, ezért sokat küslik.",Mi ritkán...,küslünk,küsözünk,cselekszik,-lik,1,PR2061,1996,nő,nem,2022-04-14_23h37.32.793,hesp_baseline,2021.2.3,Win32,59.89458553
,,,,,,,,,,,,,,,,,pivédban,pivédben,left,2.7131,0,18,18,52,1,53,pivéd,pivéd,ban,é,Ez itt egy pivéd.,Ott vagyunk a...,pivédben,pivédban,dzsungel,NA,NA,PR2061,1996,nő,nem,2022-04-14_23h37.32.793,hesp_baseline,2021.2.3,Win32,59.89458553
,,,,,,,,,,,,,,,,,klordénynek,klordénynak,right,3.3883,0,19,19,9,1,10,klordény,klordény,nak,é,Ez itt egy klordény.,Elneveztem a kutyámat...,klordénynek,klordénynak,dzsungel,NA,NA,PR2061,1996,nő,nem,2022-04-14_23h37.32.793,hesp_baseline,2021.2.3,Win32,59.89458553
,,,,,,,,,,,,,,,,,csibagoztok,csibagzotok,left,4.1989,0,20,20,114,1,7,csibagzik / csibagozik,"csibagzik, csibagozni",tek,NA,"János imád csibagozni, ezért sokat csibagzik.",Ti ritkán...,csibagzotok,csibagoztok,cselekszik,-zik,2,PR2061,1996,nő,nem,2022-04-14_23h37.32.793,hesp_baseline,2021.2.3,Win32,59.89458553
,,,,,,,,,,,,,,,,,jutélynál,jutélynél,left,4.401,0,21,21,11,1,12,jutély,jutély,nál,é,Ez itt egy jutély.,Nincs is jobb egy jó...,jutélynél,jutélynál,dzsungel,NA,NA,PR2061,1996,nő,nem,2022-04-14_23h37.32.793,hesp_baseline,2021.2.3,Win32,59.89458553
,,,,,,,,,,,,,,,,,diránylanak,dirányoznak,right,2.9748,0,22,22,122,1,15,diránylik / dirányozik,"diránylik, dirányozni",nek,NA,"János imád dirányozni, ezért sokat diránylik.",Ők ritkán...,diránylanak,dirányoznak,cselekszik,-lik,2,PR2061,1996,nő,nem,2022-04-14_23h37.32.793,hesp_baseline,2021.2.3,Win32,59.89458553
,,,,,,,,,,,,,,,,,gyivádzok,gyivádzom,right,4.9892,0,23,23,87,1,34,gyivádzik,gyivádzol,NA,NA,Te bizony sokat gyivádzol.,Én is sokat...,gyivádzok,gyivádzom,lakik,-zik,2,PR2061,1996,nő,nem,2022-04-14_23h37.32.793,hesp_baseline,2021.2.3,Win32,59.89458553
,,,,,,,,,,,,,,,,,brözlötök,brözöztök,right,4.234,0,24,24,145,1,38,brözlik / brözözik,"brözlik, brözözni",tek,NA,"János imád brözözni, ezért sokat brözlik.",Ti ritkán...,brözlötök,brözöztök,cselekszik,-lik,1,PR2061,1996,nő,nem,2022-04-14_23h37.32.793,hesp_baseline,2021.2.3,Win32,59.89458553
,,,,,,,,,,,,,,,,,klaráglok,klaráglom,right,5.6384,0,25,25,91,1,38,klaráglik,klaráglasz,NA,NA,Te bizony sokat klaráglasz.,Én is sokat...,klaráglok,klaráglom,lakik,-lik,2,PR2061,1996,nő,nem,2022-04-14_23h37.32.793,hesp_baseline,2021.2.3,Win32,59.89458553
,,,,,,,,,,,,,,,,,lörűdzök,lörűdzöm,right,3.7815,0,26,26,77,1,24,lörűdzik,lörűdzöl,NA,NA,Te bizony sokat lörűdzöl.,Én is sokat...,lörűdzök,lörűdzöm,lakik,-zik,2,PR2061,1996,nő,nem,2022-04-14_23h37.32.793,hesp_baseline,2021.2.3,Win32,59.89458553
,,,,,,,,,,,,,,,,,flözlöm,flözlök,right,3.358,0,27,27,74,1,21,flözlik,flözlesz,NA,NA,Te bizony sokat flözlesz.,Én is sokat...,flözlök,flözlöm,lakik,-lik,1,PR2061,1996,nő,nem,2022-04-14_23h37.32.793,hesp_baseline,2021.2.3,Win32,59.89458553
,,,,,,,,,,,,,,,,,nyivágozunk,nyivágzunk,left,4.0849,0,28,28,113,1,6,nyivágzik / nyivágozik,"nyivágzik, nyivágozni",ünk,NA,"János imád nyivágozni, ezért sokat nyivágzik.",Mi ritkán...,nyivágzunk,nyivágozunk,cselekszik,-zik,2,PR2061,1996,nő,nem,2022-04-14_23h37.32.793,hesp_baseline,2021.2.3,Win32,59.89458553
,,,,,,,,,,,,,,,,,incéjnak,incéjnek,left,3.9638,0,29,29,30,1,31,incéj,incéj,nak,é,Ez itt egy incéj.,Elneveztem a kutyámat...,incéjnek,incéjnak,dzsungel,NA,NA,PR2061,1996,nő,nem,2022-04-14_23h37.32.793,hesp_baseline,2021.2.3,Win32,59.89458553
,,,,,,,,,,,,,,,,,frakozunk,fraklunk,left,3.17,0,30,30,159,1,52,fraklik / frakozik,"fraklik, frakozni",ünk,NA,"János imád frakozni, ezért sokat fraklik.",Mi ritkán...,fraklunk,frakozunk,cselekszik,-lik,1,PR2061,1996,nő,nem,2022-04-14_23h37.32.793,hesp_baseline,2021.2.3,Win32,59.89458553
,,,,,,,,,,,,,,,,,pugoslom,pugoslok,right,2.7046,0,31,31,84,1,31,pugoslik,pugoslasz,NA,NA,Te bizony sokat pugoslasz.,Én is sokat...,pugoslok,pugoslom,lakik,-lik,2,PR2061,1996,nő,nem,2022-04-14_23h37.32.793,hesp_baseline,2021.2.3,Win32,59.89458553
,,,,,,,,,,,,,,,,,bralképben,bralképban,left,2.5521,0,32,32,12,1,13,bralkép,bralkép,ban,é,Ez itt egy bralkép.,Ott vagyunk a...,bralképben,bralképban,dzsungel,NA,NA,PR2061,1996,nő,nem,2022-04-14_23h37.32.793,hesp_baseline,2021.2.3,Win32,59.89458553
,,,,,,,,,,,,,,,,,gábédnál,gábédnél,left,2.7203,0,33,33,39,1,40,gábéd,gábéd,nál,é,Ez itt egy gábéd.,Nincs is jobb egy jó...,gábédnél,gábédnál,dzsungel,NA,NA,PR2061,1996,nő,nem,2022-04-14_23h37.32.793,hesp_baseline,2021.2.3,Win32,59.89458553
,,,,,,,,,,,,,,,,,monvegnál,monvegnél,left,2.7861,0,34,34,26,1,27,monveg,monveg,nál,e,Ez itt egy monveg.,Nincs is jobb egy jó...,monvegnél,monvegnál,dzsungel,NA,NA,PR2061,1996,nő,nem,2022-04-14_23h37.32.793,hesp_baseline,2021.2.3,Win32,59.89458553
,,,,,,,,,,,,,,,,,dutecnál,dutecnél,left,1.6931,0,35,35,22,1,23,dutec,dutec,nál,e,Ez itt egy dutec.,Nincs is jobb egy jó...,dutecnél,dutecnál,dzsungel,NA,NA,PR2061,1996,nő,nem,2022-04-14_23h37.32.793,hesp_baseline,2021.2.3,Win32,59.89458553
,,,,,,,,,,,,,,,,,zopélynál,zopélynél,left,1.7442,0,36,36,5,1,6,zopély,zopély,nál,é,Ez itt egy zopély.,Nincs is jobb egy jó...,zopélynél,zopélynál,dzsungel,NA,NA,PR2061,1996,nő,nem,2022-04-14_23h37.32.793,hesp_baseline,2021.2.3,Win32,59.89458553
,,,,,,,,,,,,,,,,,brivakoztok,brivaklotok,left,4.4059,0,37,37,134,1,27,brivaklik / brivakozik,"brivaklik, brivakozni",tek,NA,"János imád brivakozni, ezért sokat brivaklik.",Ti ritkán...,brivaklotok,brivakoztok,cselekszik,-lik,2,PR2061,1996,nő,nem,2022-04-14_23h37.32.793,hesp_baseline,2021.2.3,Win32,59.89458553
,,,,,,,,,,,,,,,,,fádensnek,fádensnak,right,2.143,0,38,38,33,1,34,fádens,fádens,nak,e,Ez itt egy fádens.,Elneveztem a kutyámat...,fádensnek,fádensnak,dzsungel,NA,NA,PR2061,1996,nő,nem,2022-04-14_23h37.32.793,hesp_baseline,2021.2.3,Win32,59.89458553
,,,,,,,,,,,,,,,,,spélszem,spélszek,left,2.1336,0,39,39,68,1,15,spélszik,spélszel,NA,NA,Te bizony sokat spélszel.,Én is sokat...,spélszek,spélszem,lakik,-szik,1,PR2061,1996,nő,nem,2022-04-14_23h37.32.793,hesp_baseline,2021.2.3,Win32,59.89458553
,,,,,,,,,,,,,,,,,trodélyben,trodélyban,right,2.4825,0,40,40,28,1,29,trodély,trodély,ban,é,Ez itt egy trodély.,Ott vagyunk a...,trodélyben,trodélyban,dzsungel,NA,NA,PR2061,1996,nő,nem,2022-04-14_23h37.32.793,hesp_baseline,2021.2.3,Win32,59.89458553
,,,,,,,,,,,,,,,,,priszecben,priszecban,left,3.5927,0,41,41,15,1,16,priszec,priszec,ban,e,Ez itt egy priszec.,Ott vagyunk a...,priszecben,priszecban,dzsungel,NA,NA,PR2061,1996,nő,nem,2022-04-14_23h37.32.793,hesp_baseline,2021.2.3,Win32,59.89458553
,,,,,,,,,,,,,,,,,brubzok,brubzom,right,1.882,0,42,42,92,1,39,brubzik,brubzol,NA,NA,Te bizony sokat brubzol.,Én is sokat...,brubzok,brubzom,lakik,-zik,1,PR2061,1996,nő,nem,2022-04-14_23h37.32.793,hesp_baseline,2021.2.3,Win32,59.89458553
,,,,,,,,,,,,,,,,,píjlom,píjlok,left,2.3192,0,43,43,75,1,22,píjlik,píjlasz,NA,NA,Te bizony sokat píjlasz.,Én is sokat...,píjlok,píjlom,lakik,-lik,1,PR2061,1996,nő,nem,2022-04-14_23h37.32.793,hesp_baseline,2021.2.3,Win32,59.89458553
,,,,,,,,,,,,,,,,,frágapszom,frágapszok,right,2.9642,0,44,44,60,1,7,frágapszik,frágapszol,NA,NA,Te bizony sokat frágapszol.,Én is sokat...,frágapszok,frágapszom,lakik,-szik,2,PR2061,1996,nő,nem,2022-04-14_23h37.32.793,hesp_baseline,2021.2.3,Win32,59.89458553
,,,,,,,,,,,,,,,,,frélegzünk,frélegezünk,left,8.5268,0,45,45,147,1,40,frélegzik / frélegezik,"frélegzik, frélegezni",ünk,NA,"János imád frélegezni, ezért sokat frélegzik.",Mi ritkán...,frélegzünk,frélegezünk,cselekszik,-zik,2,PR2061,1996,nő,nem,2022-04-14_23h37.32.793,hesp_baseline,2021.2.3,Win32,59.89458553
,,,,,,,,,,,,,,,,,prugorzotok,prugoroztok,right,2.534,0,46,46,116,1,9,prugorzik / prugorozik,"prugorzik, prugorozni",tek,NA,"János imád prugorozni, ezért sokat prugorzik.",Ti ritkán...,prugorzotok,prugoroztok,cselekszik,-zik,2,PR2061,1996,nő,nem,2022-04-14_23h37.32.793,hesp_baseline,2021.2.3,Win32,59.89458553
,,,,,,,,,,,,,,,,,sprimlunk,sprimozunk,left,4.4211,0,47,47,127,1,20,sprimlik / sprimozik,"sprimlik, sprimozni",ünk,NA,"János imád sprimozni, ezért sokat sprimlik.",Mi ritkán...,sprimlunk,sprimozunk,cselekszik,-lik,1,PR2061,1996,nő,nem,2022-04-14_23h37.32.793,hesp_baseline,2021.2.3,Win32,59.89458553
,,,,,,,,,,,,,,,,,gyivepszenek,gyivepednek,left,5.4745,0,48,48,160,1,53,gyivepszik / gyivepedik,"gyivepszik, gyivepedni",nek,NA,"János imád gyivepedni, ezért sokat gyivepszik.",Ők ritkán...,gyivepszenek,gyivepednek,cselekszik,-szik,2,PR2061,1996,nő,nem,2022-04-14_23h37.32.793,hesp_baseline,2021.2.3,Win32,59.89458553
,,,,,,,,,,,,,,,,,sztremlek,sztremlem,right,4.6359,0,49,49,95,1,42,sztremlik,sztremlesz,NA,NA,Te bizony sokat sztremlesz.,Én is sokat...,sztremlek,sztremlem,lakik,-lik,1,PR2061,1996,nő,nem,2022-04-14_23h37.32.793,hesp_baseline,2021.2.3,Win32,59.89458553
,,,,,,,,,,,,,,,,,lorzensnél,lorzensnál,right,2.3671,0,50,50,34,1,35,lorzens,lorzens,nál,e,Ez itt egy lorzens.,Nincs is jobb egy jó...,lorzensnél,lorzensnál,dzsungel,NA,NA,PR2061,1996,nő,nem,2022-04-14_23h37.32.793,hesp_baseline,2021.2.3,Win32,59.89458553
,,,,,,,,,,,,,,,,,bölszök,bölszöm,right,2.0853,0,51,51,105,1,52,bölszik,bölszöl,NA,NA,Te bizony sokat bölszöl.,Én is sokat...,bölszök,bölszöm,lakik,-szik,1,PR2061,1996,nő,nem,2022-04-14_23h37.32.793,hesp_baseline,2021.2.3,Win32,59.89458553
,,,,,,,,,,,,,,,,,dujoznak,dujzanak,left,1.9562,0,52,52,128,1,21,dujzik / dujozik,"dujzik, dujozni",nek,NA,"János imád dujozni, ezért sokat dujzik.",Ők ritkán...,dujzanak,dujoznak,cselekszik,-zik,1,PR2061,1996,nő,nem,2022-04-14_23h37.32.793,hesp_baseline,2021.2.3,Win32,59.89458553
,,,,,,,,,,,,,,,,,vanylom,vanylok,right,2.1615,0,53,53,61,1,8,vanylik,vanylasz,NA,NA,Te bizony sokat vanylasz.,Én is sokat...,vanylok,vanylom,lakik,-lik,1,PR2061,1996,nő,nem,2022-04-14_23h37.32.793,hesp_baseline,2021.2.3,Win32,59.89458553
,,,,,,,,,,,,,,,,,hóbensban,hóbensben,left,3.7943,0,54,54,3,1,4,hóbens,hóbens,ban,e,Ez itt egy hóbens.,Ott vagyunk a...,hóbensben,hóbensban,dzsungel,NA,NA,PR2061,1996,nő,nem,2022-04-14_23h37.32.793,hesp_baseline,2021.2.3,Win32,59.89458553
,,,,,,,,,,,,,,,,,spilágzok,spilágzom,right,1.7749,0,55,55,76,1,23,spilágzik,spilágzol,NA,NA,Te bizony sokat spilágzol.,Én is sokat...,spilágzok,spilágzom,lakik,-zik,2,PR2061,1996,nő,nem,2022-04-14_23h37.32.793,hesp_baseline,2021.2.3,Win32,59.89458553
,,,,,,,,,,,,,,,,,hiragzanak,hiragoznak,right,7.7441,0,56,56,119,1,12,hiragzik / hiragozik,"hiragzik, hiragozni",nek,NA,"János imád hiragozni, ezért sokat hiragzik.",Ők ritkán...,hiragzanak,hiragoznak,cselekszik,-zik,2,PR2061,1996,nő,nem,2022-04-14_23h37.32.793,hesp_baseline,2021.2.3,Win32,59.89458553
,,,,,,,,,,,,,,,,,püzöztök,püzlötök,left,5.0622,0,57,57,152,1,45,püzlik / püzözik,"püzlik, püzözni",tek,NA,"János imád püzözni, ezért sokat püzlik.",Ti ritkán...,püzlötök,püzöztök,cselekszik,-lik,1,PR2061,1996,nő,nem,2022-04-14_23h37.32.793,hesp_baseline,2021.2.3,Win32,59.89458553
,,,,,,,,,,,,,,,,,huklok,huklom,right,2.1814,0,58,58,78,1,25,huklik,huklasz,NA,NA,Te bizony sokat huklasz.,Én is sokat...,huklok,huklom,lakik,-lik,1,PR2061,1996,nő,nem,2022-04-14_23h37.32.793,hesp_baseline,2021.2.3,Win32,59.89458553
,,,,,,,,,,,,,,,,,flagárzom,flagárzok,left,1.9765,0,59,59,64,1,11,flagárzik,flagárzol,NA,NA,Te bizony sokat flagárzol.,Én is sokat...,flagárzok,flagárzom,lakik,-zik,2,PR2061,1996,nő,nem,2022-04-14_23h37.32.793,hesp_baseline,2021.2.3,Win32,59.89458553
,,,,,,,,,,,,,,,,,dunkészben,dunkészban,right,2.2864,0,60,60,24,1,25,dunkész,dunkész,ban,é,Ez itt egy dunkész.,Ott vagyunk a...,dunkészben,dunkészban,dzsungel,NA,NA,PR2061,1996,nő,nem,2022-04-14_23h37.32.793,hesp_baseline,2021.2.3,Win32,59.89458553
,,,,,,,,,,,,,,,,,klörlök,klörlöm,right,2.3816,0,61,61,80,1,27,klörlik,klörlesz,NA,NA,Te bizony sokat klörlesz.,Én is sokat...,klörlök,klörlöm,lakik,-lik,1,PR2061,1996,nő,nem,2022-04-14_23h37.32.793,hesp_baseline,2021.2.3,Win32,59.89458553
,,,,,,,,,,,,,,,,,spihemlem,spihemlek,right,2.5306,0,62,62,94,1,41,spihemlik,spihemlesz,NA,NA,Te bizony sokat spihemlesz.,Én is sokat...,spihemlek,spihemlem,lakik,-lik,2,PR2061,1996,nő,nem,2022-04-14_23h37.32.793,hesp_baseline,2021.2.3,Win32,59.89458553
,,,,,,,,,,,,,,,,,naremban,naremben,left,1.8761,0,63,63,2,1,3,narem,narem,ban,e,Ez itt egy narem.,Ott vagyunk a...,naremben,naremban,dzsungel,NA,NA,PR2061,1996,nő,nem,2022-04-14_23h37.32.793,hesp_baseline,2021.2.3,Win32,59.89458553
,,,,,,,,,,,,,,,,,prélemeznek,prélemlenek,left,7.11,0,64,64,110,1,3,prélemlik / prélemezik,"prélemlik, prélemezni",nek,NA,"János imád prélemezni, ezért sokat prélemlik.",Ők ritkán...,prélemlenek,prélemeznek,cselekszik,-lik,2,PR2061,1996,nő,nem,2022-04-14_23h37.32.793,hesp_baseline,2021.2.3,Win32,59.89458553
,,,,,,,,,,,,,,,,,pilégednek,pilégszenek,left,2.9855,0,65,65,150,1,43,pilégszik / pilégedik,"pilégszik, pilégedni",nek,NA,"János imád pilégedni, ezért sokat pilégszik.",Ők ritkán...,pilégszenek,pilégednek,cselekszik,-szik,2,PR2061,1996,nő,nem,2022-04-14_23h37.32.793,hesp_baseline,2021.2.3,Win32,59.89458553
,,,,,,,,,,,,,,,,,hurjorzok,hurjorzom,right,4.4932,0,66,66,59,1,6,hurjorzik,hurjorzol,NA,NA,Te bizony sokat hurjorzol.,Én is sokat...,hurjorzok,hurjorzom,lakik,-zik,2,PR2061,1996,nő,nem,2022-04-14_23h37.32.793,hesp_baseline,2021.2.3,Win32,59.89458553
,,,,,,,,,,,,,,,,,málapszok,málapszom,right,3.8104,0,67,67,66,1,13,málapszik,málapszol,NA,NA,Te bizony sokat málapszol.,Én is sokat...,málapszok,málapszom,lakik,-szik,2,PR2061,1996,nő,nem,2022-04-14_23h37.32.793,hesp_baseline,2021.2.3,Win32,59.89458553
,,,,,,,,,,,,,,,,,flérlek,flérlem,left,2.5472,0,68,68,89,1,36,flérlik,flérlesz,NA,NA,Te bizony sokat flérlesz.,Én is sokat...,flérlek,flérlem,lakik,-lik,1,PR2061,1996,nő,nem,2022-04-14_23h37.32.793,hesp_baseline,2021.2.3,Win32,59.89458553
,,,,,,,,,,,,,,,,,hilarzok,hilarzom,right,2.9153,0,69,69,69,1,16,hilarzik,hilarzol,NA,NA,Te bizony sokat hilarzol.,Én is sokat...,hilarzok,hilarzom,lakik,-zik,2,PR2061,1996,nő,nem,2022-04-14_23h37.32.793,hesp_baseline,2021.2.3,Win32,59.89458553
,,,,,,,,,,,,,,,,,gyibeslek,gyibeslem,right,2.5275,0,70,70,98,1,45,gyibeslik,gyibeslesz,NA,NA,Te bizony sokat gyibeslesz.,Én is sokat...,gyibeslek,gyibeslem,lakik,-lik,2,PR2061,1996,nő,nem,2022-04-14_23h37.32.793,hesp_baseline,2021.2.3,Win32,59.89458553
,,,,,,,,,,,,,,,,,tragzok,tragzom,left,1.5092,0,71,71,90,1,37,tragzik,tragzol,NA,NA,Te bizony sokat tragzol.,Én is sokat...,tragzok,tragzom,lakik,-zik,1,PR2061,1996,nő,nem,2022-04-14_23h37.32.793,hesp_baseline,2021.2.3,Win32,59.89458553
,,,,,,,,,,,,,,,,,tarhézban,tarhézben,right,5.6729,0,72,72,25,1,26,tarhéz,tarhéz,ban,é,Ez itt egy tarhéz.,Ott vagyunk a...,tarhézben,tarhézban,dzsungel,NA,NA,PR2061,1996,nő,nem,2022-04-14_23h37.32.793,hesp_baseline,2021.2.3,Win32,59.89458553
,,,,,,,,,,,,,,,,,bejzünk,bejezünk,left,5.0595,0,73,73,148,1,41,bejzik / bejezik,"bejzik, bejezni",ünk,NA,"János imád bejezni, ezért sokat bejzik.",Mi ritkán...,bejzünk,bejezünk,cselekszik,-zik,1,PR2061,1996,nő,nem,2022-04-14_23h37.32.793,hesp_baseline,2021.2.3,Win32,59.89458553
,,,,,,,,,,,,,,,,,spicetnek,spicetnak,left,3.8338,0,74,74,35,1,36,spicet,spicet,nak,e,Ez itt egy spicet.,Elneveztem a kutyámat...,spicetnek,spicetnak,dzsungel,NA,NA,PR2061,1996,nő,nem,2022-04-14_23h37.32.793,hesp_baseline,2021.2.3,Win32,59.89458553
,,,,,,,,,,,,,,,,,priszkencnek,priszkencnak,left,2.3581,0,75,75,20,1,21,priszkenc,priszkenc,nak,e,Ez itt egy priszkenc.,Elneveztem a kutyámat...,priszkencnek,priszkencnak,dzsungel,NA,NA,PR2061,1996,nő,nem,2022-04-14_23h37.32.793,hesp_baseline,2021.2.3,Win32,59.89458553
,,,,,,,,,,,,,,,,,bregzünk,bregezünk,left,4.5008,0,76,76,139,1,32,bregzik / bregezik,"bregzik, bregezni",ünk,NA,"János imád bregezni, ezért sokat bregzik.",Mi ritkán...,bregzünk,bregezünk,cselekszik,-zik,1,PR2061,1996,nő,nem,2022-04-14_23h37.32.793,hesp_baseline,2021.2.3,Win32,59.89458553
,,,,,,,,,,,,,,,,,spibaklom,spibaklok,right,1.9754,0,77,77,55,1,2,spibaklik,spibaklasz,NA,NA,Te bizony sokat spibaklasz.,Én is sokat...,spibaklok,spibaklom,lakik,-lik,2,PR2061,1996,nő,nem,2022-04-14_23h37.32.793,hesp_baseline,2021.2.3,Win32,59.89458553
,,,,,,,,,,,,,,,,,föködnek,fökszenek,left,1.628,0,78,78,131,1,24,fökszik / föködik,"fökszik, föködni",nek,NA,"János imád föködni, ezért sokat fökszik.",Ők ritkán...,fökszenek,föködnek,cselekszik,-szik,1,PR2061,1996,nő,nem,2022-04-14_23h37.32.793,hesp_baseline,2021.2.3,Win32,59.89458553
,,,,,,,,,,,,,,,,,salárzok,salárzom,left,1.4435,0,79,79,103,1,50,salárzik,salárzol,NA,NA,Te bizony sokat salárzol.,Én is sokat...,salárzok,salárzom,lakik,-zik,2,PR2061,1996,nő,nem,2022-04-14_23h37.32.793,hesp_baseline,2021.2.3,Win32,59.89458553
,,,,,,,,,,,,,,,,,buhényben,buhényban,right,1.5728,0,80,80,43,1,44,buhény,buhény,ban,é,Ez itt egy buhény.,Ott vagyunk a...,buhényben,buhényban,dzsungel,NA,NA,PR2061,1996,nő,nem,2022-04-14_23h37.32.793,hesp_baseline,2021.2.3,Win32,59.89458553
,,,,,,,,,,,,,,,,,brüszöztök,brüszlötök,left,2.0984,0,81,81,130,1,23,brüszlik / brüszözik,"brüszlik, brüszözni",tek,NA,"János imád brüszözni, ezért sokat brüszlik.",Ti ritkán...,brüszlötök,brüszöztök,cselekszik,-lik,1,PR2061,1996,nő,nem,2022-04-14_23h37.32.793,hesp_baseline,2021.2.3,Win32,59.89458553
,,,,,,,,,,,,,,,,,kűdöznek,kűdlenek,right,3.3197,0,82,82,142,1,35,kűdlik / kűdözik,"kűdlik, kűdözni",nek,NA,"János imád kűdözni, ezért sokat kűdlik.",Ők ritkán...,kűdlenek,kűdöznek,cselekszik,-lik,1,PR2061,1996,nő,nem,2022-04-14_23h37.32.793,hesp_baseline,2021.2.3,Win32,59.89458553
,,,,,,,,,,,,,,,,,spatszok,spatszom,right,2.7854,0,83,83,73,1,20,spatszik,spatszol,NA,NA,Te bizony sokat spatszol.,Én is sokat...,spatszok,spatszom,lakik,-szik,1,PR2061,1996,nő,nem,2022-04-14_23h37.32.793,hesp_baseline,2021.2.3,Win32,59.89458553
,,,,,,,,,,,,,,,,,riványlotok,riványoztok,right,3.282,0,84,84,117,1,10,riványlik / riványozik,"riványlik, riványozni",tek,NA,"János imád riványozni, ezért sokat riványlik.",Ti ritkán...,riványlotok,riványoztok,cselekszik,-lik,2,PR2061,1996,nő,nem,2022-04-14_23h37.32.793,hesp_baseline,2021.2.3,Win32,59.89458553
,,,,,,,,,,,,,,,,,brarlom,brarlok,left,1.9976,0,85,85,71,1,18,brarlik,brarlasz,NA,NA,Te bizony sokat brarlasz.,Én is sokat...,brarlok,brarlom,lakik,-lik,1,PR2061,1996,nő,nem,2022-04-14_23h37.32.793,hesp_baseline,2021.2.3,Win32,59.89458553
,,,,,,,,,,,,,,,,,bötőrzünk,bötőrözünk,left,3.2704,0,86,86,158,1,51,bötőrzik / bötőrözik,"bötőrzik, bötőrözni",ünk,NA,"János imád bötőrözni, ezért sokat bötőrzik.",Mi ritkán...,bötőrzünk,bötőrözünk,cselekszik,-zik,2,PR2061,1996,nő,nem,2022-04-14_23h37.32.793,hesp_baseline,2021.2.3,Win32,59.89458553
,,,,,,,,,,,,,,,,,spűmlöm,spűmlök,right,2.6491,0,87,87,86,1,33,spűmlik,spűmlesz,NA,NA,Te bizony sokat spűmlesz.,Én is sokat...,spűmlök,spűmlöm,lakik,-lik,1,PR2061,1996,nő,nem,2022-04-14_23h37.32.793,hesp_baseline,2021.2.3,Win32,59.89458553
,,,,,,,,,,,,,,,,,filágzom,filágzok,left,2.6723,0,88,88,102,1,49,filágzik,filágzol,NA,NA,Te bizony sokat filágzol.,Én is sokat...,filágzok,filágzom,lakik,-zik,2,PR2061,1996,nő,nem,2022-04-14_23h37.32.793,hesp_baseline,2021.2.3,Win32,59.89458553
,,,,,,,,,,,,,,,,,sztrajoznak,sztrajlanak,left,7.7793,0,89,89,144,1,37,sztrajlik / sztrajozik,"sztrajlik, sztrajozni",nek,NA,"János imád sztrajozni, ezért sokat sztrajlik.",Ők ritkán...,sztrajlanak,sztrajoznak,cselekszik,-lik,1,PR2061,1996,nő,nem,2022-04-14_23h37.32.793,hesp_baseline,2021.2.3,Win32,59.89458553
,,,,,,,,,,,,,,,,,privékednek,privékszenek,right,4.8362,0,90,90,149,1,42,privékszik / privékedik,"privékszik, privékedni",nek,NA,"János imád privékedni, ezért sokat privékszik.",Ők ritkán...,privékszenek,privékednek,cselekszik,-szik,2,PR2061,1996,nő,nem,2022-04-14_23h37.32.793,hesp_baseline,2021.2.3,Win32,59.89458553
,,,,,,,,,,,,,,,,,gonszéknál,gonszéknél,left,2.002,0,91,91,38,1,39,gonszék,gonszék,nál,é,Ez itt egy gonszék.,Nincs is jobb egy jó...,gonszéknél,gonszéknál,dzsungel,NA,NA,PR2061,1996,nő,nem,2022-04-14_23h37.32.793,hesp_baseline,2021.2.3,Win32,59.89458553
,,,,,,,,,,,,,,,,,pliboztok,plibzotok,right,3.8189,0,92,92,140,1,33,plibzik / plibozik,"plibzik, plibozni",tek,NA,"János imád plibozni, ezért sokat plibzik.",Ti ritkán...,plibzotok,pliboztok,cselekszik,-zik,1,PR2061,1996,nő,nem,2022-04-14_23h37.32.793,hesp_baseline,2021.2.3,Win32,59.89458553
,,,,,,,,,,,,,,,,,kaszépnek,kaszépnak,right,3.3771,0,93,93,40,1,41,kaszép,kaszép,nak,é,Ez itt egy kaszép.,Elneveztem a kutyámat...,kaszépnek,kaszépnak,dzsungel,NA,NA,PR2061,1996,nő,nem,2022-04-14_23h37.32.793,hesp_baseline,2021.2.3,Win32,59.89458553
,,,,,,,,,,,,,,,,,spábétban,spábétben,left,2.2017,0,94,94,51,1,52,spábét,spábét,ban,é,Ez itt egy spábét.,Ott vagyunk a...,spábétben,spábétban,dzsungel,NA,NA,PR2061,1996,nő,nem,2022-04-14_23h37.32.793,hesp_baseline,2021.2.3,Win32,59.89458553
,,,,,,,,,,,,,,,,,livaklok,livaklom,right,2.1392,0,95,95,82,1,29,livaklik,livaklasz,NA,NA,Te bizony sokat livaklasz.,Én is sokat...,livaklok,livaklom,lakik,-lik,2,PR2061,1996,nő,nem,2022-04-14_23h37.32.793,hesp_baseline,2021.2.3,Win32,59.89458553
,,,,,,,,,,,,,,,,,köszöztök,köszlötök,left,1.4788,0,96,96,120,1,13,köszlik / köszözik,"köszlik, köszözni",tek,NA,"János imád köszözni, ezért sokat köszlik.",Ti ritkán...,köszlötök,köszöztök,cselekszik,-lik,1,PR2061,1996,nő,nem,2022-04-14_23h37.32.793,hesp_baseline,2021.2.3,Win32,59.89458553
,,,,,,,,,,,,,,,,,vilakszok,vilakszom,right,1.3947,0,97,97,97,1,44,vilakszik,vilakszol,NA,NA,Te bizony sokat vilakszol.,Én is sokat...,vilakszok,vilakszom,lakik,-szik,2,PR2061,1996,nő,nem,2022-04-14_23h37.32.793,hesp_baseline,2021.2.3,Win32,59.89458553
,,,,,,,,,,,,,,,,,nyülököznek,nyülöklenek,left,3.6587,0,98,98,108,1,1,nyülöklik / nyülöközik,"nyülöklik, nyülöközni",nek,NA,"János imád nyülöközni, ezért sokat nyülöklik.",Ők ritkán...,nyülöklenek,nyülököznek,cselekszik,-lik,2,PR2061,1996,nő,nem,2022-04-14_23h37.32.793,hesp_baseline,2021.2.3,Win32,59.89458553
,,,,,,,,,,,,,,,,,rokszok,rokszom,right,1.5829,0,99,99,101,1,48,rokszik,rokszol,NA,NA,Te bizony sokat rokszol.,Én is sokat...,rokszok,rokszom,lakik,-szik,1,PR2061,1996,nő,nem,2022-04-14_23h37.32.793,hesp_baseline,2021.2.3,Win32,59.89458553
,,,,,,,,,,,,,,,,,brobódzok,brobódzom,right,1.9156,0,100,100,96,1,43,brobódzik,brobódzol,NA,NA,Te bizony sokat brobódzol.,Én is sokat...,brobódzok,brobódzom,lakik,-zik,2,PR2061,1996,nő,nem,2022-04-14_23h37.32.793,hesp_baseline,2021.2.3,Win32,59.89458553
,,,,,,,,,,,,,,,,,kliszernél,kliszernál,right,3.5155,0,101,101,31,1,32,kliszer,kliszer,nál,e,Ez itt egy kliszer.,Nincs is jobb egy jó...,kliszernél,kliszernál,dzsungel,NA,NA,PR2061,1996,nő,nem,2022-04-14_23h37.32.793,hesp_baseline,2021.2.3,Win32,59.89458553
,,,,,,,,,,,,,,,,,spéslem,spéslek,left,1.6424,0,102,102,93,1,40,spéslik,spéslesz,NA,NA,Te bizony sokat spéslesz.,Én is sokat...,spéslek,spéslem,lakik,-lik,1,PR2061,1996,nő,nem,2022-04-14_23h37.32.793,hesp_baseline,2021.2.3,Win32,59.89458553
,,,,,,,,,,,,,,,,,préleglek,préleglem,right,1.1115,0,103,103,104,1,51,préleglik,préleglesz,NA,NA,Te bizony sokat préleglesz.,Én is sokat...,préleglek,préleglem,lakik,-lik,2,PR2061,1996,nő,nem,2022-04-14_23h37.32.793,hesp_baseline,2021.2.3,Win32,59.89458553
,,,,,,,,,,,,,,,,,jüslök,jüslöm,left,2.8602,0,104,104,56,1,3,jüslik,jüslesz,NA,NA,Te bizony sokat jüslesz.,Én is sokat...,jüslök,jüslöm,lakik,-lik,1,PR2061,1996,nő,nem,2022-04-14_23h37.32.793,hesp_baseline,2021.2.3,Win32,59.89458553
,,,,,,,,,,,,,,,,,feténylem,feténylek,right,2.2926,0,105,105,85,1,32,feténylik,feténylesz,NA,NA,Te bizony sokat feténylesz.,Én is sokat...,feténylek,feténylem,lakik,-lik,2,PR2061,1996,nő,nem,2022-04-14_23h37.32.793,hesp_baseline,2021.2.3,Win32,59.89458553
,,,,,,,,,,,,,,,,,csublényban,csublényben,left,1.5877,0,106,106,16,1,17,csublény,csublény,ban,é,Ez itt egy csublény.,Ott vagyunk a...,csublényben,csublényban,dzsungel,NA,NA,PR2061,1996,nő,nem,2022-04-14_23h37.32.793,hesp_baseline,2021.2.3,Win32,59.89458553
,,,,,,,,,,,,,,,,,mádépnél,mádépnál,right,2.2356,0,107,107,1,1,2,mádép,mádép,nál,é,Ez itt egy mádép.,Nincs is jobb egy jó...,mádépnél,mádépnál,dzsungel,NA,NA,PR2061,1996,nő,nem,2022-04-14_23h37.32.793,hesp_baseline,2021.2.3,Win32,59.89458553
,,,,,,,,,,,,,,,,,breseznek,breslenek,left,1.8998,0,108,108,115,1,8,breslik / bresezik,"breslik, bresezni",nek,NA,"János imád bresezni, ezért sokat breslik.",Ők ritkán...,breslenek,breseznek,cselekszik,-lik,1,PR2061,1996,nő,nem,2022-04-14_23h37.32.793,hesp_baseline,2021.2.3,Win32,59.89458553
,,,,,,,,,,,,,,,,,darhénban,darhénben,left,2.7355,0,109,109,27,1,28,darhén,darhén,ban,é,Ez itt egy darhén.,Ott vagyunk a...,darhénben,darhénban,dzsungel,NA,NA,PR2061,1996,nő,nem,2022-04-14_23h37.32.793,hesp_baseline,2021.2.3,Win32,59.89458553
,,,,,,,,,,,,,,,,,vismernál,vismernél,right,2.0999,0,110,110,13,1,14,vismer,vismer,nál,e,Ez itt egy vismer.,Nincs is jobb egy jó...,vismernél,vismernál,dzsungel,NA,NA,PR2061,1996,nő,nem,2022-04-14_23h37.32.793,hesp_baseline,2021.2.3,Win32,59.89458553
,,,,,,,,,,,,,,,,,frorlanak,froroznak,left,2.3474,0,111,111,143,1,36,frorlik / frorozik,"frorlik, frorozni",nek,NA,"János imád frorozni, ezért sokat frorlik.",Ők ritkán...,frorlanak,froroznak,cselekszik,-lik,1,PR2061,1996,nő,nem,2022-04-14_23h37.32.793,hesp_baseline,2021.2.3,Win32,59.89458553
,,,,,,,,,,,,,,,,,jalrénynél,jalrénynál,right,2.2273,0,112,112,0,1,1,jalrény,jalrény,nál,é,Ez itt egy jalrény.,Nincs is jobb egy jó...,jalrénynél,jalrénynál,dzsungel,NA,NA,PR2061,1996,nő,nem,2022-04-14_23h37.32.793,hesp_baseline,2021.2.3,Win32,59.89458553
,,,,,,,,,,,,,,,,,klihaslotok,klihasoztok,left,1.9841,0,113,113,156,1,49,klihaslik / klihasozik,"klihaslik, klihasozni",tek,NA,"János imád klihasozni, ezért sokat klihaslik.",Ti ritkán...,klihaslotok,klihasoztok,cselekszik,-lik,2,PR2061,1996,nő,nem,2022-04-14_23h37.32.793,hesp_baseline,2021.2.3,Win32,59.89458553
,,,,,,,,,,,,,,,,,pekszünk,pekedünk,left,2.2086,0,114,114,161,1,54,pekszik / pekedik,"pekszik, pekedni",ünk,NA,"János imád pekedni, ezért sokat pekszik.",Mi ritkán...,pekszünk,pekedünk,cselekszik,-szik,1,PR2061,1996,nő,nem,2022-04-14_23h37.32.793,hesp_baseline,2021.2.3,Win32,59.89458553
,,,,,,,,,,,,,,,,,lihénynak,lihénynek,right,3.3836,0,115,115,23,1,24,lihény,lihény,nak,é,Ez itt egy lihény.,Elneveztem a kutyámat...,lihénynek,lihénynak,dzsungel,NA,NA,PR2061,1996,nő,nem,2022-04-14_23h37.32.793,hesp_baseline,2021.2.3,Win32,59.89458553
,,,,,,,,,,,,,,,,,pítszok,pítszom,right,2.1834,0,116,116,62,1,9,pítszik,pítszol,NA,NA,Te bizony sokat pítszol.,Én is sokat...,pítszok,pítszom,lakik,-szik,1,PR2061,1996,nő,nem,2022-04-14_23h37.32.793,hesp_baseline,2021.2.3,Win32,59.89458553
,,,,,,,,,,,,,,,,,aglom,aglok,right,2.4257,0,117,117,100,1,47,aglik,aglasz,NA,NA,Te bizony sokat aglasz.,Én is sokat...,aglok,aglom,lakik,-lik,1,PR2061,1996,nő,nem,2022-04-14_23h37.32.793,hesp_baseline,2021.2.3,Win32,59.89458553
,,,,,,,,,,,,,,,,,jorzégnak,jorzégnek,left,2.7386,0,118,118,45,1,46,jorzég,jorzég,nak,é,Ez itt egy jorzég.,Elneveztem a kutyámat...,jorzégnek,jorzégnak,dzsungel,NA,NA,PR2061,1996,nő,nem,2022-04-14_23h37.32.793,hesp_baseline,2021.2.3,Win32,59.89458553
,,,,,,,,,,,,,,,,,sihennél,sihennál,left,2.7313,0,119,119,18,1,19,sihen,sihen,nál,e,Ez itt egy sihen.,Nincs is jobb egy jó...,sihennél,sihennál,dzsungel,NA,NA,PR2061,1996,nő,nem,2022-04-14_23h37.32.793,hesp_baseline,2021.2.3,Win32,59.89458553
,,,,,,,,,,,,,,,,,jukélnál,jukélnél,right,1.9356,0,120,120,42,1,43,jukél,jukél,nál,é,Ez itt egy jukél.,Nincs is jobb egy jó...,jukélnél,jukélnál,dzsungel,NA,NA,PR2061,1996,nő,nem,2022-04-14_23h37.32.793,hesp_baseline,2021.2.3,Win32,59.89458553
,,,,,,,,,,,,,,,,,tivencben,tivencban,left,1.4667,0,121,121,53,1,54,tivenc,tivenc,ban,e,Ez itt egy tivenc.,Ott vagyunk a...,tivencben,tivencban,dzsungel,NA,NA,PR2061,1996,nő,nem,2022-04-14_23h37.32.793,hesp_baseline,2021.2.3,Win32,59.89458553
,,,,,,,,,,,,,,,,,frirzunk,frirozunk,left,2.9158,0,122,122,129,1,22,frirzik / frirozik,"frirzik, frirozni",ünk,NA,"János imád frirozni, ezért sokat frirzik.",Mi ritkán...,frirzunk,frirozunk,cselekszik,-zik,1,PR2061,1996,nő,nem,2022-04-14_23h37.32.793,hesp_baseline,2021.2.3,Win32,59.89458553
,,,,,,,,,,,,,,,,,gihejlünk,gihejezünk,left,3.1152,0,123,123,146,1,39,gihejlik / gihejezik,"gihejlik, gihejezni",ünk,NA,"János imád gihejezni, ezért sokat gihejlik.",Mi ritkán...,gihejlünk,gihejezünk,cselekszik,-lik,2,PR2061,1996,nő,nem,2022-04-14_23h37.32.793,hesp_baseline,2021.2.3,Win32,59.89458553
,,,,,,,,,,,,,,,,,szibedban,szibedben,right,3.1851,0,124,124,47,1,48,szibed,szibed,ban,e,Ez itt egy szibed.,Ott vagyunk a...,szibedben,szibedban,dzsungel,NA,NA,PR2061,1996,nő,nem,2022-04-14_23h37.32.793,hesp_baseline,2021.2.3,Win32,59.89458553
,,,,,,,,,,,,,,,,,hijegynél,hijegynál,left,2.9763,0,125,125,4,1,5,hijegy,hijegy,nál,e,Ez itt egy hijegy.,Nincs is jobb egy jó...,hijegynél,hijegynál,dzsungel,NA,NA,PR2061,1996,nő,nem,2022-04-14_23h37.32.793,hesp_baseline,2021.2.3,Win32,59.89458553
,,,,,,,,,,,,,,,,,zsúdelnek,zsúdelnak,left,2.7477,0,126,126,14,1,15,zsúdel,zsúdel,nak,e,Ez itt egy zsúdel.,Elneveztem a kutyámat...,zsúdelnek,zsúdelnak,dzsungel,NA,NA,PR2061,1996,nő,nem,2022-04-14_23h37.32.793,hesp_baseline,2021.2.3,Win32,59.89458553
,,,,,,,,,,,,,,,,,hosétnak,hosétnek,right,1.44,0,127,127,8,1,9,hosét,hosét,nak,é,Ez itt egy hosét.,Elneveztem a kutyámat...,hosétnek,hosétnak,dzsungel,NA,NA,PR2061,1996,nő,nem,2022-04-14_23h37.32.793,hesp_baseline,2021.2.3,Win32,59.89458553
,,,,,,,,,,,,,,,,,brülösözünk,brülöslünk,left,4.3895,0,128,128,109,1,2,brülöslik / brülösözik,"brülöslik, brülösözni",ünk,NA,"János imád brülösözni, ezért sokat brülöslik.",Mi ritkán...,brülöslünk,brülösözünk,cselekszik,-lik,2,PR2061,1996,nő,nem,2022-04-14_23h37.32.793,hesp_baseline,2021.2.3,Win32,59.89458553
,,,,,,,,,,,,,,,,,spivejlenek,spivejeznek,right,1.5135,0,129,129,125,1,18,spivejlik / spivejezik,"spivejlik, spivejezni",nek,NA,"János imád spivejezni, ezért sokat spivejlik.",Ők ritkán...,spivejlenek,spivejeznek,cselekszik,-lik,2,PR2061,1996,nő,nem,2022-04-14_23h37.32.793,hesp_baseline,2021.2.3,Win32,59.89458553
,,,,,,,,,,,,,,,,,nyizlunk,nyizozunk,right,2.8482,0,130,130,135,1,28,nyizlik / nyizozik,"nyizlik, nyizozni",ünk,NA,"János imád nyizozni, ezért sokat nyizlik.",Mi ritkán...,nyizlunk,nyizozunk,cselekszik,-lik,1,PR2061,1996,nő,nem,2022-04-14_23h37.32.793,hesp_baseline,2021.2.3,Win32,59.89458553
,,,,,,,,,,,,,,,,,vodépnek,vodépnak,right,2.0333,0,131,131,41,1,42,vodép,vodép,nak,é,Ez itt egy vodép.,Elneveztem a kutyámat...,vodépnek,vodépnak,dzsungel,NA,NA,PR2061,1996,nő,nem,2022-04-14_23h37.32.793,hesp_baseline,2021.2.3,Win32,59.89458553
,,,,,,,,,,,,,,,,,sprudozunk,sprudlunk,left,1.4333,0,132,132,136,1,29,sprudlik / sprudozik,"sprudlik, sprudozni",ünk,NA,"János imád sprudozni, ezért sokat sprudlik.",Mi ritkán...,sprudlunk,sprudozunk,cselekszik,-lik,1,PR2061,1996,nő,nem,2022-04-14_23h37.32.793,hesp_baseline,2021.2.3,Win32,59.89458553
,,,,,,,,,,,,,,,,,nuhétnál,nuhétnél,left,2.3198,0,133,133,29,1,30,nuhét,nuhét,nál,é,Ez itt egy nuhét.,Nincs is jobb egy jó...,nuhétnél,nuhétnál,dzsungel,NA,NA,PR2061,1996,nő,nem,2022-04-14_23h37.32.793,hesp_baseline,2021.2.3,Win32,59.89458553
,,,,,,,,,,,,,,,,,narádzok,narádzom,right,1.8827,0,134,134,63,1,10,narádzik,narádzol,NA,NA,Te bizony sokat narádzol.,Én is sokat...,narádzok,narádzom,lakik,-zik,2,PR2061,1996,nő,nem,2022-04-14_23h37.32.793,hesp_baseline,2021.2.3,Win32,59.89458553
,,,,,,,,,,,,,,,,,sprédlek,sprédlem,right,1.3833,0,135,135,70,1,17,sprédlik,sprédlesz,NA,NA,Te bizony sokat sprédlesz.,Én is sokat...,sprédlek,sprédlem,lakik,-lik,1,PR2061,1996,nő,nem,2022-04-14_23h37.32.793,hesp_baseline,2021.2.3,Win32,59.89458553
,,,,,,,,,,,,,,,,,bribasoznak,bribaslanak,left,1.884,0,136,136,121,1,14,bribaslik / bribasozik,"bribaslik, bribasozni",nek,NA,"János imád bribasozni, ezért sokat bribaslik.",Ők ritkán...,bribaslanak,bribasoznak,cselekszik,-lik,2,PR2061,1996,nő,nem,2022-04-14_23h37.32.793,hesp_baseline,2021.2.3,Win32,59.89458553
,,,,,,,,,,,,,,,,,csarténynek,csarténynak,right,2.2506,0,137,137,36,1,37,csartény,csartény,nak,é,Ez itt egy csartény.,Elneveztem a kutyámat...,csarténynek,csarténynak,dzsungel,NA,NA,PR2061,1996,nő,nem,2022-04-14_23h37.32.793,hesp_baseline,2021.2.3,Win32,59.89458553
,,,,,,,,,,,,,,,,,trukszotok,trukodtok,left,5.2356,0,138,138,157,1,50,trukszik / trukodik,"trukszik, trukodni",tek,NA,"János imád trukodni, ezért sokat trukszik.",Ti ritkán...,trukszotok,trukodtok,cselekszik,-szik,1,PR2061,1996,nő,nem,2022-04-14_23h37.32.793,hesp_baseline,2021.2.3,Win32,59.89458553
,,,,,,,,,,,,,,,,,bügzenek,bügöznek,left,2.9075,0,139,139,118,1,11,bügzik / bügözik,"bügzik, bügözni",nek,NA,"János imád bügözni, ezért sokat bügzik.",Ők ritkán...,bügzenek,bügöznek,cselekszik,-zik,1,PR2061,1996,nő,nem,2022-04-14_23h37.32.793,hesp_baseline,2021.2.3,Win32,59.89458553
,,,,,,,,,,,,,,,,,prögzötök,prögöztök,right,1.6256,0,140,140,151,1,44,prögzik / prögözik,"prögzik, prögözni",tek,NA,"János imád prögözni, ezért sokat prögzik.",Ti ritkán...,prögzötök,prögöztök,cselekszik,-zik,1,PR2061,1996,nő,nem,2022-04-14_23h37.32.793,hesp_baseline,2021.2.3,Win32,59.89458553
,,,,,,,,,,,,,,,,,plövőrzöm,plövőrzök,left,0.7896,0,141,141,58,1,5,plövőrzik,plövőrzöl,NA,NA,Te bizony sokat plövőrzöl.,Én is sokat...,plövőrzök,plövőrzöm,lakik,-zik,2,PR2061,1996,nő,nem,2022-04-14_23h37.32.793,hesp_baseline,2021.2.3,Win32,59.89458553
,,,,,,,,,,,,,,,,,brigesztnak,brigesztnek,left,1.2542,0,142,142,48,1,49,brigeszt,brigeszt,nak,e,Ez itt egy brigeszt.,Elneveztem a kutyámat...,brigesztnek,brigesztnak,dzsungel,NA,NA,PR2061,1996,nő,nem,2022-04-14_23h37.32.793,hesp_baseline,2021.2.3,Win32,59.89458553
,,,,,,,,,,,,,,,,,vihapszunk,vihapodunk,right,4.2819,0,143,143,112,1,5,vihapszik / vihapodik,"vihapszik, vihapodni",ünk,NA,"János imád vihapodni, ezért sokat vihapszik.",Mi ritkán...,vihapszunk,vihapodunk,cselekszik,-szik,2,PR2061,1996,nő,nem,2022-04-14_23h37.32.793,hesp_baseline,2021.2.3,Win32,59.89458553
,,,,,,,,,,,,,,,,,plűbzöm,plűbzök,left,1.1961,0,144,144,107,1,54,plűbzik,plűbzöl,NA,NA,Te bizony sokat plűbzöl.,Én is sokat...,plűbzök,plűbzöm,lakik,-zik,1,PR2061,1996,nő,nem,2022-04-14_23h37.32.793,hesp_baseline,2021.2.3,Win32,59.89458553
,,,,,,,,,,,,,,,,,zsalrénnek,zsalrénnak,right,1.5874,0,145,145,19,1,20,zsalrén,zsalrén,nak,é,Ez itt egy zsalrén.,Elneveztem a kutyámat...,zsalrénnek,zsalrénnak,dzsungel,NA,NA,PR2061,1996,nő,nem,2022-04-14_23h37.32.793,hesp_baseline,2021.2.3,Win32,59.89458553
,,,,,,,,,,,,,,,,,hivépban,hivépben,left,1.7067,0,146,146,44,1,45,hivép,hivép,ban,é,Ez itt egy hivép.,Ott vagyunk a...,hivépben,hivépban,dzsungel,NA,NA,PR2061,1996,nő,nem,2022-04-14_23h37.32.793,hesp_baseline,2021.2.3,Win32,59.89458553
,,,,,,,,,,,,,,,,,herégszem,herégszek,left,1.3718,0,147,147,54,1,1,herégszik,herégszel,NA,NA,Te bizony sokat herégszel.,Én is sokat...,herégszek,herégszem,lakik,-szik,2,PR2061,1996,nő,nem,2022-04-14_23h37.32.793,hesp_baseline,2021.2.3,Win32,59.89458553
,,,,,,,,,,,,,,,,,dábegyben,dábegyban,right,1.6691,0,148,148,6,1,7,dábegy,dábegy,ban,e,Ez itt egy dábegy.,Ott vagyunk a...,dábegyben,dábegyban,dzsungel,NA,NA,PR2061,1996,nő,nem,2022-04-14_23h37.32.793,hesp_baseline,2021.2.3,Win32,59.89458553
,,,,,,,,,,,,,,,,,dajrensnél,dajrensnál,right,2.8713,0,149,149,49,1,50,dajrens,dajrens,nál,e,Ez itt egy dajrens.,Nincs is jobb egy jó...,dajrensnél,dajrensnál,dzsungel,NA,NA,PR2061,1996,nő,nem,2022-04-14_23h37.32.793,hesp_baseline,2021.2.3,Win32,59.89458553
,,,,,,,,,,,,,,,,,frinylunk,frinyozunk,right,2.915,0,150,150,133,1,26,frinylik / frinyozik,"frinylik, frinyozni",ünk,NA,"János imád frinyozni, ezért sokat frinylik.",Mi ritkán...,frinylunk,frinyozunk,cselekszik,-lik,1,PR2061,1996,nő,nem,2022-04-14_23h37.32.793,hesp_baseline,2021.2.3,Win32,59.89458553
,,,,,,,,,,,,,,,,,galároznak,galárzanak,left,1.4906,0,151,151,154,1,47,galárzik / galározik,"galárzik, galározni",nek,NA,"János imád galározni, ezért sokat galárzik.",Ők ritkán...,galárzanak,galároznak,cselekszik,-zik,2,PR2061,1996,nő,nem,2022-04-14_23h37.32.793,hesp_baseline,2021.2.3,Win32,59.89458553
,,,,,,,,,,,,,,,,,géregeztek,géregletek,left,2.8173,0,152,152,124,1,17,géreglik / géregezik,"géreglik, géregezni",tek,NA,"János imád géregezni, ezért sokat géreglik.",Ti ritkán...,géregletek,géregeztek,cselekszik,-lik,2,PR2061,1996,nő,nem,2022-04-14_23h37.32.793,hesp_baseline,2021.2.3,Win32,59.89458553
,,,,,,,,,,,,,,,,,friheglünk,frihegezünk,right,2.1785,0,153,153,132,1,25,friheglik / frihegezik,"friheglik, frihegezni",ünk,NA,"János imád frihegezni, ezért sokat friheglik.",Mi ritkán...,friheglünk,frihegezünk,cselekszik,-lik,2,PR2061,1996,nő,nem,2022-04-14_23h37.32.793,hesp_baseline,2021.2.3,Win32,59.89458553
,,,,,,,,,,,,,,,,,pebzek,pebzem,right,1.4568,0,154,154,57,1,4,pebzik,pebzel,NA,NA,Te bizony sokat pebzel.,Én is sokat...,pebzek,pebzem,lakik,-zik,1,PR2061,1996,nő,nem,2022-04-14_23h37.32.793,hesp_baseline,2021.2.3,Win32,59.89458553
,,,,,,,,,,,,,,,,,pisélyben,pisélyban,left,1.5002,0,155,155,21,1,22,pisély,pisély,ban,é,Ez itt egy pisély.,Ott vagyunk a...,pisélyben,pisélyban,dzsungel,NA,NA,PR2061,1996,nő,nem,2022-04-14_23h37.32.793,hesp_baseline,2021.2.3,Win32,59.89458553
,,,,,,,,,,,,,,,,,trihagzok,trihagzom,right,1.2745,0,156,156,83,1,30,trihagzik,trihagzol,NA,NA,Te bizony sokat trihagzol.,Én is sokat...,trihagzok,trihagzom,lakik,-zik,2,PR2061,1996,nő,nem,2022-04-14_23h37.32.793,hesp_baseline,2021.2.3,Win32,59.89458553
,,,,,,,,,,,,,,,,,fágyépnál,fágyépnél,left,1.6158,0,157,157,10,1,11,fágyép,fágyép,nál,é,Ez itt egy fágyép.,Nincs is jobb egy jó...,fágyépnél,fágyépnál,dzsungel,NA,NA,PR2061,1996,nő,nem,2022-04-14_23h37.32.793,hesp_baseline,2021.2.3,Win32,59.89458553
,,,,,,,,,,,,,,,,,szibánylom,szibánylok,left,1.7412,0,158,158,67,1,14,szibánylik,szibánylasz,NA,NA,Te bizony sokat szibánylasz.,Én is sokat...,szibánylok,szibánylom,lakik,-lik,2,PR2061,1996,nő,nem,2022-04-14_23h37.32.793,hesp_baseline,2021.2.3,Win32,59.89458553
,,,,,,,,,,,,,,,,,lumézban,lumézben,right,1.752,0,159,159,32,1,33,luméz,luméz,ban,é,Ez itt egy luméz.,Ott vagyunk a...,lumézben,lumézban,dzsungel,NA,NA,PR2061,1996,nő,nem,2022-04-14_23h37.32.793,hesp_baseline,2021.2.3,Win32,59.89458553
,,,,,,,,,,,,,,,,,kalhésznak,kalhésznek,left,1.5213,0,160,160,46,1,47,kalhész,kalhész,nak,é,Ez itt egy kalhész.,Elneveztem a kutyámat...,kalhésznek,kalhésznak,dzsungel,NA,NA,PR2061,1996,nő,nem,2022-04-14_23h37.32.793,hesp_baseline,2021.2.3,Win32,59.89458553
,,,,,,,,,,,,,,,,,spibádzok,spibádzom,right,2.3244,0,161,161,65,1,12,spibádzik,spibádzol,NA,NA,Te bizony sokat spibádzol.,Én is sokat...,spibádzok,spibádzom,lakik,-zik,2,PR2061,1996,nő,nem,2022-04-14_23h37.32.793,hesp_baseline,2021.2.3,Win32,59.89458553
