my_list,key.keys,key.rt,key_2.keys,key_2.rt,keyboard_input_2.keys,keyboard_input_2.rt,key_3.keys,key_3.rt,keyboard_input_3.keys,keyboard_input_3.rt,key_4.keys,key_4.rt,keyboard_input_4.keys,keyboard_input_4.rt,key_5.keys,key_5.rt,my_button1,my_button2,keyboard_input.keys,keyboard_input.rt,withinBlock.thisRepN,withinBlock.thisTrialN,withinBlock.thisN,withinBlock.thisIndex,withinBlock.ran,rowname,word,prompt,suffix,vowel,carrier_sentence,target_sentence,target1,target2,category,derivational,nsyl,Azonosító,Melyik évben születtél?,Mi a nemed?,Tanultál nyelvészetet?,date,expName,psychopyVersion,OS,frameRate
list3.csv,space,12.7219,space,5.3889,right,4.5219,space,8.9141,left,3.6821,space,5.0477,left,4.4509,space,11.8091,ronszekben,ronszekban,left,7.2832,0,0,0,18,1,127,ronszek,ronszek,ban,e,Ez itt egy ronszek.,Ott vagyunk a...,ronszekben,ronszekban,dzsungel,NA,NA,PR2012,1999,nő,nem,2022-04-05_16h41.44.345,hesp_baseline,2021.2.3,Win32,75.00750075
,,,,,,,,,,,,,,,,,bupézban,bupézben,left,5.8508,0,1,1,48,1,157,bupéz,bupéz,ban,é,Ez itt egy bupéz.,Ott vagyunk a...,bupézben,bupézban,dzsungel,NA,NA,PR2012,1999,nő,nem,2022-04-05_16h41.44.345,hesp_baseline,2021.2.3,Win32,75.00750075
,,,,,,,,,,,,,,,,,büglöm,büglök,left,3.9617,0,2,2,101,1,156,büglik,büglesz,NA,NA,Te bizony sokat büglesz.,Én is sokat...,büglök,büglöm,lakik,-lik,1,PR2012,1999,nő,nem,2022-04-05_16h41.44.345,hesp_baseline,2021.2.3,Win32,75.00750075
,,,,,,,,,,,,,,,,,frilegszem,frilegszek,right,6.0121,0,3,3,72,1,127,frilegszik,frilegszel,NA,NA,Te bizony sokat frilegszel.,Én is sokat...,frilegszek,frilegszem,lakik,-szik,2,PR2012,1999,nő,nem,2022-04-05_16h41.44.345,hesp_baseline,2021.2.3,Win32,75.00750075
,,,,,,,,,,,,,,,,,nágapszanak,nágapodnak,left,8.9161,0,4,4,152,1,153,nágapszik / nágapodik,"nágapszik, nágapodni",nek,NA,"János imád nágapodni, ezért sokat nágapszik.",Ők ritkán...,nágapszanak,nágapodnak,cselekszik,-szik,2,PR2012,1999,nő,nem,2022-04-05_16h41.44.345,hesp_baseline,2021.2.3,Win32,75.00750075
,,,,,,,,,,,,,,,,,prűrlök,prűrlöm,left,5.4729,0,5,5,75,1,130,prűrlik,prűrlesz,NA,NA,Te bizony sokat prűrlesz.,Én is sokat...,prűrlök,prűrlöm,lakik,-lik,1,PR2012,1999,nő,nem,2022-04-05_16h41.44.345,hesp_baseline,2021.2.3,Win32,75.00750075
,,,,,,,,,,,,,,,,,nyarcéjnak,nyarcéjnek,left,6.7186,0,6,6,37,1,146,nyarcéj,nyarcéj,nak,é,Ez itt egy nyarcéj.,Elneveztem a kutyámat...,nyarcéjnek,nyarcéjnak,dzsungel,NA,NA,PR2012,1999,nő,nem,2022-04-05_16h41.44.345,hesp_baseline,2021.2.3,Win32,75.00750075
,,,,,,,,,,,,,,,,,triképben,triképban,left,2.9084,0,7,7,33,1,142,trikép,trikép,ban,é,Ez itt egy trikép.,Ott vagyunk a...,triképben,triképban,dzsungel,NA,NA,PR2012,1999,nő,nem,2022-04-05_16h41.44.345,hesp_baseline,2021.2.3,Win32,75.00750075
,,,,,,,,,,,,,,,,,klétszek,klétszem,left,4.0014,0,8,8,60,1,115,klétszik,klétszel,NA,NA,Te bizony sokat klétszel.,Én is sokat...,klétszek,klétszem,lakik,-szik,1,PR2012,1999,nő,nem,2022-04-05_16h41.44.345,hesp_baseline,2021.2.3,Win32,75.00750075
,,,,,,,,,,,,,,,,,trálaklanak,trálakoznak,right,10.7372,0,9,9,116,1,117,trálaklik / trálakozik,"trálaklik, trálakozni",nek,NA,"János imád trálakozni, ezért sokat trálaklik.",Ők ritkán...,trálaklanak,trálakoznak,cselekszik,-lik,2,PR2012,1999,nő,nem,2022-04-05_16h41.44.345,hesp_baseline,2021.2.3,Win32,75.00750075
,,,,,,,,,,,,,,,,,trálodunk,trálszunk,right,6.2178,0,10,10,130,1,131,trálszik / trálodik,"trálszik, trálodni",ünk,NA,"János imád trálodni, ezért sokat trálszik.",Mi ritkán...,trálszunk,trálodunk,cselekszik,-szik,1,PR2012,1999,nő,nem,2022-04-05_16h41.44.345,hesp_baseline,2021.2.3,Win32,75.00750075
,,,,,,,,,,,,,,,,,drivegeztek,drivegzetek,left,13.9569,0,11,11,112,1,113,drivegzik / drivegezik,"drivegzik, drivegezni",tek,NA,"János imád drivegezni, ezért sokat drivegzik.",Ti ritkán...,drivegzetek,drivegeztek,cselekszik,-zik,2,PR2012,1999,nő,nem,2022-04-05_16h41.44.345,hesp_baseline,2021.2.3,Win32,75.00750075
,,,,,,,,,,,,,,,,,kábesznél,kábesznál,left,4.8314,0,12,12,44,1,153,kábesz,kábesz,nál,e,Ez itt egy kábesz.,Nincs is jobb egy jó...,kábesznél,kábesznál,dzsungel,NA,NA,PR2012,1999,nő,nem,2022-04-05_16h41.44.345,hesp_baseline,2021.2.3,Win32,75.00750075
,,,,,,,,,,,,,,,,,zödlök,zödlöm,left,4.1011,0,13,13,106,1,161,zödlik,zödlesz,NA,NA,Te bizony sokat zödlesz.,Én is sokat...,zödlök,zödlöm,lakik,-lik,1,PR2012,1999,nő,nem,2022-04-05_16h41.44.345,hesp_baseline,2021.2.3,Win32,75.00750075
,,,,,,,,,,,,,,,,,hűgzöm,hűgzök,right,7.5767,0,14,14,107,1,162,hűgzik,hűgzöl,NA,NA,Te bizony sokat hűgzöl.,Én is sokat...,hűgzök,hűgzöm,lakik,-zik,1,PR2012,1999,nő,nem,2022-04-05_16h41.44.345,hesp_baseline,2021.2.3,Win32,75.00750075
,,,,,,,,,,,,,,,,,szihétnek,szihétnak,left,5.7634,0,15,15,4,1,113,szihét,szihét,nak,é,Ez itt egy szihét.,Elneveztem a kutyámat...,szihétnek,szihétnak,dzsungel,NA,NA,PR2012,1999,nő,nem,2022-04-05_16h41.44.345,hesp_baseline,2021.2.3,Win32,75.00750075
,,,,,,,,,,,,,,,,,sztritoznak,sztritlanak,left,9.8041,0,16,16,154,1,155,sztritlik / sztritozik,"sztritlik, sztritozni",nek,NA,"János imád sztritozni, ezért sokat sztritlik.",Ők ritkán...,sztritlanak,sztritoznak,cselekszik,-lik,1,PR2012,1999,nő,nem,2022-04-05_16h41.44.345,hesp_baseline,2021.2.3,Win32,75.00750075
,,,,,,,,,,,,,,,,,sprozlanak,sprozoznak,right,10.057,0,17,17,147,1,148,sprozlik / sprozozik,"sprozlik, sprozozni",nek,NA,"János imád sprozozni, ezért sokat sprozlik.",Ők ritkán...,sprozlanak,sprozoznak,cselekszik,-lik,1,PR2012,1999,nő,nem,2022-04-05_16h41.44.345,hesp_baseline,2021.2.3,Win32,75.00750075
,,,,,,,,,,,,,,,,,zsádévnek,zsádévnak,right,3.8198,0,18,18,20,1,129,zsádév,zsádév,nak,é,Ez itt egy zsádév.,Elneveztem a kutyámat...,zsádévnek,zsádévnak,dzsungel,NA,NA,PR2012,1999,nő,nem,2022-04-05_16h41.44.345,hesp_baseline,2021.2.3,Win32,75.00750075
,,,,,,,,,,,,,,,,,brilegezünk,brilegzünk,left,10.8579,0,19,19,124,1,125,brilegzik / brilegezik,"brilegzik, brilegezni",ünk,NA,"János imád brilegezni, ezért sokat brilegzik.",Mi ritkán...,brilegzünk,brilegezünk,cselekszik,-zik,2,PR2012,1999,nő,nem,2022-04-05_16h41.44.345,hesp_baseline,2021.2.3,Win32,75.00750075
,,,,,,,,,,,,,,,,,brotesben,brotesban,right,3.9084,0,20,20,53,1,162,brotes,brotes,ban,e,Ez itt egy brotes.,Ott vagyunk a...,brotesben,brotesban,dzsungel,NA,NA,PR2012,1999,nő,nem,2022-04-05_16h41.44.345,hesp_baseline,2021.2.3,Win32,75.00750075
,,,,,,,,,,,,,,,,,tibarzanak,tibaroznak,left,9.2575,0,21,21,155,1,156,tibarzik / tibarozik,"tibarzik, tibarozni",nek,NA,"János imád tibarozni, ezért sokat tibarzik.",Ők ritkán...,tibarzanak,tibaroznak,cselekszik,-zik,2,PR2012,1999,nő,nem,2022-04-05_16h41.44.345,hesp_baseline,2021.2.3,Win32,75.00750075
,,,,,,,,,,,,,,,,,bratárzanak,bratároznak,left,13.2255,0,22,22,108,1,109,bratárzik / bratározik,"bratárzik, bratározni",nek,NA,"János imád bratározni, ezért sokat bratárzik.",Ők ritkán...,bratárzanak,bratároznak,cselekszik,-zik,2,PR2012,1999,nő,nem,2022-04-05_16h41.44.345,hesp_baseline,2021.2.3,Win32,75.00750075
,,,,,,,,,,,,,,,,,kátelnak,kátelnek,right,6.3228,0,23,23,12,1,121,kátel,kátel,nak,e,Ez itt egy kátel.,Elneveztem a kutyámat...,kátelnek,kátelnak,dzsungel,NA,NA,PR2012,1999,nő,nem,2022-04-05_16h41.44.345,hesp_baseline,2021.2.3,Win32,75.00750075
,,,,,,,,,,,,,,,,,klarágoztok,klarágzotok,left,11.2845,0,24,24,114,1,115,klarágzik / klarágozik,"klarágzik, klarágozni",tek,NA,"János imád klarágozni, ezért sokat klarágzik.",Ti ritkán...,klarágzotok,klarágoztok,cselekszik,-zik,2,PR2012,1999,nő,nem,2022-04-05_16h41.44.345,hesp_baseline,2021.2.3,Win32,75.00750075
,,,,,,,,,,,,,,,,,spuborzanak,spuboroznak,right,9.1771,0,25,25,161,1,162,spuborzik / spuborozik,"spuborzik, spuborozni",nek,NA,"János imád spuborozni, ezért sokat spuborzik.",Ők ritkán...,spuborzanak,spuboroznak,cselekszik,-zik,2,PR2012,1999,nő,nem,2022-04-05_16h41.44.345,hesp_baseline,2021.2.3,Win32,75.00750075
,,,,,,,,,,,,,,,,,trilszok,trilszom,left,4.722,0,26,26,103,1,158,trilszik,trilszol,NA,NA,Te bizony sokat trilszol.,Én is sokat...,trilszok,trilszom,lakik,-szik,1,PR2012,1999,nő,nem,2022-04-05_16h41.44.345,hesp_baseline,2021.2.3,Win32,75.00750075
,,,,,,,,,,,,,,,,,fliraklom,fliraklok,right,6.0504,0,27,27,98,1,153,fliraklik,fliraklasz,NA,NA,Te bizony sokat fliraklasz.,Én is sokat...,fliraklok,fliraklom,lakik,-lik,2,PR2012,1999,nő,nem,2022-04-05_16h41.44.345,hesp_baseline,2021.2.3,Win32,75.00750075
,,,,,,,,,,,,,,,,,spanélnél,spanélnál,right,4.7087,0,28,28,24,1,133,spanél,spanél,nál,é,Ez itt egy spanél.,Nincs is jobb egy jó...,spanélnél,spanélnál,dzsungel,NA,NA,PR2012,1999,nő,nem,2022-04-05_16h41.44.345,hesp_baseline,2021.2.3,Win32,75.00750075
,,,,,,,,,,,,,,,,,flököztök,flöklötök,right,10.5848,0,29,29,121,1,122,flöklik / flöközik,"flöklik, flöközni",tek,NA,"János imád flöközni, ezért sokat flöklik.",Ti ritkán...,flöklötök,flököztök,cselekszik,-lik,1,PR2012,1999,nő,nem,2022-04-05_16h41.44.345,hesp_baseline,2021.2.3,Win32,75.00750075
,,,,,,,,,,,,,,,,,gótemnek,gótemnak,left,4.1622,0,30,30,35,1,144,gótem,gótem,nak,e,Ez itt egy gótem.,Elneveztem a kutyámat...,gótemnek,gótemnak,dzsungel,NA,NA,PR2012,1999,nő,nem,2022-04-05_16h41.44.345,hesp_baseline,2021.2.3,Win32,75.00750075
,,,,,,,,,,,,,,,,,spülöklök,spülöklöm,right,9.1713,0,31,31,56,1,111,spülöklik,spülöklesz,NA,NA,Te bizony sokat spülöklesz.,Én is sokat...,spülöklök,spülöklöm,lakik,-lik,2,PR2012,1999,nő,nem,2022-04-05_16h41.44.345,hesp_baseline,2021.2.3,Win32,75.00750075
,,,,,,,,,,,,,,,,,döjlenek,döjöznek,left,7.4432,0,32,32,129,1,130,döjlik / döjözik,"döjlik, döjözni",nek,NA,"János imád döjözni, ezért sokat döjlik.",Ők ritkán...,döjlenek,döjöznek,cselekszik,-lik,1,PR2012,1999,nő,nem,2022-04-05_16h41.44.345,hesp_baseline,2021.2.3,Win32,75.00750075
,,,,,,,,,,,,,,,,,lumoztok,lumlotok,left,10.866,0,33,33,149,1,150,lumlik / lumozik,"lumlik, lumozni",tek,NA,"János imád lumozni, ezért sokat lumlik.",Ti ritkán...,lumlotok,lumoztok,cselekszik,-lik,1,PR2012,1999,nő,nem,2022-04-05_16h41.44.345,hesp_baseline,2021.2.3,Win32,75.00750075
,,,,,,,,,,,,,,,,,braszencnál,braszencnél,left,4.6591,0,34,34,7,1,116,braszenc,braszenc,nál,e,Ez itt egy braszenc.,Nincs is jobb egy jó...,braszencnél,braszencnál,dzsungel,NA,NA,PR2012,1999,nő,nem,2022-04-05_16h41.44.345,hesp_baseline,2021.2.3,Win32,75.00750075
,,,,,,,,,,,,,,,,,treglem,treglek,left,11.5514,0,35,35,81,1,136,treglik,treglesz,NA,NA,Te bizony sokat treglesz.,Én is sokat...,treglek,treglem,lakik,-lik,1,PR2012,1999,nő,nem,2022-04-05_16h41.44.345,hesp_baseline,2021.2.3,Win32,75.00750075
,,,,,,,,,,,,,,,,,voboztok,vobzotok,left,12.1657,0,36,36,158,1,159,vobzik / vobozik,"vobzik, vobozni",tek,NA,"János imád vobozni, ezért sokat vobzik.",Ti ritkán...,vobzotok,voboztok,cselekszik,-zik,1,PR2012,1999,nő,nem,2022-04-05_16h41.44.345,hesp_baseline,2021.2.3,Win32,75.00750075
,,,,,,,,,,,,,,,,,spatelnek,spatelnak,left,5.0025,0,37,37,21,1,130,spatel,spatel,nak,e,Ez itt egy spatel.,Elneveztem a kutyámat...,spatelnek,spatelnak,dzsungel,NA,NA,PR2012,1999,nő,nem,2022-04-05_16h41.44.345,hesp_baseline,2021.2.3,Win32,75.00750075
,,,,,,,,,,,,,,,,,trapszegynál,trapszegynél,right,4.313,0,38,38,39,1,148,trapszegy,trapszegy,nál,e,Ez itt egy trapszegy.,Nincs is jobb egy jó...,trapszegynél,trapszegynál,dzsungel,NA,NA,PR2012,1999,nő,nem,2022-04-05_16h41.44.345,hesp_baseline,2021.2.3,Win32,75.00750075
,,,,,,,,,,,,,,,,,féjzem,féjzek,left,3.111,0,39,39,91,1,146,féjzik,féjzel,NA,NA,Te bizony sokat féjzel.,Én is sokat...,féjzek,féjzem,lakik,-zik,1,PR2012,1999,nő,nem,2022-04-05_16h41.44.345,hesp_baseline,2021.2.3,Win32,75.00750075
,,,,,,,,,,,,,,,,,klárzom,klárzok,left,4.1653,0,40,40,85,1,140,klárzik,klárzol,NA,NA,Te bizony sokat klárzol.,Én is sokat...,klárzok,klárzom,lakik,-zik,1,PR2012,1999,nő,nem,2022-04-05_16h41.44.345,hesp_baseline,2021.2.3,Win32,75.00750075
,,,,,,,,,,,,,,,,,flugonylanak,flugonyoznak,left,10.7515,0,41,41,111,1,112,flugonylik / flugonyozik,"flugonylik, flugonyozni",nek,NA,"János imád flugonyozni, ezért sokat flugonylik.",Ők ritkán...,flugonylanak,flugonyoznak,cselekszik,-lik,2,PR2012,1999,nő,nem,2022-04-05_16h41.44.345,hesp_baseline,2021.2.3,Win32,75.00750075
,,,,,,,,,,,,,,,,,brukésznél,brukésznál,right,5.7626,0,42,42,10,1,119,brukész,brukész,nál,é,Ez itt egy brukész.,Nincs is jobb egy jó...,brukésznél,brukésznál,dzsungel,NA,NA,PR2012,1999,nő,nem,2022-04-05_16h41.44.345,hesp_baseline,2021.2.3,Win32,75.00750075
,,,,,,,,,,,,,,,,,drubódzok,drubódzom,right,7.2911,0,43,43,63,1,118,drubódzik,drubódzol,NA,NA,Te bizony sokat drubódzol.,Én is sokat...,drubódzok,drubódzom,lakik,-zik,2,PR2012,1999,nő,nem,2022-04-05_16h41.44.345,hesp_baseline,2021.2.3,Win32,75.00750075
,,,,,,,,,,,,,,,,,sűzlöm,sűzlök,right,4.3305,0,44,44,54,1,109,sűzlik,sűzlesz,NA,NA,Te bizony sokat sűzlesz.,Én is sokat...,sűzlök,sűzlöm,lakik,-lik,1,PR2012,1999,nő,nem,2022-04-05_16h41.44.345,hesp_baseline,2021.2.3,Win32,75.00750075
,,,,,,,,,,,,,,,,,brüjlöm,brüjlök,right,3.308,0,45,45,55,1,110,brüjlik,brüjlesz,NA,NA,Te bizony sokat brüjlesz.,Én is sokat...,brüjlök,brüjlöm,lakik,-lik,1,PR2012,1999,nő,nem,2022-04-05_16h41.44.345,hesp_baseline,2021.2.3,Win32,75.00750075
,,,,,,,,,,,,,,,,,briskédnél,briskédnál,left,3.8021,0,46,46,51,1,160,briskéd,briskéd,nál,é,Ez itt egy briskéd.,Nincs is jobb egy jó...,briskédnél,briskédnál,dzsungel,NA,NA,PR2012,1999,nő,nem,2022-04-05_16h41.44.345,hesp_baseline,2021.2.3,Win32,75.00750075
,,,,,,,,,,,,,,,,,sartelyban,sartelyben,left,9.8759,0,47,47,40,1,149,sartely,sartely,ban,e,Ez itt egy sartely.,Ott vagyunk a...,sartelyben,sartelyban,dzsungel,NA,NA,PR2012,1999,nő,nem,2022-04-05_16h41.44.345,hesp_baseline,2021.2.3,Win32,75.00750075
,,,,,,,,,,,,,,,,,hágyétnek,hágyétnak,right,7.9833,0,48,48,42,1,151,hágyét,hágyét,nak,é,Ez itt egy hágyét.,Elneveztem a kutyámat...,hágyétnek,hágyétnak,dzsungel,NA,NA,PR2012,1999,nő,nem,2022-04-05_16h41.44.345,hesp_baseline,2021.2.3,Win32,75.00750075
,,,,,,,,,,,,,,,,,spuménynak,spuménynek,left,4.6573,0,49,49,19,1,128,spumény,spumény,nak,é,Ez itt egy spumény.,Elneveztem a kutyámat...,spuménynek,spuménynak,dzsungel,NA,NA,PR2012,1999,nő,nem,2022-04-05_16h41.44.345,hesp_baseline,2021.2.3,Win32,75.00750075
,,,,,,,,,,,,,,,,,spírzom,spírzok,right,4.229,0,50,50,64,1,119,spírzik,spírzol,NA,NA,Te bizony sokat spírzol.,Én is sokat...,spírzok,spírzom,lakik,-zik,1,PR2012,1999,nő,nem,2022-04-05_16h41.44.345,hesp_baseline,2021.2.3,Win32,75.00750075
,,,,,,,,,,,,,,,,,trádlom,trádlok,right,3.1682,0,51,51,105,1,160,trádlik,trádlasz,NA,NA,Te bizony sokat trádlasz.,Én is sokat...,trádlok,trádlom,lakik,-lik,1,PR2012,1999,nő,nem,2022-04-05_16h41.44.345,hesp_baseline,2021.2.3,Win32,75.00750075
,,,,,,,,,,,,,,,,,bivejlek,bivejlem,left,3.514,0,52,52,73,1,128,bivejlik,bivejlesz,NA,NA,Te bizony sokat bivejlesz.,Én is sokat...,bivejlek,bivejlem,lakik,-lik,2,PR2012,1999,nő,nem,2022-04-05_16h41.44.345,hesp_baseline,2021.2.3,Win32,75.00750075
,,,,,,,,,,,,,,,,,trugokoznak,trugoklanak,right,4.1683,0,53,53,109,1,110,trugoklik / trugokozik,"trugoklik, trugokozni",nek,NA,"János imád trugokozni, ezért sokat trugoklik.",Ők ritkán...,trugoklanak,trugokoznak,cselekszik,-lik,2,PR2012,1999,nő,nem,2022-04-05_16h41.44.345,hesp_baseline,2021.2.3,Win32,75.00750075
,,,,,,,,,,,,,,,,,nyítemban,nyítemben,right,3.3694,0,54,54,41,1,150,nyítem,nyítem,ban,e,Ez itt egy nyítem.,Ott vagyunk a...,nyítemben,nyítemban,dzsungel,NA,NA,PR2012,1999,nő,nem,2022-04-05_16h41.44.345,hesp_baseline,2021.2.3,Win32,75.00750075
,,,,,,,,,,,,,,,,,sztrűkszök,sztrűkszöm,right,11.3512,0,55,55,77,1,132,sztrűkszik,sztrűkszöl,NA,NA,Te bizony sokat sztrűkszöl.,Én is sokat...,sztrűkszök,sztrűkszöm,lakik,-szik,1,PR2012,1999,nő,nem,2022-04-05_16h41.44.345,hesp_baseline,2021.2.3,Win32,75.00750075
,,,,,,,,,,,,,,,,,brivágoznak,briváglanak,right,6.0784,0,56,56,138,1,139,briváglik / brivágozik,"briváglik, brivágozni",nek,NA,"János imád brivágozni, ezért sokat briváglik.",Ők ritkán...,briváglanak,brivágoznak,cselekszik,-lik,2,PR2012,1999,nő,nem,2022-04-05_16h41.44.345,hesp_baseline,2021.2.3,Win32,75.00750075
,,,,,,,,,,,,,,,,,gerénylem,gerénylek,right,5.516,0,57,57,99,1,154,gerénylik,gerénylesz,NA,NA,Te bizony sokat gerénylesz.,Én is sokat...,gerénylek,gerénylem,lakik,-lik,2,PR2012,1999,nő,nem,2022-04-05_16h41.44.345,hesp_baseline,2021.2.3,Win32,75.00750075
,,,,,,,,,,,,,,,,,siladzom,siladzok,right,3.2422,0,58,58,93,1,148,siladzik,siladzol,NA,NA,Te bizony sokat siladzol.,Én is sokat...,siladzok,siladzom,lakik,-zik,2,PR2012,1999,nő,nem,2022-04-05_16h41.44.345,hesp_baseline,2021.2.3,Win32,75.00750075
,,,,,,,,,,,,,,,,,zinednek,zinednak,left,5.9311,0,59,59,22,1,131,zined,zined,nak,e,Ez itt egy zined.,Elneveztem a kutyámat...,zinednek,zinednak,dzsungel,NA,NA,PR2012,1999,nő,nem,2022-04-05_16h41.44.345,hesp_baseline,2021.2.3,Win32,75.00750075
,,,,,,,,,,,,,,,,,trismélnek,trismélnak,left,5.3789,0,60,60,5,1,114,trismél,trismél,nak,é,Ez itt egy trismél.,Elneveztem a kutyámat...,trismélnek,trismélnak,dzsungel,NA,NA,PR2012,1999,nő,nem,2022-04-05_16h41.44.345,hesp_baseline,2021.2.3,Win32,75.00750075
,,,,,,,,,,,,,,,,,vubletnél,vubletnál,left,4.0224,0,61,61,26,1,135,vublet,vublet,nál,e,Ez itt egy vublet.,Nincs is jobb egy jó...,vubletnél,vubletnál,dzsungel,NA,NA,PR2012,1999,nő,nem,2022-04-05_16h41.44.345,hesp_baseline,2021.2.3,Win32,75.00750075
,,,,,,,,,,,,,,,,,sprálszom,sprálszok,right,5.5618,0,62,62,65,1,120,sprálszik,sprálszol,NA,NA,Te bizony sokat sprálszol.,Én is sokat...,sprálszok,sprálszom,lakik,-szik,1,PR2012,1999,nő,nem,2022-04-05_16h41.44.345,hesp_baseline,2021.2.3,Win32,75.00750075
,,,,,,,,,,,,,,,,,pibegeznek,pibegzenek,left,5.3703,0,63,63,127,1,128,pibegzik / pibegezik,"pibegzik, pibegezni",nek,NA,"János imád pibegezni, ezért sokat pibegzik.",Ők ritkán...,pibegzenek,pibegeznek,cselekszik,-zik,2,PR2012,1999,nő,nem,2022-04-05_16h41.44.345,hesp_baseline,2021.2.3,Win32,75.00750075
,,,,,,,,,,,,,,,,,pijélnál,pijélnél,right,3.9947,0,64,64,3,1,112,pijél,pijél,nál,é,Ez itt egy pijél.,Nincs is jobb egy jó...,pijélnél,pijélnál,dzsungel,NA,NA,PR2012,1999,nő,nem,2022-04-05_16h41.44.345,hesp_baseline,2021.2.3,Win32,75.00750075
,,,,,,,,,,,,,,,,,lájzotok,lájoztok,left,9.8971,0,65,65,159,1,160,lájzik / lájozik,"lájzik, lájozni",tek,NA,"János imád lájozni, ezért sokat lájzik.",Ti ritkán...,lájzotok,lájoztok,cselekszik,-zik,1,PR2012,1999,nő,nem,2022-04-05_16h41.44.345,hesp_baseline,2021.2.3,Win32,75.00750075
,,,,,,,,,,,,,,,,,csodegnál,csodegnél,left,5.8826,0,66,66,28,1,137,csodeg,csodeg,nál,e,Ez itt egy csodeg.,Nincs is jobb egy jó...,csodegnél,csodegnál,dzsungel,NA,NA,PR2012,1999,nő,nem,2022-04-05_16h41.44.345,hesp_baseline,2021.2.3,Win32,75.00750075
,,,,,,,,,,,,,,,,,brárlanak,brároznak,right,7.965,0,67,67,126,1,127,brárlik / brározik,"brárlik, brározni",nek,NA,"János imád brározni, ezért sokat brárlik.",Ők ritkán...,brárlanak,brároznak,cselekszik,-lik,1,PR2012,1999,nő,nem,2022-04-05_16h41.44.345,hesp_baseline,2021.2.3,Win32,75.00750075
,,,,,,,,,,,,,,,,,prínylok,prínylom,left,2.9309,0,68,68,102,1,157,prínylik,prínylasz,NA,NA,Te bizony sokat prínylasz.,Én is sokat...,prínylok,prínylom,lakik,-lik,1,PR2012,1999,nő,nem,2022-04-05_16h41.44.345,hesp_baseline,2021.2.3,Win32,75.00750075
,,,,,,,,,,,,,,,,,bihánylom,bihánylok,right,3.7319,0,69,69,89,1,144,bihánylik,bihánylasz,NA,NA,Te bizony sokat bihánylasz.,Én is sokat...,bihánylok,bihánylom,lakik,-lik,2,PR2012,1999,nő,nem,2022-04-05_16h41.44.345,hesp_baseline,2021.2.3,Win32,75.00750075
,,,,,,,,,,,,,,,,,sztredeztek,sztredletek,left,5.7187,0,70,70,145,1,146,sztredlik / sztredezik,"sztredlik, sztredezni",tek,NA,"János imád sztredezni, ezért sokat sztredlik.",Ti ritkán...,sztredletek,sztredeztek,cselekszik,-lik,1,PR2012,1999,nő,nem,2022-04-05_16h41.44.345,hesp_baseline,2021.2.3,Win32,75.00750075
,,,,,,,,,,,,,,,,,brűköztök,brűklötök,right,5.3548,0,71,71,153,1,154,brűklik / brűközik,"brűklik, brűközni",tek,NA,"János imád brűközni, ezért sokat brűklik.",Ti ritkán...,brűklötök,brűköztök,cselekszik,-lik,1,PR2012,1999,nő,nem,2022-04-05_16h41.44.345,hesp_baseline,2021.2.3,Win32,75.00750075
,,,,,,,,,,,,,,,,,bidemban,bidemben,right,3.4946,0,72,72,2,1,111,bidem,bidem,ban,e,Ez itt egy bidem.,Ott vagyunk a...,bidemben,bidemban,dzsungel,NA,NA,PR2012,1999,nő,nem,2022-04-05_16h41.44.345,hesp_baseline,2021.2.3,Win32,75.00750075
,,,,,,,,,,,,,,,,,prezlem,prezlek,left,2.9746,0,73,73,87,1,142,prezlik,prezlesz,NA,NA,Te bizony sokat prezlesz.,Én is sokat...,prezlek,prezlem,lakik,-lik,1,PR2012,1999,nő,nem,2022-04-05_16h41.44.345,hesp_baseline,2021.2.3,Win32,75.00750075
,,,,,,,,,,,,,,,,,nivároztok,nivárzotok,left,3.272,0,74,74,146,1,147,nivárzik / nivározik,"nivárzik, nivározni",tek,NA,"János imád nivározni, ezért sokat nivárzik.",Ti ritkán...,nivárzotok,nivároztok,cselekszik,-zik,2,PR2012,1999,nő,nem,2022-04-05_16h41.44.345,hesp_baseline,2021.2.3,Win32,75.00750075
,,,,,,,,,,,,,,,,,mülőrözünk,mülőrzünk,right,10.5678,0,75,75,120,1,121,mülőrzik / mülőrözik,"mülőrzik, mülőrözni",ünk,NA,"János imád mülőrözni, ezért sokat mülőrzik.",Mi ritkán...,mülőrzünk,mülőrözünk,cselekszik,-zik,2,PR2012,1999,nő,nem,2022-04-05_16h41.44.345,hesp_baseline,2021.2.3,Win32,75.00750075
,,,,,,,,,,,,,,,,,szutendben,szutendban,left,1.8011,0,76,76,11,1,120,szutend,szutend,ban,e,Ez itt egy szutend.,Ott vagyunk a...,szutendben,szutendban,dzsungel,NA,NA,PR2012,1999,nő,nem,2022-04-05_16h41.44.345,hesp_baseline,2021.2.3,Win32,75.00750075
,,,,,,,,,,,,,,,,,klosétnak,klosétnek,left,4.237,0,77,77,45,1,154,klosét,klosét,nak,é,Ez itt egy klosét.,Elneveztem a kutyámat...,klosétnek,klosétnak,dzsungel,NA,NA,PR2012,1999,nő,nem,2022-04-05_16h41.44.345,hesp_baseline,2021.2.3,Win32,75.00750075
,,,,,,,,,,,,,,,,,mágamozunk,mágamlunk,left,6.0514,0,78,78,140,1,141,mágamlik / mágamozik,"mágamlik, mágamozni",ünk,NA,"János imád mágamozni, ezért sokat mágamlik.",Mi ritkán...,mágamlunk,mágamozunk,cselekszik,-lik,2,PR2012,1999,nő,nem,2022-04-05_16h41.44.345,hesp_baseline,2021.2.3,Win32,75.00750075
,,,,,,,,,,,,,,,,,spröbzök,spröbzöm,left,4.5154,0,79,79,90,1,145,spröbzik,spröbzöl,NA,NA,Te bizony sokat spröbzöl.,Én is sokat...,spröbzök,spröbzöm,lakik,-zik,1,PR2012,1999,nő,nem,2022-04-05_16h41.44.345,hesp_baseline,2021.2.3,Win32,75.00750075
,,,,,,,,,,,,,,,,,bűtszöm,bűtszök,right,2.428,0,80,80,82,1,137,bűtszik,bűtszöl,NA,NA,Te bizony sokat bűtszöl.,Én is sokat...,bűtszök,bűtszöm,lakik,-szik,1,PR2012,1999,nő,nem,2022-04-05_16h41.44.345,hesp_baseline,2021.2.3,Win32,75.00750075
,,,,,,,,,,,,,,,,,brindeznak,brindeznek,right,2.0412,0,81,81,6,1,115,brindez,brindez,nak,e,Ez itt egy brindez.,Elneveztem a kutyámat...,brindeznek,brindeznak,dzsungel,NA,NA,PR2012,1999,nő,nem,2022-04-05_16h41.44.345,hesp_baseline,2021.2.3,Win32,75.00750075
,,,,,,,,,,,,,,,,,spüszlöm,spüszlök,right,2.6902,0,82,82,96,1,151,spüszlik,spüszlesz,NA,NA,Te bizony sokat spüszlesz.,Én is sokat...,spüszlök,spüszlöm,lakik,-lik,1,PR2012,1999,nő,nem,2022-04-05_16h41.44.345,hesp_baseline,2021.2.3,Win32,75.00750075
,,,,,,,,,,,,,,,,,narjárzok,narjárzom,left,2.4291,0,83,83,61,1,116,narjárzik,narjárzol,NA,NA,Te bizony sokat narjárzol.,Én is sokat...,narjárzok,narjárzom,lakik,-zik,2,PR2012,1999,nő,nem,2022-04-05_16h41.44.345,hesp_baseline,2021.2.3,Win32,75.00750075
,,,,,,,,,,,,,,,,,spibamlanak,spibamoznak,left,5.1221,0,84,84,142,1,143,spibamlik / spibamozik,"spibamlik, spibamozni",nek,NA,"János imád spibamozni, ezért sokat spibamlik.",Ők ritkán...,spibamlanak,spibamoznak,cselekszik,-lik,2,PR2012,1999,nő,nem,2022-04-05_16h41.44.345,hesp_baseline,2021.2.3,Win32,75.00750075
,,,,,,,,,,,,,,,,,brürzenek,brüröznek,left,5.2992,0,85,85,110,1,111,brürzik / brürözik,"brürzik, brürözni",nek,NA,"János imád brürözni, ezért sokat brürzik.",Ők ritkán...,brürzenek,brüröznek,cselekszik,-zik,1,PR2012,1999,nő,nem,2022-04-05_16h41.44.345,hesp_baseline,2021.2.3,Win32,75.00750075
,,,,,,,,,,,,,,,,,fretszek,fretszem,right,3.2148,0,86,86,66,1,121,fretszik,fretszel,NA,NA,Te bizony sokat fretszel.,Én is sokat...,fretszek,fretszem,lakik,-szik,1,PR2012,1999,nő,nem,2022-04-05_16h41.44.345,hesp_baseline,2021.2.3,Win32,75.00750075
,,,,,,,,,,,,,,,,,triklotok,trikoztok,right,3.3949,0,87,87,160,1,161,triklik / trikozik,"triklik, trikozni",tek,NA,"János imád trikozni, ezért sokat triklik.",Ti ritkán...,triklotok,trikoztok,cselekszik,-lik,1,PR2012,1999,nő,nem,2022-04-05_16h41.44.345,hesp_baseline,2021.2.3,Win32,75.00750075
,,,,,,,,,,,,,,,,,surnegynál,surnegynél,left,3.009,0,88,88,8,1,117,surnegy,surnegy,nál,e,Ez itt egy surnegy.,Nincs is jobb egy jó...,surnegynél,surnegynál,dzsungel,NA,NA,PR2012,1999,nő,nem,2022-04-05_16h41.44.345,hesp_baseline,2021.2.3,Win32,75.00750075
,,,,,,,,,,,,,,,,,vileslünk,vilesezünk,left,3.7626,0,89,89,139,1,140,vileslik / vilesezik,"vileslik, vilesezni",ünk,NA,"János imád vilesezni, ezért sokat vileslik.",Mi ritkán...,vileslünk,vilesezünk,cselekszik,-lik,2,PR2012,1999,nő,nem,2022-04-05_16h41.44.345,hesp_baseline,2021.2.3,Win32,75.00750075
,,,,,,,,,,,,,,,,,vodecnál,vodecnél,right,3.5557,0,90,90,30,1,139,vodec,vodec,nál,e,Ez itt egy vodec.,Nincs is jobb egy jó...,vodecnél,vodecnál,dzsungel,NA,NA,PR2012,1999,nő,nem,2022-04-05_16h41.44.345,hesp_baseline,2021.2.3,Win32,75.00750075
,,,,,,,,,,,,,,,,,lűköznek,lűklenek,left,6.3228,0,91,91,136,1,137,lűklik / lűközik,"lűklik, lűközni",nek,NA,"János imád lűközni, ezért sokat lűklik.",Ők ritkán...,lűklenek,lűköznek,cselekszik,-lik,1,PR2012,1999,nő,nem,2022-04-05_16h41.44.345,hesp_baseline,2021.2.3,Win32,75.00750075
,,,,,,,,,,,,,,,,,dirlotok,diroztok,right,4.4901,0,92,92,148,1,149,dirlik / dirozik,"dirlik, dirozni",tek,NA,"János imád dirozni, ezért sokat dirlik.",Ti ritkán...,dirlotok,diroztok,cselekszik,-lik,1,PR2012,1999,nő,nem,2022-04-05_16h41.44.345,hesp_baseline,2021.2.3,Win32,75.00750075
,,,,,,,,,,,,,,,,,brivepszünk,brivepedünk,left,2.3709,0,93,93,113,1,114,brivepszik / brivepedik,"brivepszik, brivepedni",ünk,NA,"János imád brivepedni, ezért sokat brivepszik.",Mi ritkán...,brivepszünk,brivepedünk,cselekszik,-szik,2,PR2012,1999,nő,nem,2022-04-05_16h41.44.345,hesp_baseline,2021.2.3,Win32,75.00750075
,,,,,,,,,,,,,,,,,ribegedtek,ribegszetek,left,4.7402,0,94,94,141,1,142,ribegszik / ribegedik,"ribegszik, ribegedni",tek,NA,"János imád ribegedni, ezért sokat ribegszik.",Ti ritkán...,ribegszetek,ribegedtek,cselekszik,-szik,2,PR2012,1999,nő,nem,2022-04-05_16h41.44.345,hesp_baseline,2021.2.3,Win32,75.00750075
,,,,,,,,,,,,,,,,,trájegben,trájegban,left,5.3355,0,95,95,14,1,123,trájeg,trájeg,ban,e,Ez itt egy trájeg.,Ott vagyunk a...,trájegben,trájegban,dzsungel,NA,NA,PR2012,1999,nő,nem,2022-04-05_16h41.44.345,hesp_baseline,2021.2.3,Win32,75.00750075
,,,,,,,,,,,,,,,,,klégezünk,kléglünk,left,2.8943,0,96,96,122,1,123,kléglik / klégezik,"kléglik, klégezni",ünk,NA,"János imád klégezni, ezért sokat kléglik.",Mi ritkán...,kléglünk,klégezünk,cselekszik,-lik,1,PR2012,1999,nő,nem,2022-04-05_16h41.44.345,hesp_baseline,2021.2.3,Win32,75.00750075
,,,,,,,,,,,,,,,,,tínylom,tínylok,right,2.1349,0,97,97,58,1,113,tínylik,tínylasz,NA,NA,Te bizony sokat tínylasz.,Én is sokat...,tínylok,tínylom,lakik,-lik,1,PR2012,1999,nő,nem,2022-04-05_16h41.44.345,hesp_baseline,2021.2.3,Win32,75.00750075
,,,,,,,,,,,,,,,,,spülőrzöm,spülőrzök,left,1.883,0,98,98,69,1,124,spülőrzik,spülőrzöl,NA,NA,Te bizony sokat spülőrzöl.,Én is sokat...,spülőrzök,spülőrzöm,lakik,-zik,2,PR2012,1999,nő,nem,2022-04-05_16h41.44.345,hesp_baseline,2021.2.3,Win32,75.00750075
,,,,,,,,,,,,,,,,,dorzéjnek,dorzéjnak,right,2.9812,0,99,99,29,1,138,dorzéj,dorzéj,nak,é,Ez itt egy dorzéj.,Elneveztem a kutyámat...,dorzéjnek,dorzéjnak,dzsungel,NA,NA,PR2012,1999,nő,nem,2022-04-05_16h41.44.345,hesp_baseline,2021.2.3,Win32,75.00750075
,,,,,,,,,,,,,,,,,vurnelnek,vurnelnak,left,3.4151,0,100,100,50,1,159,vurnel,vurnel,nak,e,Ez itt egy vurnel.,Elneveztem a kutyámat...,vurnelnek,vurnelnak,dzsungel,NA,NA,PR2012,1999,nő,nem,2022-04-05_16h41.44.345,hesp_baseline,2021.2.3,Win32,75.00750075
,,,,,,,,,,,,,,,,,gibemlünk,gibemezünk,right,5.4156,0,101,101,115,1,116,gibemlik / gibemezik,"gibemlik, gibemezni",ünk,NA,"János imád gibemezni, ezért sokat gibemlik.",Mi ritkán...,gibemlünk,gibemezünk,cselekszik,-lik,2,PR2012,1999,nő,nem,2022-04-05_16h41.44.345,hesp_baseline,2021.2.3,Win32,75.00750075
,,,,,,,,,,,,,,,,,ibékszek,ibékszem,left,3.0219,0,102,102,95,1,150,ibékszik,ibékszel,NA,NA,Te bizony sokat ibékszel.,Én is sokat...,ibékszek,ibékszem,lakik,-szik,2,PR2012,1999,nő,nem,2022-04-05_16h41.44.345,hesp_baseline,2021.2.3,Win32,75.00750075
,,,,,,,,,,,,,,,,,virzanak,viroznak,left,3.7217,0,103,103,125,1,126,virzik / virozik,"virzik, virozni",nek,NA,"János imád virozni, ezért sokat virzik.",Ők ritkán...,virzanak,viroznak,cselekszik,-zik,1,PR2012,1999,nő,nem,2022-04-05_16h41.44.345,hesp_baseline,2021.2.3,Win32,75.00750075
,,,,,,,,,,,,,,,,,spiráglotok,spirágoztok,right,2.9545,0,104,104,135,1,136,spiráglik / spirágozik,"spiráglik, spirágozni",tek,NA,"János imád spirágozni, ezért sokat spiráglik.",Ti ritkán...,spiráglotok,spirágoztok,cselekszik,-lik,2,PR2012,1999,nő,nem,2022-04-05_16h41.44.345,hesp_baseline,2021.2.3,Win32,75.00750075
,,,,,,,,,,,,,,,,,dibezban,dibezben,right,4.1696,0,105,105,27,1,136,dibez,dibez,ban,e,Ez itt egy dibez.,Ott vagyunk a...,dibezben,dibezban,dzsungel,NA,NA,PR2012,1999,nő,nem,2022-04-05_16h41.44.345,hesp_baseline,2021.2.3,Win32,75.00750075
,,,,,,,,,,,,,,,,,trűnylenek,trűnyöznek,left,4.9787,0,106,106,119,1,120,trűnylik / trűnyözik,"trűnylik, trűnyözni",nek,NA,"János imád trűnyözni, ezért sokat trűnylik.",Ők ritkán...,trűnylenek,trűnyöznek,cselekszik,-lik,1,PR2012,1999,nő,nem,2022-04-05_16h41.44.345,hesp_baseline,2021.2.3,Win32,75.00750075
,,,,,,,,,,,,,,,,,trilekszetek,trilekedtek,right,3.695,0,107,107,157,1,158,trilekszik / trilekedik,"trilekszik, trilekedni",tek,NA,"János imád trilekedni, ezért sokat trilekszik.",Ti ritkán...,trilekszetek,trilekedtek,cselekszik,-szik,2,PR2012,1999,nő,nem,2022-04-05_16h41.44.345,hesp_baseline,2021.2.3,Win32,75.00750075
,,,,,,,,,,,,,,,,,lismévban,lismévben,left,2.4277,0,108,108,0,1,109,lismév,lismév,ban,é,Ez itt egy lismév.,Ott vagyunk a...,lismévben,lismévban,dzsungel,NA,NA,PR2012,1999,nő,nem,2022-04-05_16h41.44.345,hesp_baseline,2021.2.3,Win32,75.00750075
,,,,,,,,,,,,,,,,,zsáderban,zsáderben,left,1.51,0,109,109,25,1,134,zsáder,zsáder,ban,e,Ez itt egy zsáder.,Ott vagyunk a...,zsáderben,zsáderban,dzsungel,NA,NA,PR2012,1999,nő,nem,2022-04-05_16h41.44.345,hesp_baseline,2021.2.3,Win32,75.00750075
,,,,,,,,,,,,,,,,,zábénynek,zábénynak,left,4.9251,0,110,110,43,1,152,zábény,zábény,nak,é,Ez itt egy zábény.,Elneveztem a kutyámat...,zábénynek,zábénynak,dzsungel,NA,NA,PR2012,1999,nő,nem,2022-04-05_16h41.44.345,hesp_baseline,2021.2.3,Win32,75.00750075
,,,,,,,,,,,,,,,,,pristélban,pristélben,right,3.2619,0,111,111,1,1,110,pristél,pristél,ban,é,Ez itt egy pristél.,Ott vagyunk a...,pristélben,pristélban,dzsungel,NA,NA,PR2012,1999,nő,nem,2022-04-05_16h41.44.345,hesp_baseline,2021.2.3,Win32,75.00750075
,,,,,,,,,,,,,,,,,piragszom,piragszok,left,3.0411,0,112,112,83,1,138,piragszik,piragszol,NA,NA,Te bizony sokat piragszol.,Én is sokat...,piragszok,piragszom,lakik,-szik,2,PR2012,1999,nő,nem,2022-04-05_16h41.44.345,hesp_baseline,2021.2.3,Win32,75.00750075
,,,,,,,,,,,,,,,,,murdesnél,murdesnál,right,3.1526,0,113,113,47,1,156,murdes,murdes,nál,e,Ez itt egy murdes.,Nincs is jobb egy jó...,murdesnél,murdesnál,dzsungel,NA,NA,PR2012,1999,nő,nem,2022-04-05_16h41.44.345,hesp_baseline,2021.2.3,Win32,75.00750075
,,,,,,,,,,,,,,,,,tűgzötök,tűgöztök,right,6.5508,0,114,114,143,1,144,tűgzik / tűgözik,"tűgzik, tűgözni",tek,NA,"János imád tűgözni, ezért sokat tűgzik.",Ti ritkán...,tűgzötök,tűgöztök,cselekszik,-zik,1,PR2012,1999,nő,nem,2022-04-05_16h41.44.345,hesp_baseline,2021.2.3,Win32,75.00750075
,,,,,,,,,,,,,,,,,flátlotok,flátoztok,left,3.1485,0,115,115,132,1,133,flátlik / flátozik,"flátlik, flátozni",tek,NA,"János imád flátozni, ezért sokat flátlik.",Ti ritkán...,flátlotok,flátoztok,cselekszik,-lik,1,PR2012,1999,nő,nem,2022-04-05_16h41.44.345,hesp_baseline,2021.2.3,Win32,75.00750075
,,,,,,,,,,,,,,,,,drilarzunk,drilarozunk,left,2.6514,0,116,116,131,1,132,drilarzik / drilarozik,"drilarzik, drilarozni",ünk,NA,"János imád drilarozni, ezért sokat drilarzik.",Mi ritkán...,drilarzunk,drilarozunk,cselekszik,-zik,2,PR2012,1999,nő,nem,2022-04-05_16h41.44.345,hesp_baseline,2021.2.3,Win32,75.00750075
,,,,,,,,,,,,,,,,,plágadzok,plágadzom,left,3.7646,0,117,117,74,1,129,plágadzik,plágadzol,NA,NA,Te bizony sokat plágadzol.,Én is sokat...,plágadzok,plágadzom,lakik,-zik,2,PR2012,1999,nő,nem,2022-04-05_16h41.44.345,hesp_baseline,2021.2.3,Win32,75.00750075
,,,,,,,,,,,,,,,,,sztrozlok,sztrozlom,right,1.7335,0,118,118,104,1,159,sztrozlik,sztrozlasz,NA,NA,Te bizony sokat sztrozlasz.,Én is sokat...,sztrozlok,sztrozlom,lakik,-lik,1,PR2012,1999,nő,nem,2022-04-05_16h41.44.345,hesp_baseline,2021.2.3,Win32,75.00750075
,,,,,,,,,,,,,,,,,brálamoznak,brálamlanak,right,2.9479,0,119,119,144,1,145,brálamlik / brálamozik,"brálamlik, brálamozni",nek,NA,"János imád brálamozni, ezért sokat brálamlik.",Ők ritkán...,brálamlanak,brálamoznak,cselekszik,-lik,2,PR2012,1999,nő,nem,2022-04-05_16h41.44.345,hesp_baseline,2021.2.3,Win32,75.00750075
,,,,,,,,,,,,,,,,,zatéjnél,zatéjnál,left,2.9496,0,120,120,34,1,143,zatéj,zatéj,nál,é,Ez itt egy zatéj.,Nincs is jobb egy jó...,zatéjnél,zatéjnál,dzsungel,NA,NA,PR2012,1999,nő,nem,2022-04-05_16h41.44.345,hesp_baseline,2021.2.3,Win32,75.00750075
,,,,,,,,,,,,,,,,,táklom,táklok,left,2.2049,0,121,121,79,1,134,táklik,táklasz,NA,NA,Te bizony sokat táklasz.,Én is sokat...,táklok,táklom,lakik,-lik,1,PR2012,1999,nő,nem,2022-04-05_16h41.44.345,hesp_baseline,2021.2.3,Win32,75.00750075
,,,,,,,,,,,,,,,,,bródesznek,bródesznak,left,6.1667,0,122,122,32,1,141,bródesz,bródesz,nak,e,Ez itt egy bródesz.,Elneveztem a kutyámat...,bródesznek,bródesznak,dzsungel,NA,NA,PR2012,1999,nő,nem,2022-04-05_16h41.44.345,hesp_baseline,2021.2.3,Win32,75.00750075
,,,,,,,,,,,,,,,,,nyupérnél,nyupérnál,right,3.0813,0,123,123,52,1,161,nyupér,nyupér,nál,é,Ez itt egy nyupér.,Nincs is jobb egy jó...,nyupérnél,nyupérnál,dzsungel,NA,NA,PR2012,1999,nő,nem,2022-04-05_16h41.44.345,hesp_baseline,2021.2.3,Win32,75.00750075
,,,,,,,,,,,,,,,,,mékszem,mékszek,left,4.8686,0,124,124,71,1,126,mékszik,mékszel,NA,NA,Te bizony sokat mékszel.,Én is sokat...,mékszek,mékszem,lakik,-szik,1,PR2012,1999,nő,nem,2022-04-05_16h41.44.345,hesp_baseline,2021.2.3,Win32,75.00750075
,,,,,,,,,,,,,,,,,trehégszek,trehégszem,left,1.6941,0,125,125,86,1,141,trehégszik,trehégszel,NA,NA,Te bizony sokat trehégszel.,Én is sokat...,trehégszek,trehégszem,lakik,-szik,2,PR2012,1999,nő,nem,2022-04-05_16h41.44.345,hesp_baseline,2021.2.3,Win32,75.00750075
,,,,,,,,,,,,,,,,,gyibakszok,gyibakszom,right,3.6481,0,126,126,57,1,112,gyibakszik,gyibakszol,NA,NA,Te bizony sokat gyibakszol.,Én is sokat...,gyibakszok,gyibakszom,lakik,-szik,2,PR2012,1999,nő,nem,2022-04-05_16h41.44.345,hesp_baseline,2021.2.3,Win32,75.00750075
,,,,,,,,,,,,,,,,,sztruglok,sztruglom,left,6.4021,0,127,127,67,1,122,sztruglik,sztruglasz,NA,NA,Te bizony sokat sztruglasz.,Én is sokat...,sztruglok,sztruglom,lakik,-lik,1,PR2012,1999,nő,nem,2022-04-05_16h41.44.345,hesp_baseline,2021.2.3,Win32,75.00750075
,,,,,,,,,,,,,,,,,dralágozunk,dralágzunk,right,7.3935,0,128,128,156,1,157,dralágzik / dralágozik,"dralágzik, dralágozni",ünk,NA,"János imád dralágozni, ezért sokat dralágzik.",Mi ritkán...,dralágzunk,dralágozunk,cselekszik,-zik,2,PR2012,1999,nő,nem,2022-04-05_16h41.44.345,hesp_baseline,2021.2.3,Win32,75.00750075
,,,,,,,,,,,,,,,,,düjzök,düjzöm,right,4.7359,0,129,129,97,1,152,düjzik,düjzöl,NA,NA,Te bizony sokat düjzöl.,Én is sokat...,düjzök,düjzöm,lakik,-zik,1,PR2012,1999,nő,nem,2022-04-05_16h41.44.345,hesp_baseline,2021.2.3,Win32,75.00750075
,,,,,,,,,,,,,,,,,pazévnál,pazévnél,right,2.5139,0,130,130,36,1,145,pazév,pazév,nál,é,Ez itt egy pazév.,Nincs is jobb egy jó...,pazévnél,pazévnál,dzsungel,NA,NA,PR2012,1999,nő,nem,2022-04-05_16h41.44.345,hesp_baseline,2021.2.3,Win32,75.00750075
,,,,,,,,,,,,,,,,,vihepszem,vihepszek,left,2.9614,0,131,131,59,1,114,vihepszik,vihepszel,NA,NA,Te bizony sokat vihepszel.,Én is sokat...,vihepszek,vihepszem,lakik,-szik,2,PR2012,1999,nő,nem,2022-04-05_16h41.44.345,hesp_baseline,2021.2.3,Win32,75.00750075
,,,,,,,,,,,,,,,,,frálapodtok,frálapszotok,right,0.834,0,132,132,150,1,151,frálapszik / frálapodik,"frálapszik, frálapodni",tek,NA,"János imád frálapodni, ezért sokat frálapszik.",Ti ritkán...,frálapszotok,frálapodtok,cselekszik,-szik,2,PR2012,1999,nő,nem,2022-04-05_16h41.44.345,hesp_baseline,2021.2.3,Win32,75.00750075
,,,,,,,,,,,,,,,,,dalencnél,dalencnál,right,0.3603,0,133,133,31,1,140,dalenc,dalenc,nál,e,Ez itt egy dalenc.,Nincs is jobb egy jó...,dalencnél,dalencnál,dzsungel,NA,NA,PR2012,1999,nő,nem,2022-04-05_16h41.44.345,hesp_baseline,2021.2.3,Win32,75.00750075
,,,,,,,,,,,,,,,,,tuboklok,tuboklom,left,0.6677,0,134,134,84,1,139,tuboklik,tuboklasz,NA,NA,Te bizony sokat tuboklasz.,Én is sokat...,tuboklok,tuboklom,lakik,-lik,2,PR2012,1999,nő,nem,2022-04-05_16h41.44.345,hesp_baseline,2021.2.3,Win32,75.00750075
,,,,,,,,,,,,,,,,,kláragodtok,kláragszotok,right,0.3287,0,135,135,123,1,124,kláragszik / kláragodik,"kláragszik, kláragodni",tek,NA,"János imád kláragodni, ezért sokat kláragszik.",Ti ritkán...,kláragszotok,kláragodtok,cselekszik,-szik,2,PR2012,1999,nő,nem,2022-04-05_16h41.44.345,hesp_baseline,2021.2.3,Win32,75.00750075
,,,,,,,,,,,,,,,,,trincsegban,trincsegben,right,0.3958,0,136,136,46,1,155,trincseg,trincseg,ban,e,Ez itt egy trincseg.,Ott vagyunk a...,trincsegben,trincsegban,dzsungel,NA,NA,PR2012,1999,nő,nem,2022-04-05_16h41.44.345,hesp_baseline,2021.2.3,Win32,75.00750075
,,,,,,,,,,,,,,,,,filánylunk,filányozunk,left,0.3874,0,137,137,134,1,135,filánylik / filányozik,"filánylik, filányozni",ünk,NA,"János imád filányozni, ezért sokat filánylik.",Mi ritkán...,filánylunk,filányozunk,cselekszik,-lik,2,PR2012,1999,nő,nem,2022-04-05_16h41.44.345,hesp_baseline,2021.2.3,Win32,75.00750075
,,,,,,,,,,,,,,,,,sztrijzok,sztrijzom,right,0.3781,0,138,138,68,1,123,sztrijzik,sztrijzol,NA,NA,Te bizony sokat sztrijzol.,Én is sokat...,sztrijzok,sztrijzom,lakik,-zik,1,PR2012,1999,nő,nem,2022-04-05_16h41.44.345,hesp_baseline,2021.2.3,Win32,75.00750075
,,,,,,,,,,,,,,,,,jurdentnél,jurdentnál,right,0.3467,0,139,139,16,1,125,jurdent,jurdent,nál,e,Ez itt egy jurdent.,Nincs is jobb egy jó...,jurdentnél,jurdentnál,dzsungel,NA,NA,PR2012,1999,nő,nem,2022-04-05_16h41.44.345,hesp_baseline,2021.2.3,Win32,75.00750075
,,,,,,,,,,,,,,,,,pribagszom,pribagszok,left,0.3867,0,140,140,76,1,131,pribagszik,pribagszol,NA,NA,Te bizony sokat pribagszol.,Én is sokat...,pribagszok,pribagszom,lakik,-szik,2,PR2012,1999,nő,nem,2022-04-05_16h41.44.345,hesp_baseline,2021.2.3,Win32,75.00750075
,,,,,,,,,,,,,,,,,spalároznak,spalárzanak,left,0.4818,0,141,141,137,1,138,spalárzik / spalározik,"spalárzik, spalározni",nek,NA,"János imád spalározni, ezért sokat spalárzik.",Ők ritkán...,spalárzanak,spalároznak,cselekszik,-zik,2,PR2012,1999,nő,nem,2022-04-05_16h41.44.345,hesp_baseline,2021.2.3,Win32,75.00750075
,,,,,,,,,,,,,,,,,sűjözünk,sűjlünk,right,0.3483,0,142,142,128,1,129,sűjlik / sűjözik,"sűjlik, sűjözni",ünk,NA,"János imád sűjözni, ezért sokat sűjlik.",Mi ritkán...,sűjlünk,sűjözünk,cselekszik,-lik,1,PR2012,1999,nő,nem,2022-04-05_16h41.44.345,hesp_baseline,2021.2.3,Win32,75.00750075
,,,,,,,,,,,,,,,,,sprivencnál,sprivencnél,left,0.2997,0,143,143,13,1,122,sprivenc,sprivenc,nál,e,Ez itt egy sprivenc.,Nincs is jobb egy jó...,sprivencnél,sprivencnál,dzsungel,NA,NA,PR2012,1999,nő,nem,2022-04-05_16h41.44.345,hesp_baseline,2021.2.3,Win32,75.00750075
,,,,,,,,,,,,,,,,,pehégszetek,pehégedtek,left,0.3066,0,144,144,151,1,152,pehégszik / pehégedik,"pehégszik, pehégedni",tek,NA,"János imád pehégedni, ezért sokat pehégszik.",Ti ritkán...,pehégszetek,pehégedtek,cselekszik,-szik,2,PR2012,1999,nő,nem,2022-04-05_16h41.44.345,hesp_baseline,2021.2.3,Win32,75.00750075
,,,,,,,,,,,,,,,,,sprökszök,sprökszöm,left,0.3097,0,145,145,88,1,143,sprökszik,sprökszöl,NA,NA,Te bizony sokat sprökszöl.,Én is sokat...,sprökszök,sprökszöm,lakik,-szik,1,PR2012,1999,nő,nem,2022-04-05_16h41.44.345,hesp_baseline,2021.2.3,Win32,75.00750075
,,,,,,,,,,,,,,,,,gicéjnál,gicéjnél,left,0.4288,0,146,146,17,1,126,gicéj,gicéj,nál,é,Ez itt egy gicéj.,Nincs is jobb egy jó...,gicéjnél,gicéjnál,dzsungel,NA,NA,PR2012,1999,nő,nem,2022-04-05_16h41.44.345,hesp_baseline,2021.2.3,Win32,75.00750075
,,,,,,,,,,,,,,,,,danétnál,danétnél,right,0.2771,0,147,147,38,1,147,danét,danét,nál,é,Ez itt egy danét.,Nincs is jobb egy jó...,danétnél,danétnál,dzsungel,NA,NA,PR2012,1999,nő,nem,2022-04-05_16h41.44.345,hesp_baseline,2021.2.3,Win32,75.00750075
,,,,,,,,,,,,,,,,,licegyban,licegyben,left,0.3649,0,148,148,15,1,124,licegy,licegy,ban,e,Ez itt egy licegy.,Ott vagyunk a...,licegyben,licegyban,dzsungel,NA,NA,PR2012,1999,nő,nem,2022-04-05_16h41.44.345,hesp_baseline,2021.2.3,Win32,75.00750075
,,,,,,,,,,,,,,,,,klivaslok,klivaslom,left,0.3266,0,149,149,62,1,117,klivaslik,klivaslasz,NA,NA,Te bizony sokat klivaslasz.,Én is sokat...,klivaslok,klivaslom,lakik,-lik,2,PR2012,1999,nő,nem,2022-04-05_16h41.44.345,hesp_baseline,2021.2.3,Win32,75.00750075
,,,,,,,,,,,,,,,,,frivajlok,frivajlom,left,0.3373,0,150,150,78,1,133,frivajlik,frivajlasz,NA,NA,Te bizony sokat frivajlasz.,Én is sokat...,frivajlok,frivajlom,lakik,-lik,2,PR2012,1999,nő,nem,2022-04-05_16h41.44.345,hesp_baseline,2021.2.3,Win32,75.00750075
,,,,,,,,,,,,,,,,,finceknél,finceknál,left,0.3073,0,151,151,9,1,118,fincek,fincek,nál,e,Ez itt egy fincek.,Nincs is jobb egy jó...,finceknél,finceknál,dzsungel,NA,NA,PR2012,1999,nő,nem,2022-04-05_16h41.44.345,hesp_baseline,2021.2.3,Win32,75.00750075
,,,,,,,,,,,,,,,,,klibamlok,klibamlom,right,0.3635,0,152,152,92,1,147,klibamlik,klibamlasz,NA,NA,Te bizony sokat klibamlasz.,Én is sokat...,klibamlok,klibamlom,lakik,-lik,2,PR2012,1999,nő,nem,2022-04-05_16h41.44.345,hesp_baseline,2021.2.3,Win32,75.00750075
,,,,,,,,,,,,,,,,,vűjlöm,vűjlök,right,0.5094,0,153,153,94,1,149,vűjlik,vűjlesz,NA,NA,Te bizony sokat vűjlesz.,Én is sokat...,vűjlök,vűjlöm,lakik,-lik,1,PR2012,1999,nő,nem,2022-04-05_16h41.44.345,hesp_baseline,2021.2.3,Win32,75.00750075
,,,,,,,,,,,,,,,,,nyáslok,nyáslom,right,0.3814,0,154,154,100,1,155,nyáslik,nyáslasz,NA,NA,Te bizony sokat nyáslasz.,Én is sokat...,nyáslok,nyáslom,lakik,-lik,1,PR2012,1999,nő,nem,2022-04-05_16h41.44.345,hesp_baseline,2021.2.3,Win32,75.00750075
,,,,,,,,,,,,,,,,,vehékszünk,vehékedünk,right,0.4423,0,155,155,117,1,118,vehékszik / vehékedik,"vehékszik, vehékedni",ünk,NA,"János imád vehékedni, ezért sokat vehékszik.",Mi ritkán...,vehékszünk,vehékedünk,cselekszik,-szik,2,PR2012,1999,nő,nem,2022-04-05_16h41.44.345,hesp_baseline,2021.2.3,Win32,75.00750075
,,,,,,,,,,,,,,,,,böjzök,böjzöm,right,0.3566,0,156,156,80,1,135,böjzik,böjzöl,NA,NA,Te bizony sokat böjzöl.,Én is sokat...,böjzök,böjzöm,lakik,-zik,1,PR2012,1999,nő,nem,2022-04-05_16h41.44.345,hesp_baseline,2021.2.3,Win32,75.00750075
,,,,,,,,,,,,,,,,,fizendben,fizendban,left,0.2442,0,157,157,49,1,158,fizend,fizend,ban,e,Ez itt egy fizend.,Ott vagyunk a...,fizendben,fizendban,dzsungel,NA,NA,PR2012,1999,nő,nem,2022-04-05_16h41.44.345,hesp_baseline,2021.2.3,Win32,75.00750075
,,,,,,,,,,,,,,,,,pragánylotok,pragányoztok,left,0.4411,0,158,158,133,1,134,pragánylik / pragányozik,"pragánylik, pragányozni",tek,NA,"János imád pragányozni, ezért sokat pragánylik.",Ti ritkán...,pragánylotok,pragányoztok,cselekszik,-lik,2,PR2012,1999,nő,nem,2022-04-05_16h41.44.345,hesp_baseline,2021.2.3,Win32,75.00750075
,,,,,,,,,,,,,,,,,huméknek,huméknak,right,0.3077,0,159,159,23,1,132,humék,humék,nak,é,Ez itt egy humék.,Elneveztem a kutyámat...,huméknek,huméknak,dzsungel,NA,NA,PR2012,1999,nő,nem,2022-04-05_16h41.44.345,hesp_baseline,2021.2.3,Win32,75.00750075
,,,,,,,,,,,,,,,,,rájzom,rájzok,left,0.3288,0,160,160,70,1,125,rájzik,rájzol,NA,NA,Te bizony sokat rájzol.,Én is sokat...,rájzok,rájzom,lakik,-zik,1,PR2012,1999,nő,nem,2022-04-05_16h41.44.345,hesp_baseline,2021.2.3,Win32,75.00750075
,,,,,,,,,,,,,,,,,trivakszunk,trivakodunk,left,0.2939,0,161,161,118,1,119,trivakszik / trivakodik,"trivakszik, trivakodni",ünk,NA,"János imád trivakodni, ezért sokat trivakszik.",Mi ritkán...,trivakszunk,trivakodunk,cselekszik,-szik,2,PR2012,1999,nő,nem,2022-04-05_16h41.44.345,hesp_baseline,2021.2.3,Win32,75.00750075
