my_list,key.keys,key.rt,key_2.keys,key_2.rt,keyboard_input_2.keys,keyboard_input_2.rt,key_3.keys,key_3.rt,keyboard_input_3.keys,keyboard_input_3.rt,key_4.keys,key_4.rt,keyboard_input_4.keys,keyboard_input_4.rt,key_5.keys,key_5.rt,my_button1,my_button2,keyboard_input.keys,keyboard_input.rt,withinBlock.thisRepN,withinBlock.thisTrialN,withinBlock.thisN,withinBlock.thisIndex,withinBlock.ran,rowname,word,prompt,suffix,vowel,carrier_sentence,target_sentence,target1,target2,category,derivational,nsyl,Azonosító,Melyik évben születtél?,Mi a nemed?,Tanultál nyelvészetet?,date,expName,psychopyVersion,OS,frameRate
list3.csv,space,20.6107,space,11.0856,right,5.8162,space,10.0149,left,2.5854,space,6.934,left,8.7649,space,13.7641,klarágzotok,klarágoztok,left,21.5927,0,0,0,114,1,115,klarágzik / klarágozik,"klarágzik, klarágozni",tek,NA,"János imád klarágozni, ezért sokat klarágzik.",Ti ritkán...,klarágzotok,klarágoztok,cselekszik,-zik,2,PR2087,1989,nő,nem,2022-04-19_23h05.03.114,hesp_baseline,2021.2.3,MacIntel,59.99880002
,,,,,,,,,,,,,,,,,danétnél,danétnál,right,9.0237,0,1,1,38,1,147,danét,danét,nál,é,Ez itt egy danét.,Nincs is jobb egy jó...,danétnél,danétnál,dzsungel,NA,NA,PR2087,1989,nő,nem,2022-04-19_23h05.03.114,hesp_baseline,2021.2.3,MacIntel,59.99880002
,,,,,,,,,,,,,,,,,klégezünk,kléglünk,right,12.3929,0,2,2,122,1,123,kléglik / klégezik,"kléglik, klégezni",ünk,NA,"János imád klégezni, ezért sokat kléglik.",Mi ritkán...,kléglünk,klégezünk,cselekszik,-lik,1,PR2087,1989,nő,nem,2022-04-19_23h05.03.114,hesp_baseline,2021.2.3,MacIntel,59.99880002
,,,,,,,,,,,,,,,,,spalárzanak,spalároznak,left,8.2617,0,3,3,137,1,138,spalárzik / spalározik,"spalárzik, spalározni",nek,NA,"János imád spalározni, ezért sokat spalárzik.",Ők ritkán...,spalárzanak,spalároznak,cselekszik,-zik,2,PR2087,1989,nő,nem,2022-04-19_23h05.03.114,hesp_baseline,2021.2.3,MacIntel,59.99880002
,,,,,,,,,,,,,,,,,vűjlök,vűjlöm,left,5.8728,0,4,4,94,1,149,vűjlik,vűjlesz,NA,NA,Te bizony sokat vűjlesz.,Én is sokat...,vűjlök,vűjlöm,lakik,-lik,1,PR2087,1989,nő,nem,2022-04-19_23h05.03.114,hesp_baseline,2021.2.3,MacIntel,59.99880002
,,,,,,,,,,,,,,,,,fliraklok,fliraklom,left,9.4444,0,5,5,98,1,153,fliraklik,fliraklasz,NA,NA,Te bizony sokat fliraklasz.,Én is sokat...,fliraklok,fliraklom,lakik,-lik,2,PR2087,1989,nő,nem,2022-04-19_23h05.03.114,hesp_baseline,2021.2.3,MacIntel,59.99880002
,,,,,,,,,,,,,,,,,braszencnél,braszencnál,left,8.8438,0,6,6,7,1,116,braszenc,braszenc,nál,e,Ez itt egy braszenc.,Nincs is jobb egy jó...,braszencnél,braszencnál,dzsungel,NA,NA,PR2087,1989,nő,nem,2022-04-19_23h05.03.114,hesp_baseline,2021.2.3,MacIntel,59.99880002
,,,,,,,,,,,,,,,,,sztruglok,sztruglom,left,11.1913,0,7,7,67,1,122,sztruglik,sztruglasz,NA,NA,Te bizony sokat sztruglasz.,Én is sokat...,sztruglok,sztruglom,lakik,-lik,1,PR2087,1989,nő,nem,2022-04-19_23h05.03.114,hesp_baseline,2021.2.3,MacIntel,59.99880002
,,,,,,,,,,,,,,,,,brindeznak,brindeznek,right,10.6475,0,8,8,6,1,115,brindez,brindez,nak,e,Ez itt egy brindez.,Elneveztem a kutyámat...,brindeznek,brindeznak,dzsungel,NA,NA,PR2087,1989,nő,nem,2022-04-19_23h05.03.114,hesp_baseline,2021.2.3,MacIntel,59.99880002
,,,,,,,,,,,,,,,,,nágapodnak,nágapszanak,right,13.0285,0,9,9,152,1,153,nágapszik / nágapodik,"nágapszik, nágapodni",nek,NA,"János imád nágapodni, ezért sokat nágapszik.",Ők ritkán...,nágapszanak,nágapodnak,cselekszik,-szik,2,PR2087,1989,nő,nem,2022-04-19_23h05.03.114,hesp_baseline,2021.2.3,MacIntel,59.99880002
,,,,,,,,,,,,,,,,,hűgzök,hűgzöm,right,9.229,0,10,10,107,1,162,hűgzik,hűgzöl,NA,NA,Te bizony sokat hűgzöl.,Én is sokat...,hűgzök,hűgzöm,lakik,-zik,1,PR2087,1989,nő,nem,2022-04-19_23h05.03.114,hesp_baseline,2021.2.3,MacIntel,59.99880002
,,,,,,,,,,,,,,,,,flököztök,flöklötök,right,8.0158,0,11,11,121,1,122,flöklik / flöközik,"flöklik, flöközni",tek,NA,"János imád flöközni, ezért sokat flöklik.",Ti ritkán...,flöklötök,flököztök,cselekszik,-lik,1,PR2087,1989,nő,nem,2022-04-19_23h05.03.114,hesp_baseline,2021.2.3,MacIntel,59.99880002
,,,,,,,,,,,,,,,,,frivajlom,frivajlok,right,10.1762,0,12,12,78,1,133,frivajlik,frivajlasz,NA,NA,Te bizony sokat frivajlasz.,Én is sokat...,frivajlok,frivajlom,lakik,-lik,2,PR2087,1989,nő,nem,2022-04-19_23h05.03.114,hesp_baseline,2021.2.3,MacIntel,59.99880002
,,,,,,,,,,,,,,,,,klibamlok,klibamlom,left,11.0385,0,13,13,92,1,147,klibamlik,klibamlasz,NA,NA,Te bizony sokat klibamlasz.,Én is sokat...,klibamlok,klibamlom,lakik,-lik,2,PR2087,1989,nő,nem,2022-04-19_23h05.03.114,hesp_baseline,2021.2.3,MacIntel,59.99880002
,,,,,,,,,,,,,,,,,nyupérnél,nyupérnál,right,10.3813,0,14,14,52,1,161,nyupér,nyupér,nál,é,Ez itt egy nyupér.,Nincs is jobb egy jó...,nyupérnél,nyupérnál,dzsungel,NA,NA,PR2087,1989,nő,nem,2022-04-19_23h05.03.114,hesp_baseline,2021.2.3,MacIntel,59.99880002
,,,,,,,,,,,,,,,,,bupézben,bupézban,left,10.526,0,15,15,48,1,157,bupéz,bupéz,ban,é,Ez itt egy bupéz.,Ott vagyunk a...,bupézben,bupézban,dzsungel,NA,NA,PR2087,1989,nő,nem,2022-04-19_23h05.03.114,hesp_baseline,2021.2.3,MacIntel,59.99880002
,,,,,,,,,,,,,,,,,zsáderban,zsáderben,right,4.9572,0,16,16,25,1,134,zsáder,zsáder,ban,e,Ez itt egy zsáder.,Ott vagyunk a...,zsáderben,zsáderban,dzsungel,NA,NA,PR2087,1989,nő,nem,2022-04-19_23h05.03.114,hesp_baseline,2021.2.3,MacIntel,59.99880002
,,,,,,,,,,,,,,,,,trilszom,trilszok,right,7.5949,0,17,17,103,1,158,trilszik,trilszol,NA,NA,Te bizony sokat trilszol.,Én is sokat...,trilszok,trilszom,lakik,-szik,1,PR2087,1989,nő,nem,2022-04-19_23h05.03.114,hesp_baseline,2021.2.3,MacIntel,59.99880002
,,,,,,,,,,,,,,,,,huméknek,huméknak,left,4.123,0,18,18,23,1,132,humék,humék,nak,é,Ez itt egy humék.,Elneveztem a kutyámat...,huméknek,huméknak,dzsungel,NA,NA,PR2087,1989,nő,nem,2022-04-19_23h05.03.114,hesp_baseline,2021.2.3,MacIntel,59.99880002
,,,,,,,,,,,,,,,,,briskédnál,briskédnél,right,4.3139,0,19,19,51,1,160,briskéd,briskéd,nál,é,Ez itt egy briskéd.,Nincs is jobb egy jó...,briskédnél,briskédnál,dzsungel,NA,NA,PR2087,1989,nő,nem,2022-04-19_23h05.03.114,hesp_baseline,2021.2.3,MacIntel,59.99880002
,,,,,,,,,,,,,,,,,licegyban,licegyben,right,5.4403,0,20,20,15,1,124,licegy,licegy,ban,e,Ez itt egy licegy.,Ott vagyunk a...,licegyben,licegyban,dzsungel,NA,NA,PR2087,1989,nő,nem,2022-04-19_23h05.03.114,hesp_baseline,2021.2.3,MacIntel,59.99880002
,,,,,,,,,,,,,,,,,dorzéjnak,dorzéjnek,right,4.8718,0,21,21,29,1,138,dorzéj,dorzéj,nak,é,Ez itt egy dorzéj.,Elneveztem a kutyámat...,dorzéjnek,dorzéjnak,dzsungel,NA,NA,PR2087,1989,nő,nem,2022-04-19_23h05.03.114,hesp_baseline,2021.2.3,MacIntel,59.99880002
,,,,,,,,,,,,,,,,,triképben,triképban,left,2.9726,0,22,22,33,1,142,trikép,trikép,ban,é,Ez itt egy trikép.,Ott vagyunk a...,triképben,triképban,dzsungel,NA,NA,PR2087,1989,nő,nem,2022-04-19_23h05.03.114,hesp_baseline,2021.2.3,MacIntel,59.99880002
,,,,,,,,,,,,,,,,,gyibakszok,gyibakszom,right,6.9488,0,23,23,57,1,112,gyibakszik,gyibakszol,NA,NA,Te bizony sokat gyibakszol.,Én is sokat...,gyibakszok,gyibakszom,lakik,-szik,2,PR2087,1989,nő,nem,2022-04-19_23h05.03.114,hesp_baseline,2021.2.3,MacIntel,59.99880002
,,,,,,,,,,,,,,,,,ronszekben,ronszekban,left,3.1983,0,24,24,18,1,127,ronszek,ronszek,ban,e,Ez itt egy ronszek.,Ott vagyunk a...,ronszekben,ronszekban,dzsungel,NA,NA,PR2087,1989,nő,nem,2022-04-19_23h05.03.114,hesp_baseline,2021.2.3,MacIntel,59.99880002
,,,,,,,,,,,,,,,,,treglek,treglem,left,5.1904,0,25,25,81,1,136,treglik,treglesz,NA,NA,Te bizony sokat treglesz.,Én is sokat...,treglek,treglem,lakik,-lik,1,PR2087,1989,nő,nem,2022-04-19_23h05.03.114,hesp_baseline,2021.2.3,MacIntel,59.99880002
,,,,,,,,,,,,,,,,,szutendban,szutendben,right,3.6168,0,26,26,11,1,120,szutend,szutend,ban,e,Ez itt egy szutend.,Ott vagyunk a...,szutendben,szutendban,dzsungel,NA,NA,PR2087,1989,nő,nem,2022-04-19_23h05.03.114,hesp_baseline,2021.2.3,MacIntel,59.99880002
,,,,,,,,,,,,,,,,,trismélnak,trismélnek,right,3.2409,0,27,27,5,1,114,trismél,trismél,nak,é,Ez itt egy trismél.,Elneveztem a kutyámat...,trismélnek,trismélnak,dzsungel,NA,NA,PR2087,1989,nő,nem,2022-04-19_23h05.03.114,hesp_baseline,2021.2.3,MacIntel,59.99880002
,,,,,,,,,,,,,,,,,narjárzom,narjárzok,left,4.1137,0,28,28,61,1,116,narjárzik,narjárzol,NA,NA,Te bizony sokat narjárzol.,Én is sokat...,narjárzok,narjárzom,lakik,-zik,2,PR2087,1989,nő,nem,2022-04-19_23h05.03.114,hesp_baseline,2021.2.3,MacIntel,59.99880002
,,,,,,,,,,,,,,,,,tínylom,tínylok,right,4.5948,0,29,29,58,1,113,tínylik,tínylasz,NA,NA,Te bizony sokat tínylasz.,Én is sokat...,tínylok,tínylom,lakik,-lik,1,PR2087,1989,nő,nem,2022-04-19_23h05.03.114,hesp_baseline,2021.2.3,MacIntel,59.99880002
,,,,,,,,,,,,,,,,,pehégszetek,pehégedtek,left,8.659,0,30,30,151,1,152,pehégszik / pehégedik,"pehégszik, pehégedni",tek,NA,"János imád pehégedni, ezért sokat pehégszik.",Ti ritkán...,pehégszetek,pehégedtek,cselekszik,-szik,2,PR2087,1989,nő,nem,2022-04-19_23h05.03.114,hesp_baseline,2021.2.3,MacIntel,59.99880002
,,,,,,,,,,,,,,,,,tibarzanak,tibaroznak,left,10.6407,0,31,31,155,1,156,tibarzik / tibarozik,"tibarzik, tibarozni",nek,NA,"János imád tibarozni, ezért sokat tibarzik.",Ők ritkán...,tibarzanak,tibaroznak,cselekszik,-zik,2,PR2087,1989,nő,nem,2022-04-19_23h05.03.114,hesp_baseline,2021.2.3,MacIntel,59.99880002
,,,,,,,,,,,,,,,,,lűköznek,lűklenek,right,16.8987,0,32,32,136,1,137,lűklik / lűközik,"lűklik, lűközni",nek,NA,"János imád lűközni, ezért sokat lűklik.",Ők ritkán...,lűklenek,lűköznek,cselekszik,-lik,1,PR2087,1989,nő,nem,2022-04-19_23h05.03.114,hesp_baseline,2021.2.3,MacIntel,59.99880002
,,,,,,,,,,,,,,,,,böjzök,böjzöm,right,5.628,0,33,33,80,1,135,böjzik,böjzöl,NA,NA,Te bizony sokat böjzöl.,Én is sokat...,böjzök,böjzöm,lakik,-zik,1,PR2087,1989,nő,nem,2022-04-19_23h05.03.114,hesp_baseline,2021.2.3,MacIntel,59.99880002
,,,,,,,,,,,,,,,,,sztrijzok,sztrijzom,left,6.6223,0,34,34,68,1,123,sztrijzik,sztrijzol,NA,NA,Te bizony sokat sztrijzol.,Én is sokat...,sztrijzok,sztrijzom,lakik,-zik,1,PR2087,1989,nő,nem,2022-04-19_23h05.03.114,hesp_baseline,2021.2.3,MacIntel,59.99880002
,,,,,,,,,,,,,,,,,filánylunk,filányozunk,left,6.3257,0,35,35,134,1,135,filánylik / filányozik,"filánylik, filányozni",ünk,NA,"János imád filányozni, ezért sokat filánylik.",Mi ritkán...,filánylunk,filányozunk,cselekszik,-lik,2,PR2087,1989,nő,nem,2022-04-19_23h05.03.114,hesp_baseline,2021.2.3,MacIntel,59.99880002
,,,,,,,,,,,,,,,,,sartelyban,sartelyben,right,4.7636,0,36,36,40,1,149,sartely,sartely,ban,e,Ez itt egy sartely.,Ott vagyunk a...,sartelyben,sartelyban,dzsungel,NA,NA,PR2087,1989,nő,nem,2022-04-19_23h05.03.114,hesp_baseline,2021.2.3,MacIntel,59.99880002
,,,,,,,,,,,,,,,,,finceknál,finceknél,right,5.147,0,37,37,9,1,118,fincek,fincek,nál,e,Ez itt egy fincek.,Nincs is jobb egy jó...,finceknél,finceknál,dzsungel,NA,NA,PR2087,1989,nő,nem,2022-04-19_23h05.03.114,hesp_baseline,2021.2.3,MacIntel,59.99880002
,,,,,,,,,,,,,,,,,tuboklom,tuboklok,right,4.9144,0,38,38,84,1,139,tuboklik,tuboklasz,NA,NA,Te bizony sokat tuboklasz.,Én is sokat...,tuboklok,tuboklom,lakik,-lik,2,PR2087,1989,nő,nem,2022-04-19_23h05.03.114,hesp_baseline,2021.2.3,MacIntel,59.99880002
,,,,,,,,,,,,,,,,,zsádévnek,zsádévnak,left,4.075,0,39,39,20,1,129,zsádév,zsádév,nak,é,Ez itt egy zsádév.,Elneveztem a kutyámat...,zsádévnek,zsádévnak,dzsungel,NA,NA,PR2087,1989,nő,nem,2022-04-19_23h05.03.114,hesp_baseline,2021.2.3,MacIntel,59.99880002
,,,,,,,,,,,,,,,,,siladzom,siladzok,right,5.7588,0,40,40,93,1,148,siladzik,siladzol,NA,NA,Te bizony sokat siladzol.,Én is sokat...,siladzok,siladzom,lakik,-zik,2,PR2087,1989,nő,nem,2022-04-19_23h05.03.114,hesp_baseline,2021.2.3,MacIntel,59.99880002
,,,,,,,,,,,,,,,,,spanélnél,spanélnál,right,7.0252,0,41,41,24,1,133,spanél,spanél,nál,é,Ez itt egy spanél.,Nincs is jobb egy jó...,spanélnél,spanélnál,dzsungel,NA,NA,PR2087,1989,nő,nem,2022-04-19_23h05.03.114,hesp_baseline,2021.2.3,MacIntel,59.99880002
,,,,,,,,,,,,,,,,,bratároznak,bratárzanak,right,8.6236,0,42,42,108,1,109,bratárzik / bratározik,"bratárzik, bratározni",nek,NA,"János imád bratározni, ezért sokat bratárzik.",Ők ritkán...,bratárzanak,bratároznak,cselekszik,-zik,2,PR2087,1989,nő,nem,2022-04-19_23h05.03.114,hesp_baseline,2021.2.3,MacIntel,59.99880002
,,,,,,,,,,,,,,,,,spuborzanak,spuboroznak,left,13.6657,0,43,43,161,1,162,spuborzik / spuborozik,"spuborzik, spuborozni",nek,NA,"János imád spuborozni, ezért sokat spuborzik.",Ők ritkán...,spuborzanak,spuboroznak,cselekszik,-zik,2,PR2087,1989,nő,nem,2022-04-19_23h05.03.114,hesp_baseline,2021.2.3,MacIntel,59.99880002
,,,,,,,,,,,,,,,,,sztrűkszöm,sztrűkszök,right,5.2634,0,44,44,77,1,132,sztrűkszik,sztrűkszöl,NA,NA,Te bizony sokat sztrűkszöl.,Én is sokat...,sztrűkszök,sztrűkszöm,lakik,-szik,1,PR2087,1989,nő,nem,2022-04-19_23h05.03.114,hesp_baseline,2021.2.3,MacIntel,59.99880002
,,,,,,,,,,,,,,,,,kláragodtok,kláragszotok,right,12.1284,0,45,45,123,1,124,kláragszik / kláragodik,"kláragszik, kláragodni",tek,NA,"János imád kláragodni, ezért sokat kláragszik.",Ti ritkán...,kláragszotok,kláragodtok,cselekszik,-szik,2,PR2087,1989,nő,nem,2022-04-19_23h05.03.114,hesp_baseline,2021.2.3,MacIntel,59.99880002
,,,,,,,,,,,,,,,,,zödlöm,zödlök,right,5.5094,0,46,46,106,1,161,zödlik,zödlesz,NA,NA,Te bizony sokat zödlesz.,Én is sokat...,zödlök,zödlöm,lakik,-lik,1,PR2087,1989,nő,nem,2022-04-19_23h05.03.114,hesp_baseline,2021.2.3,MacIntel,59.99880002
,,,,,,,,,,,,,,,,,drilarzunk,drilarozunk,right,9.7728,0,47,47,131,1,132,drilarzik / drilarozik,"drilarzik, drilarozni",ünk,NA,"János imád drilarozni, ezért sokat drilarzik.",Mi ritkán...,drilarzunk,drilarozunk,cselekszik,-zik,2,PR2087,1989,nő,nem,2022-04-19_23h05.03.114,hesp_baseline,2021.2.3,MacIntel,59.99880002
,,,,,,,,,,,,,,,,,prűrlöm,prűrlök,right,4.1041,0,48,48,75,1,130,prűrlik,prűrlesz,NA,NA,Te bizony sokat prűrlesz.,Én is sokat...,prűrlök,prűrlöm,lakik,-lik,1,PR2087,1989,nő,nem,2022-04-19_23h05.03.114,hesp_baseline,2021.2.3,MacIntel,59.99880002
,,,,,,,,,,,,,,,,,prezlem,prezlek,right,4.6644,0,49,49,87,1,142,prezlik,prezlesz,NA,NA,Te bizony sokat prezlesz.,Én is sokat...,prezlek,prezlem,lakik,-lik,1,PR2087,1989,nő,nem,2022-04-19_23h05.03.114,hesp_baseline,2021.2.3,MacIntel,59.99880002
,,,,,,,,,,,,,,,,,sprivencnál,sprivencnél,right,4.3752,0,50,50,13,1,122,sprivenc,sprivenc,nál,e,Ez itt egy sprivenc.,Nincs is jobb egy jó...,sprivencnél,sprivencnál,dzsungel,NA,NA,PR2087,1989,nő,nem,2022-04-19_23h05.03.114,hesp_baseline,2021.2.3,MacIntel,59.99880002
,,,,,,,,,,,,,,,,,csodegnél,csodegnál,right,6.0569,0,51,51,28,1,137,csodeg,csodeg,nál,e,Ez itt egy csodeg.,Nincs is jobb egy jó...,csodegnél,csodegnál,dzsungel,NA,NA,PR2087,1989,nő,nem,2022-04-19_23h05.03.114,hesp_baseline,2021.2.3,MacIntel,59.99880002
,,,,,,,,,,,,,,,,,brűklötök,brűköztök,left,6.713,0,52,52,153,1,154,brűklik / brűközik,"brűklik, brűközni",tek,NA,"János imád brűközni, ezért sokat brűklik.",Ti ritkán...,brűklötök,brűköztök,cselekszik,-lik,1,PR2087,1989,nő,nem,2022-04-19_23h05.03.114,hesp_baseline,2021.2.3,MacIntel,59.99880002
,,,,,,,,,,,,,,,,,klosétnek,klosétnak,left,6.9275,0,53,53,45,1,154,klosét,klosét,nak,é,Ez itt egy klosét.,Elneveztem a kutyámat...,klosétnek,klosétnak,dzsungel,NA,NA,PR2087,1989,nő,nem,2022-04-19_23h05.03.114,hesp_baseline,2021.2.3,MacIntel,59.99880002
,,,,,,,,,,,,,,,,,sprökszöm,sprökszök,right,5.3389,0,54,54,88,1,143,sprökszik,sprökszöl,NA,NA,Te bizony sokat sprökszöl.,Én is sokat...,sprökszök,sprökszöm,lakik,-szik,1,PR2087,1989,nő,nem,2022-04-19_23h05.03.114,hesp_baseline,2021.2.3,MacIntel,59.99880002
,,,,,,,,,,,,,,,,,hágyétnek,hágyétnak,left,3.8955,0,55,55,42,1,151,hágyét,hágyét,nak,é,Ez itt egy hágyét.,Elneveztem a kutyámat...,hágyétnek,hágyétnak,dzsungel,NA,NA,PR2087,1989,nő,nem,2022-04-19_23h05.03.114,hesp_baseline,2021.2.3,MacIntel,59.99880002
,,,,,,,,,,,,,,,,,rájzok,rájzom,left,5.0796,0,56,56,70,1,125,rájzik,rájzol,NA,NA,Te bizony sokat rájzol.,Én is sokat...,rájzok,rájzom,lakik,-zik,1,PR2087,1989,nő,nem,2022-04-19_23h05.03.114,hesp_baseline,2021.2.3,MacIntel,59.99880002
,,,,,,,,,,,,,,,,,dralágozunk,dralágzunk,right,9.2781,0,57,57,156,1,157,dralágzik / dralágozik,"dralágzik, dralágozni",ünk,NA,"János imád dralágozni, ezért sokat dralágzik.",Mi ritkán...,dralágzunk,dralágozunk,cselekszik,-zik,2,PR2087,1989,nő,nem,2022-04-19_23h05.03.114,hesp_baseline,2021.2.3,MacIntel,59.99880002
,,,,,,,,,,,,,,,,,pibegzenek,pibegeznek,left,10.3934,0,58,58,127,1,128,pibegzik / pibegezik,"pibegzik, pibegezni",nek,NA,"János imád pibegezni, ezért sokat pibegzik.",Ők ritkán...,pibegzenek,pibegeznek,cselekszik,-zik,2,PR2087,1989,nő,nem,2022-04-19_23h05.03.114,hesp_baseline,2021.2.3,MacIntel,59.99880002
,,,,,,,,,,,,,,,,,trálszunk,trálodunk,left,9.7473,0,59,59,130,1,131,trálszik / trálodik,"trálszik, trálodni",ünk,NA,"János imád trálodni, ezért sokat trálszik.",Mi ritkán...,trálszunk,trálodunk,cselekszik,-szik,1,PR2087,1989,nő,nem,2022-04-19_23h05.03.114,hesp_baseline,2021.2.3,MacIntel,59.99880002
,,,,,,,,,,,,,,,,,trugokoznak,trugoklanak,right,7.508,0,60,60,109,1,110,trugoklik / trugokozik,"trugoklik, trugokozni",nek,NA,"János imád trugokozni, ezért sokat trugoklik.",Ők ritkán...,trugoklanak,trugokoznak,cselekszik,-lik,2,PR2087,1989,nő,nem,2022-04-19_23h05.03.114,hesp_baseline,2021.2.3,MacIntel,59.99880002
,,,,,,,,,,,,,,,,,bihánylok,bihánylom,right,4.7078,0,61,61,89,1,144,bihánylik,bihánylasz,NA,NA,Te bizony sokat bihánylasz.,Én is sokat...,bihánylok,bihánylom,lakik,-lik,2,PR2087,1989,nő,nem,2022-04-19_23h05.03.114,hesp_baseline,2021.2.3,MacIntel,59.99880002
,,,,,,,,,,,,,,,,,pijélnél,pijélnál,left,2.614,0,62,62,3,1,112,pijél,pijél,nál,é,Ez itt egy pijél.,Nincs is jobb egy jó...,pijélnél,pijélnál,dzsungel,NA,NA,PR2087,1989,nő,nem,2022-04-19_23h05.03.114,hesp_baseline,2021.2.3,MacIntel,59.99880002
,,,,,,,,,,,,,,,,,sztredletek,sztredeztek,left,11.2625,0,63,63,145,1,146,sztredlik / sztredezik,"sztredlik, sztredezni",tek,NA,"János imád sztredezni, ezért sokat sztredlik.",Ti ritkán...,sztredletek,sztredeztek,cselekszik,-lik,1,PR2087,1989,nő,nem,2022-04-19_23h05.03.114,hesp_baseline,2021.2.3,MacIntel,59.99880002
,,,,,,,,,,,,,,,,,féjzem,féjzek,right,9.7478,0,64,64,91,1,146,féjzik,féjzel,NA,NA,Te bizony sokat féjzel.,Én is sokat...,féjzek,féjzem,lakik,-zik,1,PR2087,1989,nő,nem,2022-04-19_23h05.03.114,hesp_baseline,2021.2.3,MacIntel,59.99880002
,,,,,,,,,,,,,,,,,vehékszünk,vehékedünk,left,8.1651,0,65,65,117,1,118,vehékszik / vehékedik,"vehékszik, vehékedni",ünk,NA,"János imád vehékedni, ezért sokat vehékszik.",Mi ritkán...,vehékszünk,vehékedünk,cselekszik,-szik,2,PR2087,1989,nő,nem,2022-04-19_23h05.03.114,hesp_baseline,2021.2.3,MacIntel,59.99880002
,,,,,,,,,,,,,,,,,gótemnek,gótemnak,left,3.8251,0,66,66,35,1,144,gótem,gótem,nak,e,Ez itt egy gótem.,Elneveztem a kutyámat...,gótemnek,gótemnak,dzsungel,NA,NA,PR2087,1989,nő,nem,2022-04-19_23h05.03.114,hesp_baseline,2021.2.3,MacIntel,59.99880002
,,,,,,,,,,,,,,,,,bűtszök,bűtszöm,left,3.3921,0,67,67,82,1,137,bűtszik,bűtszöl,NA,NA,Te bizony sokat bűtszöl.,Én is sokat...,bűtszök,bűtszöm,lakik,-szik,1,PR2087,1989,nő,nem,2022-04-19_23h05.03.114,hesp_baseline,2021.2.3,MacIntel,59.99880002
,,,,,,,,,,,,,,,,,vobzotok,voboztok,right,5.6737,0,68,68,158,1,159,vobzik / vobozik,"vobzik, vobozni",tek,NA,"János imád vobozni, ezért sokat vobzik.",Ti ritkán...,vobzotok,voboztok,cselekszik,-zik,1,PR2087,1989,nő,nem,2022-04-19_23h05.03.114,hesp_baseline,2021.2.3,MacIntel,59.99880002
,,,,,,,,,,,,,,,,,flugonylanak,flugonyoznak,left,5.6733,0,69,69,111,1,112,flugonylik / flugonyozik,"flugonylik, flugonyozni",nek,NA,"János imád flugonyozni, ezért sokat flugonylik.",Ők ritkán...,flugonylanak,flugonyoznak,cselekszik,-lik,2,PR2087,1989,nő,nem,2022-04-19_23h05.03.114,hesp_baseline,2021.2.3,MacIntel,59.99880002
,,,,,,,,,,,,,,,,,sztrozlok,sztrozlom,left,6.3287,0,70,70,104,1,159,sztrozlik,sztrozlasz,NA,NA,Te bizony sokat sztrozlasz.,Én is sokat...,sztrozlok,sztrozlom,lakik,-lik,1,PR2087,1989,nő,nem,2022-04-19_23h05.03.114,hesp_baseline,2021.2.3,MacIntel,59.99880002
,,,,,,,,,,,,,,,,,plágadzom,plágadzok,right,6.3611,0,71,71,74,1,129,plágadzik,plágadzol,NA,NA,Te bizony sokat plágadzol.,Én is sokat...,plágadzok,plágadzom,lakik,-zik,2,PR2087,1989,nő,nem,2022-04-19_23h05.03.114,hesp_baseline,2021.2.3,MacIntel,59.99880002
,,,,,,,,,,,,,,,,,brilegezünk,brilegzünk,right,9.4159,0,72,72,124,1,125,brilegzik / brilegezik,"brilegzik, brilegezni",ünk,NA,"János imád brilegezni, ezért sokat brilegzik.",Mi ritkán...,brilegzünk,brilegezünk,cselekszik,-zik,2,PR2087,1989,nő,nem,2022-04-19_23h05.03.114,hesp_baseline,2021.2.3,MacIntel,59.99880002
,,,,,,,,,,,,,,,,,spröbzöm,spröbzök,right,11.87,0,73,73,90,1,145,spröbzik,spröbzöl,NA,NA,Te bizony sokat spröbzöl.,Én is sokat...,spröbzök,spröbzöm,lakik,-zik,1,PR2087,1989,nő,nem,2022-04-19_23h05.03.114,hesp_baseline,2021.2.3,MacIntel,59.99880002
,,,,,,,,,,,,,,,,,klétszem,klétszek,right,6.4274,0,74,74,60,1,115,klétszik,klétszel,NA,NA,Te bizony sokat klétszel.,Én is sokat...,klétszek,klétszem,lakik,-szik,1,PR2087,1989,nő,nem,2022-04-19_23h05.03.114,hesp_baseline,2021.2.3,MacIntel,59.99880002
,,,,,,,,,,,,,,,,,zinednek,zinednak,left,3.1824,0,75,75,22,1,131,zined,zined,nak,e,Ez itt egy zined.,Elneveztem a kutyámat...,zinednek,zinednak,dzsungel,NA,NA,PR2087,1989,nő,nem,2022-04-19_23h05.03.114,hesp_baseline,2021.2.3,MacIntel,59.99880002
,,,,,,,,,,,,,,,,,düjzöm,düjzök,right,4.0876,0,76,76,97,1,152,düjzik,düjzöl,NA,NA,Te bizony sokat düjzöl.,Én is sokat...,düjzök,düjzöm,lakik,-zik,1,PR2087,1989,nő,nem,2022-04-19_23h05.03.114,hesp_baseline,2021.2.3,MacIntel,59.99880002
,,,,,,,,,,,,,,,,,spatelnak,spatelnek,right,4.115,0,77,77,21,1,130,spatel,spatel,nak,e,Ez itt egy spatel.,Elneveztem a kutyámat...,spatelnek,spatelnak,dzsungel,NA,NA,PR2087,1989,nő,nem,2022-04-19_23h05.03.114,hesp_baseline,2021.2.3,MacIntel,59.99880002
,,,,,,,,,,,,,,,,,spirágoztok,spiráglotok,left,11.6771,0,78,78,135,1,136,spiráglik / spirágozik,"spiráglik, spirágozni",tek,NA,"János imád spirágozni, ezért sokat spiráglik.",Ti ritkán...,spiráglotok,spirágoztok,cselekszik,-lik,2,PR2087,1989,nő,nem,2022-04-19_23h05.03.114,hesp_baseline,2021.2.3,MacIntel,59.99880002
,,,,,,,,,,,,,,,,,flátlotok,flátoztok,left,3.9571,0,79,79,132,1,133,flátlik / flátozik,"flátlik, flátozni",tek,NA,"János imád flátozni, ezért sokat flátlik.",Ti ritkán...,flátlotok,flátoztok,cselekszik,-lik,1,PR2087,1989,nő,nem,2022-04-19_23h05.03.114,hesp_baseline,2021.2.3,MacIntel,59.99880002
,,,,,,,,,,,,,,,,,prínylom,prínylok,right,3.8065,0,80,80,102,1,157,prínylik,prínylasz,NA,NA,Te bizony sokat prínylasz.,Én is sokat...,prínylok,prínylom,lakik,-lik,1,PR2087,1989,nő,nem,2022-04-19_23h05.03.114,hesp_baseline,2021.2.3,MacIntel,59.99880002
,,,,,,,,,,,,,,,,,tűgzötök,tűgöztök,left,15.1914,0,81,81,143,1,144,tűgzik / tűgözik,"tűgzik, tűgözni",tek,NA,"János imád tűgözni, ezért sokat tűgzik.",Ti ritkán...,tűgzötök,tűgöztök,cselekszik,-zik,1,PR2087,1989,nő,nem,2022-04-19_23h05.03.114,hesp_baseline,2021.2.3,MacIntel,59.99880002
,,,,,,,,,,,,,,,,,szihétnek,szihétnak,left,2.4196,0,82,82,4,1,113,szihét,szihét,nak,é,Ez itt egy szihét.,Elneveztem a kutyámat...,szihétnek,szihétnak,dzsungel,NA,NA,PR2087,1989,nő,nem,2022-04-19_23h05.03.114,hesp_baseline,2021.2.3,MacIntel,59.99880002
,,,,,,,,,,,,,,,,,vodecnél,vodecnál,left,5.0437,0,83,83,30,1,139,vodec,vodec,nál,e,Ez itt egy vodec.,Nincs is jobb egy jó...,vodecnél,vodecnál,dzsungel,NA,NA,PR2087,1989,nő,nem,2022-04-19_23h05.03.114,hesp_baseline,2021.2.3,MacIntel,59.99880002
,,,,,,,,,,,,,,,,,spibamlanak,spibamoznak,left,10.3936,0,84,84,142,1,143,spibamlik / spibamozik,"spibamlik, spibamozni",nek,NA,"János imád spibamozni, ezért sokat spibamlik.",Ők ritkán...,spibamlanak,spibamoznak,cselekszik,-lik,2,PR2087,1989,nő,nem,2022-04-19_23h05.03.114,hesp_baseline,2021.2.3,MacIntel,59.99880002
,,,,,,,,,,,,,,,,,klivaslok,klivaslom,left,6.2907,0,85,85,62,1,117,klivaslik,klivaslasz,NA,NA,Te bizony sokat klivaslasz.,Én is sokat...,klivaslok,klivaslom,lakik,-lik,2,PR2087,1989,nő,nem,2022-04-19_23h05.03.114,hesp_baseline,2021.2.3,MacIntel,59.99880002
,,,,,,,,,,,,,,,,,lumlotok,lumoztok,left,3.8974,0,86,86,149,1,150,lumlik / lumozik,"lumlik, lumozni",tek,NA,"János imád lumozni, ezért sokat lumlik.",Ti ritkán...,lumlotok,lumoztok,cselekszik,-lik,1,PR2087,1989,nő,nem,2022-04-19_23h05.03.114,hesp_baseline,2021.2.3,MacIntel,59.99880002
,,,,,,,,,,,,,,,,,trincsegben,trincsegban,left,4.4115,0,87,87,46,1,155,trincseg,trincseg,ban,e,Ez itt egy trincseg.,Ott vagyunk a...,trincsegben,trincsegban,dzsungel,NA,NA,PR2087,1989,nő,nem,2022-04-19_23h05.03.114,hesp_baseline,2021.2.3,MacIntel,59.99880002
,,,,,,,,,,,,,,,,,pristélben,pristélban,left,2.2075,0,88,88,1,1,110,pristél,pristél,ban,é,Ez itt egy pristél.,Ott vagyunk a...,pristélben,pristélban,dzsungel,NA,NA,PR2087,1989,nő,nem,2022-04-19_23h05.03.114,hesp_baseline,2021.2.3,MacIntel,59.99880002
,,,,,,,,,,,,,,,,,nyarcéjnek,nyarcéjnak,left,3.5464,0,89,89,37,1,146,nyarcéj,nyarcéj,nak,é,Ez itt egy nyarcéj.,Elneveztem a kutyámat...,nyarcéjnek,nyarcéjnak,dzsungel,NA,NA,PR2087,1989,nő,nem,2022-04-19_23h05.03.114,hesp_baseline,2021.2.3,MacIntel,59.99880002
,,,,,,,,,,,,,,,,,brotesban,brotesben,right,3.9294,0,90,90,53,1,162,brotes,brotes,ban,e,Ez itt egy brotes.,Ott vagyunk a...,brotesben,brotesban,dzsungel,NA,NA,PR2087,1989,nő,nem,2022-04-19_23h05.03.114,hesp_baseline,2021.2.3,MacIntel,59.99880002
,,,,,,,,,,,,,,,,,surnegynál,surnegynél,right,5.8075,0,91,91,8,1,117,surnegy,surnegy,nál,e,Ez itt egy surnegy.,Nincs is jobb egy jó...,surnegynél,surnegynál,dzsungel,NA,NA,PR2087,1989,nő,nem,2022-04-19_23h05.03.114,hesp_baseline,2021.2.3,MacIntel,59.99880002
,,,,,,,,,,,,,,,,,trádlok,trádlom,left,9.7845,0,92,92,105,1,160,trádlik,trádlasz,NA,NA,Te bizony sokat trádlasz.,Én is sokat...,trádlok,trádlom,lakik,-lik,1,PR2087,1989,nő,nem,2022-04-19_23h05.03.114,hesp_baseline,2021.2.3,MacIntel,59.99880002
,,,,,,,,,,,,,,,,,spüszlök,spüszlöm,left,3.9805,0,93,93,96,1,151,spüszlik,spüszlesz,NA,NA,Te bizony sokat spüszlesz.,Én is sokat...,spüszlök,spüszlöm,lakik,-lik,1,PR2087,1989,nő,nem,2022-04-19_23h05.03.114,hesp_baseline,2021.2.3,MacIntel,59.99880002
,,,,,,,,,,,,,,,,,fretszek,fretszem,right,4.9987,0,94,94,66,1,121,fretszik,fretszel,NA,NA,Te bizony sokat fretszel.,Én is sokat...,fretszek,fretszem,lakik,-szik,1,PR2087,1989,nő,nem,2022-04-19_23h05.03.114,hesp_baseline,2021.2.3,MacIntel,59.99880002
,,,,,,,,,,,,,,,,,spírzok,spírzom,left,5.8153,0,95,95,64,1,119,spírzik,spírzol,NA,NA,Te bizony sokat spírzol.,Én is sokat...,spírzok,spírzom,lakik,-zik,1,PR2087,1989,nő,nem,2022-04-19_23h05.03.114,hesp_baseline,2021.2.3,MacIntel,59.99880002
,,,,,,,,,,,,,,,,,vileslünk,vilesezünk,left,7.396,0,96,96,139,1,140,vileslik / vilesezik,"vileslik, vilesezni",ünk,NA,"János imád vilesezni, ezért sokat vileslik.",Mi ritkán...,vileslünk,vilesezünk,cselekszik,-lik,2,PR2087,1989,nő,nem,2022-04-19_23h05.03.114,hesp_baseline,2021.2.3,MacIntel,59.99880002
,,,,,,,,,,,,,,,,,büglök,büglöm,left,5.5912,0,97,97,101,1,156,büglik,büglesz,NA,NA,Te bizony sokat büglesz.,Én is sokat...,büglök,büglöm,lakik,-lik,1,PR2087,1989,nő,nem,2022-04-19_23h05.03.114,hesp_baseline,2021.2.3,MacIntel,59.99880002
,,,,,,,,,,,,,,,,,nyáslok,nyáslom,left,2.3429,0,98,98,100,1,155,nyáslik,nyáslasz,NA,NA,Te bizony sokat nyáslasz.,Én is sokat...,nyáslok,nyáslom,lakik,-lik,1,PR2087,1989,nő,nem,2022-04-19_23h05.03.114,hesp_baseline,2021.2.3,MacIntel,59.99880002
,,,,,,,,,,,,,,,,,vurnelnek,vurnelnak,left,2.4441,0,99,99,50,1,159,vurnel,vurnel,nak,e,Ez itt egy vurnel.,Elneveztem a kutyámat...,vurnelnek,vurnelnak,dzsungel,NA,NA,PR2087,1989,nő,nem,2022-04-19_23h05.03.114,hesp_baseline,2021.2.3,MacIntel,59.99880002
,,,,,,,,,,,,,,,,,brálamoznak,brálamlanak,right,8.2807,0,100,100,144,1,145,brálamlik / brálamozik,"brálamlik, brálamozni",nek,NA,"János imád brálamozni, ezért sokat brálamlik.",Ők ritkán...,brálamlanak,brálamoznak,cselekszik,-lik,2,PR2087,1989,nő,nem,2022-04-19_23h05.03.114,hesp_baseline,2021.2.3,MacIntel,59.99880002
,,,,,,,,,,,,,,,,,trájegben,trájegban,left,3.1917,0,101,101,14,1,123,trájeg,trájeg,ban,e,Ez itt egy trájeg.,Ott vagyunk a...,trájegben,trájegban,dzsungel,NA,NA,PR2087,1989,nő,nem,2022-04-19_23h05.03.114,hesp_baseline,2021.2.3,MacIntel,59.99880002
,,,,,,,,,,,,,,,,,vihepszem,vihepszek,left,5.7952,0,102,102,59,1,114,vihepszik,vihepszel,NA,NA,Te bizony sokat vihepszel.,Én is sokat...,vihepszek,vihepszem,lakik,-szik,2,PR2087,1989,nő,nem,2022-04-19_23h05.03.114,hesp_baseline,2021.2.3,MacIntel,59.99880002
,,,,,,,,,,,,,,,,,bródesznek,bródesznak,left,3.36,0,103,103,32,1,141,bródesz,bródesz,nak,e,Ez itt egy bródesz.,Elneveztem a kutyámat...,bródesznek,bródesznak,dzsungel,NA,NA,PR2087,1989,nő,nem,2022-04-19_23h05.03.114,hesp_baseline,2021.2.3,MacIntel,59.99880002
,,,,,,,,,,,,,,,,,gicéjnél,gicéjnál,left,2.8049,0,104,104,17,1,126,gicéj,gicéj,nál,é,Ez itt egy gicéj.,Nincs is jobb egy jó...,gicéjnél,gicéjnál,dzsungel,NA,NA,PR2087,1989,nő,nem,2022-04-19_23h05.03.114,hesp_baseline,2021.2.3,MacIntel,59.99880002
,,,,,,,,,,,,,,,,,klárzom,klárzok,right,2.4412,0,105,105,85,1,140,klárzik,klárzol,NA,NA,Te bizony sokat klárzol.,Én is sokat...,klárzok,klárzom,lakik,-zik,1,PR2087,1989,nő,nem,2022-04-19_23h05.03.114,hesp_baseline,2021.2.3,MacIntel,59.99880002
,,,,,,,,,,,,,,,,,trehégszem,trehégszek,left,3.8336,0,106,106,86,1,141,trehégszik,trehégszel,NA,NA,Te bizony sokat trehégszel.,Én is sokat...,trehégszek,trehégszem,lakik,-szik,2,PR2087,1989,nő,nem,2022-04-19_23h05.03.114,hesp_baseline,2021.2.3,MacIntel,59.99880002
,,,,,,,,,,,,,,,,,frilegszem,frilegszek,right,5.1661,0,107,107,72,1,127,frilegszik,frilegszel,NA,NA,Te bizony sokat frilegszel.,Én is sokat...,frilegszek,frilegszem,lakik,-szik,2,PR2087,1989,nő,nem,2022-04-19_23h05.03.114,hesp_baseline,2021.2.3,MacIntel,59.99880002
,,,,,,,,,,,,,,,,,brüröznek,brürzenek,right,12.7755,0,108,108,110,1,111,brürzik / brürözik,"brürzik, brürözni",nek,NA,"János imád brürözni, ezért sokat brürzik.",Ők ritkán...,brürzenek,brüröznek,cselekszik,-zik,1,PR2087,1989,nő,nem,2022-04-19_23h05.03.114,hesp_baseline,2021.2.3,MacIntel,59.99880002
,,,,,,,,,,,,,,,,,kábesznél,kábesznál,right,5.8414,0,109,109,44,1,153,kábesz,kábesz,nál,e,Ez itt egy kábesz.,Nincs is jobb egy jó...,kábesznél,kábesznál,dzsungel,NA,NA,PR2087,1989,nő,nem,2022-04-19_23h05.03.114,hesp_baseline,2021.2.3,MacIntel,59.99880002
,,,,,,,,,,,,,,,,,dibezban,dibezben,right,3.3074,0,110,110,27,1,136,dibez,dibez,ban,e,Ez itt egy dibez.,Ott vagyunk a...,dibezben,dibezban,dzsungel,NA,NA,PR2087,1989,nő,nem,2022-04-19_23h05.03.114,hesp_baseline,2021.2.3,MacIntel,59.99880002
,,,,,,,,,,,,,,,,,brárlanak,brároznak,left,2.8637,0,111,111,126,1,127,brárlik / brározik,"brárlik, brározni",nek,NA,"János imád brározni, ezért sokat brárlik.",Ők ritkán...,brárlanak,brároznak,cselekszik,-lik,1,PR2087,1989,nő,nem,2022-04-19_23h05.03.114,hesp_baseline,2021.2.3,MacIntel,59.99880002
,,,,,,,,,,,,,,,,,gerénylem,gerénylek,right,3.4401,0,112,112,99,1,154,gerénylik,gerénylesz,NA,NA,Te bizony sokat gerénylesz.,Én is sokat...,gerénylek,gerénylem,lakik,-lik,2,PR2087,1989,nő,nem,2022-04-19_23h05.03.114,hesp_baseline,2021.2.3,MacIntel,59.99880002
,,,,,,,,,,,,,,,,,pazévnál,pazévnél,right,3.3662,0,113,113,36,1,145,pazév,pazév,nál,é,Ez itt egy pazév.,Nincs is jobb egy jó...,pazévnél,pazévnál,dzsungel,NA,NA,PR2087,1989,nő,nem,2022-04-19_23h05.03.114,hesp_baseline,2021.2.3,MacIntel,59.99880002
,,,,,,,,,,,,,,,,,frálapodtok,frálapszotok,right,7.3909,0,114,114,150,1,151,frálapszik / frálapodik,"frálapszik, frálapodni",tek,NA,"János imád frálapodni, ezért sokat frálapszik.",Ti ritkán...,frálapszotok,frálapodtok,cselekszik,-szik,2,PR2087,1989,nő,nem,2022-04-19_23h05.03.114,hesp_baseline,2021.2.3,MacIntel,59.99880002
,,,,,,,,,,,,,,,,,mágamozunk,mágamlunk,right,5.023,0,115,115,140,1,141,mágamlik / mágamozik,"mágamlik, mágamozni",ünk,NA,"János imád mágamozni, ezért sokat mágamlik.",Mi ritkán...,mágamlunk,mágamozunk,cselekszik,-lik,2,PR2087,1989,nő,nem,2022-04-19_23h05.03.114,hesp_baseline,2021.2.3,MacIntel,59.99880002
,,,,,,,,,,,,,,,,,lismévban,lismévben,right,5.7087,0,116,116,0,1,109,lismév,lismév,ban,é,Ez itt egy lismév.,Ott vagyunk a...,lismévben,lismévban,dzsungel,NA,NA,PR2087,1989,nő,nem,2022-04-19_23h05.03.114,hesp_baseline,2021.2.3,MacIntel,59.99880002
,,,,,,,,,,,,,,,,,vubletnál,vubletnél,right,4.5616,0,117,117,26,1,135,vublet,vublet,nál,e,Ez itt egy vublet.,Nincs is jobb egy jó...,vubletnél,vubletnál,dzsungel,NA,NA,PR2087,1989,nő,nem,2022-04-19_23h05.03.114,hesp_baseline,2021.2.3,MacIntel,59.99880002
,,,,,,,,,,,,,,,,,trűnylenek,trűnyöznek,left,4.5597,0,118,118,119,1,120,trűnylik / trűnyözik,"trűnylik, trűnyözni",nek,NA,"János imád trűnyözni, ezért sokat trűnylik.",Ők ritkán...,trűnylenek,trűnyöznek,cselekszik,-lik,1,PR2087,1989,nő,nem,2022-04-19_23h05.03.114,hesp_baseline,2021.2.3,MacIntel,59.99880002
,,,,,,,,,,,,,,,,,lájoztok,lájzotok,right,7.9246,0,119,119,159,1,160,lájzik / lájozik,"lájzik, lájozni",tek,NA,"János imád lájozni, ezért sokat lájzik.",Ti ritkán...,lájzotok,lájoztok,cselekszik,-zik,1,PR2087,1989,nő,nem,2022-04-19_23h05.03.114,hesp_baseline,2021.2.3,MacIntel,59.99880002
,,,,,,,,,,,,,,,,,sűjlünk,sűjözünk,left,4.5897,0,120,120,128,1,129,sűjlik / sűjözik,"sűjlik, sűjözni",ünk,NA,"János imád sűjözni, ezért sokat sűjlik.",Mi ritkán...,sűjlünk,sűjözünk,cselekszik,-lik,1,PR2087,1989,nő,nem,2022-04-19_23h05.03.114,hesp_baseline,2021.2.3,MacIntel,59.99880002
,,,,,,,,,,,,,,,,,dalencnél,dalencnál,left,5.7297,0,121,121,31,1,140,dalenc,dalenc,nál,e,Ez itt egy dalenc.,Nincs is jobb egy jó...,dalencnél,dalencnál,dzsungel,NA,NA,PR2087,1989,nő,nem,2022-04-19_23h05.03.114,hesp_baseline,2021.2.3,MacIntel,59.99880002
,,,,,,,,,,,,,,,,,bidemben,bidemban,left,2.1631,0,122,122,2,1,111,bidem,bidem,ban,e,Ez itt egy bidem.,Ott vagyunk a...,bidemben,bidemban,dzsungel,NA,NA,PR2087,1989,nő,nem,2022-04-19_23h05.03.114,hesp_baseline,2021.2.3,MacIntel,59.99880002
,,,,,,,,,,,,,,,,,ribegedtek,ribegszetek,left,6.2771,0,123,123,141,1,142,ribegszik / ribegedik,"ribegszik, ribegedni",tek,NA,"János imád ribegedni, ezért sokat ribegszik.",Ti ritkán...,ribegszetek,ribegedtek,cselekszik,-szik,2,PR2087,1989,nő,nem,2022-04-19_23h05.03.114,hesp_baseline,2021.2.3,MacIntel,59.99880002
,,,,,,,,,,,,,,,,,pragánylotok,pragányoztok,left,3.9145,0,124,124,133,1,134,pragánylik / pragányozik,"pragánylik, pragányozni",tek,NA,"János imád pragányozni, ezért sokat pragánylik.",Ti ritkán...,pragánylotok,pragányoztok,cselekszik,-lik,2,PR2087,1989,nő,nem,2022-04-19_23h05.03.114,hesp_baseline,2021.2.3,MacIntel,59.99880002
,,,,,,,,,,,,,,,,,murdesnél,murdesnál,left,1.7608,0,125,125,47,1,156,murdes,murdes,nál,e,Ez itt egy murdes.,Nincs is jobb egy jó...,murdesnél,murdesnál,dzsungel,NA,NA,PR2087,1989,nő,nem,2022-04-19_23h05.03.114,hesp_baseline,2021.2.3,MacIntel,59.99880002
,,,,,,,,,,,,,,,,,ibékszem,ibékszek,left,3.7508,0,126,126,95,1,150,ibékszik,ibékszel,NA,NA,Te bizony sokat ibékszel.,Én is sokat...,ibékszek,ibékszem,lakik,-szik,2,PR2087,1989,nő,nem,2022-04-19_23h05.03.114,hesp_baseline,2021.2.3,MacIntel,59.99880002
,,,,,,,,,,,,,,,,,spülőrzök,spülőrzöm,left,2.0087,0,127,127,69,1,124,spülőrzik,spülőrzöl,NA,NA,Te bizony sokat spülőrzöl.,Én is sokat...,spülőrzök,spülőrzöm,lakik,-zik,2,PR2087,1989,nő,nem,2022-04-19_23h05.03.114,hesp_baseline,2021.2.3,MacIntel,59.99880002
,,,,,,,,,,,,,,,,,mékszem,mékszek,right,3.0593,0,128,128,71,1,126,mékszik,mékszel,NA,NA,Te bizony sokat mékszel.,Én is sokat...,mékszek,mékszem,lakik,-szik,1,PR2087,1989,nő,nem,2022-04-19_23h05.03.114,hesp_baseline,2021.2.3,MacIntel,59.99880002
,,,,,,,,,,,,,,,,,trivakodunk,trivakszunk,right,5.5587,0,129,129,118,1,119,trivakszik / trivakodik,"trivakszik, trivakodni",ünk,NA,"János imád trivakodni, ezért sokat trivakszik.",Mi ritkán...,trivakszunk,trivakodunk,cselekszik,-szik,2,PR2087,1989,nő,nem,2022-04-19_23h05.03.114,hesp_baseline,2021.2.3,MacIntel,59.99880002
,,,,,,,,,,,,,,,,,brüjlöm,brüjlök,right,3.9794,0,130,130,55,1,110,brüjlik,brüjlesz,NA,NA,Te bizony sokat brüjlesz.,Én is sokat...,brüjlök,brüjlöm,lakik,-lik,1,PR2087,1989,nő,nem,2022-04-19_23h05.03.114,hesp_baseline,2021.2.3,MacIntel,59.99880002
,,,,,,,,,,,,,,,,,pribagszok,pribagszom,right,4.3929,0,131,131,76,1,131,pribagszik,pribagszol,NA,NA,Te bizony sokat pribagszol.,Én is sokat...,pribagszok,pribagszom,lakik,-szik,2,PR2087,1989,nő,nem,2022-04-19_23h05.03.114,hesp_baseline,2021.2.3,MacIntel,59.99880002
,,,,,,,,,,,,,,,,,kátelnek,kátelnak,left,3.729,0,132,132,12,1,121,kátel,kátel,nak,e,Ez itt egy kátel.,Elneveztem a kutyámat...,kátelnek,kátelnak,dzsungel,NA,NA,PR2087,1989,nő,nem,2022-04-19_23h05.03.114,hesp_baseline,2021.2.3,MacIntel,59.99880002
,,,,,,,,,,,,,,,,,gibemezünk,gibemlünk,right,5.1451,0,133,133,115,1,116,gibemlik / gibemezik,"gibemlik, gibemezni",ünk,NA,"János imád gibemezni, ezért sokat gibemlik.",Mi ritkán...,gibemlünk,gibemezünk,cselekszik,-lik,2,PR2087,1989,nő,nem,2022-04-19_23h05.03.114,hesp_baseline,2021.2.3,MacIntel,59.99880002
,,,,,,,,,,,,,,,,,drivegzetek,drivegeztek,right,4.9264,0,134,134,112,1,113,drivegzik / drivegezik,"drivegzik, drivegezni",tek,NA,"János imád drivegezni, ezért sokat drivegzik.",Ti ritkán...,drivegzetek,drivegeztek,cselekszik,-zik,2,PR2087,1989,nő,nem,2022-04-19_23h05.03.114,hesp_baseline,2021.2.3,MacIntel,59.99880002
,,,,,,,,,,,,,,,,,drubódzok,drubódzom,right,3.8595,0,135,135,63,1,118,drubódzik,drubódzol,NA,NA,Te bizony sokat drubódzol.,Én is sokat...,drubódzok,drubódzom,lakik,-zik,2,PR2087,1989,nő,nem,2022-04-19_23h05.03.114,hesp_baseline,2021.2.3,MacIntel,59.99880002
,,,,,,,,,,,,,,,,,virzanak,viroznak,left,7.8973,0,136,136,125,1,126,virzik / virozik,"virzik, virozni",nek,NA,"János imád virozni, ezért sokat virzik.",Ők ritkán...,virzanak,viroznak,cselekszik,-zik,1,PR2087,1989,nő,nem,2022-04-19_23h05.03.114,hesp_baseline,2021.2.3,MacIntel,59.99880002
,,,,,,,,,,,,,,,,,nyítemben,nyítemban,left,4.3233,0,137,137,41,1,150,nyítem,nyítem,ban,e,Ez itt egy nyítem.,Ott vagyunk a...,nyítemben,nyítemban,dzsungel,NA,NA,PR2087,1989,nő,nem,2022-04-19_23h05.03.114,hesp_baseline,2021.2.3,MacIntel,59.99880002
,,,,,,,,,,,,,,,,,döjlenek,döjöznek,left,3.592,0,138,138,129,1,130,döjlik / döjözik,"döjlik, döjözni",nek,NA,"János imád döjözni, ezért sokat döjlik.",Ők ritkán...,döjlenek,döjöznek,cselekszik,-lik,1,PR2087,1989,nő,nem,2022-04-19_23h05.03.114,hesp_baseline,2021.2.3,MacIntel,59.99880002
,,,,,,,,,,,,,,,,,sprozlanak,sprozoznak,left,3.6634,0,139,139,147,1,148,sprozlik / sprozozik,"sprozlik, sprozozni",nek,NA,"János imád sprozozni, ezért sokat sprozlik.",Ők ritkán...,sprozlanak,sprozoznak,cselekszik,-lik,1,PR2087,1989,nő,nem,2022-04-19_23h05.03.114,hesp_baseline,2021.2.3,MacIntel,59.99880002
,,,,,,,,,,,,,,,,,nivárzotok,nivároztok,left,6.4673,0,140,140,146,1,147,nivárzik / nivározik,"nivárzik, nivározni",tek,NA,"János imád nivározni, ezért sokat nivárzik.",Ti ritkán...,nivárzotok,nivároztok,cselekszik,-zik,2,PR2087,1989,nő,nem,2022-04-19_23h05.03.114,hesp_baseline,2021.2.3,MacIntel,59.99880002
,,,,,,,,,,,,,,,,,brivepedünk,brivepszünk,right,5.7464,0,141,141,113,1,114,brivepszik / brivepedik,"brivepszik, brivepedni",ünk,NA,"János imád brivepedni, ezért sokat brivepszik.",Mi ritkán...,brivepszünk,brivepedünk,cselekszik,-szik,2,PR2087,1989,nő,nem,2022-04-19_23h05.03.114,hesp_baseline,2021.2.3,MacIntel,59.99880002
,,,,,,,,,,,,,,,,,spülöklök,spülöklöm,right,8.1746,0,142,142,56,1,111,spülöklik,spülöklesz,NA,NA,Te bizony sokat spülöklesz.,Én is sokat...,spülöklök,spülöklöm,lakik,-lik,2,PR2087,1989,nő,nem,2022-04-19_23h05.03.114,hesp_baseline,2021.2.3,MacIntel,59.99880002
,,,,,,,,,,,,,,,,,sztritlanak,sztritoznak,left,5.9932,0,143,143,154,1,155,sztritlik / sztritozik,"sztritlik, sztritozni",nek,NA,"János imád sztritozni, ezért sokat sztritlik.",Ők ritkán...,sztritlanak,sztritoznak,cselekszik,-lik,1,PR2087,1989,nő,nem,2022-04-19_23h05.03.114,hesp_baseline,2021.2.3,MacIntel,59.99880002
,,,,,,,,,,,,,,,,,trapszegynál,trapszegynél,right,2.5989,0,144,144,39,1,148,trapszegy,trapszegy,nál,e,Ez itt egy trapszegy.,Nincs is jobb egy jó...,trapszegynél,trapszegynál,dzsungel,NA,NA,PR2087,1989,nő,nem,2022-04-19_23h05.03.114,hesp_baseline,2021.2.3,MacIntel,59.99880002
,,,,,,,,,,,,,,,,,zábénynek,zábénynak,left,3.6915,0,145,145,43,1,152,zábény,zábény,nak,é,Ez itt egy zábény.,Elneveztem a kutyámat...,zábénynek,zábénynak,dzsungel,NA,NA,PR2087,1989,nő,nem,2022-04-19_23h05.03.114,hesp_baseline,2021.2.3,MacIntel,59.99880002
,,,,,,,,,,,,,,,,,diroztok,dirlotok,right,5.0669,0,146,146,148,1,149,dirlik / dirozik,"dirlik, dirozni",tek,NA,"János imád dirozni, ezért sokat dirlik.",Ti ritkán...,dirlotok,diroztok,cselekszik,-lik,1,PR2087,1989,nő,nem,2022-04-19_23h05.03.114,hesp_baseline,2021.2.3,MacIntel,59.99880002
,,,,,,,,,,,,,,,,,trilekedtek,trilekszetek,left,8.8688,0,147,147,157,1,158,trilekszik / trilekedik,"trilekszik, trilekedni",tek,NA,"János imád trilekedni, ezért sokat trilekszik.",Ti ritkán...,trilekszetek,trilekedtek,cselekszik,-szik,2,PR2087,1989,nő,nem,2022-04-19_23h05.03.114,hesp_baseline,2021.2.3,MacIntel,59.99880002
,,,,,,,,,,,,,,,,,táklok,táklom,left,4.5279,0,148,148,79,1,134,táklik,táklasz,NA,NA,Te bizony sokat táklasz.,Én is sokat...,táklok,táklom,lakik,-lik,1,PR2087,1989,nő,nem,2022-04-19_23h05.03.114,hesp_baseline,2021.2.3,MacIntel,59.99880002
,,,,,,,,,,,,,,,,,spuménynak,spuménynek,right,5.0747,0,149,149,19,1,128,spumény,spumény,nak,é,Ez itt egy spumény.,Elneveztem a kutyámat...,spuménynek,spuménynak,dzsungel,NA,NA,PR2087,1989,nő,nem,2022-04-19_23h05.03.114,hesp_baseline,2021.2.3,MacIntel,59.99880002
,,,,,,,,,,,,,,,,,piragszom,piragszok,left,4.6453,0,150,150,83,1,138,piragszik,piragszol,NA,NA,Te bizony sokat piragszol.,Én is sokat...,piragszok,piragszom,lakik,-szik,2,PR2087,1989,nő,nem,2022-04-19_23h05.03.114,hesp_baseline,2021.2.3,MacIntel,59.99880002
,,,,,,,,,,,,,,,,,mülőrözünk,mülőrzünk,left,8.4652,0,151,151,120,1,121,mülőrzik / mülőrözik,"mülőrzik, mülőrözni",ünk,NA,"János imád mülőrözni, ezért sokat mülőrzik.",Mi ritkán...,mülőrzünk,mülőrözünk,cselekszik,-zik,2,PR2087,1989,nő,nem,2022-04-19_23h05.03.114,hesp_baseline,2021.2.3,MacIntel,59.99880002
,,,,,,,,,,,,,,,,,briváglanak,brivágoznak,left,3.6437,0,152,152,138,1,139,briváglik / brivágozik,"briváglik, brivágozni",nek,NA,"János imád brivágozni, ezért sokat briváglik.",Ők ritkán...,briváglanak,brivágoznak,cselekszik,-lik,2,PR2087,1989,nő,nem,2022-04-19_23h05.03.114,hesp_baseline,2021.2.3,MacIntel,59.99880002
,,,,,,,,,,,,,,,,,zatéjnál,zatéjnél,right,2.6573,0,153,153,34,1,143,zatéj,zatéj,nál,é,Ez itt egy zatéj.,Nincs is jobb egy jó...,zatéjnél,zatéjnál,dzsungel,NA,NA,PR2087,1989,nő,nem,2022-04-19_23h05.03.114,hesp_baseline,2021.2.3,MacIntel,59.99880002
,,,,,,,,,,,,,,,,,jurdentnál,jurdentnél,right,3.7791,0,154,154,16,1,125,jurdent,jurdent,nál,e,Ez itt egy jurdent.,Nincs is jobb egy jó...,jurdentnél,jurdentnál,dzsungel,NA,NA,PR2087,1989,nő,nem,2022-04-19_23h05.03.114,hesp_baseline,2021.2.3,MacIntel,59.99880002
,,,,,,,,,,,,,,,,,brukésznél,brukésznál,right,6.2785,0,155,155,10,1,119,brukész,brukész,nál,é,Ez itt egy brukész.,Nincs is jobb egy jó...,brukésznél,brukésznál,dzsungel,NA,NA,PR2087,1989,nő,nem,2022-04-19_23h05.03.114,hesp_baseline,2021.2.3,MacIntel,59.99880002
,,,,,,,,,,,,,,,,,trálaklanak,trálakoznak,left,6.7635,0,156,156,116,1,117,trálaklik / trálakozik,"trálaklik, trálakozni",nek,NA,"János imád trálakozni, ezért sokat trálaklik.",Ők ritkán...,trálaklanak,trálakoznak,cselekszik,-lik,2,PR2087,1989,nő,nem,2022-04-19_23h05.03.114,hesp_baseline,2021.2.3,MacIntel,59.99880002
,,,,,,,,,,,,,,,,,trikoztok,triklotok,right,5.789,0,157,157,160,1,161,triklik / trikozik,"triklik, trikozni",tek,NA,"János imád trikozni, ezért sokat triklik.",Ti ritkán...,triklotok,trikoztok,cselekszik,-lik,1,PR2087,1989,nő,nem,2022-04-19_23h05.03.114,hesp_baseline,2021.2.3,MacIntel,59.99880002
,,,,,,,,,,,,,,,,,sprálszok,sprálszom,right,4.9732,0,158,158,65,1,120,sprálszik,sprálszol,NA,NA,Te bizony sokat sprálszol.,Én is sokat...,sprálszok,sprálszom,lakik,-szik,1,PR2087,1989,nő,nem,2022-04-19_23h05.03.114,hesp_baseline,2021.2.3,MacIntel,59.99880002
,,,,,,,,,,,,,,,,,bivejlek,bivejlem,left,1.6325,0,159,159,73,1,128,bivejlik,bivejlesz,NA,NA,Te bizony sokat bivejlesz.,Én is sokat...,bivejlek,bivejlem,lakik,-lik,2,PR2087,1989,nő,nem,2022-04-19_23h05.03.114,hesp_baseline,2021.2.3,MacIntel,59.99880002
,,,,,,,,,,,,,,,,,fizendban,fizendben,right,3.2907,0,160,160,49,1,158,fizend,fizend,ban,e,Ez itt egy fizend.,Ott vagyunk a...,fizendben,fizendban,dzsungel,NA,NA,PR2087,1989,nő,nem,2022-04-19_23h05.03.114,hesp_baseline,2021.2.3,MacIntel,59.99880002
,,,,,,,,,,,,,,,,,sűzlöm,sűzlök,right,2.9782,0,161,161,54,1,109,sűzlik,sűzlesz,NA,NA,Te bizony sokat sűzlesz.,Én is sokat...,sűzlök,sűzlöm,lakik,-lik,1,PR2087,1989,nő,nem,2022-04-19_23h05.03.114,hesp_baseline,2021.2.3,MacIntel,59.99880002
