my_list,key.keys,key.rt,key_2.keys,key_2.rt,keyboard_input_2.keys,keyboard_input_2.rt,key_3.keys,key_3.rt,keyboard_input_3.keys,keyboard_input_3.rt,key_4.keys,key_4.rt,keyboard_input_4.keys,keyboard_input_4.rt,key_5.keys,key_5.rt,my_button1,my_button2,keyboard_input.keys,keyboard_input.rt,withinBlock.thisRepN,withinBlock.thisTrialN,withinBlock.thisN,withinBlock.thisIndex,withinBlock.ran,rowname,word,prompt,suffix,vowel,carrier_sentence,target_sentence,target1,target2,category,derivational,nsyl,Azonosító,Melyik évben születtél?,Mi a nemed?,Tanultál nyelvészetet?,date,expName,psychopyVersion,OS,frameRate
list3.csv,space,23.6707,space,9.0964,right,7.2964,space,15.4391,left,6.4327,space,10.3535,left,8.7991,space,12.1327,trugoklanak,trugokoznak,right,15.5403,0,0,0,109,1,110,trugoklik / trugokozik,"trugoklik, trugokozni",nek,NA,"János imád trugokozni, ezért sokat trugoklik.",Ők ritkán...,trugoklanak,trugokoznak,cselekszik,-lik,2,PR2074,2003,nő,nem,2022-04-18_19h39.58.500,hesp_baseline,2021.2.3,Win32,60.52169703
,,,,,,,,,,,,,,,,,kléglünk,klégezünk,right,7.627,0,1,1,122,1,123,kléglik / klégezik,"kléglik, klégezni",ünk,NA,"János imád klégezni, ezért sokat kléglik.",Mi ritkán...,kléglünk,klégezünk,cselekszik,-lik,1,PR2074,2003,nő,nem,2022-04-18_19h39.58.500,hesp_baseline,2021.2.3,Win32,60.52169703
,,,,,,,,,,,,,,,,,brürzenek,brüröznek,right,9.975,0,2,2,110,1,111,brürzik / brürözik,"brürzik, brürözni",nek,NA,"János imád brürözni, ezért sokat brürzik.",Ők ritkán...,brürzenek,brüröznek,cselekszik,-zik,1,PR2074,2003,nő,nem,2022-04-18_19h39.58.500,hesp_baseline,2021.2.3,Win32,60.52169703
,,,,,,,,,,,,,,,,,brukésznél,brukésznál,left,6.7857,0,3,3,10,1,119,brukész,brukész,nál,é,Ez itt egy brukész.,Nincs is jobb egy jó...,brukésznél,brukésznál,dzsungel,NA,NA,PR2074,2003,nő,nem,2022-04-18_19h39.58.500,hesp_baseline,2021.2.3,Win32,60.52169703
,,,,,,,,,,,,,,,,,nágapodnak,nágapszanak,left,11.1429,0,4,4,152,1,153,nágapszik / nágapodik,"nágapszik, nágapodni",nek,NA,"János imád nágapodni, ezért sokat nágapszik.",Ők ritkán...,nágapszanak,nágapodnak,cselekszik,-szik,2,PR2074,2003,nő,nem,2022-04-18_19h39.58.500,hesp_baseline,2021.2.3,Win32,60.52169703
,,,,,,,,,,,,,,,,,ibékszem,ibékszek,left,5.6374,0,5,5,95,1,150,ibékszik,ibékszel,NA,NA,Te bizony sokat ibékszel.,Én is sokat...,ibékszek,ibékszem,lakik,-szik,2,PR2074,2003,nő,nem,2022-04-18_19h39.58.500,hesp_baseline,2021.2.3,Win32,60.52169703
,,,,,,,,,,,,,,,,,spirágoztok,spiráglotok,left,8.9866,0,6,6,135,1,136,spiráglik / spirágozik,"spiráglik, spirágozni",tek,NA,"János imád spirágozni, ezért sokat spiráglik.",Ti ritkán...,spiráglotok,spirágoztok,cselekszik,-lik,2,PR2074,2003,nő,nem,2022-04-18_19h39.58.500,hesp_baseline,2021.2.3,Win32,60.52169703
,,,,,,,,,,,,,,,,,pribagszom,pribagszok,left,4.704,0,7,7,76,1,131,pribagszik,pribagszol,NA,NA,Te bizony sokat pribagszol.,Én is sokat...,pribagszok,pribagszom,lakik,-szik,2,PR2074,2003,nő,nem,2022-04-18_19h39.58.500,hesp_baseline,2021.2.3,Win32,60.52169703
,,,,,,,,,,,,,,,,,flugonyoznak,flugonylanak,left,6.3539,0,8,8,111,1,112,flugonylik / flugonyozik,"flugonylik, flugonyozni",nek,NA,"János imád flugonyozni, ezért sokat flugonylik.",Ők ritkán...,flugonylanak,flugonyoznak,cselekszik,-lik,2,PR2074,2003,nő,nem,2022-04-18_19h39.58.500,hesp_baseline,2021.2.3,Win32,60.52169703
,,,,,,,,,,,,,,,,,finceknél,finceknál,left,4.7292,0,9,9,9,1,118,fincek,fincek,nál,e,Ez itt egy fincek.,Nincs is jobb egy jó...,finceknél,finceknál,dzsungel,NA,NA,PR2074,2003,nő,nem,2022-04-18_19h39.58.500,hesp_baseline,2021.2.3,Win32,60.52169703
,,,,,,,,,,,,,,,,,spalároznak,spalárzanak,left,7.1698,0,10,10,137,1,138,spalárzik / spalározik,"spalárzik, spalározni",nek,NA,"János imád spalározni, ezért sokat spalárzik.",Ők ritkán...,spalárzanak,spalároznak,cselekszik,-zik,2,PR2074,2003,nő,nem,2022-04-18_19h39.58.500,hesp_baseline,2021.2.3,Win32,60.52169703
,,,,,,,,,,,,,,,,,bűtszöm,bűtszök,left,6.1378,0,11,11,82,1,137,bűtszik,bűtszöl,NA,NA,Te bizony sokat bűtszöl.,Én is sokat...,bűtszök,bűtszöm,lakik,-szik,1,PR2074,2003,nő,nem,2022-04-18_19h39.58.500,hesp_baseline,2021.2.3,Win32,60.52169703
,,,,,,,,,,,,,,,,,sprozlanak,sprozoznak,right,6.8698,0,12,12,147,1,148,sprozlik / sprozozik,"sprozlik, sprozozni",nek,NA,"János imád sprozozni, ezért sokat sprozlik.",Ők ritkán...,sprozlanak,sprozoznak,cselekszik,-lik,1,PR2074,2003,nő,nem,2022-04-18_19h39.58.500,hesp_baseline,2021.2.3,Win32,60.52169703
,,,,,,,,,,,,,,,,,gibemlünk,gibemezünk,right,4.3237,0,13,13,115,1,116,gibemlik / gibemezik,"gibemlik, gibemezni",ünk,NA,"János imád gibemezni, ezért sokat gibemlik.",Mi ritkán...,gibemlünk,gibemezünk,cselekszik,-lik,2,PR2074,2003,nő,nem,2022-04-18_19h39.58.500,hesp_baseline,2021.2.3,Win32,60.52169703
,,,,,,,,,,,,,,,,,nyarcéjnak,nyarcéjnek,right,7.8066,0,14,14,37,1,146,nyarcéj,nyarcéj,nak,é,Ez itt egy nyarcéj.,Elneveztem a kutyámat...,nyarcéjnek,nyarcéjnak,dzsungel,NA,NA,PR2074,2003,nő,nem,2022-04-18_19h39.58.500,hesp_baseline,2021.2.3,Win32,60.52169703
,,,,,,,,,,,,,,,,,jurdentnál,jurdentnél,right,8.0343,0,15,15,16,1,125,jurdent,jurdent,nál,e,Ez itt egy jurdent.,Nincs is jobb egy jó...,jurdentnél,jurdentnál,dzsungel,NA,NA,PR2074,2003,nő,nem,2022-04-18_19h39.58.500,hesp_baseline,2021.2.3,Win32,60.52169703
,,,,,,,,,,,,,,,,,brilegzünk,brilegezünk,right,21.7071,0,16,16,124,1,125,brilegzik / brilegezik,"brilegzik, brilegezni",ünk,NA,"János imád brilegezni, ezért sokat brilegzik.",Mi ritkán...,brilegzünk,brilegezünk,cselekszik,-zik,2,PR2074,2003,nő,nem,2022-04-18_19h39.58.500,hesp_baseline,2021.2.3,Win32,60.52169703
,,,,,,,,,,,,,,,,,spuboroznak,spuborzanak,left,6.1801,0,17,17,161,1,162,spuborzik / spuborozik,"spuborzik, spuborozni",nek,NA,"János imád spuborozni, ezért sokat spuborzik.",Ők ritkán...,spuborzanak,spuboroznak,cselekszik,-zik,2,PR2074,2003,nő,nem,2022-04-18_19h39.58.500,hesp_baseline,2021.2.3,Win32,60.52169703
,,,,,,,,,,,,,,,,,pristélben,pristélban,left,4.8942,0,18,18,1,1,110,pristél,pristél,ban,é,Ez itt egy pristél.,Ott vagyunk a...,pristélben,pristélban,dzsungel,NA,NA,PR2074,2003,nő,nem,2022-04-18_19h39.58.500,hesp_baseline,2021.2.3,Win32,60.52169703
,,,,,,,,,,,,,,,,,ribegszetek,ribegedtek,right,31.7877,0,19,19,141,1,142,ribegszik / ribegedik,"ribegszik, ribegedni",tek,NA,"János imád ribegedni, ezért sokat ribegszik.",Ti ritkán...,ribegszetek,ribegedtek,cselekszik,-szik,2,PR2074,2003,nő,nem,2022-04-18_19h39.58.500,hesp_baseline,2021.2.3,Win32,60.52169703
,,,,,,,,,,,,,,,,,sartelyban,sartelyben,right,6.6109,0,20,20,40,1,149,sartely,sartely,ban,e,Ez itt egy sartely.,Ott vagyunk a...,sartelyben,sartelyban,dzsungel,NA,NA,PR2074,2003,nő,nem,2022-04-18_19h39.58.500,hesp_baseline,2021.2.3,Win32,60.52169703
,,,,,,,,,,,,,,,,,drilarozunk,drilarzunk,left,4.4287,0,21,21,131,1,132,drilarzik / drilarozik,"drilarzik, drilarozni",ünk,NA,"János imád drilarozni, ezért sokat drilarzik.",Mi ritkán...,drilarzunk,drilarozunk,cselekszik,-zik,2,PR2074,2003,nő,nem,2022-04-18_19h39.58.500,hesp_baseline,2021.2.3,Win32,60.52169703
,,,,,,,,,,,,,,,,,pehégedtek,pehégszetek,left,6.0601,0,22,22,151,1,152,pehégszik / pehégedik,"pehégszik, pehégedni",tek,NA,"János imád pehégedni, ezért sokat pehégszik.",Ti ritkán...,pehégszetek,pehégedtek,cselekszik,-szik,2,PR2074,2003,nő,nem,2022-04-18_19h39.58.500,hesp_baseline,2021.2.3,Win32,60.52169703
,,,,,,,,,,,,,,,,,bratárzanak,bratároznak,right,5.9766,0,23,23,108,1,109,bratárzik / bratározik,"bratárzik, bratározni",nek,NA,"János imád bratározni, ezért sokat bratárzik.",Ők ritkán...,bratárzanak,bratároznak,cselekszik,-zik,2,PR2074,2003,nő,nem,2022-04-18_19h39.58.500,hesp_baseline,2021.2.3,Win32,60.52169703
,,,,,,,,,,,,,,,,,narjárzok,narjárzom,right,5.8603,0,24,24,61,1,116,narjárzik,narjárzol,NA,NA,Te bizony sokat narjárzol.,Én is sokat...,narjárzok,narjárzom,lakik,-zik,2,PR2074,2003,nő,nem,2022-04-18_19h39.58.500,hesp_baseline,2021.2.3,Win32,60.52169703
,,,,,,,,,,,,,,,,,bupézben,bupézban,left,4.7942,0,25,25,48,1,157,bupéz,bupéz,ban,é,Ez itt egy bupéz.,Ott vagyunk a...,bupézben,bupézban,dzsungel,NA,NA,PR2074,2003,nő,nem,2022-04-18_19h39.58.500,hesp_baseline,2021.2.3,Win32,60.52169703
,,,,,,,,,,,,,,,,,sztredeztek,sztredletek,left,11.6429,0,26,26,145,1,146,sztredlik / sztredezik,"sztredlik, sztredezni",tek,NA,"János imád sztredezni, ezért sokat sztredlik.",Ti ritkán...,sztredletek,sztredeztek,cselekszik,-lik,1,PR2074,2003,nő,nem,2022-04-18_19h39.58.500,hesp_baseline,2021.2.3,Win32,60.52169703
,,,,,,,,,,,,,,,,,trűnyöznek,trűnylenek,left,6.5616,0,27,27,119,1,120,trűnylik / trűnyözik,"trűnylik, trűnyözni",nek,NA,"János imád trűnyözni, ezért sokat trűnylik.",Ők ritkán...,trűnylenek,trűnyöznek,cselekszik,-lik,1,PR2074,2003,nő,nem,2022-04-18_19h39.58.500,hesp_baseline,2021.2.3,Win32,60.52169703
,,,,,,,,,,,,,,,,,klárzom,klárzok,left,2.7773,0,28,28,85,1,140,klárzik,klárzol,NA,NA,Te bizony sokat klárzol.,Én is sokat...,klárzok,klárzom,lakik,-zik,1,PR2074,2003,nő,nem,2022-04-18_19h39.58.500,hesp_baseline,2021.2.3,Win32,60.52169703
,,,,,,,,,,,,,,,,,kábesznál,kábesznél,right,6.4445,0,29,29,44,1,153,kábesz,kábesz,nál,e,Ez itt egy kábesz.,Nincs is jobb egy jó...,kábesznél,kábesznál,dzsungel,NA,NA,PR2074,2003,nő,nem,2022-04-18_19h39.58.500,hesp_baseline,2021.2.3,Win32,60.52169703
,,,,,,,,,,,,,,,,,sprálszok,sprálszom,right,2.7742,0,30,30,65,1,120,sprálszik,sprálszol,NA,NA,Te bizony sokat sprálszol.,Én is sokat...,sprálszok,sprálszom,lakik,-szik,1,PR2074,2003,nő,nem,2022-04-18_19h39.58.500,hesp_baseline,2021.2.3,Win32,60.52169703
,,,,,,,,,,,,,,,,,mülőrzünk,mülőrözünk,right,6.1781,0,31,31,120,1,121,mülőrzik / mülőrözik,"mülőrzik, mülőrözni",ünk,NA,"János imád mülőrözni, ezért sokat mülőrzik.",Mi ritkán...,mülőrzünk,mülőrözünk,cselekszik,-zik,2,PR2074,2003,nő,nem,2022-04-18_19h39.58.500,hesp_baseline,2021.2.3,Win32,60.52169703
,,,,,,,,,,,,,,,,,treglem,treglek,left,2.395,0,32,32,81,1,136,treglik,treglesz,NA,NA,Te bizony sokat treglesz.,Én is sokat...,treglek,treglem,lakik,-lik,1,PR2074,2003,nő,nem,2022-04-18_19h39.58.500,hesp_baseline,2021.2.3,Win32,60.52169703
,,,,,,,,,,,,,,,,,flöklötök,flököztök,left,12.3447,0,33,33,121,1,122,flöklik / flöközik,"flöklik, flöközni",tek,NA,"János imád flöközni, ezért sokat flöklik.",Ti ritkán...,flöklötök,flököztök,cselekszik,-lik,1,PR2074,2003,nő,nem,2022-04-18_19h39.58.500,hesp_baseline,2021.2.3,Win32,60.52169703
,,,,,,,,,,,,,,,,,spuménynak,spuménynek,right,4.1711,0,34,34,19,1,128,spumény,spumény,nak,é,Ez itt egy spumény.,Elneveztem a kutyámat...,spuménynek,spuménynak,dzsungel,NA,NA,PR2074,2003,nő,nem,2022-04-18_19h39.58.500,hesp_baseline,2021.2.3,Win32,60.52169703
,,,,,,,,,,,,,,,,,spülőrzök,spülőrzöm,right,2.5318,0,35,35,69,1,124,spülőrzik,spülőrzöl,NA,NA,Te bizony sokat spülőrzöl.,Én is sokat...,spülőrzök,spülőrzöm,lakik,-zik,2,PR2074,2003,nő,nem,2022-04-18_19h39.58.500,hesp_baseline,2021.2.3,Win32,60.52169703
,,,,,,,,,,,,,,,,,csodegnál,csodegnél,right,3.2795,0,36,36,28,1,137,csodeg,csodeg,nál,e,Ez itt egy csodeg.,Nincs is jobb egy jó...,csodegnél,csodegnál,dzsungel,NA,NA,PR2074,2003,nő,nem,2022-04-18_19h39.58.500,hesp_baseline,2021.2.3,Win32,60.52169703
,,,,,,,,,,,,,,,,,gótemnek,gótemnak,left,6.1604,0,37,37,35,1,144,gótem,gótem,nak,e,Ez itt egy gótem.,Elneveztem a kutyámat...,gótemnek,gótemnak,dzsungel,NA,NA,PR2074,2003,nő,nem,2022-04-18_19h39.58.500,hesp_baseline,2021.2.3,Win32,60.52169703
,,,,,,,,,,,,,,,,,trilszom,trilszok,left,3.3631,0,38,38,103,1,158,trilszik,trilszol,NA,NA,Te bizony sokat trilszol.,Én is sokat...,trilszok,trilszom,lakik,-szik,1,PR2074,2003,nő,nem,2022-04-18_19h39.58.500,hesp_baseline,2021.2.3,Win32,60.52169703
,,,,,,,,,,,,,,,,,lismévben,lismévban,left,3.3453,0,39,39,0,1,109,lismév,lismév,ban,é,Ez itt egy lismév.,Ott vagyunk a...,lismévben,lismévban,dzsungel,NA,NA,PR2074,2003,nő,nem,2022-04-18_19h39.58.500,hesp_baseline,2021.2.3,Win32,60.52169703
,,,,,,,,,,,,,,,,,zábénynak,zábénynek,right,6.3784,0,40,40,43,1,152,zábény,zábény,nak,é,Ez itt egy zábény.,Elneveztem a kutyámat...,zábénynek,zábénynak,dzsungel,NA,NA,PR2074,2003,nő,nem,2022-04-18_19h39.58.500,hesp_baseline,2021.2.3,Win32,60.52169703
,,,,,,,,,,,,,,,,,szutendban,szutendben,right,6.8281,0,41,41,11,1,120,szutend,szutend,ban,e,Ez itt egy szutend.,Ott vagyunk a...,szutendben,szutendban,dzsungel,NA,NA,PR2074,2003,nő,nem,2022-04-18_19h39.58.500,hesp_baseline,2021.2.3,Win32,60.52169703
,,,,,,,,,,,,,,,,,tibarzanak,tibaroznak,right,4.7269,0,42,42,155,1,156,tibarzik / tibarozik,"tibarzik, tibarozni",nek,NA,"János imád tibarozni, ezért sokat tibarzik.",Ők ritkán...,tibarzanak,tibaroznak,cselekszik,-zik,2,PR2074,2003,nő,nem,2022-04-18_19h39.58.500,hesp_baseline,2021.2.3,Win32,60.52169703
,,,,,,,,,,,,,,,,,spírzom,spírzok,left,2.7121,0,43,43,64,1,119,spírzik,spírzol,NA,NA,Te bizony sokat spírzol.,Én is sokat...,spírzok,spírzom,lakik,-zik,1,PR2074,2003,nő,nem,2022-04-18_19h39.58.500,hesp_baseline,2021.2.3,Win32,60.52169703
,,,,,,,,,,,,,,,,,böjzöm,böjzök,left,2.5655,0,44,44,80,1,135,böjzik,böjzöl,NA,NA,Te bizony sokat böjzöl.,Én is sokat...,böjzök,böjzöm,lakik,-zik,1,PR2074,2003,nő,nem,2022-04-18_19h39.58.500,hesp_baseline,2021.2.3,Win32,60.52169703
,,,,,,,,,,,,,,,,,lűköznek,lűklenek,left,2.2964,0,45,45,136,1,137,lűklik / lűközik,"lűklik, lűközni",nek,NA,"János imád lűközni, ezért sokat lűklik.",Ők ritkán...,lűklenek,lűköznek,cselekszik,-lik,1,PR2074,2003,nő,nem,2022-04-18_19h39.58.500,hesp_baseline,2021.2.3,Win32,60.52169703
,,,,,,,,,,,,,,,,,bródesznek,bródesznak,left,3.379,0,46,46,32,1,141,bródesz,bródesz,nak,e,Ez itt egy bródesz.,Elneveztem a kutyámat...,bródesznek,bródesznak,dzsungel,NA,NA,PR2074,2003,nő,nem,2022-04-18_19h39.58.500,hesp_baseline,2021.2.3,Win32,60.52169703
,,,,,,,,,,,,,,,,,brivepedünk,brivepszünk,left,4.8646,0,47,47,113,1,114,brivepszik / brivepedik,"brivepszik, brivepedni",ünk,NA,"János imád brivepedni, ezért sokat brivepszik.",Mi ritkán...,brivepszünk,brivepedünk,cselekszik,-szik,2,PR2074,2003,nő,nem,2022-04-18_19h39.58.500,hesp_baseline,2021.2.3,Win32,60.52169703
,,,,,,,,,,,,,,,,,trismélnak,trismélnek,right,3.394,0,48,48,5,1,114,trismél,trismél,nak,é,Ez itt egy trismél.,Elneveztem a kutyámat...,trismélnek,trismélnak,dzsungel,NA,NA,PR2074,2003,nő,nem,2022-04-18_19h39.58.500,hesp_baseline,2021.2.3,Win32,60.52169703
,,,,,,,,,,,,,,,,,féjzek,féjzem,right,2.9959,0,49,49,91,1,146,féjzik,féjzel,NA,NA,Te bizony sokat féjzel.,Én is sokat...,féjzek,féjzem,lakik,-zik,1,PR2074,2003,nő,nem,2022-04-18_19h39.58.500,hesp_baseline,2021.2.3,Win32,60.52169703
,,,,,,,,,,,,,,,,,sztrűkszöm,sztrűkszök,left,3.6826,0,50,50,77,1,132,sztrűkszik,sztrűkszöl,NA,NA,Te bizony sokat sztrűkszöl.,Én is sokat...,sztrűkszök,sztrűkszöm,lakik,-szik,1,PR2074,2003,nő,nem,2022-04-18_19h39.58.500,hesp_baseline,2021.2.3,Win32,60.52169703
,,,,,,,,,,,,,,,,,vobzotok,voboztok,right,3.3611,0,51,51,158,1,159,vobzik / vobozik,"vobzik, vobozni",tek,NA,"János imád vobozni, ezért sokat vobzik.",Ti ritkán...,vobzotok,voboztok,cselekszik,-zik,1,PR2074,2003,nő,nem,2022-04-18_19h39.58.500,hesp_baseline,2021.2.3,Win32,60.52169703
,,,,,,,,,,,,,,,,,nyupérnál,nyupérnél,right,5.9292,0,52,52,52,1,161,nyupér,nyupér,nál,é,Ez itt egy nyupér.,Nincs is jobb egy jó...,nyupérnél,nyupérnál,dzsungel,NA,NA,PR2074,2003,nő,nem,2022-04-18_19h39.58.500,hesp_baseline,2021.2.3,Win32,60.52169703
,,,,,,,,,,,,,,,,,fizendben,fizendban,left,3.2772,0,53,53,49,1,158,fizend,fizend,ban,e,Ez itt egy fizend.,Ott vagyunk a...,fizendben,fizendban,dzsungel,NA,NA,PR2074,2003,nő,nem,2022-04-18_19h39.58.500,hesp_baseline,2021.2.3,Win32,60.52169703
,,,,,,,,,,,,,,,,,pibegeznek,pibegzenek,left,4.8285,0,54,54,127,1,128,pibegzik / pibegezik,"pibegzik, pibegezni",nek,NA,"János imád pibegezni, ezért sokat pibegzik.",Ők ritkán...,pibegzenek,pibegeznek,cselekszik,-zik,2,PR2074,2003,nő,nem,2022-04-18_19h39.58.500,hesp_baseline,2021.2.3,Win32,60.52169703
,,,,,,,,,,,,,,,,,klibamlok,klibamlom,right,5.7457,0,55,55,92,1,147,klibamlik,klibamlasz,NA,NA,Te bizony sokat klibamlasz.,Én is sokat...,klibamlok,klibamlom,lakik,-lik,2,PR2074,2003,nő,nem,2022-04-18_19h39.58.500,hesp_baseline,2021.2.3,Win32,60.52169703
,,,,,,,,,,,,,,,,,brűköztök,brűklötök,left,3.5777,0,56,56,153,1,154,brűklik / brűközik,"brűklik, brűközni",tek,NA,"János imád brűközni, ezért sokat brűklik.",Ti ritkán...,brűklötök,brűköztök,cselekszik,-lik,1,PR2074,2003,nő,nem,2022-04-18_19h39.58.500,hesp_baseline,2021.2.3,Win32,60.52169703
,,,,,,,,,,,,,,,,,ronszekban,ronszekben,right,2.913,0,57,57,18,1,127,ronszek,ronszek,ban,e,Ez itt egy ronszek.,Ott vagyunk a...,ronszekben,ronszekban,dzsungel,NA,NA,PR2074,2003,nő,nem,2022-04-18_19h39.58.500,hesp_baseline,2021.2.3,Win32,60.52169703
,,,,,,,,,,,,,,,,,klétszem,klétszek,left,2.3788,0,58,58,60,1,115,klétszik,klétszel,NA,NA,Te bizony sokat klétszel.,Én is sokat...,klétszek,klétszem,lakik,-szik,1,PR2074,2003,nő,nem,2022-04-18_19h39.58.500,hesp_baseline,2021.2.3,Win32,60.52169703
,,,,,,,,,,,,,,,,,lumlotok,lumoztok,right,4.5289,0,59,59,149,1,150,lumlik / lumozik,"lumlik, lumozni",tek,NA,"János imád lumozni, ezért sokat lumlik.",Ti ritkán...,lumlotok,lumoztok,cselekszik,-lik,1,PR2074,2003,nő,nem,2022-04-18_19h39.58.500,hesp_baseline,2021.2.3,Win32,60.52169703
,,,,,,,,,,,,,,,,,trapszegynál,trapszegynél,right,2.4761,0,60,60,39,1,148,trapszegy,trapszegy,nál,e,Ez itt egy trapszegy.,Nincs is jobb egy jó...,trapszegynél,trapszegynál,dzsungel,NA,NA,PR2074,2003,nő,nem,2022-04-18_19h39.58.500,hesp_baseline,2021.2.3,Win32,60.52169703
,,,,,,,,,,,,,,,,,frilegszek,frilegszem,right,1.6481,0,61,61,72,1,127,frilegszik,frilegszel,NA,NA,Te bizony sokat frilegszel.,Én is sokat...,frilegszek,frilegszem,lakik,-szik,2,PR2074,2003,nő,nem,2022-04-18_19h39.58.500,hesp_baseline,2021.2.3,Win32,60.52169703
,,,,,,,,,,,,,,,,,nivárzotok,nivároztok,right,5.8443,0,62,62,146,1,147,nivárzik / nivározik,"nivárzik, nivározni",tek,NA,"János imád nivározni, ezért sokat nivárzik.",Ti ritkán...,nivárzotok,nivároztok,cselekszik,-zik,2,PR2074,2003,nő,nem,2022-04-18_19h39.58.500,hesp_baseline,2021.2.3,Win32,60.52169703
,,,,,,,,,,,,,,,,,fretszem,fretszek,left,14.0297,0,63,63,66,1,121,fretszik,fretszel,NA,NA,Te bizony sokat fretszel.,Én is sokat...,fretszek,fretszem,lakik,-szik,1,PR2074,2003,nő,nem,2022-04-18_19h39.58.500,hesp_baseline,2021.2.3,Win32,60.52169703
,,,,,,,,,,,,,,,,,gyibakszom,gyibakszok,left,2.4804,0,64,64,57,1,112,gyibakszik,gyibakszol,NA,NA,Te bizony sokat gyibakszol.,Én is sokat...,gyibakszok,gyibakszom,lakik,-szik,2,PR2074,2003,nő,nem,2022-04-18_19h39.58.500,hesp_baseline,2021.2.3,Win32,60.52169703
,,,,,,,,,,,,,,,,,gerénylek,gerénylem,right,2.4763,0,65,65,99,1,154,gerénylik,gerénylesz,NA,NA,Te bizony sokat gerénylesz.,Én is sokat...,gerénylek,gerénylem,lakik,-lik,2,PR2074,2003,nő,nem,2022-04-18_19h39.58.500,hesp_baseline,2021.2.3,Win32,60.52169703
,,,,,,,,,,,,,,,,,vihepszem,vihepszek,left,3.3936,0,66,66,59,1,114,vihepszik,vihepszel,NA,NA,Te bizony sokat vihepszel.,Én is sokat...,vihepszek,vihepszem,lakik,-szik,2,PR2074,2003,nő,nem,2022-04-18_19h39.58.500,hesp_baseline,2021.2.3,Win32,60.52169703
,,,,,,,,,,,,,,,,,sprivencnál,sprivencnél,right,3.3391,0,67,67,13,1,122,sprivenc,sprivenc,nál,e,Ez itt egy sprivenc.,Nincs is jobb egy jó...,sprivencnél,sprivencnál,dzsungel,NA,NA,PR2074,2003,nő,nem,2022-04-18_19h39.58.500,hesp_baseline,2021.2.3,Win32,60.52169703
,,,,,,,,,,,,,,,,,sűjlünk,sűjözünk,left,5.5514,0,68,68,128,1,129,sűjlik / sűjözik,"sűjlik, sűjözni",ünk,NA,"János imád sűjözni, ezért sokat sűjlik.",Mi ritkán...,sűjlünk,sűjözünk,cselekszik,-lik,1,PR2074,2003,nő,nem,2022-04-18_19h39.58.500,hesp_baseline,2021.2.3,Win32,60.52169703
,,,,,,,,,,,,,,,,,döjlenek,döjöznek,left,3.8388,0,69,69,129,1,130,döjlik / döjözik,"döjlik, döjözni",nek,NA,"János imád döjözni, ezért sokat döjlik.",Ők ritkán...,döjlenek,döjöznek,cselekszik,-lik,1,PR2074,2003,nő,nem,2022-04-18_19h39.58.500,hesp_baseline,2021.2.3,Win32,60.52169703
,,,,,,,,,,,,,,,,,pazévnál,pazévnél,right,3.0367,0,70,70,36,1,145,pazév,pazév,nál,é,Ez itt egy pazév.,Nincs is jobb egy jó...,pazévnél,pazévnál,dzsungel,NA,NA,PR2074,2003,nő,nem,2022-04-18_19h39.58.500,hesp_baseline,2021.2.3,Win32,60.52169703
,,,,,,,,,,,,,,,,,spröbzök,spröbzöm,right,1.5757,0,71,71,90,1,145,spröbzik,spröbzöl,NA,NA,Te bizony sokat spröbzöl.,Én is sokat...,spröbzök,spröbzöm,lakik,-zik,1,PR2074,2003,nő,nem,2022-04-18_19h39.58.500,hesp_baseline,2021.2.3,Win32,60.52169703
,,,,,,,,,,,,,,,,,mékszek,mékszem,right,4.3282,0,72,72,71,1,126,mékszik,mékszel,NA,NA,Te bizony sokat mékszel.,Én is sokat...,mékszek,mékszem,lakik,-szik,1,PR2074,2003,nő,nem,2022-04-18_19h39.58.500,hesp_baseline,2021.2.3,Win32,60.52169703
,,,,,,,,,,,,,,,,,siladzok,siladzom,right,3.0443,0,73,73,93,1,148,siladzik,siladzol,NA,NA,Te bizony sokat siladzol.,Én is sokat...,siladzok,siladzom,lakik,-zik,2,PR2074,2003,nő,nem,2022-04-18_19h39.58.500,hesp_baseline,2021.2.3,Win32,60.52169703
,,,,,,,,,,,,,,,,,klarágoztok,klarágzotok,left,9.8039,0,74,74,114,1,115,klarágzik / klarágozik,"klarágzik, klarágozni",tek,NA,"János imád klarágozni, ezért sokat klarágzik.",Ti ritkán...,klarágzotok,klarágoztok,cselekszik,-zik,2,PR2074,2003,nő,nem,2022-04-18_19h39.58.500,hesp_baseline,2021.2.3,Win32,60.52169703
,,,,,,,,,,,,,,,,,rájzom,rájzok,left,2.1719,0,75,75,70,1,125,rájzik,rájzol,NA,NA,Te bizony sokat rájzol.,Én is sokat...,rájzok,rájzom,lakik,-zik,1,PR2074,2003,nő,nem,2022-04-18_19h39.58.500,hesp_baseline,2021.2.3,Win32,60.52169703
,,,,,,,,,,,,,,,,,zatéjnál,zatéjnél,right,7.3947,0,76,76,34,1,143,zatéj,zatéj,nál,é,Ez itt egy zatéj.,Nincs is jobb egy jó...,zatéjnél,zatéjnál,dzsungel,NA,NA,PR2074,2003,nő,nem,2022-04-18_19h39.58.500,hesp_baseline,2021.2.3,Win32,60.52169703
,,,,,,,,,,,,,,,,,spibamlanak,spibamoznak,left,5.5396,0,77,77,142,1,143,spibamlik / spibamozik,"spibamlik, spibamozni",nek,NA,"János imád spibamozni, ezért sokat spibamlik.",Ők ritkán...,spibamlanak,spibamoznak,cselekszik,-lik,2,PR2074,2003,nő,nem,2022-04-18_19h39.58.500,hesp_baseline,2021.2.3,Win32,60.52169703
,,,,,,,,,,,,,,,,,vehékedünk,vehékszünk,left,3.2702,0,78,78,117,1,118,vehékszik / vehékedik,"vehékszik, vehékedni",ünk,NA,"János imád vehékedni, ezért sokat vehékszik.",Mi ritkán...,vehékszünk,vehékedünk,cselekszik,-szik,2,PR2074,2003,nő,nem,2022-04-18_19h39.58.500,hesp_baseline,2021.2.3,Win32,60.52169703
,,,,,,,,,,,,,,,,,braszencnél,braszencnál,left,7.5064,0,79,79,7,1,116,braszenc,braszenc,nál,e,Ez itt egy braszenc.,Nincs is jobb egy jó...,braszencnél,braszencnál,dzsungel,NA,NA,PR2074,2003,nő,nem,2022-04-18_19h39.58.500,hesp_baseline,2021.2.3,Win32,60.52169703
,,,,,,,,,,,,,,,,,prezlem,prezlek,right,2.8045,0,80,80,87,1,142,prezlik,prezlesz,NA,NA,Te bizony sokat prezlesz.,Én is sokat...,prezlek,prezlem,lakik,-lik,1,PR2074,2003,nő,nem,2022-04-18_19h39.58.500,hesp_baseline,2021.2.3,Win32,60.52169703
,,,,,,,,,,,,,,,,,düjzök,düjzöm,left,3.743,0,81,81,97,1,152,düjzik,düjzöl,NA,NA,Te bizony sokat düjzöl.,Én is sokat...,düjzök,düjzöm,lakik,-zik,1,PR2074,2003,nő,nem,2022-04-18_19h39.58.500,hesp_baseline,2021.2.3,Win32,60.52169703
,,,,,,,,,,,,,,,,,kátelnak,kátelnek,right,5.5167,0,82,82,12,1,121,kátel,kátel,nak,e,Ez itt egy kátel.,Elneveztem a kutyámat...,kátelnek,kátelnak,dzsungel,NA,NA,PR2074,2003,nő,nem,2022-04-18_19h39.58.500,hesp_baseline,2021.2.3,Win32,60.52169703
,,,,,,,,,,,,,,,,,diroztok,dirlotok,left,5.6214,0,83,83,148,1,149,dirlik / dirozik,"dirlik, dirozni",tek,NA,"János imád dirozni, ezért sokat dirlik.",Ti ritkán...,dirlotok,diroztok,cselekszik,-lik,1,PR2074,2003,nő,nem,2022-04-18_19h39.58.500,hesp_baseline,2021.2.3,Win32,60.52169703
,,,,,,,,,,,,,,,,,vodecnál,vodecnél,right,2.3763,0,84,84,30,1,139,vodec,vodec,nál,e,Ez itt egy vodec.,Nincs is jobb egy jó...,vodecnél,vodecnál,dzsungel,NA,NA,PR2074,2003,nő,nem,2022-04-18_19h39.58.500,hesp_baseline,2021.2.3,Win32,60.52169703
,,,,,,,,,,,,,,,,,sprökszöm,sprökszök,right,1.5639,0,85,85,88,1,143,sprökszik,sprökszöl,NA,NA,Te bizony sokat sprökszöl.,Én is sokat...,sprökszök,sprökszöm,lakik,-szik,1,PR2074,2003,nő,nem,2022-04-18_19h39.58.500,hesp_baseline,2021.2.3,Win32,60.52169703
,,,,,,,,,,,,,,,,,drivegeztek,drivegzetek,left,4.989,0,86,86,112,1,113,drivegzik / drivegezik,"drivegzik, drivegezni",tek,NA,"János imád drivegezni, ezért sokat drivegzik.",Ti ritkán...,drivegzetek,drivegeztek,cselekszik,-zik,2,PR2074,2003,nő,nem,2022-04-18_19h39.58.500,hesp_baseline,2021.2.3,Win32,60.52169703
,,,,,,,,,,,,,,,,,bivejlek,bivejlem,right,3.0883,0,87,87,73,1,128,bivejlik,bivejlesz,NA,NA,Te bizony sokat bivejlesz.,Én is sokat...,bivejlek,bivejlem,lakik,-lik,2,PR2074,2003,nő,nem,2022-04-18_19h39.58.500,hesp_baseline,2021.2.3,Win32,60.52169703
,,,,,,,,,,,,,,,,,mágamozunk,mágamlunk,left,5.515,0,88,88,140,1,141,mágamlik / mágamozik,"mágamlik, mágamozni",ünk,NA,"János imád mágamozni, ezért sokat mágamlik.",Mi ritkán...,mágamlunk,mágamozunk,cselekszik,-lik,2,PR2074,2003,nő,nem,2022-04-18_19h39.58.500,hesp_baseline,2021.2.3,Win32,60.52169703
,,,,,,,,,,,,,,,,,trádlom,trádlok,left,1.8385,0,89,89,105,1,160,trádlik,trádlasz,NA,NA,Te bizony sokat trádlasz.,Én is sokat...,trádlok,trádlom,lakik,-lik,1,PR2074,2003,nő,nem,2022-04-18_19h39.58.500,hesp_baseline,2021.2.3,Win32,60.52169703
,,,,,,,,,,,,,,,,,sztrozlom,sztrozlok,right,3.3657,0,90,90,104,1,159,sztrozlik,sztrozlasz,NA,NA,Te bizony sokat sztrozlasz.,Én is sokat...,sztrozlok,sztrozlom,lakik,-lik,1,PR2074,2003,nő,nem,2022-04-18_19h39.58.500,hesp_baseline,2021.2.3,Win32,60.52169703
,,,,,,,,,,,,,,,,,zsáderben,zsáderban,right,5.5594,0,91,91,25,1,134,zsáder,zsáder,ban,e,Ez itt egy zsáder.,Ott vagyunk a...,zsáderben,zsáderban,dzsungel,NA,NA,PR2074,2003,nő,nem,2022-04-18_19h39.58.500,hesp_baseline,2021.2.3,Win32,60.52169703
,,,,,,,,,,,,,,,,,briskédnél,briskédnál,left,2.7333,0,92,92,51,1,160,briskéd,briskéd,nál,é,Ez itt egy briskéd.,Nincs is jobb egy jó...,briskédnél,briskédnál,dzsungel,NA,NA,PR2074,2003,nő,nem,2022-04-18_19h39.58.500,hesp_baseline,2021.2.3,Win32,60.52169703
,,,,,,,,,,,,,,,,,triképban,triképben,right,2.8317,0,93,93,33,1,142,trikép,trikép,ban,é,Ez itt egy trikép.,Ott vagyunk a...,triképben,triképban,dzsungel,NA,NA,PR2074,2003,nő,nem,2022-04-18_19h39.58.500,hesp_baseline,2021.2.3,Win32,60.52169703
,,,,,,,,,,,,,,,,,dibezban,dibezben,right,3.2329,0,94,94,27,1,136,dibez,dibez,ban,e,Ez itt egy dibez.,Ott vagyunk a...,dibezben,dibezban,dzsungel,NA,NA,PR2074,2003,nő,nem,2022-04-18_19h39.58.500,hesp_baseline,2021.2.3,Win32,60.52169703
,,,,,,,,,,,,,,,,,huméknek,huméknak,left,5.7858,0,95,95,23,1,132,humék,humék,nak,é,Ez itt egy humék.,Elneveztem a kutyámat...,huméknek,huméknak,dzsungel,NA,NA,PR2074,2003,nő,nem,2022-04-18_19h39.58.500,hesp_baseline,2021.2.3,Win32,60.52169703
,,,,,,,,,,,,,,,,,brindeznek,brindeznak,left,2.2254,0,96,96,6,1,115,brindez,brindez,nak,e,Ez itt egy brindez.,Elneveztem a kutyámat...,brindeznek,brindeznak,dzsungel,NA,NA,PR2074,2003,nő,nem,2022-04-18_19h39.58.500,hesp_baseline,2021.2.3,Win32,60.52169703
,,,,,,,,,,,,,,,,,sűzlöm,sűzlök,left,2.2591,0,97,97,54,1,109,sűzlik,sűzlesz,NA,NA,Te bizony sokat sűzlesz.,Én is sokat...,sűzlök,sűzlöm,lakik,-lik,1,PR2074,2003,nő,nem,2022-04-18_19h39.58.500,hesp_baseline,2021.2.3,Win32,60.52169703
,,,,,,,,,,,,,,,,,trálakoznak,trálaklanak,left,4.4947,0,98,98,116,1,117,trálaklik / trálakozik,"trálaklik, trálakozni",nek,NA,"János imád trálakozni, ezért sokat trálaklik.",Ők ritkán...,trálaklanak,trálakoznak,cselekszik,-lik,2,PR2074,2003,nő,nem,2022-04-18_19h39.58.500,hesp_baseline,2021.2.3,Win32,60.52169703
,,,,,,,,,,,,,,,,,flátoztok,flátlotok,left,3.0573,0,99,99,132,1,133,flátlik / flátozik,"flátlik, flátozni",tek,NA,"János imád flátozni, ezért sokat flátlik.",Ti ritkán...,flátlotok,flátoztok,cselekszik,-lik,1,PR2074,2003,nő,nem,2022-04-18_19h39.58.500,hesp_baseline,2021.2.3,Win32,60.52169703
,,,,,,,,,,,,,,,,,trincsegben,trincsegban,left,2.6379,0,100,100,46,1,155,trincseg,trincseg,ban,e,Ez itt egy trincseg.,Ott vagyunk a...,trincsegben,trincsegban,dzsungel,NA,NA,PR2074,2003,nő,nem,2022-04-18_19h39.58.500,hesp_baseline,2021.2.3,Win32,60.52169703
,,,,,,,,,,,,,,,,,trálszunk,trálodunk,right,4.4551,0,101,101,130,1,131,trálszik / trálodik,"trálszik, trálodni",ünk,NA,"János imád trálodni, ezért sokat trálszik.",Mi ritkán...,trálszunk,trálodunk,cselekszik,-szik,1,PR2074,2003,nő,nem,2022-04-18_19h39.58.500,hesp_baseline,2021.2.3,Win32,60.52169703
,,,,,,,,,,,,,,,,,dalencnál,dalencnél,right,2.3382,0,102,102,31,1,140,dalenc,dalenc,nál,e,Ez itt egy dalenc.,Nincs is jobb egy jó...,dalencnél,dalencnál,dzsungel,NA,NA,PR2074,2003,nő,nem,2022-04-18_19h39.58.500,hesp_baseline,2021.2.3,Win32,60.52169703
,,,,,,,,,,,,,,,,,tínylom,tínylok,left,1.9645,0,103,103,58,1,113,tínylik,tínylasz,NA,NA,Te bizony sokat tínylasz.,Én is sokat...,tínylok,tínylom,lakik,-lik,1,PR2074,2003,nő,nem,2022-04-18_19h39.58.500,hesp_baseline,2021.2.3,Win32,60.52169703
,,,,,,,,,,,,,,,,,büglöm,büglök,left,3.0756,0,104,104,101,1,156,büglik,büglesz,NA,NA,Te bizony sokat büglesz.,Én is sokat...,büglök,büglöm,lakik,-lik,1,PR2074,2003,nő,nem,2022-04-18_19h39.58.500,hesp_baseline,2021.2.3,Win32,60.52169703
,,,,,,,,,,,,,,,,,tuboklok,tuboklom,right,8.6133,0,105,105,84,1,139,tuboklik,tuboklasz,NA,NA,Te bizony sokat tuboklasz.,Én is sokat...,tuboklok,tuboklom,lakik,-lik,2,PR2074,2003,nő,nem,2022-04-18_19h39.58.500,hesp_baseline,2021.2.3,Win32,60.52169703
,,,,,,,,,,,,,,,,,vileslünk,vilesezünk,right,10.3112,0,106,106,139,1,140,vileslik / vilesezik,"vileslik, vilesezni",ünk,NA,"János imád vilesezni, ezért sokat vileslik.",Mi ritkán...,vileslünk,vilesezünk,cselekszik,-lik,2,PR2074,2003,nő,nem,2022-04-18_19h39.58.500,hesp_baseline,2021.2.3,Win32,60.52169703
,,,,,,,,,,,,,,,,,trehégszem,trehégszek,left,3.6075,0,107,107,86,1,141,trehégszik,trehégszel,NA,NA,Te bizony sokat trehégszel.,Én is sokat...,trehégszek,trehégszem,lakik,-szik,2,PR2074,2003,nő,nem,2022-04-18_19h39.58.500,hesp_baseline,2021.2.3,Win32,60.52169703
,,,,,,,,,,,,,,,,,brüjlöm,brüjlök,right,2.5971,0,108,108,55,1,110,brüjlik,brüjlesz,NA,NA,Te bizony sokat brüjlesz.,Én is sokat...,brüjlök,brüjlöm,lakik,-lik,1,PR2074,2003,nő,nem,2022-04-18_19h39.58.500,hesp_baseline,2021.2.3,Win32,60.52169703
,,,,,,,,,,,,,,,,,pijélnál,pijélnél,right,3.1211,0,109,109,3,1,112,pijél,pijél,nál,é,Ez itt egy pijél.,Nincs is jobb egy jó...,pijélnél,pijélnál,dzsungel,NA,NA,PR2074,2003,nő,nem,2022-04-18_19h39.58.500,hesp_baseline,2021.2.3,Win32,60.52169703
,,,,,,,,,,,,,,,,,kláragodtok,kláragszotok,left,3.4218,0,110,110,123,1,124,kláragszik / kláragodik,"kláragszik, kláragodni",tek,NA,"János imád kláragodni, ezért sokat kláragszik.",Ti ritkán...,kláragszotok,kláragodtok,cselekszik,-szik,2,PR2074,2003,nő,nem,2022-04-18_19h39.58.500,hesp_baseline,2021.2.3,Win32,60.52169703
,,,,,,,,,,,,,,,,,brálamlanak,brálamoznak,right,28.6806,0,111,111,144,1,145,brálamlik / brálamozik,"brálamlik, brálamozni",nek,NA,"János imád brálamozni, ezért sokat brálamlik.",Ők ritkán...,brálamlanak,brálamoznak,cselekszik,-lik,2,PR2074,2003,nő,nem,2022-04-18_19h39.58.500,hesp_baseline,2021.2.3,Win32,60.52169703
,,,,,,,,,,,,,,,,,virzanak,viroznak,left,3.7781,0,112,112,125,1,126,virzik / virozik,"virzik, virozni",nek,NA,"János imád virozni, ezért sokat virzik.",Ők ritkán...,virzanak,viroznak,cselekszik,-zik,1,PR2074,2003,nő,nem,2022-04-18_19h39.58.500,hesp_baseline,2021.2.3,Win32,60.52169703
,,,,,,,,,,,,,,,,,triklotok,trikoztok,right,5.345,0,113,113,160,1,161,triklik / trikozik,"triklik, trikozni",tek,NA,"János imád trikozni, ezért sokat triklik.",Ti ritkán...,triklotok,trikoztok,cselekszik,-lik,1,PR2074,2003,nő,nem,2022-04-18_19h39.58.500,hesp_baseline,2021.2.3,Win32,60.52169703
,,,,,,,,,,,,,,,,,sztritoznak,sztritlanak,left,4.5225,0,114,114,154,1,155,sztritlik / sztritozik,"sztritlik, sztritozni",nek,NA,"János imád sztritozni, ezért sokat sztritlik.",Ők ritkán...,sztritlanak,sztritoznak,cselekszik,-lik,1,PR2074,2003,nő,nem,2022-04-18_19h39.58.500,hesp_baseline,2021.2.3,Win32,60.52169703
,,,,,,,,,,,,,,,,,filánylunk,filányozunk,right,2.8043,0,115,115,134,1,135,filánylik / filányozik,"filánylik, filányozni",ünk,NA,"János imád filányozni, ezért sokat filánylik.",Mi ritkán...,filánylunk,filányozunk,cselekszik,-lik,2,PR2074,2003,nő,nem,2022-04-18_19h39.58.500,hesp_baseline,2021.2.3,Win32,60.52169703
,,,,,,,,,,,,,,,,,klivaslok,klivaslom,left,8.038,0,116,116,62,1,117,klivaslik,klivaslasz,NA,NA,Te bizony sokat klivaslasz.,Én is sokat...,klivaslok,klivaslom,lakik,-lik,2,PR2074,2003,nő,nem,2022-04-18_19h39.58.500,hesp_baseline,2021.2.3,Win32,60.52169703
,,,,,,,,,,,,,,,,,spatelnek,spatelnak,right,14.5347,0,117,117,21,1,130,spatel,spatel,nak,e,Ez itt egy spatel.,Elneveztem a kutyámat...,spatelnek,spatelnak,dzsungel,NA,NA,PR2074,2003,nő,nem,2022-04-18_19h39.58.500,hesp_baseline,2021.2.3,Win32,60.52169703
,,,,,,,,,,,,,,,,,trilekszetek,trilekedtek,right,4.1114,0,118,118,157,1,158,trilekszik / trilekedik,"trilekszik, trilekedni",tek,NA,"János imád trilekedni, ezért sokat trilekszik.",Ti ritkán...,trilekszetek,trilekedtek,cselekszik,-szik,2,PR2074,2003,nő,nem,2022-04-18_19h39.58.500,hesp_baseline,2021.2.3,Win32,60.52169703
,,,,,,,,,,,,,,,,,lájoztok,lájzotok,left,4.5745,0,119,119,159,1,160,lájzik / lájozik,"lájzik, lájozni",tek,NA,"János imád lájozni, ezért sokat lájzik.",Ti ritkán...,lájzotok,lájoztok,cselekszik,-zik,1,PR2074,2003,nő,nem,2022-04-18_19h39.58.500,hesp_baseline,2021.2.3,Win32,60.52169703
,,,,,,,,,,,,,,,,,licegyban,licegyben,right,4.0772,0,120,120,15,1,124,licegy,licegy,ban,e,Ez itt egy licegy.,Ott vagyunk a...,licegyben,licegyban,dzsungel,NA,NA,PR2074,2003,nő,nem,2022-04-18_19h39.58.500,hesp_baseline,2021.2.3,Win32,60.52169703
,,,,,,,,,,,,,,,,,zinednak,zinednek,right,2.6108,0,121,121,22,1,131,zined,zined,nak,e,Ez itt egy zined.,Elneveztem a kutyámat...,zinednek,zinednak,dzsungel,NA,NA,PR2074,2003,nő,nem,2022-04-18_19h39.58.500,hesp_baseline,2021.2.3,Win32,60.52169703
,,,,,,,,,,,,,,,,,trájegben,trájegban,left,3.0544,0,122,122,14,1,123,trájeg,trájeg,ban,e,Ez itt egy trájeg.,Ott vagyunk a...,trájegben,trájegban,dzsungel,NA,NA,PR2074,2003,nő,nem,2022-04-18_19h39.58.500,hesp_baseline,2021.2.3,Win32,60.52169703
,,,,,,,,,,,,,,,,,prűrlök,prűrlöm,left,2.8295,0,123,123,75,1,130,prűrlik,prűrlesz,NA,NA,Te bizony sokat prűrlesz.,Én is sokat...,prűrlök,prűrlöm,lakik,-lik,1,PR2074,2003,nő,nem,2022-04-18_19h39.58.500,hesp_baseline,2021.2.3,Win32,60.52169703
,,,,,,,,,,,,,,,,,nyáslom,nyáslok,left,2.7435,0,124,124,100,1,155,nyáslik,nyáslasz,NA,NA,Te bizony sokat nyáslasz.,Én is sokat...,nyáslok,nyáslom,lakik,-lik,1,PR2074,2003,nő,nem,2022-04-18_19h39.58.500,hesp_baseline,2021.2.3,Win32,60.52169703
,,,,,,,,,,,,,,,,,táklok,táklom,left,2.2625,0,125,125,79,1,134,táklik,táklasz,NA,NA,Te bizony sokat táklasz.,Én is sokat...,táklok,táklom,lakik,-lik,1,PR2074,2003,nő,nem,2022-04-18_19h39.58.500,hesp_baseline,2021.2.3,Win32,60.52169703
,,,,,,,,,,,,,,,,,szihétnek,szihétnak,left,5.8377,0,126,126,4,1,113,szihét,szihét,nak,é,Ez itt egy szihét.,Elneveztem a kutyámat...,szihétnek,szihétnak,dzsungel,NA,NA,PR2074,2003,nő,nem,2022-04-18_19h39.58.500,hesp_baseline,2021.2.3,Win32,60.52169703
,,,,,,,,,,,,,,,,,hűgzök,hűgzöm,left,3.2068,0,127,127,107,1,162,hűgzik,hűgzöl,NA,NA,Te bizony sokat hűgzöl.,Én is sokat...,hűgzök,hűgzöm,lakik,-zik,1,PR2074,2003,nő,nem,2022-04-18_19h39.58.500,hesp_baseline,2021.2.3,Win32,60.52169703
,,,,,,,,,,,,,,,,,nyítemben,nyítemban,left,2.3313,0,128,128,41,1,150,nyítem,nyítem,ban,e,Ez itt egy nyítem.,Ott vagyunk a...,nyítemben,nyítemban,dzsungel,NA,NA,PR2074,2003,nő,nem,2022-04-18_19h39.58.500,hesp_baseline,2021.2.3,Win32,60.52169703
,,,,,,,,,,,,,,,,,briváglanak,brivágoznak,right,24.8076,0,129,129,138,1,139,briváglik / brivágozik,"briváglik, brivágozni",nek,NA,"János imád brivágozni, ezért sokat briváglik.",Ők ritkán...,briváglanak,brivágoznak,cselekszik,-lik,2,PR2074,2003,nő,nem,2022-04-18_19h39.58.500,hesp_baseline,2021.2.3,Win32,60.52169703
,,,,,,,,,,,,,,,,,frálapodtok,frálapszotok,left,2.9739,0,130,130,150,1,151,frálapszik / frálapodik,"frálapszik, frálapodni",tek,NA,"János imád frálapodni, ezért sokat frálapszik.",Ti ritkán...,frálapszotok,frálapodtok,cselekszik,-szik,2,PR2074,2003,nő,nem,2022-04-18_19h39.58.500,hesp_baseline,2021.2.3,Win32,60.52169703
,,,,,,,,,,,,,,,,,brárlanak,brároznak,right,4.1902,0,131,131,126,1,127,brárlik / brározik,"brárlik, brározni",nek,NA,"János imád brározni, ezért sokat brárlik.",Ők ritkán...,brárlanak,brároznak,cselekszik,-lik,1,PR2074,2003,nő,nem,2022-04-18_19h39.58.500,hesp_baseline,2021.2.3,Win32,60.52169703
,,,,,,,,,,,,,,,,,frivajlok,frivajlom,left,2.8894,0,132,132,78,1,133,frivajlik,frivajlasz,NA,NA,Te bizony sokat frivajlasz.,Én is sokat...,frivajlok,frivajlom,lakik,-lik,2,PR2074,2003,nő,nem,2022-04-18_19h39.58.500,hesp_baseline,2021.2.3,Win32,60.52169703
,,,,,,,,,,,,,,,,,zsádévnek,zsádévnak,right,2.6129,0,133,133,20,1,129,zsádév,zsádév,nak,é,Ez itt egy zsádév.,Elneveztem a kutyámat...,zsádévnek,zsádévnak,dzsungel,NA,NA,PR2074,2003,nő,nem,2022-04-18_19h39.58.500,hesp_baseline,2021.2.3,Win32,60.52169703
,,,,,,,,,,,,,,,,,drubódzok,drubódzom,left,3.3588,0,134,134,63,1,118,drubódzik,drubódzol,NA,NA,Te bizony sokat drubódzol.,Én is sokat...,drubódzok,drubódzom,lakik,-zik,2,PR2074,2003,nő,nem,2022-04-18_19h39.58.500,hesp_baseline,2021.2.3,Win32,60.52169703
,,,,,,,,,,,,,,,,,klosétnek,klosétnak,right,4.1228,0,135,135,45,1,154,klosét,klosét,nak,é,Ez itt egy klosét.,Elneveztem a kutyámat...,klosétnek,klosétnak,dzsungel,NA,NA,PR2074,2003,nő,nem,2022-04-18_19h39.58.500,hesp_baseline,2021.2.3,Win32,60.52169703
,,,,,,,,,,,,,,,,,murdesnál,murdesnél,left,4.1382,0,136,136,47,1,156,murdes,murdes,nál,e,Ez itt egy murdes.,Nincs is jobb egy jó...,murdesnél,murdesnál,dzsungel,NA,NA,PR2074,2003,nő,nem,2022-04-18_19h39.58.500,hesp_baseline,2021.2.3,Win32,60.52169703
,,,,,,,,,,,,,,,,,bidemban,bidemben,right,2.2588,0,137,137,2,1,111,bidem,bidem,ban,e,Ez itt egy bidem.,Ott vagyunk a...,bidemben,bidemban,dzsungel,NA,NA,PR2074,2003,nő,nem,2022-04-18_19h39.58.500,hesp_baseline,2021.2.3,Win32,60.52169703
,,,,,,,,,,,,,,,,,sztrijzok,sztrijzom,left,2.1743,0,138,138,68,1,123,sztrijzik,sztrijzol,NA,NA,Te bizony sokat sztrijzol.,Én is sokat...,sztrijzok,sztrijzom,lakik,-zik,1,PR2074,2003,nő,nem,2022-04-18_19h39.58.500,hesp_baseline,2021.2.3,Win32,60.52169703
,,,,,,,,,,,,,,,,,hágyétnak,hágyétnek,left,3.84,0,139,139,42,1,151,hágyét,hágyét,nak,é,Ez itt egy hágyét.,Elneveztem a kutyámat...,hágyétnek,hágyétnak,dzsungel,NA,NA,PR2074,2003,nő,nem,2022-04-18_19h39.58.500,hesp_baseline,2021.2.3,Win32,60.52169703
,,,,,,,,,,,,,,,,,prínylom,prínylok,left,25.7649,0,140,140,102,1,157,prínylik,prínylasz,NA,NA,Te bizony sokat prínylasz.,Én is sokat...,prínylok,prínylom,lakik,-lik,1,PR2074,2003,nő,nem,2022-04-18_19h39.58.500,hesp_baseline,2021.2.3,Win32,60.52169703
,,,,,,,,,,,,,,,,,gicéjnál,gicéjnél,right,2.6872,0,141,141,17,1,126,gicéj,gicéj,nál,é,Ez itt egy gicéj.,Nincs is jobb egy jó...,gicéjnél,gicéjnál,dzsungel,NA,NA,PR2074,2003,nő,nem,2022-04-18_19h39.58.500,hesp_baseline,2021.2.3,Win32,60.52169703
,,,,,,,,,,,,,,,,,bihánylok,bihánylom,left,2.6906,0,142,142,89,1,144,bihánylik,bihánylasz,NA,NA,Te bizony sokat bihánylasz.,Én is sokat...,bihánylok,bihánylom,lakik,-lik,2,PR2074,2003,nő,nem,2022-04-18_19h39.58.500,hesp_baseline,2021.2.3,Win32,60.52169703
,,,,,,,,,,,,,,,,,zödlöm,zödlök,right,12.1883,0,143,143,106,1,161,zödlik,zödlesz,NA,NA,Te bizony sokat zödlesz.,Én is sokat...,zödlök,zödlöm,lakik,-lik,1,PR2074,2003,nő,nem,2022-04-18_19h39.58.500,hesp_baseline,2021.2.3,Win32,60.52169703
,,,,,,,,,,,,,,,,,pragánylotok,pragányoztok,right,32.428,0,144,144,133,1,134,pragánylik / pragányozik,"pragánylik, pragányozni",tek,NA,"János imád pragányozni, ezért sokat pragánylik.",Ti ritkán...,pragánylotok,pragányoztok,cselekszik,-lik,2,PR2074,2003,nő,nem,2022-04-18_19h39.58.500,hesp_baseline,2021.2.3,Win32,60.52169703
,,,,,,,,,,,,,,,,,spanélnál,spanélnél,left,3.3896,0,145,145,24,1,133,spanél,spanél,nál,é,Ez itt egy spanél.,Nincs is jobb egy jó...,spanélnél,spanélnál,dzsungel,NA,NA,PR2074,2003,nő,nem,2022-04-18_19h39.58.500,hesp_baseline,2021.2.3,Win32,60.52169703
,,,,,,,,,,,,,,,,,vubletnél,vubletnál,left,3.2271,0,146,146,26,1,135,vublet,vublet,nál,e,Ez itt egy vublet.,Nincs is jobb egy jó...,vubletnél,vubletnál,dzsungel,NA,NA,PR2074,2003,nő,nem,2022-04-18_19h39.58.500,hesp_baseline,2021.2.3,Win32,60.52169703
,,,,,,,,,,,,,,,,,brotesben,brotesban,right,4.3767,0,147,147,53,1,162,brotes,brotes,ban,e,Ez itt egy brotes.,Ott vagyunk a...,brotesben,brotesban,dzsungel,NA,NA,PR2074,2003,nő,nem,2022-04-18_19h39.58.500,hesp_baseline,2021.2.3,Win32,60.52169703
,,,,,,,,,,,,,,,,,danétnél,danétnál,right,3.4876,0,148,148,38,1,147,danét,danét,nál,é,Ez itt egy danét.,Nincs is jobb egy jó...,danétnél,danétnál,dzsungel,NA,NA,PR2074,2003,nő,nem,2022-04-18_19h39.58.500,hesp_baseline,2021.2.3,Win32,60.52169703
,,,,,,,,,,,,,,,,,vurnelnek,vurnelnak,left,4.0235,0,149,149,50,1,159,vurnel,vurnel,nak,e,Ez itt egy vurnel.,Elneveztem a kutyámat...,vurnelnek,vurnelnak,dzsungel,NA,NA,PR2074,2003,nő,nem,2022-04-18_19h39.58.500,hesp_baseline,2021.2.3,Win32,60.52169703
,,,,,,,,,,,,,,,,,spülöklök,spülöklöm,left,3.8128,0,150,150,56,1,111,spülöklik,spülöklesz,NA,NA,Te bizony sokat spülöklesz.,Én is sokat...,spülöklök,spülöklöm,lakik,-lik,2,PR2074,2003,nő,nem,2022-04-18_19h39.58.500,hesp_baseline,2021.2.3,Win32,60.52169703
,,,,,,,,,,,,,,,,,surnegynél,surnegynál,left,3.5048,0,151,151,8,1,117,surnegy,surnegy,nál,e,Ez itt egy surnegy.,Nincs is jobb egy jó...,surnegynél,surnegynál,dzsungel,NA,NA,PR2074,2003,nő,nem,2022-04-18_19h39.58.500,hesp_baseline,2021.2.3,Win32,60.52169703
,,,,,,,,,,,,,,,,,tűgöztök,tűgzötök,left,4.74,0,152,152,143,1,144,tűgzik / tűgözik,"tűgzik, tűgözni",tek,NA,"János imád tűgözni, ezért sokat tűgzik.",Ti ritkán...,tűgzötök,tűgöztök,cselekszik,-zik,1,PR2074,2003,nő,nem,2022-04-18_19h39.58.500,hesp_baseline,2021.2.3,Win32,60.52169703
,,,,,,,,,,,,,,,,,spüszlök,spüszlöm,left,1.6883,0,153,153,96,1,151,spüszlik,spüszlesz,NA,NA,Te bizony sokat spüszlesz.,Én is sokat...,spüszlök,spüszlöm,lakik,-lik,1,PR2074,2003,nő,nem,2022-04-18_19h39.58.500,hesp_baseline,2021.2.3,Win32,60.52169703
,,,,,,,,,,,,,,,,,fliraklom,fliraklok,left,1.4263,0,154,154,98,1,153,fliraklik,fliraklasz,NA,NA,Te bizony sokat fliraklasz.,Én is sokat...,fliraklok,fliraklom,lakik,-lik,2,PR2074,2003,nő,nem,2022-04-18_19h39.58.500,hesp_baseline,2021.2.3,Win32,60.52169703
,,,,,,,,,,,,,,,,,plágadzom,plágadzok,right,3.965,0,155,155,74,1,129,plágadzik,plágadzol,NA,NA,Te bizony sokat plágadzol.,Én is sokat...,plágadzok,plágadzom,lakik,-zik,2,PR2074,2003,nő,nem,2022-04-18_19h39.58.500,hesp_baseline,2021.2.3,Win32,60.52169703
,,,,,,,,,,,,,,,,,sztruglom,sztruglok,right,2.0786,0,156,156,67,1,122,sztruglik,sztruglasz,NA,NA,Te bizony sokat sztruglasz.,Én is sokat...,sztruglok,sztruglom,lakik,-lik,1,PR2074,2003,nő,nem,2022-04-18_19h39.58.500,hesp_baseline,2021.2.3,Win32,60.52169703
,,,,,,,,,,,,,,,,,piragszok,piragszom,left,2.3754,0,157,157,83,1,138,piragszik,piragszol,NA,NA,Te bizony sokat piragszol.,Én is sokat...,piragszok,piragszom,lakik,-szik,2,PR2074,2003,nő,nem,2022-04-18_19h39.58.500,hesp_baseline,2021.2.3,Win32,60.52169703
,,,,,,,,,,,,,,,,,dorzéjnek,dorzéjnak,right,4.9455,0,158,158,29,1,138,dorzéj,dorzéj,nak,é,Ez itt egy dorzéj.,Elneveztem a kutyámat...,dorzéjnek,dorzéjnak,dzsungel,NA,NA,PR2074,2003,nő,nem,2022-04-18_19h39.58.500,hesp_baseline,2021.2.3,Win32,60.52169703
,,,,,,,,,,,,,,,,,vűjlöm,vűjlök,right,2.4933,0,159,159,94,1,149,vűjlik,vűjlesz,NA,NA,Te bizony sokat vűjlesz.,Én is sokat...,vűjlök,vűjlöm,lakik,-lik,1,PR2074,2003,nő,nem,2022-04-18_19h39.58.500,hesp_baseline,2021.2.3,Win32,60.52169703
,,,,,,,,,,,,,,,,,dralágozunk,dralágzunk,left,3.7095,0,160,160,156,1,157,dralágzik / dralágozik,"dralágzik, dralágozni",ünk,NA,"János imád dralágozni, ezért sokat dralágzik.",Mi ritkán...,dralágzunk,dralágozunk,cselekszik,-zik,2,PR2074,2003,nő,nem,2022-04-18_19h39.58.500,hesp_baseline,2021.2.3,Win32,60.52169703
,,,,,,,,,,,,,,,,,trivakodunk,trivakszunk,left,4.3597,0,161,161,118,1,119,trivakszik / trivakodik,"trivakszik, trivakodni",ünk,NA,"János imád trivakodni, ezért sokat trivakszik.",Mi ritkán...,trivakszunk,trivakodunk,cselekszik,-szik,2,PR2074,2003,nő,nem,2022-04-18_19h39.58.500,hesp_baseline,2021.2.3,Win32,60.52169703
