my_list,key.keys,key.rt,key_2.keys,key_2.rt,keyboard_input_2.keys,keyboard_input_2.rt,key_3.keys,key_3.rt,keyboard_input_3.keys,keyboard_input_3.rt,key_4.keys,key_4.rt,keyboard_input_4.keys,keyboard_input_4.rt,key_5.keys,key_5.rt,my_button1,my_button2,keyboard_input.keys,keyboard_input.rt,withinBlock.thisRepN,withinBlock.thisTrialN,withinBlock.thisN,withinBlock.thisIndex,withinBlock.ran,rowname,word,prompt,suffix,vowel,carrier_sentence,target_sentence,target1,target2,category,derivational,nsyl,Azonosító,Melyik évben születtél?,Mi a nemed?,Tanultál nyelvészetet?,date,expName,psychopyVersion,OS,frameRate
list3.csv,space,13.1082,space,6.5407,right,9.7864,space,14.1665,left,5.3554,space,7.5741,left,6.091,space,2.5661,spülöklöm,spülöklök,left,8.0691,0,0,0,56,1,111,spülöklik,spülöklesz,NA,NA,Te bizony sokat spülöklesz.,Én is sokat...,spülöklök,spülöklöm,lakik,-lik,2,PR2065,1979,nő,nem,2022-04-15_21h37.40.216,hesp_baseline,2021.2.3,Win32,60.0276127
,,,,,,,,,,,,,,,,,sztruglom,sztruglok,left,5.4604,0,1,1,67,1,122,sztruglik,sztruglasz,NA,NA,Te bizony sokat sztruglasz.,Én is sokat...,sztruglok,sztruglom,lakik,-lik,1,PR2065,1979,nő,nem,2022-04-15_21h37.40.216,hesp_baseline,2021.2.3,Win32,60.0276127
,,,,,,,,,,,,,,,,,sztrozlok,sztrozlom,right,15.6443,0,2,2,104,1,159,sztrozlik,sztrozlasz,NA,NA,Te bizony sokat sztrozlasz.,Én is sokat...,sztrozlok,sztrozlom,lakik,-lik,1,PR2065,1979,nő,nem,2022-04-15_21h37.40.216,hesp_baseline,2021.2.3,Win32,60.0276127
,,,,,,,,,,,,,,,,,dralágzunk,dralágozunk,right,9.0138,0,3,3,156,1,157,dralágzik / dralágozik,"dralágzik, dralágozni",ünk,NA,"János imád dralágozni, ezért sokat dralágzik.",Mi ritkán...,dralágzunk,dralágozunk,cselekszik,-zik,2,PR2065,1979,nő,nem,2022-04-15_21h37.40.216,hesp_baseline,2021.2.3,Win32,60.0276127
,,,,,,,,,,,,,,,,,spröbzök,spröbzöm,right,5.3038,0,4,4,90,1,145,spröbzik,spröbzöl,NA,NA,Te bizony sokat spröbzöl.,Én is sokat...,spröbzök,spröbzöm,lakik,-zik,1,PR2065,1979,nő,nem,2022-04-15_21h37.40.216,hesp_baseline,2021.2.3,Win32,60.0276127
,,,,,,,,,,,,,,,,,filányozunk,filánylunk,right,8.436,0,5,5,134,1,135,filánylik / filányozik,"filánylik, filányozni",ünk,NA,"János imád filányozni, ezért sokat filánylik.",Mi ritkán...,filánylunk,filányozunk,cselekszik,-lik,2,PR2065,1979,nő,nem,2022-04-15_21h37.40.216,hesp_baseline,2021.2.3,Win32,60.0276127
,,,,,,,,,,,,,,,,,pijélnél,pijélnál,left,5.2128,0,6,6,3,1,112,pijél,pijél,nál,é,Ez itt egy pijél.,Nincs is jobb egy jó...,pijélnél,pijélnál,dzsungel,NA,NA,PR2065,1979,nő,nem,2022-04-15_21h37.40.216,hesp_baseline,2021.2.3,Win32,60.0276127
,,,,,,,,,,,,,,,,,drilarozunk,drilarzunk,left,5.4073,0,7,7,131,1,132,drilarzik / drilarozik,"drilarzik, drilarozni",ünk,NA,"János imád drilarozni, ezért sokat drilarzik.",Mi ritkán...,drilarzunk,drilarozunk,cselekszik,-zik,2,PR2065,1979,nő,nem,2022-04-15_21h37.40.216,hesp_baseline,2021.2.3,Win32,60.0276127
,,,,,,,,,,,,,,,,,gyibakszom,gyibakszok,left,4.0118,0,8,8,57,1,112,gyibakszik,gyibakszol,NA,NA,Te bizony sokat gyibakszol.,Én is sokat...,gyibakszok,gyibakszom,lakik,-szik,2,PR2065,1979,nő,nem,2022-04-15_21h37.40.216,hesp_baseline,2021.2.3,Win32,60.0276127
,,,,,,,,,,,,,,,,,ronszekban,ronszekben,right,4.7147,0,9,9,18,1,127,ronszek,ronszek,ban,e,Ez itt egy ronszek.,Ott vagyunk a...,ronszekben,ronszekban,dzsungel,NA,NA,PR2065,1979,nő,nem,2022-04-15_21h37.40.216,hesp_baseline,2021.2.3,Win32,60.0276127
,,,,,,,,,,,,,,,,,trűnylenek,trűnyöznek,right,15.2344,0,10,10,119,1,120,trűnylik / trűnyözik,"trűnylik, trűnyözni",nek,NA,"János imád trűnyözni, ezért sokat trűnylik.",Ők ritkán...,trűnylenek,trűnyöznek,cselekszik,-lik,1,PR2065,1979,nő,nem,2022-04-15_21h37.40.216,hesp_baseline,2021.2.3,Win32,60.0276127
,,,,,,,,,,,,,,,,,trilekedtek,trilekszetek,left,11.3951,0,11,11,157,1,158,trilekszik / trilekedik,"trilekszik, trilekedni",tek,NA,"János imád trilekedni, ezért sokat trilekszik.",Ti ritkán...,trilekszetek,trilekedtek,cselekszik,-szik,2,PR2065,1979,nő,nem,2022-04-15_21h37.40.216,hesp_baseline,2021.2.3,Win32,60.0276127
,,,,,,,,,,,,,,,,,düjzöm,düjzök,left,4.1433,0,12,12,97,1,152,düjzik,düjzöl,NA,NA,Te bizony sokat düjzöl.,Én is sokat...,düjzök,düjzöm,lakik,-zik,1,PR2065,1979,nő,nem,2022-04-15_21h37.40.216,hesp_baseline,2021.2.3,Win32,60.0276127
,,,,,,,,,,,,,,,,,sprökszöm,sprökszök,left,2.2909,0,13,13,88,1,143,sprökszik,sprökszöl,NA,NA,Te bizony sokat sprökszöl.,Én is sokat...,sprökszök,sprökszöm,lakik,-szik,1,PR2065,1979,nő,nem,2022-04-15_21h37.40.216,hesp_baseline,2021.2.3,Win32,60.0276127
,,,,,,,,,,,,,,,,,plágadzok,plágadzom,right,10.1418,0,14,14,74,1,129,plágadzik,plágadzol,NA,NA,Te bizony sokat plágadzol.,Én is sokat...,plágadzok,plágadzom,lakik,-zik,2,PR2065,1979,nő,nem,2022-04-15_21h37.40.216,hesp_baseline,2021.2.3,Win32,60.0276127
,,,,,,,,,,,,,,,,,pehégszetek,pehégedtek,left,9.2635,0,15,15,151,1,152,pehégszik / pehégedik,"pehégszik, pehégedni",tek,NA,"János imád pehégedni, ezért sokat pehégszik.",Ti ritkán...,pehégszetek,pehégedtek,cselekszik,-szik,2,PR2065,1979,nő,nem,2022-04-15_21h37.40.216,hesp_baseline,2021.2.3,Win32,60.0276127
,,,,,,,,,,,,,,,,,brüjlök,brüjlöm,left,14.8847,0,16,16,55,1,110,brüjlik,brüjlesz,NA,NA,Te bizony sokat brüjlesz.,Én is sokat...,brüjlök,brüjlöm,lakik,-lik,1,PR2065,1979,nő,nem,2022-04-15_21h37.40.216,hesp_baseline,2021.2.3,Win32,60.0276127
,,,,,,,,,,,,,,,,,frilegszem,frilegszek,left,10.4761,0,17,17,72,1,127,frilegszik,frilegszel,NA,NA,Te bizony sokat frilegszel.,Én is sokat...,frilegszek,frilegszem,lakik,-szik,2,PR2065,1979,nő,nem,2022-04-15_21h37.40.216,hesp_baseline,2021.2.3,Win32,60.0276127
,,,,,,,,,,,,,,,,,viroznak,virzanak,right,14.2299,0,18,18,125,1,126,virzik / virozik,"virzik, virozni",nek,NA,"János imád virozni, ezért sokat virzik.",Ők ritkán...,virzanak,viroznak,cselekszik,-zik,1,PR2065,1979,nő,nem,2022-04-15_21h37.40.216,hesp_baseline,2021.2.3,Win32,60.0276127
,,,,,,,,,,,,,,,,,tuboklok,tuboklom,right,5.5205,0,19,19,84,1,139,tuboklik,tuboklasz,NA,NA,Te bizony sokat tuboklasz.,Én is sokat...,tuboklok,tuboklom,lakik,-lik,2,PR2065,1979,nő,nem,2022-04-15_21h37.40.216,hesp_baseline,2021.2.3,Win32,60.0276127
,,,,,,,,,,,,,,,,,klosétnak,klosétnek,left,17.9366,0,20,20,45,1,154,klosét,klosét,nak,é,Ez itt egy klosét.,Elneveztem a kutyámat...,klosétnek,klosétnak,dzsungel,NA,NA,PR2065,1979,nő,nem,2022-04-15_21h37.40.216,hesp_baseline,2021.2.3,Win32,60.0276127
,,,,,,,,,,,,,,,,,brürzenek,brüröznek,left,10.6966,0,21,21,110,1,111,brürzik / brürözik,"brürzik, brürözni",nek,NA,"János imád brürözni, ezért sokat brürzik.",Ők ritkán...,brürzenek,brüröznek,cselekszik,-zik,1,PR2065,1979,nő,nem,2022-04-15_21h37.40.216,hesp_baseline,2021.2.3,Win32,60.0276127
,,,,,,,,,,,,,,,,,siladzom,siladzok,left,2.8657,0,22,22,93,1,148,siladzik,siladzol,NA,NA,Te bizony sokat siladzol.,Én is sokat...,siladzok,siladzom,lakik,-zik,2,PR2065,1979,nő,nem,2022-04-15_21h37.40.216,hesp_baseline,2021.2.3,Win32,60.0276127
,,,,,,,,,,,,,,,,,dorzéjnek,dorzéjnak,left,3.7332,0,23,23,29,1,138,dorzéj,dorzéj,nak,é,Ez itt egy dorzéj.,Elneveztem a kutyámat...,dorzéjnek,dorzéjnak,dzsungel,NA,NA,PR2065,1979,nő,nem,2022-04-15_21h37.40.216,hesp_baseline,2021.2.3,Win32,60.0276127
,,,,,,,,,,,,,,,,,pazévnél,pazévnál,right,4.1085,0,24,24,36,1,145,pazév,pazév,nál,é,Ez itt egy pazév.,Nincs is jobb egy jó...,pazévnél,pazévnál,dzsungel,NA,NA,PR2065,1979,nő,nem,2022-04-15_21h37.40.216,hesp_baseline,2021.2.3,Win32,60.0276127
,,,,,,,,,,,,,,,,,fliraklok,fliraklom,right,6.3842,0,25,25,98,1,153,fliraklik,fliraklasz,NA,NA,Te bizony sokat fliraklasz.,Én is sokat...,fliraklok,fliraklom,lakik,-lik,2,PR2065,1979,nő,nem,2022-04-15_21h37.40.216,hesp_baseline,2021.2.3,Win32,60.0276127
,,,,,,,,,,,,,,,,,drivegzetek,drivegeztek,left,7.8981,0,26,26,112,1,113,drivegzik / drivegezik,"drivegzik, drivegezni",tek,NA,"János imád drivegezni, ezért sokat drivegzik.",Ti ritkán...,drivegzetek,drivegeztek,cselekszik,-zik,2,PR2065,1979,nő,nem,2022-04-15_21h37.40.216,hesp_baseline,2021.2.3,Win32,60.0276127
,,,,,,,,,,,,,,,,,briskédnél,briskédnál,left,3.9671,0,27,27,51,1,160,briskéd,briskéd,nál,é,Ez itt egy briskéd.,Nincs is jobb egy jó...,briskédnél,briskédnál,dzsungel,NA,NA,PR2065,1979,nő,nem,2022-04-15_21h37.40.216,hesp_baseline,2021.2.3,Win32,60.0276127
,,,,,,,,,,,,,,,,,sztredeztek,sztredletek,right,5.8659,0,28,28,145,1,146,sztredlik / sztredezik,"sztredlik, sztredezni",tek,NA,"János imád sztredezni, ezért sokat sztredlik.",Ti ritkán...,sztredletek,sztredeztek,cselekszik,-lik,1,PR2065,1979,nő,nem,2022-04-15_21h37.40.216,hesp_baseline,2021.2.3,Win32,60.0276127
,,,,,,,,,,,,,,,,,trivakodunk,trivakszunk,left,11.6003,0,29,29,118,1,119,trivakszik / trivakodik,"trivakszik, trivakodni",ünk,NA,"János imád trivakodni, ezért sokat trivakszik.",Mi ritkán...,trivakszunk,trivakodunk,cselekszik,-szik,2,PR2065,1979,nő,nem,2022-04-15_21h37.40.216,hesp_baseline,2021.2.3,Win32,60.0276127
,,,,,,,,,,,,,,,,,böjzöm,böjzök,left,3.6826,0,30,30,80,1,135,böjzik,böjzöl,NA,NA,Te bizony sokat böjzöl.,Én is sokat...,böjzök,böjzöm,lakik,-zik,1,PR2065,1979,nő,nem,2022-04-15_21h37.40.216,hesp_baseline,2021.2.3,Win32,60.0276127
,,,,,,,,,,,,,,,,,sztrijzom,sztrijzok,left,4.6246,0,31,31,68,1,123,sztrijzik,sztrijzol,NA,NA,Te bizony sokat sztrijzol.,Én is sokat...,sztrijzok,sztrijzom,lakik,-zik,1,PR2065,1979,nő,nem,2022-04-15_21h37.40.216,hesp_baseline,2021.2.3,Win32,60.0276127
,,,,,,,,,,,,,,,,,zatéjnél,zatéjnál,right,3.3661,0,32,32,34,1,143,zatéj,zatéj,nál,é,Ez itt egy zatéj.,Nincs is jobb egy jó...,zatéjnél,zatéjnál,dzsungel,NA,NA,PR2065,1979,nő,nem,2022-04-15_21h37.40.216,hesp_baseline,2021.2.3,Win32,60.0276127
,,,,,,,,,,,,,,,,,spibamlanak,spibamoznak,left,8.2131,0,33,33,142,1,143,spibamlik / spibamozik,"spibamlik, spibamozni",nek,NA,"János imád spibamozni, ezért sokat spibamlik.",Ők ritkán...,spibamlanak,spibamoznak,cselekszik,-lik,2,PR2065,1979,nő,nem,2022-04-15_21h37.40.216,hesp_baseline,2021.2.3,Win32,60.0276127
,,,,,,,,,,,,,,,,,finceknél,finceknál,left,3.669,0,34,34,9,1,118,fincek,fincek,nál,e,Ez itt egy fincek.,Nincs is jobb egy jó...,finceknél,finceknál,dzsungel,NA,NA,PR2065,1979,nő,nem,2022-04-15_21h37.40.216,hesp_baseline,2021.2.3,Win32,60.0276127
,,,,,,,,,,,,,,,,,brukésznál,brukésznél,right,4.5701,0,35,35,10,1,119,brukész,brukész,nál,é,Ez itt egy brukész.,Nincs is jobb egy jó...,brukésznél,brukésznál,dzsungel,NA,NA,PR2065,1979,nő,nem,2022-04-15_21h37.40.216,hesp_baseline,2021.2.3,Win32,60.0276127
,,,,,,,,,,,,,,,,,lájzotok,lájoztok,right,12.9626,0,36,36,159,1,160,lájzik / lájozik,"lájzik, lájozni",tek,NA,"János imád lájozni, ezért sokat lájzik.",Ti ritkán...,lájzotok,lájoztok,cselekszik,-zik,1,PR2065,1979,nő,nem,2022-04-15_21h37.40.216,hesp_baseline,2021.2.3,Win32,60.0276127
,,,,,,,,,,,,,,,,,ribegedtek,ribegszetek,left,5.6826,0,37,37,141,1,142,ribegszik / ribegedik,"ribegszik, ribegedni",tek,NA,"János imád ribegedni, ezért sokat ribegszik.",Ti ritkán...,ribegszetek,ribegedtek,cselekszik,-szik,2,PR2065,1979,nő,nem,2022-04-15_21h37.40.216,hesp_baseline,2021.2.3,Win32,60.0276127
,,,,,,,,,,,,,,,,,spanélnél,spanélnál,right,4.2289,0,38,38,24,1,133,spanél,spanél,nál,é,Ez itt egy spanél.,Nincs is jobb egy jó...,spanélnél,spanélnál,dzsungel,NA,NA,PR2065,1979,nő,nem,2022-04-15_21h37.40.216,hesp_baseline,2021.2.3,Win32,60.0276127
,,,,,,,,,,,,,,,,,trincsegben,trincsegban,left,6.5401,0,39,39,46,1,155,trincseg,trincseg,ban,e,Ez itt egy trincseg.,Ott vagyunk a...,trincsegben,trincsegban,dzsungel,NA,NA,PR2065,1979,nő,nem,2022-04-15_21h37.40.216,hesp_baseline,2021.2.3,Win32,60.0276127
,,,,,,,,,,,,,,,,,piragszom,piragszok,left,4.2617,0,40,40,83,1,138,piragszik,piragszol,NA,NA,Te bizony sokat piragszol.,Én is sokat...,piragszok,piragszom,lakik,-szik,2,PR2065,1979,nő,nem,2022-04-15_21h37.40.216,hesp_baseline,2021.2.3,Win32,60.0276127
,,,,,,,,,,,,,,,,,trájegban,trájegben,right,4.7979,0,41,41,14,1,123,trájeg,trájeg,ban,e,Ez itt egy trájeg.,Ott vagyunk a...,trájegben,trájegban,dzsungel,NA,NA,PR2065,1979,nő,nem,2022-04-15_21h37.40.216,hesp_baseline,2021.2.3,Win32,60.0276127
,,,,,,,,,,,,,,,,,tibarzanak,tibaroznak,left,4.8611,0,42,42,155,1,156,tibarzik / tibarozik,"tibarzik, tibarozni",nek,NA,"János imád tibarozni, ezért sokat tibarzik.",Ők ritkán...,tibarzanak,tibaroznak,cselekszik,-zik,2,PR2065,1979,nő,nem,2022-04-15_21h37.40.216,hesp_baseline,2021.2.3,Win32,60.0276127
,,,,,,,,,,,,,,,,,nyítemban,nyítemben,right,4.7911,0,43,43,41,1,150,nyítem,nyítem,ban,e,Ez itt egy nyítem.,Ott vagyunk a...,nyítemben,nyítemban,dzsungel,NA,NA,PR2065,1979,nő,nem,2022-04-15_21h37.40.216,hesp_baseline,2021.2.3,Win32,60.0276127
,,,,,,,,,,,,,,,,,bupézban,bupézben,left,27.0866,0,44,44,48,1,157,bupéz,bupéz,ban,é,Ez itt egy bupéz.,Ott vagyunk a...,bupézben,bupézban,dzsungel,NA,NA,PR2065,1979,nő,nem,2022-04-15_21h37.40.216,hesp_baseline,2021.2.3,Win32,60.0276127
,,,,,,,,,,,,,,,,,vihepszek,vihepszem,right,6.2636,0,45,45,59,1,114,vihepszik,vihepszel,NA,NA,Te bizony sokat vihepszel.,Én is sokat...,vihepszek,vihepszem,lakik,-szik,2,PR2065,1979,nő,nem,2022-04-15_21h37.40.216,hesp_baseline,2021.2.3,Win32,60.0276127
,,,,,,,,,,,,,,,,,pibegzenek,pibegeznek,right,10.7882,0,46,46,127,1,128,pibegzik / pibegezik,"pibegzik, pibegezni",nek,NA,"János imád pibegezni, ezért sokat pibegzik.",Ők ritkán...,pibegzenek,pibegeznek,cselekszik,-zik,2,PR2065,1979,nő,nem,2022-04-15_21h37.40.216,hesp_baseline,2021.2.3,Win32,60.0276127
,,,,,,,,,,,,,,,,,klivaslok,klivaslom,right,6.8962,0,47,47,62,1,117,klivaslik,klivaslasz,NA,NA,Te bizony sokat klivaslasz.,Én is sokat...,klivaslok,klivaslom,lakik,-lik,2,PR2065,1979,nő,nem,2022-04-15_21h37.40.216,hesp_baseline,2021.2.3,Win32,60.0276127
,,,,,,,,,,,,,,,,,lűklenek,lűköznek,left,5.4582,0,48,48,136,1,137,lűklik / lűközik,"lűklik, lűközni",nek,NA,"János imád lűközni, ezért sokat lűklik.",Ők ritkán...,lűklenek,lűköznek,cselekszik,-lik,1,PR2065,1979,nő,nem,2022-04-15_21h37.40.216,hesp_baseline,2021.2.3,Win32,60.0276127
,,,,,,,,,,,,,,,,,brálamlanak,brálamoznak,left,7.1775,0,49,49,144,1,145,brálamlik / brálamozik,"brálamlik, brálamozni",nek,NA,"János imád brálamozni, ezért sokat brálamlik.",Ők ritkán...,brálamlanak,brálamoznak,cselekszik,-lik,2,PR2065,1979,nő,nem,2022-04-15_21h37.40.216,hesp_baseline,2021.2.3,Win32,60.0276127
,,,,,,,,,,,,,,,,,klibamlom,klibamlok,left,2.9919,0,50,50,92,1,147,klibamlik,klibamlasz,NA,NA,Te bizony sokat klibamlasz.,Én is sokat...,klibamlok,klibamlom,lakik,-lik,2,PR2065,1979,nő,nem,2022-04-15_21h37.40.216,hesp_baseline,2021.2.3,Win32,60.0276127
,,,,,,,,,,,,,,,,,klárzom,klárzok,left,2.3941,0,51,51,85,1,140,klárzik,klárzol,NA,NA,Te bizony sokat klárzol.,Én is sokat...,klárzok,klárzom,lakik,-zik,1,PR2065,1979,nő,nem,2022-04-15_21h37.40.216,hesp_baseline,2021.2.3,Win32,60.0276127
,,,,,,,,,,,,,,,,,szutendben,szutendban,left,4.658,0,52,52,11,1,120,szutend,szutend,ban,e,Ez itt egy szutend.,Ott vagyunk a...,szutendben,szutendban,dzsungel,NA,NA,PR2065,1979,nő,nem,2022-04-15_21h37.40.216,hesp_baseline,2021.2.3,Win32,60.0276127
,,,,,,,,,,,,,,,,,licegyban,licegyben,right,3.5787,0,53,53,15,1,124,licegy,licegy,ban,e,Ez itt egy licegy.,Ott vagyunk a...,licegyben,licegyban,dzsungel,NA,NA,PR2065,1979,nő,nem,2022-04-15_21h37.40.216,hesp_baseline,2021.2.3,Win32,60.0276127
,,,,,,,,,,,,,,,,,trapszegynél,trapszegynál,left,5.7087,0,54,54,39,1,148,trapszegy,trapszegy,nál,e,Ez itt egy trapszegy.,Nincs is jobb egy jó...,trapszegynél,trapszegynál,dzsungel,NA,NA,PR2065,1979,nő,nem,2022-04-15_21h37.40.216,hesp_baseline,2021.2.3,Win32,60.0276127
,,,,,,,,,,,,,,,,,fizendban,fizendben,right,3.0931,0,55,55,49,1,158,fizend,fizend,ban,e,Ez itt egy fizend.,Ott vagyunk a...,fizendben,fizendban,dzsungel,NA,NA,PR2065,1979,nő,nem,2022-04-15_21h37.40.216,hesp_baseline,2021.2.3,Win32,60.0276127
,,,,,,,,,,,,,,,,,bratároznak,bratárzanak,left,5.5456,0,56,56,108,1,109,bratárzik / bratározik,"bratárzik, bratározni",nek,NA,"János imád bratározni, ezért sokat bratárzik.",Ők ritkán...,bratárzanak,bratároznak,cselekszik,-zik,2,PR2065,1979,nő,nem,2022-04-15_21h37.40.216,hesp_baseline,2021.2.3,Win32,60.0276127
,,,,,,,,,,,,,,,,,vobzotok,voboztok,right,3.4428,0,57,57,158,1,159,vobzik / vobozik,"vobzik, vobozni",tek,NA,"János imád vobozni, ezért sokat vobzik.",Ti ritkán...,vobzotok,voboztok,cselekszik,-zik,1,PR2065,1979,nő,nem,2022-04-15_21h37.40.216,hesp_baseline,2021.2.3,Win32,60.0276127
,,,,,,,,,,,,,,,,,fretszek,fretszem,right,3.0595,0,58,58,66,1,121,fretszik,fretszel,NA,NA,Te bizony sokat fretszel.,Én is sokat...,fretszek,fretszem,lakik,-szik,1,PR2065,1979,nő,nem,2022-04-15_21h37.40.216,hesp_baseline,2021.2.3,Win32,60.0276127
,,,,,,,,,,,,,,,,,csodegnál,csodegnél,right,6.8352,0,59,59,28,1,137,csodeg,csodeg,nál,e,Ez itt egy csodeg.,Nincs is jobb egy jó...,csodegnél,csodegnál,dzsungel,NA,NA,PR2065,1979,nő,nem,2022-04-15_21h37.40.216,hesp_baseline,2021.2.3,Win32,60.0276127
,,,,,,,,,,,,,,,,,triképben,triképban,left,2.8178,0,60,60,33,1,142,trikép,trikép,ban,é,Ez itt egy trikép.,Ott vagyunk a...,triképben,triképban,dzsungel,NA,NA,PR2065,1979,nő,nem,2022-04-15_21h37.40.216,hesp_baseline,2021.2.3,Win32,60.0276127
,,,,,,,,,,,,,,,,,brindeznek,brindeznak,left,5.4239,0,61,61,6,1,115,brindez,brindez,nak,e,Ez itt egy brindez.,Elneveztem a kutyámat...,brindeznek,brindeznak,dzsungel,NA,NA,PR2065,1979,nő,nem,2022-04-15_21h37.40.216,hesp_baseline,2021.2.3,Win32,60.0276127
,,,,,,,,,,,,,,,,,nyáslok,nyáslom,right,23.6745,0,62,62,100,1,155,nyáslik,nyáslasz,NA,NA,Te bizony sokat nyáslasz.,Én is sokat...,nyáslok,nyáslom,lakik,-lik,1,PR2065,1979,nő,nem,2022-04-15_21h37.40.216,hesp_baseline,2021.2.3,Win32,60.0276127
,,,,,,,,,,,,,,,,,bródesznek,bródesznak,left,3.3441,0,63,63,32,1,141,bródesz,bródesz,nak,e,Ez itt egy bródesz.,Elneveztem a kutyámat...,bródesznek,bródesznak,dzsungel,NA,NA,PR2065,1979,nő,nem,2022-04-15_21h37.40.216,hesp_baseline,2021.2.3,Win32,60.0276127
,,,,,,,,,,,,,,,,,prűrlök,prűrlöm,right,4.069,0,64,64,75,1,130,prűrlik,prűrlesz,NA,NA,Te bizony sokat prűrlesz.,Én is sokat...,prűrlök,prűrlöm,lakik,-lik,1,PR2065,1979,nő,nem,2022-04-15_21h37.40.216,hesp_baseline,2021.2.3,Win32,60.0276127
,,,,,,,,,,,,,,,,,huméknek,huméknak,right,4.2899,0,65,65,23,1,132,humék,humék,nak,é,Ez itt egy humék.,Elneveztem a kutyámat...,huméknek,huméknak,dzsungel,NA,NA,PR2065,1979,nő,nem,2022-04-15_21h37.40.216,hesp_baseline,2021.2.3,Win32,60.0276127
,,,,,,,,,,,,,,,,,frálapszotok,frálapodtok,left,8.5493,0,66,66,150,1,151,frálapszik / frálapodik,"frálapszik, frálapodni",tek,NA,"János imád frálapodni, ezért sokat frálapszik.",Ti ritkán...,frálapszotok,frálapodtok,cselekszik,-szik,2,PR2065,1979,nő,nem,2022-04-15_21h37.40.216,hesp_baseline,2021.2.3,Win32,60.0276127
,,,,,,,,,,,,,,,,,klarágzotok,klarágoztok,right,5.1231,0,67,67,114,1,115,klarágzik / klarágozik,"klarágzik, klarágozni",tek,NA,"János imád klarágozni, ezért sokat klarágzik.",Ti ritkán...,klarágzotok,klarágoztok,cselekszik,-zik,2,PR2065,1979,nő,nem,2022-04-15_21h37.40.216,hesp_baseline,2021.2.3,Win32,60.0276127
,,,,,,,,,,,,,,,,,spírzok,spírzom,right,4.0746,0,68,68,64,1,119,spírzik,spírzol,NA,NA,Te bizony sokat spírzol.,Én is sokat...,spírzok,spírzom,lakik,-zik,1,PR2065,1979,nő,nem,2022-04-15_21h37.40.216,hesp_baseline,2021.2.3,Win32,60.0276127
,,,,,,,,,,,,,,,,,mágamlunk,mágamozunk,left,8.0675,0,69,69,140,1,141,mágamlik / mágamozik,"mágamlik, mágamozni",ünk,NA,"János imád mágamozni, ezért sokat mágamlik.",Mi ritkán...,mágamlunk,mágamozunk,cselekszik,-lik,2,PR2065,1979,nő,nem,2022-04-15_21h37.40.216,hesp_baseline,2021.2.3,Win32,60.0276127
,,,,,,,,,,,,,,,,,lismévben,lismévban,left,2.9988,0,70,70,0,1,109,lismév,lismév,ban,é,Ez itt egy lismév.,Ott vagyunk a...,lismévben,lismévban,dzsungel,NA,NA,PR2065,1979,nő,nem,2022-04-15_21h37.40.216,hesp_baseline,2021.2.3,Win32,60.0276127
,,,,,,,,,,,,,,,,,sűzlök,sűzlöm,right,1.9823,0,71,71,54,1,109,sűzlik,sűzlesz,NA,NA,Te bizony sokat sűzlesz.,Én is sokat...,sűzlök,sűzlöm,lakik,-lik,1,PR2065,1979,nő,nem,2022-04-15_21h37.40.216,hesp_baseline,2021.2.3,Win32,60.0276127
,,,,,,,,,,,,,,,,,trehégszek,trehégszem,right,3.0564,0,72,72,86,1,141,trehégszik,trehégszel,NA,NA,Te bizony sokat trehégszel.,Én is sokat...,trehégszek,trehégszem,lakik,-szik,2,PR2065,1979,nő,nem,2022-04-15_21h37.40.216,hesp_baseline,2021.2.3,Win32,60.0276127
,,,,,,,,,,,,,,,,,brotesban,brotesben,right,4.6515,0,73,73,53,1,162,brotes,brotes,ban,e,Ez itt egy brotes.,Ott vagyunk a...,brotesben,brotesban,dzsungel,NA,NA,PR2065,1979,nő,nem,2022-04-15_21h37.40.216,hesp_baseline,2021.2.3,Win32,60.0276127
,,,,,,,,,,,,,,,,,zsádévnak,zsádévnek,left,3.85,0,74,74,20,1,129,zsádév,zsádév,nak,é,Ez itt egy zsádév.,Elneveztem a kutyámat...,zsádévnek,zsádévnak,dzsungel,NA,NA,PR2065,1979,nő,nem,2022-04-15_21h37.40.216,hesp_baseline,2021.2.3,Win32,60.0276127
,,,,,,,,,,,,,,,,,vilesezünk,vileslünk,right,12.88,0,75,75,139,1,140,vileslik / vilesezik,"vileslik, vilesezni",ünk,NA,"János imád vilesezni, ezért sokat vileslik.",Mi ritkán...,vileslünk,vilesezünk,cselekszik,-lik,2,PR2065,1979,nő,nem,2022-04-15_21h37.40.216,hesp_baseline,2021.2.3,Win32,60.0276127
,,,,,,,,,,,,,,,,,vűjlöm,vűjlök,left,4.1344,0,76,76,94,1,149,vűjlik,vűjlesz,NA,NA,Te bizony sokat vűjlesz.,Én is sokat...,vűjlök,vűjlöm,lakik,-lik,1,PR2065,1979,nő,nem,2022-04-15_21h37.40.216,hesp_baseline,2021.2.3,Win32,60.0276127
,,,,,,,,,,,,,,,,,brilegzünk,brilegezünk,right,3.7376,0,77,77,124,1,125,brilegzik / brilegezik,"brilegzik, brilegezni",ünk,NA,"János imád brilegezni, ezért sokat brilegzik.",Mi ritkán...,brilegzünk,brilegezünk,cselekszik,-zik,2,PR2065,1979,nő,nem,2022-04-15_21h37.40.216,hesp_baseline,2021.2.3,Win32,60.0276127
,,,,,,,,,,,,,,,,,zsáderben,zsáderban,left,6.9763,0,78,78,25,1,134,zsáder,zsáder,ban,e,Ez itt egy zsáder.,Ott vagyunk a...,zsáderben,zsáderban,dzsungel,NA,NA,PR2065,1979,nő,nem,2022-04-15_21h37.40.216,hesp_baseline,2021.2.3,Win32,60.0276127
,,,,,,,,,,,,,,,,,nágapodnak,nágapszanak,left,5.0989,0,79,79,152,1,153,nágapszik / nágapodik,"nágapszik, nágapodni",nek,NA,"János imád nágapodni, ezért sokat nágapszik.",Ők ritkán...,nágapszanak,nágapodnak,cselekszik,-szik,2,PR2065,1979,nő,nem,2022-04-15_21h37.40.216,hesp_baseline,2021.2.3,Win32,60.0276127
,,,,,,,,,,,,,,,,,pristélben,pristélban,left,2.5663,0,80,80,1,1,110,pristél,pristél,ban,é,Ez itt egy pristél.,Ott vagyunk a...,pristélben,pristélban,dzsungel,NA,NA,PR2065,1979,nő,nem,2022-04-15_21h37.40.216,hesp_baseline,2021.2.3,Win32,60.0276127
,,,,,,,,,,,,,,,,,dibezban,dibezben,right,2.8219,0,81,81,27,1,136,dibez,dibez,ban,e,Ez itt egy dibez.,Ott vagyunk a...,dibezben,dibezban,dzsungel,NA,NA,PR2065,1979,nő,nem,2022-04-15_21h37.40.216,hesp_baseline,2021.2.3,Win32,60.0276127
,,,,,,,,,,,,,,,,,trugoklanak,trugokoznak,left,5.515,0,82,82,109,1,110,trugoklik / trugokozik,"trugoklik, trugokozni",nek,NA,"János imád trugokozni, ezért sokat trugoklik.",Ők ritkán...,trugoklanak,trugokoznak,cselekszik,-lik,2,PR2065,1979,nő,nem,2022-04-15_21h37.40.216,hesp_baseline,2021.2.3,Win32,60.0276127
,,,,,,,,,,,,,,,,,nyarcéjnek,nyarcéjnak,right,8.9895,0,83,83,37,1,146,nyarcéj,nyarcéj,nak,é,Ez itt egy nyarcéj.,Elneveztem a kutyámat...,nyarcéjnek,nyarcéjnak,dzsungel,NA,NA,PR2065,1979,nő,nem,2022-04-15_21h37.40.216,hesp_baseline,2021.2.3,Win32,60.0276127
,,,,,,,,,,,,,,,,,mékszem,mékszek,left,4.1394,0,84,84,71,1,126,mékszik,mékszel,NA,NA,Te bizony sokat mékszel.,Én is sokat...,mékszek,mékszem,lakik,-szik,1,PR2065,1979,nő,nem,2022-04-15_21h37.40.216,hesp_baseline,2021.2.3,Win32,60.0276127
,,,,,,,,,,,,,,,,,bidemben,bidemban,left,4.0491,0,85,85,2,1,111,bidem,bidem,ban,e,Ez itt egy bidem.,Ott vagyunk a...,bidemben,bidemban,dzsungel,NA,NA,PR2065,1979,nő,nem,2022-04-15_21h37.40.216,hesp_baseline,2021.2.3,Win32,60.0276127
,,,,,,,,,,,,,,,,,büglöm,büglök,left,2.5196,0,86,86,101,1,156,büglik,büglesz,NA,NA,Te bizony sokat büglesz.,Én is sokat...,büglök,büglöm,lakik,-lik,1,PR2065,1979,nő,nem,2022-04-15_21h37.40.216,hesp_baseline,2021.2.3,Win32,60.0276127
,,,,,,,,,,,,,,,,,hűgzök,hűgzöm,right,4.2665,0,87,87,107,1,162,hűgzik,hűgzöl,NA,NA,Te bizony sokat hűgzöl.,Én is sokat...,hűgzök,hűgzöm,lakik,-zik,1,PR2065,1979,nő,nem,2022-04-15_21h37.40.216,hesp_baseline,2021.2.3,Win32,60.0276127
,,,,,,,,,,,,,,,,,féjzek,féjzem,right,2.0045,0,88,88,91,1,146,féjzik,féjzel,NA,NA,Te bizony sokat féjzel.,Én is sokat...,féjzek,féjzem,lakik,-zik,1,PR2065,1979,nő,nem,2022-04-15_21h37.40.216,hesp_baseline,2021.2.3,Win32,60.0276127
,,,,,,,,,,,,,,,,,sprivencnál,sprivencnél,right,3.6164,0,89,89,13,1,122,sprivenc,sprivenc,nál,e,Ez itt egy sprivenc.,Nincs is jobb egy jó...,sprivencnél,sprivencnál,dzsungel,NA,NA,PR2065,1979,nő,nem,2022-04-15_21h37.40.216,hesp_baseline,2021.2.3,Win32,60.0276127
,,,,,,,,,,,,,,,,,rájzok,rájzom,right,5.2527,0,90,90,70,1,125,rájzik,rájzol,NA,NA,Te bizony sokat rájzol.,Én is sokat...,rájzok,rájzom,lakik,-zik,1,PR2065,1979,nő,nem,2022-04-15_21h37.40.216,hesp_baseline,2021.2.3,Win32,60.0276127
,,,,,,,,,,,,,,,,,vodecnél,vodecnál,left,6.0155,0,91,91,30,1,139,vodec,vodec,nál,e,Ez itt egy vodec.,Nincs is jobb egy jó...,vodecnél,vodecnál,dzsungel,NA,NA,PR2065,1979,nő,nem,2022-04-15_21h37.40.216,hesp_baseline,2021.2.3,Win32,60.0276127
,,,,,,,,,,,,,,,,,sprozlanak,sprozoznak,left,3.5409,0,92,92,147,1,148,sprozlik / sprozozik,"sprozlik, sprozozni",nek,NA,"János imád sprozozni, ezért sokat sprozlik.",Ők ritkán...,sprozlanak,sprozoznak,cselekszik,-lik,1,PR2065,1979,nő,nem,2022-04-15_21h37.40.216,hesp_baseline,2021.2.3,Win32,60.0276127
,,,,,,,,,,,,,,,,,braszencnél,braszencnál,left,4.4848,0,93,93,7,1,116,braszenc,braszenc,nál,e,Ez itt egy braszenc.,Nincs is jobb egy jó...,braszencnél,braszencnál,dzsungel,NA,NA,PR2065,1979,nő,nem,2022-04-15_21h37.40.216,hesp_baseline,2021.2.3,Win32,60.0276127
,,,,,,,,,,,,,,,,,surnegynál,surnegynél,right,4.001,0,94,94,8,1,117,surnegy,surnegy,nál,e,Ez itt egy surnegy.,Nincs is jobb egy jó...,surnegynél,surnegynál,dzsungel,NA,NA,PR2065,1979,nő,nem,2022-04-15_21h37.40.216,hesp_baseline,2021.2.3,Win32,60.0276127
,,,,,,,,,,,,,,,,,zinednak,zinednek,right,3.8233,0,95,95,22,1,131,zined,zined,nak,e,Ez itt egy zined.,Elneveztem a kutyámat...,zinednek,zinednak,dzsungel,NA,NA,PR2065,1979,nő,nem,2022-04-15_21h37.40.216,hesp_baseline,2021.2.3,Win32,60.0276127
,,,,,,,,,,,,,,,,,sprálszom,sprálszok,left,2.817,0,96,96,65,1,120,sprálszik,sprálszol,NA,NA,Te bizony sokat sprálszol.,Én is sokat...,sprálszok,sprálszom,lakik,-szik,1,PR2065,1979,nő,nem,2022-04-15_21h37.40.216,hesp_baseline,2021.2.3,Win32,60.0276127
,,,,,,,,,,,,,,,,,szihétnek,szihétnak,left,5.3654,0,97,97,4,1,113,szihét,szihét,nak,é,Ez itt egy szihét.,Elneveztem a kutyámat...,szihétnek,szihétnak,dzsungel,NA,NA,PR2065,1979,nő,nem,2022-04-15_21h37.40.216,hesp_baseline,2021.2.3,Win32,60.0276127
,,,,,,,,,,,,,,,,,dalencnál,dalencnél,left,6.7812,0,98,98,31,1,140,dalenc,dalenc,nál,e,Ez itt egy dalenc.,Nincs is jobb egy jó...,dalencnél,dalencnál,dzsungel,NA,NA,PR2065,1979,nő,nem,2022-04-15_21h37.40.216,hesp_baseline,2021.2.3,Win32,60.0276127
,,,,,,,,,,,,,,,,,klétszek,klétszem,right,2.4502,0,99,99,60,1,115,klétszik,klétszel,NA,NA,Te bizony sokat klétszel.,Én is sokat...,klétszek,klétszem,lakik,-szik,1,PR2065,1979,nő,nem,2022-04-15_21h37.40.216,hesp_baseline,2021.2.3,Win32,60.0276127
,,,,,,,,,,,,,,,,,spuborzanak,spuboroznak,right,5.8985,0,100,100,161,1,162,spuborzik / spuborozik,"spuborzik, spuborozni",nek,NA,"János imád spuborozni, ezért sokat spuborzik.",Ők ritkán...,spuborzanak,spuboroznak,cselekszik,-zik,2,PR2065,1979,nő,nem,2022-04-15_21h37.40.216,hesp_baseline,2021.2.3,Win32,60.0276127
,,,,,,,,,,,,,,,,,spuménynek,spuménynak,right,7.5153,0,101,101,19,1,128,spumény,spumény,nak,é,Ez itt egy spumény.,Elneveztem a kutyámat...,spuménynek,spuménynak,dzsungel,NA,NA,PR2065,1979,nő,nem,2022-04-15_21h37.40.216,hesp_baseline,2021.2.3,Win32,60.0276127
,,,,,,,,,,,,,,,,,prezlek,prezlem,right,2.6999,0,102,102,87,1,142,prezlik,prezlesz,NA,NA,Te bizony sokat prezlesz.,Én is sokat...,prezlek,prezlem,lakik,-lik,1,PR2065,1979,nő,nem,2022-04-15_21h37.40.216,hesp_baseline,2021.2.3,Win32,60.0276127
,,,,,,,,,,,,,,,,,narjárzok,narjárzom,right,3.3852,0,103,103,61,1,116,narjárzik,narjárzol,NA,NA,Te bizony sokat narjárzol.,Én is sokat...,narjárzok,narjárzom,lakik,-zik,2,PR2065,1979,nő,nem,2022-04-15_21h37.40.216,hesp_baseline,2021.2.3,Win32,60.0276127
,,,,,,,,,,,,,,,,,tínylok,tínylom,right,2.5659,0,104,104,58,1,113,tínylik,tínylasz,NA,NA,Te bizony sokat tínylasz.,Én is sokat...,tínylok,tínylom,lakik,-lik,1,PR2065,1979,nő,nem,2022-04-15_21h37.40.216,hesp_baseline,2021.2.3,Win32,60.0276127
,,,,,,,,,,,,,,,,,briváglanak,brivágoznak,right,11.285,0,105,105,138,1,139,briváglik / brivágozik,"briváglik, brivágozni",nek,NA,"János imád brivágozni, ezért sokat briváglik.",Ők ritkán...,briváglanak,brivágoznak,cselekszik,-lik,2,PR2065,1979,nő,nem,2022-04-15_21h37.40.216,hesp_baseline,2021.2.3,Win32,60.0276127
,,,,,,,,,,,,,,,,,vubletnél,vubletnál,left,4.3766,0,106,106,26,1,135,vublet,vublet,nál,e,Ez itt egy vublet.,Nincs is jobb egy jó...,vubletnél,vubletnál,dzsungel,NA,NA,PR2065,1979,nő,nem,2022-04-15_21h37.40.216,hesp_baseline,2021.2.3,Win32,60.0276127
,,,,,,,,,,,,,,,,,treglek,treglem,right,2.0338,0,107,107,81,1,136,treglik,treglesz,NA,NA,Te bizony sokat treglesz.,Én is sokat...,treglek,treglem,lakik,-lik,1,PR2065,1979,nő,nem,2022-04-15_21h37.40.216,hesp_baseline,2021.2.3,Win32,60.0276127
,,,,,,,,,,,,,,,,,bivejlem,bivejlek,left,8.5133,0,108,108,73,1,128,bivejlik,bivejlesz,NA,NA,Te bizony sokat bivejlesz.,Én is sokat...,bivejlek,bivejlem,lakik,-lik,2,PR2065,1979,nő,nem,2022-04-15_21h37.40.216,hesp_baseline,2021.2.3,Win32,60.0276127
,,,,,,,,,,,,,,,,,sűjlünk,sűjözünk,left,13.2957,0,109,109,128,1,129,sűjlik / sűjözik,"sűjlik, sűjözni",ünk,NA,"János imád sűjözni, ezért sokat sűjlik.",Mi ritkán...,sűjlünk,sűjözünk,cselekszik,-lik,1,PR2065,1979,nő,nem,2022-04-15_21h37.40.216,hesp_baseline,2021.2.3,Win32,60.0276127
,,,,,,,,,,,,,,,,,döjlenek,döjöznek,left,4.9995,0,110,110,129,1,130,döjlik / döjözik,"döjlik, döjözni",nek,NA,"János imád döjözni, ezért sokat döjlik.",Ők ritkán...,döjlenek,döjöznek,cselekszik,-lik,1,PR2065,1979,nő,nem,2022-04-15_21h37.40.216,hesp_baseline,2021.2.3,Win32,60.0276127
,,,,,,,,,,,,,,,,,jurdentnál,jurdentnél,right,4.682,0,111,111,16,1,125,jurdent,jurdent,nál,e,Ez itt egy jurdent.,Nincs is jobb egy jó...,jurdentnél,jurdentnál,dzsungel,NA,NA,PR2065,1979,nő,nem,2022-04-15_21h37.40.216,hesp_baseline,2021.2.3,Win32,60.0276127
,,,,,,,,,,,,,,,,,pragányoztok,pragánylotok,left,6.0509,0,112,112,133,1,134,pragánylik / pragányozik,"pragánylik, pragányozni",tek,NA,"János imád pragányozni, ezért sokat pragánylik.",Ti ritkán...,pragánylotok,pragányoztok,cselekszik,-lik,2,PR2065,1979,nő,nem,2022-04-15_21h37.40.216,hesp_baseline,2021.2.3,Win32,60.0276127
,,,,,,,,,,,,,,,,,spirágoztok,spiráglotok,right,10.2488,0,113,113,135,1,136,spiráglik / spirágozik,"spiráglik, spirágozni",tek,NA,"János imád spirágozni, ezért sokat spiráglik.",Ti ritkán...,spiráglotok,spirágoztok,cselekszik,-lik,2,PR2065,1979,nő,nem,2022-04-15_21h37.40.216,hesp_baseline,2021.2.3,Win32,60.0276127
,,,,,,,,,,,,,,,,,frivajlok,frivajlom,right,3.2667,0,114,114,78,1,133,frivajlik,frivajlasz,NA,NA,Te bizony sokat frivajlasz.,Én is sokat...,frivajlok,frivajlom,lakik,-lik,2,PR2065,1979,nő,nem,2022-04-15_21h37.40.216,hesp_baseline,2021.2.3,Win32,60.0276127
,,,,,,,,,,,,,,,,,triklotok,trikoztok,left,4.2538,0,115,115,160,1,161,triklik / trikozik,"triklik, trikozni",tek,NA,"János imád trikozni, ezért sokat triklik.",Ti ritkán...,triklotok,trikoztok,cselekszik,-lik,1,PR2065,1979,nő,nem,2022-04-15_21h37.40.216,hesp_baseline,2021.2.3,Win32,60.0276127
,,,,,,,,,,,,,,,,,trálszunk,trálodunk,left,4.5396,0,116,116,130,1,131,trálszik / trálodik,"trálszik, trálodni",ünk,NA,"János imád trálodni, ezért sokat trálszik.",Mi ritkán...,trálszunk,trálodunk,cselekszik,-szik,1,PR2065,1979,nő,nem,2022-04-15_21h37.40.216,hesp_baseline,2021.2.3,Win32,60.0276127
,,,,,,,,,,,,,,,,,vurnelnak,vurnelnek,right,1.967,0,117,117,50,1,159,vurnel,vurnel,nak,e,Ez itt egy vurnel.,Elneveztem a kutyámat...,vurnelnek,vurnelnak,dzsungel,NA,NA,PR2065,1979,nő,nem,2022-04-15_21h37.40.216,hesp_baseline,2021.2.3,Win32,60.0276127
,,,,,,,,,,,,,,,,,trálakoznak,trálaklanak,right,7.0153,0,118,118,116,1,117,trálaklik / trálakozik,"trálaklik, trálakozni",nek,NA,"János imád trálakozni, ezért sokat trálaklik.",Ők ritkán...,trálaklanak,trálakoznak,cselekszik,-lik,2,PR2065,1979,nő,nem,2022-04-15_21h37.40.216,hesp_baseline,2021.2.3,Win32,60.0276127
,,,,,,,,,,,,,,,,,bihánylom,bihánylok,left,3.0325,0,119,119,89,1,144,bihánylik,bihánylasz,NA,NA,Te bizony sokat bihánylasz.,Én is sokat...,bihánylok,bihánylom,lakik,-lik,2,PR2065,1979,nő,nem,2022-04-15_21h37.40.216,hesp_baseline,2021.2.3,Win32,60.0276127
,,,,,,,,,,,,,,,,,pribagszom,pribagszok,left,3.05,0,120,120,76,1,131,pribagszik,pribagszol,NA,NA,Te bizony sokat pribagszol.,Én is sokat...,pribagszok,pribagszom,lakik,-szik,2,PR2065,1979,nő,nem,2022-04-15_21h37.40.216,hesp_baseline,2021.2.3,Win32,60.0276127
,,,,,,,,,,,,,,,,,zödlöm,zödlök,left,1.733,0,121,121,106,1,161,zödlik,zödlesz,NA,NA,Te bizony sokat zödlesz.,Én is sokat...,zödlök,zödlöm,lakik,-lik,1,PR2065,1979,nő,nem,2022-04-15_21h37.40.216,hesp_baseline,2021.2.3,Win32,60.0276127
,,,,,,,,,,,,,,,,,gótemnek,gótemnak,left,8.5156,0,122,122,35,1,144,gótem,gótem,nak,e,Ez itt egy gótem.,Elneveztem a kutyámat...,gótemnek,gótemnak,dzsungel,NA,NA,PR2065,1979,nő,nem,2022-04-15_21h37.40.216,hesp_baseline,2021.2.3,Win32,60.0276127
,,,,,,,,,,,,,,,,,danétnél,danétnál,right,2.9651,0,123,123,38,1,147,danét,danét,nál,é,Ez itt egy danét.,Nincs is jobb egy jó...,danétnél,danétnál,dzsungel,NA,NA,PR2065,1979,nő,nem,2022-04-15_21h37.40.216,hesp_baseline,2021.2.3,Win32,60.0276127
,,,,,,,,,,,,,,,,,hágyétnak,hágyétnek,left,5.632,0,124,124,42,1,151,hágyét,hágyét,nak,é,Ez itt egy hágyét.,Elneveztem a kutyámat...,hágyétnek,hágyétnak,dzsungel,NA,NA,PR2065,1979,nő,nem,2022-04-15_21h37.40.216,hesp_baseline,2021.2.3,Win32,60.0276127
,,,,,,,,,,,,,,,,,spalároznak,spalárzanak,left,25.9252,0,125,125,137,1,138,spalárzik / spalározik,"spalárzik, spalározni",nek,NA,"János imád spalározni, ezért sokat spalárzik.",Ők ritkán...,spalárzanak,spalároznak,cselekszik,-zik,2,PR2065,1979,nő,nem,2022-04-15_21h37.40.216,hesp_baseline,2021.2.3,Win32,60.0276127
,,,,,,,,,,,,,,,,,spatelnek,spatelnak,left,5.6597,0,126,126,21,1,130,spatel,spatel,nak,e,Ez itt egy spatel.,Elneveztem a kutyámat...,spatelnek,spatelnak,dzsungel,NA,NA,PR2065,1979,nő,nem,2022-04-15_21h37.40.216,hesp_baseline,2021.2.3,Win32,60.0276127
,,,,,,,,,,,,,,,,,dirlotok,diroztok,right,16.1443,0,127,127,148,1,149,dirlik / dirozik,"dirlik, dirozni",tek,NA,"János imád dirozni, ezért sokat dirlik.",Ti ritkán...,dirlotok,diroztok,cselekszik,-lik,1,PR2065,1979,nő,nem,2022-04-15_21h37.40.216,hesp_baseline,2021.2.3,Win32,60.0276127
,,,,,,,,,,,,,,,,,kátelnak,kátelnek,right,4.7156,0,128,128,12,1,121,kátel,kátel,nak,e,Ez itt egy kátel.,Elneveztem a kutyámat...,kátelnek,kátelnak,dzsungel,NA,NA,PR2065,1979,nő,nem,2022-04-15_21h37.40.216,hesp_baseline,2021.2.3,Win32,60.0276127
,,,,,,,,,,,,,,,,,sztrűkszöm,sztrűkszök,left,2.1185,0,129,129,77,1,132,sztrűkszik,sztrűkszöl,NA,NA,Te bizony sokat sztrűkszöl.,Én is sokat...,sztrűkszök,sztrűkszöm,lakik,-szik,1,PR2065,1979,nő,nem,2022-04-15_21h37.40.216,hesp_baseline,2021.2.3,Win32,60.0276127
,,,,,,,,,,,,,,,,,vehékszünk,vehékedünk,left,2.6839,0,130,130,117,1,118,vehékszik / vehékedik,"vehékszik, vehékedni",ünk,NA,"János imád vehékedni, ezért sokat vehékszik.",Mi ritkán...,vehékszünk,vehékedünk,cselekszik,-szik,2,PR2065,1979,nő,nem,2022-04-15_21h37.40.216,hesp_baseline,2021.2.3,Win32,60.0276127
,,,,,,,,,,,,,,,,,zábénynek,zábénynak,right,3.0409,0,131,131,43,1,152,zábény,zábény,nak,é,Ez itt egy zábény.,Elneveztem a kutyámat...,zábénynek,zábénynak,dzsungel,NA,NA,PR2065,1979,nő,nem,2022-04-15_21h37.40.216,hesp_baseline,2021.2.3,Win32,60.0276127
,,,,,,,,,,,,,,,,,drubódzom,drubódzok,left,2.3993,0,132,132,63,1,118,drubódzik,drubódzol,NA,NA,Te bizony sokat drubódzol.,Én is sokat...,drubódzok,drubódzom,lakik,-zik,2,PR2065,1979,nő,nem,2022-04-15_21h37.40.216,hesp_baseline,2021.2.3,Win32,60.0276127
,,,,,,,,,,,,,,,,,spülőrzöm,spülőrzök,right,4.4156,0,133,133,69,1,124,spülőrzik,spülőrzöl,NA,NA,Te bizony sokat spülőrzöl.,Én is sokat...,spülőrzök,spülőrzöm,lakik,-zik,2,PR2065,1979,nő,nem,2022-04-15_21h37.40.216,hesp_baseline,2021.2.3,Win32,60.0276127
,,,,,,,,,,,,,,,,,trádlok,trádlom,right,1.7501,0,134,134,105,1,160,trádlik,trádlasz,NA,NA,Te bizony sokat trádlasz.,Én is sokat...,trádlok,trádlom,lakik,-lik,1,PR2065,1979,nő,nem,2022-04-15_21h37.40.216,hesp_baseline,2021.2.3,Win32,60.0276127
,,,,,,,,,,,,,,,,,trilszok,trilszom,right,3.1039,0,135,135,103,1,158,trilszik,trilszol,NA,NA,Te bizony sokat trilszol.,Én is sokat...,trilszok,trilszom,lakik,-szik,1,PR2065,1979,nő,nem,2022-04-15_21h37.40.216,hesp_baseline,2021.2.3,Win32,60.0276127
,,,,,,,,,,,,,,,,,nyupérnél,nyupérnál,left,3.2823,0,136,136,52,1,161,nyupér,nyupér,nál,é,Ez itt egy nyupér.,Nincs is jobb egy jó...,nyupérnél,nyupérnál,dzsungel,NA,NA,PR2065,1979,nő,nem,2022-04-15_21h37.40.216,hesp_baseline,2021.2.3,Win32,60.0276127
,,,,,,,,,,,,,,,,,sztritoznak,sztritlanak,left,4.2168,0,137,137,154,1,155,sztritlik / sztritozik,"sztritlik, sztritozni",nek,NA,"János imád sztritozni, ezért sokat sztritlik.",Ők ritkán...,sztritlanak,sztritoznak,cselekszik,-lik,1,PR2065,1979,nő,nem,2022-04-15_21h37.40.216,hesp_baseline,2021.2.3,Win32,60.0276127
,,,,,,,,,,,,,,,,,nivároztok,nivárzotok,left,5.3483,0,138,138,146,1,147,nivárzik / nivározik,"nivárzik, nivározni",tek,NA,"János imád nivározni, ezért sokat nivárzik.",Ti ritkán...,nivárzotok,nivároztok,cselekszik,-zik,2,PR2065,1979,nő,nem,2022-04-15_21h37.40.216,hesp_baseline,2021.2.3,Win32,60.0276127
,,,,,,,,,,,,,,,,,prínylom,prínylok,left,1.9879,0,139,139,102,1,157,prínylik,prínylasz,NA,NA,Te bizony sokat prínylasz.,Én is sokat...,prínylok,prínylom,lakik,-lik,1,PR2065,1979,nő,nem,2022-04-15_21h37.40.216,hesp_baseline,2021.2.3,Win32,60.0276127
,,,,,,,,,,,,,,,,,flátoztok,flátlotok,left,4.053,0,140,140,132,1,133,flátlik / flátozik,"flátlik, flátozni",tek,NA,"János imád flátozni, ezért sokat flátlik.",Ti ritkán...,flátlotok,flátoztok,cselekszik,-lik,1,PR2065,1979,nő,nem,2022-04-15_21h37.40.216,hesp_baseline,2021.2.3,Win32,60.0276127
,,,,,,,,,,,,,,,,,bűtszök,bűtszöm,right,2.5667,0,141,141,82,1,137,bűtszik,bűtszöl,NA,NA,Te bizony sokat bűtszöl.,Én is sokat...,bűtszök,bűtszöm,lakik,-szik,1,PR2065,1979,nő,nem,2022-04-15_21h37.40.216,hesp_baseline,2021.2.3,Win32,60.0276127
,,,,,,,,,,,,,,,,,táklom,táklok,left,1.4169,0,142,142,79,1,134,táklik,táklasz,NA,NA,Te bizony sokat táklasz.,Én is sokat...,táklok,táklom,lakik,-lik,1,PR2065,1979,nő,nem,2022-04-15_21h37.40.216,hesp_baseline,2021.2.3,Win32,60.0276127
,,,,,,,,,,,,,,,,,brűklötök,brűköztök,right,10.2549,0,143,143,153,1,154,brűklik / brűközik,"brűklik, brűközni",tek,NA,"János imád brűközni, ezért sokat brűklik.",Ti ritkán...,brűklötök,brűköztök,cselekszik,-lik,1,PR2065,1979,nő,nem,2022-04-15_21h37.40.216,hesp_baseline,2021.2.3,Win32,60.0276127
,,,,,,,,,,,,,,,,,gerénylem,gerénylek,left,1.4846,0,144,144,99,1,154,gerénylik,gerénylesz,NA,NA,Te bizony sokat gerénylesz.,Én is sokat...,gerénylek,gerénylem,lakik,-lik,2,PR2065,1979,nő,nem,2022-04-15_21h37.40.216,hesp_baseline,2021.2.3,Win32,60.0276127
,,,,,,,,,,,,,,,,,lumoztok,lumlotok,left,4.5329,0,145,145,149,1,150,lumlik / lumozik,"lumlik, lumozni",tek,NA,"János imád lumozni, ezért sokat lumlik.",Ti ritkán...,lumlotok,lumoztok,cselekszik,-lik,1,PR2065,1979,nő,nem,2022-04-15_21h37.40.216,hesp_baseline,2021.2.3,Win32,60.0276127
,,,,,,,,,,,,,,,,,flugonylanak,flugonyoznak,right,15.7121,0,146,146,111,1,112,flugonylik / flugonyozik,"flugonylik, flugonyozni",nek,NA,"János imád flugonyozni, ezért sokat flugonylik.",Ők ritkán...,flugonylanak,flugonyoznak,cselekszik,-lik,2,PR2065,1979,nő,nem,2022-04-15_21h37.40.216,hesp_baseline,2021.2.3,Win32,60.0276127
,,,,,,,,,,,,,,,,,kábesznél,kábesznál,left,10.1137,0,147,147,44,1,153,kábesz,kábesz,nál,e,Ez itt egy kábesz.,Nincs is jobb egy jó...,kábesznél,kábesznál,dzsungel,NA,NA,PR2065,1979,nő,nem,2022-04-15_21h37.40.216,hesp_baseline,2021.2.3,Win32,60.0276127
,,,,,,,,,,,,,,,,,spüszlöm,spüszlök,left,1.1932,0,148,148,96,1,151,spüszlik,spüszlesz,NA,NA,Te bizony sokat spüszlesz.,Én is sokat...,spüszlök,spüszlöm,lakik,-lik,1,PR2065,1979,nő,nem,2022-04-15_21h37.40.216,hesp_baseline,2021.2.3,Win32,60.0276127
,,,,,,,,,,,,,,,,,brároznak,brárlanak,left,6.6907,0,149,149,126,1,127,brárlik / brározik,"brárlik, brározni",nek,NA,"János imád brározni, ezért sokat brárlik.",Ők ritkán...,brárlanak,brároznak,cselekszik,-lik,1,PR2065,1979,nő,nem,2022-04-15_21h37.40.216,hesp_baseline,2021.2.3,Win32,60.0276127
,,,,,,,,,,,,,,,,,gibemezünk,gibemlünk,right,11.6627,0,150,150,115,1,116,gibemlik / gibemezik,"gibemlik, gibemezni",ünk,NA,"János imád gibemezni, ezért sokat gibemlik.",Mi ritkán...,gibemlünk,gibemezünk,cselekszik,-lik,2,PR2065,1979,nő,nem,2022-04-15_21h37.40.216,hesp_baseline,2021.2.3,Win32,60.0276127
,,,,,,,,,,,,,,,,,flököztök,flöklötök,left,5.3098,0,151,151,121,1,122,flöklik / flöközik,"flöklik, flöközni",tek,NA,"János imád flöközni, ezért sokat flöklik.",Ti ritkán...,flöklötök,flököztök,cselekszik,-lik,1,PR2065,1979,nő,nem,2022-04-15_21h37.40.216,hesp_baseline,2021.2.3,Win32,60.0276127
,,,,,,,,,,,,,,,,,ibékszek,ibékszem,right,2.0202,0,152,152,95,1,150,ibékszik,ibékszel,NA,NA,Te bizony sokat ibékszel.,Én is sokat...,ibékszek,ibékszem,lakik,-szik,2,PR2065,1979,nő,nem,2022-04-15_21h37.40.216,hesp_baseline,2021.2.3,Win32,60.0276127
,,,,,,,,,,,,,,,,,tűgzötök,tűgöztök,right,3.6824,0,153,153,143,1,144,tűgzik / tűgözik,"tűgzik, tűgözni",tek,NA,"János imád tűgözni, ezért sokat tűgzik.",Ti ritkán...,tűgzötök,tűgöztök,cselekszik,-zik,1,PR2065,1979,nő,nem,2022-04-15_21h37.40.216,hesp_baseline,2021.2.3,Win32,60.0276127
,,,,,,,,,,,,,,,,,mülőrzünk,mülőrözünk,left,6.4314,0,154,154,120,1,121,mülőrzik / mülőrözik,"mülőrzik, mülőrözni",ünk,NA,"János imád mülőrözni, ezért sokat mülőrzik.",Mi ritkán...,mülőrzünk,mülőrözünk,cselekszik,-zik,2,PR2065,1979,nő,nem,2022-04-15_21h37.40.216,hesp_baseline,2021.2.3,Win32,60.0276127
,,,,,,,,,,,,,,,,,trismélnek,trismélnak,left,3.4496,0,155,155,5,1,114,trismél,trismél,nak,é,Ez itt egy trismél.,Elneveztem a kutyámat...,trismélnek,trismélnak,dzsungel,NA,NA,PR2065,1979,nő,nem,2022-04-15_21h37.40.216,hesp_baseline,2021.2.3,Win32,60.0276127
,,,,,,,,,,,,,,,,,gicéjnál,gicéjnél,right,3.3764,0,156,156,17,1,126,gicéj,gicéj,nál,é,Ez itt egy gicéj.,Nincs is jobb egy jó...,gicéjnél,gicéjnál,dzsungel,NA,NA,PR2065,1979,nő,nem,2022-04-15_21h37.40.216,hesp_baseline,2021.2.3,Win32,60.0276127
,,,,,,,,,,,,,,,,,brivepedünk,brivepszünk,right,5.3321,0,157,157,113,1,114,brivepszik / brivepedik,"brivepszik, brivepedni",ünk,NA,"János imád brivepedni, ezért sokat brivepszik.",Mi ritkán...,brivepszünk,brivepedünk,cselekszik,-szik,2,PR2065,1979,nő,nem,2022-04-15_21h37.40.216,hesp_baseline,2021.2.3,Win32,60.0276127
,,,,,,,,,,,,,,,,,sartelyben,sartelyban,left,7.3483,0,158,158,40,1,149,sartely,sartely,ban,e,Ez itt egy sartely.,Ott vagyunk a...,sartelyben,sartelyban,dzsungel,NA,NA,PR2065,1979,nő,nem,2022-04-15_21h37.40.216,hesp_baseline,2021.2.3,Win32,60.0276127
,,,,,,,,,,,,,,,,,kláragodtok,kláragszotok,left,23.0916,0,159,159,123,1,124,kláragszik / kláragodik,"kláragszik, kláragodni",tek,NA,"János imád kláragodni, ezért sokat kláragszik.",Ti ritkán...,kláragszotok,kláragodtok,cselekszik,-szik,2,PR2065,1979,nő,nem,2022-04-15_21h37.40.216,hesp_baseline,2021.2.3,Win32,60.0276127
,,,,,,,,,,,,,,,,,kléglünk,klégezünk,left,16.812,0,160,160,122,1,123,kléglik / klégezik,"kléglik, klégezni",ünk,NA,"János imád klégezni, ezért sokat kléglik.",Mi ritkán...,kléglünk,klégezünk,cselekszik,-lik,1,PR2065,1979,nő,nem,2022-04-15_21h37.40.216,hesp_baseline,2021.2.3,Win32,60.0276127
,,,,,,,,,,,,,,,,,murdesnál,murdesnél,right,2.9826,0,161,161,47,1,156,murdes,murdes,nál,e,Ez itt egy murdes.,Nincs is jobb egy jó...,murdesnél,murdesnál,dzsungel,NA,NA,PR2065,1979,nő,nem,2022-04-15_21h37.40.216,hesp_baseline,2021.2.3,Win32,60.0276127
