my_list,key.keys,key.rt,key_2.keys,key_2.rt,keyboard_input_2.keys,keyboard_input_2.rt,key_3.keys,key_3.rt,keyboard_input_3.keys,keyboard_input_3.rt,key_4.keys,key_4.rt,keyboard_input_4.keys,keyboard_input_4.rt,key_5.keys,key_5.rt,my_button1,my_button2,keyboard_input.keys,keyboard_input.rt,withinBlock.thisRepN,withinBlock.thisTrialN,withinBlock.thisN,withinBlock.thisIndex,withinBlock.ran,rowname,word,prompt,suffix,vowel,carrier_sentence,target_sentence,target1,target2,category,derivational,nsyl,Azonosító,Melyik évben születtél?,Mi a nemed?,Tanultál nyelvészetet?,date,expName,psychopyVersion,OS,frameRate
list2.csv,space,14.037,space,9.539,left,9.89,space,16.725,left,3.668,space,8.834,right,13.595,space,16.302,frivamlunk,frivamozunk,right,8.83,0,0,0,122,1,69,frivamlik / frivamozik,"frivamlik, frivamozni",ünk,NA,"János imád frivamozni, ezért sokat frivamlik.",Mi ritkán...,frivamlunk,frivamozunk,cselekszik,-lik,2,PR2051,2001,nő,nem,2022-04-13_19h01.14.949,hesp_baseline,2021.2.3,Win32,100
,,,,,,,,,,,,,,,,,sprízemnél,sprízemnál,left,5.465,0,1,1,22,1,77,sprízem,sprízem,nál,e,Ez itt egy sprízem.,Nincs is jobb egy jó...,sprízemnél,sprízemnál,dzsungel,NA,NA,PR2051,2001,nő,nem,2022-04-13_19h01.14.949,hesp_baseline,2021.2.3,Win32,100
,,,,,,,,,,,,,,,,,gilárzok,gilárzom,right,9.605,0,2,2,94,1,95,gilárzik,gilárzol,NA,NA,Te bizony sokat gilárzol.,Én is sokat...,gilárzok,gilárzom,lakik,-zik,2,PR2051,2001,nő,nem,2022-04-13_19h01.14.949,hesp_baseline,2021.2.3,Win32,100
,,,,,,,,,,,,,,,,,bribékszetek,bribékedtek,right,7.396,0,3,3,141,1,88,bribékszik / bribékedik,"bribékszik, bribékedni",tek,NA,"János imád bribékedni, ezért sokat bribékszik.",Ti ritkán...,bribékszetek,bribékedtek,cselekszik,-szik,2,PR2051,2001,nő,nem,2022-04-13_19h01.14.949,hesp_baseline,2021.2.3,Win32,100
,,,,,,,,,,,,,,,,,spátennek,spátennak,left,3.877,0,4,4,33,1,88,spáten,spáten,nak,e,Ez itt egy spáten.,Elneveztem a kutyámat...,spátennek,spátennak,dzsungel,NA,NA,PR2051,2001,nő,nem,2022-04-13_19h01.14.949,hesp_baseline,2021.2.3,Win32,100
,,,,,,,,,,,,,,,,,nyametban,nyametben,left,5.502,0,5,5,17,1,72,nyamet,nyamet,ban,e,Ez itt egy nyamet.,Ott vagyunk a...,nyametben,nyametban,dzsungel,NA,NA,PR2051,2001,nő,nem,2022-04-13_19h01.14.949,hesp_baseline,2021.2.3,Win32,100
,,,,,,,,,,,,,,,,,huroslok,huroslom,left,4.658,0,6,6,76,1,77,huroslik,huroslasz,NA,NA,Te bizony sokat huroslasz.,Én is sokat...,huroslok,huroslom,lakik,-lik,2,PR2051,2001,nő,nem,2022-04-13_19h01.14.949,hesp_baseline,2021.2.3,Win32,100
,,,,,,,,,,,,,,,,,csintékben,csintékban,left,4.421,0,7,7,23,1,78,csinték,csinték,ban,é,Ez itt egy csinték.,Ott vagyunk a...,csintékben,csintékban,dzsungel,NA,NA,PR2051,2001,nő,nem,2022-04-13_19h01.14.949,hesp_baseline,2021.2.3,Win32,100
,,,,,,,,,,,,,,,,,csimennél,csimennál,left,4.925,0,8,8,44,1,99,csimen,csimen,nál,e,Ez itt egy csimen.,Nincs is jobb egy jó...,csimennél,csimennál,dzsungel,NA,NA,PR2051,2001,nő,nem,2022-04-13_19h01.14.949,hesp_baseline,2021.2.3,Win32,100
,,,,,,,,,,,,,,,,,flézletek,flézeztek,right,20.761,0,9,9,134,1,81,flézlik / flézezik,"flézlik, flézezni",tek,NA,"János imád flézezni, ezért sokat flézlik.",Ti ritkán...,flézletek,flézeztek,cselekszik,-lik,1,PR2051,2001,nő,nem,2022-04-13_19h01.14.949,hesp_baseline,2021.2.3,Win32,100
,,,,,,,,,,,,,,,,,flátszom,flátszok,left,9.106,0,10,10,98,1,99,flátszik,flátszol,NA,NA,Te bizony sokat flátszol.,Én is sokat...,flátszok,flátszom,lakik,-szik,1,PR2051,2001,nő,nem,2022-04-13_19h01.14.949,hesp_baseline,2021.2.3,Win32,100
,,,,,,,,,,,,,,,,,lorjódzok,lorjódzom,left,8.615,0,11,11,88,1,89,lorjódzik,lorjódzol,NA,NA,Te bizony sokat lorjódzol.,Én is sokat...,lorjódzok,lorjódzom,lakik,-zik,2,PR2051,2001,nő,nem,2022-04-13_19h01.14.949,hesp_baseline,2021.2.3,Win32,100
,,,,,,,,,,,,,,,,,sojzom,sojzok,right,4.78,0,12,12,74,1,75,sojzik,sojzol,NA,NA,Te bizony sokat sojzol.,Én is sokat...,sojzok,sojzom,lakik,-zik,1,PR2051,2001,nő,nem,2022-04-13_19h01.14.949,hesp_baseline,2021.2.3,Win32,100
,,,,,,,,,,,,,,,,,trugoznak,trugzanak,left,5.742,0,13,13,146,1,93,trugzik / trugozik,"trugzik, trugozni",nek,NA,"János imád trugozni, ezért sokat trugzik.",Ők ritkán...,trugzanak,trugoznak,cselekszik,-zik,1,PR2051,2001,nő,nem,2022-04-13_19h01.14.949,hesp_baseline,2021.2.3,Win32,100
,,,,,,,,,,,,,,,,,molodtok,molszotok,right,11.915,0,14,14,142,1,89,molszik / molodik,"molszik, molodni",tek,NA,"János imád molodni, ezért sokat molszik.",Ti ritkán...,molszotok,molodtok,cselekszik,-szik,1,PR2051,2001,nő,nem,2022-04-13_19h01.14.949,hesp_baseline,2021.2.3,Win32,100
,,,,,,,,,,,,,,,,,nyábétben,nyábétban,right,7.739,0,15,15,21,1,76,nyábét,nyábét,ban,é,Ez itt egy nyábét.,Ott vagyunk a...,nyábétben,nyábétban,dzsungel,NA,NA,PR2051,2001,nő,nem,2022-04-13_19h01.14.949,hesp_baseline,2021.2.3,Win32,100
,,,,,,,,,,,,,,,,,sporzemnek,sporzemnak,left,5.582,0,16,16,26,1,81,sporzem,sporzem,nak,e,Ez itt egy sporzem.,Elneveztem a kutyámat...,sporzemnek,sporzemnak,dzsungel,NA,NA,PR2051,2001,nő,nem,2022-04-13_19h01.14.949,hesp_baseline,2021.2.3,Win32,100
,,,,,,,,,,,,,,,,,ribegzek,ribegzem,left,8.426,0,17,17,63,1,64,ribegzik,ribegzel,NA,NA,Te bizony sokat ribegzel.,Én is sokat...,ribegzek,ribegzem,lakik,-zik,2,PR2051,2001,nő,nem,2022-04-13_19h01.14.949,hesp_baseline,2021.2.3,Win32,100
,,,,,,,,,,,,,,,,,poslotok,posoztok,left,22.667,0,18,18,121,1,68,poslik / posozik,"poslik, posozni",tek,NA,"János imád posozni, ezért sokat poslik.",Ti ritkán...,poslotok,posoztok,cselekszik,-lik,1,PR2051,2001,nő,nem,2022-04-13_19h01.14.949,hesp_baseline,2021.2.3,Win32,100
,,,,,,,,,,,,,,,,,klidlok,klidlom,left,7.549,0,19,19,72,1,73,klidlik,klidlasz,NA,NA,Te bizony sokat klidlasz.,Én is sokat...,klidlok,klidlom,lakik,-lik,1,PR2051,2001,nő,nem,2022-04-13_19h01.14.949,hesp_baseline,2021.2.3,Win32,100
,,,,,,,,,,,,,,,,,dóbemnak,dóbemnek,left,9.234,0,20,20,48,1,103,dóbem,dóbem,nak,e,Ez itt egy dóbem.,Elneveztem a kutyámat...,dóbemnek,dóbemnak,dzsungel,NA,NA,PR2051,2001,nő,nem,2022-04-13_19h01.14.949,hesp_baseline,2021.2.3,Win32,100
,,,,,,,,,,,,,,,,,dárakodunk,dárakszunk,left,5.63,0,21,21,126,1,73,dárakszik / dárakodik,"dárakszik, dárakodni",ünk,NA,"János imád dárakodni, ezért sokat dárakszik.",Mi ritkán...,dárakszunk,dárakodunk,cselekszik,-szik,2,PR2051,2001,nő,nem,2022-04-13_19h01.14.949,hesp_baseline,2021.2.3,Win32,100
,,,,,,,,,,,,,,,,,pratelynek,pratelynak,left,9.863,0,22,22,47,1,102,prately,prately,nak,e,Ez itt egy prately.,Elneveztem a kutyámat...,pratelynek,pratelynak,dzsungel,NA,NA,PR2051,2001,nő,nem,2022-04-13_19h01.14.949,hesp_baseline,2021.2.3,Win32,100
,,,,,,,,,,,,,,,,,tribejeztek,tribejletek,left,6.49,0,23,23,132,1,79,tribejlik / tribejezik,"tribejlik, tribejezni",tek,NA,"János imád tribejezni, ezért sokat tribejlik.",Ti ritkán...,tribejletek,tribejeztek,cselekszik,-lik,2,PR2051,2001,nő,nem,2022-04-13_19h01.14.949,hesp_baseline,2021.2.3,Win32,100
,,,,,,,,,,,,,,,,,brágédnak,brágédnek,left,5.585,0,24,24,45,1,100,brágéd,brágéd,nak,é,Ez itt egy brágéd.,Elneveztem a kutyámat...,brágédnek,brágédnak,dzsungel,NA,NA,PR2051,2001,nő,nem,2022-04-13_19h01.14.949,hesp_baseline,2021.2.3,Win32,100
,,,,,,,,,,,,,,,,,gyihegzetek,gyihegeztek,right,9.019,0,25,25,124,1,71,gyihegzik / gyihegezik,"gyihegzik, gyihegezni",tek,NA,"János imád gyihegezni, ezért sokat gyihegzik.",Ti ritkán...,gyihegzetek,gyihegeztek,cselekszik,-zik,2,PR2051,2001,nő,nem,2022-04-13_19h01.14.949,hesp_baseline,2021.2.3,Win32,100
,,,,,,,,,,,,,,,,,míjozunk,míjzunk,left,5.623,0,26,26,114,1,61,míjzik / míjozik,"míjzik, míjozni",ünk,NA,"János imád míjozni, ezért sokat míjzik.",Mi ritkán...,míjzunk,míjozunk,cselekszik,-zik,1,PR2051,2001,nő,nem,2022-04-13_19h01.14.949,hesp_baseline,2021.2.3,Win32,100
,,,,,,,,,,,,,,,,,figlok,figlom,right,11.636,0,27,27,75,1,76,figlik,figlasz,NA,NA,Te bizony sokat figlasz.,Én is sokat...,figlok,figlom,lakik,-lik,1,PR2051,2001,nő,nem,2022-04-13_19h01.14.949,hesp_baseline,2021.2.3,Win32,100
,,,,,,,,,,,,,,,,,ronvetnek,ronvetnak,left,4.899,0,28,28,9,1,64,ronvet,ronvet,nak,e,Ez itt egy ronvet.,Elneveztem a kutyámat...,ronvetnek,ronvetnak,dzsungel,NA,NA,PR2051,2001,nő,nem,2022-04-13_19h01.14.949,hesp_baseline,2021.2.3,Win32,100
,,,,,,,,,,,,,,,,,flibekszek,flibekszem,left,8.303,0,29,29,93,1,94,flibekszik,flibekszel,NA,NA,Te bizony sokat flibekszel.,Én is sokat...,flibekszek,flibekszem,lakik,-szik,2,PR2051,2001,nő,nem,2022-04-13_19h01.14.949,hesp_baseline,2021.2.3,Win32,100
,,,,,,,,,,,,,,,,,fröjözünk,fröjlünk,left,8.842,0,30,30,117,1,64,fröjlik / fröjözik,"fröjlik, fröjözni",ünk,NA,"János imád fröjözni, ezért sokat fröjlik.",Mi ritkán...,fröjlünk,fröjözünk,cselekszik,-lik,1,PR2051,2001,nő,nem,2022-04-13_19h01.14.949,hesp_baseline,2021.2.3,Win32,100
,,,,,,,,,,,,,,,,,spizecnak,spizecnek,left,12.282,0,31,31,6,1,61,spizec,spizec,nak,e,Ez itt egy spizec.,Elneveztem a kutyámat...,spizecnek,spizecnak,dzsungel,NA,NA,PR2051,2001,nő,nem,2022-04-13_19h01.14.949,hesp_baseline,2021.2.3,Win32,100
,,,,,,,,,,,,,,,,,tranékben,tranékban,right,12.004,0,32,32,2,1,57,tranék,tranék,ban,é,Ez itt egy tranék.,Ott vagyunk a...,tranékben,tranékban,dzsungel,NA,NA,PR2051,2001,nő,nem,2022-04-13_19h01.14.949,hesp_baseline,2021.2.3,Win32,100
,,,,,,,,,,,,,,,,,metégednek,metégszenek,left,6.282,0,33,33,112,1,59,metégszik / metégedik,"metégszik, metégedni",nek,NA,"János imád metégedni, ezért sokat metégszik.",Ők ritkán...,metégszenek,metégednek,cselekszik,-szik,2,PR2051,2001,nő,nem,2022-04-13_19h01.14.949,hesp_baseline,2021.2.3,Win32,100
,,,,,,,,,,,,,,,,,jábézban,jábézben,left,3.773,0,34,34,34,1,89,jábéz,jábéz,ban,é,Ez itt egy jábéz.,Ott vagyunk a...,jábézben,jábézban,dzsungel,NA,NA,PR2051,2001,nő,nem,2022-04-13_19h01.14.949,hesp_baseline,2021.2.3,Win32,100
,,,,,,,,,,,,,,,,,brivegzem,brivegzek,left,3.629,0,35,35,70,1,71,brivegzik,brivegzel,NA,NA,Te bizony sokat brivegzel.,Én is sokat...,brivegzek,brivegzem,lakik,-zik,2,PR2051,2001,nő,nem,2022-04-13_19h01.14.949,hesp_baseline,2021.2.3,Win32,100
,,,,,,,,,,,,,,,,,sprigzotok,sprigoztok,right,10.039,0,36,36,129,1,76,sprigzik / sprigozik,"sprigzik, sprigozni",tek,NA,"János imád sprigozni, ezért sokat sprigzik.",Ti ritkán...,sprigzotok,sprigoztok,cselekszik,-zik,1,PR2051,2001,nő,nem,2022-04-13_19h01.14.949,hesp_baseline,2021.2.3,Win32,100
,,,,,,,,,,,,,,,,,fojlegynek,fojlegynak,left,4.967,0,37,37,3,1,58,fojlegy,fojlegy,nak,e,Ez itt egy fojlegy.,Elneveztem a kutyámat...,fojlegynek,fojlegynak,dzsungel,NA,NA,PR2051,2001,nő,nem,2022-04-13_19h01.14.949,hesp_baseline,2021.2.3,Win32,100
,,,,,,,,,,,,,,,,,dingecnek,dingecnak,right,11.79,0,38,38,42,1,97,dingec,dingec,nak,e,Ez itt egy dingec.,Elneveztem a kutyámat...,dingecnek,dingecnak,dzsungel,NA,NA,PR2051,2001,nő,nem,2022-04-13_19h01.14.949,hesp_baseline,2021.2.3,Win32,100
,,,,,,,,,,,,,,,,,floglok,floglom,right,5.231,0,39,39,92,1,93,floglik,floglasz,NA,NA,Te bizony sokat floglasz.,Én is sokat...,floglok,floglom,lakik,-lik,1,PR2051,2001,nő,nem,2022-04-13_19h01.14.949,hesp_baseline,2021.2.3,Win32,100
,,,,,,,,,,,,,,,,,klazérban,klazérben,left,6.087,0,40,40,51,1,106,klazér,klazér,ban,é,Ez itt egy klazér.,Ott vagyunk a...,klazérben,klazérban,dzsungel,NA,NA,PR2051,2001,nő,nem,2022-04-13_19h01.14.949,hesp_baseline,2021.2.3,Win32,100
,,,,,,,,,,,,,,,,,dilakoztok,dilaklotok,left,4.953,0,41,41,158,1,105,dilaklik / dilakozik,"dilaklik, dilakozni",tek,NA,"János imád dilakozni, ezért sokat dilaklik.",Ti ritkán...,dilaklotok,dilakoztok,cselekszik,-lik,2,PR2051,2001,nő,nem,2022-04-13_19h01.14.949,hesp_baseline,2021.2.3,Win32,100
,,,,,,,,,,,,,,,,,bivégszem,bivégszek,left,3.122,0,42,42,68,1,69,bivégszik,bivégszel,NA,NA,Te bizony sokat bivégszel.,Én is sokat...,bivégszek,bivégszem,lakik,-szik,2,PR2051,2001,nő,nem,2022-04-13_19h01.14.949,hesp_baseline,2021.2.3,Win32,100
,,,,,,,,,,,,,,,,,fibamlom,fibamlok,right,4.364,0,43,43,65,1,66,fibamlik,fibamlasz,NA,NA,Te bizony sokat fibamlasz.,Én is sokat...,fibamlok,fibamlom,lakik,-lik,2,PR2051,2001,nő,nem,2022-04-13_19h01.14.949,hesp_baseline,2021.2.3,Win32,100
,,,,,,,,,,,,,,,,,jóbecnak,jóbecnek,left,7.738,0,44,44,11,1,66,jóbec,jóbec,nak,e,Ez itt egy jóbec.,Elneveztem a kutyámat...,jóbecnek,jóbecnak,dzsungel,NA,NA,PR2051,2001,nő,nem,2022-04-13_19h01.14.949,hesp_baseline,2021.2.3,Win32,100
,,,,,,,,,,,,,,,,,nidétben,nidétban,left,5.712,0,45,45,39,1,94,nidét,nidét,ban,é,Ez itt egy nidét.,Ott vagyunk a...,nidétben,nidétban,dzsungel,NA,NA,PR2051,2001,nő,nem,2022-04-13_19h01.14.949,hesp_baseline,2021.2.3,Win32,100
,,,,,,,,,,,,,,,,,dihelynek,dihelynak,left,3.076,0,46,46,20,1,75,dihely,dihely,nak,e,Ez itt egy dihely.,Elneveztem a kutyámat...,dihelynek,dihelynak,dzsungel,NA,NA,PR2051,2001,nő,nem,2022-04-13_19h01.14.949,hesp_baseline,2021.2.3,Win32,100
,,,,,,,,,,,,,,,,,zarcégnél,zarcégnál,left,4.691,0,47,47,29,1,84,zarcég,zarcég,nál,é,Ez itt egy zarcég.,Nincs is jobb egy jó...,zarcégnél,zarcégnál,dzsungel,NA,NA,PR2051,2001,nő,nem,2022-04-13_19h01.14.949,hesp_baseline,2021.2.3,Win32,100
,,,,,,,,,,,,,,,,,frodlok,frodlom,left,3.227,0,48,48,61,1,62,frodlik,frodlasz,NA,NA,Te bizony sokat frodlasz.,Én is sokat...,frodlok,frodlom,lakik,-lik,1,PR2051,2001,nő,nem,2022-04-13_19h01.14.949,hesp_baseline,2021.2.3,Win32,100
,,,,,,,,,,,,,,,,,kátédnál,kátédnél,left,9.3,0,49,49,37,1,92,kátéd,kátéd,nál,é,Ez itt egy kátéd.,Nincs is jobb egy jó...,kátédnél,kátédnál,dzsungel,NA,NA,PR2051,2001,nő,nem,2022-04-13_19h01.14.949,hesp_baseline,2021.2.3,Win32,100
,,,,,,,,,,,,,,,,,ikszertben,ikszertban,left,5.571,0,50,50,19,1,74,ikszert,ikszert,ban,e,Ez itt egy ikszert.,Ott vagyunk a...,ikszertben,ikszertban,dzsungel,NA,NA,PR2051,2001,nő,nem,2022-04-13_19h01.14.949,hesp_baseline,2021.2.3,Win32,100
,,,,,,,,,,,,,,,,,gihamlanak,gihamoznak,left,5.201,0,51,51,133,1,80,gihamlik / gihamozik,"gihamlik, gihamozni",nek,NA,"János imád gihamozni, ezért sokat gihamlik.",Ők ritkán...,gihamlanak,gihamoznak,cselekszik,-lik,2,PR2051,2001,nő,nem,2022-04-13_19h01.14.949,hesp_baseline,2021.2.3,Win32,100
,,,,,,,,,,,,,,,,,lihadzok,lihadzom,left,4.523,0,52,52,101,1,102,lihadzik,lihadzol,NA,NA,Te bizony sokat lihadzol.,Én is sokat...,lihadzok,lihadzom,lakik,-zik,2,PR2051,2001,nő,nem,2022-04-13_19h01.14.949,hesp_baseline,2021.2.3,Win32,100
,,,,,,,,,,,,,,,,,mihágzotok,mihágoztok,right,4.987,0,53,53,118,1,65,mihágzik / mihágozik,"mihágzik, mihágozni",tek,NA,"János imád mihágozni, ezért sokat mihágzik.",Ti ritkán...,mihágzotok,mihágoztok,cselekszik,-zik,2,PR2051,2001,nő,nem,2022-04-13_19h01.14.949,hesp_baseline,2021.2.3,Win32,100
,,,,,,,,,,,,,,,,,sortemnél,sortemnál,left,4.156,0,54,54,15,1,70,sortem,sortem,nál,e,Ez itt egy sortem.,Nincs is jobb egy jó...,sortemnél,sortemnál,dzsungel,NA,NA,PR2051,2001,nő,nem,2022-04-13_19h01.14.949,hesp_baseline,2021.2.3,Win32,100
,,,,,,,,,,,,,,,,,tiregzem,tiregzek,left,3.717,0,55,55,64,1,65,tiregzik,tiregzel,NA,NA,Te bizony sokat tiregzel.,Én is sokat...,tiregzek,tiregzem,lakik,-zik,2,PR2051,2001,nő,nem,2022-04-13_19h01.14.949,hesp_baseline,2021.2.3,Win32,100
,,,,,,,,,,,,,,,,,kluzlotok,kluzoztok,right,4.814,0,56,56,148,1,95,kluzlik / kluzozik,"kluzlik, kluzozni",tek,NA,"János imád kluzozni, ezért sokat kluzlik.",Ti ritkán...,kluzlotok,kluzoztok,cselekszik,-lik,1,PR2051,2001,nő,nem,2022-04-13_19h01.14.949,hesp_baseline,2021.2.3,Win32,100
,,,,,,,,,,,,,,,,,nyüröznek,nyürzenek,left,4.452,0,57,57,123,1,70,nyürzik / nyürözik,"nyürzik, nyürözni",nek,NA,"János imád nyürözni, ezért sokat nyürzik.",Ők ritkán...,nyürzenek,nyüröznek,cselekszik,-zik,1,PR2051,2001,nő,nem,2022-04-13_19h01.14.949,hesp_baseline,2021.2.3,Win32,100
,,,,,,,,,,,,,,,,,fluboklotok,flubokoztok,left,8.811,0,58,58,151,1,98,fluboklik / flubokozik,"fluboklik, flubokozni",tek,NA,"János imád flubokozni, ezért sokat fluboklik.",Ti ritkán...,fluboklotok,flubokoztok,cselekszik,-lik,2,PR2051,2001,nő,nem,2022-04-13_19h01.14.949,hesp_baseline,2021.2.3,Win32,100
,,,,,,,,,,,,,,,,,klítegynél,klítegynál,left,3.736,0,59,59,5,1,60,klítegy,klítegy,nál,e,Ez itt egy klítegy.,Nincs is jobb egy jó...,klítegynél,klítegynál,dzsungel,NA,NA,PR2051,2001,nő,nem,2022-04-13_19h01.14.949,hesp_baseline,2021.2.3,Win32,100
,,,,,,,,,,,,,,,,,livénylünk,livényezünk,right,5.467,0,60,60,128,1,75,livénylik / livényezik,"livénylik, livényezni",ünk,NA,"János imád livényezni, ezért sokat livénylik.",Mi ritkán...,livénylünk,livényezünk,cselekszik,-lik,2,PR2051,2001,nő,nem,2022-04-13_19h01.14.949,hesp_baseline,2021.2.3,Win32,100
,,,,,,,,,,,,,,,,,pribemlem,pribemlek,right,4.166,0,61,61,107,1,108,pribemlik,pribemlesz,NA,NA,Te bizony sokat pribemlesz.,Én is sokat...,pribemlek,pribemlem,lakik,-lik,2,PR2051,2001,nő,nem,2022-04-13_19h01.14.949,hesp_baseline,2021.2.3,Win32,100
,,,,,,,,,,,,,,,,,spibeglünk,spibegezünk,right,5.558,0,62,62,147,1,94,spibeglik / spibegezik,"spibeglik, spibegezni",ünk,NA,"János imád spibegezni, ezért sokat spibeglik.",Mi ritkán...,spibeglünk,spibegezünk,cselekszik,-lik,2,PR2051,2001,nő,nem,2022-04-13_19h01.14.949,hesp_baseline,2021.2.3,Win32,100
,,,,,,,,,,,,,,,,,flüröklötök,flürököztök,right,7.688,0,63,63,149,1,96,flüröklik / flüröközik,"flüröklik, flüröközni",tek,NA,"János imád flüröközni, ezért sokat flüröklik.",Ti ritkán...,flüröklötök,flürököztök,cselekszik,-lik,2,PR2051,2001,nő,nem,2022-04-13_19h01.14.949,hesp_baseline,2021.2.3,Win32,100
,,,,,,,,,,,,,,,,,flitlok,flitlom,left,3.497,0,64,64,90,1,91,flitlik,flitlasz,NA,NA,Te bizony sokat flitlasz.,Én is sokat...,flitlok,flitlom,lakik,-lik,1,PR2051,2001,nő,nem,2022-04-13_19h01.14.949,hesp_baseline,2021.2.3,Win32,100
,,,,,,,,,,,,,,,,,klingeszban,klingeszben,left,4.276,0,65,65,1,1,56,klingesz,klingesz,ban,e,Ez itt egy klingesz.,Ott vagyunk a...,klingeszben,klingeszban,dzsungel,NA,NA,PR2051,2001,nő,nem,2022-04-13_19h01.14.949,hesp_baseline,2021.2.3,Win32,100
,,,,,,,,,,,,,,,,,drojozunk,drojzunk,left,6.932,0,66,66,140,1,87,drojzik / drojozik,"drojzik, drojozni",ünk,NA,"János imád drojozni, ezért sokat drojzik.",Mi ritkán...,drojzunk,drojozunk,cselekszik,-zik,1,PR2051,2001,nő,nem,2022-04-13_19h01.14.949,hesp_baseline,2021.2.3,Win32,100
,,,,,,,,,,,,,,,,,frésezünk,fréslünk,left,6.513,0,67,67,138,1,85,fréslik / frésezik,"fréslik, frésezni",ünk,NA,"János imád frésezni, ezért sokat fréslik.",Mi ritkán...,fréslünk,frésezünk,cselekszik,-lik,1,PR2051,2001,nő,nem,2022-04-13_19h01.14.949,hesp_baseline,2021.2.3,Win32,100
,,,,,,,,,,,,,,,,,fröjöztök,fröjzötök,left,8.403,0,68,68,153,1,100,fröjzik / fröjözik,"fröjzik, fröjözni",tek,NA,"János imád fröjözni, ezért sokat fröjzik.",Ti ritkán...,fröjzötök,fröjöztök,cselekszik,-zik,1,PR2051,2001,nő,nem,2022-04-13_19h01.14.949,hesp_baseline,2021.2.3,Win32,100
,,,,,,,,,,,,,,,,,prazozunk,prazlunk,left,4.877,0,69,69,119,1,66,prazlik / prazozik,"prazlik, prazozni",ünk,NA,"János imád prazozni, ezért sokat prazlik.",Mi ritkán...,prazlunk,prazozunk,cselekszik,-lik,1,PR2051,2001,nő,nem,2022-04-13_19h01.14.949,hesp_baseline,2021.2.3,Win32,100
,,,,,,,,,,,,,,,,,sprebzenek,sprebeznek,left,9.95,0,70,70,139,1,86,sprebzik / sprebezik,"sprebzik, sprebezni",nek,NA,"János imád sprebezni, ezért sokat sprebzik.",Ők ritkán...,sprebzenek,sprebeznek,cselekszik,-zik,1,PR2051,2001,nő,nem,2022-04-13_19h01.14.949,hesp_baseline,2021.2.3,Win32,100
,,,,,,,,,,,,,,,,,csólorzom,csólorzok,left,5.546,0,71,71,102,1,103,csólorzik,csólorzol,NA,NA,Te bizony sokat csólorzol.,Én is sokat...,csólorzok,csólorzom,lakik,-zik,2,PR2051,2001,nő,nem,2022-04-13_19h01.14.949,hesp_baseline,2021.2.3,Win32,100
,,,,,,,,,,,,,,,,,zutennél,zutennál,left,4.356,0,72,72,43,1,98,zuten,zuten,nál,e,Ez itt egy zuten.,Nincs is jobb egy jó...,zutennél,zutennál,dzsungel,NA,NA,PR2051,2001,nő,nem,2022-04-13_19h01.14.949,hesp_baseline,2021.2.3,Win32,100
,,,,,,,,,,,,,,,,,forzédnak,forzédnek,left,4.716,0,73,73,46,1,101,forzéd,forzéd,nak,é,Ez itt egy forzéd.,Elneveztem a kutyámat...,forzédnek,forzédnak,dzsungel,NA,NA,PR2051,2001,nő,nem,2022-04-13_19h01.14.949,hesp_baseline,2021.2.3,Win32,100
,,,,,,,,,,,,,,,,,flűmlöm,flűmlök,left,3.608,0,74,74,54,1,55,flűmlik,flűmlesz,NA,NA,Te bizony sokat flűmlesz.,Én is sokat...,flűmlök,flűmlöm,lakik,-lik,1,PR2051,2001,nő,nem,2022-04-13_19h01.14.949,hesp_baseline,2021.2.3,Win32,100
,,,,,,,,,,,,,,,,,szűslöm,szűslök,left,3.593,0,75,75,85,1,86,szűslik,szűslesz,NA,NA,Te bizony sokat szűslesz.,Én is sokat...,szűslök,szűslöm,lakik,-lik,1,PR2051,2001,nő,nem,2022-04-13_19h01.14.949,hesp_baseline,2021.2.3,Win32,100
,,,,,,,,,,,,,,,,,júdernak,júdernek,left,3.765,0,76,76,53,1,108,júder,júder,nak,e,Ez itt egy júder.,Elneveztem a kutyámat...,júdernek,júdernak,dzsungel,NA,NA,PR2051,2001,nő,nem,2022-04-13_19h01.14.949,hesp_baseline,2021.2.3,Win32,100
,,,,,,,,,,,,,,,,,kumlom,kumlok,left,3.81,0,77,77,105,1,106,kumlik,kumlasz,NA,NA,Te bizony sokat kumlasz.,Én is sokat...,kumlok,kumlom,lakik,-lik,1,PR2051,2001,nő,nem,2022-04-13_19h01.14.949,hesp_baseline,2021.2.3,Win32,100
,,,,,,,,,,,,,,,,,játlunk,játozunk,left,11.328,0,78,78,145,1,92,játlik / játozik,"játlik, játozni",ünk,NA,"János imád játozni, ezért sokat játlik.",Mi ritkán...,játlunk,játozunk,cselekszik,-lik,1,PR2051,2001,nő,nem,2022-04-13_19h01.14.949,hesp_baseline,2021.2.3,Win32,100
,,,,,,,,,,,,,,,,,dineltban,dineltben,left,3.558,0,79,79,0,1,55,dinelt,dinelt,ban,e,Ez itt egy dinelt.,Ott vagyunk a...,dineltben,dineltban,dzsungel,NA,NA,PR2051,2001,nő,nem,2022-04-13_19h01.14.949,hesp_baseline,2021.2.3,Win32,100
,,,,,,,,,,,,,,,,,csíszlok,csíszlom,left,5.8,0,80,80,84,1,85,csíszlik,csíszlasz,NA,NA,Te bizony sokat csíszlasz.,Én is sokat...,csíszlok,csíszlom,lakik,-lik,1,PR2051,2001,nő,nem,2022-04-13_19h01.14.949,hesp_baseline,2021.2.3,Win32,100
,,,,,,,,,,,,,,,,,spiharzotok,spiharoztok,right,5.608,0,81,81,127,1,74,spiharzik / spiharozik,"spiharzik, spiharozni",tek,NA,"János imád spiharozni, ezért sokat spiharzik.",Ti ritkán...,spiharzotok,spiharoztok,cselekszik,-zik,2,PR2051,2001,nő,nem,2022-04-13_19h01.14.949,hesp_baseline,2021.2.3,Win32,100
,,,,,,,,,,,,,,,,,tumélynál,tumélynél,left,3.661,0,82,82,28,1,83,tumély,tumély,nál,é,Ez itt egy tumély.,Nincs is jobb egy jó...,tumélynél,tumélynál,dzsungel,NA,NA,PR2051,2001,nő,nem,2022-04-13_19h01.14.949,hesp_baseline,2021.2.3,Win32,100
,,,,,,,,,,,,,,,,,branyoznak,branylanak,left,4.531,0,83,83,136,1,83,branylik / branyozik,"branylik, branyozni",nek,NA,"János imád branyozni, ezért sokat branylik.",Ők ritkán...,branylanak,branyoznak,cselekszik,-lik,1,PR2051,2001,nő,nem,2022-04-13_19h01.14.949,hesp_baseline,2021.2.3,Win32,100
,,,,,,,,,,,,,,,,,lingéknál,lingéknél,left,7.923,0,84,84,32,1,87,lingék,lingék,nál,é,Ez itt egy lingék.,Nincs is jobb egy jó...,lingéknél,lingéknál,dzsungel,NA,NA,PR2051,2001,nő,nem,2022-04-13_19h01.14.949,hesp_baseline,2021.2.3,Win32,100
,,,,,,,,,,,,,,,,,nyöböznek,nyöbzenek,left,4.249,0,85,85,152,1,99,nyöbzik / nyöbözik,"nyöbzik, nyöbözni",nek,NA,"János imád nyöbözni, ezért sokat nyöbzik.",Ők ritkán...,nyöbzenek,nyöböznek,cselekszik,-zik,1,PR2051,2001,nő,nem,2022-04-13_19h01.14.949,hesp_baseline,2021.2.3,Win32,100
,,,,,,,,,,,,,,,,,spöközünk,spöklünk,left,4.177,0,86,86,130,1,77,spöklik / spöközik,"spöklik, spöközni",ünk,NA,"János imád spöközni, ezért sokat spöklik.",Mi ritkán...,spöklünk,spöközünk,cselekszik,-lik,1,PR2051,2001,nő,nem,2022-04-13_19h01.14.949,hesp_baseline,2021.2.3,Win32,100
,,,,,,,,,,,,,,,,,nyádlanak,nyádoznak,left,6.418,0,87,87,120,1,67,nyádlik / nyádozik,"nyádlik, nyádozni",nek,NA,"János imád nyádozni, ezért sokat nyádlik.",Ők ritkán...,nyádlanak,nyádoznak,cselekszik,-lik,1,PR2051,2001,nő,nem,2022-04-13_19h01.14.949,hesp_baseline,2021.2.3,Win32,100
,,,,,,,,,,,,,,,,,fupétnél,fupétnál,right,8.969,0,88,88,14,1,69,fupét,fupét,nál,é,Ez itt egy fupét.,Nincs is jobb egy jó...,fupétnél,fupétnál,dzsungel,NA,NA,PR2051,2001,nő,nem,2022-04-13_19h01.14.949,hesp_baseline,2021.2.3,Win32,100
,,,,,,,,,,,,,,,,,fligzok,fligzom,right,2.874,0,89,89,103,1,104,fligzik,fligzol,NA,NA,Te bizony sokat fligzol.,Én is sokat...,fligzok,fligzom,lakik,-zik,1,PR2051,2001,nő,nem,2022-04-13_19h01.14.949,hesp_baseline,2021.2.3,Win32,100
,,,,,,,,,,,,,,,,,ruslok,ruslom,right,2.771,0,90,90,83,1,84,ruslik,ruslasz,NA,NA,Te bizony sokat ruslasz.,Én is sokat...,ruslok,ruslom,lakik,-lik,1,PR2051,2001,nő,nem,2022-04-13_19h01.14.949,hesp_baseline,2021.2.3,Win32,100
,,,,,,,,,,,,,,,,,garcépnél,garcépnál,right,5.312,0,91,91,38,1,93,garcép,garcép,nál,é,Ez itt egy garcép.,Nincs is jobb egy jó...,garcépnél,garcépnál,dzsungel,NA,NA,PR2051,2001,nő,nem,2022-04-13_19h01.14.949,hesp_baseline,2021.2.3,Win32,100
,,,,,,,,,,,,,,,,,klűmöztök,klűmlötök,left,5.098,0,92,92,108,1,55,klűmlik / klűmözik,"klűmlik, klűmözni",tek,NA,"János imád klűmözni, ezért sokat klűmlik.",Ti ritkán...,klűmlötök,klűmöztök,cselekszik,-lik,1,PR2051,2001,nő,nem,2022-04-13_19h01.14.949,hesp_baseline,2021.2.3,Win32,100
,,,,,,,,,,,,,,,,,pivegszem,pivegszek,left,4.528,0,93,93,99,1,100,pivegszik,pivegszel,NA,NA,Te bizony sokat pivegszel.,Én is sokat...,pivegszek,pivegszem,lakik,-szik,2,PR2051,2001,nő,nem,2022-04-13_19h01.14.949,hesp_baseline,2021.2.3,Win32,100
,,,,,,,,,,,,,,,,,kalrézban,kalrézben,left,7.287,0,94,94,16,1,71,kalréz,kalréz,ban,é,Ez itt egy kalréz.,Ott vagyunk a...,kalrézben,kalrézban,dzsungel,NA,NA,PR2051,2001,nő,nem,2022-04-13_19h01.14.949,hesp_baseline,2021.2.3,Win32,100
,,,,,,,,,,,,,,,,,tosélyben,tosélyban,right,6.021,0,95,95,25,1,80,tosély,tosély,ban,é,Ez itt egy tosély.,Ott vagyunk a...,tosélyben,tosélyban,dzsungel,NA,NA,PR2051,2001,nő,nem,2022-04-13_19h01.14.949,hesp_baseline,2021.2.3,Win32,100
,,,,,,,,,,,,,,,,,prilepszünk,prilepedünk,left,7.289,0,96,96,161,1,108,prilepszik / prilepedik,"prilepszik, prilepedni",ünk,NA,"János imád prilepedni, ezért sokat prilepszik.",Mi ritkán...,prilepszünk,prilepedünk,cselekszik,-szik,2,PR2051,2001,nő,nem,2022-04-13_19h01.14.949,hesp_baseline,2021.2.3,Win32,100
,,,,,,,,,,,,,,,,,pratánylom,pratánylok,left,3.996,0,97,97,95,1,96,pratánylik,pratánylasz,NA,NA,Te bizony sokat pratánylasz.,Én is sokat...,pratánylok,pratánylom,lakik,-lik,2,PR2051,2001,nő,nem,2022-04-13_19h01.14.949,hesp_baseline,2021.2.3,Win32,100
,,,,,,,,,,,,,,,,,dibágoztok,dibáglotok,left,4.693,0,98,98,154,1,101,dibáglik / dibágozik,"dibáglik, dibágozni",tek,NA,"János imád dibágozni, ezért sokat dibáglik.",Ti ritkán...,dibáglotok,dibágoztok,cselekszik,-lik,2,PR2051,2001,nő,nem,2022-04-13_19h01.14.949,hesp_baseline,2021.2.3,Win32,100
,,,,,,,,,,,,,,,,,csubzunk,csubozunk,left,8.829,0,99,99,111,1,58,csubzik / csubozik,"csubzik, csubozni",ünk,NA,"János imád csubozni, ezért sokat csubzik.",Mi ritkán...,csubzunk,csubozunk,cselekszik,-zik,1,PR2051,2001,nő,nem,2022-04-13_19h01.14.949,hesp_baseline,2021.2.3,Win32,100
,,,,,,,,,,,,,,,,,juszlom,juszlok,left,2.519,0,100,100,79,1,80,juszlik,juszlasz,NA,NA,Te bizony sokat juszlasz.,Én is sokat...,juszlok,juszlom,lakik,-lik,1,PR2051,2001,nő,nem,2022-04-13_19h01.14.949,hesp_baseline,2021.2.3,Win32,100
,,,,,,,,,,,,,,,,,pítendban,pítendben,right,5.08,0,101,101,18,1,73,pítend,pítend,ban,e,Ez itt egy pítend.,Ott vagyunk a...,pítendben,pítendban,dzsungel,NA,NA,PR2051,2001,nő,nem,2022-04-13_19h01.14.949,hesp_baseline,2021.2.3,Win32,100
,,,,,,,,,,,,,,,,,töglenek,tögöznek,left,4.376,0,102,102,156,1,103,töglik / tögözik,"töglik, tögözni",nek,NA,"János imád tögözni, ezért sokat töglik.",Ők ritkán...,töglenek,tögöznek,cselekszik,-lik,1,PR2051,2001,nő,nem,2022-04-13_19h01.14.949,hesp_baseline,2021.2.3,Win32,100
,,,,,,,,,,,,,,,,,friszlom,friszlok,left,2.499,0,103,103,97,1,98,friszlik,friszlasz,NA,NA,Te bizony sokat friszlasz.,Én is sokat...,friszlok,friszlom,lakik,-lik,1,PR2051,2001,nő,nem,2022-04-13_19h01.14.949,hesp_baseline,2021.2.3,Win32,100
,,,,,,,,,,,,,,,,,flemezünk,flemlünk,left,8.769,0,104,104,137,1,84,flemlik / flemezik,"flemlik, flemezni",ünk,NA,"János imád flemezni, ezért sokat flemlik.",Mi ritkán...,flemlünk,flemezünk,cselekszik,-lik,1,PR2051,2001,nő,nem,2022-04-13_19h01.14.949,hesp_baseline,2021.2.3,Win32,100
,,,,,,,,,,,,,,,,,plugzom,plugzok,left,2.937,0,105,105,60,1,61,plugzik,plugzol,NA,NA,Te bizony sokat plugzol.,Én is sokat...,plugzok,plugzom,lakik,-zik,1,PR2051,2001,nő,nem,2022-04-13_19h01.14.949,hesp_baseline,2021.2.3,Win32,100
,,,,,,,,,,,,,,,,,flodlotok,flodoztok,left,5.466,0,106,106,144,1,91,flodlik / flodozik,"flodlik, flodozni",tek,NA,"János imád flodozni, ezért sokat flodlik.",Ti ritkán...,flodlotok,flodoztok,cselekszik,-lik,1,PR2051,2001,nő,nem,2022-04-13_19h01.14.949,hesp_baseline,2021.2.3,Win32,100
,,,,,,,,,,,,,,,,,spatárzom,spatárzok,left,2.653,0,107,107,69,1,70,spatárzik,spatárzol,NA,NA,Te bizony sokat spatárzol.,Én is sokat...,spatárzok,spatárzom,lakik,-zik,2,PR2051,2001,nő,nem,2022-04-13_19h01.14.949,hesp_baseline,2021.2.3,Win32,100
,,,,,,,,,,,,,,,,,fivénylem,fivénylek,left,3.667,0,108,108,78,1,79,fivénylik,fivénylesz,NA,NA,Te bizony sokat fivénylesz.,Én is sokat...,fivénylek,fivénylem,lakik,-lik,2,PR2051,2001,nő,nem,2022-04-13_19h01.14.949,hesp_baseline,2021.2.3,Win32,100
,,,,,,,,,,,,,,,,,flerékedünk,flerékszünk,left,5.357,0,109,109,159,1,106,flerékszik / flerékedik,"flerékszik, flerékedni",ünk,NA,"János imád flerékedni, ezért sokat flerékszik.",Mi ritkán...,flerékszünk,flerékedünk,cselekszik,-szik,2,PR2051,2001,nő,nem,2022-04-13_19h01.14.949,hesp_baseline,2021.2.3,Win32,100
,,,,,,,,,,,,,,,,,kluhéjnál,kluhéjnél,left,4.427,0,110,110,24,1,79,kluhéj,kluhéj,nál,é,Ez itt egy kluhéj.,Nincs is jobb egy jó...,kluhéjnél,kluhéjnál,dzsungel,NA,NA,PR2051,2001,nő,nem,2022-04-13_19h01.14.949,hesp_baseline,2021.2.3,Win32,100
,,,,,,,,,,,,,,,,,zihencnak,zihencnek,right,3.497,0,111,111,52,1,107,zihenc,zihenc,nak,e,Ez itt egy zihenc.,Elneveztem a kutyámat...,zihencnek,zihencnak,dzsungel,NA,NA,PR2051,2001,nő,nem,2022-04-13_19h01.14.949,hesp_baseline,2021.2.3,Win32,100
,,,,,,,,,,,,,,,,,sprogzom,sprogzok,left,2.709,0,112,112,89,1,90,sprogzik,sprogzol,NA,NA,Te bizony sokat sprogzol.,Én is sokat...,sprogzok,sprogzom,lakik,-zik,1,PR2051,2001,nő,nem,2022-04-13_19h01.14.949,hesp_baseline,2021.2.3,Win32,100
,,,,,,,,,,,,,,,,,femlem,femlek,left,3.058,0,113,113,57,1,58,femlik,femlesz,NA,NA,Te bizony sokat femlesz.,Én is sokat...,femlek,femlem,lakik,-lik,1,PR2051,2001,nő,nem,2022-04-13_19h01.14.949,hesp_baseline,2021.2.3,Win32,100
,,,,,,,,,,,,,,,,,lijeznak,lijeznek,left,4.797,0,114,114,40,1,95,lijez,lijez,nak,e,Ez itt egy lijez.,Elneveztem a kutyámat...,lijeznek,lijeznak,dzsungel,NA,NA,PR2051,2001,nő,nem,2022-04-13_19h01.14.949,hesp_baseline,2021.2.3,Win32,100
,,,,,,,,,,,,,,,,,spüjzök,spüjzöm,left,3.557,0,115,115,59,1,60,spüjzik,spüjzöl,NA,NA,Te bizony sokat spüjzöl.,Én is sokat...,spüjzök,spüjzöm,lakik,-zik,1,PR2051,2001,nő,nem,2022-04-13_19h01.14.949,hesp_baseline,2021.2.3,Win32,100
,,,,,,,,,,,,,,,,,zsigénnél,zsigénnál,left,3.76,0,116,116,12,1,67,zsigén,zsigén,nál,é,Ez itt egy zsigén.,Nincs is jobb egy jó...,zsigénnél,zsigénnál,dzsungel,NA,NA,PR2051,2001,nő,nem,2022-04-13_19h01.14.949,hesp_baseline,2021.2.3,Win32,100
,,,,,,,,,,,,,,,,,ítensben,ítensban,right,4.856,0,117,117,50,1,105,ítens,ítens,ban,e,Ez itt egy ítens.,Ott vagyunk a...,ítensben,ítensban,dzsungel,NA,NA,PR2051,2001,nő,nem,2022-04-13_19h01.14.949,hesp_baseline,2021.2.3,Win32,100
,,,,,,,,,,,,,,,,,spáraklom,spáraklok,left,6.765,0,118,118,96,1,97,spáraklik,spáraklasz,NA,NA,Te bizony sokat spáraklasz.,Én is sokat...,spáraklok,spáraklom,lakik,-lik,2,PR2051,2001,nő,nem,2022-04-13_19h01.14.949,hesp_baseline,2021.2.3,Win32,100
,,,,,,,,,,,,,,,,,bingéjnek,bingéjnak,left,76.948,0,119,119,49,1,104,bingéj,bingéj,nak,é,Ez itt egy bingéj.,Elneveztem a kutyámat...,bingéjnek,bingéjnak,dzsungel,NA,NA,PR2051,2001,nő,nem,2022-04-13_19h01.14.949,hesp_baseline,2021.2.3,Win32,100
,,,,,,,,,,,,,,,,,spivélnek,spivélnak,left,3.637,0,120,120,27,1,82,spivél,spivél,nak,é,Ez itt egy spivél.,Elneveztem a kutyámat...,spivélnek,spivélnak,dzsungel,NA,NA,PR2051,2001,nő,nem,2022-04-13_19h01.14.949,hesp_baseline,2021.2.3,Win32,100
,,,,,,,,,,,,,,,,,flűröklöm,flűröklök,left,5.493,0,121,121,91,1,92,flűröklik,flűröklesz,NA,NA,Te bizony sokat flűröklesz.,Én is sokat...,flűröklök,flűröklöm,lakik,-lik,2,PR2051,2001,nő,nem,2022-04-13_19h01.14.949,hesp_baseline,2021.2.3,Win32,100
,,,,,,,,,,,,,,,,,hubonyoztok,hubonylotok,left,5.546,0,122,122,157,1,104,hubonylik / hubonyozik,"hubonylik, hubonyozni",tek,NA,"János imád hubonyozni, ezért sokat hubonylik.",Ti ritkán...,hubonylotok,hubonyoztok,cselekszik,-lik,2,PR2051,2001,nő,nem,2022-04-13_19h01.14.949,hesp_baseline,2021.2.3,Win32,100
,,,,,,,,,,,,,,,,,spülűdzöm,spülűdzök,left,4.332,0,123,123,56,1,57,spülűdzik,spülűdzöl,NA,NA,Te bizony sokat spülűdzöl.,Én is sokat...,spülűdzök,spülűdzöm,lakik,-zik,2,PR2051,2001,nő,nem,2022-04-13_19h01.14.949,hesp_baseline,2021.2.3,Win32,100
,,,,,,,,,,,,,,,,,sprűröznek,sprűrlenek,left,3.642,0,124,124,135,1,82,sprűrlik / sprűrözik,"sprűrlik, sprűrözni",nek,NA,"János imád sprűrözni, ezért sokat sprűrlik.",Ők ritkán...,sprűrlenek,sprűröznek,cselekszik,-lik,1,PR2051,2001,nő,nem,2022-04-13_19h01.14.949,hesp_baseline,2021.2.3,Win32,100
,,,,,,,,,,,,,,,,,péleslem,péleslek,left,5.092,0,125,125,73,1,74,péleslik,péleslesz,NA,NA,Te bizony sokat péleslesz.,Én is sokat...,péleslek,péleslem,lakik,-lik,2,PR2051,2001,nő,nem,2022-04-13_19h01.14.949,hesp_baseline,2021.2.3,Win32,100
,,,,,,,,,,,,,,,,,driládzom,driládzok,left,3.45,0,126,126,67,1,68,driládzik,driládzol,NA,NA,Te bizony sokat driládzol.,Én is sokat...,driládzok,driládzom,lakik,-zik,2,PR2051,2001,nő,nem,2022-04-13_19h01.14.949,hesp_baseline,2021.2.3,Win32,100
,,,,,,,,,,,,,,,,,cságyeltben,cságyeltban,left,4.146,0,127,127,10,1,65,cságyelt,cságyelt,ban,e,Ez itt egy cságyelt.,Ott vagyunk a...,cságyeltben,cságyeltban,dzsungel,NA,NA,PR2051,2001,nő,nem,2022-04-13_19h01.14.949,hesp_baseline,2021.2.3,Win32,100
,,,,,,,,,,,,,,,,,navecben,navecban,left,5.212,0,128,128,8,1,63,navec,navec,ban,e,Ez itt egy navec.,Ott vagyunk a...,navecben,navecban,dzsungel,NA,NA,PR2051,2001,nő,nem,2022-04-13_19h01.14.949,hesp_baseline,2021.2.3,Win32,100
,,,,,,,,,,,,,,,,,nűröklök,nűröklöm,right,3.761,0,129,129,106,1,107,nűröklik,nűröklesz,NA,NA,Te bizony sokat nűröklesz.,Én is sokat...,nűröklök,nűröklöm,lakik,-lik,2,PR2051,2001,nő,nem,2022-04-13_19h01.14.949,hesp_baseline,2021.2.3,Win32,100
,,,,,,,,,,,,,,,,,klehényletek,klehényeztek,right,6.682,0,130,130,113,1,60,klehénylik / klehényezik,"klehénylik, klehényezni",tek,NA,"János imád klehényezni, ezért sokat klehénylik.",Ti ritkán...,klehényletek,klehényeztek,cselekszik,-lik,2,PR2051,2001,nő,nem,2022-04-13_19h01.14.949,hesp_baseline,2021.2.3,Win32,100
,,,,,,,,,,,,,,,,,klajrénnek,klajrénnak,right,6.881,0,131,131,41,1,96,klajrén,klajrén,nak,é,Ez itt egy klajrén.,Elneveztem a kutyámat...,klajrénnek,klajrénnak,dzsungel,NA,NA,PR2051,2001,nő,nem,2022-04-13_19h01.14.949,hesp_baseline,2021.2.3,Win32,100
,,,,,,,,,,,,,,,,,daboztok,dabzotok,left,2.977,0,132,132,109,1,56,dabzik / dabozik,"dabzik, dabozni",tek,NA,"János imád dabozni, ezért sokat dabzik.",Ti ritkán...,dabzotok,daboztok,cselekszik,-zik,1,PR2051,2001,nő,nem,2022-04-13_19h01.14.949,hesp_baseline,2021.2.3,Win32,100
,,,,,,,,,,,,,,,,,prohódzom,prohódzok,left,3.638,0,133,133,66,1,67,prohódzik,prohódzol,NA,NA,Te bizony sokat prohódzol.,Én is sokat...,prohódzok,prohódzom,lakik,-zik,2,PR2051,2001,nő,nem,2022-04-13_19h01.14.949,hesp_baseline,2021.2.3,Win32,100
,,,,,,,,,,,,,,,,,lírlanak,líroznak,left,7.779,0,134,134,115,1,62,lírlik / lírozik,"lírlik, lírozni",nek,NA,"János imád lírozni, ezért sokat lírlik.",Ők ritkán...,lírlanak,líroznak,cselekszik,-lik,1,PR2051,2001,nő,nem,2022-04-13_19h01.14.949,hesp_baseline,2021.2.3,Win32,100
,,,,,,,,,,,,,,,,,szanéjnak,szanéjnek,left,2.877,0,135,135,13,1,68,szanéj,szanéj,nak,é,Ez itt egy szanéj.,Elneveztem a kutyámat...,szanéjnek,szanéjnak,dzsungel,NA,NA,PR2051,2001,nő,nem,2022-04-13_19h01.14.949,hesp_baseline,2021.2.3,Win32,100
,,,,,,,,,,,,,,,,,ribzok,ribzom,right,3.412,0,136,136,58,1,59,ribzik,ribzol,NA,NA,Te bizony sokat ribzol.,Én is sokat...,ribzok,ribzom,lakik,-zik,1,PR2051,2001,nő,nem,2022-04-13_19h01.14.949,hesp_baseline,2021.2.3,Win32,100
,,,,,,,,,,,,,,,,,nuroklunk,nurokozunk,left,5.882,0,137,137,131,1,78,nuroklik / nurokozik,"nuroklik, nurokozni",ünk,NA,"János imád nurokozni, ezért sokat nuroklik.",Mi ritkán...,nuroklunk,nurokozunk,cselekszik,-lik,2,PR2051,2001,nő,nem,2022-04-13_19h01.14.949,hesp_baseline,2021.2.3,Win32,100
,,,,,,,,,,,,,,,,,fájézben,fájézban,right,4.627,0,138,138,7,1,62,fájéz,fájéz,ban,é,Ez itt egy fájéz.,Ott vagyunk a...,fájézben,fájézban,dzsungel,NA,NA,PR2051,2001,nő,nem,2022-04-13_19h01.14.949,hesp_baseline,2021.2.3,Win32,100
,,,,,,,,,,,,,,,,,brágaklok,brágaklom,right,4.806,0,139,139,71,1,72,brágaklik,brágaklasz,NA,NA,Te bizony sokat brágaklasz.,Én is sokat...,brágaklok,brágaklom,lakik,-lik,2,PR2051,2001,nő,nem,2022-04-13_19h01.14.949,hesp_baseline,2021.2.3,Win32,100
,,,,,,,,,,,,,,,,,spubonylom,spubonylok,left,4.721,0,140,140,104,1,105,spubonylik,spubonylasz,NA,NA,Te bizony sokat spubonylasz.,Én is sokat...,spubonylok,spubonylom,lakik,-lik,2,PR2051,2001,nő,nem,2022-04-13_19h01.14.949,hesp_baseline,2021.2.3,Win32,100
,,,,,,,,,,,,,,,,,vorszennál,vorszennél,right,5.881,0,141,141,30,1,85,vorszen,vorszen,nál,e,Ez itt egy vorszen.,Nincs is jobb egy jó...,vorszennél,vorszennál,dzsungel,NA,NA,PR2051,2001,nő,nem,2022-04-13_19h01.14.949,hesp_baseline,2021.2.3,Win32,100
,,,,,,,,,,,,,,,,,rapszeknál,rapszeknél,right,5.411,0,142,142,35,1,90,rapszek,rapszek,nál,e,Ez itt egy rapszek.,Nincs is jobb egy jó...,rapszeknél,rapszeknál,dzsungel,NA,NA,PR2051,2001,nő,nem,2022-04-13_19h01.14.949,hesp_baseline,2021.2.3,Win32,100
,,,,,,,,,,,,,,,,,flagánylom,flagánylok,left,3.784,0,143,143,82,1,83,flagánylik,flagánylasz,NA,NA,Te bizony sokat flagánylasz.,Én is sokat...,flagánylok,flagánylom,lakik,-lik,2,PR2051,2001,nő,nem,2022-04-13_19h01.14.949,hesp_baseline,2021.2.3,Win32,100
,,,,,,,,,,,,,,,,,gihesztnak,gihesztnek,right,5.549,0,144,144,36,1,91,giheszt,giheszt,nak,e,Ez itt egy giheszt.,Elneveztem a kutyámat...,gihesztnek,gihesztnak,dzsungel,NA,NA,PR2051,2001,nő,nem,2022-04-13_19h01.14.949,hesp_baseline,2021.2.3,Win32,100
,,,,,,,,,,,,,,,,,prihegszenek,prihegednek,left,5.825,0,145,145,155,1,102,prihegszik / prihegedik,"prihegszik, prihegedni",nek,NA,"János imád prihegedni, ezért sokat prihegszik.",Ők ritkán...,prihegszenek,prihegednek,cselekszik,-szik,2,PR2051,2001,nő,nem,2022-04-13_19h01.14.949,hesp_baseline,2021.2.3,Win32,100
,,,,,,,,,,,,,,,,,flehékszek,flehékszem,right,4.499,0,146,146,77,1,78,flehékszik,flehékszel,NA,NA,Te bizony sokat flehékszel.,Én is sokat...,flehékszek,flehékszem,lakik,-szik,2,PR2051,2001,nő,nem,2022-04-13_19h01.14.949,hesp_baseline,2021.2.3,Win32,100
,,,,,,,,,,,,,,,,,spihegzek,spihegzem,right,3.608,0,147,147,81,1,82,spihegzik,spihegzel,NA,NA,Te bizony sokat spihegzel.,Én is sokat...,spihegzek,spihegzem,lakik,-zik,2,PR2051,2001,nő,nem,2022-04-13_19h01.14.949,hesp_baseline,2021.2.3,Win32,100
,,,,,,,,,,,,,,,,,trírzunk,trírozunk,right,6.52,0,148,148,116,1,63,trírzik / trírozik,"trírzik, trírozni",ünk,NA,"János imád trírozni, ezért sokat trírzik.",Mi ritkán...,trírzunk,trírozunk,cselekszik,-zik,1,PR2051,2001,nő,nem,2022-04-13_19h01.14.949,hesp_baseline,2021.2.3,Win32,100
,,,,,,,,,,,,,,,,,praslom,praslok,left,7.064,0,149,149,80,1,81,praslik,praslasz,NA,NA,Te bizony sokat praslasz.,Én is sokat...,praslok,praslom,lakik,-lik,1,PR2051,2001,nő,nem,2022-04-13_19h01.14.949,hesp_baseline,2021.2.3,Win32,100
,,,,,,,,,,,,,,,,,szirlom,szirlok,left,3.374,0,150,150,62,1,63,szirlik,szirlasz,NA,NA,Te bizony sokat szirlasz.,Én is sokat...,szirlok,szirlom,lakik,-lik,1,PR2051,2001,nő,nem,2022-04-13_19h01.14.949,hesp_baseline,2021.2.3,Win32,100
,,,,,,,,,,,,,,,,,flűgözünk,flűgzünk,left,4.026,0,151,151,160,1,107,flűgzik / flűgözik,"flűgzik, flűgözni",ünk,NA,"János imád flűgözni, ezért sokat flűgzik.",Mi ritkán...,flűgzünk,flűgözünk,cselekszik,-zik,1,PR2051,2001,nő,nem,2022-04-13_19h01.14.949,hesp_baseline,2021.2.3,Win32,100
,,,,,,,,,,,,,,,,,tomlok,tomlom,left,3.333,0,152,152,86,1,87,tomlik,tomlasz,NA,NA,Te bizony sokat tomlasz.,Én is sokat...,tomlok,tomlom,lakik,-lik,1,PR2051,2001,nő,nem,2022-04-13_19h01.14.949,hesp_baseline,2021.2.3,Win32,100
,,,,,,,,,,,,,,,,,trigencnak,trigencnek,right,2.828,0,153,153,31,1,86,trigenc,trigenc,nak,e,Ez itt egy trigenc.,Elneveztem a kutyámat...,trigencnek,trigencnak,dzsungel,NA,NA,PR2051,2001,nő,nem,2022-04-13_19h01.14.949,hesp_baseline,2021.2.3,Win32,100
,,,,,,,,,,,,,,,,,gúdenben,gúdenban,left,3.223,0,154,154,4,1,59,gúden,gúden,ban,e,Ez itt egy gúden.,Ott vagyunk a...,gúdenben,gúdenban,dzsungel,NA,NA,PR2051,2001,nő,nem,2022-04-13_19h01.14.949,hesp_baseline,2021.2.3,Win32,100
,,,,,,,,,,,,,,,,,spügzünk,spügözünk,left,4.926,0,155,155,143,1,90,spügzik / spügözik,"spügzik, spügözni",ünk,NA,"János imád spügözni, ezért sokat spügzik.",Mi ritkán...,spügzünk,spügözünk,cselekszik,-zik,1,PR2051,2001,nő,nem,2022-04-13_19h01.14.949,hesp_baseline,2021.2.3,Win32,100
,,,,,,,,,,,,,,,,,sponylanak,sponyoznak,left,4.467,0,156,156,125,1,72,sponylik / sponyozik,"sponylik, sponyozni",nek,NA,"János imád sponyozni, ezért sokat sponylik.",Ők ritkán...,sponylanak,sponyoznak,cselekszik,-lik,1,PR2051,2001,nő,nem,2022-04-13_19h01.14.949,hesp_baseline,2021.2.3,Win32,100
,,,,,,,,,,,,,,,,,hákodnak,hákszanak,right,5.669,0,157,157,150,1,97,hákszik / hákodik,"hákszik, hákodni",nek,NA,"János imád hákodni, ezért sokat hákszik.",Ők ritkán...,hákszanak,hákodnak,cselekszik,-szik,1,PR2051,2001,nő,nem,2022-04-13_19h01.14.949,hesp_baseline,2021.2.3,Win32,100
,,,,,,,,,,,,,,,,,frálaslanak,frálasoznak,right,6.323,0,158,158,110,1,57,frálaslik / frálasozik,"frálaslik, frálasozni",nek,NA,"János imád frálasozni, ezért sokat frálaslik.",Ők ritkán...,frálaslanak,frálasoznak,cselekszik,-lik,2,PR2051,2001,nő,nem,2022-04-13_19h01.14.949,hesp_baseline,2021.2.3,Win32,100
,,,,,,,,,,,,,,,,,flüröslöm,flüröslök,left,2.723,0,159,159,87,1,88,flüröslik,flüröslesz,NA,NA,Te bizony sokat flüröslesz.,Én is sokat...,flüröslök,flüröslöm,lakik,-lik,2,PR2051,2001,nő,nem,2022-04-13_19h01.14.949,hesp_baseline,2021.2.3,Win32,100
,,,,,,,,,,,,,,,,,prihekszek,prihekszem,right,2.598,0,160,160,100,1,101,prihekszik,prihekszel,NA,NA,Te bizony sokat prihekszel.,Én is sokat...,prihekszek,prihekszem,lakik,-szik,2,PR2051,2001,nő,nem,2022-04-13_19h01.14.949,hesp_baseline,2021.2.3,Win32,100
,,,,,,,,,,,,,,,,,jonylom,jonylok,left,2.293,0,161,161,55,1,56,jonylik,jonylasz,NA,NA,Te bizony sokat jonylasz.,Én is sokat...,jonylok,jonylom,lakik,-lik,1,PR2051,2001,nő,nem,2022-04-13_19h01.14.949,hesp_baseline,2021.2.3,Win32,100
