my_list,key.keys,key.rt,key_2.keys,key_2.rt,keyboard_input_2.keys,keyboard_input_2.rt,key_3.keys,key_3.rt,keyboard_input_3.keys,keyboard_input_3.rt,key_4.keys,key_4.rt,keyboard_input_4.keys,keyboard_input_4.rt,key_5.keys,key_5.rt,my_button1,my_button2,keyboard_input.keys,keyboard_input.rt,withinBlock.thisRepN,withinBlock.thisTrialN,withinBlock.thisN,withinBlock.thisIndex,withinBlock.ran,rowname,word,prompt,suffix,vowel,carrier_sentence,target_sentence,target1,target2,category,derivational,nsyl,Azonosító,Melyik évben születtél?,Mi a nemed?,Tanultál nyelvészetet?,date,expName,psychopyVersion,OS,frameRate
list1.csv,space,10.0645,space,8.1493,right,9.6094,space,9.1448,left,3.9588,space,5.0781,left,5.7394,space,7.2617,frinyozunk,frinylunk,left,11.6526,0,0,0,133,1,26,frinylik / frinyozik,"frinylik, frinyozni",ünk,NA,"János imád frinyozni, ezért sokat frinylik.",Mi ritkán...,frinylunk,frinyozunk,cselekszik,-lik,1,PR2001,2001,férfi,nem,2022-03-28_18h13.18.076,hesp_baseline,2021.2.3,Win32,61.01653548
,,,,,,,,,,,,,,,,,lumézben,lumézban,right,6.8907,0,1,1,32,1,33,luméz,luméz,ban,é,Ez itt egy luméz.,Ott vagyunk a...,lumézben,lumézban,dzsungel,NA,NA,PR2001,2001,férfi,nem,2022-03-28_18h13.18.076,hesp_baseline,2021.2.3,Win32,61.01653548
,,,,,,,,,,,,,,,,,kaszépnek,kaszépnak,left,4.3682,0,2,2,40,1,41,kaszép,kaszép,nak,é,Ez itt egy kaszép.,Elneveztem a kutyámat...,kaszépnek,kaszépnak,dzsungel,NA,NA,PR2001,2001,férfi,nem,2022-03-28_18h13.18.076,hesp_baseline,2021.2.3,Win32,61.01653548
,,,,,,,,,,,,,,,,,darhénban,darhénben,left,2.3328,0,3,3,27,1,28,darhén,darhén,ban,é,Ez itt egy darhén.,Ott vagyunk a...,darhénben,darhénban,dzsungel,NA,NA,PR2001,2001,férfi,nem,2022-03-28_18h13.18.076,hesp_baseline,2021.2.3,Win32,61.01653548
,,,,,,,,,,,,,,,,,dujoznak,dujzanak,right,7.5569,0,4,4,128,1,21,dujzik / dujozik,"dujzik, dujozni",nek,NA,"János imád dujozni, ezért sokat dujzik.",Ők ritkán...,dujzanak,dujoznak,cselekszik,-zik,1,PR2001,2001,férfi,nem,2022-03-28_18h13.18.076,hesp_baseline,2021.2.3,Win32,61.01653548
,,,,,,,,,,,,,,,,,drűröznek,drűrzenek,right,5.0167,0,5,5,126,1,19,drűrzik / drűrözik,"drűrzik, drűrözni",nek,NA,"János imád drűrözni, ezért sokat drűrzik.",Ők ritkán...,drűrzenek,drűröznek,cselekszik,-zik,1,PR2001,2001,férfi,nem,2022-03-28_18h13.18.076,hesp_baseline,2021.2.3,Win32,61.01653548
,,,,,,,,,,,,,,,,,spicetnak,spicetnek,right,4.551,0,6,6,35,1,36,spicet,spicet,nak,e,Ez itt egy spicet.,Elneveztem a kutyámat...,spicetnek,spicetnak,dzsungel,NA,NA,PR2001,2001,férfi,nem,2022-03-28_18h13.18.076,hesp_baseline,2021.2.3,Win32,61.01653548
,,,,,,,,,,,,,,,,,gyivádzom,gyivádzok,left,3.3156,0,7,7,87,1,34,gyivádzik,gyivádzol,NA,NA,Te bizony sokat gyivádzol.,Én is sokat...,gyivádzok,gyivádzom,lakik,-zik,2,PR2001,2001,férfi,nem,2022-03-28_18h13.18.076,hesp_baseline,2021.2.3,Win32,61.01653548
,,,,,,,,,,,,,,,,,monvegnál,monvegnél,left,7.3609,0,8,8,26,1,27,monveg,monveg,nál,e,Ez itt egy monveg.,Nincs is jobb egy jó...,monvegnél,monvegnál,dzsungel,NA,NA,PR2001,2001,férfi,nem,2022-03-28_18h13.18.076,hesp_baseline,2021.2.3,Win32,61.01653548
,,,,,,,,,,,,,,,,,jurlunk,jurozunk,left,7.0453,0,9,9,111,1,4,jurlik / jurozik,"jurlik, jurozni",ünk,NA,"János imád jurozni, ezért sokat jurlik.",Mi ritkán...,jurlunk,jurozunk,cselekszik,-lik,1,PR2001,2001,férfi,nem,2022-03-28_18h13.18.076,hesp_baseline,2021.2.3,Win32,61.01653548
,,,,,,,,,,,,,,,,,zsúdelnek,zsúdelnak,left,3.9681,0,10,10,14,1,15,zsúdel,zsúdel,nak,e,Ez itt egy zsúdel.,Elneveztem a kutyámat...,zsúdelnek,zsúdelnak,dzsungel,NA,NA,PR2001,2001,férfi,nem,2022-03-28_18h13.18.076,hesp_baseline,2021.2.3,Win32,61.01653548
,,,,,,,,,,,,,,,,,püzöztök,püzlötök,left,7.5446,0,11,11,152,1,45,püzlik / püzözik,"püzlik, püzözni",tek,NA,"János imád püzözni, ezért sokat püzlik.",Ti ritkán...,püzlötök,püzöztök,cselekszik,-lik,1,PR2001,2001,férfi,nem,2022-03-28_18h13.18.076,hesp_baseline,2021.2.3,Win32,61.01653548
,,,,,,,,,,,,,,,,,plűbzöm,plűbzök,left,3.5276,0,12,12,107,1,54,plűbzik,plűbzöl,NA,NA,Te bizony sokat plűbzöl.,Én is sokat...,plűbzök,plűbzöm,lakik,-zik,1,PR2001,2001,férfi,nem,2022-03-28_18h13.18.076,hesp_baseline,2021.2.3,Win32,61.01653548
,,,,,,,,,,,,,,,,,trodélyban,trodélyben,left,2.879,0,13,13,28,1,29,trodély,trodély,ban,é,Ez itt egy trodély.,Ott vagyunk a...,trodélyben,trodélyban,dzsungel,NA,NA,PR2001,2001,férfi,nem,2022-03-28_18h13.18.076,hesp_baseline,2021.2.3,Win32,61.01653548
,,,,,,,,,,,,,,,,,klörlöm,klörlök,left,3.4168,0,14,14,80,1,27,klörlik,klörlesz,NA,NA,Te bizony sokat klörlesz.,Én is sokat...,klörlök,klörlöm,lakik,-lik,1,PR2001,2001,férfi,nem,2022-03-28_18h13.18.076,hesp_baseline,2021.2.3,Win32,61.01653548
,,,,,,,,,,,,,,,,,bügöznek,bügzenek,right,2.9705,0,15,15,118,1,11,bügzik / bügözik,"bügzik, bügözni",nek,NA,"János imád bügözni, ezért sokat bügzik.",Ők ritkán...,bügzenek,bügöznek,cselekszik,-zik,1,PR2001,2001,férfi,nem,2022-03-28_18h13.18.076,hesp_baseline,2021.2.3,Win32,61.01653548
,,,,,,,,,,,,,,,,,zsalrénnek,zsalrénnak,right,5.3406,0,16,16,19,1,20,zsalrén,zsalrén,nak,é,Ez itt egy zsalrén.,Elneveztem a kutyámat...,zsalrénnek,zsalrénnak,dzsungel,NA,NA,PR2001,2001,férfi,nem,2022-03-28_18h13.18.076,hesp_baseline,2021.2.3,Win32,61.01653548
,,,,,,,,,,,,,,,,,vihapszunk,vihapodunk,left,4.3245,0,17,17,112,1,5,vihapszik / vihapodik,"vihapszik, vihapodni",ünk,NA,"János imád vihapodni, ezért sokat vihapszik.",Mi ritkán...,vihapszunk,vihapodunk,cselekszik,-szik,2,PR2001,2001,férfi,nem,2022-03-28_18h13.18.076,hesp_baseline,2021.2.3,Win32,61.01653548
,,,,,,,,,,,,,,,,,ibáglom,ibáglok,left,1.9619,0,18,18,88,1,35,ibáglik,ibáglasz,NA,NA,Te bizony sokat ibáglasz.,Én is sokat...,ibáglok,ibáglom,lakik,-lik,2,PR2001,2001,férfi,nem,2022-03-28_18h13.18.076,hesp_baseline,2021.2.3,Win32,61.01653548
,,,,,,,,,,,,,,,,,pivédban,pivédben,left,3.4834,0,19,19,52,1,53,pivéd,pivéd,ban,é,Ez itt egy pivéd.,Ott vagyunk a...,pivédben,pivédban,dzsungel,NA,NA,PR2001,2001,férfi,nem,2022-03-28_18h13.18.076,hesp_baseline,2021.2.3,Win32,61.01653548
,,,,,,,,,,,,,,,,,vanylom,vanylok,left,0.9608,0,20,20,61,1,8,vanylik,vanylasz,NA,NA,Te bizony sokat vanylasz.,Én is sokat...,vanylok,vanylom,lakik,-lik,1,PR2001,2001,férfi,nem,2022-03-28_18h13.18.076,hesp_baseline,2021.2.3,Win32,61.01653548
,,,,,,,,,,,,,,,,,froroznak,frorlanak,right,6.2593,0,21,21,143,1,36,frorlik / frorozik,"frorlik, frorozni",nek,NA,"János imád frorozni, ezért sokat frorlik.",Ők ritkán...,frorlanak,froroznak,cselekszik,-lik,1,PR2001,2001,férfi,nem,2022-03-28_18h13.18.076,hesp_baseline,2021.2.3,Win32,61.01653548
,,,,,,,,,,,,,,,,,breslenek,breseznek,left,5.6919,0,22,22,115,1,8,breslik / bresezik,"breslik, bresezni",nek,NA,"János imád bresezni, ezért sokat breslik.",Ők ritkán...,breslenek,breseznek,cselekszik,-lik,1,PR2001,2001,férfi,nem,2022-03-28_18h13.18.076,hesp_baseline,2021.2.3,Win32,61.01653548
,,,,,,,,,,,,,,,,,spábétban,spábétben,left,3.5623,0,23,23,51,1,52,spábét,spábét,ban,é,Ez itt egy spábét.,Ott vagyunk a...,spábétben,spábétban,dzsungel,NA,NA,PR2001,2001,férfi,nem,2022-03-28_18h13.18.076,hesp_baseline,2021.2.3,Win32,61.01653548
,,,,,,,,,,,,,,,,,bejezünk,bejzünk,right,2.8308,0,24,24,148,1,41,bejzik / bejezik,"bejzik, bejezni",ünk,NA,"János imád bejezni, ezért sokat bejzik.",Mi ritkán...,bejzünk,bejezünk,cselekszik,-zik,1,PR2001,2001,férfi,nem,2022-03-28_18h13.18.076,hesp_baseline,2021.2.3,Win32,61.01653548
,,,,,,,,,,,,,,,,,feténylem,feténylek,left,2.7352,0,25,25,85,1,32,feténylik,feténylesz,NA,NA,Te bizony sokat feténylesz.,Én is sokat...,feténylek,feténylem,lakik,-lik,2,PR2001,2001,férfi,nem,2022-03-28_18h13.18.076,hesp_baseline,2021.2.3,Win32,61.01653548
,,,,,,,,,,,,,,,,,klordénynak,klordénynek,left,2.8421,0,26,26,9,1,10,klordény,klordény,nak,é,Ez itt egy klordény.,Elneveztem a kutyámat...,klordénynek,klordénynak,dzsungel,NA,NA,PR2001,2001,férfi,nem,2022-03-28_18h13.18.076,hesp_baseline,2021.2.3,Win32,61.01653548
,,,,,,,,,,,,,,,,,narádzok,narádzom,right,2.6295,0,27,27,63,1,10,narádzik,narádzol,NA,NA,Te bizony sokat narádzol.,Én is sokat...,narádzok,narádzom,lakik,-zik,2,PR2001,2001,férfi,nem,2022-03-28_18h13.18.076,hesp_baseline,2021.2.3,Win32,61.01653548
,,,,,,,,,,,,,,,,,plövőrzök,plövőrzöm,right,2.5573,0,28,28,58,1,5,plövőrzik,plövőrzöl,NA,NA,Te bizony sokat plövőrzöl.,Én is sokat...,plövőrzök,plövőrzöm,lakik,-zik,2,PR2001,2001,férfi,nem,2022-03-28_18h13.18.076,hesp_baseline,2021.2.3,Win32,61.01653548
,,,,,,,,,,,,,,,,,dirányoznak,diránylanak,right,4.7113,0,29,29,122,1,15,diránylik / dirányozik,"diránylik, dirányozni",nek,NA,"János imád dirányozni, ezért sokat diránylik.",Ők ritkán...,diránylanak,dirányoznak,cselekszik,-lik,2,PR2001,2001,férfi,nem,2022-03-28_18h13.18.076,hesp_baseline,2021.2.3,Win32,61.01653548
,,,,,,,,,,,,,,,,,köszöztök,köszlötök,right,4.9638,0,30,30,120,1,13,köszlik / köszözik,"köszlik, köszözni",tek,NA,"János imád köszözni, ezért sokat köszlik.",Ti ritkán...,köszlötök,köszöztök,cselekszik,-lik,1,PR2001,2001,férfi,nem,2022-03-28_18h13.18.076,hesp_baseline,2021.2.3,Win32,61.01653548
,,,,,,,,,,,,,,,,,tránélynak,tránélynek,left,2.3341,0,31,31,17,1,18,tránély,tránély,nak,é,Ez itt egy tránély.,Elneveztem a kutyámat...,tránélynek,tránélynak,dzsungel,NA,NA,PR2001,2001,férfi,nem,2022-03-28_18h13.18.076,hesp_baseline,2021.2.3,Win32,61.01653548
,,,,,,,,,,,,,,,,,hurjorzok,hurjorzom,right,8.4182,0,32,32,59,1,6,hurjorzik,hurjorzol,NA,NA,Te bizony sokat hurjorzol.,Én is sokat...,hurjorzok,hurjorzom,lakik,-zik,2,PR2001,2001,férfi,nem,2022-03-28_18h13.18.076,hesp_baseline,2021.2.3,Win32,61.01653548
,,,,,,,,,,,,,,,,,géregeztek,géregletek,right,5.3942,0,33,33,124,1,17,géreglik / géregezik,"géreglik, géregezni",tek,NA,"János imád géregezni, ezért sokat géreglik.",Ti ritkán...,géregletek,géregeztek,cselekszik,-lik,2,PR2001,2001,férfi,nem,2022-03-28_18h13.18.076,hesp_baseline,2021.2.3,Win32,61.01653548
,,,,,,,,,,,,,,,,,spilágzok,spilágzom,right,2.4098,0,34,34,76,1,23,spilágzik,spilágzol,NA,NA,Te bizony sokat spilágzol.,Én is sokat...,spilágzok,spilágzom,lakik,-zik,2,PR2001,2001,férfi,nem,2022-03-28_18h13.18.076,hesp_baseline,2021.2.3,Win32,61.01653548
,,,,,,,,,,,,,,,,,gábédnél,gábédnál,right,4.2699,0,35,35,39,1,40,gábéd,gábéd,nál,é,Ez itt egy gábéd.,Nincs is jobb egy jó...,gábédnél,gábédnál,dzsungel,NA,NA,PR2001,2001,férfi,nem,2022-03-28_18h13.18.076,hesp_baseline,2021.2.3,Win32,61.01653548
,,,,,,,,,,,,,,,,,prögöztök,prögzötök,right,4.0593,0,36,36,151,1,44,prögzik / prögözik,"prögzik, prögözni",tek,NA,"János imád prögözni, ezért sokat prögzik.",Ti ritkán...,prögzötök,prögöztök,cselekszik,-zik,1,PR2001,2001,férfi,nem,2022-03-28_18h13.18.076,hesp_baseline,2021.2.3,Win32,61.01653548
,,,,,,,,,,,,,,,,,frihegezünk,friheglünk,right,2.3437,0,37,37,132,1,25,friheglik / frihegezik,"friheglik, frihegezni",ünk,NA,"János imád frihegezni, ezért sokat friheglik.",Mi ritkán...,friheglünk,frihegezünk,cselekszik,-lik,2,PR2001,2001,férfi,nem,2022-03-28_18h13.18.076,hesp_baseline,2021.2.3,Win32,61.01653548
,,,,,,,,,,,,,,,,,zopélynél,zopélynál,left,2.9692,0,38,38,5,1,6,zopély,zopély,nál,é,Ez itt egy zopély.,Nincs is jobb egy jó...,zopélynél,zopélynál,dzsungel,NA,NA,PR2001,2001,férfi,nem,2022-03-28_18h13.18.076,hesp_baseline,2021.2.3,Win32,61.01653548
,,,,,,,,,,,,,,,,,kadérnál,kadérnél,left,5.1459,0,39,39,7,1,8,kadér,kadér,nál,é,Ez itt egy kadér.,Nincs is jobb egy jó...,kadérnél,kadérnál,dzsungel,NA,NA,PR2001,2001,férfi,nem,2022-03-28_18h13.18.076,hesp_baseline,2021.2.3,Win32,61.01653548
,,,,,,,,,,,,,,,,,spibaklom,spibaklok,left,3.4298,0,40,40,55,1,2,spibaklik,spibaklasz,NA,NA,Te bizony sokat spibaklasz.,Én is sokat...,spibaklok,spibaklom,lakik,-lik,2,PR2001,2001,férfi,nem,2022-03-28_18h13.18.076,hesp_baseline,2021.2.3,Win32,61.01653548
,,,,,,,,,,,,,,,,,szibedban,szibedben,right,3.0519,0,41,41,47,1,48,szibed,szibed,ban,e,Ez itt egy szibed.,Ott vagyunk a...,szibedben,szibedban,dzsungel,NA,NA,PR2001,2001,férfi,nem,2022-03-28_18h13.18.076,hesp_baseline,2021.2.3,Win32,61.01653548
,,,,,,,,,,,,,,,,,pisélyban,pisélyben,right,2.8956,0,42,42,21,1,22,pisély,pisély,ban,é,Ez itt egy pisély.,Ott vagyunk a...,pisélyben,pisélyban,dzsungel,NA,NA,PR2001,2001,férfi,nem,2022-03-28_18h13.18.076,hesp_baseline,2021.2.3,Win32,61.01653548
,,,,,,,,,,,,,,,,,pugoslok,pugoslom,right,2.3046,0,43,43,84,1,31,pugoslik,pugoslasz,NA,NA,Te bizony sokat pugoslasz.,Én is sokat...,pugoslok,pugoslom,lakik,-lik,2,PR2001,2001,férfi,nem,2022-03-28_18h13.18.076,hesp_baseline,2021.2.3,Win32,61.01653548
,,,,,,,,,,,,,,,,,hóbensban,hóbensben,right,2.5351,0,44,44,3,1,4,hóbens,hóbens,ban,e,Ez itt egy hóbens.,Ott vagyunk a...,hóbensben,hóbensban,dzsungel,NA,NA,PR2001,2001,férfi,nem,2022-03-28_18h13.18.076,hesp_baseline,2021.2.3,Win32,61.01653548
,,,,,,,,,,,,,,,,,tágarozunk,tágarzunk,right,4.3417,0,45,45,155,1,48,tágarzik / tágarozik,"tágarzik, tágarozni",ünk,NA,"János imád tágarozni, ezért sokat tágarzik.",Mi ritkán...,tágarzunk,tágarozunk,cselekszik,-zik,2,PR2001,2001,férfi,nem,2022-03-28_18h13.18.076,hesp_baseline,2021.2.3,Win32,61.01653548
,,,,,,,,,,,,,,,,,nuhétnál,nuhétnél,left,2.8445,0,46,46,29,1,30,nuhét,nuhét,nál,é,Ez itt egy nuhét.,Nincs is jobb egy jó...,nuhétnél,nuhétnál,dzsungel,NA,NA,PR2001,2001,férfi,nem,2022-03-28_18h13.18.076,hesp_baseline,2021.2.3,Win32,61.01653548
,,,,,,,,,,,,,,,,,marzom,marzok,left,1.9338,0,47,47,99,1,46,marzik,marzol,NA,NA,Te bizony sokat marzol.,Én is sokat...,marzok,marzom,lakik,-zik,1,PR2001,2001,férfi,nem,2022-03-28_18h13.18.076,hesp_baseline,2021.2.3,Win32,61.01653548
,,,,,,,,,,,,,,,,,trukszotok,trukodtok,left,2.9757,0,48,48,157,1,50,trukszik / trukodik,"trukszik, trukodni",tek,NA,"János imád trukodni, ezért sokat trukszik.",Ti ritkán...,trukszotok,trukodtok,cselekszik,-szik,1,PR2001,2001,férfi,nem,2022-03-28_18h13.18.076,hesp_baseline,2021.2.3,Win32,61.01653548
,,,,,,,,,,,,,,,,,nyivágozunk,nyivágzunk,right,4.9778,0,49,49,113,1,6,nyivágzik / nyivágozik,"nyivágzik, nyivágozni",ünk,NA,"János imád nyivágozni, ezért sokat nyivágzik.",Mi ritkán...,nyivágzunk,nyivágozunk,cselekszik,-zik,2,PR2001,2001,férfi,nem,2022-03-28_18h13.18.076,hesp_baseline,2021.2.3,Win32,61.01653548
,,,,,,,,,,,,,,,,,vilakszom,vilakszok,left,2.3352,0,50,50,97,1,44,vilakszik,vilakszol,NA,NA,Te bizony sokat vilakszol.,Én is sokat...,vilakszok,vilakszom,lakik,-szik,2,PR2001,2001,férfi,nem,2022-03-28_18h13.18.076,hesp_baseline,2021.2.3,Win32,61.01653548
,,,,,,,,,,,,,,,,,flérlek,flérlem,right,1.2036,0,51,51,89,1,36,flérlik,flérlesz,NA,NA,Te bizony sokat flérlesz.,Én is sokat...,flérlek,flérlem,lakik,-lik,1,PR2001,2001,férfi,nem,2022-03-28_18h13.18.076,hesp_baseline,2021.2.3,Win32,61.01653548
,,,,,,,,,,,,,,,,,hiragoznak,hiragzanak,right,2.7796,0,52,52,119,1,12,hiragzik / hiragozik,"hiragzik, hiragozni",nek,NA,"János imád hiragozni, ezért sokat hiragzik.",Ők ritkán...,hiragzanak,hiragoznak,cselekszik,-zik,2,PR2001,2001,férfi,nem,2022-03-28_18h13.18.076,hesp_baseline,2021.2.3,Win32,61.01653548
,,,,,,,,,,,,,,,,,vismernél,vismernál,left,4.3953,0,53,53,13,1,14,vismer,vismer,nál,e,Ez itt egy vismer.,Nincs is jobb egy jó...,vismernél,vismernál,dzsungel,NA,NA,PR2001,2001,férfi,nem,2022-03-28_18h13.18.076,hesp_baseline,2021.2.3,Win32,61.01653548
,,,,,,,,,,,,,,,,,dábegyben,dábegyban,left,4.9023,0,54,54,6,1,7,dábegy,dábegy,ban,e,Ez itt egy dábegy.,Ott vagyunk a...,dábegyben,dábegyban,dzsungel,NA,NA,PR2001,2001,férfi,nem,2022-03-28_18h13.18.076,hesp_baseline,2021.2.3,Win32,61.01653548
,,,,,,,,,,,,,,,,,bralképban,bralképben,right,4.5184,0,55,55,12,1,13,bralkép,bralkép,ban,é,Ez itt egy bralkép.,Ott vagyunk a...,bralképben,bralképban,dzsungel,NA,NA,PR2001,2001,férfi,nem,2022-03-28_18h13.18.076,hesp_baseline,2021.2.3,Win32,61.01653548
,,,,,,,,,,,,,,,,,klihaslotok,klihasoztok,left,7.6908,0,56,56,156,1,49,klihaslik / klihasozik,"klihaslik, klihasozni",tek,NA,"János imád klihasozni, ezért sokat klihaslik.",Ti ritkán...,klihaslotok,klihasoztok,cselekszik,-lik,2,PR2001,2001,férfi,nem,2022-03-28_18h13.18.076,hesp_baseline,2021.2.3,Win32,61.01653548
,,,,,,,,,,,,,,,,,spűmlöm,spűmlök,left,1.9553,0,57,57,86,1,33,spűmlik,spűmlesz,NA,NA,Te bizony sokat spűmlesz.,Én is sokat...,spűmlök,spűmlöm,lakik,-lik,1,PR2001,2001,férfi,nem,2022-03-28_18h13.18.076,hesp_baseline,2021.2.3,Win32,61.01653548
,,,,,,,,,,,,,,,,,dutecnál,dutecnél,right,2.9423,0,58,58,22,1,23,dutec,dutec,nál,e,Ez itt egy dutec.,Nincs is jobb egy jó...,dutecnél,dutecnál,dzsungel,NA,NA,PR2001,2001,férfi,nem,2022-03-28_18h13.18.076,hesp_baseline,2021.2.3,Win32,61.01653548
,,,,,,,,,,,,,,,,,mísozunk,míslunk,right,4.4824,0,59,59,123,1,16,míslik / mísozik,"míslik, mísozni",ünk,NA,"János imád mísozni, ezért sokat míslik.",Mi ritkán...,míslunk,mísozunk,cselekszik,-lik,1,PR2001,2001,férfi,nem,2022-03-28_18h13.18.076,hesp_baseline,2021.2.3,Win32,61.01653548
,,,,,,,,,,,,,,,,,pekszünk,pekedünk,left,1.8476,0,60,60,161,1,54,pekszik / pekedik,"pekszik, pekedni",ünk,NA,"János imád pekedni, ezért sokat pekszik.",Mi ritkán...,pekszünk,pekedünk,cselekszik,-szik,1,PR2001,2001,férfi,nem,2022-03-28_18h13.18.076,hesp_baseline,2021.2.3,Win32,61.01653548
,,,,,,,,,,,,,,,,,brarlok,brarlom,right,1.4453,0,61,61,71,1,18,brarlik,brarlasz,NA,NA,Te bizony sokat brarlasz.,Én is sokat...,brarlok,brarlom,lakik,-lik,1,PR2001,2001,férfi,nem,2022-03-28_18h13.18.076,hesp_baseline,2021.2.3,Win32,61.01653548
,,,,,,,,,,,,,,,,,pítszom,pítszok,left,1.6004,0,62,62,62,1,9,pítszik,pítszol,NA,NA,Te bizony sokat pítszol.,Én is sokat...,pítszok,pítszom,lakik,-szik,1,PR2001,2001,férfi,nem,2022-03-28_18h13.18.076,hesp_baseline,2021.2.3,Win32,61.01653548
,,,,,,,,,,,,,,,,,jalrénynél,jalrénynál,left,2.916,0,63,63,0,1,1,jalrény,jalrény,nál,é,Ez itt egy jalrény.,Nincs is jobb egy jó...,jalrénynél,jalrénynál,dzsungel,NA,NA,PR2001,2001,férfi,nem,2022-03-28_18h13.18.076,hesp_baseline,2021.2.3,Win32,61.01653548
,,,,,,,,,,,,,,,,,flehénylek,flehénylem,right,3.3316,0,64,64,106,1,53,flehénylik,flehénylesz,NA,NA,Te bizony sokat flehénylesz.,Én is sokat...,flehénylek,flehénylem,lakik,-lik,2,PR2001,2001,férfi,nem,2022-03-28_18h13.18.076,hesp_baseline,2021.2.3,Win32,61.01653548
,,,,,,,,,,,,,,,,,naremban,naremben,right,2.9309,0,65,65,2,1,3,narem,narem,ban,e,Ez itt egy narem.,Ott vagyunk a...,naremben,naremban,dzsungel,NA,NA,PR2001,2001,férfi,nem,2022-03-28_18h13.18.076,hesp_baseline,2021.2.3,Win32,61.01653548
,,,,,,,,,,,,,,,,,klaráglom,klaráglok,left,2.8489,0,66,66,91,1,38,klaráglik,klaráglasz,NA,NA,Te bizony sokat klaráglasz.,Én is sokat...,klaráglok,klaráglom,lakik,-lik,2,PR2001,2001,férfi,nem,2022-03-28_18h13.18.076,hesp_baseline,2021.2.3,Win32,61.01653548
,,,,,,,,,,,,,,,,,sprimozunk,sprimlunk,right,6.6299,0,67,67,127,1,20,sprimlik / sprimozik,"sprimlik, sprimozni",ünk,NA,"János imád sprimozni, ezért sokat sprimlik.",Mi ritkán...,sprimlunk,sprimozunk,cselekszik,-lik,1,PR2001,2001,férfi,nem,2022-03-28_18h13.18.076,hesp_baseline,2021.2.3,Win32,61.01653548
,,,,,,,,,,,,,,,,,lorzensnél,lorzensnál,left,3.0639,0,68,68,34,1,35,lorzens,lorzens,nál,e,Ez itt egy lorzens.,Nincs is jobb egy jó...,lorzensnél,lorzensnál,dzsungel,NA,NA,PR2001,2001,férfi,nem,2022-03-28_18h13.18.076,hesp_baseline,2021.2.3,Win32,61.01653548
,,,,,,,,,,,,,,,,,kűdöznek,kűdlenek,right,2.4449,0,69,69,142,1,35,kűdlik / kűdözik,"kűdlik, kűdözni",nek,NA,"János imád kűdözni, ezért sokat kűdlik.",Ők ritkán...,kűdlenek,kűdöznek,cselekszik,-lik,1,PR2001,2001,férfi,nem,2022-03-28_18h13.18.076,hesp_baseline,2021.2.3,Win32,61.01653548
,,,,,,,,,,,,,,,,,nyizlunk,nyizozunk,left,2.6141,0,70,70,135,1,28,nyizlik / nyizozik,"nyizlik, nyizozni",ünk,NA,"János imád nyizozni, ezért sokat nyizlik.",Mi ritkán...,nyizlunk,nyizozunk,cselekszik,-lik,1,PR2001,2001,férfi,nem,2022-03-28_18h13.18.076,hesp_baseline,2021.2.3,Win32,61.01653548
,,,,,,,,,,,,,,,,,flagárzok,flagárzom,right,2.197,0,71,71,64,1,11,flagárzik,flagárzol,NA,NA,Te bizony sokat flagárzol.,Én is sokat...,flagárzok,flagárzom,lakik,-zik,2,PR2001,2001,férfi,nem,2022-03-28_18h13.18.076,hesp_baseline,2021.2.3,Win32,61.01653548
,,,,,,,,,,,,,,,,,brözlötök,brözöztök,left,1.6232,0,72,72,145,1,38,brözlik / brözözik,"brözlik, brözözni",tek,NA,"János imád brözözni, ezért sokat brözlik.",Ti ritkán...,brözlötök,brözöztök,cselekszik,-lik,1,PR2001,2001,férfi,nem,2022-03-28_18h13.18.076,hesp_baseline,2021.2.3,Win32,61.01653548
,,,,,,,,,,,,,,,,,bribasoznak,bribaslanak,right,2.1953,0,73,73,121,1,14,bribaslik / bribasozik,"bribaslik, bribasozni",nek,NA,"János imád bribasozni, ezért sokat bribaslik.",Ők ritkán...,bribaslanak,bribasoznak,cselekszik,-lik,2,PR2001,2001,férfi,nem,2022-03-28_18h13.18.076,hesp_baseline,2021.2.3,Win32,61.01653548
,,,,,,,,,,,,,,,,,vülődzök,vülődzöm,right,2.0691,0,74,74,81,1,28,vülődzik,vülődzöl,NA,NA,Te bizony sokat vülődzöl.,Én is sokat...,vülődzök,vülődzöm,lakik,-zik,2,PR2001,2001,férfi,nem,2022-03-28_18h13.18.076,hesp_baseline,2021.2.3,Win32,61.01653548
,,,,,,,,,,,,,,,,,gihejlünk,gihejezünk,left,3.832,0,75,75,146,1,39,gihejlik / gihejezik,"gihejlik, gihejezni",ünk,NA,"János imád gihejezni, ezért sokat gihejlik.",Mi ritkán...,gihejlünk,gihejezünk,cselekszik,-lik,2,PR2001,2001,férfi,nem,2022-03-28_18h13.18.076,hesp_baseline,2021.2.3,Win32,61.01653548
,,,,,,,,,,,,,,,,,bregezünk,bregzünk,right,3.4191,0,76,76,139,1,32,bregzik / bregezik,"bregzik, bregezni",ünk,NA,"János imád bregezni, ezért sokat bregzik.",Mi ritkán...,bregzünk,bregezünk,cselekszik,-zik,1,PR2001,2001,férfi,nem,2022-03-28_18h13.18.076,hesp_baseline,2021.2.3,Win32,61.01653548
,,,,,,,,,,,,,,,,,herégszem,herégszek,left,1.2427,0,77,77,54,1,1,herégszik,herégszel,NA,NA,Te bizony sokat herégszel.,Én is sokat...,herégszek,herégszem,lakik,-szik,2,PR2001,2001,férfi,nem,2022-03-28_18h13.18.076,hesp_baseline,2021.2.3,Win32,61.01653548
,,,,,,,,,,,,,,,,,spélszek,spélszem,right,1.1022,0,78,78,68,1,15,spélszik,spélszel,NA,NA,Te bizony sokat spélszel.,Én is sokat...,spélszek,spélszem,lakik,-szik,1,PR2001,2001,férfi,nem,2022-03-28_18h13.18.076,hesp_baseline,2021.2.3,Win32,61.01653548
,,,,,,,,,,,,,,,,,flözlök,flözlöm,right,1.5631,0,79,79,74,1,21,flözlik,flözlesz,NA,NA,Te bizony sokat flözlesz.,Én is sokat...,flözlök,flözlöm,lakik,-lik,1,PR2001,2001,férfi,nem,2022-03-28_18h13.18.076,hesp_baseline,2021.2.3,Win32,61.01653548
,,,,,,,,,,,,,,,,,föködnek,fökszenek,right,3.1582,0,80,80,131,1,24,fökszik / föködik,"fökszik, föködni",nek,NA,"János imád föködni, ezért sokat fökszik.",Ők ritkán...,fökszenek,föködnek,cselekszik,-szik,1,PR2001,2001,férfi,nem,2022-03-28_18h13.18.076,hesp_baseline,2021.2.3,Win32,61.01653548
,,,,,,,,,,,,,,,,,kliszernál,kliszernél,left,4.5022,0,81,81,31,1,32,kliszer,kliszer,nál,e,Ez itt egy kliszer.,Nincs is jobb egy jó...,kliszernél,kliszernál,dzsungel,NA,NA,PR2001,2001,férfi,nem,2022-03-28_18h13.18.076,hesp_baseline,2021.2.3,Win32,61.01653548
,,,,,,,,,,,,,,,,,hilarzom,hilarzok,left,2.7439,0,82,82,69,1,16,hilarzik,hilarzol,NA,NA,Te bizony sokat hilarzol.,Én is sokat...,hilarzok,hilarzom,lakik,-zik,2,PR2001,2001,férfi,nem,2022-03-28_18h13.18.076,hesp_baseline,2021.2.3,Win32,61.01653548
,,,,,,,,,,,,,,,,,csublényben,csublényban,left,3.0478,0,83,83,16,1,17,csublény,csublény,ban,é,Ez itt egy csublény.,Ott vagyunk a...,csublényben,csublényban,dzsungel,NA,NA,PR2001,2001,férfi,nem,2022-03-28_18h13.18.076,hesp_baseline,2021.2.3,Win32,61.01653548
,,,,,,,,,,,,,,,,,píjlom,píjlok,left,4.5016,0,84,84,75,1,22,píjlik,píjlasz,NA,NA,Te bizony sokat píjlasz.,Én is sokat...,píjlok,píjlom,lakik,-lik,1,PR2001,2001,férfi,nem,2022-03-28_18h13.18.076,hesp_baseline,2021.2.3,Win32,61.01653548
,,,,,,,,,,,,,,,,,málapszok,málapszom,right,1.1047,0,85,85,66,1,13,málapszik,málapszol,NA,NA,Te bizony sokat málapszol.,Én is sokat...,málapszok,málapszom,lakik,-szik,2,PR2001,2001,férfi,nem,2022-03-28_18h13.18.076,hesp_baseline,2021.2.3,Win32,61.01653548
,,,,,,,,,,,,,,,,,rokszom,rokszok,left,0.6443,0,86,86,101,1,48,rokszik,rokszol,NA,NA,Te bizony sokat rokszol.,Én is sokat...,rokszok,rokszom,lakik,-szik,1,PR2001,2001,férfi,nem,2022-03-28_18h13.18.076,hesp_baseline,2021.2.3,Win32,61.01653548
,,,,,,,,,,,,,,,,,pöröztök,pörzötök,right,2.8863,0,87,87,153,1,46,pörzik / pörözik,"pörzik, pörözni",tek,NA,"János imád pörözni, ezért sokat pörzik.",Ti ritkán...,pörzötök,pöröztök,cselekszik,-zik,1,PR2001,2001,férfi,nem,2022-03-28_18h13.18.076,hesp_baseline,2021.2.3,Win32,61.01653548
,,,,,,,,,,,,,,,,,prélemlenek,prélemeznek,left,3.5489,0,88,88,110,1,3,prélemlik / prélemezik,"prélemlik, prélemezni",nek,NA,"János imád prélemezni, ezért sokat prélemlik.",Ők ritkán...,prélemlenek,prélemeznek,cselekszik,-lik,2,PR2001,2001,férfi,nem,2022-03-28_18h13.18.076,hesp_baseline,2021.2.3,Win32,61.01653548
,,,,,,,,,,,,,,,,,spéslek,spéslem,right,3.7498,0,89,89,93,1,40,spéslik,spéslesz,NA,NA,Te bizony sokat spéslesz.,Én is sokat...,spéslek,spéslem,lakik,-lik,1,PR2001,2001,férfi,nem,2022-03-28_18h13.18.076,hesp_baseline,2021.2.3,Win32,61.01653548
,,,,,,,,,,,,,,,,,brüszöztök,brüszlötök,right,2.5673,0,90,90,130,1,23,brüszlik / brüszözik,"brüszlik, brüszözni",tek,NA,"János imád brüszözni, ezért sokat brüszlik.",Ti ritkán...,brüszlötök,brüszöztök,cselekszik,-lik,1,PR2001,2001,férfi,nem,2022-03-28_18h13.18.076,hesp_baseline,2021.2.3,Win32,61.01653548
,,,,,,,,,,,,,,,,,hijegynál,hijegynél,right,3.4773,0,91,91,4,1,5,hijegy,hijegy,nál,e,Ez itt egy hijegy.,Nincs is jobb egy jó...,hijegynél,hijegynál,dzsungel,NA,NA,PR2001,2001,férfi,nem,2022-03-28_18h13.18.076,hesp_baseline,2021.2.3,Win32,61.01653548
,,,,,,,,,,,,,,,,,préleglek,préleglem,right,2.7199,0,92,92,104,1,51,préleglik,préleglesz,NA,NA,Te bizony sokat préleglesz.,Én is sokat...,préleglek,préleglem,lakik,-lik,2,PR2001,2001,férfi,nem,2022-03-28_18h13.18.076,hesp_baseline,2021.2.3,Win32,61.01653548
,,,,,,,,,,,,,,,,,riványlotok,riványoztok,left,4.8938,0,93,93,117,1,10,riványlik / riványozik,"riványlik, riványozni",tek,NA,"János imád riványozni, ezért sokat riványlik.",Ti ritkán...,riványlotok,riványoztok,cselekszik,-lik,2,PR2001,2001,férfi,nem,2022-03-28_18h13.18.076,hesp_baseline,2021.2.3,Win32,61.01653548
,,,,,,,,,,,,,,,,,salárzom,salárzok,left,2.6679,0,94,94,103,1,50,salárzik,salárzol,NA,NA,Te bizony sokat salárzol.,Én is sokat...,salárzok,salárzom,lakik,-zik,2,PR2001,2001,férfi,nem,2022-03-28_18h13.18.076,hesp_baseline,2021.2.3,Win32,61.01653548
,,,,,,,,,,,,,,,,,fádensnak,fádensnek,right,1.8127,0,95,95,33,1,34,fádens,fádens,nak,e,Ez itt egy fádens.,Elneveztem a kutyámat...,fádensnek,fádensnak,dzsungel,NA,NA,PR2001,2001,férfi,nem,2022-03-28_18h13.18.076,hesp_baseline,2021.2.3,Win32,61.01653548
,,,,,,,,,,,,,,,,,frélegzünk,frélegezünk,left,6.5672,0,96,96,147,1,40,frélegzik / frélegezik,"frélegzik, frélegezni",ünk,NA,"János imád frélegezni, ezért sokat frélegzik.",Mi ritkán...,frélegzünk,frélegezünk,cselekszik,-zik,2,PR2001,2001,férfi,nem,2022-03-28_18h13.18.076,hesp_baseline,2021.2.3,Win32,61.01653548
,,,,,,,,,,,,,,,,,plibzotok,pliboztok,left,5.8454,0,97,97,140,1,33,plibzik / plibozik,"plibzik, plibozni",tek,NA,"János imád plibozni, ezért sokat plibzik.",Ti ritkán...,plibzotok,pliboztok,cselekszik,-zik,1,PR2001,2001,férfi,nem,2022-03-28_18h13.18.076,hesp_baseline,2021.2.3,Win32,61.01653548
,,,,,,,,,,,,,,,,,flivegzenek,flivegeznek,left,4.6515,0,98,98,138,1,31,flivegzik / flivegezik,"flivegzik, flivegezni",nek,NA,"János imád flivegezni, ezért sokat flivegzik.",Ők ritkán...,flivegzenek,flivegeznek,cselekszik,-zik,2,PR2001,2001,férfi,nem,2022-03-28_18h13.18.076,hesp_baseline,2021.2.3,Win32,61.01653548
,,,,,,,,,,,,,,,,,bölszöm,bölszök,left,2.6797,0,99,99,105,1,52,bölszik,bölszöl,NA,NA,Te bizony sokat bölszöl.,Én is sokat...,bölszök,bölszöm,lakik,-szik,1,PR2001,2001,férfi,nem,2022-03-28_18h13.18.076,hesp_baseline,2021.2.3,Win32,61.01653548
,,,,,,,,,,,,,,,,,sprédlem,sprédlek,left,1.3515,0,100,100,70,1,17,sprédlik,sprédlesz,NA,NA,Te bizony sokat sprédlesz.,Én is sokat...,sprédlek,sprédlem,lakik,-lik,1,PR2001,2001,férfi,nem,2022-03-28_18h13.18.076,hesp_baseline,2021.2.3,Win32,61.01653548
,,,,,,,,,,,,,,,,,brobódzok,brobódzom,right,1.314,0,101,101,96,1,43,brobódzik,brobódzol,NA,NA,Te bizony sokat brobódzol.,Én is sokat...,brobódzok,brobódzom,lakik,-zik,2,PR2001,2001,férfi,nem,2022-03-28_18h13.18.076,hesp_baseline,2021.2.3,Win32,61.01653548
,,,,,,,,,,,,,,,,,hosétnak,hosétnek,right,2.418,0,102,102,8,1,9,hosét,hosét,nak,é,Ez itt egy hosét.,Elneveztem a kutyámat...,hosétnek,hosétnak,dzsungel,NA,NA,PR2001,2001,férfi,nem,2022-03-28_18h13.18.076,hesp_baseline,2021.2.3,Win32,61.01653548
,,,,,,,,,,,,,,,,,gatágozunk,gatáglunk,right,2.702,0,103,103,137,1,30,gatáglik / gatágozik,"gatáglik, gatágozni",ünk,NA,"János imád gatágozni, ezért sokat gatáglik.",Mi ritkán...,gatáglunk,gatágozunk,cselekszik,-lik,2,PR2001,2001,férfi,nem,2022-03-28_18h13.18.076,hesp_baseline,2021.2.3,Win32,61.01653548
,,,,,,,,,,,,,,,,,lörűdzök,lörűdzöm,right,1.7641,0,104,104,77,1,24,lörűdzik,lörűdzöl,NA,NA,Te bizony sokat lörűdzöl.,Én is sokat...,lörűdzök,lörűdzöm,lakik,-zik,2,PR2001,2001,férfi,nem,2022-03-28_18h13.18.076,hesp_baseline,2021.2.3,Win32,61.01653548
,,,,,,,,,,,,,,,,,privékednek,privékszenek,right,1.6788,0,105,105,149,1,42,privékszik / privékedik,"privékszik, privékedni",nek,NA,"János imád privékedni, ezért sokat privékszik.",Ők ritkán...,privékszenek,privékednek,cselekszik,-szik,2,PR2001,2001,férfi,nem,2022-03-28_18h13.18.076,hesp_baseline,2021.2.3,Win32,61.01653548
,,,,,,,,,,,,,,,,,pebzem,pebzek,left,2.365,0,106,106,57,1,4,pebzik,pebzel,NA,NA,Te bizony sokat pebzel.,Én is sokat...,pebzek,pebzem,lakik,-zik,1,PR2001,2001,férfi,nem,2022-03-28_18h13.18.076,hesp_baseline,2021.2.3,Win32,61.01653548
,,,,,,,,,,,,,,,,,tragzok,tragzom,right,1.2958,0,107,107,90,1,37,tragzik,tragzol,NA,NA,Te bizony sokat tragzol.,Én is sokat...,tragzok,tragzom,lakik,-zik,1,PR2001,2001,férfi,nem,2022-03-28_18h13.18.076,hesp_baseline,2021.2.3,Win32,61.01653548
,,,,,,,,,,,,,,,,,kalhésznek,kalhésznak,right,5.8291,0,108,108,46,1,47,kalhész,kalhész,nak,é,Ez itt egy kalhész.,Elneveztem a kutyámat...,kalhésznek,kalhésznak,dzsungel,NA,NA,PR2001,2001,férfi,nem,2022-03-28_18h13.18.076,hesp_baseline,2021.2.3,Win32,61.01653548
,,,,,,,,,,,,,,,,,jukélnél,jukélnál,left,4.1195,0,109,109,42,1,43,jukél,jukél,nál,é,Ez itt egy jukél.,Nincs is jobb egy jó...,jukélnél,jukélnál,dzsungel,NA,NA,PR2001,2001,férfi,nem,2022-03-28_18h13.18.076,hesp_baseline,2021.2.3,Win32,61.01653548
,,,,,,,,,,,,,,,,,sprudlunk,sprudozunk,left,3.127,0,110,110,136,1,29,sprudlik / sprudozik,"sprudlik, sprudozni",ünk,NA,"János imád sprudozni, ezért sokat sprudlik.",Mi ritkán...,sprudlunk,sprudozunk,cselekszik,-lik,1,PR2001,2001,férfi,nem,2022-03-28_18h13.18.076,hesp_baseline,2021.2.3,Win32,61.01653548
,,,,,,,,,,,,,,,,,fágyépnál,fágyépnél,right,4.6503,0,111,111,10,1,11,fágyép,fágyép,nál,é,Ez itt egy fágyép.,Nincs is jobb egy jó...,fágyépnél,fágyépnál,dzsungel,NA,NA,PR2001,2001,férfi,nem,2022-03-28_18h13.18.076,hesp_baseline,2021.2.3,Win32,61.01653548
,,,,,,,,,,,,,,,,,gyivepednek,gyivepszenek,right,24.2202,0,112,112,160,1,53,gyivepszik / gyivepedik,"gyivepszik, gyivepedni",nek,NA,"János imád gyivepedni, ezért sokat gyivepszik.",Ők ritkán...,gyivepszenek,gyivepednek,cselekszik,-szik,2,PR2001,2001,férfi,nem,2022-03-28_18h13.18.076,hesp_baseline,2021.2.3,Win32,61.01653548
,,,,,,,,,,,,,,,,,mádépnél,mádépnál,right,2.8986,0,113,113,1,1,2,mádép,mádép,nál,é,Ez itt egy mádép.,Nincs is jobb egy jó...,mádépnél,mádépnál,dzsungel,NA,NA,PR2001,2001,férfi,nem,2022-03-28_18h13.18.076,hesp_baseline,2021.2.3,Win32,61.01653548
,,,,,,,,,,,,,,,,,frirozunk,frirzunk,right,2.9839,0,114,114,129,1,22,frirzik / frirozik,"frirzik, frirozni",ünk,NA,"János imád frirozni, ezért sokat frirzik.",Mi ritkán...,frirzunk,frirozunk,cselekszik,-zik,1,PR2001,2001,férfi,nem,2022-03-28_18h13.18.076,hesp_baseline,2021.2.3,Win32,61.01653548
,,,,,,,,,,,,,,,,,incéjnek,incéjnak,left,4.0622,0,115,115,30,1,31,incéj,incéj,nak,é,Ez itt egy incéj.,Elneveztem a kutyámat...,incéjnek,incéjnak,dzsungel,NA,NA,PR2001,2001,férfi,nem,2022-03-28_18h13.18.076,hesp_baseline,2021.2.3,Win32,61.01653548
,,,,,,,,,,,,,,,,,zsopédben,zsopédban,right,1.5469,0,116,116,50,1,51,zsopéd,zsopéd,ban,é,Ez itt egy zsopéd.,Ott vagyunk a...,zsopédben,zsopédban,dzsungel,NA,NA,PR2001,2001,férfi,nem,2022-03-28_18h13.18.076,hesp_baseline,2021.2.3,Win32,61.01653548
,,,,,,,,,,,,,,,,,jüslök,jüslöm,right,2.3546,0,117,117,56,1,3,jüslik,jüslesz,NA,NA,Te bizony sokat jüslesz.,Én is sokat...,jüslök,jüslöm,lakik,-lik,1,PR2001,2001,férfi,nem,2022-03-28_18h13.18.076,hesp_baseline,2021.2.3,Win32,61.01653548
,,,,,,,,,,,,,,,,,tarhézban,tarhézben,left,4.2192,0,118,118,25,1,26,tarhéz,tarhéz,ban,é,Ez itt egy tarhéz.,Ott vagyunk a...,tarhézben,tarhézban,dzsungel,NA,NA,PR2001,2001,férfi,nem,2022-03-28_18h13.18.076,hesp_baseline,2021.2.3,Win32,61.01653548
,,,,,,,,,,,,,,,,,tivencben,tivencban,left,1.9706,0,119,119,53,1,54,tivenc,tivenc,ban,e,Ez itt egy tivenc.,Ott vagyunk a...,tivencben,tivencban,dzsungel,NA,NA,PR2001,2001,férfi,nem,2022-03-28_18h13.18.076,hesp_baseline,2021.2.3,Win32,61.01653548
,,,,,,,,,,,,,,,,,jutélynél,jutélynál,right,1.6613,0,120,120,11,1,12,jutély,jutély,nál,é,Ez itt egy jutély.,Nincs is jobb egy jó...,jutélynél,jutélynál,dzsungel,NA,NA,PR2001,2001,férfi,nem,2022-03-28_18h13.18.076,hesp_baseline,2021.2.3,Win32,61.01653548
,,,,,,,,,,,,,,,,,frágapszok,frágapszom,right,2.092,0,121,121,60,1,7,frágapszik,frágapszol,NA,NA,Te bizony sokat frágapszol.,Én is sokat...,frágapszok,frágapszom,lakik,-szik,2,PR2001,2001,férfi,nem,2022-03-28_18h13.18.076,hesp_baseline,2021.2.3,Win32,61.01653548
,,,,,,,,,,,,,,,,,matézban,matézben,left,2.294,0,122,122,37,1,38,matéz,matéz,ban,é,Ez itt egy matéz.,Ott vagyunk a...,matézben,matézban,dzsungel,NA,NA,PR2001,2001,férfi,nem,2022-03-28_18h13.18.076,hesp_baseline,2021.2.3,Win32,61.01653548
,,,,,,,,,,,,,,,,,livaklom,livaklok,left,3.0986,0,123,123,82,1,29,livaklik,livaklasz,NA,NA,Te bizony sokat livaklasz.,Én is sokat...,livaklok,livaklom,lakik,-lik,2,PR2001,2001,férfi,nem,2022-03-28_18h13.18.076,hesp_baseline,2021.2.3,Win32,61.01653548
,,,,,,,,,,,,,,,,,brigesztnek,brigesztnak,left,2.6208,0,124,124,48,1,49,brigeszt,brigeszt,nak,e,Ez itt egy brigeszt.,Elneveztem a kutyámat...,brigesztnek,brigesztnak,dzsungel,NA,NA,PR2001,2001,férfi,nem,2022-03-28_18h13.18.076,hesp_baseline,2021.2.3,Win32,61.01653548
,,,,,,,,,,,,,,,,,filágzom,filágzok,left,1.6757,0,125,125,102,1,49,filágzik,filágzol,NA,NA,Te bizony sokat filágzol.,Én is sokat...,filágzok,filágzom,lakik,-zik,2,PR2001,2001,férfi,nem,2022-03-28_18h13.18.076,hesp_baseline,2021.2.3,Win32,61.01653548
,,,,,,,,,,,,,,,,,szibánylok,szibánylom,right,1.7785,0,126,126,67,1,14,szibánylik,szibánylasz,NA,NA,Te bizony sokat szibánylasz.,Én is sokat...,szibánylok,szibánylom,lakik,-lik,2,PR2001,2001,férfi,nem,2022-03-28_18h13.18.076,hesp_baseline,2021.2.3,Win32,61.01653548
,,,,,,,,,,,,,,,,,sztremlek,sztremlem,right,2.1702,0,127,127,95,1,42,sztremlik,sztremlesz,NA,NA,Te bizony sokat sztremlesz.,Én is sokat...,sztremlek,sztremlem,lakik,-lik,1,PR2001,2001,férfi,nem,2022-03-28_18h13.18.076,hesp_baseline,2021.2.3,Win32,61.01653548
,,,,,,,,,,,,,,,,,sihennél,sihennál,left,3.7668,0,128,128,18,1,19,sihen,sihen,nál,e,Ez itt egy sihen.,Nincs is jobb egy jó...,sihennél,sihennál,dzsungel,NA,NA,PR2001,2001,férfi,nem,2022-03-28_18h13.18.076,hesp_baseline,2021.2.3,Win32,61.01653548
,,,,,,,,,,,,,,,,,gyibeslem,gyibeslek,left,2.4201,0,129,129,98,1,45,gyibeslik,gyibeslesz,NA,NA,Te bizony sokat gyibeslesz.,Én is sokat...,gyibeslek,gyibeslem,lakik,-lik,2,PR2001,2001,férfi,nem,2022-03-28_18h13.18.076,hesp_baseline,2021.2.3,Win32,61.01653548
,,,,,,,,,,,,,,,,,spatszok,spatszom,right,2.7863,0,130,130,73,1,20,spatszik,spatszol,NA,NA,Te bizony sokat spatszol.,Én is sokat...,spatszok,spatszom,lakik,-szik,1,PR2001,2001,férfi,nem,2022-03-28_18h13.18.076,hesp_baseline,2021.2.3,Win32,61.01653548
,,,,,,,,,,,,,,,,,drügzök,drügzöm,right,1.0415,0,131,131,72,1,19,drügzik,drügzöl,NA,NA,Te bizony sokat drügzöl.,Én is sokat...,drügzök,drügzöm,lakik,-zik,1,PR2001,2001,férfi,nem,2022-03-28_18h13.18.076,hesp_baseline,2021.2.3,Win32,61.01653548
,,,,,,,,,,,,,,,,,jorzégnak,jorzégnek,right,4.8543,0,132,132,45,1,46,jorzég,jorzég,nak,é,Ez itt egy jorzég.,Elneveztem a kutyámat...,jorzégnek,jorzégnak,dzsungel,NA,NA,PR2001,2001,férfi,nem,2022-03-28_18h13.18.076,hesp_baseline,2021.2.3,Win32,61.01653548
,,,,,,,,,,,,,,,,,pilégednek,pilégszenek,right,6.6479,0,133,133,150,1,43,pilégszik / pilégedik,"pilégszik, pilégedni",nek,NA,"János imád pilégedni, ezért sokat pilégszik.",Ők ritkán...,pilégszenek,pilégednek,cselekszik,-szik,2,PR2001,2001,férfi,nem,2022-03-28_18h13.18.076,hesp_baseline,2021.2.3,Win32,61.01653548
,,,,,,,,,,,,,,,,,huklom,huklok,left,4.2658,0,134,134,78,1,25,huklik,huklasz,NA,NA,Te bizony sokat huklasz.,Én is sokat...,huklok,huklom,lakik,-lik,1,PR2001,2001,férfi,nem,2022-03-28_18h13.18.076,hesp_baseline,2021.2.3,Win32,61.01653548
,,,,,,,,,,,,,,,,,priszkencnek,priszkencnak,left,4.3908,0,135,135,20,1,21,priszkenc,priszkenc,nak,e,Ez itt egy priszkenc.,Elneveztem a kutyámat...,priszkencnek,priszkencnak,dzsungel,NA,NA,PR2001,2001,férfi,nem,2022-03-28_18h13.18.076,hesp_baseline,2021.2.3,Win32,61.01653548
,,,,,,,,,,,,,,,,,fraklunk,frakozunk,left,2.4598,0,136,136,159,1,52,fraklik / frakozik,"fraklik, frakozni",ünk,NA,"János imád frakozni, ezért sokat fraklik.",Mi ritkán...,fraklunk,frakozunk,cselekszik,-lik,1,PR2001,2001,férfi,nem,2022-03-28_18h13.18.076,hesp_baseline,2021.2.3,Win32,61.01653548
,,,,,,,,,,,,,,,,,sztrajlanak,sztrajoznak,left,3.0296,0,137,137,144,1,37,sztrajlik / sztrajozik,"sztrajlik, sztrajozni",nek,NA,"János imád sztrajozni, ezért sokat sztrajlik.",Ők ritkán...,sztrajlanak,sztrajoznak,cselekszik,-lik,1,PR2001,2001,férfi,nem,2022-03-28_18h13.18.076,hesp_baseline,2021.2.3,Win32,61.01653548
,,,,,,,,,,,,,,,,,küslünk,küsözünk,left,5.8296,0,138,138,141,1,34,küslik / küsözik,"küslik, küsözni",ünk,NA,"János imád küsözni, ezért sokat küslik.",Mi ritkán...,küslünk,küsözünk,cselekszik,-lik,1,PR2001,2001,férfi,nem,2022-03-28_18h13.18.076,hesp_baseline,2021.2.3,Win32,61.01653548
,,,,,,,,,,,,,,,,,bötőrözünk,bötőrzünk,right,2.849,0,139,139,158,1,51,bötőrzik / bötőrözik,"bötőrzik, bötőrözni",ünk,NA,"János imád bötőrözni, ezért sokat bötőrzik.",Mi ritkán...,bötőrzünk,bötőrözünk,cselekszik,-zik,2,PR2001,2001,férfi,nem,2022-03-28_18h13.18.076,hesp_baseline,2021.2.3,Win32,61.01653548
,,,,,,,,,,,,,,,,,lihénynek,lihénynak,left,3.263,0,140,140,23,1,24,lihény,lihény,nak,é,Ez itt egy lihény.,Elneveztem a kutyámat...,lihénynek,lihénynak,dzsungel,NA,NA,PR2001,2001,férfi,nem,2022-03-28_18h13.18.076,hesp_baseline,2021.2.3,Win32,61.01653548
,,,,,,,,,,,,,,,,,buhényben,buhényban,right,1.9019,0,141,141,43,1,44,buhény,buhény,ban,é,Ez itt egy buhény.,Ott vagyunk a...,buhényben,buhényban,dzsungel,NA,NA,PR2001,2001,férfi,nem,2022-03-28_18h13.18.076,hesp_baseline,2021.2.3,Win32,61.01653548
,,,,,,,,,,,,,,,,,vodépnek,vodépnak,left,5.3486,0,142,142,41,1,42,vodép,vodép,nak,é,Ez itt egy vodép.,Elneveztem a kutyámat...,vodépnek,vodépnak,dzsungel,NA,NA,PR2001,2001,férfi,nem,2022-03-28_18h13.18.076,hesp_baseline,2021.2.3,Win32,61.01653548
,,,,,,,,,,,,,,,,,dunkészban,dunkészben,right,3.0194,0,143,143,24,1,25,dunkész,dunkész,ban,é,Ez itt egy dunkész.,Ott vagyunk a...,dunkészben,dunkészban,dzsungel,NA,NA,PR2001,2001,férfi,nem,2022-03-28_18h13.18.076,hesp_baseline,2021.2.3,Win32,61.01653548
,,,,,,,,,,,,,,,,,trihagzok,trihagzom,right,1.9084,0,144,144,83,1,30,trihagzik,trihagzol,NA,NA,Te bizony sokat trihagzol.,Én is sokat...,trihagzok,trihagzom,lakik,-zik,2,PR2001,2001,férfi,nem,2022-03-28_18h13.18.076,hesp_baseline,2021.2.3,Win32,61.01653548
,,,,,,,,,,,,,,,,,brivaklotok,brivakoztok,left,2.7054,0,145,145,134,1,27,brivaklik / brivakozik,"brivaklik, brivakozni",tek,NA,"János imád brivakozni, ezért sokat brivaklik.",Ti ritkán...,brivaklotok,brivakoztok,cselekszik,-lik,2,PR2001,2001,férfi,nem,2022-03-28_18h13.18.076,hesp_baseline,2021.2.3,Win32,61.01653548
,,,,,,,,,,,,,,,,,spihemlek,spihemlem,right,2.7488,0,146,146,94,1,41,spihemlik,spihemlesz,NA,NA,Te bizony sokat spihemlesz.,Én is sokat...,spihemlek,spihemlem,lakik,-lik,2,PR2001,2001,férfi,nem,2022-03-28_18h13.18.076,hesp_baseline,2021.2.3,Win32,61.01653548
,,,,,,,,,,,,,,,,,nyülöklenek,nyülököznek,left,12.5614,0,147,147,108,1,1,nyülöklik / nyülöközik,"nyülöklik, nyülöközni",nek,NA,"János imád nyülöközni, ezért sokat nyülöklik.",Ők ritkán...,nyülöklenek,nyülököznek,cselekszik,-lik,2,PR2001,2001,férfi,nem,2022-03-28_18h13.18.076,hesp_baseline,2021.2.3,Win32,61.01653548
,,,,,,,,,,,,,,,,,brülöslünk,brülösözünk,left,8.5687,0,148,148,109,1,2,brülöslik / brülösözik,"brülöslik, brülösözni",ünk,NA,"János imád brülösözni, ezért sokat brülöslik.",Mi ritkán...,brülöslünk,brülösözünk,cselekszik,-lik,2,PR2001,2001,férfi,nem,2022-03-28_18h13.18.076,hesp_baseline,2021.2.3,Win32,61.01653548
,,,,,,,,,,,,,,,,,spivejeznek,spivejlenek,right,5.6772,0,149,149,125,1,18,spivejlik / spivejezik,"spivejlik, spivejezni",nek,NA,"János imád spivejezni, ezért sokat spivejlik.",Ők ritkán...,spivejlenek,spivejeznek,cselekszik,-lik,2,PR2001,2001,férfi,nem,2022-03-28_18h13.18.076,hesp_baseline,2021.2.3,Win32,61.01653548
,,,,,,,,,,,,,,,,,hivépban,hivépben,right,2.8654,0,150,150,44,1,45,hivép,hivép,ban,é,Ez itt egy hivép.,Ott vagyunk a...,hivépben,hivépban,dzsungel,NA,NA,PR2001,2001,férfi,nem,2022-03-28_18h13.18.076,hesp_baseline,2021.2.3,Win32,61.01653548
,,,,,,,,,,,,,,,,,dajrensnél,dajrensnál,left,2.2537,0,151,151,49,1,50,dajrens,dajrens,nál,e,Ez itt egy dajrens.,Nincs is jobb egy jó...,dajrensnél,dajrensnál,dzsungel,NA,NA,PR2001,2001,férfi,nem,2022-03-28_18h13.18.076,hesp_baseline,2021.2.3,Win32,61.01653548
,,,,,,,,,,,,,,,,,spibádzom,spibádzok,left,2.6019,0,152,152,65,1,12,spibádzik,spibádzol,NA,NA,Te bizony sokat spibádzol.,Én is sokat...,spibádzok,spibádzom,lakik,-zik,2,PR2001,2001,férfi,nem,2022-03-28_18h13.18.076,hesp_baseline,2021.2.3,Win32,61.01653548
,,,,,,,,,,,,,,,,,gonszéknál,gonszéknél,right,2.4874,0,153,153,38,1,39,gonszék,gonszék,nál,é,Ez itt egy gonszék.,Nincs is jobb egy jó...,gonszéknél,gonszéknál,dzsungel,NA,NA,PR2001,2001,férfi,nem,2022-03-28_18h13.18.076,hesp_baseline,2021.2.3,Win32,61.01653548
,,,,,,,,,,,,,,,,,csarténynek,csarténynak,left,2.4086,0,154,154,36,1,37,csartény,csartény,nak,é,Ez itt egy csartény.,Elneveztem a kutyámat...,csarténynek,csarténynak,dzsungel,NA,NA,PR2001,2001,férfi,nem,2022-03-28_18h13.18.076,hesp_baseline,2021.2.3,Win32,61.01653548
,,,,,,,,,,,,,,,,,brubzom,brubzok,left,1.4838,0,155,155,92,1,39,brubzik,brubzol,NA,NA,Te bizony sokat brubzol.,Én is sokat...,brubzok,brubzom,lakik,-zik,1,PR2001,2001,férfi,nem,2022-03-28_18h13.18.076,hesp_baseline,2021.2.3,Win32,61.01653548
,,,,,,,,,,,,,,,,,csibagoztok,csibagzotok,right,1.7903,0,156,156,114,1,7,csibagzik / csibagozik,"csibagzik, csibagozni",tek,NA,"János imád csibagozni, ezért sokat csibagzik.",Ti ritkán...,csibagzotok,csibagoztok,cselekszik,-zik,2,PR2001,2001,férfi,nem,2022-03-28_18h13.18.076,hesp_baseline,2021.2.3,Win32,61.01653548
,,,,,,,,,,,,,,,,,priszecban,priszecben,right,2.8992,0,157,157,15,1,16,priszec,priszec,ban,e,Ez itt egy priszec.,Ott vagyunk a...,priszecben,priszecban,dzsungel,NA,NA,PR2001,2001,férfi,nem,2022-03-28_18h13.18.076,hesp_baseline,2021.2.3,Win32,61.01653548
,,,,,,,,,,,,,,,,,prugorzotok,prugoroztok,left,3.4374,0,158,158,116,1,9,prugorzik / prugorozik,"prugorzik, prugorozni",tek,NA,"János imád prugorozni, ezért sokat prugorzik.",Ti ritkán...,prugorzotok,prugoroztok,cselekszik,-zik,2,PR2001,2001,férfi,nem,2022-03-28_18h13.18.076,hesp_baseline,2021.2.3,Win32,61.01653548
,,,,,,,,,,,,,,,,,prilegzek,prilegzem,right,1.8001,0,159,159,79,1,26,prilegzik,prilegzel,NA,NA,Te bizony sokat prilegzel.,Én is sokat...,prilegzek,prilegzem,lakik,-zik,2,PR2001,2001,férfi,nem,2022-03-28_18h13.18.076,hesp_baseline,2021.2.3,Win32,61.01653548
,,,,,,,,,,,,,,,,,galároznak,galárzanak,right,1.6672,0,160,160,154,1,47,galárzik / galározik,"galárzik, galározni",nek,NA,"János imád galározni, ezért sokat galárzik.",Ők ritkán...,galárzanak,galároznak,cselekszik,-zik,2,PR2001,2001,férfi,nem,2022-03-28_18h13.18.076,hesp_baseline,2021.2.3,Win32,61.01653548
,,,,,,,,,,,,,,,,,aglok,aglom,right,2.2498,0,161,161,100,1,47,aglik,aglasz,NA,NA,Te bizony sokat aglasz.,Én is sokat...,aglok,aglom,lakik,-lik,1,PR2001,2001,férfi,nem,2022-03-28_18h13.18.076,hesp_baseline,2021.2.3,Win32,61.01653548
