my_list,key.keys,key.rt,key_2.keys,key_2.rt,keyboard_input_2.keys,keyboard_input_2.rt,key_3.keys,key_3.rt,keyboard_input_3.keys,keyboard_input_3.rt,key_4.keys,key_4.rt,keyboard_input_4.keys,keyboard_input_4.rt,key_5.keys,key_5.rt,my_button1,my_button2,keyboard_input.keys,keyboard_input.rt,withinBlock.thisRepN,withinBlock.thisTrialN,withinBlock.thisN,withinBlock.thisIndex,withinBlock.ran,rowname,word,prompt,suffix,vowel,carrier_sentence,target_sentence,target1,target2,category,derivational,nsyl,Azonosító,Melyik évben születtél?,Mi a nemed?,Tanultál nyelvészetet?,date,expName,psychopyVersion,OS,frameRate
list1.csv,space,144.8372,space,13.5331,right,7.0301,space,14.3958,left,6.2488,space,8.0465,left,9.2437,space,18.2652,spűmlök,spűmlöm,left,8.1292,0,0,0,86,1,33,spűmlik,spűmlesz,NA,NA,Te bizony sokat spűmlesz.,Én is sokat...,spűmlök,spűmlöm,lakik,-lik,1,PR2072,1993,nő,nem,2022-04-18_14h51.40.480,hesp_baseline,2021.2.3,Win32,60.13590715
,,,,,,,,,,,,,,,,,málapszok,málapszom,right,5.0083,0,1,1,66,1,13,málapszik,málapszol,NA,NA,Te bizony sokat málapszol.,Én is sokat...,málapszok,málapszom,lakik,-szik,2,PR2072,1993,nő,nem,2022-04-18_14h51.40.480,hesp_baseline,2021.2.3,Win32,60.13590715
,,,,,,,,,,,,,,,,,prélemlenek,prélemeznek,left,14.1888,0,2,2,110,1,3,prélemlik / prélemezik,"prélemlik, prélemezni",nek,NA,"János imád prélemezni, ezért sokat prélemlik.",Ők ritkán...,prélemlenek,prélemeznek,cselekszik,-lik,2,PR2072,1993,nő,nem,2022-04-18_14h51.40.480,hesp_baseline,2021.2.3,Win32,60.13590715
,,,,,,,,,,,,,,,,,gatágozunk,gatáglunk,left,5.7315,0,3,3,137,1,30,gatáglik / gatágozik,"gatáglik, gatágozni",ünk,NA,"János imád gatágozni, ezért sokat gatáglik.",Mi ritkán...,gatáglunk,gatágozunk,cselekszik,-lik,2,PR2072,1993,nő,nem,2022-04-18_14h51.40.480,hesp_baseline,2021.2.3,Win32,60.13590715
,,,,,,,,,,,,,,,,,gyibeslem,gyibeslek,right,6.3245,0,4,4,98,1,45,gyibeslik,gyibeslesz,NA,NA,Te bizony sokat gyibeslesz.,Én is sokat...,gyibeslek,gyibeslem,lakik,-lik,2,PR2072,1993,nő,nem,2022-04-18_14h51.40.480,hesp_baseline,2021.2.3,Win32,60.13590715
,,,,,,,,,,,,,,,,,kliszernél,kliszernál,left,5.5519,0,5,5,31,1,32,kliszer,kliszer,nál,e,Ez itt egy kliszer.,Nincs is jobb egy jó...,kliszernél,kliszernál,dzsungel,NA,NA,PR2072,1993,nő,nem,2022-04-18_14h51.40.480,hesp_baseline,2021.2.3,Win32,60.13590715
,,,,,,,,,,,,,,,,,tránélynek,tránélynak,right,10.831,0,6,6,17,1,18,tránély,tránély,nak,é,Ez itt egy tránély.,Elneveztem a kutyámat...,tránélynek,tránélynak,dzsungel,NA,NA,PR2072,1993,nő,nem,2022-04-18_14h51.40.480,hesp_baseline,2021.2.3,Win32,60.13590715
,,,,,,,,,,,,,,,,,prugoroztok,prugorzotok,left,5.9646,0,7,7,116,1,9,prugorzik / prugorozik,"prugorzik, prugorozni",tek,NA,"János imád prugorozni, ezért sokat prugorzik.",Ti ritkán...,prugorzotok,prugoroztok,cselekszik,-zik,2,PR2072,1993,nő,nem,2022-04-18_14h51.40.480,hesp_baseline,2021.2.3,Win32,60.13590715
,,,,,,,,,,,,,,,,,drűröznek,drűrzenek,left,10.6302,0,8,8,126,1,19,drűrzik / drűrözik,"drűrzik, drűrözni",nek,NA,"János imád drűrözni, ezért sokat drűrzik.",Ők ritkán...,drűrzenek,drűröznek,cselekszik,-zik,1,PR2072,1993,nő,nem,2022-04-18_14h51.40.480,hesp_baseline,2021.2.3,Win32,60.13590715
,,,,,,,,,,,,,,,,,frorlanak,froroznak,left,6.5547,0,9,9,143,1,36,frorlik / frorozik,"frorlik, frorozni",nek,NA,"János imád frorozni, ezért sokat frorlik.",Ők ritkán...,frorlanak,froroznak,cselekszik,-lik,1,PR2072,1993,nő,nem,2022-04-18_14h51.40.480,hesp_baseline,2021.2.3,Win32,60.13590715
,,,,,,,,,,,,,,,,,pisélyben,pisélyban,left,4.6111,0,10,10,21,1,22,pisély,pisély,ban,é,Ez itt egy pisély.,Ott vagyunk a...,pisélyben,pisélyban,dzsungel,NA,NA,PR2072,1993,nő,nem,2022-04-18_14h51.40.480,hesp_baseline,2021.2.3,Win32,60.13590715
,,,,,,,,,,,,,,,,,mádépnél,mádépnál,right,11.2699,0,11,11,1,1,2,mádép,mádép,nál,é,Ez itt egy mádép.,Nincs is jobb egy jó...,mádépnél,mádépnál,dzsungel,NA,NA,PR2072,1993,nő,nem,2022-04-18_14h51.40.480,hesp_baseline,2021.2.3,Win32,60.13590715
,,,,,,,,,,,,,,,,,brülösözünk,brülöslünk,right,9.6825,0,12,12,109,1,2,brülöslik / brülösözik,"brülöslik, brülösözni",ünk,NA,"János imád brülösözni, ezért sokat brülöslik.",Mi ritkán...,brülöslünk,brülösözünk,cselekszik,-lik,2,PR2072,1993,nő,nem,2022-04-18_14h51.40.480,hesp_baseline,2021.2.3,Win32,60.13590715
,,,,,,,,,,,,,,,,,brüszlötök,brüszöztök,left,8.2818,0,13,13,130,1,23,brüszlik / brüszözik,"brüszlik, brüszözni",tek,NA,"János imád brüszözni, ezért sokat brüszlik.",Ti ritkán...,brüszlötök,brüszöztök,cselekszik,-lik,1,PR2072,1993,nő,nem,2022-04-18_14h51.40.480,hesp_baseline,2021.2.3,Win32,60.13590715
,,,,,,,,,,,,,,,,,frélegezünk,frélegzünk,right,6.998,0,14,14,147,1,40,frélegzik / frélegezik,"frélegzik, frélegezni",ünk,NA,"János imád frélegezni, ezért sokat frélegzik.",Mi ritkán...,frélegzünk,frélegezünk,cselekszik,-zik,2,PR2072,1993,nő,nem,2022-04-18_14h51.40.480,hesp_baseline,2021.2.3,Win32,60.13590715
,,,,,,,,,,,,,,,,,flözlöm,flözlök,right,5.3671,0,15,15,74,1,21,flözlik,flözlesz,NA,NA,Te bizony sokat flözlesz.,Én is sokat...,flözlök,flözlöm,lakik,-lik,1,PR2072,1993,nő,nem,2022-04-18_14h51.40.480,hesp_baseline,2021.2.3,Win32,60.13590715
,,,,,,,,,,,,,,,,,hijegynál,hijegynél,right,4.6237,0,16,16,4,1,5,hijegy,hijegy,nál,e,Ez itt egy hijegy.,Nincs is jobb egy jó...,hijegynél,hijegynál,dzsungel,NA,NA,PR2072,1993,nő,nem,2022-04-18_14h51.40.480,hesp_baseline,2021.2.3,Win32,60.13590715
,,,,,,,,,,,,,,,,,matézben,matézban,right,6.3235,0,17,17,37,1,38,matéz,matéz,ban,é,Ez itt egy matéz.,Ott vagyunk a...,matézben,matézban,dzsungel,NA,NA,PR2072,1993,nő,nem,2022-04-18_14h51.40.480,hesp_baseline,2021.2.3,Win32,60.13590715
,,,,,,,,,,,,,,,,,kadérnél,kadérnál,right,7.476,0,18,18,7,1,8,kadér,kadér,nál,é,Ez itt egy kadér.,Nincs is jobb egy jó...,kadérnél,kadérnál,dzsungel,NA,NA,PR2072,1993,nő,nem,2022-04-18_14h51.40.480,hesp_baseline,2021.2.3,Win32,60.13590715
,,,,,,,,,,,,,,,,,ibáglom,ibáglok,right,5.8135,0,19,19,88,1,35,ibáglik,ibáglasz,NA,NA,Te bizony sokat ibáglasz.,Én is sokat...,ibáglok,ibáglom,lakik,-lik,2,PR2072,1993,nő,nem,2022-04-18_14h51.40.480,hesp_baseline,2021.2.3,Win32,60.13590715
,,,,,,,,,,,,,,,,,klihasoztok,klihaslotok,left,8.5047,0,20,20,156,1,49,klihaslik / klihasozik,"klihaslik, klihasozni",tek,NA,"János imád klihasozni, ezért sokat klihaslik.",Ti ritkán...,klihaslotok,klihasoztok,cselekszik,-lik,2,PR2072,1993,nő,nem,2022-04-18_14h51.40.480,hesp_baseline,2021.2.3,Win32,60.13590715
,,,,,,,,,,,,,,,,,pivédban,pivédben,right,5.5463,0,21,21,52,1,53,pivéd,pivéd,ban,é,Ez itt egy pivéd.,Ott vagyunk a...,pivédben,pivédban,dzsungel,NA,NA,PR2072,1993,nő,nem,2022-04-18_14h51.40.480,hesp_baseline,2021.2.3,Win32,60.13590715
,,,,,,,,,,,,,,,,,hóbensben,hóbensban,left,6.988,0,22,22,3,1,4,hóbens,hóbens,ban,e,Ez itt egy hóbens.,Ott vagyunk a...,hóbensben,hóbensban,dzsungel,NA,NA,PR2072,1993,nő,nem,2022-04-18_14h51.40.480,hesp_baseline,2021.2.3,Win32,60.13590715
,,,,,,,,,,,,,,,,,frágapszom,frágapszok,left,6.1901,0,23,23,60,1,7,frágapszik,frágapszol,NA,NA,Te bizony sokat frágapszol.,Én is sokat...,frágapszok,frágapszom,lakik,-szik,2,PR2072,1993,nő,nem,2022-04-18_14h51.40.480,hesp_baseline,2021.2.3,Win32,60.13590715
,,,,,,,,,,,,,,,,,spilágzok,spilágzom,right,8.0191,0,24,24,76,1,23,spilágzik,spilágzol,NA,NA,Te bizony sokat spilágzol.,Én is sokat...,spilágzok,spilágzom,lakik,-zik,2,PR2072,1993,nő,nem,2022-04-18_14h51.40.480,hesp_baseline,2021.2.3,Win32,60.13590715
,,,,,,,,,,,,,,,,,lihénynak,lihénynek,right,4.3838,0,25,25,23,1,24,lihény,lihény,nak,é,Ez itt egy lihény.,Elneveztem a kutyámat...,lihénynek,lihénynak,dzsungel,NA,NA,PR2072,1993,nő,nem,2022-04-18_14h51.40.480,hesp_baseline,2021.2.3,Win32,60.13590715
,,,,,,,,,,,,,,,,,spihemlek,spihemlem,left,4.6691,0,26,26,94,1,41,spihemlik,spihemlesz,NA,NA,Te bizony sokat spihemlesz.,Én is sokat...,spihemlek,spihemlem,lakik,-lik,2,PR2072,1993,nő,nem,2022-04-18_14h51.40.480,hesp_baseline,2021.2.3,Win32,60.13590715
,,,,,,,,,,,,,,,,,jalrénynál,jalrénynél,left,7.1097,0,27,27,0,1,1,jalrény,jalrény,nál,é,Ez itt egy jalrény.,Nincs is jobb egy jó...,jalrénynél,jalrénynál,dzsungel,NA,NA,PR2072,1993,nő,nem,2022-04-18_14h51.40.480,hesp_baseline,2021.2.3,Win32,60.13590715
,,,,,,,,,,,,,,,,,spibádzok,spibádzom,right,5.1038,0,28,28,65,1,12,spibádzik,spibádzol,NA,NA,Te bizony sokat spibádzol.,Én is sokat...,spibádzok,spibádzom,lakik,-zik,2,PR2072,1993,nő,nem,2022-04-18_14h51.40.480,hesp_baseline,2021.2.3,Win32,60.13590715
,,,,,,,,,,,,,,,,,fádensnek,fádensnak,left,4.2869,0,29,29,33,1,34,fádens,fádens,nak,e,Ez itt egy fádens.,Elneveztem a kutyámat...,fádensnek,fádensnak,dzsungel,NA,NA,PR2072,1993,nő,nem,2022-04-18_14h51.40.480,hesp_baseline,2021.2.3,Win32,60.13590715
,,,,,,,,,,,,,,,,,naremban,naremben,right,4.2723,0,30,30,2,1,3,narem,narem,ban,e,Ez itt egy narem.,Ott vagyunk a...,naremben,naremban,dzsungel,NA,NA,PR2072,1993,nő,nem,2022-04-18_14h51.40.480,hesp_baseline,2021.2.3,Win32,60.13590715
,,,,,,,,,,,,,,,,,spéslek,spéslem,left,4.4049,0,31,31,93,1,40,spéslik,spéslesz,NA,NA,Te bizony sokat spéslesz.,Én is sokat...,spéslek,spéslem,lakik,-lik,1,PR2072,1993,nő,nem,2022-04-18_14h51.40.480,hesp_baseline,2021.2.3,Win32,60.13590715
,,,,,,,,,,,,,,,,,dunkészben,dunkészban,right,3.7872,0,32,32,24,1,25,dunkész,dunkész,ban,é,Ez itt egy dunkész.,Ott vagyunk a...,dunkészben,dunkészban,dzsungel,NA,NA,PR2072,1993,nő,nem,2022-04-18_14h51.40.480,hesp_baseline,2021.2.3,Win32,60.13590715
,,,,,,,,,,,,,,,,,bölszök,bölszöm,right,4.0475,0,33,33,105,1,52,bölszik,bölszöl,NA,NA,Te bizony sokat bölszöl.,Én is sokat...,bölszök,bölszöm,lakik,-szik,1,PR2072,1993,nő,nem,2022-04-18_14h51.40.480,hesp_baseline,2021.2.3,Win32,60.13590715
,,,,,,,,,,,,,,,,,géregletek,géregeztek,right,6.3941,0,34,34,124,1,17,géreglik / géregezik,"géreglik, géregezni",tek,NA,"János imád géregezni, ezért sokat géreglik.",Ti ritkán...,géregletek,géregeztek,cselekszik,-lik,2,PR2072,1993,nő,nem,2022-04-18_14h51.40.480,hesp_baseline,2021.2.3,Win32,60.13590715
,,,,,,,,,,,,,,,,,vilakszok,vilakszom,right,4.0785,0,35,35,97,1,44,vilakszik,vilakszol,NA,NA,Te bizony sokat vilakszol.,Én is sokat...,vilakszok,vilakszom,lakik,-szik,2,PR2072,1993,nő,nem,2022-04-18_14h51.40.480,hesp_baseline,2021.2.3,Win32,60.13590715
,,,,,,,,,,,,,,,,,darhénben,darhénban,right,3.7724,0,36,36,27,1,28,darhén,darhén,ban,é,Ez itt egy darhén.,Ott vagyunk a...,darhénben,darhénban,dzsungel,NA,NA,PR2072,1993,nő,nem,2022-04-18_14h51.40.480,hesp_baseline,2021.2.3,Win32,60.13590715
,,,,,,,,,,,,,,,,,sihennél,sihennál,left,3.3278,0,37,37,18,1,19,sihen,sihen,nál,e,Ez itt egy sihen.,Nincs is jobb egy jó...,sihennél,sihennál,dzsungel,NA,NA,PR2072,1993,nő,nem,2022-04-18_14h51.40.480,hesp_baseline,2021.2.3,Win32,60.13590715
,,,,,,,,,,,,,,,,,fágyépnél,fágyépnál,right,5.3916,0,38,38,10,1,11,fágyép,fágyép,nál,é,Ez itt egy fágyép.,Nincs is jobb egy jó...,fágyépnél,fágyépnál,dzsungel,NA,NA,PR2072,1993,nő,nem,2022-04-18_14h51.40.480,hesp_baseline,2021.2.3,Win32,60.13590715
,,,,,,,,,,,,,,,,,spicetnek,spicetnak,left,4.3699,0,39,39,35,1,36,spicet,spicet,nak,e,Ez itt egy spicet.,Elneveztem a kutyámat...,spicetnek,spicetnak,dzsungel,NA,NA,PR2072,1993,nő,nem,2022-04-18_14h51.40.480,hesp_baseline,2021.2.3,Win32,60.13590715
,,,,,,,,,,,,,,,,,marzom,marzok,left,3.0178,0,40,40,99,1,46,marzik,marzol,NA,NA,Te bizony sokat marzol.,Én is sokat...,marzok,marzom,lakik,-zik,1,PR2072,1993,nő,nem,2022-04-18_14h51.40.480,hesp_baseline,2021.2.3,Win32,60.13590715
,,,,,,,,,,,,,,,,,kaszépnak,kaszépnek,left,4.9637,0,41,41,40,1,41,kaszép,kaszép,nak,é,Ez itt egy kaszép.,Elneveztem a kutyámat...,kaszépnek,kaszépnak,dzsungel,NA,NA,PR2072,1993,nő,nem,2022-04-18_14h51.40.480,hesp_baseline,2021.2.3,Win32,60.13590715
,,,,,,,,,,,,,,,,,tivencban,tivencben,right,3.5015,0,42,42,53,1,54,tivenc,tivenc,ban,e,Ez itt egy tivenc.,Ott vagyunk a...,tivencben,tivencban,dzsungel,NA,NA,PR2072,1993,nő,nem,2022-04-18_14h51.40.480,hesp_baseline,2021.2.3,Win32,60.13590715
,,,,,,,,,,,,,,,,,bribasoznak,bribaslanak,left,5.4292,0,43,43,121,1,14,bribaslik / bribasozik,"bribaslik, bribasozni",nek,NA,"János imád bribasozni, ezért sokat bribaslik.",Ők ritkán...,bribaslanak,bribasoznak,cselekszik,-lik,2,PR2072,1993,nő,nem,2022-04-18_14h51.40.480,hesp_baseline,2021.2.3,Win32,60.13590715
,,,,,,,,,,,,,,,,,friheglünk,frihegezünk,right,7.6145,0,44,44,132,1,25,friheglik / frihegezik,"friheglik, frihegezni",ünk,NA,"János imád frihegezni, ezért sokat friheglik.",Mi ritkán...,friheglünk,frihegezünk,cselekszik,-lik,2,PR2072,1993,nő,nem,2022-04-18_14h51.40.480,hesp_baseline,2021.2.3,Win32,60.13590715
,,,,,,,,,,,,,,,,,hurjorzok,hurjorzom,right,9.4699,0,45,45,59,1,6,hurjorzik,hurjorzol,NA,NA,Te bizony sokat hurjorzol.,Én is sokat...,hurjorzok,hurjorzom,lakik,-zik,2,PR2072,1993,nő,nem,2022-04-18_14h51.40.480,hesp_baseline,2021.2.3,Win32,60.13590715
,,,,,,,,,,,,,,,,,nyivágozunk,nyivágzunk,left,6.6583,0,46,46,113,1,6,nyivágzik / nyivágozik,"nyivágzik, nyivágozni",ünk,NA,"János imád nyivágozni, ezért sokat nyivágzik.",Mi ritkán...,nyivágzunk,nyivágozunk,cselekszik,-zik,2,PR2072,1993,nő,nem,2022-04-18_14h51.40.480,hesp_baseline,2021.2.3,Win32,60.13590715
,,,,,,,,,,,,,,,,,brivaklotok,brivakoztok,left,4.787,0,47,47,134,1,27,brivaklik / brivakozik,"brivaklik, brivakozni",tek,NA,"János imád brivakozni, ezért sokat brivaklik.",Ti ritkán...,brivaklotok,brivakoztok,cselekszik,-lik,2,PR2072,1993,nő,nem,2022-04-18_14h51.40.480,hesp_baseline,2021.2.3,Win32,60.13590715
,,,,,,,,,,,,,,,,,sztrajlanak,sztrajoznak,left,6.365,0,48,48,144,1,37,sztrajlik / sztrajozik,"sztrajlik, sztrajozni",nek,NA,"János imád sztrajozni, ezért sokat sztrajlik.",Ők ritkán...,sztrajlanak,sztrajoznak,cselekszik,-lik,1,PR2072,1993,nő,nem,2022-04-18_14h51.40.480,hesp_baseline,2021.2.3,Win32,60.13590715
,,,,,,,,,,,,,,,,,jutélynál,jutélynél,left,5.7571,0,49,49,11,1,12,jutély,jutély,nál,é,Ez itt egy jutély.,Nincs is jobb egy jó...,jutélynél,jutélynál,dzsungel,NA,NA,PR2072,1993,nő,nem,2022-04-18_14h51.40.480,hesp_baseline,2021.2.3,Win32,60.13590715
,,,,,,,,,,,,,,,,,sprudozunk,sprudlunk,left,5.4144,0,50,50,136,1,29,sprudlik / sprudozik,"sprudlik, sprudozni",ünk,NA,"János imád sprudozni, ezért sokat sprudlik.",Mi ritkán...,sprudlunk,sprudozunk,cselekszik,-lik,1,PR2072,1993,nő,nem,2022-04-18_14h51.40.480,hesp_baseline,2021.2.3,Win32,60.13590715
,,,,,,,,,,,,,,,,,jorzégnak,jorzégnek,left,3.79,0,51,51,45,1,46,jorzég,jorzég,nak,é,Ez itt egy jorzég.,Elneveztem a kutyámat...,jorzégnek,jorzégnak,dzsungel,NA,NA,PR2072,1993,nő,nem,2022-04-18_14h51.40.480,hesp_baseline,2021.2.3,Win32,60.13590715
,,,,,,,,,,,,,,,,,bregezünk,bregzünk,left,4.4307,0,52,52,139,1,32,bregzik / bregezik,"bregzik, bregezni",ünk,NA,"János imád bregezni, ezért sokat bregzik.",Mi ritkán...,bregzünk,bregezünk,cselekszik,-zik,1,PR2072,1993,nő,nem,2022-04-18_14h51.40.480,hesp_baseline,2021.2.3,Win32,60.13590715
,,,,,,,,,,,,,,,,,lorzensnál,lorzensnél,right,5.6467,0,53,53,34,1,35,lorzens,lorzens,nál,e,Ez itt egy lorzens.,Nincs is jobb egy jó...,lorzensnél,lorzensnál,dzsungel,NA,NA,PR2072,1993,nő,nem,2022-04-18_14h51.40.480,hesp_baseline,2021.2.3,Win32,60.13590715
,,,,,,,,,,,,,,,,,hiragoznak,hiragzanak,left,3.7411,0,54,54,119,1,12,hiragzik / hiragozik,"hiragzik, hiragozni",nek,NA,"János imád hiragozni, ezért sokat hiragzik.",Ők ritkán...,hiragzanak,hiragoznak,cselekszik,-zik,2,PR2072,1993,nő,nem,2022-04-18_14h51.40.480,hesp_baseline,2021.2.3,Win32,60.13590715
,,,,,,,,,,,,,,,,,nyizlunk,nyizozunk,right,5.1848,0,55,55,135,1,28,nyizlik / nyizozik,"nyizlik, nyizozni",ünk,NA,"János imád nyizozni, ezért sokat nyizlik.",Mi ritkán...,nyizlunk,nyizozunk,cselekszik,-lik,1,PR2072,1993,nő,nem,2022-04-18_14h51.40.480,hesp_baseline,2021.2.3,Win32,60.13590715
,,,,,,,,,,,,,,,,,jüslök,jüslöm,left,3.45,0,56,56,56,1,3,jüslik,jüslesz,NA,NA,Te bizony sokat jüslesz.,Én is sokat...,jüslök,jüslöm,lakik,-lik,1,PR2072,1993,nő,nem,2022-04-18_14h51.40.480,hesp_baseline,2021.2.3,Win32,60.13590715
,,,,,,,,,,,,,,,,,spivejlenek,spivejeznek,left,5.2472,0,57,57,125,1,18,spivejlik / spivejezik,"spivejlik, spivejezni",nek,NA,"János imád spivejezni, ezért sokat spivejlik.",Ők ritkán...,spivejlenek,spivejeznek,cselekszik,-lik,2,PR2072,1993,nő,nem,2022-04-18_14h51.40.480,hesp_baseline,2021.2.3,Win32,60.13590715
,,,,,,,,,,,,,,,,,vanylok,vanylom,left,3.2501,0,58,58,61,1,8,vanylik,vanylasz,NA,NA,Te bizony sokat vanylasz.,Én is sokat...,vanylok,vanylom,lakik,-lik,1,PR2072,1993,nő,nem,2022-04-18_14h51.40.480,hesp_baseline,2021.2.3,Win32,60.13590715
,,,,,,,,,,,,,,,,,gonszéknél,gonszéknál,right,5.2143,0,59,59,38,1,39,gonszék,gonszék,nál,é,Ez itt egy gonszék.,Nincs is jobb egy jó...,gonszéknél,gonszéknál,dzsungel,NA,NA,PR2072,1993,nő,nem,2022-04-18_14h51.40.480,hesp_baseline,2021.2.3,Win32,60.13590715
,,,,,,,,,,,,,,,,,buhényban,buhényben,left,3.4943,0,60,60,43,1,44,buhény,buhény,ban,é,Ez itt egy buhény.,Ott vagyunk a...,buhényben,buhényban,dzsungel,NA,NA,PR2072,1993,nő,nem,2022-04-18_14h51.40.480,hesp_baseline,2021.2.3,Win32,60.13590715
,,,,,,,,,,,,,,,,,frinyozunk,frinylunk,left,6.091,0,61,61,133,1,26,frinylik / frinyozik,"frinylik, frinyozni",ünk,NA,"János imád frinyozni, ezért sokat frinylik.",Mi ritkán...,frinylunk,frinyozunk,cselekszik,-lik,1,PR2072,1993,nő,nem,2022-04-18_14h51.40.480,hesp_baseline,2021.2.3,Win32,60.13590715
,,,,,,,,,,,,,,,,,frirozunk,frirzunk,left,7.9526,0,62,62,129,1,22,frirzik / frirozik,"frirzik, frirozni",ünk,NA,"János imád frirozni, ezért sokat frirzik.",Mi ritkán...,frirzunk,frirozunk,cselekszik,-zik,1,PR2072,1993,nő,nem,2022-04-18_14h51.40.480,hesp_baseline,2021.2.3,Win32,60.13590715
,,,,,,,,,,,,,,,,,préleglem,préleglek,right,3.7657,0,63,63,104,1,51,préleglik,préleglesz,NA,NA,Te bizony sokat préleglesz.,Én is sokat...,préleglek,préleglem,lakik,-lik,2,PR2072,1993,nő,nem,2022-04-18_14h51.40.480,hesp_baseline,2021.2.3,Win32,60.13590715
,,,,,,,,,,,,,,,,,gihejlünk,gihejezünk,left,4.6326,0,64,64,146,1,39,gihejlik / gihejezik,"gihejlik, gihejezni",ünk,NA,"János imád gihejezni, ezért sokat gihejlik.",Mi ritkán...,gihejlünk,gihejezünk,cselekszik,-lik,2,PR2072,1993,nő,nem,2022-04-18_14h51.40.480,hesp_baseline,2021.2.3,Win32,60.13590715
,,,,,,,,,,,,,,,,,zsalrénnek,zsalrénnak,right,5.8234,0,65,65,19,1,20,zsalrén,zsalrén,nak,é,Ez itt egy zsalrén.,Elneveztem a kutyámat...,zsalrénnek,zsalrénnak,dzsungel,NA,NA,PR2072,1993,nő,nem,2022-04-18_14h51.40.480,hesp_baseline,2021.2.3,Win32,60.13590715
,,,,,,,,,,,,,,,,,prögöztök,prögzötök,left,4.12,0,66,66,151,1,44,prögzik / prögözik,"prögzik, prögözni",tek,NA,"János imád prögözni, ezért sokat prögzik.",Ti ritkán...,prögzötök,prögöztök,cselekszik,-zik,1,PR2072,1993,nő,nem,2022-04-18_14h51.40.480,hesp_baseline,2021.2.3,Win32,60.13590715
,,,,,,,,,,,,,,,,,bralképban,bralképben,right,6.5492,0,67,67,12,1,13,bralkép,bralkép,ban,é,Ez itt egy bralkép.,Ott vagyunk a...,bralképben,bralképban,dzsungel,NA,NA,PR2072,1993,nő,nem,2022-04-18_14h51.40.480,hesp_baseline,2021.2.3,Win32,60.13590715
,,,,,,,,,,,,,,,,,livaklok,livaklom,right,5.1086,0,68,68,82,1,29,livaklik,livaklasz,NA,NA,Te bizony sokat livaklasz.,Én is sokat...,livaklok,livaklom,lakik,-lik,2,PR2072,1993,nő,nem,2022-04-18_14h51.40.480,hesp_baseline,2021.2.3,Win32,60.13590715
,,,,,,,,,,,,,,,,,pekedünk,pekszünk,right,5.1412,0,69,69,161,1,54,pekszik / pekedik,"pekszik, pekedni",ünk,NA,"János imád pekedni, ezért sokat pekszik.",Mi ritkán...,pekszünk,pekedünk,cselekszik,-szik,1,PR2072,1993,nő,nem,2022-04-18_14h51.40.480,hesp_baseline,2021.2.3,Win32,60.13590715
,,,,,,,,,,,,,,,,,trodélyben,trodélyban,right,3.4988,0,70,70,28,1,29,trodély,trodély,ban,é,Ez itt egy trodély.,Ott vagyunk a...,trodélyben,trodélyban,dzsungel,NA,NA,PR2072,1993,nő,nem,2022-04-18_14h51.40.480,hesp_baseline,2021.2.3,Win32,60.13590715
,,,,,,,,,,,,,,,,,pítszom,pítszok,left,4.3647,0,71,71,62,1,9,pítszik,pítszol,NA,NA,Te bizony sokat pítszol.,Én is sokat...,pítszok,pítszom,lakik,-szik,1,PR2072,1993,nő,nem,2022-04-18_14h51.40.480,hesp_baseline,2021.2.3,Win32,60.13590715
,,,,,,,,,,,,,,,,,brarlok,brarlom,left,4.0832,0,72,72,71,1,18,brarlik,brarlasz,NA,NA,Te bizony sokat brarlasz.,Én is sokat...,brarlok,brarlom,lakik,-lik,1,PR2072,1993,nő,nem,2022-04-18_14h51.40.480,hesp_baseline,2021.2.3,Win32,60.13590715
,,,,,,,,,,,,,,,,,csibagzotok,csibagoztok,right,4.1228,0,73,73,114,1,7,csibagzik / csibagozik,"csibagzik, csibagozni",tek,NA,"János imád csibagozni, ezért sokat csibagzik.",Ti ritkán...,csibagzotok,csibagoztok,cselekszik,-zik,2,PR2072,1993,nő,nem,2022-04-18_14h51.40.480,hesp_baseline,2021.2.3,Win32,60.13590715
,,,,,,,,,,,,,,,,,pöröztök,pörzötök,left,3.9489,0,74,74,153,1,46,pörzik / pörözik,"pörzik, pörözni",tek,NA,"János imád pörözni, ezért sokat pörzik.",Ti ritkán...,pörzötök,pöröztök,cselekszik,-zik,1,PR2072,1993,nő,nem,2022-04-18_14h51.40.480,hesp_baseline,2021.2.3,Win32,60.13590715
,,,,,,,,,,,,,,,,,csarténynek,csarténynak,right,4.2913,0,75,75,36,1,37,csartény,csartény,nak,é,Ez itt egy csartény.,Elneveztem a kutyámat...,csarténynek,csarténynak,dzsungel,NA,NA,PR2072,1993,nő,nem,2022-04-18_14h51.40.480,hesp_baseline,2021.2.3,Win32,60.13590715
,,,,,,,,,,,,,,,,,spélszem,spélszek,right,6.2673,0,76,76,68,1,15,spélszik,spélszel,NA,NA,Te bizony sokat spélszel.,Én is sokat...,spélszek,spélszem,lakik,-szik,1,PR2072,1993,nő,nem,2022-04-18_14h51.40.480,hesp_baseline,2021.2.3,Win32,60.13590715
,,,,,,,,,,,,,,,,,spatszom,spatszok,right,2.9248,0,77,77,73,1,20,spatszik,spatszol,NA,NA,Te bizony sokat spatszol.,Én is sokat...,spatszok,spatszom,lakik,-szik,1,PR2072,1993,nő,nem,2022-04-18_14h51.40.480,hesp_baseline,2021.2.3,Win32,60.13590715
,,,,,,,,,,,,,,,,,flivegzenek,flivegeznek,right,4.4896,0,78,78,138,1,31,flivegzik / flivegezik,"flivegzik, flivegezni",nek,NA,"János imád flivegezni, ezért sokat flivegzik.",Ők ritkán...,flivegzenek,flivegeznek,cselekszik,-zik,2,PR2072,1993,nő,nem,2022-04-18_14h51.40.480,hesp_baseline,2021.2.3,Win32,60.13590715
,,,,,,,,,,,,,,,,,nyülököznek,nyülöklenek,left,5.7484,0,79,79,108,1,1,nyülöklik / nyülöközik,"nyülöklik, nyülöközni",nek,NA,"János imád nyülöközni, ezért sokat nyülöklik.",Ők ritkán...,nyülöklenek,nyülököznek,cselekszik,-lik,2,PR2072,1993,nő,nem,2022-04-18_14h51.40.480,hesp_baseline,2021.2.3,Win32,60.13590715
,,,,,,,,,,,,,,,,,küsözünk,küslünk,right,6.339,0,80,80,141,1,34,küslik / küsözik,"küslik, küsözni",ünk,NA,"János imád küsözni, ezért sokat küslik.",Mi ritkán...,küslünk,küsözünk,cselekszik,-lik,1,PR2072,1993,nő,nem,2022-04-18_14h51.40.480,hesp_baseline,2021.2.3,Win32,60.13590715
,,,,,,,,,,,,,,,,,spibaklok,spibaklom,left,4.0779,0,81,81,55,1,2,spibaklik,spibaklasz,NA,NA,Te bizony sokat spibaklasz.,Én is sokat...,spibaklok,spibaklom,lakik,-lik,2,PR2072,1993,nő,nem,2022-04-18_14h51.40.480,hesp_baseline,2021.2.3,Win32,60.13590715
,,,,,,,,,,,,,,,,,narádzom,narádzok,left,3.5764,0,82,82,63,1,10,narádzik,narádzol,NA,NA,Te bizony sokat narádzol.,Én is sokat...,narádzok,narádzom,lakik,-zik,2,PR2072,1993,nő,nem,2022-04-18_14h51.40.480,hesp_baseline,2021.2.3,Win32,60.13590715
,,,,,,,,,,,,,,,,,föködnek,fökszenek,right,5.7458,0,83,83,131,1,24,fökszik / föködik,"fökszik, föködni",nek,NA,"János imád föködni, ezért sokat fökszik.",Ők ritkán...,fökszenek,föködnek,cselekszik,-szik,1,PR2072,1993,nő,nem,2022-04-18_14h51.40.480,hesp_baseline,2021.2.3,Win32,60.13590715
,,,,,,,,,,,,,,,,,sprimlunk,sprimozunk,right,5.1343,0,84,84,127,1,20,sprimlik / sprimozik,"sprimlik, sprimozni",ünk,NA,"János imád sprimozni, ezért sokat sprimlik.",Mi ritkán...,sprimlunk,sprimozunk,cselekszik,-lik,1,PR2072,1993,nő,nem,2022-04-18_14h51.40.480,hesp_baseline,2021.2.3,Win32,60.13590715
,,,,,,,,,,,,,,,,,szibedban,szibedben,right,3.1454,0,85,85,47,1,48,szibed,szibed,ban,e,Ez itt egy szibed.,Ott vagyunk a...,szibedben,szibedban,dzsungel,NA,NA,PR2072,1993,nő,nem,2022-04-18_14h51.40.480,hesp_baseline,2021.2.3,Win32,60.13590715
,,,,,,,,,,,,,,,,,trihagzok,trihagzom,right,5.7566,0,86,86,83,1,30,trihagzik,trihagzol,NA,NA,Te bizony sokat trihagzol.,Én is sokat...,trihagzok,trihagzom,lakik,-zik,2,PR2072,1993,nő,nem,2022-04-18_14h51.40.480,hesp_baseline,2021.2.3,Win32,60.13590715
,,,,,,,,,,,,,,,,,lumézben,lumézban,right,4.1559,0,87,87,32,1,33,luméz,luméz,ban,é,Ez itt egy luméz.,Ott vagyunk a...,lumézben,lumézban,dzsungel,NA,NA,PR2072,1993,nő,nem,2022-04-18_14h51.40.480,hesp_baseline,2021.2.3,Win32,60.13590715
,,,,,,,,,,,,,,,,,dirányoznak,diránylanak,right,6.9991,0,88,88,122,1,15,diránylik / dirányozik,"diránylik, dirányozni",nek,NA,"János imád dirányozni, ezért sokat diránylik.",Ők ritkán...,diránylanak,dirányoznak,cselekszik,-lik,2,PR2072,1993,nő,nem,2022-04-18_14h51.40.480,hesp_baseline,2021.2.3,Win32,60.13590715
,,,,,,,,,,,,,,,,,kalhésznek,kalhésznak,right,3.2111,0,89,89,46,1,47,kalhész,kalhész,nak,é,Ez itt egy kalhész.,Elneveztem a kutyámat...,kalhésznek,kalhésznak,dzsungel,NA,NA,PR2072,1993,nő,nem,2022-04-18_14h51.40.480,hesp_baseline,2021.2.3,Win32,60.13590715
,,,,,,,,,,,,,,,,,tarhézban,tarhézben,left,5.219,0,90,90,25,1,26,tarhéz,tarhéz,ban,é,Ez itt egy tarhéz.,Ott vagyunk a...,tarhézben,tarhézban,dzsungel,NA,NA,PR2072,1993,nő,nem,2022-04-18_14h51.40.480,hesp_baseline,2021.2.3,Win32,60.13590715
,,,,,,,,,,,,,,,,,kűdlenek,kűdöznek,left,5.3554,0,91,91,142,1,35,kűdlik / kűdözik,"kűdlik, kűdözni",nek,NA,"János imád kűdözni, ezért sokat kűdlik.",Ők ritkán...,kűdlenek,kűdöznek,cselekszik,-lik,1,PR2072,1993,nő,nem,2022-04-18_14h51.40.480,hesp_baseline,2021.2.3,Win32,60.13590715
,,,,,,,,,,,,,,,,,pilégszenek,pilégednek,right,4.8271,0,92,92,150,1,43,pilégszik / pilégedik,"pilégszik, pilégedni",nek,NA,"János imád pilégedni, ezért sokat pilégszik.",Ők ritkán...,pilégszenek,pilégednek,cselekszik,-szik,2,PR2072,1993,nő,nem,2022-04-18_14h51.40.480,hesp_baseline,2021.2.3,Win32,60.13590715
,,,,,,,,,,,,,,,,,gábédnál,gábédnél,left,5.6518,0,93,93,39,1,40,gábéd,gábéd,nál,é,Ez itt egy gábéd.,Nincs is jobb egy jó...,gábédnél,gábédnál,dzsungel,NA,NA,PR2072,1993,nő,nem,2022-04-18_14h51.40.480,hesp_baseline,2021.2.3,Win32,60.13590715
,,,,,,,,,,,,,,,,,breslenek,breseznek,right,5.0281,0,94,94,115,1,8,breslik / bresezik,"breslik, bresezni",nek,NA,"János imád bresezni, ezért sokat breslik.",Ők ritkán...,breslenek,breseznek,cselekszik,-lik,1,PR2072,1993,nő,nem,2022-04-18_14h51.40.480,hesp_baseline,2021.2.3,Win32,60.13590715
,,,,,,,,,,,,,,,,,spábétban,spábétben,left,3.8864,0,95,95,51,1,52,spábét,spábét,ban,é,Ez itt egy spábét.,Ott vagyunk a...,spábétben,spábétban,dzsungel,NA,NA,PR2072,1993,nő,nem,2022-04-18_14h51.40.480,hesp_baseline,2021.2.3,Win32,60.13590715
,,,,,,,,,,,,,,,,,plűbzök,plűbzöm,right,4.8631,0,96,96,107,1,54,plűbzik,plűbzöl,NA,NA,Te bizony sokat plűbzöl.,Én is sokat...,plűbzök,plűbzöm,lakik,-zik,1,PR2072,1993,nő,nem,2022-04-18_14h51.40.480,hesp_baseline,2021.2.3,Win32,60.13590715
,,,,,,,,,,,,,,,,,klordénynek,klordénynak,right,3.3171,0,97,97,9,1,10,klordény,klordény,nak,é,Ez itt egy klordény.,Elneveztem a kutyámat...,klordénynek,klordénynak,dzsungel,NA,NA,PR2072,1993,nő,nem,2022-04-18_14h51.40.480,hesp_baseline,2021.2.3,Win32,60.13590715
,,,,,,,,,,,,,,,,,brobódzom,brobódzok,left,3.311,0,98,98,96,1,43,brobódzik,brobódzol,NA,NA,Te bizony sokat brobódzol.,Én is sokat...,brobódzok,brobódzom,lakik,-zik,2,PR2072,1993,nő,nem,2022-04-18_14h51.40.480,hesp_baseline,2021.2.3,Win32,60.13590715
,,,,,,,,,,,,,,,,,hosétnek,hosétnak,right,2.9908,0,99,99,8,1,9,hosét,hosét,nak,é,Ez itt egy hosét.,Elneveztem a kutyámat...,hosétnek,hosétnak,dzsungel,NA,NA,PR2072,1993,nő,nem,2022-04-18_14h51.40.480,hesp_baseline,2021.2.3,Win32,60.13590715
,,,,,,,,,,,,,,,,,priszkencnak,priszkencnek,right,4.2565,0,100,100,20,1,21,priszkenc,priszkenc,nak,e,Ez itt egy priszkenc.,Elneveztem a kutyámat...,priszkencnek,priszkencnak,dzsungel,NA,NA,PR2072,1993,nő,nem,2022-04-18_14h51.40.480,hesp_baseline,2021.2.3,Win32,60.13590715
,,,,,,,,,,,,,,,,,gyivádzom,gyivádzok,left,3.1687,0,101,101,87,1,34,gyivádzik,gyivádzol,NA,NA,Te bizony sokat gyivádzol.,Én is sokat...,gyivádzok,gyivádzom,lakik,-zik,2,PR2072,1993,nő,nem,2022-04-18_14h51.40.480,hesp_baseline,2021.2.3,Win32,60.13590715
,,,,,,,,,,,,,,,,,galároznak,galárzanak,left,4.4639,0,102,102,154,1,47,galárzik / galározik,"galárzik, galározni",nek,NA,"János imád galározni, ezért sokat galárzik.",Ők ritkán...,galárzanak,galároznak,cselekszik,-zik,2,PR2072,1993,nő,nem,2022-04-18_14h51.40.480,hesp_baseline,2021.2.3,Win32,60.13590715
,,,,,,,,,,,,,,,,,sprédlek,sprédlem,left,4.146,0,103,103,70,1,17,sprédlik,sprédlesz,NA,NA,Te bizony sokat sprédlesz.,Én is sokat...,sprédlek,sprédlem,lakik,-lik,1,PR2072,1993,nő,nem,2022-04-18_14h51.40.480,hesp_baseline,2021.2.3,Win32,60.13590715
,,,,,,,,,,,,,,,,,klörlöm,klörlök,left,3.9069,0,104,104,80,1,27,klörlik,klörlesz,NA,NA,Te bizony sokat klörlesz.,Én is sokat...,klörlök,klörlöm,lakik,-lik,1,PR2072,1993,nő,nem,2022-04-18_14h51.40.480,hesp_baseline,2021.2.3,Win32,60.13590715
,,,,,,,,,,,,,,,,,vülődzöm,vülődzök,left,3.3218,0,105,105,81,1,28,vülődzik,vülődzöl,NA,NA,Te bizony sokat vülődzöl.,Én is sokat...,vülődzök,vülődzöm,lakik,-zik,2,PR2072,1993,nő,nem,2022-04-18_14h51.40.480,hesp_baseline,2021.2.3,Win32,60.13590715
,,,,,,,,,,,,,,,,,fraklunk,frakozunk,left,3.7565,0,106,106,159,1,52,fraklik / frakozik,"fraklik, frakozni",ünk,NA,"János imád frakozni, ezért sokat fraklik.",Mi ritkán...,fraklunk,frakozunk,cselekszik,-lik,1,PR2072,1993,nő,nem,2022-04-18_14h51.40.480,hesp_baseline,2021.2.3,Win32,60.13590715
,,,,,,,,,,,,,,,,,tágarozunk,tágarzunk,left,4.9104,0,107,107,155,1,48,tágarzik / tágarozik,"tágarzik, tágarozni",ünk,NA,"János imád tágarozni, ezért sokat tágarzik.",Mi ritkán...,tágarzunk,tágarozunk,cselekszik,-zik,2,PR2072,1993,nő,nem,2022-04-18_14h51.40.480,hesp_baseline,2021.2.3,Win32,60.13590715
,,,,,,,,,,,,,,,,,vihapodunk,vihapszunk,right,5.5254,0,108,108,112,1,5,vihapszik / vihapodik,"vihapszik, vihapodni",ünk,NA,"János imád vihapodni, ezért sokat vihapszik.",Mi ritkán...,vihapszunk,vihapodunk,cselekszik,-szik,2,PR2072,1993,nő,nem,2022-04-18_14h51.40.480,hesp_baseline,2021.2.3,Win32,60.13590715
,,,,,,,,,,,,,,,,,zsúdelnek,zsúdelnak,left,4.24,0,109,109,14,1,15,zsúdel,zsúdel,nak,e,Ez itt egy zsúdel.,Elneveztem a kutyámat...,zsúdelnek,zsúdelnak,dzsungel,NA,NA,PR2072,1993,nő,nem,2022-04-18_14h51.40.480,hesp_baseline,2021.2.3,Win32,60.13590715
,,,,,,,,,,,,,,,,,hivépben,hivépban,left,2.9653,0,110,110,44,1,45,hivép,hivép,ban,é,Ez itt egy hivép.,Ott vagyunk a...,hivépben,hivépban,dzsungel,NA,NA,PR2072,1993,nő,nem,2022-04-18_14h51.40.480,hesp_baseline,2021.2.3,Win32,60.13590715
,,,,,,,,,,,,,,,,,dujoznak,dujzanak,left,4.6385,0,111,111,128,1,21,dujzik / dujozik,"dujzik, dujozni",nek,NA,"János imád dujozni, ezért sokat dujzik.",Ők ritkán...,dujzanak,dujoznak,cselekszik,-zik,1,PR2072,1993,nő,nem,2022-04-18_14h51.40.480,hesp_baseline,2021.2.3,Win32,60.13590715
,,,,,,,,,,,,,,,,,pugoslok,pugoslom,left,5.2747,0,112,112,84,1,31,pugoslik,pugoslasz,NA,NA,Te bizony sokat pugoslasz.,Én is sokat...,pugoslok,pugoslom,lakik,-lik,2,PR2072,1993,nő,nem,2022-04-18_14h51.40.480,hesp_baseline,2021.2.3,Win32,60.13590715
,,,,,,,,,,,,,,,,,bejezünk,bejzünk,left,3.8511,0,113,113,148,1,41,bejzik / bejezik,"bejzik, bejezni",ünk,NA,"János imád bejezni, ezért sokat bejzik.",Mi ritkán...,bejzünk,bejezünk,cselekszik,-zik,1,PR2072,1993,nő,nem,2022-04-18_14h51.40.480,hesp_baseline,2021.2.3,Win32,60.13590715
,,,,,,,,,,,,,,,,,monvegnál,monvegnél,right,3.7518,0,114,114,26,1,27,monveg,monveg,nál,e,Ez itt egy monveg.,Nincs is jobb egy jó...,monvegnél,monvegnál,dzsungel,NA,NA,PR2072,1993,nő,nem,2022-04-18_14h51.40.480,hesp_baseline,2021.2.3,Win32,60.13590715
,,,,,,,,,,,,,,,,,riványlotok,riványoztok,left,4.4466,0,115,115,117,1,10,riványlik / riványozik,"riványlik, riványozni",tek,NA,"János imád riványozni, ezért sokat riványlik.",Ti ritkán...,riványlotok,riványoztok,cselekszik,-lik,2,PR2072,1993,nő,nem,2022-04-18_14h51.40.480,hesp_baseline,2021.2.3,Win32,60.13590715
,,,,,,,,,,,,,,,,,míslunk,mísozunk,right,3.8622,0,116,116,123,1,16,míslik / mísozik,"míslik, mísozni",ünk,NA,"János imád mísozni, ezért sokat míslik.",Mi ritkán...,míslunk,mísozunk,cselekszik,-lik,1,PR2072,1993,nő,nem,2022-04-18_14h51.40.480,hesp_baseline,2021.2.3,Win32,60.13590715
,,,,,,,,,,,,,,,,,aglok,aglom,left,3.1,0,117,117,100,1,47,aglik,aglasz,NA,NA,Te bizony sokat aglasz.,Én is sokat...,aglok,aglom,lakik,-lik,1,PR2072,1993,nő,nem,2022-04-18_14h51.40.480,hesp_baseline,2021.2.3,Win32,60.13590715
,,,,,,,,,,,,,,,,,brözlötök,brözöztök,right,5.1488,0,118,118,145,1,38,brözlik / brözözik,"brözlik, brözözni",tek,NA,"János imád brözözni, ezért sokat brözlik.",Ti ritkán...,brözlötök,brözöztök,cselekszik,-lik,1,PR2072,1993,nő,nem,2022-04-18_14h51.40.480,hesp_baseline,2021.2.3,Win32,60.13590715
,,,,,,,,,,,,,,,,,plövőrzöm,plövőrzök,left,3.9783,0,119,119,58,1,5,plövőrzik,plövőrzöl,NA,NA,Te bizony sokat plövőrzöl.,Én is sokat...,plövőrzök,plövőrzöm,lakik,-zik,2,PR2072,1993,nő,nem,2022-04-18_14h51.40.480,hesp_baseline,2021.2.3,Win32,60.13590715
,,,,,,,,,,,,,,,,,brubzok,brubzom,right,3.1833,0,120,120,92,1,39,brubzik,brubzol,NA,NA,Te bizony sokat brubzol.,Én is sokat...,brubzok,brubzom,lakik,-zik,1,PR2072,1993,nő,nem,2022-04-18_14h51.40.480,hesp_baseline,2021.2.3,Win32,60.13590715
,,,,,,,,,,,,,,,,,vodépnek,vodépnak,right,2.5279,0,121,121,41,1,42,vodép,vodép,nak,é,Ez itt egy vodép.,Elneveztem a kutyámat...,vodépnek,vodépnak,dzsungel,NA,NA,PR2072,1993,nő,nem,2022-04-18_14h51.40.480,hesp_baseline,2021.2.3,Win32,60.13590715
,,,,,,,,,,,,,,,,,tragzom,tragzok,left,2.4002,0,122,122,90,1,37,tragzik,tragzol,NA,NA,Te bizony sokat tragzol.,Én is sokat...,tragzok,tragzom,lakik,-zik,1,PR2072,1993,nő,nem,2022-04-18_14h51.40.480,hesp_baseline,2021.2.3,Win32,60.13590715
,,,,,,,,,,,,,,,,,lörűdzök,lörűdzöm,right,3.2805,0,123,123,77,1,24,lörűdzik,lörűdzöl,NA,NA,Te bizony sokat lörűdzöl.,Én is sokat...,lörűdzök,lörűdzöm,lakik,-zik,2,PR2072,1993,nő,nem,2022-04-18_14h51.40.480,hesp_baseline,2021.2.3,Win32,60.13590715
,,,,,,,,,,,,,,,,,priszecban,priszecben,right,3.2,0,124,124,15,1,16,priszec,priszec,ban,e,Ez itt egy priszec.,Ott vagyunk a...,priszecben,priszecban,dzsungel,NA,NA,PR2072,1993,nő,nem,2022-04-18_14h51.40.480,hesp_baseline,2021.2.3,Win32,60.13590715
,,,,,,,,,,,,,,,,,nuhétnél,nuhétnál,right,7.4995,0,125,125,29,1,30,nuhét,nuhét,nál,é,Ez itt egy nuhét.,Nincs is jobb egy jó...,nuhétnél,nuhétnál,dzsungel,NA,NA,PR2072,1993,nő,nem,2022-04-18_14h51.40.480,hesp_baseline,2021.2.3,Win32,60.13590715
,,,,,,,,,,,,,,,,,privékszenek,privékednek,left,5.3243,0,126,126,149,1,42,privékszik / privékedik,"privékszik, privékedni",nek,NA,"János imád privékedni, ezért sokat privékszik.",Ők ritkán...,privékszenek,privékednek,cselekszik,-szik,2,PR2072,1993,nő,nem,2022-04-18_14h51.40.480,hesp_baseline,2021.2.3,Win32,60.13590715
,,,,,,,,,,,,,,,,,zsopédben,zsopédban,right,2.9335,0,127,127,50,1,51,zsopéd,zsopéd,ban,é,Ez itt egy zsopéd.,Ott vagyunk a...,zsopédben,zsopédban,dzsungel,NA,NA,PR2072,1993,nő,nem,2022-04-18_14h51.40.480,hesp_baseline,2021.2.3,Win32,60.13590715
,,,,,,,,,,,,,,,,,vismernél,vismernál,left,3.1509,0,128,128,13,1,14,vismer,vismer,nál,e,Ez itt egy vismer.,Nincs is jobb egy jó...,vismernél,vismernál,dzsungel,NA,NA,PR2072,1993,nő,nem,2022-04-18_14h51.40.480,hesp_baseline,2021.2.3,Win32,60.13590715
,,,,,,,,,,,,,,,,,zopélynál,zopélynél,left,3.9682,0,129,129,5,1,6,zopély,zopély,nál,é,Ez itt egy zopély.,Nincs is jobb egy jó...,zopélynél,zopélynál,dzsungel,NA,NA,PR2072,1993,nő,nem,2022-04-18_14h51.40.480,hesp_baseline,2021.2.3,Win32,60.13590715
,,,,,,,,,,,,,,,,,trukodtok,trukszotok,right,5.3491,0,130,130,157,1,50,trukszik / trukodik,"trukszik, trukodni",tek,NA,"János imád trukodni, ezért sokat trukszik.",Ti ritkán...,trukszotok,trukodtok,cselekszik,-szik,1,PR2072,1993,nő,nem,2022-04-18_14h51.40.480,hesp_baseline,2021.2.3,Win32,60.13590715
,,,,,,,,,,,,,,,,,drügzöm,drügzök,left,3.0168,0,131,131,72,1,19,drügzik,drügzöl,NA,NA,Te bizony sokat drügzöl.,Én is sokat...,drügzök,drügzöm,lakik,-zik,1,PR2072,1993,nő,nem,2022-04-18_14h51.40.480,hesp_baseline,2021.2.3,Win32,60.13590715
,,,,,,,,,,,,,,,,,salárzok,salárzom,right,2.9801,0,132,132,103,1,50,salárzik,salárzol,NA,NA,Te bizony sokat salárzol.,Én is sokat...,salárzok,salárzom,lakik,-zik,2,PR2072,1993,nő,nem,2022-04-18_14h51.40.480,hesp_baseline,2021.2.3,Win32,60.13590715
,,,,,,,,,,,,,,,,,herégszek,herégszem,right,3.7724,0,133,133,54,1,1,herégszik,herégszel,NA,NA,Te bizony sokat herégszel.,Én is sokat...,herégszek,herégszem,lakik,-szik,2,PR2072,1993,nő,nem,2022-04-18_14h51.40.480,hesp_baseline,2021.2.3,Win32,60.13590715
,,,,,,,,,,,,,,,,,filágzom,filágzok,left,2.6952,0,134,134,102,1,49,filágzik,filágzol,NA,NA,Te bizony sokat filágzol.,Én is sokat...,filágzok,filágzom,lakik,-zik,2,PR2072,1993,nő,nem,2022-04-18_14h51.40.480,hesp_baseline,2021.2.3,Win32,60.13590715
,,,,,,,,,,,,,,,,,dábegyban,dábegyben,right,5.1312,0,135,135,6,1,7,dábegy,dábegy,ban,e,Ez itt egy dábegy.,Ott vagyunk a...,dábegyben,dábegyban,dzsungel,NA,NA,PR2072,1993,nő,nem,2022-04-18_14h51.40.480,hesp_baseline,2021.2.3,Win32,60.13590715
,,,,,,,,,,,,,,,,,bötőrözünk,bötőrzünk,left,5.6967,0,136,136,158,1,51,bötőrzik / bötőrözik,"bötőrzik, bötőrözni",ünk,NA,"János imád bötőrözni, ezért sokat bötőrzik.",Mi ritkán...,bötőrzünk,bötőrözünk,cselekszik,-zik,2,PR2072,1993,nő,nem,2022-04-18_14h51.40.480,hesp_baseline,2021.2.3,Win32,60.13590715
,,,,,,,,,,,,,,,,,flagárzom,flagárzok,left,3.4348,0,137,137,64,1,11,flagárzik,flagárzol,NA,NA,Te bizony sokat flagárzol.,Én is sokat...,flagárzok,flagárzom,lakik,-zik,2,PR2072,1993,nő,nem,2022-04-18_14h51.40.480,hesp_baseline,2021.2.3,Win32,60.13590715
,,,,,,,,,,,,,,,,,flehénylem,flehénylek,left,3.0845,0,138,138,106,1,53,flehénylik,flehénylesz,NA,NA,Te bizony sokat flehénylesz.,Én is sokat...,flehénylek,flehénylem,lakik,-lik,2,PR2072,1993,nő,nem,2022-04-18_14h51.40.480,hesp_baseline,2021.2.3,Win32,60.13590715
,,,,,,,,,,,,,,,,,sztremlek,sztremlem,left,2.9906,0,139,139,95,1,42,sztremlik,sztremlesz,NA,NA,Te bizony sokat sztremlesz.,Én is sokat...,sztremlek,sztremlem,lakik,-lik,1,PR2072,1993,nő,nem,2022-04-18_14h51.40.480,hesp_baseline,2021.2.3,Win32,60.13590715
,,,,,,,,,,,,,,,,,szibánylom,szibánylok,right,3.4905,0,140,140,67,1,14,szibánylik,szibánylasz,NA,NA,Te bizony sokat szibánylasz.,Én is sokat...,szibánylok,szibánylom,lakik,-lik,2,PR2072,1993,nő,nem,2022-04-18_14h51.40.480,hesp_baseline,2021.2.3,Win32,60.13590715
,,,,,,,,,,,,,,,,,prilegzem,prilegzek,left,2.7022,0,141,141,79,1,26,prilegzik,prilegzel,NA,NA,Te bizony sokat prilegzel.,Én is sokat...,prilegzek,prilegzem,lakik,-zik,2,PR2072,1993,nő,nem,2022-04-18_14h51.40.480,hesp_baseline,2021.2.3,Win32,60.13590715
,,,,,,,,,,,,,,,,,huklom,huklok,left,2.886,0,142,142,78,1,25,huklik,huklasz,NA,NA,Te bizony sokat huklasz.,Én is sokat...,huklok,huklom,lakik,-lik,1,PR2072,1993,nő,nem,2022-04-18_14h51.40.480,hesp_baseline,2021.2.3,Win32,60.13590715
,,,,,,,,,,,,,,,,,flérlek,flérlem,left,2.7549,0,143,143,89,1,36,flérlik,flérlesz,NA,NA,Te bizony sokat flérlesz.,Én is sokat...,flérlek,flérlem,lakik,-lik,1,PR2072,1993,nő,nem,2022-04-18_14h51.40.480,hesp_baseline,2021.2.3,Win32,60.13590715
,,,,,,,,,,,,,,,,,brigesztnek,brigesztnak,left,3.1692,0,144,144,48,1,49,brigeszt,brigeszt,nak,e,Ez itt egy brigeszt.,Elneveztem a kutyámat...,brigesztnek,brigesztnak,dzsungel,NA,NA,PR2072,1993,nő,nem,2022-04-18_14h51.40.480,hesp_baseline,2021.2.3,Win32,60.13590715
,,,,,,,,,,,,,,,,,píjlom,píjlok,right,2.8116,0,145,145,75,1,22,píjlik,píjlasz,NA,NA,Te bizony sokat píjlasz.,Én is sokat...,píjlok,píjlom,lakik,-lik,1,PR2072,1993,nő,nem,2022-04-18_14h51.40.480,hesp_baseline,2021.2.3,Win32,60.13590715
,,,,,,,,,,,,,,,,,rokszok,rokszom,right,2.492,0,146,146,101,1,48,rokszik,rokszol,NA,NA,Te bizony sokat rokszol.,Én is sokat...,rokszok,rokszom,lakik,-szik,1,PR2072,1993,nő,nem,2022-04-18_14h51.40.480,hesp_baseline,2021.2.3,Win32,60.13590715
,,,,,,,,,,,,,,,,,püzöztök,püzlötök,left,5.3345,0,147,147,152,1,45,püzlik / püzözik,"püzlik, püzözni",tek,NA,"János imád püzözni, ezért sokat püzlik.",Ti ritkán...,püzlötök,püzöztök,cselekszik,-lik,1,PR2072,1993,nő,nem,2022-04-18_14h51.40.480,hesp_baseline,2021.2.3,Win32,60.13590715
,,,,,,,,,,,,,,,,,jukélnál,jukélnél,left,3.1324,0,148,148,42,1,43,jukél,jukél,nál,é,Ez itt egy jukél.,Nincs is jobb egy jó...,jukélnél,jukélnál,dzsungel,NA,NA,PR2072,1993,nő,nem,2022-04-18_14h51.40.480,hesp_baseline,2021.2.3,Win32,60.13590715
,,,,,,,,,,,,,,,,,feténylek,feténylem,left,3.1559,0,149,149,85,1,32,feténylik,feténylesz,NA,NA,Te bizony sokat feténylesz.,Én is sokat...,feténylek,feténylem,lakik,-lik,2,PR2072,1993,nő,nem,2022-04-18_14h51.40.480,hesp_baseline,2021.2.3,Win32,60.13590715
,,,,,,,,,,,,,,,,,hilarzom,hilarzok,left,2.4855,0,150,150,69,1,16,hilarzik,hilarzol,NA,NA,Te bizony sokat hilarzol.,Én is sokat...,hilarzok,hilarzom,lakik,-zik,2,PR2072,1993,nő,nem,2022-04-18_14h51.40.480,hesp_baseline,2021.2.3,Win32,60.13590715
,,,,,,,,,,,,,,,,,klaráglom,klaráglok,right,3.2415,0,151,151,91,1,38,klaráglik,klaráglasz,NA,NA,Te bizony sokat klaráglasz.,Én is sokat...,klaráglok,klaráglom,lakik,-lik,2,PR2072,1993,nő,nem,2022-04-18_14h51.40.480,hesp_baseline,2021.2.3,Win32,60.13590715
,,,,,,,,,,,,,,,,,gyivepednek,gyivepszenek,right,8.4109,0,152,152,160,1,53,gyivepszik / gyivepedik,"gyivepszik, gyivepedni",nek,NA,"János imád gyivepedni, ezért sokat gyivepszik.",Ők ritkán...,gyivepszenek,gyivepednek,cselekszik,-szik,2,PR2072,1993,nő,nem,2022-04-18_14h51.40.480,hesp_baseline,2021.2.3,Win32,60.13590715
,,,,,,,,,,,,,,,,,dajrensnál,dajrensnél,right,3.269,0,153,153,49,1,50,dajrens,dajrens,nál,e,Ez itt egy dajrens.,Nincs is jobb egy jó...,dajrensnél,dajrensnál,dzsungel,NA,NA,PR2072,1993,nő,nem,2022-04-18_14h51.40.480,hesp_baseline,2021.2.3,Win32,60.13590715
,,,,,,,,,,,,,,,,,bügöznek,bügzenek,left,4.5819,0,154,154,118,1,11,bügzik / bügözik,"bügzik, bügözni",nek,NA,"János imád bügözni, ezért sokat bügzik.",Ők ritkán...,bügzenek,bügöznek,cselekszik,-zik,1,PR2072,1993,nő,nem,2022-04-18_14h51.40.480,hesp_baseline,2021.2.3,Win32,60.13590715
,,,,,,,,,,,,,,,,,jurozunk,jurlunk,left,3.8513,0,155,155,111,1,4,jurlik / jurozik,"jurlik, jurozni",ünk,NA,"János imád jurozni, ezért sokat jurlik.",Mi ritkán...,jurlunk,jurozunk,cselekszik,-lik,1,PR2072,1993,nő,nem,2022-04-18_14h51.40.480,hesp_baseline,2021.2.3,Win32,60.13590715
,,,,,,,,,,,,,,,,,csublényban,csublényben,left,2.966,0,156,156,16,1,17,csublény,csublény,ban,é,Ez itt egy csublény.,Ott vagyunk a...,csublényben,csublényban,dzsungel,NA,NA,PR2072,1993,nő,nem,2022-04-18_14h51.40.480,hesp_baseline,2021.2.3,Win32,60.13590715
,,,,,,,,,,,,,,,,,incéjnak,incéjnek,right,3.3842,0,157,157,30,1,31,incéj,incéj,nak,é,Ez itt egy incéj.,Elneveztem a kutyámat...,incéjnek,incéjnak,dzsungel,NA,NA,PR2072,1993,nő,nem,2022-04-18_14h51.40.480,hesp_baseline,2021.2.3,Win32,60.13590715
,,,,,,,,,,,,,,,,,dutecnál,dutecnél,right,2.9955,0,158,158,22,1,23,dutec,dutec,nál,e,Ez itt egy dutec.,Nincs is jobb egy jó...,dutecnél,dutecnál,dzsungel,NA,NA,PR2072,1993,nő,nem,2022-04-18_14h51.40.480,hesp_baseline,2021.2.3,Win32,60.13590715
,,,,,,,,,,,,,,,,,köszöztök,köszlötök,left,3.8032,0,159,159,120,1,13,köszlik / köszözik,"köszlik, köszözni",tek,NA,"János imád köszözni, ezért sokat köszlik.",Ti ritkán...,köszlötök,köszöztök,cselekszik,-lik,1,PR2072,1993,nő,nem,2022-04-18_14h51.40.480,hesp_baseline,2021.2.3,Win32,60.13590715
,,,,,,,,,,,,,,,,,plibzotok,pliboztok,left,3.5609,0,160,160,140,1,33,plibzik / plibozik,"plibzik, plibozni",tek,NA,"János imád plibozni, ezért sokat plibzik.",Ti ritkán...,plibzotok,pliboztok,cselekszik,-zik,1,PR2072,1993,nő,nem,2022-04-18_14h51.40.480,hesp_baseline,2021.2.3,Win32,60.13590715
,,,,,,,,,,,,,,,,,pebzek,pebzem,left,2.5032,0,161,161,57,1,4,pebzik,pebzel,NA,NA,Te bizony sokat pebzel.,Én is sokat...,pebzek,pebzem,lakik,-zik,1,PR2072,1993,nő,nem,2022-04-18_14h51.40.480,hesp_baseline,2021.2.3,Win32,60.13590715
