my_list,key.keys,key.rt,key_2.keys,key_2.rt,keyboard_input_2.keys,keyboard_input_2.rt,key_3.keys,key_3.rt,keyboard_input_3.keys,keyboard_input_3.rt,key_4.keys,key_4.rt,keyboard_input_4.keys,keyboard_input_4.rt,key_5.keys,key_5.rt,my_button1,my_button2,keyboard_input.keys,keyboard_input.rt,withinBlock.thisRepN,withinBlock.thisTrialN,withinBlock.thisN,withinBlock.thisIndex,withinBlock.ran,rowname,word,prompt,suffix,vowel,carrier_sentence,target_sentence,target1,target2,category,derivational,nsyl,Azonosító,Melyik évben születtél?,Mi a nemed?,Tanultál nyelvészetet?,date,expName,psychopyVersion,OS,frameRate
list2.csv,space,18.6382,space,13.912,right,28.7334,space,17.598,left,4.3354,space,8.7169,left,6.5738,space,22.836,fojlegynek,fojlegynak,left,7.0801,0,0,0,3,1,58,fojlegy,fojlegy,nak,e,Ez itt egy fojlegy.,Elneveztem a kutyámat...,fojlegynek,fojlegynak,dzsungel,NA,NA,PR2050,1991,nő,nem,2022-04-13_19h24.11.691,hesp_baseline,2021.2.3,Win32,59.55926147
,,,,,,,,,,,,,,,,,flűgözünk,flűgzünk,left,8.1691,0,1,1,160,1,107,flűgzik / flűgözik,"flűgzik, flűgözni",ünk,NA,"János imád flűgözni, ezért sokat flűgzik.",Mi ritkán...,flűgzünk,flűgözünk,cselekszik,-zik,1,PR2050,1991,nő,nem,2022-04-13_19h24.11.691,hesp_baseline,2021.2.3,Win32,59.55926147
,,,,,,,,,,,,,,,,,bivégszem,bivégszek,left,7.3485,0,2,2,68,1,69,bivégszik,bivégszel,NA,NA,Te bizony sokat bivégszel.,Én is sokat...,bivégszek,bivégszem,lakik,-szik,2,PR2050,1991,nő,nem,2022-04-13_19h24.11.691,hesp_baseline,2021.2.3,Win32,59.55926147
,,,,,,,,,,,,,,,,,figlom,figlok,right,6.9172,0,3,3,75,1,76,figlik,figlasz,NA,NA,Te bizony sokat figlasz.,Én is sokat...,figlok,figlom,lakik,-lik,1,PR2050,1991,nő,nem,2022-04-13_19h24.11.691,hesp_baseline,2021.2.3,Win32,59.55926147
,,,,,,,,,,,,,,,,,spáraklom,spáraklok,left,6.4724,0,4,4,96,1,97,spáraklik,spáraklasz,NA,NA,Te bizony sokat spáraklasz.,Én is sokat...,spáraklok,spáraklom,lakik,-lik,2,PR2050,1991,nő,nem,2022-04-13_19h24.11.691,hesp_baseline,2021.2.3,Win32,59.55926147
,,,,,,,,,,,,,,,,,spügözünk,spügzünk,right,9.5665,0,5,5,143,1,90,spügzik / spügözik,"spügzik, spügözni",ünk,NA,"János imád spügözni, ezért sokat spügzik.",Mi ritkán...,spügzünk,spügözünk,cselekszik,-zik,1,PR2050,1991,nő,nem,2022-04-13_19h24.11.691,hesp_baseline,2021.2.3,Win32,59.55926147
,,,,,,,,,,,,,,,,,dihelynak,dihelynek,right,4.8681,0,6,6,20,1,75,dihely,dihely,nak,e,Ez itt egy dihely.,Elneveztem a kutyámat...,dihelynek,dihelynak,dzsungel,NA,NA,PR2050,1991,nő,nem,2022-04-13_19h24.11.691,hesp_baseline,2021.2.3,Win32,59.55926147
,,,,,,,,,,,,,,,,,fibamlom,fibamlok,right,7.6961,0,7,7,65,1,66,fibamlik,fibamlasz,NA,NA,Te bizony sokat fibamlasz.,Én is sokat...,fibamlok,fibamlom,lakik,-lik,2,PR2050,1991,nő,nem,2022-04-13_19h24.11.691,hesp_baseline,2021.2.3,Win32,59.55926147
,,,,,,,,,,,,,,,,,ikszertban,ikszertben,right,8.845,0,8,8,19,1,74,ikszert,ikszert,ban,e,Ez itt egy ikszert.,Ott vagyunk a...,ikszertben,ikszertban,dzsungel,NA,NA,PR2050,1991,nő,nem,2022-04-13_19h24.11.691,hesp_baseline,2021.2.3,Win32,59.55926147
,,,,,,,,,,,,,,,,,praslom,praslok,right,4.6829,0,9,9,80,1,81,praslik,praslasz,NA,NA,Te bizony sokat praslasz.,Én is sokat...,praslok,praslom,lakik,-lik,1,PR2050,1991,nő,nem,2022-04-13_19h24.11.691,hesp_baseline,2021.2.3,Win32,59.55926147
,,,,,,,,,,,,,,,,,klajrénnek,klajrénnak,left,31.3005,0,10,10,41,1,96,klajrén,klajrén,nak,é,Ez itt egy klajrén.,Elneveztem a kutyámat...,klajrénnek,klajrénnak,dzsungel,NA,NA,PR2050,1991,nő,nem,2022-04-13_19h24.11.691,hesp_baseline,2021.2.3,Win32,59.55926147
,,,,,,,,,,,,,,,,,daboztok,dabzotok,right,10.5089,0,11,11,109,1,56,dabzik / dabozik,"dabzik, dabozni",tek,NA,"János imád dabozni, ezért sokat dabzik.",Ti ritkán...,dabzotok,daboztok,cselekszik,-zik,1,PR2050,1991,nő,nem,2022-04-13_19h24.11.691,hesp_baseline,2021.2.3,Win32,59.55926147
,,,,,,,,,,,,,,,,,tribejeztek,tribejletek,left,11.0235,0,12,12,132,1,79,tribejlik / tribejezik,"tribejlik, tribejezni",tek,NA,"János imád tribejezni, ezért sokat tribejlik.",Ti ritkán...,tribejletek,tribejeztek,cselekszik,-lik,2,PR2050,1991,nő,nem,2022-04-13_19h24.11.691,hesp_baseline,2021.2.3,Win32,59.55926147
,,,,,,,,,,,,,,,,,tranékben,tranékban,right,4.6833,0,13,13,2,1,57,tranék,tranék,ban,é,Ez itt egy tranék.,Ott vagyunk a...,tranékben,tranékban,dzsungel,NA,NA,PR2050,1991,nő,nem,2022-04-13_19h24.11.691,hesp_baseline,2021.2.3,Win32,59.55926147
,,,,,,,,,,,,,,,,,szanéjnak,szanéjnek,left,4.3012,0,14,14,13,1,68,szanéj,szanéj,nak,é,Ez itt egy szanéj.,Elneveztem a kutyámat...,szanéjnek,szanéjnak,dzsungel,NA,NA,PR2050,1991,nő,nem,2022-04-13_19h24.11.691,hesp_baseline,2021.2.3,Win32,59.55926147
,,,,,,,,,,,,,,,,,friszlom,friszlok,right,12.6945,0,15,15,97,1,98,friszlik,friszlasz,NA,NA,Te bizony sokat friszlasz.,Én is sokat...,friszlok,friszlom,lakik,-lik,1,PR2050,1991,nő,nem,2022-04-13_19h24.11.691,hesp_baseline,2021.2.3,Win32,59.55926147
,,,,,,,,,,,,,,,,,klehényeztek,klehényletek,left,10.2123,0,16,16,113,1,60,klehénylik / klehényezik,"klehénylik, klehényezni",tek,NA,"János imád klehényezni, ezért sokat klehénylik.",Ti ritkán...,klehényletek,klehényeztek,cselekszik,-lik,2,PR2050,1991,nő,nem,2022-04-13_19h24.11.691,hesp_baseline,2021.2.3,Win32,59.55926147
,,,,,,,,,,,,,,,,,flagánylom,flagánylok,right,5.5018,0,17,17,82,1,83,flagánylik,flagánylasz,NA,NA,Te bizony sokat flagánylasz.,Én is sokat...,flagánylok,flagánylom,lakik,-lik,2,PR2050,1991,nő,nem,2022-04-13_19h24.11.691,hesp_baseline,2021.2.3,Win32,59.55926147
,,,,,,,,,,,,,,,,,mihágzotok,mihágoztok,right,8.9632,0,18,18,118,1,65,mihágzik / mihágozik,"mihágzik, mihágozni",tek,NA,"János imád mihágozni, ezért sokat mihágzik.",Ti ritkán...,mihágzotok,mihágoztok,cselekszik,-zik,2,PR2050,1991,nő,nem,2022-04-13_19h24.11.691,hesp_baseline,2021.2.3,Win32,59.55926147
,,,,,,,,,,,,,,,,,ronvetnak,ronvetnek,right,4.9623,0,19,19,9,1,64,ronvet,ronvet,nak,e,Ez itt egy ronvet.,Elneveztem a kutyámat...,ronvetnek,ronvetnak,dzsungel,NA,NA,PR2050,1991,nő,nem,2022-04-13_19h24.11.691,hesp_baseline,2021.2.3,Win32,59.55926147
,,,,,,,,,,,,,,,,,frálaslanak,frálasoznak,right,14.283,0,20,20,110,1,57,frálaslik / frálasozik,"frálaslik, frálasozni",nek,NA,"János imád frálasozni, ezért sokat frálaslik.",Ők ritkán...,frálaslanak,frálasoznak,cselekszik,-lik,2,PR2050,1991,nő,nem,2022-04-13_19h24.11.691,hesp_baseline,2021.2.3,Win32,59.55926147
,,,,,,,,,,,,,,,,,juszlok,juszlom,right,3.5628,0,21,21,79,1,80,juszlik,juszlasz,NA,NA,Te bizony sokat juszlasz.,Én is sokat...,juszlok,juszlom,lakik,-lik,1,PR2050,1991,nő,nem,2022-04-13_19h24.11.691,hesp_baseline,2021.2.3,Win32,59.55926147
,,,,,,,,,,,,,,,,,spátennek,spátennak,left,9.0677,0,22,22,33,1,88,spáten,spáten,nak,e,Ez itt egy spáten.,Elneveztem a kutyámat...,spátennek,spátennak,dzsungel,NA,NA,PR2050,1991,nő,nem,2022-04-13_19h24.11.691,hesp_baseline,2021.2.3,Win32,59.55926147
,,,,,,,,,,,,,,,,,flitlok,flitlom,left,4.5795,0,23,23,90,1,91,flitlik,flitlasz,NA,NA,Te bizony sokat flitlasz.,Én is sokat...,flitlok,flitlom,lakik,-lik,1,PR2050,1991,nő,nem,2022-04-13_19h24.11.691,hesp_baseline,2021.2.3,Win32,59.55926147
,,,,,,,,,,,,,,,,,dóbemnek,dóbemnak,left,5.1826,0,24,24,48,1,103,dóbem,dóbem,nak,e,Ez itt egy dóbem.,Elneveztem a kutyámat...,dóbemnek,dóbemnak,dzsungel,NA,NA,PR2050,1991,nő,nem,2022-04-13_19h24.11.691,hesp_baseline,2021.2.3,Win32,59.55926147
,,,,,,,,,,,,,,,,,csimennél,csimennál,left,5.4949,0,25,25,44,1,99,csimen,csimen,nál,e,Ez itt egy csimen.,Nincs is jobb egy jó...,csimennél,csimennál,dzsungel,NA,NA,PR2050,1991,nő,nem,2022-04-13_19h24.11.691,hesp_baseline,2021.2.3,Win32,59.55926147
,,,,,,,,,,,,,,,,,zihencnek,zihencnak,left,3.7659,0,26,26,52,1,107,zihenc,zihenc,nak,e,Ez itt egy zihenc.,Elneveztem a kutyámat...,zihencnek,zihencnak,dzsungel,NA,NA,PR2050,1991,nő,nem,2022-04-13_19h24.11.691,hesp_baseline,2021.2.3,Win32,59.55926147
,,,,,,,,,,,,,,,,,csubzunk,csubozunk,right,7.0417,0,27,27,111,1,58,csubzik / csubozik,"csubzik, csubozni",ünk,NA,"János imád csubozni, ezért sokat csubzik.",Mi ritkán...,csubzunk,csubozunk,cselekszik,-zik,1,PR2050,1991,nő,nem,2022-04-13_19h24.11.691,hesp_baseline,2021.2.3,Win32,59.55926147
,,,,,,,,,,,,,,,,,csólorzok,csólorzom,left,5.9109,0,28,28,102,1,103,csólorzik,csólorzol,NA,NA,Te bizony sokat csólorzol.,Én is sokat...,csólorzok,csólorzom,lakik,-zik,2,PR2050,1991,nő,nem,2022-04-13_19h24.11.691,hesp_baseline,2021.2.3,Win32,59.55926147
,,,,,,,,,,,,,,,,,nurokozunk,nuroklunk,right,7.0644,0,29,29,131,1,78,nuroklik / nurokozik,"nuroklik, nurokozni",ünk,NA,"János imád nurokozni, ezért sokat nuroklik.",Mi ritkán...,nuroklunk,nurokozunk,cselekszik,-lik,2,PR2050,1991,nő,nem,2022-04-13_19h24.11.691,hesp_baseline,2021.2.3,Win32,59.55926147
,,,,,,,,,,,,,,,,,lijeznek,lijeznak,left,3.3538,0,30,30,40,1,95,lijez,lijez,nak,e,Ez itt egy lijez.,Elneveztem a kutyámat...,lijeznek,lijeznak,dzsungel,NA,NA,PR2050,1991,nő,nem,2022-04-13_19h24.11.691,hesp_baseline,2021.2.3,Win32,59.55926147
,,,,,,,,,,,,,,,,,pivegszem,pivegszek,right,4.9783,0,31,31,99,1,100,pivegszik,pivegszel,NA,NA,Te bizony sokat pivegszel.,Én is sokat...,pivegszek,pivegszem,lakik,-szik,2,PR2050,1991,nő,nem,2022-04-13_19h24.11.691,hesp_baseline,2021.2.3,Win32,59.55926147
,,,,,,,,,,,,,,,,,ribzom,ribzok,right,4.2534,0,32,32,58,1,59,ribzik,ribzol,NA,NA,Te bizony sokat ribzol.,Én is sokat...,ribzok,ribzom,lakik,-zik,1,PR2050,1991,nő,nem,2022-04-13_19h24.11.691,hesp_baseline,2021.2.3,Win32,59.55926147
,,,,,,,,,,,,,,,,,péleslek,péleslem,right,6.1229,0,33,33,73,1,74,péleslik,péleslesz,NA,NA,Te bizony sokat péleslesz.,Én is sokat...,péleslek,péleslem,lakik,-lik,2,PR2050,1991,nő,nem,2022-04-13_19h24.11.691,hesp_baseline,2021.2.3,Win32,59.55926147
,,,,,,,,,,,,,,,,,flerékszünk,flerékedünk,right,8.1991,0,34,34,159,1,106,flerékszik / flerékedik,"flerékszik, flerékedni",ünk,NA,"János imád flerékedni, ezért sokat flerékszik.",Mi ritkán...,flerékszünk,flerékedünk,cselekszik,-szik,2,PR2050,1991,nő,nem,2022-04-13_19h24.11.691,hesp_baseline,2021.2.3,Win32,59.55926147
,,,,,,,,,,,,,,,,,garcépnál,garcépnél,right,4.795,0,35,35,38,1,93,garcép,garcép,nál,é,Ez itt egy garcép.,Nincs is jobb egy jó...,garcépnél,garcépnál,dzsungel,NA,NA,PR2050,1991,nő,nem,2022-04-13_19h24.11.691,hesp_baseline,2021.2.3,Win32,59.55926147
,,,,,,,,,,,,,,,,,frivamozunk,frivamlunk,right,5.5069,0,36,36,122,1,69,frivamlik / frivamozik,"frivamlik, frivamozni",ünk,NA,"János imád frivamozni, ezért sokat frivamlik.",Mi ritkán...,frivamlunk,frivamozunk,cselekszik,-lik,2,PR2050,1991,nő,nem,2022-04-13_19h24.11.691,hesp_baseline,2021.2.3,Win32,59.55926147
,,,,,,,,,,,,,,,,,míjozunk,míjzunk,left,9.2375,0,37,37,114,1,61,míjzik / míjozik,"míjzik, míjozni",ünk,NA,"János imád míjozni, ezért sokat míjzik.",Mi ritkán...,míjzunk,míjozunk,cselekszik,-zik,1,PR2050,1991,nő,nem,2022-04-13_19h24.11.691,hesp_baseline,2021.2.3,Win32,59.55926147
,,,,,,,,,,,,,,,,,klidlom,klidlok,right,3.6479,0,38,38,72,1,73,klidlik,klidlasz,NA,NA,Te bizony sokat klidlasz.,Én is sokat...,klidlok,klidlom,lakik,-lik,1,PR2050,1991,nő,nem,2022-04-13_19h24.11.691,hesp_baseline,2021.2.3,Win32,59.55926147
,,,,,,,,,,,,,,,,,spüjzök,spüjzöm,left,4.2925,0,39,39,59,1,60,spüjzik,spüjzöl,NA,NA,Te bizony sokat spüjzöl.,Én is sokat...,spüjzök,spüjzöm,lakik,-zik,1,PR2050,1991,nő,nem,2022-04-13_19h24.11.691,hesp_baseline,2021.2.3,Win32,59.55926147
,,,,,,,,,,,,,,,,,fivénylem,fivénylek,right,5.1683,0,40,40,78,1,79,fivénylik,fivénylesz,NA,NA,Te bizony sokat fivénylesz.,Én is sokat...,fivénylek,fivénylem,lakik,-lik,2,PR2050,1991,nő,nem,2022-04-13_19h24.11.691,hesp_baseline,2021.2.3,Win32,59.55926147
,,,,,,,,,,,,,,,,,brágaklok,brágaklom,left,4.0339,0,41,41,71,1,72,brágaklik,brágaklasz,NA,NA,Te bizony sokat brágaklasz.,Én is sokat...,brágaklok,brágaklom,lakik,-lik,2,PR2050,1991,nő,nem,2022-04-13_19h24.11.691,hesp_baseline,2021.2.3,Win32,59.55926147
,,,,,,,,,,,,,,,,,bingéjnak,bingéjnek,right,5.062,0,42,42,49,1,104,bingéj,bingéj,nak,é,Ez itt egy bingéj.,Elneveztem a kutyámat...,bingéjnek,bingéjnak,dzsungel,NA,NA,PR2050,1991,nő,nem,2022-04-13_19h24.11.691,hesp_baseline,2021.2.3,Win32,59.55926147
,,,,,,,,,,,,,,,,,flemlünk,flemezünk,right,8.1801,0,43,43,137,1,84,flemlik / flemezik,"flemlik, flemezni",ünk,NA,"János imád flemezni, ezért sokat flemlik.",Mi ritkán...,flemlünk,flemezünk,cselekszik,-lik,1,PR2050,1991,nő,nem,2022-04-13_19h24.11.691,hesp_baseline,2021.2.3,Win32,59.55926147
,,,,,,,,,,,,,,,,,livényezünk,livénylünk,right,5.8201,0,44,44,128,1,75,livénylik / livényezik,"livénylik, livényezni",ünk,NA,"János imád livényezni, ezért sokat livénylik.",Mi ritkán...,livénylünk,livényezünk,cselekszik,-lik,2,PR2050,1991,nő,nem,2022-04-13_19h24.11.691,hesp_baseline,2021.2.3,Win32,59.55926147
,,,,,,,,,,,,,,,,,jábézben,jábézban,right,3.3464,0,45,45,34,1,89,jábéz,jábéz,ban,é,Ez itt egy jábéz.,Ott vagyunk a...,jábézben,jábézban,dzsungel,NA,NA,PR2050,1991,nő,nem,2022-04-13_19h24.11.691,hesp_baseline,2021.2.3,Win32,59.55926147
,,,,,,,,,,,,,,,,,sortemnél,sortemnál,left,5.1408,0,46,46,15,1,70,sortem,sortem,nál,e,Ez itt egy sortem.,Nincs is jobb egy jó...,sortemnél,sortemnál,dzsungel,NA,NA,PR2050,1991,nő,nem,2022-04-13_19h24.11.691,hesp_baseline,2021.2.3,Win32,59.55926147
,,,,,,,,,,,,,,,,,szűslöm,szűslök,right,4.2338,0,47,47,85,1,86,szűslik,szűslesz,NA,NA,Te bizony sokat szűslesz.,Én is sokat...,szűslök,szűslöm,lakik,-lik,1,PR2050,1991,nő,nem,2022-04-13_19h24.11.691,hesp_baseline,2021.2.3,Win32,59.55926147
,,,,,,,,,,,,,,,,,spubonylom,spubonylok,right,5.1611,0,48,48,104,1,105,spubonylik,spubonylasz,NA,NA,Te bizony sokat spubonylasz.,Én is sokat...,spubonylok,spubonylom,lakik,-lik,2,PR2050,1991,nő,nem,2022-04-13_19h24.11.691,hesp_baseline,2021.2.3,Win32,59.55926147
,,,,,,,,,,,,,,,,,pratelynak,pratelynek,right,7.3013,0,49,49,47,1,102,prately,prately,nak,e,Ez itt egy prately.,Elneveztem a kutyámat...,pratelynek,pratelynak,dzsungel,NA,NA,PR2050,1991,nő,nem,2022-04-13_19h24.11.691,hesp_baseline,2021.2.3,Win32,59.55926147
,,,,,,,,,,,,,,,,,sojzok,sojzom,right,2.8204,0,50,50,74,1,75,sojzik,sojzol,NA,NA,Te bizony sokat sojzol.,Én is sokat...,sojzok,sojzom,lakik,-zik,1,PR2050,1991,nő,nem,2022-04-13_19h24.11.691,hesp_baseline,2021.2.3,Win32,59.55926147
,,,,,,,,,,,,,,,,,tumélynél,tumélynál,left,4.1473,0,51,51,28,1,83,tumély,tumély,nál,é,Ez itt egy tumély.,Nincs is jobb egy jó...,tumélynél,tumélynál,dzsungel,NA,NA,PR2050,1991,nő,nem,2022-04-13_19h24.11.691,hesp_baseline,2021.2.3,Win32,59.55926147
,,,,,,,,,,,,,,,,,molszotok,molodtok,right,17.2154,0,52,52,142,1,89,molszik / molodik,"molszik, molodni",tek,NA,"János imád molodni, ezért sokat molszik.",Ti ritkán...,molszotok,molodtok,cselekszik,-szik,1,PR2050,1991,nő,nem,2022-04-13_19h24.11.691,hesp_baseline,2021.2.3,Win32,59.55926147
,,,,,,,,,,,,,,,,,pítendben,pítendban,left,3.4825,0,53,53,18,1,73,pítend,pítend,ban,e,Ez itt egy pítend.,Ott vagyunk a...,pítendben,pítendban,dzsungel,NA,NA,PR2050,1991,nő,nem,2022-04-13_19h24.11.691,hesp_baseline,2021.2.3,Win32,59.55926147
,,,,,,,,,,,,,,,,,zutennál,zutennél,right,3.1889,0,54,54,43,1,98,zuten,zuten,nál,e,Ez itt egy zuten.,Nincs is jobb egy jó...,zutennél,zutennál,dzsungel,NA,NA,PR2050,1991,nő,nem,2022-04-13_19h24.11.691,hesp_baseline,2021.2.3,Win32,59.55926147
,,,,,,,,,,,,,,,,,gihamlanak,gihamoznak,right,9.6117,0,55,55,133,1,80,gihamlik / gihamozik,"gihamlik, gihamozni",nek,NA,"János imád gihamozni, ezért sokat gihamlik.",Ők ritkán...,gihamlanak,gihamoznak,cselekszik,-lik,2,PR2050,1991,nő,nem,2022-04-13_19h24.11.691,hesp_baseline,2021.2.3,Win32,59.55926147
,,,,,,,,,,,,,,,,,csíszlok,csíszlom,left,3.9281,0,56,56,84,1,85,csíszlik,csíszlasz,NA,NA,Te bizony sokat csíszlasz.,Én is sokat...,csíszlok,csíszlom,lakik,-lik,1,PR2050,1991,nő,nem,2022-04-13_19h24.11.691,hesp_baseline,2021.2.3,Win32,59.55926147
,,,,,,,,,,,,,,,,,kátédnál,kátédnél,left,10.3706,0,57,57,37,1,92,kátéd,kátéd,nál,é,Ez itt egy kátéd.,Nincs is jobb egy jó...,kátédnél,kátédnál,dzsungel,NA,NA,PR2050,1991,nő,nem,2022-04-13_19h24.11.691,hesp_baseline,2021.2.3,Win32,59.55926147
,,,,,,,,,,,,,,,,,vorszennál,vorszennél,right,3.2029,0,58,58,30,1,85,vorszen,vorszen,nál,e,Ez itt egy vorszen.,Nincs is jobb egy jó...,vorszennél,vorszennál,dzsungel,NA,NA,PR2050,1991,nő,nem,2022-04-13_19h24.11.691,hesp_baseline,2021.2.3,Win32,59.55926147
,,,,,,,,,,,,,,,,,nyádoznak,nyádlanak,right,4.5536,0,59,59,120,1,67,nyádlik / nyádozik,"nyádlik, nyádozni",nek,NA,"János imád nyádozni, ezért sokat nyádlik.",Ők ritkán...,nyádlanak,nyádoznak,cselekszik,-lik,1,PR2050,1991,nő,nem,2022-04-13_19h24.11.691,hesp_baseline,2021.2.3,Win32,59.55926147
,,,,,,,,,,,,,,,,,prilepszünk,prilepedünk,left,6.0604,0,60,60,161,1,108,prilepszik / prilepedik,"prilepszik, prilepedni",ünk,NA,"János imád prilepedni, ezért sokat prilepszik.",Mi ritkán...,prilepszünk,prilepedünk,cselekszik,-szik,2,PR2050,1991,nő,nem,2022-04-13_19h24.11.691,hesp_baseline,2021.2.3,Win32,59.55926147
,,,,,,,,,,,,,,,,,csintékban,csintékben,right,3.7797,0,61,61,23,1,78,csinték,csinték,ban,é,Ez itt egy csinték.,Ott vagyunk a...,csintékben,csintékban,dzsungel,NA,NA,PR2050,1991,nő,nem,2022-04-13_19h24.11.691,hesp_baseline,2021.2.3,Win32,59.55926147
,,,,,,,,,,,,,,,,,gyihegeztek,gyihegzetek,right,6.3354,0,62,62,124,1,71,gyihegzik / gyihegezik,"gyihegzik, gyihegezni",tek,NA,"János imád gyihegezni, ezért sokat gyihegzik.",Ti ritkán...,gyihegzetek,gyihegeztek,cselekszik,-zik,2,PR2050,1991,nő,nem,2022-04-13_19h24.11.691,hesp_baseline,2021.2.3,Win32,59.55926147
,,,,,,,,,,,,,,,,,flézeztek,flézletek,left,7.7859,0,63,63,134,1,81,flézlik / flézezik,"flézlik, flézezni",tek,NA,"János imád flézezni, ezért sokat flézlik.",Ti ritkán...,flézletek,flézeztek,cselekszik,-lik,1,PR2050,1991,nő,nem,2022-04-13_19h24.11.691,hesp_baseline,2021.2.3,Win32,59.55926147
,,,,,,,,,,,,,,,,,sprebzenek,sprebeznek,left,9.519,0,64,64,139,1,86,sprebzik / sprebezik,"sprebzik, sprebezni",nek,NA,"János imád sprebezni, ezért sokat sprebzik.",Ők ritkán...,sprebzenek,sprebeznek,cselekszik,-zik,1,PR2050,1991,nő,nem,2022-04-13_19h24.11.691,hesp_baseline,2021.2.3,Win32,59.55926147
,,,,,,,,,,,,,,,,,dibágoztok,dibáglotok,left,6.5465,0,65,65,154,1,101,dibáglik / dibágozik,"dibáglik, dibágozni",tek,NA,"János imád dibágozni, ezért sokat dibáglik.",Ti ritkán...,dibáglotok,dibágoztok,cselekszik,-lik,2,PR2050,1991,nő,nem,2022-04-13_19h24.11.691,hesp_baseline,2021.2.3,Win32,59.55926147
,,,,,,,,,,,,,,,,,cságyeltban,cságyeltben,left,4.1327,0,66,66,10,1,65,cságyelt,cságyelt,ban,e,Ez itt egy cságyelt.,Ott vagyunk a...,cságyeltben,cságyeltban,dzsungel,NA,NA,PR2050,1991,nő,nem,2022-04-13_19h24.11.691,hesp_baseline,2021.2.3,Win32,59.55926147
,,,,,,,,,,,,,,,,,sprogzok,sprogzom,right,4.1879,0,67,67,89,1,90,sprogzik,sprogzol,NA,NA,Te bizony sokat sprogzol.,Én is sokat...,sprogzok,sprogzom,lakik,-zik,1,PR2050,1991,nő,nem,2022-04-13_19h24.11.691,hesp_baseline,2021.2.3,Win32,59.55926147
,,,,,,,,,,,,,,,,,pratánylom,pratánylok,right,4.3002,0,68,68,95,1,96,pratánylik,pratánylasz,NA,NA,Te bizony sokat pratánylasz.,Én is sokat...,pratánylok,pratánylom,lakik,-lik,2,PR2050,1991,nő,nem,2022-04-13_19h24.11.691,hesp_baseline,2021.2.3,Win32,59.55926147
,,,,,,,,,,,,,,,,,kluhéjnél,kluhéjnál,right,4.6831,0,69,69,24,1,79,kluhéj,kluhéj,nál,é,Ez itt egy kluhéj.,Nincs is jobb egy jó...,kluhéjnél,kluhéjnál,dzsungel,NA,NA,PR2050,1991,nő,nem,2022-04-13_19h24.11.691,hesp_baseline,2021.2.3,Win32,59.55926147
,,,,,,,,,,,,,,,,,nyábétban,nyábétben,left,12.0638,0,70,70,21,1,76,nyábét,nyábét,ban,é,Ez itt egy nyábét.,Ott vagyunk a...,nyábétben,nyábétban,dzsungel,NA,NA,PR2050,1991,nő,nem,2022-04-13_19h24.11.691,hesp_baseline,2021.2.3,Win32,59.55926147
,,,,,,,,,,,,,,,,,prihegszenek,prihegednek,left,4.9966,0,71,71,155,1,102,prihegszik / prihegedik,"prihegszik, prihegedni",nek,NA,"János imád prihegedni, ezért sokat prihegszik.",Ők ritkán...,prihegszenek,prihegednek,cselekszik,-szik,2,PR2050,1991,nő,nem,2022-04-13_19h24.11.691,hesp_baseline,2021.2.3,Win32,59.55926147
,,,,,,,,,,,,,,,,,fluboklotok,flubokoztok,right,6.3297,0,72,72,151,1,98,fluboklik / flubokozik,"fluboklik, flubokozni",tek,NA,"János imád flubokozni, ezért sokat fluboklik.",Ti ritkán...,fluboklotok,flubokoztok,cselekszik,-lik,2,PR2050,1991,nő,nem,2022-04-13_19h24.11.691,hesp_baseline,2021.2.3,Win32,59.55926147
,,,,,,,,,,,,,,,,,dingecnak,dingecnek,right,3.879,0,73,73,42,1,97,dingec,dingec,nak,e,Ez itt egy dingec.,Elneveztem a kutyámat...,dingecnek,dingecnak,dzsungel,NA,NA,PR2050,1991,nő,nem,2022-04-13_19h24.11.691,hesp_baseline,2021.2.3,Win32,59.55926147
,,,,,,,,,,,,,,,,,flehékszem,flehékszek,right,5.583,0,74,74,77,1,78,flehékszik,flehékszel,NA,NA,Te bizony sokat flehékszel.,Én is sokat...,flehékszek,flehékszem,lakik,-szik,2,PR2050,1991,nő,nem,2022-04-13_19h24.11.691,hesp_baseline,2021.2.3,Win32,59.55926147
,,,,,,,,,,,,,,,,,flibekszek,flibekszem,right,2.7522,0,75,75,93,1,94,flibekszik,flibekszel,NA,NA,Te bizony sokat flibekszel.,Én is sokat...,flibekszek,flibekszem,lakik,-szik,2,PR2050,1991,nő,nem,2022-04-13_19h24.11.691,hesp_baseline,2021.2.3,Win32,59.55926147
,,,,,,,,,,,,,,,,,driládzom,driládzok,left,4.4508,0,76,76,67,1,68,driládzik,driládzol,NA,NA,Te bizony sokat driládzol.,Én is sokat...,driládzok,driládzom,lakik,-zik,2,PR2050,1991,nő,nem,2022-04-13_19h24.11.691,hesp_baseline,2021.2.3,Win32,59.55926147
,,,,,,,,,,,,,,,,,hubonyoztok,hubonylotok,right,4.4775,0,77,77,157,1,104,hubonylik / hubonyozik,"hubonylik, hubonyozni",tek,NA,"János imád hubonyozni, ezért sokat hubonylik.",Ti ritkán...,hubonylotok,hubonyoztok,cselekszik,-lik,2,PR2050,1991,nő,nem,2022-04-13_19h24.11.691,hesp_baseline,2021.2.3,Win32,59.55926147
,,,,,,,,,,,,,,,,,spülűdzöm,spülűdzök,right,3.5655,0,78,78,56,1,57,spülűdzik,spülűdzöl,NA,NA,Te bizony sokat spülűdzöl.,Én is sokat...,spülűdzök,spülűdzöm,lakik,-zik,2,PR2050,1991,nő,nem,2022-04-13_19h24.11.691,hesp_baseline,2021.2.3,Win32,59.55926147
,,,,,,,,,,,,,,,,,nyöbzenek,nyöböznek,right,5.2393,0,79,79,152,1,99,nyöbzik / nyöbözik,"nyöbzik, nyöbözni",nek,NA,"János imád nyöbözni, ezért sokat nyöbzik.",Ők ritkán...,nyöbzenek,nyöböznek,cselekszik,-zik,1,PR2050,1991,nő,nem,2022-04-13_19h24.11.691,hesp_baseline,2021.2.3,Win32,59.55926147
,,,,,,,,,,,,,,,,,flürököztök,flüröklötök,right,6.177,0,80,80,149,1,96,flüröklik / flüröközik,"flüröklik, flüröközni",tek,NA,"János imád flüröközni, ezért sokat flüröklik.",Ti ritkán...,flüröklötök,flürököztök,cselekszik,-lik,2,PR2050,1991,nő,nem,2022-04-13_19h24.11.691,hesp_baseline,2021.2.3,Win32,59.55926147
,,,,,,,,,,,,,,,,,fréslünk,frésezünk,right,4.016,0,81,81,138,1,85,fréslik / frésezik,"fréslik, frésezni",ünk,NA,"János imád frésezni, ezért sokat fréslik.",Mi ritkán...,fréslünk,frésezünk,cselekszik,-lik,1,PR2050,1991,nő,nem,2022-04-13_19h24.11.691,hesp_baseline,2021.2.3,Win32,59.55926147
,,,,,,,,,,,,,,,,,tomlom,tomlok,right,3.8208,0,82,82,86,1,87,tomlik,tomlasz,NA,NA,Te bizony sokat tomlasz.,Én is sokat...,tomlok,tomlom,lakik,-lik,1,PR2050,1991,nő,nem,2022-04-13_19h24.11.691,hesp_baseline,2021.2.3,Win32,59.55926147
,,,,,,,,,,,,,,,,,dárakodunk,dárakszunk,right,4.3551,0,83,83,126,1,73,dárakszik / dárakodik,"dárakszik, dárakodni",ünk,NA,"János imád dárakodni, ezért sokat dárakszik.",Mi ritkán...,dárakszunk,dárakodunk,cselekszik,-szik,2,PR2050,1991,nő,nem,2022-04-13_19h24.11.691,hesp_baseline,2021.2.3,Win32,59.55926147
,,,,,,,,,,,,,,,,,trigencnak,trigencnek,right,3.4854,0,84,84,31,1,86,trigenc,trigenc,nak,e,Ez itt egy trigenc.,Elneveztem a kutyámat...,trigencnek,trigencnak,dzsungel,NA,NA,PR2050,1991,nő,nem,2022-04-13_19h24.11.691,hesp_baseline,2021.2.3,Win32,59.55926147
,,,,,,,,,,,,,,,,,fröjözünk,fröjlünk,right,4.6168,0,85,85,117,1,64,fröjlik / fröjözik,"fröjlik, fröjözni",ünk,NA,"János imád fröjözni, ezért sokat fröjlik.",Mi ritkán...,fröjlünk,fröjözünk,cselekszik,-lik,1,PR2050,1991,nő,nem,2022-04-13_19h24.11.691,hesp_baseline,2021.2.3,Win32,59.55926147
,,,,,,,,,,,,,,,,,spatárzom,spatárzok,right,5.6336,0,86,86,69,1,70,spatárzik,spatárzol,NA,NA,Te bizony sokat spatárzol.,Én is sokat...,spatárzok,spatárzom,lakik,-zik,2,PR2050,1991,nő,nem,2022-04-13_19h24.11.691,hesp_baseline,2021.2.3,Win32,59.55926147
,,,,,,,,,,,,,,,,,trugoznak,trugzanak,right,4.2707,0,87,87,146,1,93,trugzik / trugozik,"trugzik, trugozni",nek,NA,"János imád trugozni, ezért sokat trugzik.",Ők ritkán...,trugzanak,trugoznak,cselekszik,-zik,1,PR2050,1991,nő,nem,2022-04-13_19h24.11.691,hesp_baseline,2021.2.3,Win32,59.55926147
,,,,,,,,,,,,,,,,,gilárzok,gilárzom,right,3.6409,0,88,88,94,1,95,gilárzik,gilárzol,NA,NA,Te bizony sokat gilárzol.,Én is sokat...,gilárzok,gilárzom,lakik,-zik,2,PR2050,1991,nő,nem,2022-04-13_19h24.11.691,hesp_baseline,2021.2.3,Win32,59.55926147
,,,,,,,,,,,,,,,,,bribékszetek,bribékedtek,right,5.5387,0,89,89,141,1,88,bribékszik / bribékedik,"bribékszik, bribékedni",tek,NA,"János imád bribékedni, ezért sokat bribékszik.",Ti ritkán...,bribékszetek,bribékedtek,cselekszik,-szik,2,PR2050,1991,nő,nem,2022-04-13_19h24.11.691,hesp_baseline,2021.2.3,Win32,59.55926147
,,,,,,,,,,,,,,,,,sprigzotok,sprigoztok,right,4.3518,0,90,90,129,1,76,sprigzik / sprigozik,"sprigzik, sprigozni",tek,NA,"János imád sprigozni, ezért sokat sprigzik.",Ti ritkán...,sprigzotok,sprigoztok,cselekszik,-zik,1,PR2050,1991,nő,nem,2022-04-13_19h24.11.691,hesp_baseline,2021.2.3,Win32,59.55926147
,,,,,,,,,,,,,,,,,gúdenben,gúdenban,right,2.7968,0,91,91,4,1,59,gúden,gúden,ban,e,Ez itt egy gúden.,Ott vagyunk a...,gúdenben,gúdenban,dzsungel,NA,NA,PR2050,1991,nő,nem,2022-04-13_19h24.11.691,hesp_baseline,2021.2.3,Win32,59.55926147
,,,,,,,,,,,,,,,,,ribegzek,ribegzem,right,5.6222,0,92,92,63,1,64,ribegzik,ribegzel,NA,NA,Te bizony sokat ribegzel.,Én is sokat...,ribegzek,ribegzem,lakik,-zik,2,PR2050,1991,nő,nem,2022-04-13_19h24.11.691,hesp_baseline,2021.2.3,Win32,59.55926147
,,,,,,,,,,,,,,,,,floglom,floglok,right,2.7726,0,93,93,92,1,93,floglik,floglasz,NA,NA,Te bizony sokat floglasz.,Én is sokat...,floglok,floglom,lakik,-lik,1,PR2050,1991,nő,nem,2022-04-13_19h24.11.691,hesp_baseline,2021.2.3,Win32,59.55926147
,,,,,,,,,,,,,,,,,ruslok,ruslom,left,2.8002,0,94,94,83,1,84,ruslik,ruslasz,NA,NA,Te bizony sokat ruslasz.,Én is sokat...,ruslok,ruslom,lakik,-lik,1,PR2050,1991,nő,nem,2022-04-13_19h24.11.691,hesp_baseline,2021.2.3,Win32,59.55926147
,,,,,,,,,,,,,,,,,prohódzok,prohódzom,left,3.2841,0,95,95,66,1,67,prohódzik,prohódzol,NA,NA,Te bizony sokat prohódzol.,Én is sokat...,prohódzok,prohódzom,lakik,-zik,2,PR2050,1991,nő,nem,2022-04-13_19h24.11.691,hesp_baseline,2021.2.3,Win32,59.55926147
,,,,,,,,,,,,,,,,,flodoztok,flodlotok,left,5.1627,0,96,96,144,1,91,flodlik / flodozik,"flodlik, flodozni",tek,NA,"János imád flodozni, ezért sokat flodlik.",Ti ritkán...,flodlotok,flodoztok,cselekszik,-lik,1,PR2050,1991,nő,nem,2022-04-13_19h24.11.691,hesp_baseline,2021.2.3,Win32,59.55926147
,,,,,,,,,,,,,,,,,navecben,navecban,right,3.8474,0,97,97,8,1,63,navec,navec,ban,e,Ez itt egy navec.,Ott vagyunk a...,navecben,navecban,dzsungel,NA,NA,PR2050,1991,nő,nem,2022-04-13_19h24.11.691,hesp_baseline,2021.2.3,Win32,59.55926147
,,,,,,,,,,,,,,,,,ítensban,ítensben,right,4.6783,0,98,98,50,1,105,ítens,ítens,ban,e,Ez itt egy ítens.,Ott vagyunk a...,ítensben,ítensban,dzsungel,NA,NA,PR2050,1991,nő,nem,2022-04-13_19h24.11.691,hesp_baseline,2021.2.3,Win32,59.55926147
,,,,,,,,,,,,,,,,,frodlom,frodlok,right,2.2789,0,99,99,61,1,62,frodlik,frodlasz,NA,NA,Te bizony sokat frodlasz.,Én is sokat...,frodlok,frodlom,lakik,-lik,1,PR2050,1991,nő,nem,2022-04-13_19h24.11.691,hesp_baseline,2021.2.3,Win32,59.55926147
,,,,,,,,,,,,,,,,,prihekszek,prihekszem,left,4.2989,0,100,100,100,1,101,prihekszik,prihekszel,NA,NA,Te bizony sokat prihekszel.,Én is sokat...,prihekszek,prihekszem,lakik,-szik,2,PR2050,1991,nő,nem,2022-04-13_19h24.11.691,hesp_baseline,2021.2.3,Win32,59.55926147
,,,,,,,,,,,,,,,,,kalrézben,kalrézban,right,3.2605,0,101,101,16,1,71,kalréz,kalréz,ban,é,Ez itt egy kalréz.,Ott vagyunk a...,kalrézben,kalrézban,dzsungel,NA,NA,PR2050,1991,nő,nem,2022-04-13_19h24.11.691,hesp_baseline,2021.2.3,Win32,59.55926147
,,,,,,,,,,,,,,,,,lingéknál,lingéknél,right,4.4843,0,102,102,32,1,87,lingék,lingék,nál,é,Ez itt egy lingék.,Nincs is jobb egy jó...,lingéknél,lingéknál,dzsungel,NA,NA,PR2050,1991,nő,nem,2022-04-13_19h24.11.691,hesp_baseline,2021.2.3,Win32,59.55926147
,,,,,,,,,,,,,,,,,flűröklöm,flűröklök,right,6.2279,0,103,103,91,1,92,flűröklik,flűröklesz,NA,NA,Te bizony sokat flűröklesz.,Én is sokat...,flűröklök,flűröklöm,lakik,-lik,2,PR2050,1991,nő,nem,2022-04-13_19h24.11.691,hesp_baseline,2021.2.3,Win32,59.55926147
,,,,,,,,,,,,,,,,,spöklünk,spöközünk,right,22.2116,0,104,104,130,1,77,spöklik / spöközik,"spöklik, spöközni",ünk,NA,"János imád spöközni, ezért sokat spöklik.",Mi ritkán...,spöklünk,spöközünk,cselekszik,-lik,1,PR2050,1991,nő,nem,2022-04-13_19h24.11.691,hesp_baseline,2021.2.3,Win32,59.55926147
,,,,,,,,,,,,,,,,,poslotok,posoztok,right,4.6812,0,105,105,121,1,68,poslik / posozik,"poslik, posozni",tek,NA,"János imád posozni, ezért sokat poslik.",Ti ritkán...,poslotok,posoztok,cselekszik,-lik,1,PR2050,1991,nő,nem,2022-04-13_19h24.11.691,hesp_baseline,2021.2.3,Win32,59.55926147
,,,,,,,,,,,,,,,,,fröjzötök,fröjöztök,right,5.1573,0,106,106,153,1,100,fröjzik / fröjözik,"fröjzik, fröjözni",tek,NA,"János imád fröjözni, ezért sokat fröjzik.",Ti ritkán...,fröjzötök,fröjöztök,cselekszik,-zik,1,PR2050,1991,nő,nem,2022-04-13_19h24.11.691,hesp_baseline,2021.2.3,Win32,59.55926147
,,,,,,,,,,,,,,,,,klítegynél,klítegynál,left,4.3469,0,107,107,5,1,60,klítegy,klítegy,nál,e,Ez itt egy klítegy.,Nincs is jobb egy jó...,klítegynél,klítegynál,dzsungel,NA,NA,PR2050,1991,nő,nem,2022-04-13_19h24.11.691,hesp_baseline,2021.2.3,Win32,59.55926147
,,,,,,,,,,,,,,,,,fligzom,fligzok,right,2.5502,0,108,108,103,1,104,fligzik,fligzol,NA,NA,Te bizony sokat fligzol.,Én is sokat...,fligzok,fligzom,lakik,-zik,1,PR2050,1991,nő,nem,2022-04-13_19h24.11.691,hesp_baseline,2021.2.3,Win32,59.55926147
,,,,,,,,,,,,,,,,,dilaklotok,dilakoztok,right,5.5799,0,109,109,158,1,105,dilaklik / dilakozik,"dilaklik, dilakozni",tek,NA,"János imád dilakozni, ezért sokat dilaklik.",Ti ritkán...,dilaklotok,dilakoztok,cselekszik,-lik,2,PR2050,1991,nő,nem,2022-04-13_19h24.11.691,hesp_baseline,2021.2.3,Win32,59.55926147
,,,,,,,,,,,,,,,,,tosélyben,tosélyban,right,2.8823,0,110,110,25,1,80,tosély,tosély,ban,é,Ez itt egy tosély.,Ott vagyunk a...,tosélyben,tosélyban,dzsungel,NA,NA,PR2050,1991,nő,nem,2022-04-13_19h24.11.691,hesp_baseline,2021.2.3,Win32,59.55926147
,,,,,,,,,,,,,,,,,nidétben,nidétban,left,3.5663,0,111,111,39,1,94,nidét,nidét,ban,é,Ez itt egy nidét.,Ott vagyunk a...,nidétben,nidétban,dzsungel,NA,NA,PR2050,1991,nő,nem,2022-04-13_19h24.11.691,hesp_baseline,2021.2.3,Win32,59.55926147
,,,,,,,,,,,,,,,,,flűmlök,flűmlöm,left,3.3509,0,112,112,54,1,55,flűmlik,flűmlesz,NA,NA,Te bizony sokat flűmlesz.,Én is sokat...,flűmlök,flűmlöm,lakik,-lik,1,PR2050,1991,nő,nem,2022-04-13_19h24.11.691,hesp_baseline,2021.2.3,Win32,59.55926147
,,,,,,,,,,,,,,,,,rapszeknél,rapszeknál,left,3.7696,0,113,113,35,1,90,rapszek,rapszek,nál,e,Ez itt egy rapszek.,Nincs is jobb egy jó...,rapszeknél,rapszeknál,dzsungel,NA,NA,PR2050,1991,nő,nem,2022-04-13_19h24.11.691,hesp_baseline,2021.2.3,Win32,59.55926147
,,,,,,,,,,,,,,,,,spibeglünk,spibegezünk,left,5.0691,0,114,114,147,1,94,spibeglik / spibegezik,"spibeglik, spibegezni",ünk,NA,"János imád spibegezni, ezért sokat spibeglik.",Mi ritkán...,spibeglünk,spibegezünk,cselekszik,-lik,2,PR2050,1991,nő,nem,2022-04-13_19h24.11.691,hesp_baseline,2021.2.3,Win32,59.55926147
,,,,,,,,,,,,,,,,,zsigénnél,zsigénnál,left,6.5307,0,115,115,12,1,67,zsigén,zsigén,nál,é,Ez itt egy zsigén.,Nincs is jobb egy jó...,zsigénnél,zsigénnál,dzsungel,NA,NA,PR2050,1991,nő,nem,2022-04-13_19h24.11.691,hesp_baseline,2021.2.3,Win32,59.55926147
,,,,,,,,,,,,,,,,,spizecnek,spizecnak,left,3.4138,0,116,116,6,1,61,spizec,spizec,nak,e,Ez itt egy spizec.,Elneveztem a kutyámat...,spizecnek,spizecnak,dzsungel,NA,NA,PR2050,1991,nő,nem,2022-04-13_19h24.11.691,hesp_baseline,2021.2.3,Win32,59.55926147
,,,,,,,,,,,,,,,,,jóbecnek,jóbecnak,left,3.5014,0,117,117,11,1,66,jóbec,jóbec,nak,e,Ez itt egy jóbec.,Elneveztem a kutyámat...,jóbecnek,jóbecnak,dzsungel,NA,NA,PR2050,1991,nő,nem,2022-04-13_19h24.11.691,hesp_baseline,2021.2.3,Win32,59.55926147
,,,,,,,,,,,,,,,,,sprűrlenek,sprűröznek,left,8.3845,0,118,118,135,1,82,sprűrlik / sprűrözik,"sprűrlik, sprűrözni",nek,NA,"János imád sprűrözni, ezért sokat sprűrlik.",Ők ritkán...,sprűrlenek,sprűröznek,cselekszik,-lik,1,PR2050,1991,nő,nem,2022-04-13_19h24.11.691,hesp_baseline,2021.2.3,Win32,59.55926147
,,,,,,,,,,,,,,,,,júdernak,júdernek,right,3.604,0,119,119,53,1,108,júder,júder,nak,e,Ez itt egy júder.,Elneveztem a kutyámat...,júdernek,júdernak,dzsungel,NA,NA,PR2050,1991,nő,nem,2022-04-13_19h24.11.691,hesp_baseline,2021.2.3,Win32,59.55926147
,,,,,,,,,,,,,,,,,brágédnak,brágédnek,right,8.3151,0,120,120,45,1,100,brágéd,brágéd,nak,é,Ez itt egy brágéd.,Elneveztem a kutyámat...,brágédnek,brágédnak,dzsungel,NA,NA,PR2050,1991,nő,nem,2022-04-13_19h24.11.691,hesp_baseline,2021.2.3,Win32,59.55926147
,,,,,,,,,,,,,,,,,pribemlek,pribemlem,left,3.1186,0,121,121,107,1,108,pribemlik,pribemlesz,NA,NA,Te bizony sokat pribemlesz.,Én is sokat...,pribemlek,pribemlem,lakik,-lik,2,PR2050,1991,nő,nem,2022-04-13_19h24.11.691,hesp_baseline,2021.2.3,Win32,59.55926147
,,,,,,,,,,,,,,,,,lírlanak,líroznak,right,6.7534,0,122,122,115,1,62,lírlik / lírozik,"lírlik, lírozni",nek,NA,"János imád lírozni, ezért sokat lírlik.",Ők ritkán...,lírlanak,líroznak,cselekszik,-lik,1,PR2050,1991,nő,nem,2022-04-13_19h24.11.691,hesp_baseline,2021.2.3,Win32,59.55926147
,,,,,,,,,,,,,,,,,lorjódzok,lorjódzom,left,3.1127,0,123,123,88,1,89,lorjódzik,lorjódzol,NA,NA,Te bizony sokat lorjódzol.,Én is sokat...,lorjódzok,lorjódzom,lakik,-zik,2,PR2050,1991,nő,nem,2022-04-13_19h24.11.691,hesp_baseline,2021.2.3,Win32,59.55926147
,,,,,,,,,,,,,,,,,zarcégnál,zarcégnél,right,4.2965,0,124,124,29,1,84,zarcég,zarcég,nál,é,Ez itt egy zarcég.,Nincs is jobb egy jó...,zarcégnél,zarcégnál,dzsungel,NA,NA,PR2050,1991,nő,nem,2022-04-13_19h24.11.691,hesp_baseline,2021.2.3,Win32,59.55926147
,,,,,,,,,,,,,,,,,sponyoznak,sponylanak,left,3.9369,0,125,125,125,1,72,sponylik / sponyozik,"sponylik, sponyozni",nek,NA,"János imád sponyozni, ezért sokat sponylik.",Ők ritkán...,sponylanak,sponyoznak,cselekszik,-lik,1,PR2050,1991,nő,nem,2022-04-13_19h24.11.691,hesp_baseline,2021.2.3,Win32,59.55926147
,,,,,,,,,,,,,,,,,nűröklöm,nűröklök,right,5.2605,0,126,126,106,1,107,nűröklik,nűröklesz,NA,NA,Te bizony sokat nűröklesz.,Én is sokat...,nűröklök,nűröklöm,lakik,-lik,2,PR2050,1991,nő,nem,2022-04-13_19h24.11.691,hesp_baseline,2021.2.3,Win32,59.55926147
,,,,,,,,,,,,,,,,,nyüröznek,nyürzenek,left,5.5675,0,127,127,123,1,70,nyürzik / nyürözik,"nyürzik, nyürözni",nek,NA,"János imád nyürözni, ezért sokat nyürzik.",Ők ritkán...,nyürzenek,nyüröznek,cselekszik,-zik,1,PR2050,1991,nő,nem,2022-04-13_19h24.11.691,hesp_baseline,2021.2.3,Win32,59.55926147
,,,,,,,,,,,,,,,,,branyoznak,branylanak,left,6.3877,0,128,128,136,1,83,branylik / branyozik,"branylik, branyozni",nek,NA,"János imád branyozni, ezért sokat branylik.",Ők ritkán...,branylanak,branyoznak,cselekszik,-lik,1,PR2050,1991,nő,nem,2022-04-13_19h24.11.691,hesp_baseline,2021.2.3,Win32,59.55926147
,,,,,,,,,,,,,,,,,brivegzek,brivegzem,left,3.6,0,129,129,70,1,71,brivegzik,brivegzel,NA,NA,Te bizony sokat brivegzel.,Én is sokat...,brivegzek,brivegzem,lakik,-zik,2,PR2050,1991,nő,nem,2022-04-13_19h24.11.691,hesp_baseline,2021.2.3,Win32,59.55926147
,,,,,,,,,,,,,,,,,fupétnál,fupétnél,left,3.8307,0,130,130,14,1,69,fupét,fupét,nál,é,Ez itt egy fupét.,Nincs is jobb egy jó...,fupétnél,fupétnál,dzsungel,NA,NA,PR2050,1991,nő,nem,2022-04-13_19h24.11.691,hesp_baseline,2021.2.3,Win32,59.55926147
,,,,,,,,,,,,,,,,,lihadzok,lihadzom,left,2.9313,0,131,131,101,1,102,lihadzik,lihadzol,NA,NA,Te bizony sokat lihadzol.,Én is sokat...,lihadzok,lihadzom,lakik,-zik,2,PR2050,1991,nő,nem,2022-04-13_19h24.11.691,hesp_baseline,2021.2.3,Win32,59.55926147
,,,,,,,,,,,,,,,,,játozunk,játlunk,right,4.252,0,132,132,145,1,92,játlik / játozik,"játlik, játozni",ünk,NA,"János imád játozni, ezért sokat játlik.",Mi ritkán...,játlunk,játozunk,cselekszik,-lik,1,PR2050,1991,nő,nem,2022-04-13_19h24.11.691,hesp_baseline,2021.2.3,Win32,59.55926147
,,,,,,,,,,,,,,,,,spivélnak,spivélnek,right,3.3381,0,133,133,27,1,82,spivél,spivél,nak,é,Ez itt egy spivél.,Elneveztem a kutyámat...,spivélnek,spivélnak,dzsungel,NA,NA,PR2050,1991,nő,nem,2022-04-13_19h24.11.691,hesp_baseline,2021.2.3,Win32,59.55926147
,,,,,,,,,,,,,,,,,gihesztnek,gihesztnak,left,3.5218,0,134,134,36,1,91,giheszt,giheszt,nak,e,Ez itt egy giheszt.,Elneveztem a kutyámat...,gihesztnek,gihesztnak,dzsungel,NA,NA,PR2050,1991,nő,nem,2022-04-13_19h24.11.691,hesp_baseline,2021.2.3,Win32,59.55926147
,,,,,,,,,,,,,,,,,flüröslök,flüröslöm,left,2.5493,0,135,135,87,1,88,flüröslik,flüröslesz,NA,NA,Te bizony sokat flüröslesz.,Én is sokat...,flüröslök,flüröslöm,lakik,-lik,2,PR2050,1991,nő,nem,2022-04-13_19h24.11.691,hesp_baseline,2021.2.3,Win32,59.55926147
,,,,,,,,,,,,,,,,,femlek,femlem,left,2.7844,0,136,136,57,1,58,femlik,femlesz,NA,NA,Te bizony sokat femlesz.,Én is sokat...,femlek,femlem,lakik,-lik,1,PR2050,1991,nő,nem,2022-04-13_19h24.11.691,hesp_baseline,2021.2.3,Win32,59.55926147
,,,,,,,,,,,,,,,,,forzédnak,forzédnek,right,9.0619,0,137,137,46,1,101,forzéd,forzéd,nak,é,Ez itt egy forzéd.,Elneveztem a kutyámat...,forzédnek,forzédnak,dzsungel,NA,NA,PR2050,1991,nő,nem,2022-04-13_19h24.11.691,hesp_baseline,2021.2.3,Win32,59.55926147
,,,,,,,,,,,,,,,,,trírzunk,trírozunk,right,5.4722,0,138,138,116,1,63,trírzik / trírozik,"trírzik, trírozni",ünk,NA,"János imád trírozni, ezért sokat trírzik.",Mi ritkán...,trírzunk,trírozunk,cselekszik,-zik,1,PR2050,1991,nő,nem,2022-04-13_19h24.11.691,hesp_baseline,2021.2.3,Win32,59.55926147
,,,,,,,,,,,,,,,,,szirlom,szirlok,right,4.4375,0,139,139,62,1,63,szirlik,szirlasz,NA,NA,Te bizony sokat szirlasz.,Én is sokat...,szirlok,szirlom,lakik,-lik,1,PR2050,1991,nő,nem,2022-04-13_19h24.11.691,hesp_baseline,2021.2.3,Win32,59.55926147
,,,,,,,,,,,,,,,,,drojzunk,drojozunk,left,5.7507,0,140,140,140,1,87,drojzik / drojozik,"drojzik, drojozni",ünk,NA,"János imád drojozni, ezért sokat drojzik.",Mi ritkán...,drojzunk,drojozunk,cselekszik,-zik,1,PR2050,1991,nő,nem,2022-04-13_19h24.11.691,hesp_baseline,2021.2.3,Win32,59.55926147
,,,,,,,,,,,,,,,,,klingeszban,klingeszben,right,4.0439,0,141,141,1,1,56,klingesz,klingesz,ban,e,Ez itt egy klingesz.,Ott vagyunk a...,klingeszben,klingeszban,dzsungel,NA,NA,PR2050,1991,nő,nem,2022-04-13_19h24.11.691,hesp_baseline,2021.2.3,Win32,59.55926147
,,,,,,,,,,,,,,,,,töglenek,tögöznek,right,6.3748,0,142,142,156,1,103,töglik / tögözik,"töglik, tögözni",nek,NA,"János imád tögözni, ezért sokat töglik.",Ők ritkán...,töglenek,tögöznek,cselekszik,-lik,1,PR2050,1991,nő,nem,2022-04-13_19h24.11.691,hesp_baseline,2021.2.3,Win32,59.55926147
,,,,,,,,,,,,,,,,,fájézban,fájézben,left,3.9667,0,143,143,7,1,62,fájéz,fájéz,ban,é,Ez itt egy fájéz.,Ott vagyunk a...,fájézben,fájézban,dzsungel,NA,NA,PR2050,1991,nő,nem,2022-04-13_19h24.11.691,hesp_baseline,2021.2.3,Win32,59.55926147
,,,,,,,,,,,,,,,,,jonylok,jonylom,left,2.7636,0,144,144,55,1,56,jonylik,jonylasz,NA,NA,Te bizony sokat jonylasz.,Én is sokat...,jonylok,jonylom,lakik,-lik,1,PR2050,1991,nő,nem,2022-04-13_19h24.11.691,hesp_baseline,2021.2.3,Win32,59.55926147
,,,,,,,,,,,,,,,,,kumlok,kumlom,left,2.1157,0,145,145,105,1,106,kumlik,kumlasz,NA,NA,Te bizony sokat kumlasz.,Én is sokat...,kumlok,kumlom,lakik,-lik,1,PR2050,1991,nő,nem,2022-04-13_19h24.11.691,hesp_baseline,2021.2.3,Win32,59.55926147
,,,,,,,,,,,,,,,,,spiharoztok,spiharzotok,left,5.6195,0,146,146,127,1,74,spiharzik / spiharozik,"spiharzik, spiharozni",tek,NA,"János imád spiharozni, ezért sokat spiharzik.",Ti ritkán...,spiharzotok,spiharoztok,cselekszik,-zik,2,PR2050,1991,nő,nem,2022-04-13_19h24.11.691,hesp_baseline,2021.2.3,Win32,59.55926147
,,,,,,,,,,,,,,,,,kluzoztok,kluzlotok,right,7.3223,0,147,147,148,1,95,kluzlik / kluzozik,"kluzlik, kluzozni",tek,NA,"János imád kluzozni, ezért sokat kluzlik.",Ti ritkán...,kluzlotok,kluzoztok,cselekszik,-lik,1,PR2050,1991,nő,nem,2022-04-13_19h24.11.691,hesp_baseline,2021.2.3,Win32,59.55926147
,,,,,,,,,,,,,,,,,prazlunk,prazozunk,right,5.1552,0,148,148,119,1,66,prazlik / prazozik,"prazlik, prazozni",ünk,NA,"János imád prazozni, ezért sokat prazlik.",Mi ritkán...,prazlunk,prazozunk,cselekszik,-lik,1,PR2050,1991,nő,nem,2022-04-13_19h24.11.691,hesp_baseline,2021.2.3,Win32,59.55926147
,,,,,,,,,,,,,,,,,sporzemnek,sporzemnak,left,3.3982,0,149,149,26,1,81,sporzem,sporzem,nak,e,Ez itt egy sporzem.,Elneveztem a kutyámat...,sporzemnek,sporzemnak,dzsungel,NA,NA,PR2050,1991,nő,nem,2022-04-13_19h24.11.691,hesp_baseline,2021.2.3,Win32,59.55926147
,,,,,,,,,,,,,,,,,nyametben,nyametban,left,4.0196,0,150,150,17,1,72,nyamet,nyamet,ban,e,Ez itt egy nyamet.,Ott vagyunk a...,nyametben,nyametban,dzsungel,NA,NA,PR2050,1991,nő,nem,2022-04-13_19h24.11.691,hesp_baseline,2021.2.3,Win32,59.55926147
,,,,,,,,,,,,,,,,,tiregzek,tiregzem,left,2.9178,0,151,151,64,1,65,tiregzik,tiregzel,NA,NA,Te bizony sokat tiregzel.,Én is sokat...,tiregzek,tiregzem,lakik,-zik,2,PR2050,1991,nő,nem,2022-04-13_19h24.11.691,hesp_baseline,2021.2.3,Win32,59.55926147
,,,,,,,,,,,,,,,,,metégednek,metégszenek,right,7.6662,0,152,152,112,1,59,metégszik / metégedik,"metégszik, metégedni",nek,NA,"János imád metégedni, ezért sokat metégszik.",Ők ritkán...,metégszenek,metégednek,cselekszik,-szik,2,PR2050,1991,nő,nem,2022-04-13_19h24.11.691,hesp_baseline,2021.2.3,Win32,59.55926147
,,,,,,,,,,,,,,,,,spihegzek,spihegzem,left,3.7953,0,153,153,81,1,82,spihegzik,spihegzel,NA,NA,Te bizony sokat spihegzel.,Én is sokat...,spihegzek,spihegzem,lakik,-zik,2,PR2050,1991,nő,nem,2022-04-13_19h24.11.691,hesp_baseline,2021.2.3,Win32,59.55926147
,,,,,,,,,,,,,,,,,hákszanak,hákodnak,left,5.4656,0,154,154,150,1,97,hákszik / hákodik,"hákszik, hákodni",nek,NA,"János imád hákodni, ezért sokat hákszik.",Ők ritkán...,hákszanak,hákodnak,cselekszik,-szik,1,PR2050,1991,nő,nem,2022-04-13_19h24.11.691,hesp_baseline,2021.2.3,Win32,59.55926147
,,,,,,,,,,,,,,,,,flátszom,flátszok,left,2.8952,0,155,155,98,1,99,flátszik,flátszol,NA,NA,Te bizony sokat flátszol.,Én is sokat...,flátszok,flátszom,lakik,-szik,1,PR2050,1991,nő,nem,2022-04-13_19h24.11.691,hesp_baseline,2021.2.3,Win32,59.55926147
,,,,,,,,,,,,,,,,,sprízemnál,sprízemnél,right,3.169,0,156,156,22,1,77,sprízem,sprízem,nál,e,Ez itt egy sprízem.,Nincs is jobb egy jó...,sprízemnél,sprízemnál,dzsungel,NA,NA,PR2050,1991,nő,nem,2022-04-13_19h24.11.691,hesp_baseline,2021.2.3,Win32,59.55926147
,,,,,,,,,,,,,,,,,klűmöztök,klűmlötök,right,7.0182,0,157,157,108,1,55,klűmlik / klűmözik,"klűmlik, klűmözni",tek,NA,"János imád klűmözni, ezért sokat klűmlik.",Ti ritkán...,klűmlötök,klűmöztök,cselekszik,-lik,1,PR2050,1991,nő,nem,2022-04-13_19h24.11.691,hesp_baseline,2021.2.3,Win32,59.55926147
,,,,,,,,,,,,,,,,,dineltben,dineltban,left,2.8457,0,158,158,0,1,55,dinelt,dinelt,ban,e,Ez itt egy dinelt.,Ott vagyunk a...,dineltben,dineltban,dzsungel,NA,NA,PR2050,1991,nő,nem,2022-04-13_19h24.11.691,hesp_baseline,2021.2.3,Win32,59.55926147
,,,,,,,,,,,,,,,,,huroslom,huroslok,right,3.2203,0,159,159,76,1,77,huroslik,huroslasz,NA,NA,Te bizony sokat huroslasz.,Én is sokat...,huroslok,huroslom,lakik,-lik,2,PR2050,1991,nő,nem,2022-04-13_19h24.11.691,hesp_baseline,2021.2.3,Win32,59.55926147
,,,,,,,,,,,,,,,,,plugzok,plugzom,left,5.3743,0,160,160,60,1,61,plugzik,plugzol,NA,NA,Te bizony sokat plugzol.,Én is sokat...,plugzok,plugzom,lakik,-zik,1,PR2050,1991,nő,nem,2022-04-13_19h24.11.691,hesp_baseline,2021.2.3,Win32,59.55926147
,,,,,,,,,,,,,,,,,klazérban,klazérben,left,3.4867,0,161,161,51,1,106,klazér,klazér,ban,é,Ez itt egy klazér.,Ott vagyunk a...,klazérben,klazérban,dzsungel,NA,NA,PR2050,1991,nő,nem,2022-04-13_19h24.11.691,hesp_baseline,2021.2.3,Win32,59.55926147
