"trial_type","trial_index","time_elapsed","internal_node_id","rt","stimulus","response","response_string","choices","esp_response","trial_kind","list_number","esp_match"
"pavlovia","0","892","0.0-0.0","","","","","","","","",""
"html-button-response","1","27446","0.0-1.0","26040","<p>Kedves Résztvevő! A Budapesti Műszaki és Gazdaságtudományi Egyetem Kognitív Tudományi Tanszékének kutatásában való részvételed kérjük. A kutatásban azt vizsgáljuk, hogy a magyar anyanyelvűek hogyan használnak bizonyos szóalakokat, és hogy milyen képük van arról, hogy mások hogyan használják, hogyan képzik a szavakat. Ez hozzásegít bennünket ahhoz, hogy jobban megértsük, hogyan dolgozza fel és tárolja a nyelvet az emberi agy, és hogyan működnek, hogyan változnak egy adott közösség nyelvi konvenciói.</p><p>A vizsgálat egy rövid számítógépes feladatból fog állni. A kutatásban való részvétel önkéntes, a részvételi szándék bármikor visszavonható. A résztvevők eredményeit név nélkül kezeljük, így nem beazonosíthatók az adatok feldolgozása során. Minden személyes adatot az EU általános adatvédelmi rendeletének (GDPR) megfelelően kezelünk és legfeljebb öt éven belül megsemmisítünk. A vizsgálat jellemzően húsz percet vesz igénybe.</p><p>Kutatásvezető:</p><p>Dr. Rácz Péter, tudományos munkatárs, BME KTT</p><p>e-mail: racz.peter.marton@ttk.bme.hu</p>","0","","","","","",""
"html-button-response","2","56996","0.0-2.0","29034","<p>A kísérletben szavakat fogsz látni. Ezek között lesznek olyanok, amelyeket ismersz, de előfordulhatnak olyanok is, amelyeket nem ismersz, sőt, vannak köztük kitalált szavak is. Minden szónál látni fogsz toldalékolt alakokat. A te feladatod az lesz, hogy minden szóhoz kiválaszd azt a toldalékolt alakot, amely a te számodra ismerősebben, természetesebben hangzik. Rossz válaszok nincsenek, mert van olyan, hogy különböző embereknek más és más szó tűnik jobb választásnak. A választ úgy tudod majd kiválasztani, ha rákattintasz.</p><p>Ebben a szóválasztós játékban egy másik játékossal együtt veszel majd részt. A másik játékos is minden esetben azok közül a lehetőségek közül válogathat, mint te. Kettőtök feladata az, hogy ugyanazt a lehetőséget válasszátok minden esetben. Ahhoz, hogy ez sikerüljön, neked figyelned kell arra, hogy a másik játékos milyen válaszokat ad, és ennek alapján meg kell tippelned, hogyan választ legközelebb. Ha eltalálod, akkor pontot kapsz.</p>","0","","","","","",""
"html-button-response","3","68351","0.0-3.0","10843","<p>Kérjük, olvasd el az alábbi nyilatkozatot, és amennyiben egyetértesz vele, nyomj a Beleegyezés gombra!</p><p>Kijelentem, hogy magyar anyanyelvű személyként önként veszek részt a BME KTT kísérletében. A kutatás céljával és folyamatával kapcsolatban elegendő tájékoztatást kaptam, lehetőségem volt kérdések feltételére, és esetleges kérdéseimre megfelelő válaszokat kaptam. A tájékoztatás alapján elegendő mennyiségű információ áll a rendelkezésemre, hogy eldönthessem, részt kívánok-e venni a kutatásban.</p><p>Tisztában vagyok vele, hogy részvételi szándékomat és adataimat bármikor, indoklás nélkül visszavonhatom.</p><p>Értem és tudomásul veszem, hogy a kutatás tudományos célokat szolgál, és az általam szolgáltatott adatokat a BME kizárólag kutatási célból használja fel. Tudomásul veszem, hogy eredményeimet a többi résztvevő eredményeivel együtt kezelik, így egyéni teljesítményemről visszajelzést, szakvéleményt nem kapok.</p><p>Megértettem, hogy adataim kezelését illetően a BME az EU általános adatvédelmi rendelete (GDPR), a hatályos adatvédelmi törvény és a nemzetközi kutatás-etikai alapelvek szerint jár el. Eredményeim anonim módon kerülnek feldolgozásra, és a kutatás résztvevői az azonosításomra alkalmas adataimat harmadik félnek nem szolgáltatják ki. Engedélyezem a BME számára a jelen kutatásban felvett adataim feldolgozását és tárolását, beleértve azok későbbi kutatásokhoz való felhasználását is. Személyes adataim kezelésével kapcsolatban tájékoztatást kérhetek a kutatás résztvevőitől, az adatkezelés ellen tiltakozhatok, kérhetem személyes adataim helyesbítését, törlését vagy zárolását, valamint jogorvoslatért a Nemzeti Adatvédelmi és Információszabadság Hatósághoz fordulhatok.</p><p>Kijelentem, hogy a kutatásban való részvételem körülményeiről részletes tájékoztatást kaptam, és a feltételeket elfogadom.</p>","0","","","","","",""
"survey-text","4","99604","0.0-4.0","30730","","{""Q0"":""ENE9S9"",""Q1"":""férfi"",""Q2"":""2002"",""Q3"":""13""}","","","","","",""
"html-button-response","5","115504","0.0-5.0","15379","<p>Ebben a játékban szavakat kell toldalékolni.</p> <p>Minden körben mutatunk majd egy példamondatot, amiben lesz egy szó.</p> <p>Alatta jön egy második mondat, ezt a mondatot neked kell majd befejezni, ugyanezzel a szóval.</p> <p>Nem biztos, hogy a szó eleve ismerős lesz számodra!</p> <p>Minden mondathoz adunk két lehetőséget, ezeket balra és jobbra látod majd.</p> <p>A játék kb. negyedóráig-húsz percig tart.</p>","0","","","","","",""
"html-button-response","6","172323","0.0-6.0","56304","<p>Nézzünk egy példát!</p> <p>A példamondat: ""János imád fláramolni, ezért sokat fláramlik. Mi ritkán...""</p><p>Neked ezt a mondatot kell befejezned: ""Ti ritkán...""</p><p>A lehetőségek pedig ezek:</p>","0","","","","","",""
"html-button-response","7","177469","0.0-7.0","4626","<p>Nagyon jó.</p><p>Ezt a játékot nem egyedül fogod játszani, hanem egy másik játékossal.</p><p>Mielőtt továbblépünk, összekapcsolunk titeket egymással.</p><p>Ez igénybe vehet néhány másodpercet, amihez szíves türelmed kérjük.</p>","0","","","","","",""
"html-button-response","8","183206","0.0-8.0","null","<p>Csatlakozás a másik játékoshoz...</p>","null","","","","","",""
"html-button-response","9","185725","0.0-9.0","null","<p> Sikeres kapcsolódás!</p>","null","","","","","",""
"html-button-response","10","196245","0.0-10.0","null","<p>A következőkben ketten játsszátok a szóválasztós játékot.</p><p>A feladatotok az lesz, hogy minden körben <b>ugyanazt</b> a szót válasszátok.</p><p>Minden ilyen egyező válaszért pontot kaptok.</p><p>Próbáld meg kitalálni, mit választ a másik játékos!</p><p>Bármikor választhatsz, a körnek akkor van vége, ha mindketten döntöttetek.</p><p>Sok sikert!</p>","null","","","","","",""
"html-button-response-esp","11","208183","0.0-11.0-0.0","11416","János imád prazozni, ezért sokat prazlik. Mi ritkán...","0","prazlunk","[""prazlunk"",""prazozunk""]","prazlunk","esp trial","8","true"
"html-button-response","12","211711","0.0-11.0-1.0","null","<p>A másik játékos ezt választotta: <b>prazlunk</b>.</p><p>&#x2705;</p><p>A te válaszod és a másik játékos válasza <b>megegyeznek</b>.</p>","null","","","","feedback trial","",""
"html-button-response-esp","13","220906","0.0-11.0-0.1","8677","János imád brilegezni, ezért sokat brilegzik. Mi ritkán...","1","brilegzünk","[""brilegezünk"",""brilegzünk""]","brilegzünk","esp trial","8","true"
"html-button-response","14","224421","0.0-11.0-1.1","null","<p>A másik játékos ezt választotta: <b>brilegzünk</b>.</p><p>&#x2705;</p><p>A te válaszod és a másik játékos válasza <b>megegyeznek</b>.</p>","null","","","","feedback trial","",""
"html-button-response-esp","15","233311","0.0-11.0-0.2","8383","János imád drivegezni, ezért sokat drivegzik. Ti ritkán...","0","drivegzetek","[""drivegzetek"",""drivegeztek""]","drivegzetek","esp trial","8","true"
"html-button-response","16","236830","0.0-11.0-1.2","null","<p>A másik játékos ezt választotta: <b>drivegzetek</b>.</p><p>&#x2705;</p><p>A te válaszod és a másik játékos válasza <b>megegyeznek</b>.</p>","null","","","","feedback trial","",""
"html-button-response-esp","17","255519","0.0-11.0-0.3","18171","János imád sztritozni, ezért sokat sztritlik. Ők ritkán...","1","sztritlanak","[""sztritoznak"",""sztritlanak""]","sztritlanak","esp trial","8","true"
"html-button-response","18","259038","0.0-11.0-1.3","null","<p>A másik játékos ezt választotta: <b>sztritlanak</b>.</p><p>&#x2705;</p><p>A te válaszod és a másik játékos válasza <b>megegyeznek</b>.</p>","null","","","","feedback trial","",""
"html-button-response-esp","19","270529","0.0-11.0-0.4","10978","János imád sprigozni, ezért sokat sprigzik. Ti ritkán...","0","sprigoztok","[""sprigoztok"",""sprigzotok""]","sprigzotok","esp trial","8","false"
"html-button-response","20","274059","0.0-11.0-1.4","null","<p>A másik játékos ezt választotta: <b>sprigzotok</b>.</p><p>&#10060;</p><p>A válaszaitok <b>nem</b> egyeznek meg.</p>","null","","","","feedback trial","",""
"html-button-response-esp","21","282972","0.0-11.0-0.5","8398","János imád frihegezni, ezért sokat friheglik. Mi ritkán...","1","friheglünk","[""frihegezünk"",""friheglünk""]","friheglünk","esp trial","8","true"
"html-button-response","22","286494","0.0-11.0-1.5","null","<p>A másik játékos ezt választotta: <b>friheglünk</b>.</p><p>&#x2705;</p><p>A te válaszod és a másik játékos válasza <b>megegyeznek</b>.</p>","null","","","","feedback trial","",""
"html-button-response-esp","23","293057","0.0-11.0-0.6","6043","János imád pekedni, ezért sokat pekszik. Mi ritkán...","1","pekszünk","[""pekedünk"",""pekszünk""]","pekedünk","esp trial","8","false"
"html-button-response","24","296571","0.0-11.0-1.6","null","<p>A másik játékos ezt választotta: <b>pekedünk</b>.</p><p>&#10060;</p><p>A válaszaitok <b>nem</b> egyeznek meg.</p>","null","","","","feedback trial","",""
"html-button-response-esp","25","303386","0.0-11.0-0.7","6302","János imád brivepedni, ezért sokat brivepszik. Mi ritkán...","0","brivepszünk","[""brivepszünk"",""brivepedünk""]","brivepedünk","esp trial","8","false"
"html-button-response","26","306908","0.0-11.0-1.7","null","<p>A másik játékos ezt választotta: <b>brivepedünk</b>.</p><p>&#10060;</p><p>A válaszaitok <b>nem</b> egyeznek meg.</p>","null","","","","feedback trial","",""
"html-button-response-esp","27","314544","0.0-11.0-0.8","7134","János imád flézezni, ezért sokat flézlik. Ti ritkán...","0","flézeztek","[""flézeztek"",""flézletek""]","flézletek","esp trial","8","false"
"html-button-response","28","318061","0.0-11.0-1.8","null","<p>A másik játékos ezt választotta: <b>flézletek</b>.</p><p>&#10060;</p><p>A válaszaitok <b>nem</b> egyeznek meg.</p>","null","","","","feedback trial","",""
"html-button-response-esp","29","325118","0.0-11.0-0.9","6544","János imád livényezni, ezért sokat livénylik. Mi ritkán...","1","livénylünk","[""livényezünk"",""livénylünk""]","livényezünk","esp trial","8","false"
"html-button-response","30","328644","0.0-11.0-1.9","null","<p>A másik játékos ezt választotta: <b>livényezünk</b>.</p><p>&#10060;</p><p>A válaszaitok <b>nem</b> egyeznek meg.</p>","null","","","","feedback trial","",""
"html-button-response-esp","31","337709","0.0-11.0-0.10","8552","János imád brálamozni, ezért sokat brálamlik. Ők ritkán...","0","brálamlanak","[""brálamlanak"",""brálamoznak""]","brálamoznak","esp trial","8","false"
"html-button-response","32","341230","0.0-11.0-1.10","null","<p>A másik játékos ezt választotta: <b>brálamoznak</b>.</p><p>&#10060;</p><p>A válaszaitok <b>nem</b> egyeznek meg.</p>","null","","","","feedback trial","",""
"html-button-response-esp","33","347239","0.0-11.0-0.11","4445","János imád nágapodni, ezért sokat nágapszik. Ők ritkán...","1","nágapodnak","[""nágapszanak"",""nágapodnak""]","nágapszanak","esp trial","8","false"
"html-button-response","34","350771","0.0-11.0-1.11","null","<p>A másik játékos ezt választotta: <b>nágapszanak</b>.</p><p>&#10060;</p><p>A válaszaitok <b>nem</b> egyeznek meg.</p>","null","","","","feedback trial","",""
"html-button-response-esp","35","362499","0.0-11.0-0.12","11210","János imád pehégedni, ezért sokat pehégszik. Ti ritkán...","1","pehégszetek","[""pehégedtek"",""pehégszetek""]","pehégedtek","esp trial","8","false"
"html-button-response","36","366032","0.0-11.0-1.12","null","<p>A másik játékos ezt választotta: <b>pehégedtek</b>.</p><p>&#10060;</p><p>A válaszaitok <b>nem</b> egyeznek meg.</p>","null","","","","feedback trial","",""
"html-button-response-esp","37","379247","0.0-11.0-0.13","12709","János imád sprimozni, ezért sokat sprimlik. Mi ritkán...","1","sprimozunk","[""sprimlunk"",""sprimozunk""]","sprimlunk","esp trial","8","false"
"html-button-response","38","382771","0.0-11.0-1.13","null","<p>A másik játékos ezt választotta: <b>sprimlunk</b>.</p><p>&#10060;</p><p>A válaszaitok <b>nem</b> egyeznek meg.</p>","null","","","","feedback trial","",""
"html-button-response-esp","39","389419","0.0-11.0-0.14","6134","János imád hákodni, ezért sokat hákszik. Ők ritkán...","1","hákszanak","[""hákodnak"",""hákszanak""]","hákszanak","esp trial","8","true"
"html-button-response","40","392954","0.0-11.0-1.14","null","<p>A másik játékos ezt választotta: <b>hákszanak</b>.</p><p>&#x2705;</p><p>A te válaszod és a másik játékos válasza <b>megegyeznek</b>.</p>","null","","","","feedback trial","",""
"html-button-response-esp","41","399713","0.0-11.0-0.15","6250","János imád brivágozni, ezért sokat briváglik. Ők ritkán...","0","briváglanak","[""briváglanak"",""brivágoznak""]","briváglanak","esp trial","8","true"
"html-button-response","42","403236","0.0-11.0-1.15","null","<p>A másik játékos ezt választotta: <b>briváglanak</b>.</p><p>&#x2705;</p><p>A te válaszod és a másik játékos válasza <b>megegyeznek</b>.</p>","null","","","","feedback trial","",""
"html-button-response-esp","43","411033","0.0-11.0-0.16","7285","János imád spibamozni, ezért sokat spibamlik. Ők ritkán...","1","spibamlanak","[""spibamoznak"",""spibamlanak""]","spibamoznak","esp trial","8","false"
"html-button-response","44","414557","0.0-11.0-1.16","null","<p>A másik játékos ezt választotta: <b>spibamoznak</b>.</p><p>&#10060;</p><p>A válaszaitok <b>nem</b> egyeznek meg.</p>","null","","","","feedback trial","",""
"html-button-response-esp","45","422794","0.0-11.0-0.17","7732","János imád lumozni, ezért sokat lumlik. Ti ritkán...","1","lumlotok","[""lumoztok"",""lumlotok""]","lumlotok","esp trial","8","true"
"html-button-response","46","426326","0.0-11.0-1.17","null","<p>A másik játékos ezt választotta: <b>lumlotok</b>.</p><p>&#x2705;</p><p>A te válaszod és a másik játékos válasza <b>megegyeznek</b>.</p>","null","","","","feedback trial","",""
"html-button-response-esp","47","432353","0.0-11.0-0.18","3482","János imád spöközni, ezért sokat spöklik. Mi ritkán...","1","spöklünk","[""spöközünk"",""spöklünk""]","spöközünk","esp trial","8","false"
"html-button-response","48","435892","0.0-11.0-1.18","null","<p>A másik játékos ezt választotta: <b>spöközünk</b>.</p><p>&#10060;</p><p>A válaszaitok <b>nem</b> egyeznek meg.</p>","null","","","","feedback trial","",""
"html-button-response-esp","49","441921","0.0-11.0-0.19","3838","János imád küsözni, ezért sokat küslik. Mi ritkán...","0","küslünk","[""küslünk"",""küsözünk""]","küsözünk","esp trial","8","false"
"html-button-response","50","445457","0.0-11.0-1.19","null","<p>A másik játékos ezt választotta: <b>küsözünk</b>.</p><p>&#10060;</p><p>A válaszaitok <b>nem</b> egyeznek meg.</p>","null","","","","feedback trial","",""
"html-button-response-esp","51","451485","0.0-11.0-0.20","5052","János imád riványozni, ezért sokat riványlik. Ti ritkán...","1","riványoztok","[""riványlotok"",""riványoztok""]","riványlotok","esp trial","8","false"
"html-button-response","52","455011","0.0-11.0-1.20","null","<p>A másik játékos ezt választotta: <b>riványlotok</b>.</p><p>&#10060;</p><p>A válaszaitok <b>nem</b> egyeznek meg.</p>","null","","","","feedback trial","",""
"html-button-response-esp","53","461041","0.0-11.0-0.21","3389","János imád filányozni, ezért sokat filánylik. Mi ritkán...","0","filánylunk","[""filánylunk"",""filányozunk""]","filánylunk","esp trial","8","true"
"html-button-response","54","464557","0.0-11.0-1.21","null","<p>A másik játékos ezt választotta: <b>filánylunk</b>.</p><p>&#x2705;</p><p>A te válaszod és a másik játékos válasza <b>megegyeznek</b>.</p>","null","","","","feedback trial","",""
"html-button-response-esp","55","470572","0.0-11.0-0.22","4022","János imád fröjözni, ezért sokat fröjlik. Mi ritkán...","0","fröjlünk","[""fröjlünk"",""fröjözünk""]","fröjlünk","esp trial","8","true"
"html-button-response","56","474100","0.0-11.0-1.22","null","<p>A másik játékos ezt választotta: <b>fröjlünk</b>.</p><p>&#x2705;</p><p>A te válaszod és a másik játékos válasza <b>megegyeznek</b>.</p>","null","","","","feedback trial","",""
"html-button-response-esp","57","482749","0.0-11.0-0.23","8135","János imád frivamozni, ezért sokat frivamlik. Mi ritkán...","0","frivamlunk","[""frivamlunk"",""frivamozunk""]","frivamozunk","esp trial","8","false"
"html-button-response","58","486270","0.0-11.0-1.23","null","<p>A másik játékos ezt választotta: <b>frivamozunk</b>.</p><p>&#10060;</p><p>A válaszaitok <b>nem</b> egyeznek meg.</p>","null","","","","feedback trial","",""
"html-button-response-esp","59","492287","0.0-11.0-0.24","5500","János imád pörözni, ezért sokat pörzik. Ti ritkán...","0","pöröztök","[""pöröztök"",""pörzötök""]","pörzötök","esp trial","8","false"
"html-button-response","60","495811","0.0-11.0-1.24","null","<p>A másik játékos ezt választotta: <b>pörzötök</b>.</p><p>&#10060;</p><p>A válaszaitok <b>nem</b> egyeznek meg.</p>","null","","","","feedback trial","",""
"html-button-response-esp","61","503915","0.0-11.0-0.25","7595","János imád lírozni, ezért sokat lírlik. Ők ritkán...","1","lírlanak","[""líroznak"",""lírlanak""]","lírlanak","esp trial","8","true"
"html-button-response","62","507435","0.0-11.0-1.25","null","<p>A másik játékos ezt választotta: <b>lírlanak</b>.</p><p>&#x2705;</p><p>A te válaszod és a másik játékos válasza <b>megegyeznek</b>.</p>","null","","","","feedback trial","",""
"html-button-response-esp","63","517634","0.0-11.0-0.26","9684","János imád tibarozni, ezért sokat tibarzik. Ők ritkán...","0","tibarzanak","[""tibarzanak"",""tibaroznak""]","tibarzanak","esp trial","8","true"
"html-button-response","64","521155","0.0-11.0-1.26","null","<p>A másik játékos ezt választotta: <b>tibarzanak</b>.</p><p>&#x2705;</p><p>A te válaszod és a másik játékos válasza <b>megegyeznek</b>.</p>","null","","","","feedback trial","",""
"html-button-response-esp","65","527180","0.0-11.0-0.27","4670","János imád prilepedni, ezért sokat prilepszik. Mi ritkán...","0","prilepszünk","[""prilepszünk"",""prilepedünk""]","prilepedünk","esp trial","8","false"
"html-button-response","66","530704","0.0-11.0-1.27","null","<p>A másik játékos ezt választotta: <b>prilepedünk</b>.</p><p>&#10060;</p><p>A válaszaitok <b>nem</b> egyeznek meg.</p>","null","","","","feedback trial","",""
"html-button-response-esp","67","537408","0.0-11.0-0.28","6181","János imád drojozni, ezért sokat drojzik. Mi ritkán...","0","drojozunk","[""drojozunk"",""drojzunk""]","drojzunk","esp trial","8","false"
"html-button-response","68","540947","0.0-11.0-1.28","null","<p>A másik játékos ezt választotta: <b>drojzunk</b>.</p><p>&#10060;</p><p>A válaszaitok <b>nem</b> egyeznek meg.</p>","null","","","","feedback trial","",""
"html-button-response-esp","69","550541","0.0-11.0-0.29","9086","János imád brüszözni, ezért sokat brüszlik. Ti ritkán...","1","brüszlötök","[""brüszöztök"",""brüszlötök""]","brüszlötök","esp trial","8","true"
"html-button-response","70","554061","0.0-11.0-1.29","null","<p>A másik játékos ezt választotta: <b>brüszlötök</b>.</p><p>&#x2705;</p><p>A te válaszod és a másik játékos válasza <b>megegyeznek</b>.</p>","null","","","","feedback trial","",""
"html-button-response-esp","71","560690","0.0-11.0-0.30","6115","János imád vobozni, ezért sokat vobzik. Ti ritkán...","0","vobzotok","[""vobzotok"",""voboztok""]","vobzotok","esp trial","8","true"
"html-button-response","72","564206","0.0-11.0-1.30","null","<p>A másik játékos ezt választotta: <b>vobzotok</b>.</p><p>&#x2705;</p><p>A te válaszod és a másik játékos válasza <b>megegyeznek</b>.</p>","null","","","","feedback trial","",""
"html-button-response-esp","73","570224","0.0-11.0-0.31","4335","János imád tűgözni, ezért sokat tűgzik. Ti ritkán...","0","tűgzötök","[""tűgzötök"",""tűgöztök""]","tűgzötök","esp trial","8","true"
"html-button-response","74","573751","0.0-11.0-1.31","null","<p>A másik játékos ezt választotta: <b>tűgzötök</b>.</p><p>&#x2705;</p><p>A te válaszod és a másik játékos válasza <b>megegyeznek</b>.</p>","null","","","","feedback trial","",""
"html-button-response-esp","75","579772","0.0-11.0-0.32","4695","János imád gatágozni, ezért sokat gatáglik. Mi ritkán...","0","gatáglunk","[""gatáglunk"",""gatágozunk""]","gatáglunk","esp trial","8","true"
"html-button-response","76","583296","0.0-11.0-1.32","null","<p>A másik játékos ezt választotta: <b>gatáglunk</b>.</p><p>&#x2705;</p><p>A te válaszod és a másik játékos válasza <b>megegyeznek</b>.</p>","null","","","","feedback trial","",""
"html-button-response-esp","77","589310","0.0-11.0-0.33","3135","János imád tribejezni, ezért sokat tribejlik. Ti ritkán...","0","tribejletek","[""tribejletek"",""tribejeztek""]","tribejletek","esp trial","8","true"
"html-button-response","78","592839","0.0-11.0-1.33","null","<p>A másik játékos ezt választotta: <b>tribejletek</b>.</p><p>&#x2705;</p><p>A te válaszod és a másik játékos válasza <b>megegyeznek</b>.</p>","null","","","","feedback trial","",""
"html-button-response-esp","79","599462","0.0-11.0-0.34","6108","János imád trűnyözni, ezért sokat trűnylik. Ők ritkán...","1","trűnylenek","[""trűnyöznek"",""trűnylenek""]","trűnylenek","esp trial","8","true"
"html-button-response","80","602981","0.0-11.0-1.34","null","<p>A másik játékos ezt választotta: <b>trűnylenek</b>.</p><p>&#x2705;</p><p>A te válaszod és a másik játékos válasza <b>megegyeznek</b>.</p>","null","","","","feedback trial","",""
"html-button-response-esp","81","610028","0.0-11.0-0.35","6533","János imád tágarozni, ezért sokat tágarzik. Mi ritkán...","1","tágarzunk","[""tágarozunk"",""tágarzunk""]","tágarzunk","esp trial","8","true"
"html-button-response","82","613560","0.0-11.0-1.35","null","<p>A másik játékos ezt választotta: <b>tágarzunk</b>.</p><p>&#x2705;</p><p>A te válaszod és a másik játékos válasza <b>megegyeznek</b>.</p>","null","","","","feedback trial","",""
"html-button-response-esp","83","620764","0.0-11.0-0.36","6698","János imád mísozni, ezért sokat míslik. Mi ritkán...","1","míslunk","[""mísozunk"",""míslunk""]","míslunk","esp trial","8","true"
"html-button-response","84","624287","0.0-11.0-1.36","null","<p>A másik játékos ezt választotta: <b>míslunk</b>.</p><p>&#x2705;</p><p>A te válaszod és a másik játékos válasza <b>megegyeznek</b>.</p>","null","","","","feedback trial","",""
"html-button-response-esp","85","644252","0.0-11.0-0.37","19449","János imád flubokozni, ezért sokat fluboklik. Ti ritkán...","1","fluboklotok","[""flubokoztok"",""fluboklotok""]","fluboklotok","esp trial","8","true"
"html-button-response","86","647773","0.0-11.0-1.37","null","<p>A másik játékos ezt választotta: <b>fluboklotok</b>.</p><p>&#x2705;</p><p>A te válaszod és a másik játékos válasza <b>megegyeznek</b>.</p>","null","","","","feedback trial","",""
"html-button-response-esp","87","653803","0.0-11.0-0.38","2863","János imád trírozni, ezért sokat trírzik. Mi ritkán...","1","trírzunk","[""trírozunk"",""trírzunk""]","trírzunk","esp trial","8","true"
"html-button-response","88","657325","0.0-11.0-1.38","null","<p>A másik játékos ezt választotta: <b>trírzunk</b>.</p><p>&#x2705;</p><p>A te válaszod és a másik játékos válasza <b>megegyeznek</b>.</p>","null","","","","feedback trial","",""
"html-button-response-esp","89","663343","0.0-11.0-0.39","2306","János imád gibemezni, ezért sokat gibemlik. Mi ritkán...","0","gibemlünk","[""gibemlünk"",""gibemezünk""]","gibemezünk","esp trial","8","false"
"html-button-response","90","666864","0.0-11.0-1.39","null","<p>A másik játékos ezt választotta: <b>gibemezünk</b>.</p><p>&#10060;</p><p>A válaszaitok <b>nem</b> egyeznek meg.</p>","null","","","","feedback trial","",""
"html-button-response-esp","91","672891","0.0-11.0-0.40","3873","János imád míjozni, ezért sokat míjzik. Mi ritkán...","1","míjzunk","[""míjozunk"",""míjzunk""]","míjzunk","esp trial","8","true"
"html-button-response","92","676410","0.0-11.0-1.40","null","<p>A másik játékos ezt választotta: <b>míjzunk</b>.</p><p>&#x2705;</p><p>A te válaszod és a másik játékos válasza <b>megegyeznek</b>.</p>","null","","","","feedback trial","",""
"html-button-response-esp","93","682446","0.0-11.0-0.41","2175","János imád frésezni, ezért sokat fréslik. Mi ritkán...","0","fréslünk","[""fréslünk"",""frésezünk""]","frésezünk","esp trial","8","false"
"html-button-response","94","685966","0.0-11.0-1.41","null","<p>A másik játékos ezt választotta: <b>frésezünk</b>.</p><p>&#10060;</p><p>A válaszaitok <b>nem</b> egyeznek meg.</p>","null","","","","feedback trial","",""
"html-button-response-esp","95","693718","0.0-11.0-0.42","7246","János imád klarágozni, ezért sokat klarágzik. Ti ritkán...","0","klarágzotok","[""klarágzotok"",""klarágoztok""]","klarágzotok","esp trial","8","true"
"html-button-response","96","697256","0.0-11.0-1.42","null","<p>A másik játékos ezt választotta: <b>klarágzotok</b>.</p><p>&#x2705;</p><p>A te válaszod és a másik játékos válasza <b>megegyeznek</b>.</p>","null","","","","feedback trial","",""
"html-button-response-esp","97","703269","0.0-11.0-0.43","3339","János imád sztrajozni, ezért sokat sztrajlik. Ők ritkán...","0","sztrajlanak","[""sztrajlanak"",""sztrajoznak""]","sztrajoznak","esp trial","8","false"
"html-button-response","98","706792","0.0-11.0-1.43","null","<p>A másik játékos ezt választotta: <b>sztrajoznak</b>.</p><p>&#10060;</p><p>A válaszaitok <b>nem</b> egyeznek meg.</p>","null","","","","feedback trial","",""
"html-button-response-esp","99","713010","0.0-11.0-0.44","5708","János imád flivegezni, ezért sokat flivegzik. Ők ritkán...","1","flivegzenek","[""flivegeznek"",""flivegzenek""]","flivegzenek","esp trial","8","true"
"html-button-response","100","716537","0.0-11.0-1.44","null","<p>A másik játékos ezt választotta: <b>flivegzenek</b>.</p><p>&#x2705;</p><p>A te válaszod és a másik játékos válasza <b>megegyeznek</b>.</p>","null","","","","feedback trial","",""
"html-button-response-esp","101","722554","0.0-11.0-0.45","4531","János imád mihágozni, ezért sokat mihágzik. Ti ritkán...","0","mihágzotok","[""mihágzotok"",""mihágoztok""]","mihágzotok","esp trial","8","true"
"html-button-response","102","726070","0.0-11.0-1.45","null","<p>A másik játékos ezt választotta: <b>mihágzotok</b>.</p><p>&#x2705;</p><p>A te válaszod és a másik játékos válasza <b>megegyeznek</b>.</p>","null","","","","feedback trial","",""
"html-button-response-esp","103","732094","0.0-11.0-0.46","3243","János imád brározni, ezért sokat brárlik. Ők ritkán...","1","brárlanak","[""brároznak"",""brárlanak""]","brárlanak","esp trial","8","true"
"html-button-response","104","735623","0.0-11.0-1.46","null","<p>A másik játékos ezt választotta: <b>brárlanak</b>.</p><p>&#x2705;</p><p>A te válaszod és a másik játékos válasza <b>megegyeznek</b>.</p>","null","","","","feedback trial","",""
"html-button-response-esp","105","741635","0.0-11.0-0.47","3046","János imád bregezni, ezért sokat bregzik. Mi ritkán...","1","bregzünk","[""bregezünk"",""bregzünk""]","bregezünk","esp trial","8","false"
"html-button-response","106","745164","0.0-11.0-1.47","null","<p>A másik játékos ezt választotta: <b>bregezünk</b>.</p><p>&#10060;</p><p>A válaszaitok <b>nem</b> egyeznek meg.</p>","null","","","","feedback trial","",""
"html-button-response-esp","107","751174","0.0-11.0-0.48","5457","János imád kluzozni, ezért sokat kluzlik. Ti ritkán...","0","kluzlotok","[""kluzlotok"",""kluzoztok""]","kluzlotok","esp trial","8","true"
"html-button-response","108","754706","0.0-11.0-1.48","null","<p>A másik játékos ezt választotta: <b>kluzlotok</b>.</p><p>&#x2705;</p><p>A te válaszod és a másik játékos válasza <b>megegyeznek</b>.</p>","null","","","","feedback trial","",""
"html-button-response-esp","109","760740","0.0-11.0-0.49","3797","János imád gyivepedni, ezért sokat gyivepszik. Ők ritkán...","0","gyivepszenek","[""gyivepszenek"",""gyivepednek""]","gyivepszenek","esp trial","8","true"
"html-button-response","110","764261","0.0-11.0-1.49","null","<p>A másik játékos ezt választotta: <b>gyivepszenek</b>.</p><p>&#x2705;</p><p>A te válaszod és a másik játékos válasza <b>megegyeznek</b>.</p>","null","","","","feedback trial","",""
"html-button-response-esp","111","774064","0.0-11.0-0.50","9292","János imád dirányozni, ezért sokat diránylik. Ők ritkán...","0","diránylanak","[""diránylanak"",""dirányoznak""]","diránylanak","esp trial","8","true"
"html-button-response","112","777580","0.0-11.0-1.50","null","<p>A másik játékos ezt választotta: <b>diránylanak</b>.</p><p>&#x2705;</p><p>A te válaszod és a másik játékos válasza <b>megegyeznek</b>.</p>","null","","","","feedback trial","",""
"html-button-response-esp","113","783597","0.0-11.0-0.51","2866","János imád sponyozni, ezért sokat sponylik. Ők ritkán...","0","sponylanak","[""sponylanak"",""sponyoznak""]","sponyoznak","esp trial","8","false"
"html-button-response","114","787109","0.0-11.0-1.51","null","<p>A másik játékos ezt választotta: <b>sponyoznak</b>.</p><p>&#10060;</p><p>A válaszaitok <b>nem</b> egyeznek meg.</p>","null","","","","feedback trial","",""
"html-button-response-esp","115","793124","0.0-11.0-0.52","4442","János imád spalározni, ezért sokat spalárzik. Ők ritkán...","0","spalárzanak","[""spalárzanak"",""spalároznak""]","spalárzanak","esp trial","8","true"
"html-button-response","116","796668","0.0-11.0-1.52","null","<p>A másik játékos ezt választotta: <b>spalárzanak</b>.</p><p>&#x2705;</p><p>A te válaszod és a másik játékos válasza <b>megegyeznek</b>.</p>","null","","","","feedback trial","",""
"html-button-response-esp","117","825515","0.0-11.0-0.53","28326","János imád galározni, ezért sokat galárzik. Ők ritkán...","1","galárzanak","[""galároznak"",""galárzanak""]","galárzanak","esp trial","8","true"
"html-button-response","118","829038","0.0-11.0-1.53","null","<p>A másik játékos ezt választotta: <b>galárzanak</b>.</p><p>&#x2705;</p><p>A te válaszod és a másik játékos válasza <b>megegyeznek</b>.</p>","null","","","","feedback trial","",""
"html-button-response","119","855980","0.0-12.0","26435","<p>A közös játék most véget ért.</p><p>Mielőtt eláruljuk a végső pontszámodat, arra kérlek, játszd a szóválasztós játékot néhány percig egyedül is.</p><p>A feladatod ugyanaz lesz, választani két lehetőség közül.</p><p>Most viszont egyedül kell döntened, hogy te melyiket választanád.</p>","0","","","","","",""
"html-button-response-clever","120","864197","0.0-13.0-0.0","7698","János imád prugorozni, ezért sokat prugorzik. Ti ritkán...","0","prugorzotok","[""prugorzotok"",""prugoroztok""]","","posttest trial","1",""
"html-button-response-clever","121","867889","0.0-13.0-0.1","3174","János imád jurozni, ezért sokat jurlik. Mi ritkán...","1","jurlunk","[""jurozunk"",""jurlunk""]","","posttest trial","1",""
"html-button-response-clever","122","886311","0.0-13.0-0.2","17911","János imád trálodni, ezért sokat trálszik. Mi ritkán...","0","trálszunk","[""trálszunk"",""trálodunk""]","","posttest trial","1",""
"html-button-response-clever","123","889404","0.0-13.0-0.3","2583","János imád nivározni, ezért sokat nivárzik. Ti ritkán...","0","nivárzotok","[""nivárzotok"",""nivároztok""]","","posttest trial","1",""
"html-button-response-clever","124","892582","0.0-13.0-0.4","2657","János imád pibegezni, ezért sokat pibegzik. Ők ritkán...","1","pibegzenek","[""pibegeznek"",""pibegzenek""]","","posttest trial","1",""
"html-button-response-clever","125","895296","0.0-13.0-0.5","2200","János imád nyádozni, ezért sokat nyádlik. Ők ritkán...","1","nyádlanak","[""nyádoznak"",""nyádlanak""]","","posttest trial","1",""
"html-button-response-clever","126","898181","0.0-13.0-0.6","2377","János imád géregezni, ezért sokat géreglik. Ti ritkán...","1","géregletek","[""géregeztek"",""géregletek""]","","posttest trial","1",""
"html-button-response-clever","127","901873","0.0-13.0-0.7","3177","János imád dralágozni, ezért sokat dralágzik. Mi ritkán...","0","dralágzunk","[""dralágzunk"",""dralágozunk""]","","posttest trial","1",""
"html-button-response-clever","128","905125","0.0-13.0-0.8","2737","János imád hiragozni, ezért sokat hiragzik. Ők ritkán...","1","hiragzanak","[""hiragoznak"",""hiragzanak""]","","posttest trial","1",""
"html-button-response-clever","129","907178","0.0-13.0-0.9","1545","János imád nyizozni, ezért sokat nyizlik. Mi ritkán...","0","nyizlunk","[""nyizlunk"",""nyizozunk""]","","posttest trial","1",""
"html-button-response-clever","130","909294","0.0-13.0-0.10","1599","János imád játozni, ezért sokat játlik. Mi ritkán...","1","játlunk","[""játozunk"",""játlunk""]","","posttest trial","1",""
"html-button-response-clever","131","911886","0.0-13.0-0.11","2083","János imád klihasozni, ezért sokat klihaslik. Ti ritkán...","1","klihaslotok","[""klihasoztok"",""klihaslotok""]","","posttest trial","1",""
"html-button-response-clever","132","914184","0.0-13.0-0.12","1792","János imád klűmözni, ezért sokat klűmlik. Ti ritkán...","0","klűmlötök","[""klűmlötök"",""klűmöztök""]","","posttest trial","1",""
"html-button-response-clever","133","917045","0.0-13.0-0.13","2358","János imád flátozni, ezért sokat flátlik. Ti ritkán...","1","flátlotok","[""flátoztok"",""flátlotok""]","","posttest trial","1",""
"html-button-response-clever","134","919478","0.0-13.0-0.14","1927","János imád vehékedni, ezért sokat vehékszik. Mi ritkán...","0","vehékszünk","[""vehékszünk"",""vehékedünk""]","","posttest trial","1",""
"html-button-response-clever","135","921507","0.0-13.0-0.15","1523","János imád hubonyozni, ezért sokat hubonylik. Ti ritkán...","1","hubonylotok","[""hubonyoztok"",""hubonylotok""]","","posttest trial","1",""
"html-button-response-clever","136","925163","0.0-13.0-0.16","3142","János imád flerékedni, ezért sokat flerékszik. Mi ritkán...","0","flerékszünk","[""flerékszünk"",""flerékedünk""]","","posttest trial","1",""
"html-button-response-clever","137","927449","0.0-13.0-0.17","1771","János imád sprebezni, ezért sokat sprebzik. Ők ritkán...","1","sprebzenek","[""sprebeznek"",""sprebzenek""]","","posttest trial","1",""
"html-button-response-clever","138","929430","0.0-13.0-0.18","1463","János imád dibágozni, ezért sokat dibáglik. Ti ritkán...","0","dibáglotok","[""dibáglotok"",""dibágoztok""]","","posttest trial","1",""
"html-button-response-clever","139","931385","0.0-13.0-0.19","1439","János imád bresezni, ezért sokat breslik. Ők ritkán...","1","breslenek","[""breseznek"",""breslenek""]","","posttest trial","1",""
"html-button-response-clever","140","933659","0.0-13.0-0.20","1772","János imád plibozni, ezért sokat plibzik. Ti ritkán...","1","plibzotok","[""pliboztok"",""plibzotok""]","","posttest trial","1",""
"html-button-response-clever","141","936643","0.0-13.0-0.21","2475","János imád vilesezni, ezért sokat vileslik. Mi ritkán...","0","vileslünk","[""vileslünk"",""vilesezünk""]","","posttest trial","1",""
"html-button-response-clever","142","938746","0.0-13.0-0.22","1595","János imád flodozni, ezért sokat flodlik. Ti ritkán...","0","flodlotok","[""flodlotok"",""flodoztok""]","","posttest trial","1",""
"html-button-response-clever","143","940799","0.0-13.0-0.23","1543","János imád bügözni, ezért sokat bügzik. Ők ritkán...","0","bügzenek","[""bügzenek"",""bügöznek""]","","posttest trial","1",""
"html-button-response-clever","144","944345","0.0-13.0-0.24","3037","János imád metégedni, ezért sokat metégszik. Ők ritkán...","1","metégszenek","[""metégednek"",""metégszenek""]","","posttest trial","1",""
"html-button-response-clever","145","947328","0.0-13.0-0.25","2467","János imád bötőrözni, ezért sokat bötőrzik. Mi ritkán...","0","bötőrzünk","[""bötőrzünk"",""bötőrözünk""]","","posttest trial","1",""
"html-button-response-clever","146","950567","0.0-13.0-0.26","2721","János imád döjözni, ezért sokat döjlik. Ők ritkán...","0","döjlenek","[""döjlenek"",""döjöznek""]","","posttest trial","1",""
"html-button-response-clever","147","953061","0.0-13.0-0.27","1984","János imád kláragodni, ezért sokat kláragszik. Ti ritkán...","0","kláragszotok","[""kláragszotok"",""kláragodtok""]","","posttest trial","1",""
"html-button-response-clever","148","956192","0.0-13.0-0.28","2615","János imád frirozni, ezért sokat frirzik. Mi ritkán...","0","frirzunk","[""frirzunk"",""frirozunk""]","","posttest trial","1",""
"html-button-response-clever","149","958624","0.0-13.0-0.29","1929","János imád spivejezni, ezért sokat spivejlik. Ők ritkán...","1","spivejlenek","[""spivejeznek"",""spivejlenek""]","","posttest trial","1",""
"html-button-response-clever","150","960703","0.0-13.0-0.30","1566","János imád nurokozni, ezért sokat nuroklik. Mi ritkán...","1","nuroklunk","[""nurokozunk"",""nuroklunk""]","","posttest trial","1",""
"html-button-response-clever","151","964530","0.0-13.0-0.31","3308","János imád frorozni, ezért sokat frorlik. Ők ritkán...","1","frorlanak","[""froroznak"",""frorlanak""]","","posttest trial","1",""
"html-button-response-clever","152","966925","0.0-13.0-0.32","1875","János imád nyöbözni, ezért sokat nyöbzik. Ők ritkán...","1","nyöbzenek","[""nyöböznek"",""nyöbzenek""]","","posttest trial","1",""
"html-button-response-clever","153","969078","0.0-13.0-0.33","1643","János imád flugonyozni, ezért sokat flugonylik. Ők ritkán...","0","flugonylanak","[""flugonylanak"",""flugonyoznak""]","","posttest trial","1",""
"html-button-response-clever","154","971841","0.0-13.0-0.34","2243","János imád brűközni, ezért sokat brűklik. Ti ritkán...","1","brűklötök","[""brűköztök"",""brűklötök""]","","posttest trial","1",""
"html-button-response-clever","155","974139","0.0-13.0-0.35","1790","János imád vihapodni, ezért sokat vihapszik. Mi ritkán...","1","vihapszunk","[""vihapodunk"",""vihapszunk""]","","posttest trial","1",""
"html-button-response-clever","156","976095","0.0-13.0-0.36","1447","János imád brürözni, ezért sokat brürzik. Ők ritkán...","0","brürzenek","[""brürzenek"",""brüröznek""]","","posttest trial","1",""
"html-button-response-clever","157","978015","0.0-13.0-0.37","1412","János imád tögözni, ezért sokat töglik. Ők ritkán...","0","töglenek","[""töglenek"",""tögöznek""]","","posttest trial","1",""
"html-button-response-clever","158","979763","0.0-13.0-0.38","1244","János imád sűjözni, ezért sokat sűjlik. Mi ritkán...","1","sűjlünk","[""sűjözünk"",""sűjlünk""]","","posttest trial","1",""
"html-button-response-clever","159","982685","0.0-13.0-0.39","2403","János imád bribasozni, ezért sokat bribaslik. Ők ritkán...","0","bribaslanak","[""bribaslanak"",""bribasoznak""]","","posttest trial","1",""
"html-button-response-clever","160","984789","0.0-13.0-0.40","1596","János imád sztredezni, ezért sokat sztredlik. Ti ritkán...","0","sztredletek","[""sztredletek"",""sztredeztek""]","","posttest trial","1",""
"html-button-response-clever","161","987663","0.0-13.0-0.41","2360","János imád bribékedni, ezért sokat bribékszik. Ti ritkán...","0","bribékszetek","[""bribékszetek"",""bribékedtek""]","","posttest trial","1",""
"html-button-response-clever","162","989581","0.0-13.0-0.42","1415","János imád trukodni, ezért sokat trukszik. Ti ritkán...","1","trukszotok","[""trukodtok"",""trukszotok""]","","posttest trial","1",""
"html-button-response-clever","163","991513","0.0-13.0-0.43","1419","János imád frinyozni, ezért sokat frinylik. Mi ritkán...","1","frinylunk","[""frinyozunk"",""frinylunk""]","","posttest trial","1",""
"html-button-response-clever","164","993433","0.0-13.0-0.44","1401","János imád spuborozni, ezért sokat spuborzik. Ők ritkán...","0","spuborzanak","[""spuborzanak"",""spuboroznak""]","","posttest trial","1",""
"html-button-response-clever","165","995683","0.0-13.0-0.45","1730","János imád frélegezni, ezért sokat frélegzik. Mi ritkán...","1","frélegezünk","[""frélegzünk"",""frélegezünk""]","","posttest trial","1",""
"html-button-response-clever","166","997871","0.0-13.0-0.46","1665","János imád ribegedni, ezért sokat ribegszik. Ti ritkán...","0","ribegszetek","[""ribegszetek"",""ribegedtek""]","","posttest trial","1",""
"html-button-response-clever","167","999778","0.0-13.0-0.47","1393","János imád bejezni, ezért sokat bejzik. Mi ritkán...","0","bejzünk","[""bejzünk"",""bejezünk""]","","posttest trial","1",""
"html-button-response-clever","168","1001612","0.0-13.0-0.48","1310","János imád nyülöközni, ezért sokat nyülöklik. Ők ritkán...","1","nyülöklenek","[""nyülököznek"",""nyülöklenek""]","","posttest trial","1",""
"html-button-response-clever","169","1003716","0.0-13.0-0.49","1586","János imád trilekedni, ezért sokat trilekszik. Ti ritkán...","1","trilekszetek","[""trilekedtek"",""trilekszetek""]","","posttest trial","1",""
"html-button-response-clever","170","1005501","0.0-13.0-0.50","1264","János imád klégezni, ezért sokat kléglik. Mi ritkán...","0","kléglünk","[""kléglünk"",""klégezünk""]","","posttest trial","1",""
"html-button-response-clever","171","1007298","0.0-13.0-0.51","1291","János imád trálakozni, ezért sokat trálaklik. Ők ritkán...","0","trálaklanak","[""trálaklanak"",""trálakoznak""]","","posttest trial","1",""
"html-button-response-clever","172","1009401","0.0-13.0-0.52","1594","János imád gihamozni, ezért sokat gihamlik. Ők ritkán...","0","gihamlanak","[""gihamlanak"",""gihamoznak""]","","posttest trial","1",""
"html-button-response-clever","173","1011223","0.0-13.0-0.53","1312","János imád prihegedni, ezért sokat prihegszik. Ők ritkán...","1","prihegszenek","[""prihegednek"",""prihegszenek""]","","posttest trial","1",""
"html-button-response","174","1017385","0.0-14.0","5646","<p> Vége a játéknak. A teljes pontszámod 32/54.</p><p> Szép munka! &#128526;&#128526;&#128526;</p><p>A Befejezés gomb megnyomása után bezárhatod a böngészőablakot.</p>","0","","","","","",""
"html-keyboard-response","175","1022911","0.0-15.0","null","<div class=""message"">
         <p>Egy kis türelmet kérünk, amíg elmentjük az adatokat...</p>
         </div>","null","","","","","",""
