"trial_type","trial_index","time_elapsed","internal_node_id","rt","stimulus","response","response_string","choices","esp_response","trial_kind","list_number","esp_match"
"pavlovia","0","861","0.0-0.0","","","","","","","","",""
"html-button-response","1","25281","0.0-1.0","23904","<p>Kedves Résztvevő! A Budapesti Műszaki és Gazdaságtudományi Egyetem Kognitív Tudományi Tanszékének kutatásában való részvételed kérjük. A kutatásban azt vizsgáljuk, hogy a magyar anyanyelvűek hogyan használnak bizonyos szóalakokat, és hogy milyen képük van arról, hogy mások hogyan használják, hogyan képzik a szavakat. Ez hozzásegít bennünket ahhoz, hogy jobban megértsük, hogyan dolgozza fel és tárolja a nyelvet az emberi agy, és hogyan működnek, hogyan változnak egy adott közösség nyelvi konvenciói.</p><p>A vizsgálat egy rövid számítógépes feladatból fog állni. A kutatásban való részvétel önkéntes, a részvételi szándék bármikor visszavonható. A résztvevők eredményeit név nélkül kezeljük, így nem beazonosíthatók az adatok feldolgozása során. Minden személyes adatot az EU általános adatvédelmi rendeletének (GDPR) megfelelően kezelünk és legfeljebb öt éven belül megsemmisítünk. A vizsgálat jellemzően húsz percet vesz igénybe.</p><p>Kutatásvezető:</p><p>Dr. Rácz Péter, tudományos munkatárs, BME KTT</p><p>e-mail: racz.peter.marton@ttk.bme.hu</p>","0","","","","","",""
"html-button-response","2","54991","0.0-2.0","29194","<p>A kísérletben szavakat fogsz látni. Ezek között lesznek olyanok, amelyeket ismersz, de előfordulhatnak olyanok is, amelyeket nem ismersz, sőt, vannak köztük kitalált szavak is. Minden szónál látni fogsz toldalékolt alakokat. A te feladatod az lesz, hogy minden szóhoz kiválaszd azt a toldalékolt alakot, amely a te számodra ismerősebben, természetesebben hangzik. Rossz válaszok nincsenek, mert van olyan, hogy különböző embereknek más és más szó tűnik jobb választásnak. A választ úgy tudod majd kiválasztani, ha rákattintasz.</p><p>Ebben a szóválasztós játékban egy másik játékossal együtt veszel majd részt. A másik játékos is minden esetben azok közül a lehetőségek közül válogathat, mint te. Kettőtök feladata az, hogy ugyanazt a lehetőséget válasszátok minden esetben. Ahhoz, hogy ez sikerüljön, neked figyelned kell arra, hogy a másik játékos milyen válaszokat ad, és ennek alapján meg kell tippelned, hogyan választ legközelebb. Ha eltalálod, akkor pontot kapsz.</p>","0","","","","","",""
"html-button-response","3","69504","0.0-3.0","14006","<p>Kérjük, olvasd el az alábbi nyilatkozatot, és amennyiben egyetértesz vele, nyomj a Beleegyezés gombra!</p><p>Kijelentem, hogy magyar anyanyelvű személyként önként veszek részt a BME KTT kísérletében. A kutatás céljával és folyamatával kapcsolatban elegendő tájékoztatást kaptam, lehetőségem volt kérdések feltételére, és esetleges kérdéseimre megfelelő válaszokat kaptam. A tájékoztatás alapján elegendő mennyiségű információ áll a rendelkezésemre, hogy eldönthessem, részt kívánok-e venni a kutatásban.</p><p>Tisztában vagyok vele, hogy részvételi szándékomat és adataimat bármikor, indoklás nélkül visszavonhatom.</p><p>Értem és tudomásul veszem, hogy a kutatás tudományos célokat szolgál, és az általam szolgáltatott adatokat a BME kizárólag kutatási célból használja fel. Tudomásul veszem, hogy eredményeimet a többi résztvevő eredményeivel együtt kezelik, így egyéni teljesítményemről visszajelzést, szakvéleményt nem kapok.</p><p>Megértettem, hogy adataim kezelését illetően a BME az EU általános adatvédelmi rendelete (GDPR), a hatályos adatvédelmi törvény és a nemzetközi kutatás-etikai alapelvek szerint jár el. Eredményeim anonim módon kerülnek feldolgozásra, és a kutatás résztvevői az azonosításomra alkalmas adataimat harmadik félnek nem szolgáltatják ki. Engedélyezem a BME számára a jelen kutatásban felvett adataim feldolgozását és tárolását, beleértve azok későbbi kutatásokhoz való felhasználását is. Személyes adataim kezelésével kapcsolatban tájékoztatást kérhetek a kutatás résztvevőitől, az adatkezelés ellen tiltakozhatok, kérhetem személyes adataim helyesbítését, törlését vagy zárolását, valamint jogorvoslatért a Nemzeti Adatvédelmi és Információszabadság Hatósághoz fordulhatok.</p><p>Kijelentem, hogy a kutatásban való részvételem körülményeiről részletes tájékoztatást kaptam, és a feltételeket elfogadom.</p>","0","","","","","",""
"survey-text","4","92805","0.0-4.0","22776","","{""Q0"":""OAGXZ4"",""Q1"":""férfi"",""Q2"":""2000"",""Q3"":""16""}","","","","","",""
"html-button-response","5","107136","0.0-5.0","13826","<p>Ebben a játékban szavakat kell toldalékolni.</p> <p>Minden körben mutatunk majd egy példamondatot, amiben lesz egy szó.</p> <p>Alatta jön egy második mondat, ezt a mondatot neked kell majd befejezni, ugyanezzel a szóval.</p> <p>Nem biztos, hogy a szó eleve ismerős lesz számodra!</p> <p>Minden mondathoz adunk két lehetőséget, ezeket balra és jobbra látod majd.</p> <p>A játék kb. negyedóráig-húsz percig tart.</p>","0","","","","","",""
"html-button-response","6","194103","0.0-6.0","86451","<p>Nézzünk egy példát!</p> <p>A példamondat: ""János imád fláramolni, ezért sokat fláramlik. Mi ritkán...""</p><p>Neked ezt a mondatot kell befejezned: ""Ti ritkán...""</p><p>A lehetőségek pedig ezek:</p>","1","","","","","",""
"html-button-response","7","199863","0.0-7.0","5243","<p>Nagyon jó.</p><p>Ezt a játékot nem egyedül fogod játszani, hanem egy másik játékossal.</p><p>Mielőtt továbblépünk, összekapcsolunk titeket egymással.</p><p>Ez igénybe vehet néhány másodpercet, amihez szíves türelmed kérjük.</p>","0","","","","","",""
"html-button-response","8","205592","0.0-8.0","null","<p>Csatlakozás a másik játékoshoz...</p>","null","","","","","",""
"html-button-response","9","208111","0.0-9.0","null","<p> Sikeres kapcsolódás!</p>","null","","","","","",""
"html-button-response","10","217783","0.0-10.0","9162","<p>A következőkben ketten játsszátok a szóválasztós játékot.</p><p>A feladatotok az lesz, hogy minden körben <b>ugyanazt</b> a szót válasszátok.</p><p>Minden ilyen egyező válaszért pontot kaptok.</p><p>Próbáld meg kitalálni, mit választ a másik játékos!</p><p>Bármikor választhatsz, a körnek akkor van vége, ha mindketten döntöttetek.</p><p>Sok sikert!</p>","0","","","","","",""
"html-button-response-esp","11","228623","0.0-11.0-0.0","10336","János imád dirányozni, ezért sokat diránylik. Ők ritkán...","1","dirányoznak","[""diránylanak"",""dirányoznak""]","dirányoznak","esp trial","10","true"
"html-button-response","12","232131","0.0-11.0-1.0","null","<p>A másik játékos ezt választotta: <b>dirányoznak</b>.</p><p>&#x2705;</p><p>A te válaszod és a másik játékos válasza <b>megegyeznek</b>.</p>","null","","","","feedback trial","",""
"html-button-response-esp","13","242751","0.0-11.0-0.1","10106","János imád pörözni, ezért sokat pörzik. Ti ritkán...","0","pöröztök","[""pöröztök"",""pörzötök""]","pörzötök","esp trial","10","false"
"html-button-response","14","246269","0.0-11.0-1.1","null","<p>A másik játékos ezt választotta: <b>pörzötök</b>.</p><p>&#10060;</p><p>A válaszaitok <b>nem</b> egyeznek meg.</p>","null","","","","feedback trial","",""
"html-button-response-esp","15","260015","0.0-11.0-0.2","13236","János imád gyivepedni, ezért sokat gyivepszik. Ők ritkán...","0","gyivepszenek","[""gyivepszenek"",""gyivepednek""]","gyivepednek","esp trial","10","false"
"html-button-response","16","263530","0.0-11.0-1.2","null","<p>A másik játékos ezt választotta: <b>gyivepednek</b>.</p><p>&#10060;</p><p>A válaszaitok <b>nem</b> egyeznek meg.</p>","null","","","","feedback trial","",""
"html-button-response-esp","17","273082","0.0-11.0-0.3","7106","János imád drivegezni, ezért sokat drivegzik. Ti ritkán...","1","drivegeztek","[""drivegzetek"",""drivegeztek""]","drivegzetek","esp trial","10","false"
"html-button-response","18","276611","0.0-11.0-1.3","null","<p>A másik játékos ezt választotta: <b>drivegzetek</b>.</p><p>&#10060;</p><p>A válaszaitok <b>nem</b> egyeznek meg.</p>","null","","","","feedback trial","",""
"html-button-response-esp","19","286168","0.0-11.0-0.4","7177","János imád tribejezni, ezért sokat tribejlik. Ti ritkán...","0","tribejletek","[""tribejletek"",""tribejeztek""]","tribejletek","esp trial","10","true"
"html-button-response","20","289691","0.0-11.0-1.4","null","<p>A másik játékos ezt választotta: <b>tribejletek</b>.</p><p>&#x2705;</p><p>A te válaszod és a másik játékos válasza <b>megegyeznek</b>.</p>","null","","","","feedback trial","",""
"html-button-response-esp","21","299598","0.0-11.0-0.5","9397","János imád brivágozni, ezért sokat briváglik. Ők ritkán...","1","briváglanak","[""brivágoznak"",""briváglanak""]","briváglanak","esp trial","10","true"
"html-button-response","22","303118","0.0-11.0-1.5","null","<p>A másik játékos ezt választotta: <b>briváglanak</b>.</p><p>&#x2705;</p><p>A te válaszod és a másik játékos válasza <b>megegyeznek</b>.</p>","null","","","","feedback trial","",""
"html-button-response-esp","23","313342","0.0-11.0-0.6","9712","János imád mísozni, ezért sokat míslik. Mi ritkán...","1","míslunk","[""mísozunk"",""míslunk""]","mísozunk","esp trial","10","false"
"html-button-response","24","316852","0.0-11.0-1.6","null","<p>A másik játékos ezt választotta: <b>mísozunk</b>.</p><p>&#10060;</p><p>A válaszaitok <b>nem</b> egyeznek meg.</p>","null","","","","feedback trial","",""
"html-button-response-esp","25","326406","0.0-11.0-0.7","4632","János imád sztritozni, ezért sokat sztritlik. Ők ritkán...","0","sztritoznak","[""sztritoznak"",""sztritlanak""]","sztritoznak","esp trial","10","true"
"html-button-response","26","329923","0.0-11.0-1.7","null","<p>A másik játékos ezt választotta: <b>sztritoznak</b>.</p><p>&#x2705;</p><p>A te válaszod és a másik játékos válasza <b>megegyeznek</b>.</p>","null","","","","feedback trial","",""
"html-button-response-esp","27","349302","0.0-11.0-0.8","18868","János imád tűgözni, ezért sokat tűgzik. Ti ritkán...","1","tűgöztök","[""tűgzötök"",""tűgöztök""]","tűgöztök","esp trial","10","true"
"html-button-response","28","352819","0.0-11.0-1.8","null","<p>A másik játékos ezt választotta: <b>tűgöztök</b>.</p><p>&#x2705;</p><p>A te válaszod és a másik játékos válasza <b>megegyeznek</b>.</p>","null","","","","feedback trial","",""
"html-button-response-esp","29","364102","0.0-11.0-0.9","10768","János imád trűnyözni, ezért sokat trűnylik. Ők ritkán...","0","trűnyöznek","[""trűnyöznek"",""trűnylenek""]","trűnyöznek","esp trial","10","true"
"html-button-response","30","367626","0.0-11.0-1.9","null","<p>A másik játékos ezt választotta: <b>trűnyöznek</b>.</p><p>&#x2705;</p><p>A te válaszod és a másik játékos válasza <b>megegyeznek</b>.</p>","null","","","","feedback trial","",""
"html-button-response-esp","31","377170","0.0-11.0-0.10","4097","János imád frésezni, ezért sokat fréslik. Mi ritkán...","0","frésezünk","[""frésezünk"",""fréslünk""]","frésezünk","esp trial","10","true"
"html-button-response","32","380699","0.0-11.0-1.10","null","<p>A másik játékos ezt választotta: <b>frésezünk</b>.</p><p>&#x2705;</p><p>A te válaszod és a másik játékos válasza <b>megegyeznek</b>.</p>","null","","","","feedback trial","",""
"html-button-response-esp","33","390249","0.0-11.0-0.11","7907","János imád brilegezni, ezért sokat brilegzik. Mi ritkán...","0","brilegezünk","[""brilegezünk"",""brilegzünk""]","brilegezünk","esp trial","10","true"
"html-button-response","34","393773","0.0-11.0-1.11","null","<p>A másik játékos ezt választotta: <b>brilegezünk</b>.</p><p>&#x2705;</p><p>A te válaszod és a másik játékos válasza <b>megegyeznek</b>.</p>","null","","","","feedback trial","",""
"html-button-response-esp","35","406630","0.0-11.0-0.12","12346","János imád brüszözni, ezért sokat brüszlik. Ti ritkán...","0","brüszöztök","[""brüszöztök"",""brüszlötök""]","brüszöztök","esp trial","10","true"
"html-button-response","36","410147","0.0-11.0-1.12","null","<p>A másik játékos ezt választotta: <b>brüszöztök</b>.</p><p>&#x2705;</p><p>A te válaszod és a másik játékos válasza <b>megegyeznek</b>.</p>","null","","","","feedback trial","",""
"html-button-response-esp","37","419693","0.0-11.0-0.13","6328","János imád flivegezni, ezért sokat flivegzik. Ők ritkán...","0","flivegeznek","[""flivegeznek"",""flivegzenek""]","flivegzenek","esp trial","10","false"
"html-button-response","38","423219","0.0-11.0-1.13","null","<p>A másik játékos ezt választotta: <b>flivegzenek</b>.</p><p>&#10060;</p><p>A válaszaitok <b>nem</b> egyeznek meg.</p>","null","","","","feedback trial","",""
"html-button-response-esp","39","432767","0.0-11.0-0.14","7575","János imád drojozni, ezért sokat drojzik. Mi ritkán...","1","drojozunk","[""drojzunk"",""drojozunk""]","drojozunk","esp trial","10","true"
"html-button-response","40","436285","0.0-11.0-1.14","null","<p>A másik játékos ezt választotta: <b>drojozunk</b>.</p><p>&#x2705;</p><p>A te válaszod és a másik játékos válasza <b>megegyeznek</b>.</p>","null","","","","feedback trial","",""
"html-button-response-esp","41","445833","0.0-11.0-0.15","7808","János imád galározni, ezért sokat galárzik. Ők ritkán...","0","galárzanak","[""galárzanak"",""galároznak""]","galárzanak","esp trial","10","true"
"html-button-response","42","449346","0.0-11.0-1.15","null","<p>A másik játékos ezt választotta: <b>galárzanak</b>.</p><p>&#x2705;</p><p>A te válaszod és a másik játékos válasza <b>megegyeznek</b>.</p>","null","","","","feedback trial","",""
"html-button-response-esp","43","458895","0.0-11.0-0.16","7270","János imád lumozni, ezért sokat lumlik. Ti ritkán...","0","lumoztok","[""lumoztok"",""lumlotok""]","lumlotok","esp trial","10","false"
"html-button-response","44","462417","0.0-11.0-1.16","null","<p>A másik játékos ezt választotta: <b>lumlotok</b>.</p><p>&#10060;</p><p>A válaszaitok <b>nem</b> egyeznek meg.</p>","null","","","","feedback trial","",""
"html-button-response-esp","45","471970","0.0-11.0-0.17","7383","János imád mihágozni, ezért sokat mihágzik. Ti ritkán...","1","mihágoztok","[""mihágzotok"",""mihágoztok""]","mihágzotok","esp trial","10","false"
"html-button-response","46","475494","0.0-11.0-1.17","null","<p>A másik játékos ezt választotta: <b>mihágzotok</b>.</p><p>&#10060;</p><p>A válaszaitok <b>nem</b> egyeznek meg.</p>","null","","","","feedback trial","",""
"html-button-response-esp","47","489837","0.0-11.0-0.18","13833","János imád frivamozni, ezért sokat frivamlik. Mi ritkán...","1","frivamozunk","[""frivamlunk"",""frivamozunk""]","frivamozunk","esp trial","10","true"
"html-button-response","48","493348","0.0-11.0-1.18","null","<p>A másik játékos ezt választotta: <b>frivamozunk</b>.</p><p>&#x2705;</p><p>A te válaszod és a másik játékos válasza <b>megegyeznek</b>.</p>","null","","","","feedback trial","",""
"html-button-response-esp","49","503381","0.0-11.0-0.19","9521","János imád spibamozni, ezért sokat spibamlik. Ők ritkán...","1","spibamoznak","[""spibamlanak"",""spibamoznak""]","spibamoznak","esp trial","10","true"
"html-button-response","50","506902","0.0-11.0-1.19","null","<p>A másik játékos ezt választotta: <b>spibamoznak</b>.</p><p>&#x2705;</p><p>A te válaszod és a másik játékos válasza <b>megegyeznek</b>.</p>","null","","","","feedback trial","",""
"html-button-response-esp","51","516458","0.0-11.0-0.20","5695","János imád hákodni, ezért sokat hákszik. Ők ritkán...","0","hákodnak","[""hákodnak"",""hákszanak""]","hákodnak","esp trial","10","true"
"html-button-response","52","519972","0.0-11.0-1.20","null","<p>A másik játékos ezt választotta: <b>hákodnak</b>.</p><p>&#x2705;</p><p>A te válaszod és a másik játékos válasza <b>megegyeznek</b>.</p>","null","","","","feedback trial","",""
"html-button-response-esp","53","529524","0.0-11.0-0.21","6665","János imád sztrajozni, ezért sokat sztrajlik. Ők ritkán...","0","sztrajoznak","[""sztrajoznak"",""sztrajlanak""]","sztrajoznak","esp trial","10","true"
"html-button-response","54","533038","0.0-11.0-1.21","null","<p>A másik játékos ezt választotta: <b>sztrajoznak</b>.</p><p>&#x2705;</p><p>A te válaszod és a másik játékos válasza <b>megegyeznek</b>.</p>","null","","","","feedback trial","",""
"html-button-response-esp","55","542582","0.0-11.0-0.22","5037","János imád fröjözni, ezért sokat fröjlik. Mi ritkán...","1","fröjözünk","[""fröjlünk"",""fröjözünk""]","fröjözünk","esp trial","10","true"
"html-button-response","56","546105","0.0-11.0-1.22","null","<p>A másik játékos ezt választotta: <b>fröjözünk</b>.</p><p>&#x2705;</p><p>A te válaszod és a másik játékos válasza <b>megegyeznek</b>.</p>","null","","","","feedback trial","",""
"html-button-response-esp","57","556333","0.0-11.0-0.23","9715","János imád pekedni, ezért sokat pekszik. Mi ritkán...","1","pekedünk","[""pekszünk"",""pekedünk""]","pekedünk","esp trial","10","true"
"html-button-response","58","559853","0.0-11.0-1.23","null","<p>A másik játékos ezt választotta: <b>pekedünk</b>.</p><p>&#x2705;</p><p>A te válaszod és a másik játékos válasza <b>megegyeznek</b>.</p>","null","","","","feedback trial","",""
"html-button-response-esp","59","569398","0.0-11.0-0.24","6816","János imád gibemezni, ezért sokat gibemlik. Mi ritkán...","0","gibemezünk","[""gibemezünk"",""gibemlünk""]","gibemezünk","esp trial","10","true"
"html-button-response","60","572917","0.0-11.0-1.24","null","<p>A másik játékos ezt választotta: <b>gibemezünk</b>.</p><p>&#x2705;</p><p>A te válaszod és a másik játékos válasza <b>megegyeznek</b>.</p>","null","","","","feedback trial","",""
"html-button-response-esp","61","582471","0.0-11.0-0.25","5016","János imád brálamozni, ezért sokat brálamlik. Ők ritkán...","1","brálamoznak","[""brálamlanak"",""brálamoznak""]","brálamoznak","esp trial","10","true"
"html-button-response","62","585992","0.0-11.0-1.25","null","<p>A másik játékos ezt választotta: <b>brálamoznak</b>.</p><p>&#x2705;</p><p>A te válaszod és a másik játékos válasza <b>megegyeznek</b>.</p>","null","","","","feedback trial","",""
"html-button-response-esp","63","595538","0.0-11.0-0.26","4694","János imád kluzozni, ezért sokat kluzlik. Ti ritkán...","0","kluzoztok","[""kluzoztok"",""kluzlotok""]","kluzlotok","esp trial","10","false"
"html-button-response","64","599060","0.0-11.0-1.26","null","<p>A másik játékos ezt választotta: <b>kluzlotok</b>.</p><p>&#10060;</p><p>A válaszaitok <b>nem</b> egyeznek meg.</p>","null","","","","feedback trial","",""
"html-button-response-esp","65","609356","0.0-11.0-0.27","9783","János imád gatágozni, ezért sokat gatáglik. Mi ritkán...","0","gatágozunk","[""gatágozunk"",""gatáglunk""]","gatáglunk","esp trial","10","false"
"html-button-response","66","612882","0.0-11.0-1.27","null","<p>A másik játékos ezt választotta: <b>gatáglunk</b>.</p><p>&#10060;</p><p>A válaszaitok <b>nem</b> egyeznek meg.</p>","null","","","","feedback trial","",""
"html-button-response-esp","67","622432","0.0-11.0-0.28","6680","János imád bregezni, ezért sokat bregzik. Mi ritkán...","0","bregezünk","[""bregezünk"",""bregzünk""]","bregezünk","esp trial","10","true"
"html-button-response","68","625954","0.0-11.0-1.28","null","<p>A másik játékos ezt választotta: <b>bregezünk</b>.</p><p>&#x2705;</p><p>A te válaszod és a másik játékos válasza <b>megegyeznek</b>.</p>","null","","","","feedback trial","",""
"html-button-response-esp","69","635556","0.0-11.0-0.29","9088","János imád trírozni, ezért sokat trírzik. Mi ritkán...","0","trírozunk","[""trírozunk"",""trírzunk""]","trírozunk","esp trial","10","true"
"html-button-response","70","639072","0.0-11.0-1.29","null","<p>A másik játékos ezt választotta: <b>trírozunk</b>.</p><p>&#x2705;</p><p>A te válaszod és a másik játékos válasza <b>megegyeznek</b>.</p>","null","","","","feedback trial","",""
"html-button-response-esp","71","650540","0.0-11.0-0.30","10961","János imád prilepedni, ezért sokat prilepszik. Mi ritkán...","0","prilepedünk","[""prilepedünk"",""prilepszünk""]","prilepedünk","esp trial","10","true"
"html-button-response","72","654067","0.0-11.0-1.30","null","<p>A másik játékos ezt választotta: <b>prilepedünk</b>.</p><p>&#x2705;</p><p>A te válaszod és a másik játékos válasza <b>megegyeznek</b>.</p>","null","","","","feedback trial","",""
"html-button-response-esp","73","663716","0.0-11.0-0.31","9136","János imád nágapodni, ezért sokat nágapszik. Ők ritkán...","1","nágapodnak","[""nágapszanak"",""nágapodnak""]","nágapodnak","esp trial","10","true"
"html-button-response","74","667233","0.0-11.0-1.31","null","<p>A másik játékos ezt választotta: <b>nágapodnak</b>.</p><p>&#x2705;</p><p>A te válaszod és a másik játékos válasza <b>megegyeznek</b>.</p>","null","","","","feedback trial","",""
"html-button-response-esp","75","684012","0.0-11.0-0.32","16272","János imád klarágozni, ezért sokat klarágzik. Ti ritkán...","0","klarágoztok","[""klarágoztok"",""klarágzotok""]","klarágzotok","esp trial","10","false"
"html-button-response","76","687522","0.0-11.0-1.32","null","<p>A másik játékos ezt választotta: <b>klarágzotok</b>.</p><p>&#10060;</p><p>A válaszaitok <b>nem</b> egyeznek meg.</p>","null","","","","feedback trial","",""
"html-button-response-esp","77","697078","0.0-11.0-0.33","7451","János imád vobozni, ezért sokat vobzik. Ti ritkán...","1","voboztok","[""vobzotok"",""voboztok""]","vobzotok","esp trial","10","false"
"html-button-response","78","700597","0.0-11.0-1.33","null","<p>A másik játékos ezt választotta: <b>vobzotok</b>.</p><p>&#10060;</p><p>A válaszaitok <b>nem</b> egyeznek meg.</p>","null","","","","feedback trial","",""
"html-button-response-esp","79","710459","0.0-11.0-0.34","9352","János imád riványozni, ezért sokat riványlik. Ti ritkán...","1","riványlotok","[""riványoztok"",""riványlotok""]","riványoztok","esp trial","10","false"
"html-button-response","80","713981","0.0-11.0-1.34","null","<p>A másik játékos ezt választotta: <b>riványoztok</b>.</p><p>&#10060;</p><p>A válaszaitok <b>nem</b> egyeznek meg.</p>","null","","","","feedback trial","",""
"html-button-response-esp","81","732035","0.0-11.0-0.35","17543","János imád sprigozni, ezért sokat sprigzik. Ti ritkán...","0","sprigoztok","[""sprigoztok"",""sprigzotok""]","sprigzotok","esp trial","10","false"
"html-button-response","82","735548","0.0-11.0-1.35","null","<p>A másik játékos ezt választotta: <b>sprigzotok</b>.</p><p>&#10060;</p><p>A válaszaitok <b>nem</b> egyeznek meg.</p>","null","","","","feedback trial","",""
"html-button-response-esp","83","745091","0.0-11.0-0.36","7113","János imád brározni, ezért sokat brárlik. Ők ritkán...","1","brárlanak","[""brároznak"",""brárlanak""]","brároznak","esp trial","10","false"
"html-button-response","84","748610","0.0-11.0-1.36","null","<p>A másik játékos ezt választotta: <b>brároznak</b>.</p><p>&#10060;</p><p>A válaszaitok <b>nem</b> egyeznek meg.</p>","null","","","","feedback trial","",""
"html-button-response-esp","85","758161","0.0-11.0-0.37","8409","János imád spalározni, ezért sokat spalárzik. Ők ritkán...","1","spalároznak","[""spalárzanak"",""spalároznak""]","spalároznak","esp trial","10","true"
"html-button-response","86","761683","0.0-11.0-1.37","null","<p>A másik játékos ezt választotta: <b>spalároznak</b>.</p><p>&#x2705;</p><p>A te válaszod és a másik játékos válasza <b>megegyeznek</b>.</p>","null","","","","feedback trial","",""
"html-button-response-esp","87","771226","0.0-11.0-0.38","4479","János imád küsözni, ezért sokat küslik. Mi ritkán...","0","küsözünk","[""küsözünk"",""küslünk""]","küsözünk","esp trial","10","true"
"html-button-response","88","774748","0.0-11.0-1.38","null","<p>A másik játékos ezt választotta: <b>küsözünk</b>.</p><p>&#x2705;</p><p>A te válaszod és a másik játékos válasza <b>megegyeznek</b>.</p>","null","","","","feedback trial","",""
"html-button-response-esp","89","786900","0.0-11.0-0.39","11640","János imád flubokozni, ezért sokat fluboklik. Ti ritkán...","0","flubokoztok","[""flubokoztok"",""fluboklotok""]","fluboklotok","esp trial","10","false"
"html-button-response","90","790417","0.0-11.0-1.39","null","<p>A másik játékos ezt választotta: <b>fluboklotok</b>.</p><p>&#10060;</p><p>A válaszaitok <b>nem</b> egyeznek meg.</p>","null","","","","feedback trial","",""
"html-button-response-esp","91","799959","0.0-11.0-0.40","6324","János imád sprimozni, ezért sokat sprimlik. Mi ritkán...","1","sprimozunk","[""sprimlunk"",""sprimozunk""]","sprimozunk","esp trial","10","true"
"html-button-response","92","803486","0.0-11.0-1.40","null","<p>A másik játékos ezt választotta: <b>sprimozunk</b>.</p><p>&#x2705;</p><p>A te válaszod és a másik játékos válasza <b>megegyeznek</b>.</p>","null","","","","feedback trial","",""
"html-button-response-esp","93","813038","0.0-11.0-0.41","8092","János imád livényezni, ezért sokat livénylik. Mi ritkán...","1","livényezünk","[""livénylünk"",""livényezünk""]","livényezünk","esp trial","10","true"
"html-button-response","94","816562","0.0-11.0-1.41","null","<p>A másik játékos ezt választotta: <b>livényezünk</b>.</p><p>&#x2705;</p><p>A te válaszod és a másik játékos válasza <b>megegyeznek</b>.</p>","null","","","","feedback trial","",""
"html-button-response-esp","95","826118","0.0-11.0-0.42","6603","János imád pehégedni, ezért sokat pehégszik. Ti ritkán...","1","pehégedtek","[""pehégszetek"",""pehégedtek""]","pehégedtek","esp trial","10","true"
"html-button-response","96","829645","0.0-11.0-1.42","null","<p>A másik játékos ezt választotta: <b>pehégedtek</b>.</p><p>&#x2705;</p><p>A te válaszod és a másik játékos válasza <b>megegyeznek</b>.</p>","null","","","","feedback trial","",""
"html-button-response-esp","97","839189","0.0-11.0-0.43","8990","János imád tibarozni, ezért sokat tibarzik. Ők ritkán...","1","tibaroznak","[""tibarzanak"",""tibaroznak""]","tibaroznak","esp trial","10","true"
"html-button-response","98","842708","0.0-11.0-1.43","null","<p>A másik játékos ezt választotta: <b>tibaroznak</b>.</p><p>&#x2705;</p><p>A te válaszod és a másik játékos válasza <b>megegyeznek</b>.</p>","null","","","","feedback trial","",""
"html-button-response-esp","99","852257","0.0-11.0-0.44","7919","János imád sponyozni, ezért sokat sponylik. Ők ritkán...","1","sponyoznak","[""sponylanak"",""sponyoznak""]","sponyoznak","esp trial","10","true"
"html-button-response","100","855777","0.0-11.0-1.44","null","<p>A másik játékos ezt választotta: <b>sponyoznak</b>.</p><p>&#x2705;</p><p>A te válaszod és a másik játékos válasza <b>megegyeznek</b>.</p>","null","","","","feedback trial","",""
"html-button-response-esp","101","865329","0.0-11.0-0.45","6106","János imád tágarozni, ezért sokat tágarzik. Mi ritkán...","0","tágarozunk","[""tágarozunk"",""tágarzunk""]","tágarozunk","esp trial","10","true"
"html-button-response","102","868852","0.0-11.0-1.45","null","<p>A másik játékos ezt választotta: <b>tágarozunk</b>.</p><p>&#x2705;</p><p>A te válaszod és a másik játékos válasza <b>megegyeznek</b>.</p>","null","","","","feedback trial","",""
"html-button-response-esp","103","882427","0.0-11.0-0.46","13065","János imád flézezni, ezért sokat flézlik. Ti ritkán...","1","flézeztek","[""flézletek"",""flézeztek""]","flézletek","esp trial","10","false"
"html-button-response","104","885945","0.0-11.0-1.46","null","<p>A másik játékos ezt választotta: <b>flézletek</b>.</p><p>&#10060;</p><p>A válaszaitok <b>nem</b> egyeznek meg.</p>","null","","","","feedback trial","",""
"html-button-response-esp","105","895488","0.0-11.0-0.47","5688","János imád filányozni, ezért sokat filánylik. Mi ritkán...","0","filányozunk","[""filányozunk"",""filánylunk""]","filányozunk","esp trial","10","true"
"html-button-response","106","899001","0.0-11.0-1.47","null","<p>A másik játékos ezt választotta: <b>filányozunk</b>.</p><p>&#x2705;</p><p>A te válaszod és a másik játékos válasza <b>megegyeznek</b>.</p>","null","","","","feedback trial","",""
"html-button-response-esp","107","908551","0.0-11.0-0.48","5728","János imád prazozni, ezért sokat prazlik. Mi ritkán...","1","prazozunk","[""prazlunk"",""prazozunk""]","prazozunk","esp trial","10","true"
"html-button-response","108","912066","0.0-11.0-1.48","null","<p>A másik játékos ezt választotta: <b>prazozunk</b>.</p><p>&#x2705;</p><p>A te válaszod és a másik játékos válasza <b>megegyeznek</b>.</p>","null","","","","feedback trial","",""
"html-button-response-esp","109","921613","0.0-11.0-0.49","8881","János imád míjozni, ezért sokat míjzik. Mi ritkán...","0","míjozunk","[""míjozunk"",""míjzunk""]","míjozunk","esp trial","10","true"
"html-button-response","110","925133","0.0-11.0-1.49","null","<p>A másik játékos ezt választotta: <b>míjozunk</b>.</p><p>&#x2705;</p><p>A te válaszod és a másik játékos válasza <b>megegyeznek</b>.</p>","null","","","","feedback trial","",""
"html-button-response-esp","111","934682","0.0-11.0-0.50","8710","János imád spöközni, ezért sokat spöklik. Mi ritkán...","1","spöközünk","[""spöklünk"",""spöközünk""]","spöközünk","esp trial","10","true"
"html-button-response","112","938195","0.0-11.0-1.50","null","<p>A másik játékos ezt választotta: <b>spöközünk</b>.</p><p>&#x2705;</p><p>A te válaszod és a másik játékos válasza <b>megegyeznek</b>.</p>","null","","","","feedback trial","",""
"html-button-response-esp","113","947743","0.0-11.0-0.51","5405","János imád lírozni, ezért sokat lírlik. Ők ritkán...","0","líroznak","[""líroznak"",""lírlanak""]","líroznak","esp trial","10","true"
"html-button-response","114","951264","0.0-11.0-1.51","null","<p>A másik játékos ezt választotta: <b>líroznak</b>.</p><p>&#x2705;</p><p>A te válaszod és a másik játékos válasza <b>megegyeznek</b>.</p>","null","","","","feedback trial","",""
"html-button-response-esp","115","977498","0.0-11.0-0.52","25719","János imád brivepedni, ezért sokat brivepszik. Mi ritkán...","0","brivepedünk","[""brivepedünk"",""brivepszünk""]","brivepedünk","esp trial","10","true"
"html-button-response","116","981015","0.0-11.0-1.52","null","<p>A másik játékos ezt választotta: <b>brivepedünk</b>.</p><p>&#x2705;</p><p>A te válaszod és a másik játékos válasza <b>megegyeznek</b>.</p>","null","","","","feedback trial","",""
"html-button-response-esp","117","990566","0.0-11.0-0.53","6571","János imád frihegezni, ezért sokat friheglik. Mi ritkán...","0","frihegezünk","[""frihegezünk"",""friheglünk""]","frihegezünk","esp trial","10","true"
"html-button-response","118","994084","0.0-11.0-1.53","null","<p>A másik játékos ezt választotta: <b>frihegezünk</b>.</p><p>&#x2705;</p><p>A te válaszod és a másik játékos válasza <b>megegyeznek</b>.</p>","null","","","","feedback trial","",""
"html-button-response","119","1007401","0.0-12.0","12805","<p>A közös játék most véget ért.</p><p>Mielőtt eláruljuk a végső pontszámodat, arra kérlek, játszd a szóválasztós játékot néhány percig egyedül is.</p><p>A feladatod ugyanaz lesz, választani két lehetőség közül.</p><p>Most viszont egyedül kell döntened, hogy te melyiket választanád.</p>","0","","","","","",""
"html-button-response-clever","120","1047297","0.0-13.0-0.0","39383","János imád bötőrözni, ezért sokat bötőrzik. Mi ritkán...","1","bötőrzünk","[""bötőrözünk"",""bötőrzünk""]","","posttest trial","1",""
"html-button-response-clever","121","1083265","0.0-13.0-0.1","35460","János imád spivejezni, ezért sokat spivejlik. Ők ritkán...","1","spivejeznek","[""spivejlenek"",""spivejeznek""]","","posttest trial","1",""
"html-button-response-clever","122","1094506","0.0-13.0-0.2","10736","János imád nyádozni, ezért sokat nyádlik. Ők ritkán...","1","nyádlanak","[""nyádoznak"",""nyádlanak""]","","posttest trial","1",""
"html-button-response-clever","123","1098745","0.0-13.0-0.3","3725","János imád spuborozni, ezért sokat spuborzik. Ők ritkán...","0","spuborzanak","[""spuborzanak"",""spuboroznak""]","","posttest trial","1",""
"html-button-response-clever","124","1105337","0.0-13.0-0.4","6090","János imád játozni, ezért sokat játlik. Mi ritkán...","1","játlunk","[""játozunk"",""játlunk""]","","posttest trial","1",""
"html-button-response-clever","125","1112841","0.0-13.0-0.5","6992","János imád frorozni, ezért sokat frorlik. Ők ritkán...","1","frorlanak","[""froroznak"",""frorlanak""]","","posttest trial","1",""
"html-button-response-clever","126","1120545","0.0-13.0-0.6","7191","János imád vilesezni, ezért sokat vileslik. Mi ritkán...","0","vileslünk","[""vileslünk"",""vilesezünk""]","","posttest trial","1",""
"html-button-response-clever","127","1130617","0.0-13.0-0.7","9564","János imád metégedni, ezért sokat metégszik. Ők ritkán...","1","metégednek","[""metégszenek"",""metégednek""]","","posttest trial","1",""
"html-button-response-clever","128","1138857","0.0-13.0-0.8","7732","János imád flugonyozni, ezért sokat flugonylik. Ők ritkán...","1","flugonyoznak","[""flugonylanak"",""flugonyoznak""]","","posttest trial","1",""
"html-button-response-clever","129","1148168","0.0-13.0-0.9","8797","János imád nivározni, ezért sokat nivárzik. Ti ritkán...","1","nivárzotok","[""nivároztok"",""nivárzotok""]","","posttest trial","1",""
"html-button-response-clever","130","1163241","0.0-13.0-0.10","14562","János imád nyizozni, ezért sokat nyizlik. Mi ritkán...","0","nyizlunk","[""nyizlunk"",""nyizozunk""]","","posttest trial","1",""
"html-button-response-clever","131","1174705","0.0-13.0-0.11","10953","János imád flátozni, ezért sokat flátlik. Ti ritkán...","0","flátoztok","[""flátoztok"",""flátlotok""]","","posttest trial","1",""
"html-button-response-clever","132","1183337","0.0-13.0-0.12","8118","János imád géregezni, ezért sokat géreglik. Ti ritkán...","1","géregeztek","[""géregletek"",""géregeztek""]","","posttest trial","1",""
"html-button-response-clever","133","1191336","0.0-13.0-0.13","7486","János imád bügözni, ezért sokat bügzik. Ők ritkán...","1","bügöznek","[""bügzenek"",""bügöznek""]","","posttest trial","1",""
"html-button-response-clever","134","1204672","0.0-13.0-0.14","12826","János imád ribegedni, ezért sokat ribegszik. Ti ritkán...","1","ribegszetek","[""ribegedtek"",""ribegszetek""]","","posttest trial","1",""
"html-button-response-clever","135","1214801","0.0-13.0-0.15","9614","János imád trilekedni, ezért sokat trilekszik. Ti ritkán...","1","trilekszetek","[""trilekedtek"",""trilekszetek""]","","posttest trial","1",""
"html-button-response-clever","136","1230352","0.0-13.0-0.16","15046","János imád brűközni, ezért sokat brűklik. Ti ritkán...","1","brűköztök","[""brűklötök"",""brűköztök""]","","posttest trial","1",""
"html-button-response-clever","137","1234249","0.0-13.0-0.17","3392","János imád bejezni, ezért sokat bejzik. Mi ritkán...","0","bejzünk","[""bejzünk"",""bejezünk""]","","posttest trial","1",""
"html-button-response-clever","138","1247384","0.0-13.0-0.18","12634","János imád kláragodni, ezért sokat kláragszik. Ti ritkán...","1","kláragszotok","[""kláragodtok"",""kláragszotok""]","","posttest trial","1",""
"html-button-response-clever","139","1256552","0.0-13.0-0.19","8663","János imád nurokozni, ezért sokat nuroklik. Mi ritkán...","1","nuroklunk","[""nurokozunk"",""nuroklunk""]","","posttest trial","1",""
"html-button-response-clever","140","1267928","0.0-13.0-0.20","10873","János imád frirozni, ezért sokat frirzik. Mi ritkán...","1","frirzunk","[""frirozunk"",""frirzunk""]","","posttest trial","1",""
"html-button-response-clever","141","1279152","0.0-13.0-0.21","10716","János imád nyülöközni, ezért sokat nyülöklik. Ők ritkán...","1","nyülököznek","[""nyülöklenek"",""nyülököznek""]","","posttest trial","1",""
"html-button-response-clever","142","1290888","0.0-13.0-0.22","11231","János imád klűmözni, ezért sokat klűmlik. Ti ritkán...","1","klűmlötök","[""klűmöztök"",""klűmlötök""]","","posttest trial","1",""
"html-button-response-clever","143","1295057","0.0-13.0-0.23","3661","János imád hubonyozni, ezért sokat hubonylik. Ti ritkán...","1","hubonyoztok","[""hubonylotok"",""hubonyoztok""]","","posttest trial","1",""
"html-button-response-clever","144","1300472","0.0-13.0-0.24","4901","János imád pibegezni, ezért sokat pibegzik. Ők ritkán...","1","pibegzenek","[""pibegeznek"",""pibegzenek""]","","posttest trial","1",""
"html-button-response-clever","145","1306191","0.0-13.0-0.25","5216","János imád klihasozni, ezért sokat klihaslik. Ti ritkán...","1","klihaslotok","[""klihasoztok"",""klihaslotok""]","","posttest trial","1",""
"html-button-response-clever","146","1309400","0.0-13.0-0.26","2694","János imád prihegedni, ezért sokat prihegszik. Ők ritkán...","0","prihegszenek","[""prihegszenek"",""prihegednek""]","","posttest trial","1",""
"html-button-response-clever","147","1313071","0.0-13.0-0.27","3169","János imád sűjözni, ezért sokat sűjlik. Mi ritkán...","1","sűjlünk","[""sűjözünk"",""sűjlünk""]","","posttest trial","1",""
"html-button-response-clever","148","1326079","0.0-13.0-0.28","12503","János imád bribékedni, ezért sokat bribékszik. Ti ritkán...","0","bribékszetek","[""bribékszetek"",""bribékedtek""]","","posttest trial","1",""
"html-button-response-clever","149","1335952","0.0-13.0-0.29","9368","János imád sprebezni, ezért sokat sprebzik. Ők ritkán...","1","sprebzenek","[""sprebeznek"",""sprebzenek""]","","posttest trial","1",""
"html-button-response-clever","150","1348424","0.0-13.0-0.30","11971","János imád klégezni, ezért sokat kléglik. Mi ritkán...","0","kléglünk","[""kléglünk"",""klégezünk""]","","posttest trial","1",""
"html-button-response-clever","151","1360640","0.0-13.0-0.31","11706","János imád trálakozni, ezért sokat trálaklik. Ők ritkán...","1","trálakoznak","[""trálaklanak"",""trálakoznak""]","","posttest trial","1",""
"html-button-response-clever","152","1367871","0.0-13.0-0.32","6717","János imád vehékedni, ezért sokat vehékszik. Mi ritkán...","1","vehékedünk","[""vehékszünk"",""vehékedünk""]","","posttest trial","1",""
"html-button-response-clever","153","1372424","0.0-13.0-0.33","4044","János imád frinyozni, ezért sokat frinylik. Mi ritkán...","1","frinylunk","[""frinyozunk"",""frinylunk""]","","posttest trial","1",""
"html-button-response-clever","154","1377087","0.0-13.0-0.34","4160","János imád trálodni, ezért sokat trálszik. Mi ritkán...","0","trálszunk","[""trálszunk"",""trálodunk""]","","posttest trial","1",""
"html-button-response-clever","155","1398527","0.0-13.0-0.35","20925","János imád frélegezni, ezért sokat frélegzik. Mi ritkán...","1","frélegzünk","[""frélegezünk"",""frélegzünk""]","","posttest trial","1",""
"html-button-response-clever","156","1402399","0.0-13.0-0.36","3360","János imád tögözni, ezért sokat töglik. Ők ritkán...","0","tögöznek","[""tögöznek"",""töglenek""]","","posttest trial","1",""
"html-button-response-clever","157","1411663","0.0-13.0-0.37","8761","János imád bribasozni, ezért sokat bribaslik. Ők ritkán...","1","bribasoznak","[""bribaslanak"",""bribasoznak""]","","posttest trial","1",""
"html-button-response-clever","158","1416743","0.0-13.0-0.38","4565","János imád dralágozni, ezért sokat dralágzik. Mi ritkán...","0","dralágzunk","[""dralágzunk"",""dralágozunk""]","","posttest trial","1",""
"html-button-response-clever","159","1424351","0.0-13.0-0.39","7101","János imád jurozni, ezért sokat jurlik. Mi ritkán...","0","jurlunk","[""jurlunk"",""jurozunk""]","","posttest trial","1",""
"html-button-response-clever","160","1431119","0.0-13.0-0.40","6266","János imád dibágozni, ezért sokat dibáglik. Ti ritkán...","1","dibáglotok","[""dibágoztok"",""dibáglotok""]","","posttest trial","1",""
"html-button-response-clever","161","1435335","0.0-13.0-0.41","3713","János imád döjözni, ezért sokat döjlik. Ők ritkán...","1","döjlenek","[""döjöznek"",""döjlenek""]","","posttest trial","1",""
"html-button-response-clever","162","1440055","0.0-13.0-0.42","4206","János imád trukodni, ezért sokat trukszik. Ti ritkán...","0","trukszotok","[""trukszotok"",""trukodtok""]","","posttest trial","1",""
"html-button-response-clever","163","1452566","0.0-13.0-0.43","11996","János imád sztredezni, ezért sokat sztredlik. Ti ritkán...","0","sztredletek","[""sztredletek"",""sztredeztek""]","","posttest trial","1",""
"html-button-response-clever","164","1459727","0.0-13.0-0.44","6655","János imád flodozni, ezért sokat flodlik. Ti ritkán...","1","flodlotok","[""flodoztok"",""flodlotok""]","","posttest trial","1",""
"html-button-response-clever","165","1467494","0.0-13.0-0.45","7255","János imád prugorozni, ezért sokat prugorzik. Ti ritkán...","1","prugorzotok","[""prugoroztok"",""prugorzotok""]","","posttest trial","1",""
"html-button-response-clever","166","1470438","0.0-13.0-0.46","2434","János imád plibozni, ezért sokat plibzik. Ti ritkán...","1","plibzotok","[""pliboztok"",""plibzotok""]","","posttest trial","1",""
"html-button-response-clever","167","1479478","0.0-13.0-0.47","8524","János imád flerékedni, ezért sokat flerékszik. Mi ritkán...","1","flerékszünk","[""flerékedünk"",""flerékszünk""]","","posttest trial","1",""
"html-button-response-clever","168","1491431","0.0-13.0-0.48","11439","János imád brürözni, ezért sokat brürzik. Ők ritkán...","0","brürzenek","[""brürzenek"",""brüröznek""]","","posttest trial","1",""
"html-button-response-clever","169","1498806","0.0-13.0-0.49","6865","János imád gihamozni, ezért sokat gihamlik. Ők ritkán...","1","gihamoznak","[""gihamlanak"",""gihamoznak""]","","posttest trial","1",""
"html-button-response-clever","170","1503694","0.0-13.0-0.50","4384","János imád hiragozni, ezért sokat hiragzik. Ők ritkán...","1","hiragzanak","[""hiragoznak"",""hiragzanak""]","","posttest trial","1",""
"html-button-response-clever","171","1510959","0.0-13.0-0.51","6746","János imád vihapodni, ezért sokat vihapszik. Mi ritkán...","1","vihapszunk","[""vihapodunk"",""vihapszunk""]","","posttest trial","1",""
"html-button-response-clever","172","1528078","0.0-13.0-0.52","16615","János imád bresezni, ezért sokat breslik. Ők ritkán...","1","breseznek","[""breslenek"",""breseznek""]","","posttest trial","1",""
"html-button-response-clever","173","1533454","0.0-13.0-0.53","4860","János imád nyöbözni, ezért sokat nyöbzik. Ők ritkán...","0","nyöbzenek","[""nyöbzenek"",""nyöböznek""]","","posttest trial","1",""
"html-button-response","174","1537734","0.0-14.0","3768","<p> Vége a játéknak. A teljes pontszámod 38/54.</p><p> Szép munka! &#128526;&#128526;&#128526;</p><p>A Befejezés gomb megnyomása után bezárhatod a böngészőablakot.</p>","0","","","","","",""
"html-keyboard-response","175","1543249","0.0-15.0","null","<div class=""message"">
         <p>Egy kis türelmet kérünk, amíg elmentjük az adatokat...</p>
         </div>","null","","","","","",""
