"trial_type","trial_index","time_elapsed","internal_node_id","rt","stimulus","response","response_string","choices","esp_response","trial_kind","list_number","esp_match"
"pavlovia","0","860","0.0-0.0","","","","","","","","",""
"html-button-response","1","3897","0.0-1.0","2530","<p>Kedves Résztvevő! A Budapesti Műszaki és Gazdaságtudományi Egyetem Kognitív Tudományi Tanszékének kutatásában való részvételed kérjük. A kutatásban azt vizsgáljuk, hogy a magyar anyanyelvűek hogyan használnak bizonyos szóalakokat, és hogy milyen képük van arról, hogy mások hogyan használják, hogyan képzik a szavakat. Ez hozzásegít bennünket ahhoz, hogy jobban megértsük, hogyan dolgozza fel és tárolja a nyelvet az emberi agy, és hogyan működnek, hogyan változnak egy adott közösség nyelvi konvenciói.</p><p>A vizsgálat egy rövid számítógépes feladatból fog állni. A kutatásban való részvétel önkéntes, a részvételi szándék bármikor visszavonható. A résztvevők eredményeit név nélkül kezeljük, így nem beazonosíthatók az adatok feldolgozása során. Minden személyes adatot az EU általános adatvédelmi rendeletének (GDPR) megfelelően kezelünk és legfeljebb öt éven belül megsemmisítünk. A vizsgálat jellemzően húsz percet vesz igénybe.</p><p>Kutatásvezető:</p><p>Dr. Rácz Péter, tudományos munkatárs, BME KTT</p><p>e-mail: racz.peter.marton@ttk.bme.hu</p>","0","","","","","",""
"html-button-response","2","56457","0.0-2.0","52038","<p>A kísérletben szavakat fogsz látni. Ezek között lesznek olyanok, amelyeket ismersz, de előfordulhatnak olyanok is, amelyeket nem ismersz, sőt, vannak köztük kitalált szavak is. Minden szónál látni fogsz toldalékolt alakokat. A te feladatod az lesz, hogy minden szóhoz kiválaszd azt a toldalékolt alakot, amely a te számodra ismerősebben, természetesebben hangzik. Rossz válaszok nincsenek, mert van olyan, hogy különböző embereknek más és más szó tűnik jobb választásnak. A választ úgy tudod majd kiválasztani, ha rákattintasz.</p><p>Ebben a szóválasztós játékban egy másik játékossal együtt veszel majd részt. A másik játékos is minden esetben azok közül a lehetőségek közül válogathat, mint te. Kettőtök feladata az, hogy ugyanazt a lehetőséget válasszátok minden esetben. Ahhoz, hogy ez sikerüljön, neked figyelned kell arra, hogy a másik játékos milyen válaszokat ad, és ennek alapján meg kell tippelned, hogyan választ legközelebb. Ha eltalálod, akkor pontot kapsz.</p>","0","","","","","",""
"html-button-response","3","59200","0.0-3.0","2234","<p>Kérjük, olvasd el az alábbi nyilatkozatot, és amennyiben egyetértesz vele, nyomj a Beleegyezés gombra!</p><p>Kijelentem, hogy magyar anyanyelvű személyként önként veszek részt a BME KTT kísérletében. A kutatás céljával és folyamatával kapcsolatban elegendő tájékoztatást kaptam, lehetőségem volt kérdések feltételére, és esetleges kérdéseimre megfelelő válaszokat kaptam. A tájékoztatás alapján elegendő mennyiségű információ áll a rendelkezésemre, hogy eldönthessem, részt kívánok-e venni a kutatásban.</p><p>Tisztában vagyok vele, hogy részvételi szándékomat és adataimat bármikor, indoklás nélkül visszavonhatom.</p><p>Értem és tudomásul veszem, hogy a kutatás tudományos célokat szolgál, és az általam szolgáltatott adatokat a BME kizárólag kutatási célból használja fel. Tudomásul veszem, hogy eredményeimet a többi résztvevő eredményeivel együtt kezelik, így egyéni teljesítményemről visszajelzést, szakvéleményt nem kapok.</p><p>Megértettem, hogy adataim kezelését illetően a BME az EU általános adatvédelmi rendelete (GDPR), a hatályos adatvédelmi törvény és a nemzetközi kutatás-etikai alapelvek szerint jár el. Eredményeim anonim módon kerülnek feldolgozásra, és a kutatás résztvevői az azonosításomra alkalmas adataimat harmadik félnek nem szolgáltatják ki. Engedélyezem a BME számára a jelen kutatásban felvett adataim feldolgozását és tárolását, beleértve azok későbbi kutatásokhoz való felhasználását is. Személyes adataim kezelésével kapcsolatban tájékoztatást kérhetek a kutatás résztvevőitől, az adatkezelés ellen tiltakozhatok, kérhetem személyes adataim helyesbítését, törlését vagy zárolását, valamint jogorvoslatért a Nemzeti Adatvédelmi és Információszabadság Hatósághoz fordulhatok.</p><p>Kijelentem, hogy a kutatásban való részvételem körülményeiről részletes tájékoztatást kaptam, és a feltételeket elfogadom.</p>","0","","","","","",""
"survey-text","4","77913","0.0-4.0","18197","","{""Q0"":""GB8AYW"",""Q1"":""nő"",""Q2"":""2000"",""Q3"":""12""}","","","","","",""
"html-button-response","5","82080","0.0-5.0","3661","<p>Ebben a játékban szavakat kell toldalékolni.</p> <p>Minden körben mutatunk majd egy példamondatot, amiben lesz egy szó.</p> <p>Alatta jön egy második mondat, ezt a mondatot neked kell majd befejezni, ugyanezzel a szóval.</p> <p>Nem biztos, hogy a szó eleve ismerős lesz számodra!</p> <p>Minden mondathoz adunk két lehetőséget, ezeket balra és jobbra látod majd.</p> <p>A játék kb. negyedóráig-húsz percig tart.</p>","0","","","","","",""
"html-button-response","6","99161","0.0-6.0","16563","<p>Nézzünk egy példát!</p> <p>A példamondat: ""János imád fláramolni, ezért sokat fláramlik. Mi ritkán...""</p><p>Neked ezt a mondatot kell befejezned: ""Ti ritkán...""</p><p>A lehetőségek pedig ezek:</p>","0","","","","","",""
"html-button-response","7","104105","0.0-7.0","4427","<p>Nagyon jó.</p><p>Ezt a játékot nem egyedül fogod játszani, hanem egy másik játékossal.</p><p>Mielőtt továbblépünk, összekapcsolunk titeket egymással.</p><p>Ez igénybe vehet néhány másodpercet, amihez szíves türelmed kérjük.</p>","0","","","","","",""
"html-button-response","8","109857","0.0-8.0","null","<p>Csatlakozás a másik játékoshoz...</p>","null","","","","","",""
"html-button-response","9","112379","0.0-9.0","null","<p> Sikeres kapcsolódás!</p>","null","","","","","",""
"html-button-response","10","122899","0.0-10.0","null","<p>A következőkben ketten játsszátok a szóválasztós játékot.</p><p>A feladatotok az lesz, hogy minden körben <b>ugyanazt</b> a szót válasszátok.</p><p>Minden ilyen egyező válaszért pontot kaptok.</p><p>Próbáld meg kitalálni, mit választ a másik játékos!</p><p>Bármikor választhatsz, a körnek akkor van vége, ha mindketten döntöttetek.</p><p>Sok sikert!</p>","null","","","","","",""
"html-button-response-esp","11","130481","0.0-11.0-0.0","7074","János imád nyizozni, ezért sokat nyizlik. Mi ritkán...","1","nyizlunk","[""nyizozunk"",""nyizlunk""]","nyizlunk","esp trial","1","true"
"html-button-response","12","134005","0.0-11.0-1.0","null","<p>A másik játékos ezt választotta: <b>nyizlunk</b>.</p><p>&#x2705;</p><p>A te válaszod és a másik játékos válasza <b>megegyeznek</b>.</p>","null","","","","feedback trial","",""
"html-button-response-esp","13","140872","0.0-11.0-0.1","5090","János imád tögözni, ezért sokat töglik. Ők ritkán...","0","töglenek","[""töglenek"",""tögöznek""]","töglenek","esp trial","1","true"
"html-button-response","14","144406","0.0-11.0-1.1","null","<p>A másik játékos ezt választotta: <b>töglenek</b>.</p><p>&#x2705;</p><p>A te válaszod és a másik játékos válasza <b>megegyeznek</b>.</p>","null","","","","feedback trial","",""
"html-button-response-esp","15","151512","0.0-11.0-0.2","6590","János imád vilesezni, ezért sokat vileslik. Mi ritkán...","1","vileslünk","[""vilesezünk"",""vileslünk""]","vileslünk","esp trial","1","true"
"html-button-response","16","155029","0.0-11.0-1.2","null","<p>A másik játékos ezt választotta: <b>vileslünk</b>.</p><p>&#x2705;</p><p>A te válaszod és a másik játékos válasza <b>megegyeznek</b>.</p>","null","","","","feedback trial","",""
"html-button-response-esp","17","161896","0.0-11.0-0.3","6091","János imád klihasozni, ezért sokat klihaslik. Ti ritkán...","0","klihaslotok","[""klihaslotok"",""klihasoztok""]","klihasoztok","esp trial","1","false"
"html-button-response","18","165430","0.0-11.0-1.3","null","<p>A másik játékos ezt választotta: <b>klihasoztok</b>.</p><p>&#10060;</p><p>A válaszaitok <b>nem</b> egyeznek meg.</p>","null","","","","feedback trial","",""
"html-button-response-esp","19","172313","0.0-11.0-0.4","4493","János imád hubonyozni, ezért sokat hubonylik. Ti ritkán...","1","hubonylotok","[""hubonyoztok"",""hubonylotok""]","hubonyoztok","esp trial","1","false"
"html-button-response","20","175837","0.0-11.0-1.4","null","<p>A másik játékos ezt választotta: <b>hubonyoztok</b>.</p><p>&#10060;</p><p>A válaszaitok <b>nem</b> egyeznek meg.</p>","null","","","","feedback trial","",""
"html-button-response-esp","21","182701","0.0-11.0-0.5","6284","János imád dralágozni, ezért sokat dralágzik. Mi ritkán...","0","dralágzunk","[""dralágzunk"",""dralágozunk""]","dralágzunk","esp trial","1","true"
"html-button-response","22","186224","0.0-11.0-1.5","null","<p>A másik játékos ezt választotta: <b>dralágzunk</b>.</p><p>&#x2705;</p><p>A te válaszod és a másik játékos válasza <b>megegyeznek</b>.</p>","null","","","","feedback trial","",""
"html-button-response-esp","23","196961","0.0-11.0-0.6","10222","János imád sztredezni, ezért sokat sztredlik. Ti ritkán...","1","sztredeztek","[""sztredletek"",""sztredeztek""]","sztredletek","esp trial","1","false"
"html-button-response","24","200488","0.0-11.0-1.6","null","<p>A másik játékos ezt választotta: <b>sztredletek</b>.</p><p>&#10060;</p><p>A válaszaitok <b>nem</b> egyeznek meg.</p>","null","","","","feedback trial","",""
"html-button-response-esp","25","207358","0.0-11.0-0.7","5269","János imád gihamozni, ezért sokat gihamlik. Ők ritkán...","0","gihamlanak","[""gihamlanak"",""gihamoznak""]","gihamlanak","esp trial","1","true"
"html-button-response","26","210883","0.0-11.0-1.7","null","<p>A másik játékos ezt választotta: <b>gihamlanak</b>.</p><p>&#x2705;</p><p>A te válaszod és a másik játékos válasza <b>megegyeznek</b>.</p>","null","","","","feedback trial","",""
"html-button-response-esp","27","217757","0.0-11.0-0.8","5267","János imád klégezni, ezért sokat kléglik. Mi ritkán...","1","kléglünk","[""klégezünk"",""kléglünk""]","kléglünk","esp trial","1","true"
"html-button-response","28","221285","0.0-11.0-1.8","null","<p>A másik játékos ezt választotta: <b>kléglünk</b>.</p><p>&#x2705;</p><p>A te válaszod és a másik játékos válasza <b>megegyeznek</b>.</p>","null","","","","feedback trial","",""
"html-button-response-esp","29","228648","0.0-11.0-0.9","6845","János imád prugorozni, ezért sokat prugorzik. Ti ritkán...","1","prugorzotok","[""prugoroztok"",""prugorzotok""]","prugoroztok","esp trial","1","false"
"html-button-response","30","232181","0.0-11.0-1.9","null","<p>A másik játékos ezt választotta: <b>prugoroztok</b>.</p><p>&#10060;</p><p>A válaszaitok <b>nem</b> egyeznek meg.</p>","null","","","","feedback trial","",""
"html-button-response-esp","31","239065","0.0-11.0-0.10","5381","János imád nyádozni, ezért sokat nyádlik. Ők ritkán...","1","nyádlanak","[""nyádoznak"",""nyádlanak""]","nyádlanak","esp trial","1","true"
"html-button-response","32","242589","0.0-11.0-1.10","null","<p>A másik játékos ezt választotta: <b>nyádlanak</b>.</p><p>&#x2705;</p><p>A te válaszod és a másik játékos válasza <b>megegyeznek</b>.</p>","null","","","","feedback trial","",""
"html-button-response-esp","33","249461","0.0-11.0-0.11","5285","János imád nyöbözni, ezért sokat nyöbzik. Ők ritkán...","1","nyöböznek","[""nyöbzenek"",""nyöböznek""]","nyöbzenek","esp trial","1","false"
"html-button-response","34","252976","0.0-11.0-1.11","null","<p>A másik játékos ezt választotta: <b>nyöbzenek</b>.</p><p>&#10060;</p><p>A válaszaitok <b>nem</b> egyeznek meg.</p>","null","","","","feedback trial","",""
"html-button-response-esp","35","259856","0.0-11.0-0.12","4413","János imád frélegezni, ezért sokat frélegzik. Mi ritkán...","0","frélegzünk","[""frélegzünk"",""frélegezünk""]","frélegzünk","esp trial","1","true"
"html-button-response","36","263392","0.0-11.0-1.12","null","<p>A másik játékos ezt választotta: <b>frélegzünk</b>.</p><p>&#x2705;</p><p>A te válaszod és a másik játékos válasza <b>megegyeznek</b>.</p>","null","","","","feedback trial","",""
"html-button-response-esp","37","270258","0.0-11.0-0.13","5933","János imád spuborozni, ezért sokat spuborzik. Ők ritkán...","1","spuborzanak","[""spuboroznak"",""spuborzanak""]","spuboroznak","esp trial","1","false"
"html-button-response","38","273776","0.0-11.0-1.13","null","<p>A másik játékos ezt választotta: <b>spuboroznak</b>.</p><p>&#10060;</p><p>A válaszaitok <b>nem</b> egyeznek meg.</p>","null","","","","feedback trial","",""
"html-button-response-esp","39","280644","0.0-11.0-0.14","3380","János imád bügözni, ezért sokat bügzik. Ők ritkán...","0","bügzenek","[""bügzenek"",""bügöznek""]","bügzenek","esp trial","1","true"
"html-button-response","40","284178","0.0-11.0-1.14","null","<p>A másik játékos ezt választotta: <b>bügzenek</b>.</p><p>&#x2705;</p><p>A te válaszod és a másik játékos válasza <b>megegyeznek</b>.</p>","null","","","","feedback trial","",""
"html-button-response-esp","41","299720","0.0-11.0-0.15","15028","János imád brűközni, ezért sokat brűklik. Ti ritkán...","1","brűklötök","[""brűköztök"",""brűklötök""]","brűklötök","esp trial","1","true"
"html-button-response","42","303239","0.0-11.0-1.15","null","<p>A másik játékos ezt választotta: <b>brűklötök</b>.</p><p>&#x2705;</p><p>A te válaszod és a másik játékos válasza <b>megegyeznek</b>.</p>","null","","","","feedback trial","",""
"html-button-response-esp","43","310108","0.0-11.0-0.16","4290","János imád flodozni, ezért sokat flodlik. Ti ritkán...","1","flodlotok","[""flodoztok"",""flodlotok""]","flodoztok","esp trial","1","false"
"html-button-response","44","313634","0.0-11.0-1.16","null","<p>A másik játékos ezt választotta: <b>flodoztok</b>.</p><p>&#10060;</p><p>A válaszaitok <b>nem</b> egyeznek meg.</p>","null","","","","feedback trial","",""
"html-button-response-esp","45","320512","0.0-11.0-0.17","4051","János imád frorozni, ezért sokat frorlik. Ők ritkán...","1","froroznak","[""frorlanak"",""froroznak""]","frorlanak","esp trial","1","false"
"html-button-response","46","324036","0.0-11.0-1.17","null","<p>A másik játékos ezt választotta: <b>frorlanak</b>.</p><p>&#10060;</p><p>A válaszaitok <b>nem</b> egyeznek meg.</p>","null","","","","feedback trial","",""
"html-button-response-esp","47","330913","0.0-11.0-0.18","3309","János imád vihapodni, ezért sokat vihapszik. Mi ritkán...","0","vihapszunk","[""vihapszunk"",""vihapodunk""]","vihapszunk","esp trial","1","true"
"html-button-response","48","334445","0.0-11.0-1.18","null","<p>A másik játékos ezt választotta: <b>vihapszunk</b>.</p><p>&#x2705;</p><p>A te válaszod és a másik játékos válasza <b>megegyeznek</b>.</p>","null","","","","feedback trial","",""
"html-button-response-esp","49","341329","0.0-11.0-0.19","3674","János imád trukodni, ezért sokat trukszik. Ti ritkán...","0","trukszotok","[""trukszotok"",""trukodtok""]","trukszotok","esp trial","1","true"
"html-button-response","50","344857","0.0-11.0-1.19","null","<p>A másik játékos ezt választotta: <b>trukszotok</b>.</p><p>&#x2705;</p><p>A te válaszod és a másik játékos válasza <b>megegyeznek</b>.</p>","null","","","","feedback trial","",""
"html-button-response-esp","51","351738","0.0-11.0-0.20","4277","János imád trilekedni, ezért sokat trilekszik. Ti ritkán...","0","trilekszetek","[""trilekszetek"",""trilekedtek""]","trilekszetek","esp trial","1","true"
"html-button-response","52","355270","0.0-11.0-1.20","null","<p>A másik játékos ezt választotta: <b>trilekszetek</b>.</p><p>&#x2705;</p><p>A te válaszod és a másik játékos válasza <b>megegyeznek</b>.</p>","null","","","","feedback trial","",""
"html-button-response-esp","53","362143","0.0-11.0-0.21","5233","János imád flátozni, ezért sokat flátlik. Ti ritkán...","0","flátoztok","[""flátoztok"",""flátlotok""]","flátoztok","esp trial","1","true"
"html-button-response","54","365665","0.0-11.0-1.21","null","<p>A másik játékos ezt választotta: <b>flátoztok</b>.</p><p>&#x2705;</p><p>A te válaszod és a másik játékos válasza <b>megegyeznek</b>.</p>","null","","","","feedback trial","",""
"html-button-response-esp","55","372616","0.0-11.0-0.22","6434","János imád nyülöközni, ezért sokat nyülöklik. Ők ritkán...","0","nyülököznek","[""nyülököznek"",""nyülöklenek""]","nyülöklenek","esp trial","1","false"
"html-button-response","56","376128","0.0-11.0-1.22","null","<p>A másik játékos ezt választotta: <b>nyülöklenek</b>.</p><p>&#10060;</p><p>A válaszaitok <b>nem</b> egyeznek meg.</p>","null","","","","feedback trial","",""
"html-button-response-esp","57","383416","0.0-11.0-0.23","6772","János imád sűjözni, ezért sokat sűjlik. Mi ritkán...","0","sűjözünk","[""sűjözünk"",""sűjlünk""]","sűjlünk","esp trial","1","false"
"html-button-response","58","386953","0.0-11.0-1.23","null","<p>A másik játékos ezt választotta: <b>sűjlünk</b>.</p><p>&#10060;</p><p>A válaszaitok <b>nem</b> egyeznek meg.</p>","null","","","","feedback trial","",""
"html-button-response-esp","59","393832","0.0-11.0-0.24","3994","János imád jurozni, ezért sokat jurlik. Mi ritkán...","1","jurlunk","[""jurozunk"",""jurlunk""]","jurlunk","esp trial","1","true"
"html-button-response","60","397350","0.0-11.0-1.24","null","<p>A másik játékos ezt választotta: <b>jurlunk</b>.</p><p>&#x2705;</p><p>A te válaszod és a másik játékos válasza <b>megegyeznek</b>.</p>","null","","","","feedback trial","",""
"html-button-response-esp","61","407865","0.0-11.0-0.25","10001","János imád dibágozni, ezért sokat dibáglik. Ti ritkán...","0","dibáglotok","[""dibáglotok"",""dibágoztok""]","dibáglotok","esp trial","1","true"
"html-button-response","62","411392","0.0-11.0-1.25","null","<p>A másik játékos ezt választotta: <b>dibáglotok</b>.</p><p>&#x2705;</p><p>A te válaszod és a másik játékos válasza <b>megegyeznek</b>.</p>","null","","","","feedback trial","",""
"html-button-response-esp","63","418281","0.0-11.0-0.26","5510","János imád pibegezni, ezért sokat pibegzik. Ők ritkán...","1","pibegeznek","[""pibegzenek"",""pibegeznek""]","pibegeznek","esp trial","1","true"
"html-button-response","64","421807","0.0-11.0-1.26","null","<p>A másik játékos ezt választotta: <b>pibegeznek</b>.</p><p>&#x2705;</p><p>A te válaszod és a másik játékos válasza <b>megegyeznek</b>.</p>","null","","","","feedback trial","",""
"html-button-response-esp","65","428683","0.0-11.0-0.27","5267","János imád metégedni, ezért sokat metégszik. Ők ritkán...","1","metégednek","[""metégszenek"",""metégednek""]","metégszenek","esp trial","1","false"
"html-button-response","66","432202","0.0-11.0-1.27","null","<p>A másik játékos ezt választotta: <b>metégszenek</b>.</p><p>&#10060;</p><p>A válaszaitok <b>nem</b> egyeznek meg.</p>","null","","","","feedback trial","",""
"html-button-response-esp","67","439075","0.0-11.0-0.28","3634","János imád bribékedni, ezért sokat bribékszik. Ti ritkán...","0","bribékszetek","[""bribékszetek"",""bribékedtek""]","bribékszetek","esp trial","1","true"
"html-button-response","68","442597","0.0-11.0-1.28","null","<p>A másik játékos ezt választotta: <b>bribékszetek</b>.</p><p>&#x2705;</p><p>A te válaszod és a másik játékos válasza <b>megegyeznek</b>.</p>","null","","","","feedback trial","",""
"html-button-response-esp","69","449472","0.0-11.0-0.29","3083","János imád ribegedni, ezért sokat ribegszik. Ti ritkán...","1","ribegedtek","[""ribegszetek"",""ribegedtek""]","ribegedtek","esp trial","1","true"
"html-button-response","70","453001","0.0-11.0-1.29","null","<p>A másik játékos ezt választotta: <b>ribegedtek</b>.</p><p>&#x2705;</p><p>A te válaszod és a másik játékos válasza <b>megegyeznek</b>.</p>","null","","","","feedback trial","",""
"html-button-response-esp","71","459883","0.0-11.0-0.30","2515","János imád klűmözni, ezért sokat klűmlik. Ti ritkán...","0","klűmlötök","[""klűmlötök"",""klűmöztök""]","klűmöztök","esp trial","1","false"
"html-button-response","72","463407","0.0-11.0-1.30","null","<p>A másik játékos ezt választotta: <b>klűmöztök</b>.</p><p>&#10060;</p><p>A válaszaitok <b>nem</b> egyeznek meg.</p>","null","","","","feedback trial","",""
"html-button-response-esp","73","470281","0.0-11.0-0.31","4192","János imád nurokozni, ezért sokat nuroklik. Mi ritkán...","1","nurokozunk","[""nuroklunk"",""nurokozunk""]","nuroklunk","esp trial","1","false"
"html-button-response","74","473806","0.0-11.0-1.31","null","<p>A másik játékos ezt választotta: <b>nuroklunk</b>.</p><p>&#10060;</p><p>A válaszaitok <b>nem</b> egyeznek meg.</p>","null","","","","feedback trial","",""
"html-button-response-esp","75","480666","0.0-11.0-0.32","3948","János imád kláragodni, ezért sokat kláragszik. Ti ritkán...","0","kláragszotok","[""kláragszotok"",""kláragodtok""]","kláragszotok","esp trial","1","true"
"html-button-response","76","484203","0.0-11.0-1.32","null","<p>A másik játékos ezt választotta: <b>kláragszotok</b>.</p><p>&#x2705;</p><p>A te válaszod és a másik játékos válasza <b>megegyeznek</b>.</p>","null","","","","feedback trial","",""
"html-button-response-esp","77","491183","0.0-11.0-0.33","6464","János imád döjözni, ezért sokat döjlik. Ők ritkán...","0","döjöznek","[""döjöznek"",""döjlenek""]","döjlenek","esp trial","1","false"
"html-button-response","78","494707","0.0-11.0-1.33","null","<p>A másik játékos ezt választotta: <b>döjlenek</b>.</p><p>&#10060;</p><p>A válaszaitok <b>nem</b> egyeznek meg.</p>","null","","","","feedback trial","",""
"html-button-response-esp","79","501587","0.0-11.0-0.34","5489","János imád frinyozni, ezért sokat frinylik. Mi ritkán...","0","frinyozunk","[""frinyozunk"",""frinylunk""]","frinylunk","esp trial","1","false"
"html-button-response","80","505116","0.0-11.0-1.34","null","<p>A másik játékos ezt választotta: <b>frinylunk</b>.</p><p>&#10060;</p><p>A válaszaitok <b>nem</b> egyeznek meg.</p>","null","","","","feedback trial","",""
"html-button-response-esp","81","511989","0.0-11.0-0.35","4311","János imád játozni, ezért sokat játlik. Mi ritkán...","0","játlunk","[""játlunk"",""játozunk""]","játlunk","esp trial","1","true"
"html-button-response","82","515510","0.0-11.0-1.35","null","<p>A másik játékos ezt választotta: <b>játlunk</b>.</p><p>&#x2705;</p><p>A te válaszod és a másik játékos válasza <b>megegyeznek</b>.</p>","null","","","","feedback trial","",""
"html-button-response-esp","83","522390","0.0-11.0-0.36","3174","János imád bresezni, ezért sokat breslik. Ők ritkán...","1","breslenek","[""breseznek"",""breslenek""]","breslenek","esp trial","1","true"
"html-button-response","84","525903","0.0-11.0-1.36","null","<p>A másik játékos ezt választotta: <b>breslenek</b>.</p><p>&#x2705;</p><p>A te válaszod és a másik játékos válasza <b>megegyeznek</b>.</p>","null","","","","feedback trial","",""
"html-button-response-esp","85","532779","0.0-11.0-0.37","2969","János imád flerékedni, ezért sokat flerékszik. Mi ritkán...","1","flerékszünk","[""flerékedünk"",""flerékszünk""]","flerékszünk","esp trial","1","true"
"html-button-response","86","536312","0.0-11.0-1.37","null","<p>A másik játékos ezt választotta: <b>flerékszünk</b>.</p><p>&#x2705;</p><p>A te válaszod és a másik játékos válasza <b>megegyeznek</b>.</p>","null","","","","feedback trial","",""
"html-button-response-esp","87","543193","0.0-11.0-0.38","4944","János imád trálakozni, ezért sokat trálaklik. Ők ritkán...","0","trálaklanak","[""trálaklanak"",""trálakoznak""]","trálaklanak","esp trial","1","true"
"html-button-response","88","546728","0.0-11.0-1.38","null","<p>A másik játékos ezt választotta: <b>trálaklanak</b>.</p><p>&#x2705;</p><p>A te válaszod és a másik játékos válasza <b>megegyeznek</b>.</p>","null","","","","feedback trial","",""
"html-button-response-esp","89","553600","0.0-11.0-0.39","4309","János imád prihegedni, ezért sokat prihegszik. Ők ritkán...","1","prihegszenek","[""prihegednek"",""prihegszenek""]","prihegszenek","esp trial","1","true"
"html-button-response","90","557117","0.0-11.0-1.39","null","<p>A másik játékos ezt választotta: <b>prihegszenek</b>.</p><p>&#x2705;</p><p>A te válaszod és a másik játékos válasza <b>megegyeznek</b>.</p>","null","","","","feedback trial","",""
"html-button-response-esp","91","563995","0.0-11.0-0.40","2935","János imád bejezni, ezért sokat bejzik. Mi ritkán...","0","bejzünk","[""bejzünk"",""bejezünk""]","bejzünk","esp trial","1","true"
"html-button-response","92","567527","0.0-11.0-1.40","null","<p>A másik játékos ezt választotta: <b>bejzünk</b>.</p><p>&#x2705;</p><p>A te válaszod és a másik játékos válasza <b>megegyeznek</b>.</p>","null","","","","feedback trial","",""
"html-button-response-esp","93","574403","0.0-11.0-0.41","4829","János imád géregezni, ezért sokat géreglik. Ti ritkán...","1","géregletek","[""géregeztek"",""géregletek""]","géregeztek","esp trial","1","false"
"html-button-response","94","577933","0.0-11.0-1.41","null","<p>A másik játékos ezt választotta: <b>géregeztek</b>.</p><p>&#10060;</p><p>A válaszaitok <b>nem</b> egyeznek meg.</p>","null","","","","feedback trial","",""
"html-button-response-esp","95","584804","0.0-11.0-0.42","3189","János imád brürözni, ezért sokat brürzik. Ők ritkán...","0","brürzenek","[""brürzenek"",""brüröznek""]","brürzenek","esp trial","1","true"
"html-button-response","96","588329","0.0-11.0-1.42","null","<p>A másik játékos ezt választotta: <b>brürzenek</b>.</p><p>&#x2705;</p><p>A te válaszod és a másik játékos válasza <b>megegyeznek</b>.</p>","null","","","","feedback trial","",""
"html-button-response-esp","97","595217","0.0-11.0-0.43","5258","János imád trálodni, ezért sokat trálszik. Mi ritkán...","1","trálodunk","[""trálszunk"",""trálodunk""]","trálszunk","esp trial","1","false"
"html-button-response","98","598745","0.0-11.0-1.43","null","<p>A másik játékos ezt választotta: <b>trálszunk</b>.</p><p>&#10060;</p><p>A válaszaitok <b>nem</b> egyeznek meg.</p>","null","","","","feedback trial","",""
"html-button-response-esp","99","605619","0.0-11.0-0.44","3663","János imád frirozni, ezért sokat frirzik. Mi ritkán...","0","frirzunk","[""frirzunk"",""frirozunk""]","frirozunk","esp trial","1","false"
"html-button-response","100","609131","0.0-11.0-1.44","null","<p>A másik játékos ezt választotta: <b>frirozunk</b>.</p><p>&#10060;</p><p>A válaszaitok <b>nem</b> egyeznek meg.</p>","null","","","","feedback trial","",""
"html-button-response-esp","101","616009","0.0-11.0-0.45","2444","János imád vehékedni, ezért sokat vehékszik. Mi ritkán...","0","vehékszünk","[""vehékszünk"",""vehékedünk""]","vehékszünk","esp trial","1","true"
"html-button-response","102","619535","0.0-11.0-1.45","null","<p>A másik játékos ezt választotta: <b>vehékszünk</b>.</p><p>&#x2705;</p><p>A te válaszod és a másik játékos válasza <b>megegyeznek</b>.</p>","null","","","","feedback trial","",""
"html-button-response-esp","103","626420","0.0-11.0-0.46","2327","János imád flugonyozni, ezért sokat flugonylik. Ők ritkán...","0","flugonylanak","[""flugonylanak"",""flugonyoznak""]","flugonylanak","esp trial","1","true"
"html-button-response","104","629949","0.0-11.0-1.46","null","<p>A másik játékos ezt választotta: <b>flugonylanak</b>.</p><p>&#x2705;</p><p>A te válaszod és a másik játékos válasza <b>megegyeznek</b>.</p>","null","","","","feedback trial","",""
"html-button-response-esp","105","636803","0.0-11.0-0.47","4548","János imád sprebezni, ezért sokat sprebzik. Ők ritkán...","0","sprebzenek","[""sprebzenek"",""sprebeznek""]","sprebzenek","esp trial","1","true"
"html-button-response","106","640336","0.0-11.0-1.47","null","<p>A másik játékos ezt választotta: <b>sprebzenek</b>.</p><p>&#x2705;</p><p>A te válaszod és a másik játékos válasza <b>megegyeznek</b>.</p>","null","","","","feedback trial","",""
"html-button-response-esp","107","647211","0.0-11.0-0.48","6162","János imád nivározni, ezért sokat nivárzik. Ti ritkán...","1","nivárzotok","[""nivároztok"",""nivárzotok""]","nivároztok","esp trial","1","false"
"html-button-response","108","650731","0.0-11.0-1.48","null","<p>A másik játékos ezt választotta: <b>nivároztok</b>.</p><p>&#10060;</p><p>A válaszaitok <b>nem</b> egyeznek meg.</p>","null","","","","feedback trial","",""
"html-button-response-esp","109","657603","0.0-11.0-0.49","2176","János imád bribasozni, ezért sokat bribaslik. Ők ritkán...","0","bribasoznak","[""bribasoznak"",""bribaslanak""]","bribasoznak","esp trial","1","true"
"html-button-response","110","661127","0.0-11.0-1.49","null","<p>A másik játékos ezt választotta: <b>bribasoznak</b>.</p><p>&#x2705;</p><p>A te válaszod és a másik játékos válasza <b>megegyeznek</b>.</p>","null","","","","feedback trial","",""
"html-button-response-esp","111","667998","0.0-11.0-0.50","1413","János imád hiragozni, ezért sokat hiragzik. Ők ritkán...","1","hiragzanak","[""hiragoznak"",""hiragzanak""]","hiragzanak","esp trial","1","true"
"html-button-response","112","671515","0.0-11.0-1.50","null","<p>A másik játékos ezt választotta: <b>hiragzanak</b>.</p><p>&#x2705;</p><p>A te válaszod és a másik játékos válasza <b>megegyeznek</b>.</p>","null","","","","feedback trial","",""
"html-button-response-esp","113","678392","0.0-11.0-0.51","3249","János imád bötőrözni, ezért sokat bötőrzik. Mi ritkán...","1","bötőrzünk","[""bötőrözünk"",""bötőrzünk""]","bötőrzünk","esp trial","1","true"
"html-button-response","114","681907","0.0-11.0-1.51","null","<p>A másik játékos ezt választotta: <b>bötőrzünk</b>.</p><p>&#x2705;</p><p>A te válaszod és a másik játékos válasza <b>megegyeznek</b>.</p>","null","","","","feedback trial","",""
"html-button-response-esp","115","688782","0.0-11.0-0.52","3227","János imád spivejezni, ezért sokat spivejlik. Ők ritkán...","1","spivejlenek","[""spivejeznek"",""spivejlenek""]","spivejeznek","esp trial","1","false"
"html-button-response","116","692310","0.0-11.0-1.52","null","<p>A másik játékos ezt választotta: <b>spivejeznek</b>.</p><p>&#10060;</p><p>A válaszaitok <b>nem</b> egyeznek meg.</p>","null","","","","feedback trial","",""
"html-button-response-esp","117","699173","0.0-11.0-0.53","2828","János imád plibozni, ezért sokat plibzik. Ti ritkán...","0","plibzotok","[""plibzotok"",""pliboztok""]","pliboztok","esp trial","1","false"
"html-button-response","118","702692","0.0-11.0-1.53","null","<p>A másik játékos ezt választotta: <b>pliboztok</b>.</p><p>&#10060;</p><p>A válaszaitok <b>nem</b> egyeznek meg.</p>","null","","","","feedback trial","",""
"html-button-response","119","711008","0.0-12.0","7801","<p>A közös játék most véget ért.</p><p>Mielőtt eláruljuk a végső pontszámodat, arra kérlek, játszd a szóválasztós játékot néhány percig egyedül is.</p><p>A feladatod ugyanaz lesz, választani két lehetőség közül.</p><p>Most viszont egyedül kell döntened, hogy te melyiket választanád.</p>","0","","","","","",""
"html-button-response-clever","120","716304","0.0-13.0-0.0","4784","János imád flöközni, ezért sokat flöklik. Ti ritkán...","0","flöklötök","[""flöklötök"",""flököztök""]","","posttest trial","4",""
"html-button-response-clever","121","720288","0.0-13.0-0.1","3465","János imád spügözni, ezért sokat spügzik. Mi ritkán...","0","spügzünk","[""spügzünk"",""spügözünk""]","","posttest trial","4",""
"html-button-response-clever","122","724232","0.0-13.0-0.2","3422","János imád nyürözni, ezért sokat nyürzik. Ők ritkán...","1","nyüröznek","[""nyürzenek"",""nyüröznek""]","","posttest trial","4",""
"html-button-response-clever","123","730640","0.0-13.0-0.3","5892","János imád dujozni, ezért sokat dujzik. Ők ritkán...","0","dujzanak","[""dujzanak"",""dujoznak""]","","posttest trial","4",""
"html-button-response-clever","124","734776","0.0-13.0-0.4","3624","János imád dárakodni, ezért sokat dárakszik. Mi ritkán...","1","dárakodunk","[""dárakszunk"",""dárakodunk""]","","posttest trial","4",""
"html-button-response-clever","125","740744","0.0-13.0-0.5","5463","János imád lűközni, ezért sokat lűklik. Ők ritkán...","0","lűklenek","[""lűklenek"",""lűköznek""]","","posttest trial","4",""
"html-button-response-clever","126","745592","0.0-13.0-0.6","4327","János imád trivakodni, ezért sokat trivakszik. Mi ritkán...","1","trivakodunk","[""trivakszunk"",""trivakodunk""]","","posttest trial","4",""
"html-button-response-clever","127","750720","0.0-13.0-0.7","4620","János imád kűdözni, ezért sokat kűdlik. Ők ritkán...","0","kűdöznek","[""kűdöznek"",""kűdlenek""]","","posttest trial","4",""
"html-button-response-clever","128","759096","0.0-13.0-0.8","7868","János imád spirágozni, ezért sokat spiráglik. Ti ritkán...","1","spirágoztok","[""spiráglotok"",""spirágoztok""]","","posttest trial","4",""
"html-button-response-clever","129","767239","0.0-13.0-0.9","7630","János imád föködni, ezért sokat fökszik. Ők ritkán...","1","föködnek","[""fökszenek"",""föködnek""]","","posttest trial","4",""
"html-button-response-clever","130","773943","0.0-13.0-0.10","6192","János imád bratározni, ezért sokat bratárzik. Ők ritkán...","0","bratároznak","[""bratároznak"",""bratárzanak""]","","posttest trial","4",""
"html-button-response-clever","131","779719","0.0-13.0-0.11","5257","János imád gyihegezni, ezért sokat gyihegzik. Ti ritkán...","0","gyihegeztek","[""gyihegeztek"",""gyihegzetek""]","","posttest trial","4",""
"html-button-response-clever","132","785239","0.0-13.0-0.12","5008","János imád brülösözni, ezért sokat brülöslik. Mi ritkán...","1","brülöslünk","[""brülösözünk"",""brülöslünk""]","","posttest trial","4",""
"html-button-response-clever","133","789591","0.0-13.0-0.13","3839","János imád brözözni, ezért sokat brözlik. Ti ritkán...","1","brözöztök","[""brözlötök"",""brözöztök""]","","posttest trial","4",""
"html-button-response-clever","134","793839","0.0-13.0-0.14","3738","János imád trugozni, ezért sokat trugzik. Ők ritkán...","1","trugoznak","[""trugzanak"",""trugoznak""]","","posttest trial","4",""
"html-button-response-clever","135","798151","0.0-13.0-0.15","3790","János imád flemezni, ezért sokat flemlik. Mi ritkán...","0","flemlünk","[""flemlünk"",""flemezünk""]","","posttest trial","4",""
"html-button-response-clever","136","802695","0.0-13.0-0.16","4034","János imád posozni, ezért sokat poslik. Ti ritkán...","0","poslotok","[""poslotok"",""posoztok""]","","posttest trial","4",""
"html-button-response-clever","137","808967","0.0-13.0-0.17","5749","János imád drűrözni, ezért sokat drűrzik. Ők ritkán...","0","drűröznek","[""drűröznek"",""drűrzenek""]","","posttest trial","4",""
"html-button-response-clever","138","814199","0.0-13.0-0.18","4709","János imád dirozni, ezért sokat dirlik. Ti ritkán...","0","dirlotok","[""dirlotok"",""diroztok""]","","posttest trial","4",""
"html-button-response-clever","139","820319","0.0-13.0-0.19","5606","János imád nyivágozni, ezért sokat nyivágzik. Mi ritkán...","0","nyivágozunk","[""nyivágozunk"",""nyivágzunk""]","","posttest trial","4",""
"html-button-response-clever","140","826720","0.0-13.0-0.20","5884","János imád fröjözni, ezért sokat fröjzik. Ti ritkán...","0","fröjöztök","[""fröjöztök"",""fröjzötök""]","","posttest trial","4",""
"html-button-response-clever","141","834447","0.0-13.0-0.21","7216","János imád sprűrözni, ezért sokat sprűrlik. Ők ritkán...","0","sprűröznek","[""sprűröznek"",""sprűrlenek""]","","posttest trial","4",""
"html-button-response-clever","142","841928","0.0-13.0-0.22","6958","János imád klehényezni, ezért sokat klehénylik. Ti ritkán...","1","klehényeztek","[""klehényletek"",""klehényeztek""]","","posttest trial","4",""
"html-button-response-clever","143","849680","0.0-13.0-0.23","7244","János imád köszözni, ezért sokat köszlik. Ti ritkán...","1","köszlötök","[""köszöztök"",""köszlötök""]","","posttest trial","4",""
"html-button-response-clever","144","855296","0.0-13.0-0.24","5104","János imád csibagozni, ezért sokat csibagzik. Ti ritkán...","1","csibagoztok","[""csibagzotok"",""csibagoztok""]","","posttest trial","4",""
"html-button-response-clever","145","860528","0.0-13.0-0.25","4715","János imád trugokozni, ezért sokat trugoklik. Ők ritkán...","1","trugoklanak","[""trugokoznak"",""trugoklanak""]","","posttest trial","4",""
"html-button-response-clever","146","867056","0.0-13.0-0.26","6004","János imád spiharozni, ezért sokat spiharzik. Ti ritkán...","0","spiharoztok","[""spiharoztok"",""spiharzotok""]","","posttest trial","4",""
"html-button-response-clever","147","873848","0.0-13.0-0.27","6281","János imád molodni, ezért sokat molszik. Ti ritkán...","0","molszotok","[""molszotok"",""molodtok""]","","posttest trial","4",""
"html-button-response-clever","148","878967","0.0-13.0-0.28","4601","János imád pilégedni, ezért sokat pilégszik. Ők ritkán...","1","pilégednek","[""pilégszenek"",""pilégednek""]","","posttest trial","4",""
"html-button-response-clever","149","885880","0.0-13.0-0.29","6393","János imád sprudozni, ezért sokat sprudlik. Mi ritkán...","1","sprudlunk","[""sprudozunk"",""sprudlunk""]","","posttest trial","4",""
"html-button-response-clever","150","890744","0.0-13.0-0.30","4352","János imád trikozni, ezért sokat triklik. Ti ritkán...","1","trikoztok","[""triklotok"",""trikoztok""]","","posttest trial","4",""
"html-button-response-clever","151","897071","0.0-13.0-0.31","5820","János imád virozni, ezért sokat virzik. Ők ritkán...","0","viroznak","[""viroznak"",""virzanak""]","","posttest trial","4",""
"html-button-response-clever","152","905847","0.0-13.0-0.32","8262","János imád gihejezni, ezért sokat gihejlik. Mi ritkán...","0","gihejlünk","[""gihejlünk"",""gihejezünk""]","","posttest trial","4",""
"html-button-response-clever","153","913112","0.0-13.0-0.33","6743","János imád drilarozni, ezért sokat drilarzik. Mi ritkán...","0","drilarzunk","[""drilarzunk"",""drilarozunk""]","","posttest trial","4",""
"html-button-response-clever","154","917679","0.0-13.0-0.34","4060","János imád mágamozni, ezért sokat mágamlik. Mi ritkán...","1","mágamlunk","[""mágamozunk"",""mágamlunk""]","","posttest trial","4",""
"html-button-response-clever","155","921695","0.0-13.0-0.35","3497","János imád privékedni, ezért sokat privékszik. Ők ritkán...","1","privékednek","[""privékszenek"",""privékednek""]","","posttest trial","4",""
"html-button-response-clever","156","929903","0.0-13.0-0.36","7693","János imád lájozni, ezért sokat lájzik. Ti ritkán...","1","lájzotok","[""lájoztok"",""lájzotok""]","","posttest trial","4",""
"html-button-response-clever","157","934319","0.0-13.0-0.37","3898","János imád frálasozni, ezért sokat frálaslik. Ők ritkán...","0","frálasoznak","[""frálasoznak"",""frálaslanak""]","","posttest trial","4",""
"html-button-response-clever","158","941071","0.0-13.0-0.38","6240","János imád brivakozni, ezért sokat brivaklik. Ti ritkán...","1","brivaklotok","[""brivakoztok"",""brivaklotok""]","","posttest trial","4",""
"html-button-response-clever","159","949087","0.0-13.0-0.39","7504","János imád dilakozni, ezért sokat dilaklik. Ti ritkán...","1","dilakoztok","[""dilaklotok"",""dilakoztok""]","","posttest trial","4",""
"html-button-response-clever","160","952327","0.0-13.0-0.40","2725","János imád frakozni, ezért sokat fraklik. Mi ritkán...","0","frakozunk","[""frakozunk"",""fraklunk""]","","posttest trial","4",""
"html-button-response-clever","161","956127","0.0-13.0-0.41","3289","János imád sprozozni, ezért sokat sprozlik. Ők ritkán...","1","sprozlanak","[""sprozoznak"",""sprozlanak""]","","posttest trial","4",""
"html-button-response-clever","162","958703","0.0-13.0-0.42","2053","János imád mülőrözni, ezért sokat mülőrzik. Mi ritkán...","1","mülőrözünk","[""mülőrzünk"",""mülőrözünk""]","","posttest trial","4",""
"html-button-response-clever","163","962759","0.0-13.0-0.43","3548","János imád prélemezni, ezért sokat prélemlik. Ők ritkán...","1","prélemlenek","[""prélemeznek"",""prélemlenek""]","","posttest trial","4",""
"html-button-response-clever","164","967207","0.0-13.0-0.44","3930","János imád csubozni, ezért sokat csubzik. Mi ritkán...","1","csubozunk","[""csubzunk"",""csubozunk""]","","posttest trial","4",""
"html-button-response-clever","165","973952","0.0-13.0-0.45","6223","János imád prögözni, ezért sokat prögzik. Ti ritkán...","1","prögöztök","[""prögzötök"",""prögöztök""]","","posttest trial","4",""
"html-button-response-clever","166","979207","0.0-13.0-0.46","4742","János imád frálapodni, ezért sokat frálapszik. Ti ritkán...","1","frálapodtok","[""frálapszotok"",""frálapodtok""]","","posttest trial","4",""
"html-button-response-clever","167","981991","0.0-13.0-0.47","2265","János imád spibegezni, ezért sokat spibeglik. Mi ritkán...","0","spibeglünk","[""spibeglünk"",""spibegezünk""]","","posttest trial","4",""
"html-button-response-clever","168","988695","0.0-13.0-0.48","6190","János imád pragányozni, ezért sokat pragánylik. Ti ritkán...","0","pragánylotok","[""pragánylotok"",""pragányoztok""]","","posttest trial","4",""
"html-button-response-clever","169","994391","0.0-13.0-0.49","5178","János imád branyozni, ezért sokat branylik. Ők ritkán...","0","branyoznak","[""branyoznak"",""branylanak""]","","posttest trial","4",""
"html-button-response-clever","170","997903","0.0-13.0-0.50","2996","János imád flűgözni, ezért sokat flűgzik. Mi ritkán...","0","flűgözünk","[""flűgözünk"",""flűgzünk""]","","posttest trial","4",""
"html-button-response-clever","171","1003814","0.0-13.0-0.51","5389","János imád flüröközni, ezért sokat flüröklik. Ti ritkán...","1","flüröklötök","[""flürököztök"",""flüröklötök""]","","posttest trial","4",""
"html-button-response-clever","172","1008863","0.0-13.0-0.52","4539","János imád püzözni, ezért sokat püzlik. Ti ritkán...","1","püzöztök","[""püzlötök"",""püzöztök""]","","posttest trial","4",""
"html-button-response-clever","173","1012992","0.0-13.0-0.53","3619","János imád dabozni, ezért sokat dabzik. Ti ritkán...","1","daboztok","[""dabzotok"",""daboztok""]","","posttest trial","4",""
"html-button-response","174","1017656","0.0-14.0","4155","<p> Vége a játéknak. A teljes pontszámod 33/54.</p><p> Szép munka! &#128526;&#128526;&#128526;</p><p>A Befejezés gomb megnyomása után bezárhatod a böngészőablakot.</p>","0","","","","","",""
"html-keyboard-response","175","1023168","0.0-15.0","null","<div class=""message"">
         <p>Egy kis türelmet kérünk, amíg elmentjük az adatokat...</p>
         </div>","null","","","","","",""
