"trial_type","trial_index","time_elapsed","internal_node_id","rt","stimulus","response","response_string","choices","esp_response","trial_kind","list_number","esp_match"
"pavlovia","0","288","0.0-0.0","","","","","","","","",""
"html-button-response","1","5234","0.0-1.0","4945","<p>Kedves Résztvevő! A Budapesti Műszaki és Gazdaságtudományi Egyetem Kognitív Tudományi Tanszékének kutatásában való részvételed kérjük. A kutatásban azt vizsgáljuk, hogy a magyar anyanyelvűek hogyan használnak bizonyos szóalakokat, és hogy milyen képük van arról, hogy mások hogyan használják, hogyan képzik a szavakat. Ez hozzásegít bennünket ahhoz, hogy jobban megértsük, hogyan dolgozza fel és tárolja a nyelvet az emberi agy, és hogyan működnek, hogyan változnak egy adott közösség nyelvi konvenciói.</p><p>A vizsgálat egy rövid számítógépes feladatból fog állni. A kutatásban való részvétel önkéntes, a részvételi szándék bármikor visszavonható. A résztvevők eredményeit név nélkül kezeljük, így nem beazonosíthatók az adatok feldolgozása során. Minden személyes adatot az EU általános adatvédelmi rendeletének (GDPR) megfelelően kezelünk és legfeljebb öt éven belül megsemmisítünk. A vizsgálat jellemzően húsz percet vesz igénybe.</p><p>Kutatásvezető:</p><p>Dr. Rácz Péter, tudományos munkatárs, BME KTT</p><p>e-mail: racz.peter.marton@ttk.bme.hu</p>","0","","","","","",""
"html-button-response","2","7643","0.0-2.0","2408","<p>A kísérletben szavakat fogsz látni. Ezek között lesznek olyanok, amelyeket ismersz, de előfordulhatnak olyanok is, amelyeket nem ismersz, sőt, vannak köztük kitalált szavak is. Minden szónál látni fogsz toldalékolt alakokat. A te feladatod az lesz, hogy minden szóhoz kiválaszd azt a toldalékolt alakot, amely a te számodra ismerősebben, természetesebben hangzik. Rossz válaszok nincsenek, mert van olyan, hogy különböző embereknek más és más szó tűnik jobb választásnak. A választ úgy tudod majd kiválasztani, ha rákattintasz.</p><p>Ebben a szóválasztós játékban egy másik játékossal együtt veszel majd részt. A másik játékos is minden esetben azok közül a lehetőségek közül válogathat, mint te. Kettőtök feladata az, hogy ugyanazt a lehetőséget válasszátok minden esetben. Ahhoz, hogy ez sikerüljön, neked figyelned kell arra, hogy a másik játékos milyen válaszokat ad, és ennek alapján meg kell tippelned, hogyan választ legközelebb. Ha eltalálod, akkor pontot kapsz.</p>","0","","","","","",""
"html-button-response","3","9596","0.0-3.0","1951","<p>Kérjük, olvasd el az alábbi nyilatkozatot, és amennyiben egyetértesz vele, nyomj a Beleegyezés gombra!</p><p>Kijelentem, hogy magyar anyanyelvű személyként önként veszek részt a BME KTT kísérletében. A kutatás céljával és folyamatával kapcsolatban elegendő tájékoztatást kaptam, lehetőségem volt kérdések feltételére, és esetleges kérdéseimre megfelelő válaszokat kaptam. A tájékoztatás alapján elegendő mennyiségű információ áll a rendelkezésemre, hogy eldönthessem, részt kívánok-e venni a kutatásban.</p><p>Tisztában vagyok vele, hogy részvételi szándékomat és adataimat bármikor, indoklás nélkül visszavonhatom.</p><p>Értem és tudomásul veszem, hogy a kutatás tudományos célokat szolgál, és az általam szolgáltatott adatokat a BME kizárólag kutatási célból használja fel. Tudomásul veszem, hogy eredményeimet a többi résztvevő eredményeivel együtt kezelik, így egyéni teljesítményemről visszajelzést, szakvéleményt nem kapok.</p><p>Megértettem, hogy adataim kezelését illetően a BME az EU általános adatvédelmi rendelete (GDPR), a hatályos adatvédelmi törvény és a nemzetközi kutatás-etikai alapelvek szerint jár el. Eredményeim anonim módon kerülnek feldolgozásra, és a kutatás résztvevői az azonosításomra alkalmas adataimat harmadik félnek nem szolgáltatják ki. Engedélyezem a BME számára a jelen kutatásban felvett adataim feldolgozását és tárolását, beleértve azok későbbi kutatásokhoz való felhasználását is. Személyes adataim kezelésével kapcsolatban tájékoztatást kérhetek a kutatás résztvevőitől, az adatkezelés ellen tiltakozhatok, kérhetem személyes adataim helyesbítését, törlését vagy zárolását, valamint jogorvoslatért a Nemzeti Adatvédelmi és Információszabadság Hatósághoz fordulhatok.</p><p>Kijelentem, hogy a kutatásban való részvételem körülményeiről részletes tájékoztatást kaptam, és a feltételeket elfogadom.</p>","0","","","","","",""
"survey-text","4","15868","0.0-4.0","6270","","{""Q0"":""petikevagyok"",""Q1"":"""",""Q2"":"""",""Q3"":""""}","","","","","",""
"html-button-response","5","21981","0.0-5.0","6111","<p>Ebben a játékban szavakat kell toldalékolni.</p> <p>Minden körben mutatunk majd egy példamondatot, amiben lesz egy szó.</p> <p>Alatta jön egy második mondat, ezt a mondatot neked kell majd befejezni, ugyanezzel a szóval.</p> <p>Nem biztos, hogy a szó eleve ismerős lesz számodra!</p> <p>Minden mondathoz adunk két lehetőséget, ezeket balra és jobbra látod majd.</p> <p>A játék kb. negyedóráig-húsz percig tart.</p>","0","","","","","",""
"html-button-response","6","23476","0.0-6.0","1494","<p>Nézzünk egy példát!</p> <p>A példamondat: ""János nagyon szeret rancsúrozni.""</p><p>Neked ezt a mondatot kell befejezned: ""Én is szívesen...""</p><p>A lehetőségek pedig ezek:</p>","0","","","","","",""
"html-button-response","7","25599","0.0-7.0","2123","<p>Nagyon jó.</p><p>Ezt a játékot nem egyedül fogod játszani, hanem egy másik játékossal.</p><p>Mielőtt továbblépünk, összekapcsolunk titeket egymással.</p><p>Ez igénybe vehet néhány másodpercet, amihez szíves türelmed kérjük.</p>","0","","","","","",""
"html-button-response","8","29925","0.0-8.0","null","<p>Csatlakozás a másik játékoshoz...</p>","null","","","","","",""
"html-button-response","9","31926","0.0-9.0","null","<p> Sikeres kapcsolódás!</p>","null","","","","","",""
"html-button-response","10","33210","0.0-10.0","1283","<p>A következőkben ketten játsszátok a szóválasztós játékot.</p><p>A feladatotok az lesz, hogy minden körben <b>ugyanazt</b> a szót válasszátok.</p><p>Minden ilyen egyező válaszért pontot kaptok.</p><p>Sok sikert!</p>","0","","","","","",""
"html-button-response-esp","11","41101","0.0-11.0-0.0","3340","Te bizony sokat sojzol. Én is sokat...","1","sojzom","[""sojzok"",""sojzom""]","sojzok","esp trial","2","false"
"html-button-response","12","44104","0.0-11.0-1.0","null","<p>A másik játékos ezt választotta: <b>sojzok</b>.</p><p>A válaszaitok <b>nem</b> egyeznek meg. &#10060;</p>","null","","","","feedback trial","",""
"html-button-response-esp","13","51998","0.0-11.0-0.1","656","Te bizony sokat sztremlesz. Én is sokat...","0","sztremlem","[""sztremlem"",""sztremlek""]","sztremlem","esp trial","2","true"
"html-button-response","14","54999","0.0-11.0-1.1","null","<p>A másik játékos ezt választotta: <b>sztremlem</b>.</p><p>A te válaszod és a másik játékos válasza <b>megegyeznek</b>. &#x2705;</p>","null","","","","feedback trial","",""
"html-button-response-esp","15","62892","0.0-11.0-0.2","1703","Te bizony sokat flűröklesz. Én is sokat...","1","flűröklöm","[""flűröklök"",""flűröklöm""]","flűröklöm","esp trial","2","true"
"html-button-response","16","65897","0.0-11.0-1.2","null","<p>A másik játékos ezt választotta: <b>flűröklöm</b>.</p><p>A te válaszod és a másik játékos válasza <b>megegyeznek</b>. &#x2705;</p>","null","","","","feedback trial","",""
"html-button-response-esp","17","73792","0.0-11.0-0.3","1024","Te bizony sokat málapszol. Én is sokat...","1","málapszok","[""málapszom"",""málapszok""]","málapszom","esp trial","2","false"
"html-button-response","18","76794","0.0-11.0-1.3","null","<p>A másik játékos ezt választotta: <b>málapszom</b>.</p><p>A válaszaitok <b>nem</b> egyeznek meg. &#10060;</p>","null","","","","feedback trial","",""
"html-button-response-esp","19","84687","0.0-11.0-0.4","422","Te bizony sokat tiregzel. Én is sokat...","1","tiregzem","[""tiregzek"",""tiregzem""]","tiregzem","esp trial","2","true"
"html-button-response","20","87692","0.0-11.0-1.4","null","<p>A másik játékos ezt választotta: <b>tiregzem</b>.</p><p>A te válaszod és a másik játékos válasza <b>megegyeznek</b>. &#x2705;</p>","null","","","","feedback trial","",""
"html-button-response-esp","21","95583","0.0-11.0-0.5","1540","Te bizony sokat spűmlesz. Én is sokat...","1","spűmlök","[""spűmlöm"",""spűmlök""]","spűmlöm","esp trial","2","false"
"html-button-response","22","98586","0.0-11.0-1.5","null","<p>A másik játékos ezt választotta: <b>spűmlöm</b>.</p><p>A válaszaitok <b>nem</b> egyeznek meg. &#10060;</p>","null","","","","feedback trial","",""
"html-button-response-esp","23","106479","0.0-11.0-0.6","909","Te bizony sokat frilegszel. Én is sokat...","1","frilegszek","[""frilegszem"",""frilegszek""]","frilegszek","esp trial","2","true"
"html-button-response","24","109484","0.0-11.0-1.6","null","<p>A másik játékos ezt választotta: <b>frilegszek</b>.</p><p>A te válaszod és a másik játékos válasza <b>megegyeznek</b>. &#x2705;</p>","null","","","","feedback trial","",""
"html-button-response-esp","25","117378","0.0-11.0-0.7","16","Te bizony sokat prűrlesz. Én is sokat...","1","prűrlöm","[""prűrlök"",""prűrlöm""]","prűrlöm","esp trial","2","true"
"html-button-response","26","120379","0.0-11.0-1.7","null","<p>A másik játékos ezt választotta: <b>prűrlöm</b>.</p><p>A te válaszod és a másik játékos válasza <b>megegyeznek</b>. &#x2705;</p>","null","","","","feedback trial","",""
"html-button-response-esp","27","128273","0.0-11.0-0.8","732","Te bizony sokat trilszol. Én is sokat...","1","trilszok","[""trilszom"",""trilszok""]","trilszom","esp trial","2","false"
"html-button-response","28","131279","0.0-11.0-1.8","null","<p>A másik játékos ezt választotta: <b>trilszom</b>.</p><p>A válaszaitok <b>nem</b> egyeznek meg. &#10060;</p>","null","","","","feedback trial","",""
"html-button-response-esp","29","139174","0.0-11.0-0.9","845","Te bizony sokat prilegzel. Én is sokat...","1","prilegzek","[""prilegzem"",""prilegzek""]","prilegzek","esp trial","2","true"
"html-button-response","30","142176","0.0-11.0-1.9","null","<p>A másik játékos ezt választotta: <b>prilegzek</b>.</p><p>A te válaszod és a másik játékos válasza <b>megegyeznek</b>. &#x2705;</p>","null","","","","feedback trial","",""
"html-button-response-esp","31","150072","0.0-11.0-0.10","838","Te bizony sokat femlesz. Én is sokat...","1","femlek","[""femlem"",""femlek""]","femlem","esp trial","2","false"
"html-button-response","32","153075","0.0-11.0-1.10","null","<p>A másik játékos ezt választotta: <b>femlem</b>.</p><p>A válaszaitok <b>nem</b> egyeznek meg. &#10060;</p>","null","","","","feedback trial","",""
"html-button-response-esp","33","160968","0.0-11.0-0.11","524","Te bizony sokat brüjlesz. Én is sokat...","1","brüjlöm","[""brüjlök"",""brüjlöm""]","brüjlöm","esp trial","2","true"
"html-button-response","34","163973","0.0-11.0-1.11","null","<p>A másik játékos ezt választotta: <b>brüjlöm</b>.</p><p>A te válaszod és a másik játékos válasza <b>megegyeznek</b>. &#x2705;</p>","null","","","","feedback trial","",""
"html-button-response-esp","35","171867","0.0-11.0-0.12","1321","Te bizony sokat vilakszol. Én is sokat...","1","vilakszok","[""vilakszom"",""vilakszok""]","vilakszok","esp trial","2","true"
"html-button-response","36","174873","0.0-11.0-1.12","null","<p>A másik játékos ezt választotta: <b>vilakszok</b>.</p><p>A te válaszod és a másik játékos válasza <b>megegyeznek</b>. &#x2705;</p>","null","","","","feedback trial","",""
"html-button-response-esp","37","182765","0.0-11.0-0.13","2165","Te bizony sokat fibamlasz. Én is sokat...","1","fibamlom","[""fibamlok"",""fibamlom""]","fibamlom","esp trial","2","true"
"html-button-response","38","185767","0.0-11.0-1.13","null","<p>A másik játékos ezt választotta: <b>fibamlom</b>.</p><p>A te válaszod és a másik játékos válasza <b>megegyeznek</b>. &#x2705;</p>","null","","","","feedback trial","",""
"html-button-response-esp","39","194339","0.0-11.0-0.14","8571","Te bizony sokat ruslasz. Én is sokat...","1","ruslok","[""ruslom"",""ruslok""]","ruslom","esp trial","2","false"
"html-button-response","40","197340","0.0-11.0-1.14","null","<p>A másik játékos ezt választotta: <b>ruslom</b>.</p><p>A válaszaitok <b>nem</b> egyeznek meg. &#10060;</p>","null","","","","feedback trial","",""
"html-button-response-esp","41","205231","0.0-11.0-0.15","1338","Te bizony sokat flagárzol. Én is sokat...","1","flagárzom","[""flagárzok"",""flagárzom""]","flagárzom","esp trial","2","true"
"html-button-response","42","208236","0.0-11.0-1.15","null","<p>A másik játékos ezt választotta: <b>flagárzom</b>.</p><p>A te válaszod és a másik játékos válasza <b>megegyeznek</b>. &#x2705;</p>","null","","","","feedback trial","",""
"html-button-response-esp","43","216129","0.0-11.0-0.16","2830","Te bizony sokat pebzel. Én is sokat...","1","pebzem","[""pebzek"",""pebzem""]","pebzem","esp trial","2","true"
"html-button-response","44","219132","0.0-11.0-1.16","null","<p>A másik játékos ezt választotta: <b>pebzem</b>.</p><p>A te válaszod és a másik játékos válasza <b>megegyeznek</b>. &#x2705;</p>","null","","","","feedback trial","",""
"html-button-response-esp","45","227023","0.0-11.0-0.17","1725","Te bizony sokat klibamlasz. Én is sokat...","1","klibamlom","[""klibamlok"",""klibamlom""]","klibamlom","esp trial","2","true"
"html-button-response","46","230024","0.0-11.0-1.17","null","<p>A másik játékos ezt választotta: <b>klibamlom</b>.</p><p>A te válaszod és a másik játékos válasza <b>megegyeznek</b>. &#x2705;</p>","null","","","","feedback trial","",""
"html-button-response-esp","47","237915","0.0-11.0-0.18","742","Te bizony sokat tínylasz. Én is sokat...","1","tínylom","[""tínylok"",""tínylom""]","tínylom","esp trial","2","true"
"html-button-response","48","240918","0.0-11.0-1.18","null","<p>A másik játékos ezt választotta: <b>tínylom</b>.</p><p>A te válaszod és a másik játékos válasza <b>megegyeznek</b>. &#x2705;</p>","null","","","","feedback trial","",""
"html-button-response-esp","49","248809","0.0-11.0-0.19","526","Te bizony sokat pivegszel. Én is sokat...","1","pivegszek","[""pivegszem"",""pivegszek""]","pivegszek","esp trial","2","true"
"html-button-response","50","251811","0.0-11.0-1.19","null","<p>A másik játékos ezt választotta: <b>pivegszek</b>.</p><p>A te válaszod és a másik játékos válasza <b>megegyeznek</b>. &#x2705;</p>","null","","","","feedback trial","",""
"html-button-response-esp","51","259704","0.0-11.0-0.20","7171","Te bizony sokat herégszel. Én is sokat...","1","herégszek","[""herégszem"",""herégszek""]","herégszek","esp trial","2","true"
"html-button-response","52","262710","0.0-11.0-1.20","null","<p>A másik játékos ezt választotta: <b>herégszek</b>.</p><p>A te válaszod és a másik játékos válasza <b>megegyeznek</b>. &#x2705;</p>","null","","","","feedback trial","",""
"html-button-response-esp","53","270600","0.0-11.0-0.21","830","Te bizony sokat ribegzel. Én is sokat...","1","ribegzek","[""ribegzem"",""ribegzek""]","ribegzem","esp trial","2","false"
"html-button-response","54","273602","0.0-11.0-1.21","null","<p>A másik játékos ezt választotta: <b>ribegzem</b>.</p><p>A válaszaitok <b>nem</b> egyeznek meg. &#10060;</p>","null","","","","feedback trial","",""
"html-button-response-esp","55","281494","0.0-11.0-0.22","981","Te bizony sokat ribzol. Én is sokat...","1","ribzom","[""ribzok"",""ribzom""]","ribzok","esp trial","2","false"
"html-button-response","56","284496","0.0-11.0-1.22","null","<p>A másik játékos ezt választotta: <b>ribzok</b>.</p><p>A válaszaitok <b>nem</b> egyeznek meg. &#10060;</p>","null","","","","feedback trial","",""
"html-button-response-esp","57","292388","0.0-11.0-0.23","931","Te bizony sokat nyáslasz. Én is sokat...","1","nyáslok","[""nyáslom"",""nyáslok""]","nyáslom","esp trial","2","false"
"html-button-response","58","295389","0.0-11.0-1.23","null","<p>A másik játékos ezt választotta: <b>nyáslom</b>.</p><p>A válaszaitok <b>nem</b> egyeznek meg. &#10060;</p>","null","","","","feedback trial","",""
"html-button-response-esp","59","303284","0.0-11.0-0.24","452","Te bizony sokat tomlasz. Én is sokat...","1","tomlom","[""tomlok"",""tomlom""]","tomlom","esp trial","2","true"
"html-button-response","60","306287","0.0-11.0-1.24","null","<p>A másik játékos ezt választotta: <b>tomlom</b>.</p><p>A te válaszod és a másik játékos válasza <b>megegyeznek</b>. &#x2705;</p>","null","","","","feedback trial","",""
"html-button-response-esp","61","314180","0.0-11.0-0.25","597","Te bizony sokat hilarzol. Én is sokat...","1","hilarzom","[""hilarzok"",""hilarzom""]","hilarzom","esp trial","2","true"
"html-button-response","62","317183","0.0-11.0-1.25","null","<p>A másik játékos ezt választotta: <b>hilarzom</b>.</p><p>A te válaszod és a másik játékos válasza <b>megegyeznek</b>. &#x2705;</p>","null","","","","feedback trial","",""
"html-button-response-esp","63","325078","0.0-11.0-0.26","627","Te bizony sokat marzol. Én is sokat...","1","marzok","[""marzom"",""marzok""]","marzom","esp trial","2","false"
"html-button-response","64","328081","0.0-11.0-1.26","null","<p>A másik játékos ezt választotta: <b>marzom</b>.</p><p>A válaszaitok <b>nem</b> egyeznek meg. &#10060;</p>","null","","","","feedback trial","",""
"html-button-response-esp","65","335972","0.0-11.0-0.27","415","Te bizony sokat sűzlesz. Én is sokat...","1","sűzlök","[""sűzlöm"",""sűzlök""]","sűzlöm","esp trial","2","false"
"html-button-response","66","338977","0.0-11.0-1.27","null","<p>A másik játékos ezt választotta: <b>sűzlöm</b>.</p><p>A válaszaitok <b>nem</b> egyeznek meg. &#10060;</p>","null","","","","feedback trial","",""
"html-button-response-esp","67","346880","0.0-11.0-0.28","432","Te bizony sokat spibaklasz. Én is sokat...","1","spibaklok","[""spibaklom"",""spibaklok""]","spibaklom","esp trial","2","false"
"html-button-response","68","349885","0.0-11.0-1.28","null","<p>A másik játékos ezt választotta: <b>spibaklom</b>.</p><p>A válaszaitok <b>nem</b> egyeznek meg. &#10060;</p>","null","","","","feedback trial","",""
"html-button-response-esp","69","357782","0.0-11.0-0.29","388","Te bizony sokat pratánylasz. Én is sokat...","1","pratánylom","[""pratánylok"",""pratánylom""]","pratánylom","esp trial","2","true"
"html-button-response","70","360790","0.0-11.0-1.29","null","<p>A másik játékos ezt választotta: <b>pratánylom</b>.</p><p>A te válaszod és a másik játékos válasza <b>megegyeznek</b>. &#x2705;</p>","null","","","","feedback trial","",""
"html-button-response-esp","71","368688","0.0-11.0-0.30","485","Te bizony sokat böjzöl. Én is sokat...","1","böjzök","[""böjzöm"",""böjzök""]","böjzöm","esp trial","2","false"
"html-button-response","72","371691","0.0-11.0-1.30","null","<p>A másik játékos ezt választotta: <b>böjzöm</b>.</p><p>A válaszaitok <b>nem</b> egyeznek meg. &#10060;</p>","null","","","","feedback trial","",""
"html-button-response-esp","73","379588","0.0-11.0-0.31","694","Te bizony sokat spatárzol. Én is sokat...","1","spatárzok","[""spatárzom"",""spatárzok""]","spatárzom","esp trial","2","false"
"html-button-response","74","382591","0.0-11.0-1.31","null","<p>A másik játékos ezt választotta: <b>spatárzom</b>.</p><p>A válaszaitok <b>nem</b> egyeznek meg. &#10060;</p>","null","","","","feedback trial","",""
"html-button-response-esp","75","390483","0.0-11.0-0.32","529","Te bizony sokat driládzol. Én is sokat...","1","driládzom","[""driládzok"",""driládzom""]","driládzok","esp trial","2","false"
"html-button-response","76","393485","0.0-11.0-1.32","null","<p>A másik játékos ezt választotta: <b>driládzok</b>.</p><p>A válaszaitok <b>nem</b> egyeznek meg. &#10060;</p>","null","","","","feedback trial","",""
"html-button-response-esp","77","401376","0.0-11.0-0.33","251","Te bizony sokat juszlasz. Én is sokat...","1","juszlom","[""juszlok"",""juszlom""]","juszlom","esp trial","2","true"
"html-button-response","78","404379","0.0-11.0-1.33","null","<p>A másik játékos ezt választotta: <b>juszlom</b>.</p><p>A te válaszod és a másik játékos válasza <b>megegyeznek</b>. &#x2705;</p>","null","","","","feedback trial","",""
"html-button-response-esp","79","412269","0.0-11.0-0.34","732","Te bizony sokat feténylesz. Én is sokat...","1","feténylek","[""feténylem"",""feténylek""]","feténylem","esp trial","2","false"
"html-button-response","80","415270","0.0-11.0-1.34","null","<p>A másik játékos ezt választotta: <b>feténylem</b>.</p><p>A válaszaitok <b>nem</b> egyeznek meg. &#10060;</p>","null","","","","feedback trial","",""
"html-button-response-esp","81","423163","0.0-11.0-0.35","708","Te bizony sokat piragszol. Én is sokat...","1","piragszok","[""piragszom"",""piragszok""]","piragszok","esp trial","2","true"
"html-button-response","82","426169","0.0-11.0-1.35","null","<p>A másik játékos ezt választotta: <b>piragszok</b>.</p><p>A te válaszod és a másik játékos válasza <b>megegyeznek</b>. &#x2705;</p>","null","","","","feedback trial","",""
"html-button-response-esp","83","434063","0.0-11.0-0.36","3157","Te bizony sokat bölszöl. Én is sokat...","1","bölszök","[""bölszöm"",""bölszök""]","bölszöm","esp trial","2","false"
"html-button-response","84","437069","0.0-11.0-1.36","null","<p>A másik játékos ezt választotta: <b>bölszöm</b>.</p><p>A válaszaitok <b>nem</b> egyeznek meg. &#10060;</p>","null","","","","feedback trial","",""
"html-button-response-esp","85","444965","0.0-11.0-0.37","613","Te bizony sokat klörlesz. Én is sokat...","1","klörlök","[""klörlöm"",""klörlök""]","klörlöm","esp trial","2","false"
"html-button-response","86","447967","0.0-11.0-1.37","null","<p>A másik játékos ezt választotta: <b>klörlöm</b>.</p><p>A válaszaitok <b>nem</b> egyeznek meg. &#10060;</p>","null","","","","feedback trial","",""
"html-button-response-esp","87","455858","0.0-11.0-0.38","566","Te bizony sokat spéslesz. Én is sokat...","1","spéslek","[""spéslem"",""spéslek""]","spéslem","esp trial","2","false"
"html-button-response","88","458861","0.0-11.0-1.38","null","<p>A másik játékos ezt választotta: <b>spéslem</b>.</p><p>A válaszaitok <b>nem</b> egyeznek meg. &#10060;</p>","null","","","","feedback trial","",""
"html-button-response-esp","89","466753","0.0-11.0-0.39","467","Te bizony sokat szirlasz. Én is sokat...","1","szirlok","[""szirlom"",""szirlok""]","szirlom","esp trial","2","false"
"html-button-response","90","469756","0.0-11.0-1.39","null","<p>A másik játékos ezt választotta: <b>szirlom</b>.</p><p>A válaszaitok <b>nem</b> egyeznek meg. &#10060;</p>","null","","","","feedback trial","",""
"html-button-response-esp","91","477650","0.0-11.0-0.40","733","Te bizony sokat sprökszöl. Én is sokat...","1","sprökszöm","[""sprökszök"",""sprökszöm""]","sprökszök","esp trial","2","false"
"html-button-response","92","480652","0.0-11.0-1.40","null","<p>A másik játékos ezt választotta: <b>sprökszök</b>.</p><p>A válaszaitok <b>nem</b> egyeznek meg. &#10060;</p>","null","","","","feedback trial","",""
"html-button-response-esp","93","488546","0.0-11.0-0.41","698","Te bizony sokat drubódzol. Én is sokat...","1","drubódzok","[""drubódzom"",""drubódzok""]","drubódzok","esp trial","2","true"
"html-button-response","94","491547","0.0-11.0-1.41","null","<p>A másik játékos ezt választotta: <b>drubódzok</b>.</p><p>A te válaszod és a másik játékos válasza <b>megegyeznek</b>. &#x2705;</p>","null","","","","feedback trial","",""
"html-button-response-esp","95","499440","0.0-11.0-0.42","566","Te bizony sokat fretszel. Én is sokat...","1","fretszem","[""fretszek"",""fretszem""]","fretszem","esp trial","2","true"
"html-button-response","96","502446","0.0-11.0-1.42","null","<p>A másik játékos ezt választotta: <b>fretszem</b>.</p><p>A te válaszod és a másik játékos válasza <b>megegyeznek</b>. &#x2705;</p>","null","","","","feedback trial","",""
"html-button-response-esp","97","510340","0.0-11.0-0.43","479","Te bizony sokat csíszlasz. Én is sokat...","1","csíszlom","[""csíszlok"",""csíszlom""]","csíszlom","esp trial","2","true"
"html-button-response","98","513346","0.0-11.0-1.43","null","<p>A másik játékos ezt választotta: <b>csíszlom</b>.</p><p>A te válaszod és a másik játékos válasza <b>megegyeznek</b>. &#x2705;</p>","null","","","","feedback trial","",""
"html-button-response-esp","99","521238","0.0-11.0-0.44","558","Te bizony sokat narjárzol. Én is sokat...","1","narjárzok","[""narjárzom"",""narjárzok""]","narjárzom","esp trial","2","false"
"html-button-response","100","524240","0.0-11.0-1.44","null","<p>A másik játékos ezt választotta: <b>narjárzom</b>.</p><p>A válaszaitok <b>nem</b> egyeznek meg. &#10060;</p>","null","","","","feedback trial","",""
"html-button-response-esp","101","532130","0.0-11.0-0.45","546","Te bizony sokat spilágzol. Én is sokat...","1","spilágzom","[""spilágzok"",""spilágzom""]","spilágzok","esp trial","2","false"
"html-button-response","102","535133","0.0-11.0-1.45","null","<p>A másik játékos ezt választotta: <b>spilágzok</b>.</p><p>A válaszaitok <b>nem</b> egyeznek meg. &#10060;</p>","null","","","","feedback trial","",""
"html-button-response-esp","103","543026","0.0-11.0-0.46","518","Te bizony sokat lorjódzol. Én is sokat...","1","lorjódzom","[""lorjódzok"",""lorjódzom""]","lorjódzom","esp trial","2","true"
"html-button-response","104","546028","0.0-11.0-1.46","null","<p>A másik játékos ezt választotta: <b>lorjódzom</b>.</p><p>A te válaszod és a másik játékos válasza <b>megegyeznek</b>. &#x2705;</p>","null","","","","feedback trial","",""
"html-button-response-esp","105","553919","0.0-11.0-0.47","468","Te bizony sokat flagánylasz. Én is sokat...","1","flagánylok","[""flagánylom"",""flagánylok""]","flagánylom","esp trial","2","false"
"html-button-response","106","556924","0.0-11.0-1.47","null","<p>A másik játékos ezt választotta: <b>flagánylom</b>.</p><p>A válaszaitok <b>nem</b> egyeznek meg. &#10060;</p>","null","","","","feedback trial","",""
"html-button-response-esp","107","565638","0.0-11.0-0.48","8714","Te bizony sokat brágaklasz. Én is sokat...","1","brágaklom","[""brágaklok"",""brágaklom""]","brágaklok","esp trial","2","false"
"html-button-response","108","568641","0.0-11.0-1.48","null","<p>A másik játékos ezt választotta: <b>brágaklok</b>.</p><p>A válaszaitok <b>nem</b> egyeznek meg. &#10060;</p>","null","","","","feedback trial","",""
"html-button-response-esp","109","576536","0.0-11.0-0.49","739","Te bizony sokat siladzol. Én is sokat...","1","siladzok","[""siladzom"",""siladzok""]","siladzok","esp trial","2","true"
"html-button-response","110","579537","0.0-11.0-1.49","null","<p>A másik játékos ezt választotta: <b>siladzok</b>.</p><p>A te válaszod és a másik játékos válasza <b>megegyeznek</b>. &#x2705;</p>","null","","","","feedback trial","",""
"html-button-response-esp","111","587432","0.0-11.0-0.50","536","Te bizony sokat flüröslesz. Én is sokat...","1","flüröslöm","[""flüröslök"",""flüröslöm""]","flüröslöm","esp trial","2","true"
"html-button-response","112","590438","0.0-11.0-1.50","null","<p>A másik játékos ezt választotta: <b>flüröslöm</b>.</p><p>A te válaszod és a másik játékos válasza <b>megegyeznek</b>. &#x2705;</p>","null","","","","feedback trial","",""
"html-button-response-esp","113","598332","0.0-11.0-0.51","741","Te bizony sokat jüslesz. Én is sokat...","1","jüslök","[""jüslöm"",""jüslök""]","jüslöm","esp trial","2","false"
"html-button-response","114","601337","0.0-11.0-1.51","null","<p>A másik játékos ezt választotta: <b>jüslöm</b>.</p><p>A válaszaitok <b>nem</b> egyeznek meg. &#10060;</p>","null","","","","feedback trial","",""
"html-button-response-esp","115","609232","0.0-11.0-0.52","2185","Te bizony sokat büglesz. Én is sokat...","1","büglöm","[""büglök"",""büglöm""]","büglöm","esp trial","2","true"
"html-button-response","116","612235","0.0-11.0-1.52","null","<p>A másik játékos ezt választotta: <b>büglöm</b>.</p><p>A te válaszod és a másik játékos válasza <b>megegyeznek</b>. &#x2705;</p>","null","","","","feedback trial","",""
"html-button-response-esp","117","620128","0.0-11.0-0.53","2151","Te bizony sokat sprogzol. Én is sokat...","1","sprogzom","[""sprogzok"",""sprogzom""]","sprogzok","esp trial","2","false"
"html-button-response","118","623132","0.0-11.0-1.53","null","<p>A másik játékos ezt választotta: <b>sprogzok</b>.</p><p>A válaszaitok <b>nem</b> egyeznek meg. &#10060;</p>","null","","","","feedback trial","",""
"html-button-response","119","625220","0.0-12.0","2088","<p>A közös játék most véget ért.</p><p>Mielőtt eláruljuk a végső pontszámodat, arra kérlek, játszd a szóválasztós játékot néhány percig egyedül is.</p><p>A feladatod ugyanaz lesz, választani két lehetőség közül.</p><p>Most viszont egyedül kell döntened, hogy te melyiket választanád.</p>","0","","","","","",""
"html-button-response-clever","120","626540","0.0-13.0-0.0","1318","Te bizony sokat rokszol. Én is sokat...","1","rokszok","[""rokszom"",""rokszok""]","","posttest trial","4",""
"html-button-response-clever","121","626713","0.0-13.0-0.1","173","Te bizony sokat pribemlesz. Én is sokat...","1","pribemlem","[""pribemlek"",""pribemlem""]","","posttest trial","4",""
"html-button-response-clever","122","626880","0.0-13.0-0.2","166","Te bizony sokat figlasz. Én is sokat...","1","figlok","[""figlom"",""figlok""]","","posttest trial","4",""
"html-button-response-clever","123","627033","0.0-13.0-0.3","153","Te bizony sokat jonylasz. Én is sokat...","1","jonylom","[""jonylok"",""jonylom""]","","posttest trial","4",""
"html-button-response-clever","124","627186","0.0-13.0-0.4","152","Te bizony sokat píjlasz. Én is sokat...","1","píjlom","[""píjlok"",""píjlom""]","","posttest trial","4",""
"html-button-response-clever","125","627354","0.0-13.0-0.5","167","Te bizony sokat bivégszel. Én is sokat...","1","bivégszek","[""bivégszem"",""bivégszek""]","","posttest trial","4",""
"html-button-response-clever","126","627491","0.0-13.0-0.6","136","Te bizony sokat plűbzöl. Én is sokat...","1","plűbzöm","[""plűbzök"",""plűbzöm""]","","posttest trial","4",""
"html-button-response-clever","127","627809","0.0-13.0-0.7","317","Te bizony sokat prínylasz. Én is sokat...","1","prínylok","[""prínylom"",""prínylok""]","","posttest trial","4",""
"html-button-response-clever","128","627981","0.0-13.0-0.8","170","Te bizony sokat lörűdzöl. Én is sokat...","1","lörűdzök","[""lörűdzöm"",""lörűdzök""]","","posttest trial","4",""
"html-button-response-clever","129","628150","0.0-13.0-0.9","169","Te bizony sokat bihánylasz. Én is sokat...","1","bihánylok","[""bihánylom"",""bihánylok""]","","posttest trial","4",""
"html-button-response-clever","130","628320","0.0-13.0-0.10","169","Te bizony sokat trádlasz. Én is sokat...","1","trádlom","[""trádlok"",""trádlom""]","","posttest trial","4",""
"html-button-response-clever","131","628489","0.0-13.0-0.11","168","Te bizony sokat narádzol. Én is sokat...","1","narádzok","[""narádzom"",""narádzok""]","","posttest trial","4",""
"html-button-response-clever","132","628641","0.0-13.0-0.12","152","Te bizony sokat spihegzel. Én is sokat...","1","spihegzem","[""spihegzek"",""spihegzem""]","","posttest trial","4",""
"html-button-response-clever","133","628810","0.0-13.0-0.13","169","Te bizony sokat flehékszel. Én is sokat...","1","flehékszem","[""flehékszek"",""flehékszem""]","","posttest trial","4",""
"html-button-response-clever","134","629129","0.0-13.0-0.14","318","Te bizony sokat nűröklesz. Én is sokat...","1","nűröklök","[""nűröklöm"",""nűröklök""]","","posttest trial","4",""
"html-button-response-clever","135","629300","0.0-13.0-0.15","170","Te bizony sokat spáraklasz. Én is sokat...","1","spáraklok","[""spáraklom"",""spáraklok""]","","posttest trial","4",""
"html-button-response-clever","136","629468","0.0-13.0-0.16","169","Te bizony sokat flehénylesz. Én is sokat...","1","flehénylek","[""flehénylem"",""flehénylek""]","","posttest trial","4",""
"html-button-response-clever","137","629655","0.0-13.0-0.17","186","Te bizony sokat sztrűkszöl. Én is sokat...","1","sztrűkszök","[""sztrűkszöm"",""sztrűkszök""]","","posttest trial","4",""
"html-button-response-clever","138","629807","0.0-13.0-0.18","151","Te bizony sokat klétszel. Én is sokat...","1","klétszek","[""klétszem"",""klétszek""]","","posttest trial","4",""
"html-button-response-clever","139","629976","0.0-13.0-0.19","169","Te bizony sokat sztrijzol. Én is sokat...","1","sztrijzok","[""sztrijzom"",""sztrijzok""]","","posttest trial","4",""
"html-button-response-clever","140","630282","0.0-13.0-0.20","305","Te bizony sokat filágzol. Én is sokat...","1","filágzok","[""filágzom"",""filágzok""]","","posttest trial","4",""
"html-button-response-clever","141","630466","0.0-13.0-0.21","183","Te bizony sokat huroslasz. Én is sokat...","1","huroslom","[""huroslok"",""huroslom""]","","posttest trial","4",""
"html-button-response-clever","142","630637","0.0-13.0-0.22","170","Te bizony sokat rájzol. Én is sokat...","1","rájzok","[""rájzom"",""rájzok""]","","posttest trial","4",""
"html-button-response-clever","143","630809","0.0-13.0-0.23","171","Te bizony sokat spülűdzöl. Én is sokat...","1","spülűdzök","[""spülűdzöm"",""spülűdzök""]","","posttest trial","4",""
"html-button-response-clever","144","630974","0.0-13.0-0.24","164","Te bizony sokat salárzol. Én is sokat...","1","salárzok","[""salárzom"",""salárzok""]","","posttest trial","4",""
"html-button-response-clever","145","631111","0.0-13.0-0.25","137","Te bizony sokat brivegzel. Én is sokat...","1","brivegzem","[""brivegzek"",""brivegzem""]","","posttest trial","4",""
"html-button-response-clever","146","631264","0.0-13.0-0.26","151","Te bizony sokat klivaslasz. Én is sokat...","1","klivaslok","[""klivaslom"",""klivaslok""]","","posttest trial","4",""
"html-button-response-clever","147","631552","0.0-13.0-0.27","288","Te bizony sokat tragzol. Én is sokat...","1","tragzok","[""tragzom"",""tragzok""]","","posttest trial","4",""
"html-button-response-clever","148","631752","0.0-13.0-0.28","198","Te bizony sokat hűgzöl. Én is sokat...","1","hűgzök","[""hűgzöm"",""hűgzök""]","","posttest trial","4",""
"html-button-response-clever","149","631922","0.0-13.0-0.29","170","Te bizony sokat plugzol. Én is sokat...","1","plugzom","[""plugzok"",""plugzom""]","","posttest trial","4",""
"html-button-response-clever","150","632091","0.0-13.0-0.30","167","Te bizony sokat brobódzol. Én is sokat...","1","brobódzok","[""brobódzom"",""brobódzok""]","","posttest trial","4",""
"html-button-response-clever","151","632259","0.0-13.0-0.31","168","Te bizony sokat treglesz. Én is sokat...","1","treglek","[""treglem"",""treglek""]","","posttest trial","4",""
"html-button-response-clever","152","632397","0.0-13.0-0.32","137","Te bizony sokat pribagszol. Én is sokat...","1","pribagszom","[""pribagszok"",""pribagszom""]","","posttest trial","4",""
"html-button-response-clever","153","632565","0.0-13.0-0.33","167","Te bizony sokat trehégszel. Én is sokat...","1","trehégszem","[""trehégszek"",""trehégszem""]","","posttest trial","4",""
"html-button-response-clever","154","632836","0.0-13.0-0.34","270","Te bizony sokat sztrozlasz. Én is sokat...","1","sztrozlok","[""sztrozlom"",""sztrozlok""]","","posttest trial","4",""
"html-button-response-clever","155","633022","0.0-13.0-0.35","185","Te bizony sokat düjzöl. Én is sokat...","1","düjzöm","[""düjzök"",""düjzöm""]","","posttest trial","4",""
"html-button-response-clever","156","633191","0.0-13.0-0.36","168","Te bizony sokat pítszol. Én is sokat...","1","pítszom","[""pítszok"",""pítszom""]","","posttest trial","4",""
"html-button-response-clever","157","633376","0.0-13.0-0.37","184","Te bizony sokat frodlasz. Én is sokat...","1","frodlok","[""frodlom"",""frodlok""]","","posttest trial","4",""
"html-button-response-clever","158","633546","0.0-13.0-0.38","169","Te bizony sokat flátszol. Én is sokat...","1","flátszom","[""flátszok"",""flátszom""]","","posttest trial","4",""
"html-button-response-clever","159","633715","0.0-13.0-0.39","168","Te bizony sokat vanylasz. Én is sokat...","1","vanylok","[""vanylom"",""vanylok""]","","posttest trial","4",""
"html-button-response-clever","160","633867","0.0-13.0-0.40","153","Te bizony sokat gyibeslesz. Én is sokat...","1","gyibeslem","[""gyibeslek"",""gyibeslem""]","","posttest trial","4",""
"html-button-response-clever","161","634172","0.0-13.0-0.41","304","Te bizony sokat spröbzöl. Én is sokat...","1","spröbzöm","[""spröbzök"",""spröbzöm""]","","posttest trial","4",""
"html-button-response-clever","162","634340","0.0-13.0-0.42","167","Te bizony sokat spubonylasz. Én is sokat...","1","spubonylom","[""spubonylok"",""spubonylom""]","","posttest trial","4",""
"html-button-response-clever","163","634525","0.0-13.0-0.43","184","Te bizony sokat hurjorzol. Én is sokat...","1","hurjorzok","[""hurjorzom"",""hurjorzok""]","","posttest trial","4",""
"html-button-response-clever","164","634696","0.0-13.0-0.44","170","Te bizony sokat vülődzöl. Én is sokat...","1","vülődzöm","[""vülődzök"",""vülődzöm""]","","posttest trial","4",""
"html-button-response-clever","165","634865","0.0-13.0-0.45","169","Te bizony sokat szibánylasz. Én is sokat...","1","szibánylom","[""szibánylok"",""szibánylom""]","","posttest trial","4",""
"html-button-response-clever","166","635017","0.0-13.0-0.46","150","Te bizony sokat flitlasz. Én is sokat...","1","flitlom","[""flitlok"",""flitlom""]","","posttest trial","4",""
"html-button-response-clever","167","635187","0.0-13.0-0.47","169","Te bizony sokat bűtszöl. Én is sokat...","1","bűtszöm","[""bűtszök"",""bűtszöm""]","","posttest trial","4",""
"html-button-response-clever","168","635459","0.0-13.0-0.48","271","Te bizony sokat brubzol. Én is sokat...","1","brubzok","[""brubzom"",""brubzok""]","","posttest trial","4",""
"html-button-response-clever","169","635643","0.0-13.0-0.49","183","Te bizony sokat spüjzöl. Én is sokat...","1","spüjzök","[""spüjzöm"",""spüjzök""]","","posttest trial","4",""
"html-button-response-clever","170","635814","0.0-13.0-0.50","170","Te bizony sokat klaráglasz. Én is sokat...","1","klaráglok","[""klaráglom"",""klaráglok""]","","posttest trial","4",""
"html-button-response-clever","171","635982","0.0-13.0-0.51","168","Te bizony sokat spihemlesz. Én is sokat...","1","spihemlem","[""spihemlek"",""spihemlem""]","","posttest trial","4",""
"html-button-response-clever","172","636152","0.0-13.0-0.52","168","Te bizony sokat ibékszel. Én is sokat...","1","ibékszek","[""ibékszem"",""ibékszek""]","","posttest trial","4",""
"html-button-response-clever","173","636338","0.0-13.0-0.53","185","Te bizony sokat flűmlesz. Én is sokat...","1","flűmlök","[""flűmlöm"",""flűmlök""]","","posttest trial","4",""
"html-button-response","174","638978","0.0-14.0","2640","<p> Vége a játéknak. A teljes pontszámod 27/54.</p><p> Szép munka! &#128526;&#128526;&#128526;</p><p>A Befejezés gomb megnyomása után bezárhatod a böngészőablakot.</p>","0","","","","","",""
