"trial_type","trial_index","time_elapsed","internal_node_id","rt","stimulus","response","response_string","choices","esp_response","trial_kind","list_number","esp_match"
"pavlovia","0","805","0.0-0.0","","","","","","","","",""
"html-button-response","1","24754","0.0-1.0","23427","<p>Kedves Résztvevő! A Budapesti Műszaki és Gazdaságtudományi Egyetem Kognitív Tudományi Tanszékének kutatásában való részvételed kérjük. A kutatásban azt vizsgáljuk, hogy a magyar anyanyelvűek hogyan használnak bizonyos szóalakokat, és hogy milyen képük van arról, hogy mások hogyan használják, hogyan képzik a szavakat. Ez hozzásegít bennünket ahhoz, hogy jobban megértsük, hogyan dolgozza fel és tárolja a nyelvet az emberi agy, és hogyan működnek, hogyan változnak egy adott közösség nyelvi konvenciói.</p><p>A vizsgálat egy rövid számítógépes feladatból fog állni. A kutatásban való részvétel önkéntes, a részvételi szándék bármikor visszavonható. A résztvevők eredményeit név nélkül kezeljük, így nem beazonosíthatók az adatok feldolgozása során. Minden személyes adatot az EU általános adatvédelmi rendeletének (GDPR) megfelelően kezelünk és legfeljebb öt éven belül megsemmisítünk. A vizsgálat jellemzően húsz percet vesz igénybe.</p><p>Kutatásvezető:</p><p>Dr. Rácz Péter, tudományos munkatárs, BME KTT</p><p>e-mail: racz.peter.marton@ttk.bme.hu</p>","0","","","","","",""
"html-button-response","2","70070","0.0-2.0","44802","<p>A kísérletben szavakat fogsz látni. Ezek között lesznek olyanok, amelyeket ismersz, de előfordulhatnak olyanok is, amelyeket nem ismersz, sőt, vannak köztük kitalált szavak is. Minden szónál látni fogsz toldalékolt alakokat. A te feladatod az lesz, hogy minden szóhoz kiválaszd azt a toldalékolt alakot, amely a te számodra ismerősebben, természetesebben hangzik. Rossz válaszok nincsenek, mert van olyan, hogy különböző embereknek más és más szó tűnik jobb választásnak. A választ úgy tudod majd kiválasztani, ha rákattintasz.</p><p>Ebben a szóválasztós játékban egy másik játékossal együtt veszel majd részt. A másik játékos is minden esetben azok közül a lehetőségek közül válogathat, mint te. Kettőtök feladata az, hogy ugyanazt a lehetőséget válasszátok minden esetben. Ahhoz, hogy ez sikerüljön, neked figyelned kell arra, hogy a másik játékos milyen válaszokat ad, és ennek alapján meg kell tippelned, hogyan választ legközelebb. Ha eltalálod, akkor pontot kapsz.</p>","0","","","","","",""
"html-button-response","3","79120","0.0-3.0","8542","<p>Kérjük, olvasd el az alábbi nyilatkozatot, és amennyiben egyetértesz vele, nyomj a Beleegyezés gombra!</p><p>Kijelentem, hogy magyar anyanyelvű személyként önként veszek részt a BME KTT kísérletében. A kutatás céljával és folyamatával kapcsolatban elegendő tájékoztatást kaptam, lehetőségem volt kérdések feltételére, és esetleges kérdéseimre megfelelő válaszokat kaptam. A tájékoztatás alapján elegendő mennyiségű információ áll a rendelkezésemre, hogy eldönthessem, részt kívánok-e venni a kutatásban.</p><p>Tisztában vagyok vele, hogy részvételi szándékomat és adataimat bármikor, indoklás nélkül visszavonhatom.</p><p>Értem és tudomásul veszem, hogy a kutatás tudományos célokat szolgál, és az általam szolgáltatott adatokat a BME kizárólag kutatási célból használja fel. Tudomásul veszem, hogy eredményeimet a többi résztvevő eredményeivel együtt kezelik, így egyéni teljesítményemről visszajelzést, szakvéleményt nem kapok.</p><p>Megértettem, hogy adataim kezelését illetően a BME az EU általános adatvédelmi rendelete (GDPR), a hatályos adatvédelmi törvény és a nemzetközi kutatás-etikai alapelvek szerint jár el. Eredményeim anonim módon kerülnek feldolgozásra, és a kutatás résztvevői az azonosításomra alkalmas adataimat harmadik félnek nem szolgáltatják ki. Engedélyezem a BME számára a jelen kutatásban felvett adataim feldolgozását és tárolását, beleértve azok későbbi kutatásokhoz való felhasználását is. Személyes adataim kezelésével kapcsolatban tájékoztatást kérhetek a kutatás résztvevőitől, az adatkezelés ellen tiltakozhatok, kérhetem személyes adataim helyesbítését, törlését vagy zárolását, valamint jogorvoslatért a Nemzeti Adatvédelmi és Információszabadság Hatósághoz fordulhatok.</p><p>Kijelentem, hogy a kutatásban való részvételem körülményeiről részletes tájékoztatást kaptam, és a feltételeket elfogadom.</p>","0","","","","","",""
"survey-text","4","109080","0.0-4.0","29422","","{""Q0"":""SWLTXH"",""Q1"":""nő"",""Q2"":""2001"",""Q3"":""15""}","","","","","",""
"html-button-response","5","119581","0.0-5.0","9990","<p>Ebben a játékban szavakat kell toldalékolni.</p> <p>Minden körben mutatunk majd egy példamondatot, amiben lesz egy szó.</p> <p>Alatta jön egy második mondat, ezt a mondatot neked kell majd befejezni, ugyanezzel a szóval.</p> <p>Nem biztos, hogy a szó eleve ismerős lesz számodra!</p> <p>Minden mondathoz adunk két lehetőséget, ezeket balra és jobbra látod majd.</p> <p>A játék kb. negyedóráig-húsz percig tart.</p>","0","","","","","",""
"html-button-response","6","129207","0.0-6.0","9115","<p>Nézzünk egy példát!</p> <p>A példamondat: ""János nagyon szeret rancsúrozni.""</p><p>Neked ezt a mondatot kell befejezned: ""Én is szívesen...""</p><p>A lehetőségek pedig ezek:</p>","0","","","","","",""
"html-button-response","7","137652","0.0-7.0","7927","<p>Nagyon jó.</p><p>Ezt a játékot nem egyedül fogod játszani, hanem egy másik játékossal.</p><p>Mielőtt továbblépünk, összekapcsolunk titeket egymással.</p><p>Ez igénybe vehet néhány másodpercet, amihez szíves türelmed kérjük.</p>","0","","","","","",""
"html-button-response","8","143401","0.0-8.0","null","<p>Csatlakozás a másik játékoshoz...</p>","null","","","","","",""
"html-button-response","9","145925","0.0-9.0","null","<p> Sikeres kapcsolódás!</p>","null","","","","","",""
"html-button-response","10","156440","0.0-10.0","null","<p>A következőkben ketten játsszátok a szóválasztós játékot.</p><p>A feladatotok az lesz, hogy minden körben <b>ugyanazt</b> a szót válasszátok.</p><p>Minden ilyen egyező válaszért pontot kaptok.</p><p>Próbáld meg kitalálni, mit választ a másik játékos!</p><p>Bármikor választhatsz, a körnek akkor van vége, ha mindketten döntöttetek.</p><p>Sok sikert!</p>","null","","","","","",""
"html-button-response-esp","11","162280","0.0-11.0-0.0","5313","Te bizony sokat flitlasz. Én is sokat...","0","flitlom","[""flitlom"",""flitlok""]","flitlom","esp trial","6","true"
"html-button-response","12","165810","0.0-11.0-1.0","null","<p>A másik játékos ezt választotta: <b>flitlom</b>.</p><p>&#x2705;</p><p>A te válaszod és a másik játékos válasza <b>megegyeznek</b>.</p>","null","","","","feedback trial","",""
"html-button-response-esp","13","172454","0.0-11.0-0.1","6122","Te bizony sokat figlasz. Én is sokat...","1","figlom","[""figlok"",""figlom""]","figlom","esp trial","6","true"
"html-button-response","14","175972","0.0-11.0-1.1","null","<p>A másik játékos ezt választotta: <b>figlom</b>.</p><p>&#x2705;</p><p>A te válaszod és a másik játékos válasza <b>megegyeznek</b>.</p>","null","","","","feedback trial","",""
"html-button-response-esp","15","182415","0.0-11.0-0.2","5933","Te bizony sokat lörűdzöl. Én is sokat...","1","lörűdzöm","[""lörűdzök"",""lörűdzöm""]","lörűdzöm","esp trial","6","true"
"html-button-response","16","185932","0.0-11.0-1.2","null","<p>A másik játékos ezt választotta: <b>lörűdzöm</b>.</p><p>&#x2705;</p><p>A te válaszod és a másik játékos válasza <b>megegyeznek</b>.</p>","null","","","","feedback trial","",""
"html-button-response-esp","17","190574","0.0-11.0-0.3","3184","Te bizony sokat píjlasz. Én is sokat...","1","píjlom","[""píjlok"",""píjlom""]","píjlom","esp trial","6","true"
"html-button-response","18","194101","0.0-11.0-1.3","null","<p>A másik játékos ezt választotta: <b>píjlom</b>.</p><p>&#x2705;</p><p>A te válaszod és a másik játékos válasza <b>megegyeznek</b>.</p>","null","","","","feedback trial","",""
"html-button-response-esp","19","199371","0.0-11.0-0.4","4756","Te bizony sokat hurjorzol. Én is sokat...","1","hurjorzom","[""hurjorzok"",""hurjorzom""]","hurjorzom","esp trial","6","true"
"html-button-response","20","202895","0.0-11.0-1.4","null","<p>A másik játékos ezt választotta: <b>hurjorzom</b>.</p><p>&#x2705;</p><p>A te válaszod és a másik játékos válasza <b>megegyeznek</b>.</p>","null","","","","feedback trial","",""
"html-button-response-esp","21","207514","0.0-11.0-0.5","2883","Te bizony sokat pítszol. Én is sokat...","1","pítszom","[""pítszok"",""pítszom""]","pítszok","esp trial","6","false"
"html-button-response","22","211046","0.0-11.0-1.5","null","<p>A másik játékos ezt választotta: <b>pítszok</b>.</p><p>&#10060;</p><p>A válaszaitok <b>nem</b> egyeznek meg.</p>","null","","","","feedback trial","",""
"html-button-response-esp","23","216437","0.0-11.0-0.6","4877","Te bizony sokat flehékszel. Én is sokat...","1","flehékszem","[""flehékszek"",""flehékszem""]","flehékszek","esp trial","6","false"
"html-button-response","24","219954","0.0-11.0-1.6","null","<p>A másik játékos ezt választotta: <b>flehékszek</b>.</p><p>&#10060;</p><p>A válaszaitok <b>nem</b> egyeznek meg.</p>","null","","","","feedback trial","",""
"html-button-response-esp","25","224584","0.0-11.0-0.7","3737","Te bizony sokat vülődzöl. Én is sokat...","0","vülődzök","[""vülődzök"",""vülődzöm""]","vülődzöm","esp trial","6","false"
"html-button-response","26","228111","0.0-11.0-1.7","null","<p>A másik játékos ezt választotta: <b>vülődzöm</b>.</p><p>&#10060;</p><p>A válaszaitok <b>nem</b> egyeznek meg.</p>","null","","","","feedback trial","",""
"html-button-response-esp","27","232742","0.0-11.0-0.8","4118","Te bizony sokat plűbzöl. Én is sokat...","1","plűbzöm","[""plűbzök"",""plűbzöm""]","plűbzöm","esp trial","6","true"
"html-button-response","28","236266","0.0-11.0-1.8","null","<p>A másik játékos ezt választotta: <b>plűbzöm</b>.</p><p>&#x2705;</p><p>A te válaszod és a másik játékos válasza <b>megegyeznek</b>.</p>","null","","","","feedback trial","",""
"html-button-response-esp","29","241470","0.0-11.0-0.9","4689","Te bizony sokat brivegzel. Én is sokat...","0","brivegzem","[""brivegzem"",""brivegzek""]","brivegzek","esp trial","6","false"
"html-button-response","30","244995","0.0-11.0-1.9","null","<p>A másik játékos ezt választotta: <b>brivegzek</b>.</p><p>&#10060;</p><p>A válaszaitok <b>nem</b> egyeznek meg.</p>","null","","","","feedback trial","",""
"html-button-response-esp","31","252743","0.0-11.0-0.10","7237","Te bizony sokat klaráglasz. Én is sokat...","1","klaráglok","[""klaráglom"",""klaráglok""]","klaráglom","esp trial","6","false"
"html-button-response","32","256261","0.0-11.0-1.10","null","<p>A másik játékos ezt választotta: <b>klaráglom</b>.</p><p>&#10060;</p><p>A válaszaitok <b>nem</b> egyeznek meg.</p>","null","","","","feedback trial","",""
"html-button-response-esp","33","262885","0.0-11.0-0.11","6112","Te bizony sokat rájzol. Én is sokat...","1","rájzom","[""rájzok"",""rájzom""]","rájzom","esp trial","6","true"
"html-button-response","34","266404","0.0-11.0-1.11","null","<p>A másik játékos ezt választotta: <b>rájzom</b>.</p><p>&#x2705;</p><p>A te válaszod és a másik játékos válasza <b>megegyeznek</b>.</p>","null","","","","feedback trial","",""
"html-button-response-esp","35","271033","0.0-11.0-0.12","3722","Te bizony sokat hűgzöl. Én is sokat...","0","hűgzök","[""hűgzök"",""hűgzöm""]","hűgzöm","esp trial","6","false"
"html-button-response","36","274550","0.0-11.0-1.12","null","<p>A másik játékos ezt választotta: <b>hűgzöm</b>.</p><p>&#10060;</p><p>A válaszaitok <b>nem</b> egyeznek meg.</p>","null","","","","feedback trial","",""
"html-button-response-esp","37","279730","0.0-11.0-0.13","4675","Te bizony sokat prínylasz. Én is sokat...","0","prínylok","[""prínylok"",""prínylom""]","prínylom","esp trial","6","false"
"html-button-response","38","283252","0.0-11.0-1.13","null","<p>A másik játékos ezt választotta: <b>prínylom</b>.</p><p>&#10060;</p><p>A válaszaitok <b>nem</b> egyeznek meg.</p>","null","","","","feedback trial","",""
"html-button-response-esp","39","289140","0.0-11.0-0.14","5379","Te bizony sokat sztrozlasz. Én is sokat...","1","sztrozlom","[""sztrozlok"",""sztrozlom""]","sztrozlom","esp trial","6","true"
"html-button-response","40","292666","0.0-11.0-1.14","null","<p>A másik játékos ezt választotta: <b>sztrozlom</b>.</p><p>&#x2705;</p><p>A te válaszod és a másik játékos válasza <b>megegyeznek</b>.</p>","null","","","","feedback trial","",""
"html-button-response-esp","41","297644","0.0-11.0-0.15","4457","Te bizony sokat ibékszel. Én is sokat...","0","ibékszem","[""ibékszem"",""ibékszek""]","ibékszek","esp trial","6","false"
"html-button-response","42","301180","0.0-11.0-1.15","null","<p>A másik játékos ezt választotta: <b>ibékszek</b>.</p><p>&#10060;</p><p>A válaszaitok <b>nem</b> egyeznek meg.</p>","null","","","","feedback trial","",""
"html-button-response-esp","43","305825","0.0-11.0-0.16","4014","Te bizony sokat bihánylasz. Én is sokat...","1","bihánylom","[""bihánylok"",""bihánylom""]","bihánylom","esp trial","6","true"
"html-button-response","44","309358","0.0-11.0-1.16","null","<p>A másik játékos ezt választotta: <b>bihánylom</b>.</p><p>&#x2705;</p><p>A te válaszod és a másik játékos válasza <b>megegyeznek</b>.</p>","null","","","","feedback trial","",""
"html-button-response-esp","45","314069","0.0-11.0-0.17","4202","Te bizony sokat gyibeslesz. Én is sokat...","1","gyibeslek","[""gyibeslem"",""gyibeslek""]","gyibeslem","esp trial","6","false"
"html-button-response","46","317603","0.0-11.0-1.17","null","<p>A másik játékos ezt választotta: <b>gyibeslem</b>.</p><p>&#10060;</p><p>A válaszaitok <b>nem</b> egyeznek meg.</p>","null","","","","feedback trial","",""
"html-button-response-esp","47","322937","0.0-11.0-0.18","4815","Te bizony sokat vanylasz. Én is sokat...","0","vanylom","[""vanylom"",""vanylok""]","vanylom","esp trial","6","true"
"html-button-response","48","326475","0.0-11.0-1.18","null","<p>A másik játékos ezt választotta: <b>vanylom</b>.</p><p>&#x2705;</p><p>A te válaszod és a másik játékos válasza <b>megegyeznek</b>.</p>","null","","","","feedback trial","",""
"html-button-response-esp","49","331121","0.0-11.0-0.19","3213","Te bizony sokat flátszol. Én is sokat...","0","flátszom","[""flátszom"",""flátszok""]","flátszok","esp trial","6","false"
"html-button-response","50","334658","0.0-11.0-1.19","null","<p>A másik játékos ezt választotta: <b>flátszok</b>.</p><p>&#10060;</p><p>A válaszaitok <b>nem</b> egyeznek meg.</p>","null","","","","feedback trial","",""
"html-button-response-esp","51","339298","0.0-11.0-0.20","3579","Te bizony sokat jonylasz. Én is sokat...","0","jonylom","[""jonylom"",""jonylok""]","jonylom","esp trial","6","true"
"html-button-response","52","342833","0.0-11.0-1.20","null","<p>A másik játékos ezt választotta: <b>jonylom</b>.</p><p>&#x2705;</p><p>A te válaszod és a másik játékos válasza <b>megegyeznek</b>.</p>","null","","","","feedback trial","",""
"html-button-response-esp","53","347948","0.0-11.0-0.21","4607","Te bizony sokat narádzol. Én is sokat...","0","narádzom","[""narádzom"",""narádzok""]","narádzok","esp trial","6","false"
"html-button-response","54","351472","0.0-11.0-1.21","null","<p>A másik játékos ezt választotta: <b>narádzok</b>.</p><p>&#10060;</p><p>A válaszaitok <b>nem</b> egyeznek meg.</p>","null","","","","feedback trial","",""
"html-button-response-esp","55","356105","0.0-11.0-0.22","2907","Te bizony sokat trádlasz. Én is sokat...","1","trádlok","[""trádlom"",""trádlok""]","trádlom","esp trial","6","false"
"html-button-response","56","359622","0.0-11.0-1.22","null","<p>A másik játékos ezt választotta: <b>trádlom</b>.</p><p>&#10060;</p><p>A válaszaitok <b>nem</b> egyeznek meg.</p>","null","","","","feedback trial","",""
"html-button-response-esp","57","364257","0.0-11.0-0.23","4093","Te bizony sokat filágzol. Én is sokat...","1","filágzom","[""filágzok"",""filágzom""]","filágzok","esp trial","6","false"
"html-button-response","58","367777","0.0-11.0-1.23","null","<p>A másik játékos ezt választotta: <b>filágzok</b>.</p><p>&#10060;</p><p>A válaszaitok <b>nem</b> egyeznek meg.</p>","null","","","","feedback trial","",""
"html-button-response-esp","59","374045","0.0-11.0-0.24","5749","Te bizony sokat trehégszel. Én is sokat...","0","trehégszem","[""trehégszem"",""trehégszek""]","trehégszek","esp trial","6","false"
"html-button-response","60","377568","0.0-11.0-1.24","null","<p>A másik játékos ezt választotta: <b>trehégszek</b>.</p><p>&#10060;</p><p>A válaszaitok <b>nem</b> egyeznek meg.</p>","null","","","","feedback trial","",""
"html-button-response-esp","61","383484","0.0-11.0-0.25","5393","Te bizony sokat huroslasz. Én is sokat...","1","huroslom","[""huroslok"",""huroslom""]","huroslom","esp trial","6","true"
"html-button-response","62","387008","0.0-11.0-1.25","null","<p>A másik játékos ezt választotta: <b>huroslom</b>.</p><p>&#x2705;</p><p>A te válaszod és a másik játékos válasza <b>megegyeznek</b>.</p>","null","","","","feedback trial","",""
"html-button-response-esp","63","391658","0.0-11.0-0.26","1810","Te bizony sokat frodlasz. Én is sokat...","0","frodlom","[""frodlom"",""frodlok""]","frodlom","esp trial","6","true"
"html-button-response","64","395174","0.0-11.0-1.26","null","<p>A másik játékos ezt választotta: <b>frodlom</b>.</p><p>&#x2705;</p><p>A te válaszod és a másik játékos válasza <b>megegyeznek</b>.</p>","null","","","","feedback trial","",""
"html-button-response-esp","65","400570","0.0-11.0-0.27","4892","Te bizony sokat spröbzöl. Én is sokat...","1","spröbzöm","[""spröbzök"",""spröbzöm""]","spröbzöm","esp trial","6","true"
"html-button-response","66","404100","0.0-11.0-1.27","null","<p>A másik játékos ezt választotta: <b>spröbzöm</b>.</p><p>&#x2705;</p><p>A te válaszod és a másik játékos válasza <b>megegyeznek</b>.</p>","null","","","","feedback trial","",""
"html-button-response-esp","67","408733","0.0-11.0-0.28","1365","Te bizony sokat szibánylasz. Én is sokat...","1","szibánylom","[""szibánylok"",""szibánylom""]","szibánylom","esp trial","6","true"
"html-button-response","68","412272","0.0-11.0-1.28","null","<p>A másik játékos ezt választotta: <b>szibánylom</b>.</p><p>&#x2705;</p><p>A te válaszod és a másik játékos válasza <b>megegyeznek</b>.</p>","null","","","","feedback trial","",""
"html-button-response-esp","69","416902","0.0-11.0-0.29","2162","Te bizony sokat düjzöl. Én is sokat...","1","düjzök","[""düjzöm"",""düjzök""]","düjzöm","esp trial","6","false"
"html-button-response","70","420417","0.0-11.0-1.29","null","<p>A másik játékos ezt választotta: <b>düjzöm</b>.</p><p>&#10060;</p><p>A válaszaitok <b>nem</b> egyeznek meg.</p>","null","","","","feedback trial","",""
"html-button-response-esp","71","425061","0.0-11.0-0.30","1311","Te bizony sokat brubzol. Én is sokat...","1","brubzom","[""brubzok"",""brubzom""]","brubzom","esp trial","6","true"
"html-button-response","72","428583","0.0-11.0-1.30","null","<p>A másik játékos ezt választotta: <b>brubzom</b>.</p><p>&#x2705;</p><p>A te válaszod és a másik játékos válasza <b>megegyeznek</b>.</p>","null","","","","feedback trial","",""
"html-button-response-esp","73","433223","0.0-11.0-0.31","1919","Te bizony sokat flűmlesz. Én is sokat...","0","flűmlöm","[""flűmlöm"",""flűmlök""]","flűmlöm","esp trial","6","true"
"html-button-response","74","436748","0.0-11.0-1.31","null","<p>A másik játékos ezt választotta: <b>flűmlöm</b>.</p><p>&#x2705;</p><p>A te válaszod és a másik játékos válasza <b>megegyeznek</b>.</p>","null","","","","feedback trial","",""
"html-button-response-esp","75","441372","0.0-11.0-0.32","930","Te bizony sokat brobódzol. Én is sokat...","0","brobódzom","[""brobódzom"",""brobódzok""]","brobódzok","esp trial","6","false"
"html-button-response","76","444887","0.0-11.0-1.32","null","<p>A másik játékos ezt választotta: <b>brobódzok</b>.</p><p>&#10060;</p><p>A válaszaitok <b>nem</b> egyeznek meg.</p>","null","","","","feedback trial","",""
"html-button-response-esp","77","449533","0.0-11.0-0.33","1690","Te bizony sokat bivégszel. Én is sokat...","0","bivégszek","[""bivégszek"",""bivégszem""]","bivégszek","esp trial","6","true"
"html-button-response","78","453045","0.0-11.0-1.33","null","<p>A másik játékos ezt választotta: <b>bivégszek</b>.</p><p>&#x2705;</p><p>A te válaszod és a másik játékos válasza <b>megegyeznek</b>.</p>","null","","","","feedback trial","",""
"html-button-response-esp","79","457676","0.0-11.0-0.34","1350","Te bizony sokat sztrijzol. Én is sokat...","1","sztrijzom","[""sztrijzok"",""sztrijzom""]","sztrijzom","esp trial","6","true"
"html-button-response","80","461209","0.0-11.0-1.34","null","<p>A másik játékos ezt választotta: <b>sztrijzom</b>.</p><p>&#x2705;</p><p>A te válaszod és a másik játékos válasza <b>megegyeznek</b>.</p>","null","","","","feedback trial","",""
"html-button-response-esp","81","465855","0.0-11.0-0.35","1973","Te bizony sokat spülűdzöl. Én is sokat...","0","spülűdzök","[""spülűdzök"",""spülűdzöm""]","spülűdzöm","esp trial","6","false"
"html-button-response","82","469368","0.0-11.0-1.35","null","<p>A másik játékos ezt választotta: <b>spülűdzöm</b>.</p><p>&#10060;</p><p>A válaszaitok <b>nem</b> egyeznek meg.</p>","null","","","","feedback trial","",""
"html-button-response-esp","83","474009","0.0-11.0-0.36","596","Te bizony sokat tragzol. Én is sokat...","1","tragzom","[""tragzok"",""tragzom""]","tragzom","esp trial","6","true"
"html-button-response","84","477544","0.0-11.0-1.36","null","<p>A másik játékos ezt választotta: <b>tragzom</b>.</p><p>&#x2705;</p><p>A te válaszod és a másik játékos válasza <b>megegyeznek</b>.</p>","null","","","","feedback trial","",""
"html-button-response-esp","85","482187","0.0-11.0-0.37","1351","Te bizony sokat nűröklesz. Én is sokat...","0","nűröklöm","[""nűröklöm"",""nűröklök""]","nűröklöm","esp trial","6","true"
"html-button-response","86","485700","0.0-11.0-1.37","null","<p>A másik játékos ezt választotta: <b>nűröklöm</b>.</p><p>&#x2705;</p><p>A te válaszod és a másik játékos válasza <b>megegyeznek</b>.</p>","null","","","","feedback trial","",""
"html-button-response-esp","87","490335","0.0-11.0-0.38","1730","Te bizony sokat sztrűkszöl. Én is sokat...","0","sztrűkszöm","[""sztrűkszöm"",""sztrűkszök""]","sztrűkszök","esp trial","6","false"
"html-button-response","88","493855","0.0-11.0-1.38","null","<p>A másik játékos ezt választotta: <b>sztrűkszök</b>.</p><p>&#10060;</p><p>A válaszaitok <b>nem</b> egyeznek meg.</p>","null","","","","feedback trial","",""
"html-button-response-esp","89","498478","0.0-11.0-0.39","1409","Te bizony sokat pribemlesz. Én is sokat...","1","pribemlek","[""pribemlem"",""pribemlek""]","pribemlem","esp trial","6","false"
"html-button-response","90","502003","0.0-11.0-1.39","null","<p>A másik játékos ezt választotta: <b>pribemlem</b>.</p><p>&#10060;</p><p>A válaszaitok <b>nem</b> egyeznek meg.</p>","null","","","","feedback trial","",""
"html-button-response-esp","91","506643","0.0-11.0-0.40","983","Te bizony sokat spihemlesz. Én is sokat...","1","spihemlek","[""spihemlem"",""spihemlek""]","spihemlem","esp trial","6","false"
"html-button-response","92","510169","0.0-11.0-1.40","null","<p>A másik játékos ezt választotta: <b>spihemlem</b>.</p><p>&#10060;</p><p>A válaszaitok <b>nem</b> egyeznek meg.</p>","null","","","","feedback trial","",""
"html-button-response-esp","93","514809","0.0-11.0-0.41","1334","Te bizony sokat spüjzöl. Én is sokat...","0","spüjzöm","[""spüjzöm"",""spüjzök""]","spüjzöm","esp trial","6","true"
"html-button-response","94","518347","0.0-11.0-1.41","null","<p>A másik játékos ezt választotta: <b>spüjzöm</b>.</p><p>&#x2705;</p><p>A te válaszod és a másik játékos válasza <b>megegyeznek</b>.</p>","null","","","","feedback trial","",""
"html-button-response-esp","95","522982","0.0-11.0-0.42","2347","Te bizony sokat pribagszol. Én is sokat...","1","pribagszom","[""pribagszok"",""pribagszom""]","pribagszok","esp trial","6","false"
"html-button-response","96","526499","0.0-11.0-1.42","null","<p>A másik játékos ezt választotta: <b>pribagszok</b>.</p><p>&#10060;</p><p>A válaszaitok <b>nem</b> egyeznek meg.</p>","null","","","","feedback trial","",""
"html-button-response-esp","97","531121","0.0-11.0-0.43","1420","Te bizony sokat spubonylasz. Én is sokat...","0","spubonylom","[""spubonylom"",""spubonylok""]","spubonylom","esp trial","6","true"
"html-button-response","98","534650","0.0-11.0-1.43","null","<p>A másik játékos ezt választotta: <b>spubonylom</b>.</p><p>&#x2705;</p><p>A te válaszod és a másik játékos válasza <b>megegyeznek</b>.</p>","null","","","","feedback trial","",""
"html-button-response-esp","99","539289","0.0-11.0-0.44","1337","Te bizony sokat klivaslasz. Én is sokat...","1","klivaslom","[""klivaslok"",""klivaslom""]","klivaslom","esp trial","6","true"
"html-button-response","100","542812","0.0-11.0-1.44","null","<p>A másik játékos ezt választotta: <b>klivaslom</b>.</p><p>&#x2705;</p><p>A te válaszod és a másik játékos válasza <b>megegyeznek</b>.</p>","null","","","","feedback trial","",""
"html-button-response-esp","101","547440","0.0-11.0-0.45","1245","Te bizony sokat bűtszöl. Én is sokat...","0","bűtszök","[""bűtszök"",""bűtszöm""]","bűtszöm","esp trial","6","false"
"html-button-response","102","550970","0.0-11.0-1.45","null","<p>A másik játékos ezt választotta: <b>bűtszöm</b>.</p><p>&#10060;</p><p>A válaszaitok <b>nem</b> egyeznek meg.</p>","null","","","","feedback trial","",""
"html-button-response-esp","103","555606","0.0-11.0-0.46","1423","Te bizony sokat salárzol. Én is sokat...","1","salárzom","[""salárzok"",""salárzom""]","salárzom","esp trial","6","true"
"html-button-response","104","559130","0.0-11.0-1.46","null","<p>A másik játékos ezt választotta: <b>salárzom</b>.</p><p>&#x2705;</p><p>A te válaszod és a másik játékos válasza <b>megegyeznek</b>.</p>","null","","","","feedback trial","",""
"html-button-response-esp","105","563760","0.0-11.0-0.47","1012","Te bizony sokat plugzol. Én is sokat...","1","plugzom","[""plugzok"",""plugzom""]","plugzok","esp trial","6","false"
"html-button-response","106","567291","0.0-11.0-1.47","null","<p>A másik játékos ezt választotta: <b>plugzok</b>.</p><p>&#10060;</p><p>A válaszaitok <b>nem</b> egyeznek meg.</p>","null","","","","feedback trial","",""
"html-button-response-esp","107","571929","0.0-11.0-0.48","1867","Te bizony sokat klétszel. Én is sokat...","1","klétszem","[""klétszek"",""klétszem""]","klétszek","esp trial","6","false"
"html-button-response","108","575445","0.0-11.0-1.48","null","<p>A másik játékos ezt választotta: <b>klétszek</b>.</p><p>&#10060;</p><p>A válaszaitok <b>nem</b> egyeznek meg.</p>","null","","","","feedback trial","",""
"html-button-response-esp","109","580080","0.0-11.0-0.49","2852","Te bizony sokat spáraklasz. Én is sokat...","1","spáraklom","[""spáraklok"",""spáraklom""]","spáraklom","esp trial","6","true"
"html-button-response","110","583597","0.0-11.0-1.49","null","<p>A másik játékos ezt választotta: <b>spáraklom</b>.</p><p>&#x2705;</p><p>A te válaszod és a másik játékos válasza <b>megegyeznek</b>.</p>","null","","","","feedback trial","",""
"html-button-response-esp","111","588235","0.0-11.0-0.50","1222","Te bizony sokat rokszol. Én is sokat...","0","rokszom","[""rokszom"",""rokszok""]","rokszok","esp trial","6","false"
"html-button-response","112","591758","0.0-11.0-1.50","null","<p>A másik játékos ezt választotta: <b>rokszok</b>.</p><p>&#10060;</p><p>A válaszaitok <b>nem</b> egyeznek meg.</p>","null","","","","feedback trial","",""
"html-button-response-esp","113","597037","0.0-11.0-0.51","4776","Te bizony sokat flehénylesz. Én is sokat...","0","flehénylek","[""flehénylek"",""flehénylem""]","flehénylem","esp trial","6","false"
"html-button-response","114","600574","0.0-11.0-1.51","null","<p>A másik játékos ezt választotta: <b>flehénylem</b>.</p><p>&#10060;</p><p>A válaszaitok <b>nem</b> egyeznek meg.</p>","null","","","","feedback trial","",""
"html-button-response-esp","115","605209","0.0-11.0-0.52","1164","Te bizony sokat treglesz. Én is sokat...","0","treglem","[""treglem"",""treglek""]","treglem","esp trial","6","true"
"html-button-response","116","608741","0.0-11.0-1.52","null","<p>A másik játékos ezt választotta: <b>treglem</b>.</p><p>&#x2705;</p><p>A te válaszod és a másik játékos válasza <b>megegyeznek</b>.</p>","null","","","","feedback trial","",""
"html-button-response-esp","117","613365","0.0-11.0-0.53","1316","Te bizony sokat spihegzel. Én is sokat...","1","spihegzem","[""spihegzek"",""spihegzem""]","spihegzem","esp trial","6","true"
"html-button-response","118","616895","0.0-11.0-1.53","null","<p>A másik játékos ezt választotta: <b>spihegzem</b>.</p><p>&#x2705;</p><p>A te válaszod és a másik játékos válasza <b>megegyeznek</b>.</p>","null","","","","feedback trial","",""
"html-button-response","119","626630","0.0-12.0","9210","<p>A közös játék most véget ért.</p><p>Mielőtt eláruljuk a végső pontszámodat, arra kérlek, játszd a szóválasztós játékot néhány percig egyedül is.</p><p>A feladatod ugyanaz lesz, választani két lehetőség közül.</p><p>Most viszont egyedül kell döntened, hogy te melyiket választanád.</p>","0","","","","","",""
"html-button-response-clever","120","633373","0.0-13.0-0.0","6231","Te bizony sokat flözlesz. Én is sokat...","1","flözlök","[""flözlöm"",""flözlök""]","","posttest trial","8",""
"html-button-response-clever","121","638831","0.0-13.0-0.1","4948","Te bizony sokat spibádzol. Én is sokat...","1","spibádzom","[""spibádzok"",""spibádzom""]","","posttest trial","8",""
"html-button-response-clever","122","644880","0.0-13.0-0.2","5539","Te bizony sokat brarlasz. Én is sokat...","1","brarlom","[""brarlok"",""brarlom""]","","posttest trial","8",""
"html-button-response-clever","123","650765","0.0-13.0-0.3","5369","Te bizony sokat flibekszel. Én is sokat...","0","flibekszem","[""flibekszem"",""flibekszek""]","","posttest trial","8",""
"html-button-response-clever","124","655805","0.0-13.0-0.4","4520","Te bizony sokat vihepszel. Én is sokat...","0","vihepszek","[""vihepszek"",""vihepszem""]","","posttest trial","8",""
"html-button-response-clever","125","660499","0.0-13.0-0.5","4183","Te bizony sokat mékszel. Én is sokat...","0","mékszem","[""mékszem"",""mékszek""]","","posttest trial","8",""
"html-button-response-clever","126","666476","0.0-13.0-0.6","5459","Te bizony sokat livaklasz. Én is sokat...","1","livaklom","[""livaklok"",""livaklom""]","","posttest trial","8",""
"html-button-response-clever","127","671201","0.0-13.0-0.7","4214","Te bizony sokat friszlasz. Én is sokat...","1","friszlok","[""friszlom"",""friszlok""]","","posttest trial","8",""
"html-button-response-clever","128","676109","0.0-13.0-0.8","4398","Te bizony sokat frágapszol. Én is sokat...","0","frágapszom","[""frágapszom"",""frágapszok""]","","posttest trial","8",""
"html-button-response-clever","129","680926","0.0-13.0-0.9","4311","Te bizony sokat fliraklasz. Én is sokat...","1","fliraklom","[""fliraklok"",""fliraklom""]","","posttest trial","8",""
"html-button-response-clever","130","687076","0.0-13.0-0.10","5633","Te bizony sokat klárzol. Én is sokat...","1","klárzom","[""klárzok"",""klárzom""]","","posttest trial","8",""
"html-button-response-clever","131","690711","0.0-13.0-0.11","3127","Te bizony sokat spüszlesz. Én is sokat...","1","spüszlök","[""spüszlöm"",""spüszlök""]","","posttest trial","8",""
"html-button-response-clever","132","693309","0.0-13.0-0.12","2089","Te bizony sokat zödlesz. Én is sokat...","1","zödlöm","[""zödlök"",""zödlöm""]","","posttest trial","8",""
"html-button-response-clever","133","695925","0.0-13.0-0.13","2096","Te bizony sokat fligzol. Én is sokat...","1","fligzom","[""fligzok"",""fligzom""]","","posttest trial","8",""
"html-button-response-clever","134","698236","0.0-13.0-0.14","1797","Te bizony sokat plágadzol. Én is sokat...","1","plágadzom","[""plágadzok"",""plágadzom""]","","posttest trial","8",""
"html-button-response-clever","135","699601","0.0-13.0-0.15","846","Te bizony sokat tuboklasz. Én is sokat...","1","tuboklom","[""tuboklok"",""tuboklom""]","","posttest trial","8",""
"html-button-response-clever","136","702493","0.0-13.0-0.16","2373","Te bizony sokat aglasz. Én is sokat...","0","aglom","[""aglom"",""aglok""]","","posttest trial","8",""
"html-button-response-clever","137","707706","0.0-13.0-0.17","4705","Te bizony sokat szűslesz. Én is sokat...","0","szűslöm","[""szűslöm"",""szűslök""]","","posttest trial","8",""
"html-button-response-clever","138","710812","0.0-13.0-0.18","2587","Te bizony sokat spírzol. Én is sokat...","1","spírzom","[""spírzok"",""spírzom""]","","posttest trial","8",""
"html-button-response-clever","139","714509","0.0-13.0-0.19","3183","Te bizony sokat prohódzol. Én is sokat...","1","prohódzom","[""prohódzok"",""prohódzom""]","","posttest trial","8",""
"html-button-response-clever","140","716872","0.0-13.0-0.20","1852","Te bizony sokat gyivádzol. Én is sokat...","1","gyivádzom","[""gyivádzok"",""gyivádzom""]","","posttest trial","8",""
"html-button-response-clever","141","719080","0.0-13.0-0.21","1697","Te bizony sokat plövőrzöl. Én is sokat...","1","plövőrzök","[""plövőrzöm"",""plövőrzök""]","","posttest trial","8",""
"html-button-response-clever","142","723457","0.0-13.0-0.22","3865","Te bizony sokat csólorzol. Én is sokat...","0","csólorzom","[""csólorzom"",""csólorzok""]","","posttest trial","8",""
"html-button-response-clever","143","728865","0.0-13.0-0.23","4889","Te bizony sokat gerénylesz. Én is sokat...","1","gerénylek","[""gerénylem"",""gerénylek""]","","posttest trial","8",""
"html-button-response-clever","144","732898","0.0-13.0-0.24","3521","Te bizony sokat sprálszol. Én is sokat...","1","sprálszom","[""sprálszok"",""sprálszom""]","","posttest trial","8",""
"html-button-response-clever","145","737613","0.0-13.0-0.25","4193","Te bizony sokat spatszol. Én is sokat...","1","spatszok","[""spatszom"",""spatszok""]","","posttest trial","8",""
"html-button-response-clever","146","744028","0.0-13.0-0.26","5902","Te bizony sokat praslasz. Én is sokat...","1","praslok","[""praslom"",""praslok""]","","posttest trial","8",""
"html-button-response-clever","147","748610","0.0-13.0-0.27","4062","Te bizony sokat fivénylesz. Én is sokat...","1","fivénylek","[""fivénylem"",""fivénylek""]","","posttest trial","8",""
"html-button-response-clever","148","752184","0.0-13.0-0.28","3055","Te bizony sokat táklasz. Én is sokat...","0","táklom","[""táklom"",""táklok""]","","posttest trial","8",""
"html-button-response-clever","149","759496","0.0-13.0-0.29","6799","Te bizony sokat féjzel. Én is sokat...","1","féjzem","[""féjzek"",""féjzem""]","","posttest trial","8",""
"html-button-response-clever","150","765176","0.0-13.0-0.30","5163","Te bizony sokat gilárzol. Én is sokat...","1","gilárzom","[""gilárzok"",""gilárzom""]","","posttest trial","8",""
"html-button-response-clever","151","766958","0.0-13.0-0.31","1271","Te bizony sokat pugoslasz. Én is sokat...","1","pugoslom","[""pugoslok"",""pugoslom""]","","posttest trial","8",""
"html-button-response-clever","152","769341","0.0-13.0-0.32","1871","Te bizony sokat sztruglasz. Én is sokat...","1","sztruglom","[""sztruglok"",""sztruglom""]","","posttest trial","8",""
"html-button-response-clever","153","772141","0.0-13.0-0.33","2289","Te bizony sokat bivejlesz. Én is sokat...","1","bivejlem","[""bivejlek"",""bivejlem""]","","posttest trial","8",""
"html-button-response-clever","154","777172","0.0-13.0-0.34","4517","Te bizony sokat drügzöl. Én is sokat...","1","drügzök","[""drügzöm"",""drügzök""]","","posttest trial","8",""
"html-button-response-clever","155","780054","0.0-13.0-0.35","2366","Te bizony sokat huklasz. Én is sokat...","1","huklom","[""huklok"",""huklom""]","","posttest trial","8",""
"html-button-response-clever","156","784840","0.0-13.0-0.36","4269","Te bizony sokat klidlasz. Én is sokat...","1","klidlom","[""klidlok"",""klidlom""]","","posttest trial","8",""
"html-button-response-clever","157","788201","0.0-13.0-0.37","2836","Te bizony sokat gyibakszol. Én is sokat...","0","gyibakszom","[""gyibakszom"",""gyibakszok""]","","posttest trial","8",""
"html-button-response-clever","158","791062","0.0-13.0-0.38","2345","Te bizony sokat trihagzol. Én is sokat...","0","trihagzom","[""trihagzom"",""trihagzok""]","","posttest trial","8",""
"html-button-response-clever","159","793027","0.0-13.0-0.39","1456","Te bizony sokat frivajlasz. Én is sokat...","0","frivajlom","[""frivajlom"",""frivajlok""]","","posttest trial","8",""
"html-button-response-clever","160","795023","0.0-13.0-0.40","1481","Te bizony sokat péleslesz. Én is sokat...","1","péleslem","[""péleslek"",""péleslem""]","","posttest trial","8",""
"html-button-response-clever","161","797823","0.0-13.0-0.41","2284","Te bizony sokat vűjlesz. Én is sokat...","1","vűjlöm","[""vűjlök"",""vűjlöm""]","","posttest trial","8",""
"html-button-response-clever","162","802162","0.0-13.0-0.42","3824","Te bizony sokat ibáglasz. Én is sokat...","1","ibáglok","[""ibáglom"",""ibáglok""]","","posttest trial","8",""
"html-button-response-clever","163","807877","0.0-13.0-0.43","5194","Te bizony sokat spülöklesz. Én is sokat...","1","spülöklök","[""spülöklöm"",""spülöklök""]","","posttest trial","8",""
"html-button-response-clever","164","812019","0.0-13.0-0.44","3631","Te bizony sokat kumlasz. Én is sokat...","1","kumlok","[""kumlom"",""kumlok""]","","posttest trial","8",""
"html-button-response-clever","165","815476","0.0-13.0-0.45","2942","Te bizony sokat spülőrzöl. Én is sokat...","0","spülőrzöm","[""spülőrzöm"",""spülőrzök""]","","posttest trial","8",""
"html-button-response-clever","166","818130","0.0-13.0-0.46","2141","Te bizony sokat floglasz. Én is sokat...","1","floglom","[""floglok"",""floglom""]","","posttest trial","8",""
"html-button-response-clever","167","824169","0.0-13.0-0.47","5516","Te bizony sokat spélszel. Én is sokat...","0","spélszem","[""spélszem"",""spélszek""]","","posttest trial","8",""
"html-button-response-clever","168","829262","0.0-13.0-0.48","4582","Te bizony sokat prezlesz. Én is sokat...","0","prezlem","[""prezlem"",""prezlek""]","","posttest trial","8",""
"html-button-response-clever","169","831991","0.0-13.0-0.49","2215","Te bizony sokat flérlesz. Én is sokat...","0","flérlem","[""flérlem"",""flérlek""]","","posttest trial","8",""
"html-button-response-clever","170","834435","0.0-13.0-0.50","1931","Te bizony sokat lihadzol. Én is sokat...","1","lihadzom","[""lihadzok"",""lihadzom""]","","posttest trial","8",""
"html-button-response-clever","171","836787","0.0-13.0-0.51","1835","Te bizony sokat prihekszel. Én is sokat...","1","prihekszem","[""prihekszek"",""prihekszem""]","","posttest trial","8",""
"html-button-response-clever","172","839394","0.0-13.0-0.52","2091","Te bizony sokat sprédlesz. Én is sokat...","1","sprédlek","[""sprédlem"",""sprédlek""]","","posttest trial","8",""
"html-button-response-clever","173","842225","0.0-13.0-0.53","2310","Te bizony sokat préleglesz. Én is sokat...","1","préleglem","[""préleglek"",""préleglem""]","","posttest trial","8",""
"html-button-response","174","851268","0.0-14.0","8522","<p> Vége a játéknak. A teljes pontszámod 28/54.</p><p> Szép munka! &#128526;&#128526;&#128526;</p><p>A Befejezés gomb megnyomása után bezárhatod a böngészőablakot.</p>","0","","","","","",""
"html-keyboard-response","175","856810","0.0-15.0","null","<div class=""message"">
         <p>Egy kis türelmet kérünk, amíg elmentjük az adatokat...</p>
         </div>","null","","","","","",""
