"trial_type","trial_index","time_elapsed","internal_node_id","rt","stimulus","response","response_string","choices","esp_response","trial_kind","list_number","esp_match"
"pavlovia","0","4738","0.0-0.0","","","","","","","","",""
"html-button-response","1","44318","0.0-1.0","39076","<p>Kedves Résztvevő! A Budapesti Műszaki és Gazdaságtudományi Egyetem Kognitív Tudományi Tanszékének kutatásában való részvételed kérjük. A kutatásban azt vizsgáljuk, hogy a magyar anyanyelvűek hogyan használnak bizonyos szóalakokat, és hogy milyen képük van arról, hogy mások hogyan használják, hogyan képzik a szavakat. Ez hozzásegít bennünket ahhoz, hogy jobban megértsük, hogyan dolgozza fel és tárolja a nyelvet az emberi agy, és hogyan működnek, hogyan változnak egy adott közösség nyelvi konvenciói.</p><p>A vizsgálat egy rövid számítógépes feladatból fog állni. A kutatásban való részvétel önkéntes, a részvételi szándék bármikor visszavonható. A résztvevők eredményeit név nélkül kezeljük, így nem beazonosíthatók az adatok feldolgozása során. Minden személyes adatot az EU általános adatvédelmi rendeletének (GDPR) megfelelően kezelünk és legfeljebb öt éven belül megsemmisítünk. A vizsgálat jellemzően húsz percet vesz igénybe.</p><p>Kutatásvezető:</p><p>Dr. Rácz Péter, tudományos munkatárs, BME KTT</p><p>e-mail: racz.peter.marton@ttk.bme.hu</p>","0","","","","","",""
"html-button-response","2","84438","0.0-2.0","39603","<p>A kísérletben szavakat fogsz látni. Ezek között lesznek olyanok, amelyeket ismersz, de előfordulhatnak olyanok is, amelyeket nem ismersz, sőt, vannak köztük kitalált szavak is. Minden szónál látni fogsz toldalékolt alakokat. A te feladatod az lesz, hogy minden szóhoz kiválaszd azt a toldalékolt alakot, amely a te számodra ismerősebben, természetesebben hangzik. Rossz válaszok nincsenek, mert van olyan, hogy különböző embereknek más és más szó tűnik jobb választásnak. A választ úgy tudod majd kiválasztani, ha rákattintasz.</p><p>Ebben a szóválasztós játékban egy másik játékossal együtt veszel majd részt. A másik játékos is minden esetben azok közül a lehetőségek közül válogathat, mint te. Kettőtök feladata az, hogy ugyanazt a lehetőséget válasszátok minden esetben. Ahhoz, hogy ez sikerüljön, neked figyelned kell arra, hogy a másik játékos milyen válaszokat ad, és ennek alapján meg kell tippelned, hogyan választ legközelebb. Ha eltalálod, akkor pontot kapsz.</p>","0","","","","","",""
"html-button-response","3","91126","0.0-3.0","6180","<p>Kérjük, olvasd el az alábbi nyilatkozatot, és amennyiben egyetértesz vele, nyomj a Beleegyezés gombra!</p><p>Kijelentem, hogy magyar anyanyelvű személyként önként veszek részt a BME KTT kísérletében. A kutatás céljával és folyamatával kapcsolatban elegendő tájékoztatást kaptam, lehetőségem volt kérdések feltételére, és esetleges kérdéseimre megfelelő válaszokat kaptam. A tájékoztatás alapján elegendő mennyiségű információ áll a rendelkezésemre, hogy eldönthessem, részt kívánok-e venni a kutatásban.</p><p>Tisztában vagyok vele, hogy részvételi szándékomat és adataimat bármikor, indoklás nélkül visszavonhatom.</p><p>Értem és tudomásul veszem, hogy a kutatás tudományos célokat szolgál, és az általam szolgáltatott adatokat a BME kizárólag kutatási célból használja fel. Tudomásul veszem, hogy eredményeimet a többi résztvevő eredményeivel együtt kezelik, így egyéni teljesítményemről visszajelzést, szakvéleményt nem kapok.</p><p>Megértettem, hogy adataim kezelését illetően a BME az EU általános adatvédelmi rendelete (GDPR), a hatályos adatvédelmi törvény és a nemzetközi kutatás-etikai alapelvek szerint jár el. Eredményeim anonim módon kerülnek feldolgozásra, és a kutatás résztvevői az azonosításomra alkalmas adataimat harmadik félnek nem szolgáltatják ki. Engedélyezem a BME számára a jelen kutatásban felvett adataim feldolgozását és tárolását, beleértve azok későbbi kutatásokhoz való felhasználását is. Személyes adataim kezelésével kapcsolatban tájékoztatást kérhetek a kutatás résztvevőitől, az adatkezelés ellen tiltakozhatok, kérhetem személyes adataim helyesbítését, törlését vagy zárolását, valamint jogorvoslatért a Nemzeti Adatvédelmi és Információszabadság Hatósághoz fordulhatok.</p><p>Kijelentem, hogy a kutatásban való részvételem körülményeiről részletes tájékoztatást kaptam, és a feltételeket elfogadom.</p>","0","","","","","",""
"survey-text","4","130047","0.0-4.0","38411","","{""Q0"":""DT1O4H"",""Q1"":""nő"",""Q2"":""1987"",""Q3"":""17""}","","","","","",""
"html-button-response","5","144230","0.0-5.0","13681","<p>Ebben a játékban szavakat kell toldalékolni.</p> <p>Minden körben mutatunk majd egy példamondatot, amiben lesz egy szó.</p> <p>Alatta jön egy második mondat, ezt a mondatot neked kell majd befejezni, ugyanezzel a szóval.</p> <p>Nem biztos, hogy a szó eleve ismerős lesz számodra!</p> <p>Minden mondathoz adunk két lehetőséget, ezeket balra és jobbra látod majd.</p> <p>A játék kb. negyedóráig-húsz percig tart.</p>","0","","","","","",""
"html-button-response","6","155766","0.0-6.0","11021","<p>Nézzünk egy példát!</p> <p>A példamondat: ""Ez itt egy blumbnyeg.""</p><p>Neked ezt a mondatot kell befejezned: ""Ott vagyunk a...""</p><p>A lehetőségek pedig ezek:</p>","0","","","","","",""
"html-button-response","7","163366","0.0-7.0","7098","<p>Nagyon jó.</p><p>Ezt a játékot nem egyedül fogod játszani, hanem egy másik játékossal.</p><p>Mielőtt továbblépünk, összekapcsolunk titeket egymással.</p><p>Ez igénybe vehet néhány másodpercet, amihez szíves türelmed kérjük.</p>","0","","","","","",""
"html-button-response","8","169102","0.0-8.0","null","<p>Csatlakozás a másik játékoshoz...</p>","null","","","","","",""
"html-button-response","9","171607","0.0-9.0","null","<p> Sikeres kapcsolódás!</p>","null","","","","","",""
"html-button-response","10","182134","0.0-10.0","null","<p>A következőkben ketten játsszátok a szóválasztós játékot.</p><p>A feladatotok az lesz, hogy minden körben <b>ugyanazt</b> a szót válasszátok.</p><p>Minden ilyen egyező válaszért pontot kaptok.</p><p>Próbáld meg kitalálni, mit választ a másik játékos!</p><p>Bármikor választhatsz, a körnek akkor van vége, ha mindketten döntöttetek.</p><p>Sok sikert!</p>","null","","","","","",""
"html-button-response-esp","11","188156","0.0-11.0-0.0","4201","Ez itt egy dunkész. Ott vagyunk a...","0","dunkészben","[""dunkészben"",""dunkészban""]","dunkészben","esp trial","6","true"
"html-button-response","12","191669","0.0-11.0-1.0","null","<p>A másik játékos ezt választotta: <b>dunkészben</b>.</p><p>&#x2705;</p><p>A te válaszod és a másik játékos válasza <b>megegyeznek</b>.</p>","null","","","","feedback trial","",""
"html-button-response-esp","13","197675","0.0-11.0-0.1","5128","Ez itt egy klazér. Ott vagyunk a...","1","klazérban","[""klazérben"",""klazérban""]","klazérben","esp trial","6","false"
"html-button-response","14","201208","0.0-11.0-1.1","null","<p>A másik játékos ezt választotta: <b>klazérben</b>.</p><p>&#10060;</p><p>A válaszaitok <b>nem</b> egyeznek meg.</p>","null","","","","feedback trial","",""
"html-button-response-esp","15","207211","0.0-11.0-0.2","5488","Ez itt egy lijez. Elneveztem a kutyámat...","1","lijeznek","[""lijeznak"",""lijeznek""]","lijeznak","esp trial","6","false"
"html-button-response","16","210720","0.0-11.0-1.2","null","<p>A másik játékos ezt választotta: <b>lijeznak</b>.</p><p>&#10060;</p><p>A válaszaitok <b>nem</b> egyeznek meg.</p>","null","","","","feedback trial","",""
"html-button-response-esp","17","216746","0.0-11.0-0.3","3743","Ez itt egy dinelt. Ott vagyunk a...","0","dineltban","[""dineltban"",""dineltben""]","dineltban","esp trial","6","true"
"html-button-response","18","220264","0.0-11.0-1.3","null","<p>A másik játékos ezt választotta: <b>dineltban</b>.</p><p>&#x2705;</p><p>A te válaszod és a másik játékos válasza <b>megegyeznek</b>.</p>","null","","","","feedback trial","",""
"html-button-response-esp","19","226270","0.0-11.0-0.4","5286","Ez itt egy lingék. Nincs is jobb egy jó...","1","lingéknél","[""lingéknál"",""lingéknél""]","lingéknál","esp trial","6","false"
"html-button-response","20","229777","0.0-11.0-1.4","null","<p>A másik játékos ezt választotta: <b>lingéknál</b>.</p><p>&#10060;</p><p>A válaszaitok <b>nem</b> egyeznek meg.</p>","null","","","","feedback trial","",""
"html-button-response-esp","21","235784","0.0-11.0-0.5","2755","Ez itt egy dibez. Ott vagyunk a...","1","dibezban","[""dibezben"",""dibezban""]","dibezban","esp trial","6","true"
"html-button-response","22","239296","0.0-11.0-1.5","null","<p>A másik játékos ezt választotta: <b>dibezban</b>.</p><p>&#x2705;</p><p>A te válaszod és a másik játékos válasza <b>megegyeznek</b>.</p>","null","","","","feedback trial","",""
"html-button-response-esp","23","245320","0.0-11.0-0.6","3656","Ez itt egy jutély. Nincs is jobb egy jó...","1","jutélynál","[""jutélynél"",""jutélynál""]","jutélynél","esp trial","6","false"
"html-button-response","24","248836","0.0-11.0-1.6","null","<p>A másik játékos ezt választotta: <b>jutélynél</b>.</p><p>&#10060;</p><p>A válaszaitok <b>nem</b> egyeznek meg.</p>","null","","","","feedback trial","",""
"html-button-response-esp","25","254857","0.0-11.0-0.7","4566","Ez itt egy zábény. Elneveztem a kutyámat...","0","zábénynak","[""zábénynak"",""zábénynek""]","zábénynek","esp trial","6","false"
"html-button-response","26","258373","0.0-11.0-1.7","null","<p>A másik játékos ezt választotta: <b>zábénynek</b>.</p><p>&#10060;</p><p>A válaszaitok <b>nem</b> egyeznek meg.</p>","null","","","","feedback trial","",""
"html-button-response-esp","27","264415","0.0-11.0-0.8","5534","Ez itt egy dajrens. Nincs is jobb egy jó...","1","dajrensnál","[""dajrensnél"",""dajrensnál""]","dajrensnél","esp trial","6","false"
"html-button-response","28","267918","0.0-11.0-1.8","null","<p>A másik játékos ezt választotta: <b>dajrensnél</b>.</p><p>&#10060;</p><p>A válaszaitok <b>nem</b> egyeznek meg.</p>","null","","","","feedback trial","",""
"html-button-response-esp","29","277094","0.0-11.0-0.9","8674","Ez itt egy szanéj. Elneveztem a kutyámat...","0","szanéjnak","[""szanéjnak"",""szanéjnek""]","szanéjnek","esp trial","6","false"
"html-button-response","30","280611","0.0-11.0-1.9","null","<p>A másik játékos ezt választotta: <b>szanéjnek</b>.</p><p>&#10060;</p><p>A válaszaitok <b>nem</b> egyeznek meg.</p>","null","","","","feedback trial","",""
"html-button-response-esp","31","286623","0.0-11.0-0.10","3948","Ez itt egy briskéd. Nincs is jobb egy jó...","1","briskédnál","[""briskédnél"",""briskédnál""]","briskédnél","esp trial","6","false"
"html-button-response","32","290139","0.0-11.0-1.10","null","<p>A másik játékos ezt választotta: <b>briskédnél</b>.</p><p>&#10060;</p><p>A válaszaitok <b>nem</b> egyeznek meg.</p>","null","","","","feedback trial","",""
"html-button-response-esp","33","296157","0.0-11.0-0.11","3756","Ez itt egy lihény. Elneveztem a kutyámat...","0","lihénynak","[""lihénynak"",""lihénynek""]","lihénynak","esp trial","6","true"
"html-button-response","34","299673","0.0-11.0-1.11","null","<p>A másik játékos ezt választotta: <b>lihénynak</b>.</p><p>&#x2705;</p><p>A te válaszod és a másik játékos válasza <b>megegyeznek</b>.</p>","null","","","","feedback trial","",""
"html-button-response-esp","35","306558","0.0-11.0-0.12","6377","Ez itt egy fágyép. Nincs is jobb egy jó...","0","fágyépnél","[""fágyépnél"",""fágyépnál""]","fágyépnél","esp trial","6","true"
"html-button-response","36","310073","0.0-11.0-1.12","null","<p>A másik játékos ezt választotta: <b>fágyépnél</b>.</p><p>&#x2705;</p><p>A te válaszod és a másik játékos válasza <b>megegyeznek</b>.</p>","null","","","","feedback trial","",""
"html-button-response-esp","37","316092","0.0-11.0-0.13","3966","Ez itt egy trodély. Ott vagyunk a...","1","trodélyban","[""trodélyben"",""trodélyban""]","trodélyben","esp trial","6","false"
"html-button-response","38","319622","0.0-11.0-1.13","null","<p>A másik játékos ezt választotta: <b>trodélyben</b>.</p><p>&#10060;</p><p>A válaszaitok <b>nem</b> egyeznek meg.</p>","null","","","","feedback trial","",""
"html-button-response-esp","39","325645","0.0-11.0-0.14","3924","Ez itt egy sihen. Nincs is jobb egy jó...","0","sihennél","[""sihennél"",""sihennál""]","sihennál","esp trial","6","false"
"html-button-response","40","329164","0.0-11.0-1.14","null","<p>A másik játékos ezt választotta: <b>sihennál</b>.</p><p>&#10060;</p><p>A válaszaitok <b>nem</b> egyeznek meg.</p>","null","","","","feedback trial","",""
"html-button-response-esp","41","335171","0.0-11.0-0.15","5147","Ez itt egy pristél. Ott vagyunk a...","1","pristélban","[""pristélben"",""pristélban""]","pristélban","esp trial","6","true"
"html-button-response","42","338681","0.0-11.0-1.15","null","<p>A másik játékos ezt választotta: <b>pristélban</b>.</p><p>&#x2705;</p><p>A te válaszod és a másik játékos válasza <b>megegyeznek</b>.</p>","null","","","","feedback trial","",""
"html-button-response-esp","43","344699","0.0-11.0-0.16","4203","Ez itt egy fojlegy. Elneveztem a kutyámat...","0","fojlegynak","[""fojlegynak"",""fojlegynek""]","fojlegynak","esp trial","6","true"
"html-button-response","44","348221","0.0-11.0-1.16","null","<p>A másik játékos ezt választotta: <b>fojlegynak</b>.</p><p>&#x2705;</p><p>A te válaszod és a másik játékos válasza <b>megegyeznek</b>.</p>","null","","","","feedback trial","",""
"html-button-response-esp","45","354239","0.0-11.0-0.17","4407","Ez itt egy murdes. Nincs is jobb egy jó...","1","murdesnál","[""murdesnél"",""murdesnál""]","murdesnél","esp trial","6","false"
"html-button-response","46","357764","0.0-11.0-1.17","null","<p>A másik játékos ezt választotta: <b>murdesnél</b>.</p><p>&#10060;</p><p>A válaszaitok <b>nem</b> egyeznek meg.</p>","null","","","","feedback trial","",""
"html-button-response-esp","47","363776","0.0-11.0-0.18","3491","Ez itt egy fupét. Nincs is jobb egy jó...","0","fupétnél","[""fupétnél"",""fupétnál""]","fupétnél","esp trial","6","true"
"html-button-response","48","367298","0.0-11.0-1.18","null","<p>A másik játékos ezt választotta: <b>fupétnél</b>.</p><p>&#x2705;</p><p>A te válaszod és a másik játékos válasza <b>megegyeznek</b>.</p>","null","","","","feedback trial","",""
"html-button-response-esp","49","373598","0.0-11.0-0.19","5786","Ez itt egy vodec. Nincs is jobb egy jó...","1","vodecnél","[""vodecnál"",""vodecnél""]","vodecnél","esp trial","6","true"
"html-button-response","50","377122","0.0-11.0-1.19","null","<p>A másik játékos ezt választotta: <b>vodecnél</b>.</p><p>&#x2705;</p><p>A te válaszod és a másik játékos válasza <b>megegyeznek</b>.</p>","null","","","","feedback trial","",""
"html-button-response-esp","51","383133","0.0-11.0-0.20","3459","Ez itt egy tumély. Nincs is jobb egy jó...","0","tumélynál","[""tumélynál"",""tumélynél""]","tumélynél","esp trial","6","false"
"html-button-response","52","386645","0.0-11.0-1.20","null","<p>A másik játékos ezt választotta: <b>tumélynél</b>.</p><p>&#10060;</p><p>A válaszaitok <b>nem</b> egyeznek meg.</p>","null","","","","feedback trial","",""
"html-button-response-esp","53","392670","0.0-11.0-0.21","4201","Ez itt egy trikép. Ott vagyunk a...","1","triképban","[""triképben"",""triképban""]","triképban","esp trial","6","true"
"html-button-response","54","396183","0.0-11.0-1.21","null","<p>A másik játékos ezt választotta: <b>triképban</b>.</p><p>&#x2705;</p><p>A te válaszod és a másik játékos válasza <b>megegyeznek</b>.</p>","null","","","","feedback trial","",""
"html-button-response-esp","55","402198","0.0-11.0-0.22","4336","Ez itt egy klajrén. Elneveztem a kutyámat...","1","klajrénnek","[""klajrénnak"",""klajrénnek""]","klajrénnek","esp trial","6","true"
"html-button-response","56","405701","0.0-11.0-1.22","null","<p>A másik játékos ezt választotta: <b>klajrénnek</b>.</p><p>&#x2705;</p><p>A te válaszod és a másik játékos válasza <b>megegyeznek</b>.</p>","null","","","","feedback trial","",""
"html-button-response-esp","57","411715","0.0-11.0-0.23","3361","Ez itt egy kátéd. Nincs is jobb egy jó...","1","kátédnál","[""kátédnél"",""kátédnál""]","kátédnél","esp trial","6","false"
"html-button-response","58","415243","0.0-11.0-1.23","null","<p>A másik játékos ezt választotta: <b>kátédnél</b>.</p><p>&#10060;</p><p>A válaszaitok <b>nem</b> egyeznek meg.</p>","null","","","","feedback trial","",""
"html-button-response-esp","59","423230","0.0-11.0-0.24","7484","Ez itt egy humék. Elneveztem a kutyámat...","0","huméknak","[""huméknak"",""huméknek""]","huméknek","esp trial","6","false"
"html-button-response","60","426754","0.0-11.0-1.24","null","<p>A másik játékos ezt választotta: <b>huméknek</b>.</p><p>&#10060;</p><p>A válaszaitok <b>nem</b> egyeznek meg.</p>","null","","","","feedback trial","",""
"html-button-response-esp","61","432760","0.0-11.0-0.25","3317","Ez itt egy dutec. Nincs is jobb egy jó...","0","dutecnál","[""dutecnál"",""dutecnél""]","dutecnél","esp trial","6","false"
"html-button-response","62","436273","0.0-11.0-1.25","null","<p>A másik játékos ezt választotta: <b>dutecnél</b>.</p><p>&#10060;</p><p>A válaszaitok <b>nem</b> egyeznek meg.</p>","null","","","","feedback trial","",""
"html-button-response-esp","63","442290","0.0-11.0-0.26","3463","Ez itt egy dóbem. Elneveztem a kutyámat...","0","dóbemnak","[""dóbemnak"",""dóbemnek""]","dóbemnek","esp trial","6","false"
"html-button-response","64","445815","0.0-11.0-1.26","null","<p>A másik játékos ezt választotta: <b>dóbemnek</b>.</p><p>&#10060;</p><p>A válaszaitok <b>nem</b> egyeznek meg.</p>","null","","","","feedback trial","",""
"html-button-response-esp","65","451831","0.0-11.0-0.27","3068","Ez itt egy spatel. Elneveztem a kutyámat...","0","spatelnek","[""spatelnek"",""spatelnak""]","spatelnek","esp trial","6","true"
"html-button-response","66","455361","0.0-11.0-1.27","null","<p>A másik játékos ezt választotta: <b>spatelnek</b>.</p><p>&#x2705;</p><p>A te válaszod és a másik játékos válasza <b>megegyeznek</b>.</p>","null","","","","feedback trial","",""
"html-button-response-esp","67","461387","0.0-11.0-0.28","3580","Ez itt egy klítegy. Nincs is jobb egy jó...","0","klítegynél","[""klítegynél"",""klítegynál""]","klítegynél","esp trial","6","true"
"html-button-response","68","464906","0.0-11.0-1.28","null","<p>A másik játékos ezt választotta: <b>klítegynél</b>.</p><p>&#x2705;</p><p>A te válaszod és a másik játékos válasza <b>megegyeznek</b>.</p>","null","","","","feedback trial","",""
"html-button-response-esp","69","470910","0.0-11.0-0.29","2862","Ez itt egy vurnel. Elneveztem a kutyámat...","0","vurnelnek","[""vurnelnek"",""vurnelnak""]","vurnelnek","esp trial","6","true"
"html-button-response","70","474429","0.0-11.0-1.29","null","<p>A másik játékos ezt választotta: <b>vurnelnek</b>.</p><p>&#x2705;</p><p>A te válaszod és a másik játékos válasza <b>megegyeznek</b>.</p>","null","","","","feedback trial","",""
"html-button-response-esp","71","480442","0.0-11.0-0.30","3526","Ez itt egy zatéj. Nincs is jobb egy jó...","1","zatéjnál","[""zatéjnél"",""zatéjnál""]","zatéjnél","esp trial","6","false"
"html-button-response","72","483950","0.0-11.0-1.30","null","<p>A másik játékos ezt választotta: <b>zatéjnél</b>.</p><p>&#10060;</p><p>A válaszaitok <b>nem</b> egyeznek meg.</p>","null","","","","feedback trial","",""
"html-button-response-esp","73","489963","0.0-11.0-0.31","3393","Ez itt egy csodeg. Nincs is jobb egy jó...","1","csodegnál","[""csodegnél"",""csodegnál""]","csodegnél","esp trial","6","false"
"html-button-response","74","493493","0.0-11.0-1.31","null","<p>A másik játékos ezt választotta: <b>csodegnél</b>.</p><p>&#10060;</p><p>A válaszaitok <b>nem</b> egyeznek meg.</p>","null","","","","feedback trial","",""
"html-button-response-esp","75","499507","0.0-11.0-0.32","3104","Ez itt egy spivél. Elneveztem a kutyámat...","0","spivélnek","[""spivélnek"",""spivélnak""]","spivélnek","esp trial","6","true"
"html-button-response","76","503036","0.0-11.0-1.32","null","<p>A másik játékos ezt választotta: <b>spivélnek</b>.</p><p>&#x2705;</p><p>A te válaszod és a másik játékos válasza <b>megegyeznek</b>.</p>","null","","","","feedback trial","",""
"html-button-response-esp","77","509039","0.0-11.0-0.33","2307","Ez itt egy fizend. Ott vagyunk a...","0","fizendben","[""fizendben"",""fizendban""]","fizendban","esp trial","6","false"
"html-button-response","78","512549","0.0-11.0-1.33","null","<p>A másik játékos ezt választotta: <b>fizendban</b>.</p><p>&#10060;</p><p>A válaszaitok <b>nem</b> egyeznek meg.</p>","null","","","","feedback trial","",""
"html-button-response-esp","79","518553","0.0-11.0-0.34","4323","Ez itt egy zuten. Nincs is jobb egy jó...","1","zutennál","[""zutennél"",""zutennál""]","zutennél","esp trial","6","false"
"html-button-response","80","522076","0.0-11.0-1.34","null","<p>A másik játékos ezt választotta: <b>zutennél</b>.</p><p>&#10060;</p><p>A válaszaitok <b>nem</b> egyeznek meg.</p>","null","","","","feedback trial","",""
"html-button-response-esp","81","528085","0.0-11.0-0.35","2690","Ez itt egy tivenc. Ott vagyunk a...","0","tivencben","[""tivencben"",""tivencban""]","tivencben","esp trial","6","true"
"html-button-response","82","531598","0.0-11.0-1.35","null","<p>A másik játékos ezt választotta: <b>tivencben</b>.</p><p>&#x2705;</p><p>A te válaszod és a másik játékos válasza <b>megegyeznek</b>.</p>","null","","","","feedback trial","",""
"html-button-response-esp","83","537616","0.0-11.0-0.36","3274","Ez itt egy surnegy. Nincs is jobb egy jó...","1","surnegynál","[""surnegynél"",""surnegynál""]","surnegynél","esp trial","6","false"
"html-button-response","84","541125","0.0-11.0-1.36","null","<p>A másik játékos ezt választotta: <b>surnegynél</b>.</p><p>&#10060;</p><p>A válaszaitok <b>nem</b> egyeznek meg.</p>","null","","","","feedback trial","",""
"html-button-response-esp","85","547136","0.0-11.0-0.37","2562","Ez itt egy pazév. Nincs is jobb egy jó...","1","pazévnál","[""pazévnél"",""pazévnál""]","pazévnél","esp trial","6","false"
"html-button-response","86","550651","0.0-11.0-1.37","null","<p>A másik játékos ezt választotta: <b>pazévnél</b>.</p><p>&#10060;</p><p>A válaszaitok <b>nem</b> egyeznek meg.</p>","null","","","","feedback trial","",""
"html-button-response-esp","87","556666","0.0-11.0-0.38","2456","Ez itt egy szibed. Ott vagyunk a...","0","szibedben","[""szibedben"",""szibedban""]","szibedban","esp trial","6","false"
"html-button-response","88","560190","0.0-11.0-1.38","null","<p>A másik játékos ezt választotta: <b>szibedban</b>.</p><p>&#10060;</p><p>A válaszaitok <b>nem</b> egyeznek meg.</p>","null","","","","feedback trial","",""
"html-button-response-esp","89","566202","0.0-11.0-0.39","2712","Ez itt egy hijegy. Nincs is jobb egy jó...","1","hijegynél","[""hijegynál"",""hijegynél""]","hijegynál","esp trial","6","false"
"html-button-response","90","569714","0.0-11.0-1.39","null","<p>A másik játékos ezt választotta: <b>hijegynál</b>.</p><p>&#10060;</p><p>A válaszaitok <b>nem</b> egyeznek meg.</p>","null","","","","feedback trial","",""
"html-button-response-esp","91","575727","0.0-11.0-0.40","2703","Ez itt egy bingéj. Elneveztem a kutyámat...","1","bingéjnak","[""bingéjnek"",""bingéjnak""]","bingéjnek","esp trial","6","false"
"html-button-response","92","579237","0.0-11.0-1.40","null","<p>A másik játékos ezt választotta: <b>bingéjnek</b>.</p><p>&#10060;</p><p>A válaszaitok <b>nem</b> egyeznek meg.</p>","null","","","","feedback trial","",""
"html-button-response-esp","93","585254","0.0-11.0-0.41","2547","Ez itt egy mádép. Nincs is jobb egy jó...","0","mádépnál","[""mádépnál"",""mádépnél""]","mádépnél","esp trial","6","false"
"html-button-response","94","588768","0.0-11.0-1.41","null","<p>A másik játékos ezt választotta: <b>mádépnél</b>.</p><p>&#10060;</p><p>A válaszaitok <b>nem</b> egyeznek meg.</p>","null","","","","feedback trial","",""
"html-button-response-esp","95","594787","0.0-11.0-0.42","3260","Ez itt egy csublény. Ott vagyunk a...","1","csublényban","[""csublényben"",""csublényban""]","csublényben","esp trial","6","false"
"html-button-response","96","598305","0.0-11.0-1.42","null","<p>A másik játékos ezt választotta: <b>csublényben</b>.</p><p>&#10060;</p><p>A válaszaitok <b>nem</b> egyeznek meg.</p>","null","","","","feedback trial","",""
"html-button-response-esp","97","604326","0.0-11.0-0.43","2562","Ez itt egy zined. Elneveztem a kutyámat...","0","zinednak","[""zinednak"",""zinednek""]","zinednak","esp trial","6","true"
"html-button-response","98","607853","0.0-11.0-1.43","null","<p>A másik játékos ezt választotta: <b>zinednak</b>.</p><p>&#x2705;</p><p>A te válaszod és a másik játékos válasza <b>megegyeznek</b>.</p>","null","","","","feedback trial","",""
"html-button-response-esp","99","613870","0.0-11.0-0.44","2777","Ez itt egy hosét. Elneveztem a kutyámat...","1","hosétnak","[""hosétnek"",""hosétnak""]","hosétnek","esp trial","6","false"
"html-button-response","100","617393","0.0-11.0-1.44","null","<p>A másik játékos ezt választotta: <b>hosétnek</b>.</p><p>&#10060;</p><p>A válaszaitok <b>nem</b> egyeznek meg.</p>","null","","","","feedback trial","",""
"html-button-response-esp","101","623418","0.0-11.0-0.45","3135","Ez itt egy zarcég. Nincs is jobb egy jó...","0","zarcégnél","[""zarcégnél"",""zarcégnál""]","zarcégnél","esp trial","6","true"
"html-button-response","102","626929","0.0-11.0-1.45","null","<p>A másik játékos ezt választotta: <b>zarcégnél</b>.</p><p>&#x2705;</p><p>A te válaszod és a másik játékos válasza <b>megegyeznek</b>.</p>","null","","","","feedback trial","",""
"html-button-response-esp","103","632933","0.0-11.0-0.46","4174","Ez itt egy spizec. Elneveztem a kutyámat...","0","spizecnek","[""spizecnek"",""spizecnak""]","spizecnak","esp trial","6","false"
"html-button-response","104","636460","0.0-11.0-1.46","null","<p>A másik játékos ezt választotta: <b>spizecnak</b>.</p><p>&#10060;</p><p>A válaszaitok <b>nem</b> egyeznek meg.</p>","null","","","","feedback trial","",""
"html-button-response-esp","105","642481","0.0-11.0-0.47","3191","Ez itt egy zsalrén. Elneveztem a kutyámat...","1","zsalrénnek","[""zsalrénnak"",""zsalrénnek""]","zsalrénnek","esp trial","6","true"
"html-button-response","106","646006","0.0-11.0-1.47","null","<p>A másik játékos ezt választotta: <b>zsalrénnek</b>.</p><p>&#x2705;</p><p>A te válaszod és a másik játékos válasza <b>megegyeznek</b>.</p>","null","","","","feedback trial","",""
"html-button-response-esp","107","652025","0.0-11.0-0.48","3461","Ez itt egy cságyelt. Ott vagyunk a...","1","cságyeltben","[""cságyeltban"",""cságyeltben""]","cságyeltben","esp trial","6","true"
"html-button-response","108","655535","0.0-11.0-1.48","null","<p>A másik játékos ezt választotta: <b>cságyeltben</b>.</p><p>&#x2705;</p><p>A te válaszod és a másik játékos válasza <b>megegyeznek</b>.</p>","null","","","","feedback trial","",""
"html-button-response-esp","109","661554","0.0-11.0-0.49","3901","Ez itt egy jurdent. Nincs is jobb egy jó...","0","jurdentnél","[""jurdentnél"",""jurdentnál""]","jurdentnél","esp trial","6","true"
"html-button-response","110","665059","0.0-11.0-1.49","null","<p>A másik játékos ezt választotta: <b>jurdentnél</b>.</p><p>&#x2705;</p><p>A te válaszod és a másik játékos válasza <b>megegyeznek</b>.</p>","null","","","","feedback trial","",""
"html-button-response-esp","111","671069","0.0-11.0-0.50","3705","Ez itt egy gábéd. Nincs is jobb egy jó...","0","gábédnél","[""gábédnél"",""gábédnál""]","gábédnél","esp trial","6","true"
"html-button-response","112","674579","0.0-11.0-1.50","null","<p>A másik játékos ezt választotta: <b>gábédnél</b>.</p><p>&#x2705;</p><p>A te válaszod és a másik játékos válasza <b>megegyeznek</b>.</p>","null","","","","feedback trial","",""
"html-button-response-esp","113","680598","0.0-11.0-0.51","2704","Ez itt egy vismer. Nincs is jobb egy jó...","0","vismernél","[""vismernél"",""vismernál""]","vismernál","esp trial","6","false"
"html-button-response","114","684121","0.0-11.0-1.51","null","<p>A másik játékos ezt választotta: <b>vismernál</b>.</p><p>&#10060;</p><p>A válaszaitok <b>nem</b> egyeznek meg.</p>","null","","","","feedback trial","",""
"html-button-response-esp","115","690124","0.0-11.0-0.52","2487","Ez itt egy tarhéz. Ott vagyunk a...","0","tarhézban","[""tarhézban"",""tarhézben""]","tarhézben","esp trial","6","false"
"html-button-response","116","693640","0.0-11.0-1.52","null","<p>A másik játékos ezt választotta: <b>tarhézben</b>.</p><p>&#10060;</p><p>A válaszaitok <b>nem</b> egyeznek meg.</p>","null","","","","feedback trial","",""
"html-button-response-esp","117","699651","0.0-11.0-0.53","3304","Ez itt egy nuhét. Nincs is jobb egy jó...","0","nuhétnél","[""nuhétnél"",""nuhétnál""]","nuhétnél","esp trial","6","true"
"html-button-response","118","703166","0.0-11.0-1.53","null","<p>A másik játékos ezt választotta: <b>nuhétnél</b>.</p><p>&#x2705;</p><p>A te válaszod és a másik játékos válasza <b>megegyeznek</b>.</p>","null","","","","feedback trial","",""
"html-button-response","119","713285","0.0-12.0","9603","<p>A közös játék most véget ért.</p><p>Mielőtt eláruljuk a végső pontszámodat, arra kérlek, játszd a szóválasztós játékot néhány percig egyedül is.</p><p>A feladatod ugyanaz lesz, választani két lehetőség közül.</p><p>Most viszont egyedül kell döntened, hogy te melyiket választanád.</p>","0","","","","","",""
"html-button-response-clever","120","716893","0.0-13.0-0.0","3104","Ez itt egy trincseg. Ott vagyunk a...","0","trincsegben","[""trincsegben"",""trincsegban""]","","posttest trial","8",""
"html-button-response-clever","121","721541","0.0-13.0-0.1","4132","Ez itt egy brukész. Nincs is jobb egy jó...","1","brukésznél","[""brukésznál"",""brukésznél""]","","posttest trial","8",""
"html-button-response-clever","122","728045","0.0-13.0-0.2","5993","Ez itt egy vublet. Nincs is jobb egy jó...","0","vubletnél","[""vubletnél"",""vubletnál""]","","posttest trial","8",""
"html-button-response-clever","123","731597","0.0-13.0-0.3","3047","Ez itt egy forzéd. Elneveztem a kutyámat...","0","forzédnak","[""forzédnak"",""forzédnek""]","","posttest trial","8",""
"html-button-response-clever","124","735501","0.0-13.0-0.4","3400","Ez itt egy dingec. Elneveztem a kutyámat...","1","dingecnek","[""dingecnak"",""dingecnek""]","","posttest trial","8",""
"html-button-response-clever","125","740501","0.0-13.0-0.5","4483","Ez itt egy jorzég. Elneveztem a kutyámat...","1","jorzégnak","[""jorzégnek"",""jorzégnak""]","","posttest trial","8",""
"html-button-response-clever","126","743965","0.0-13.0-0.6","2952","Ez itt egy csimen. Nincs is jobb egy jó...","1","csimennél","[""csimennál"",""csimennél""]","","posttest trial","8",""
"html-button-response-clever","127","747621","0.0-13.0-0.7","3144","Ez itt egy spáten. Elneveztem a kutyámat...","0","spátennek","[""spátennek"",""spátennak""]","","posttest trial","8",""
"html-button-response-clever","128","751557","0.0-13.0-0.8","3422","Ez itt egy csinték. Ott vagyunk a...","0","csintékben","[""csintékben"",""csintékban""]","","posttest trial","8",""
"html-button-response-clever","129","755501","0.0-13.0-0.9","3429","Ez itt egy gonszék. Nincs is jobb egy jó...","1","gonszéknál","[""gonszéknél"",""gonszéknál""]","","posttest trial","8",""
"html-button-response-clever","130","759461","0.0-13.0-0.10","3456","Ez itt egy licegy. Ott vagyunk a...","0","licegyben","[""licegyben"",""licegyban""]","","posttest trial","8",""
"html-button-response-clever","131","761973","0.0-13.0-0.11","2001","Ez itt egy nidét. Ott vagyunk a...","1","nidétben","[""nidétban"",""nidétben""]","","posttest trial","8",""
"html-button-response-clever","132","765621","0.0-13.0-0.12","3147","Ez itt egy trapszegy. Nincs is jobb egy jó...","1","trapszegynál","[""trapszegynél"",""trapszegynál""]","","posttest trial","8",""
"html-button-response-clever","133","769877","0.0-13.0-0.13","3742","Ez itt egy sporzem. Elneveztem a kutyámat...","1","sporzemnek","[""sporzemnak"",""sporzemnek""]","","posttest trial","8",""
"html-button-response-clever","134","772965","0.0-13.0-0.14","2585","Ez itt egy bidem. Ott vagyunk a...","0","bidemben","[""bidemben"",""bidemban""]","","posttest trial","8",""
"html-button-response-clever","135","775525","0.0-13.0-0.15","2059","Ez itt egy vodép. Elneveztem a kutyámat...","0","vodépnek","[""vodépnek"",""vodépnak""]","","posttest trial","8",""
"html-button-response-clever","136","779869","0.0-13.0-0.16","3840","Ez itt egy brotes. Ott vagyunk a...","1","brotesban","[""brotesben"",""brotesban""]","","posttest trial","8",""
"html-button-response-clever","137","782733","0.0-13.0-0.17","2358","Ez itt egy trigenc. Elneveztem a kutyámat...","0","trigencnek","[""trigencnek"",""trigencnak""]","","posttest trial","8",""
"html-button-response-clever","138","786141","0.0-13.0-0.18","2897","Ez itt egy kadér. Nincs is jobb egy jó...","0","kadérnál","[""kadérnál"",""kadérnél""]","","posttest trial","8",""
"html-button-response-clever","139","795349","0.0-13.0-0.19","8693","Ez itt egy tranék. Ott vagyunk a...","1","tranékban","[""tranékben"",""tranékban""]","","posttest trial","8",""
"html-button-response-clever","140","798157","0.0-13.0-0.20","2302","Ez itt egy matéz. Ott vagyunk a...","1","matézban","[""matézben"",""matézban""]","","posttest trial","8",""
"html-button-response-clever","141","801205","0.0-13.0-0.21","2538","Ez itt egy hivép. Ott vagyunk a...","0","hivépben","[""hivépben"",""hivépban""]","","posttest trial","8",""
"html-button-response-clever","142","804541","0.0-13.0-0.22","2822","Ez itt egy jábéz. Ott vagyunk a...","0","jábézban","[""jábézban"",""jábézben""]","","posttest trial","8",""
"html-button-response-clever","143","809925","0.0-13.0-0.23","4875","Ez itt egy prately. Elneveztem a kutyámat...","0","pratelynek","[""pratelynek"",""pratelynak""]","","posttest trial","8",""
"html-button-response-clever","144","815669","0.0-13.0-0.24","5239","Ez itt egy jalrény. Nincs is jobb egy jó...","1","jalrénynél","[""jalrénynál"",""jalrénynél""]","","posttest trial","8",""
"html-button-response-clever","145","819173","0.0-13.0-0.25","2993","Ez itt egy csartény. Elneveztem a kutyámat...","1","csarténynek","[""csarténynak"",""csarténynek""]","","posttest trial","8",""
"html-button-response-clever","146","822677","0.0-13.0-0.26","3002","Ez itt egy gótem. Elneveztem a kutyámat...","0","gótemnek","[""gótemnek"",""gótemnak""]","","posttest trial","8",""
"html-button-response-clever","147","826165","0.0-13.0-0.27","2976","Ez itt egy kábesz. Nincs is jobb egy jó...","1","kábesznál","[""kábesznél"",""kábesznál""]","","posttest trial","8",""
"html-button-response-clever","148","832541","0.0-13.0-0.28","5867","Ez itt egy brágéd. Elneveztem a kutyámat...","1","brágédnek","[""brágédnak"",""brágédnek""]","","posttest trial","8",""
"html-button-response-clever","149","836413","0.0-13.0-0.29","3362","Ez itt egy nyarcéj. Elneveztem a kutyámat...","0","nyarcéjnek","[""nyarcéjnek"",""nyarcéjnak""]","","posttest trial","8",""
"html-button-response-clever","150","839253","0.0-13.0-0.30","2335","Ez itt egy brigeszt. Elneveztem a kutyámat...","0","brigesztnek","[""brigesztnek"",""brigesztnak""]","","posttest trial","8",""
"html-button-response-clever","151","843333","0.0-13.0-0.31","3568","Ez itt egy kluhéj. Nincs is jobb egy jó...","0","kluhéjnál","[""kluhéjnál"",""kluhéjnél""]","","posttest trial","8",""
"html-button-response-clever","152","847405","0.0-13.0-0.32","3556","Ez itt egy bródesz. Elneveztem a kutyámat...","0","bródesznek","[""bródesznek"",""bródesznak""]","","posttest trial","8",""
"html-button-response-clever","153","852941","0.0-13.0-0.33","5027","Ez itt egy tránély. Elneveztem a kutyámat...","1","tránélynak","[""tránélynek"",""tránélynak""]","","posttest trial","8",""
"html-button-response-clever","154","855901","0.0-13.0-0.34","2456","Ez itt egy ikszert. Ott vagyunk a...","1","ikszertben","[""ikszertban"",""ikszertben""]","","posttest trial","8",""
"html-button-response-clever","155","859061","0.0-13.0-0.35","2651","Ez itt egy giheszt. Elneveztem a kutyámat...","1","gihesztnek","[""gihesztnak"",""gihesztnek""]","","posttest trial","8",""
"html-button-response-clever","156","863301","0.0-13.0-0.36","3727","Ez itt egy sprízem. Nincs is jobb egy jó...","1","sprízemnél","[""sprízemnál"",""sprízemnél""]","","posttest trial","8",""
"html-button-response-clever","157","869341","0.0-13.0-0.37","5526","Ez itt egy zsopéd. Ott vagyunk a...","0","zsopédban","[""zsopédban"",""zsopédben""]","","posttest trial","8",""
"html-button-response-clever","158","872461","0.0-13.0-0.38","2605","Ez itt egy szutend. Ott vagyunk a...","1","szutendben","[""szutendban"",""szutendben""]","","posttest trial","8",""
"html-button-response-clever","159","875325","0.0-13.0-0.39","2347","Ez itt egy hóbens. Ott vagyunk a...","1","hóbensben","[""hóbensban"",""hóbensben""]","","posttest trial","8",""
"html-button-response-clever","160","879269","0.0-13.0-0.40","3435","Ez itt egy navec. Ott vagyunk a...","1","navecban","[""navecben"",""navecban""]","","posttest trial","8",""
"html-button-response-clever","161","882285","0.0-13.0-0.41","2503","Ez itt egy fádens. Elneveztem a kutyámat...","1","fádensnek","[""fádensnak"",""fádensnek""]","","posttest trial","8",""
"html-button-response-clever","162","885557","0.0-13.0-0.42","2761","Ez itt egy buhény. Ott vagyunk a...","1","buhényban","[""buhényben"",""buhényban""]","","posttest trial","8",""
"html-button-response-clever","163","890205","0.0-13.0-0.43","4135","Ez itt egy klordény. Elneveztem a kutyámat...","0","klordénynek","[""klordénynek"",""klordénynak""]","","posttest trial","8",""
"html-button-response-clever","164","893285","0.0-13.0-0.44","2579","Ez itt egy ronvet. Elneveztem a kutyámat...","0","ronvetnek","[""ronvetnek"",""ronvetnak""]","","posttest trial","8",""
"html-button-response-clever","165","895861","0.0-13.0-0.45","2071","Ez itt egy júder. Elneveztem a kutyámat...","1","júdernek","[""júdernak"",""júdernek""]","","posttest trial","8",""
"html-button-response-clever","166","898333","0.0-13.0-0.46","1957","Ez itt egy sartely. Ott vagyunk a...","0","sartelyban","[""sartelyban"",""sartelyben""]","","posttest trial","8",""
"html-button-response-clever","167","902397","0.0-13.0-0.47","3556","Ez itt egy gicéj. Nincs is jobb egy jó...","1","gicéjnél","[""gicéjnál"",""gicéjnél""]","","posttest trial","8",""
"html-button-response-clever","168","906365","0.0-13.0-0.48","3463","Ez itt egy szihét. Elneveztem a kutyámat...","0","szihétnek","[""szihétnek"",""szihétnak""]","","posttest trial","8",""
"html-button-response-clever","169","909629","0.0-13.0-0.49","2757","Ez itt egy fincek. Nincs is jobb egy jó...","0","finceknél","[""finceknél"",""finceknál""]","","posttest trial","8",""
"html-button-response-clever","170","914477","0.0-13.0-0.50","4343","Ez itt egy nyábét. Ott vagyunk a...","0","nyábétban","[""nyábétban"",""nyábétben""]","","posttest trial","8",""
"html-button-response-clever","171","917917","0.0-13.0-0.51","2936","Ez itt egy lismév. Ott vagyunk a...","0","lismévben","[""lismévben"",""lismévban""]","","posttest trial","8",""
"html-button-response-clever","172","922781","0.0-13.0-0.52","4350","Ez itt egy kliszer. Nincs is jobb egy jó...","1","kliszernél","[""kliszernál"",""kliszernél""]","","posttest trial","8",""
"html-button-response-clever","173","926453","0.0-13.0-0.53","3158","Ez itt egy priszkenc. Elneveztem a kutyámat...","0","priszkencnek","[""priszkencnek"",""priszkencnak""]","","posttest trial","8",""
"html-button-response","174","932533","0.0-14.0","5567","<p> Vége a játéknak. A teljes pontszámod 23/54.</p><p> Szép munka! &#128526;&#128526;&#128526;</p><p>A Befejezés gomb megnyomása után bezárhatod a böngészőablakot.</p>","0","","","","","",""
"html-keyboard-response","175","938038","0.0-15.0","null","<div class=""message"">
         <p>Egy kis türelmet kérünk, amíg elmentjük az adatokat...</p>
         </div>","null","","","","","",""
