"trial_type","trial_index","time_elapsed","internal_node_id","rt","stimulus","response","response_string","choices","esp_response","trial_kind","list_number","esp_match"
"pavlovia","0","579","0.0-0.0","","","","","","","","",""
"html-button-response","1","6642","0.0-1.0","4999","<p>Kedves Résztvevő! A Budapesti Műszaki és Gazdaságtudományi Egyetem Kognitív Tudományi Tanszékének kutatásában való részvételed kérjük. A kutatásban azt vizsgáljuk, hogy a magyar anyanyelvűek hogyan használnak bizonyos szóalakokat, és hogy milyen képük van arról, hogy mások hogyan használják, hogyan képzik a szavakat. Ez hozzásegít bennünket ahhoz, hogy jobban megértsük, hogyan dolgozza fel és tárolja a nyelvet az emberi agy, és hogyan működnek, hogyan változnak egy adott közösség nyelvi konvenciói.</p><p>A vizsgálat egy rövid számítógépes feladatból fog állni. A kutatásban való részvétel önkéntes, a részvételi szándék bármikor visszavonható. A résztvevők eredményeit név nélkül kezeljük, így nem beazonosíthatók az adatok feldolgozása során. Minden személyes adatot az EU általános adatvédelmi rendeletének (GDPR) megfelelően kezelünk és legfeljebb öt éven belül megsemmisítünk. A vizsgálat jellemzően húsz percet vesz igénybe.</p><p>Kutatásvezető:</p><p>Dr. Rácz Péter, tudományos munkatárs, BME KTT</p><p>e-mail: racz.peter.marton@ttk.bme.hu</p>","0","","","","","",""
"html-button-response","2","64972","0.0-2.0","57817","<p>A kísérletben szavakat fogsz látni. Ezek között lesznek olyanok, amelyeket ismersz, de előfordulhatnak olyanok is, amelyeket nem ismersz, sőt, vannak köztük kitalált szavak is. Minden szónál látni fogsz toldalékolt alakokat. A te feladatod az lesz, hogy minden szóhoz kiválaszd azt a toldalékolt alakot, amely a te számodra ismerősebben, természetesebben hangzik. Rossz válaszok nincsenek, mert van olyan, hogy különböző embereknek más és más szó tűnik jobb választásnak. A választ úgy tudod majd kiválasztani, ha rákattintasz.</p><p>Ebben a szóválasztós játékban egy másik játékossal együtt veszel majd részt. A másik játékos is minden esetben azok közül a lehetőségek közül válogathat, mint te. Kettőtök feladata az, hogy ugyanazt a lehetőséget válasszátok minden esetben. Ahhoz, hogy ez sikerüljön, neked figyelned kell arra, hogy a másik játékos milyen válaszokat ad, és ennek alapján meg kell tippelned, hogyan választ legközelebb. Ha eltalálod, akkor pontot kapsz.</p>","0","","","","","",""
"html-button-response","3","105661","0.0-3.0","40180","<p>Kérjük, olvasd el az alábbi nyilatkozatot, és amennyiben egyetértesz vele, nyomj a Beleegyezés gombra!</p><p>Kijelentem, hogy magyar anyanyelvű személyként önként veszek részt a BME KTT kísérletében. A kutatás céljával és folyamatával kapcsolatban elegendő tájékoztatást kaptam, lehetőségem volt kérdések feltételére, és esetleges kérdéseimre megfelelő válaszokat kaptam. A tájékoztatás alapján elegendő mennyiségű információ áll a rendelkezésemre, hogy eldönthessem, részt kívánok-e venni a kutatásban.</p><p>Tisztában vagyok vele, hogy részvételi szándékomat és adataimat bármikor, indoklás nélkül visszavonhatom.</p><p>Értem és tudomásul veszem, hogy a kutatás tudományos célokat szolgál, és az általam szolgáltatott adatokat a BME kizárólag kutatási célból használja fel. Tudomásul veszem, hogy eredményeimet a többi résztvevő eredményeivel együtt kezelik, így egyéni teljesítményemről visszajelzést, szakvéleményt nem kapok.</p><p>Megértettem, hogy adataim kezelését illetően a BME az EU általános adatvédelmi rendelete (GDPR), a hatályos adatvédelmi törvény és a nemzetközi kutatás-etikai alapelvek szerint jár el. Eredményeim anonim módon kerülnek feldolgozásra, és a kutatás résztvevői az azonosításomra alkalmas adataimat harmadik félnek nem szolgáltatják ki. Engedélyezem a BME számára a jelen kutatásban felvett adataim feldolgozását és tárolását, beleértve azok későbbi kutatásokhoz való felhasználását is. Személyes adataim kezelésével kapcsolatban tájékoztatást kérhetek a kutatás résztvevőitől, az adatkezelés ellen tiltakozhatok, kérhetem személyes adataim helyesbítését, törlését vagy zárolását, valamint jogorvoslatért a Nemzeti Adatvédelmi és Információszabadság Hatósághoz fordulhatok.</p><p>Kijelentem, hogy a kutatásban való részvételem körülményeiről részletes tájékoztatást kaptam, és a feltételeket elfogadom.</p>","0","","","","","",""
"survey-text","4","140186","0.0-4.0","33999","","{""Q0"":""N37PUW"",""Q1"":""férfi"",""Q2"":""2002"",""Q3"":""13""}","","","","","",""
"html-button-response","5","160805","0.0-5.0","20101","<p>Ebben a játékban szavakat kell toldalékolni.</p> <p>Minden körben mutatunk majd egy példamondatot, amiben lesz egy szó.</p> <p>Alatta jön egy második mondat, ezt a mondatot neked kell majd befejezni, ugyanezzel a szóval.</p> <p>Nem biztos, hogy a szó eleve ismerős lesz számodra!</p> <p>Minden mondathoz adunk két lehetőséget, ezeket balra és jobbra látod majd.</p> <p>A játék kb. negyedóráig-húsz percig tart.</p>","0","","","","","",""
"html-button-response","6","240123","0.0-6.0","78801","<p>Nézzünk egy példát!</p> <p>A példamondat: ""János nagyon szeret rancsúrozni.""</p><p>Neked ezt a mondatot kell befejezned: ""Én is szívesen...""</p><p>A lehetőségek pedig ezek:</p>","1","","","","","",""
"html-button-response","7","248570","0.0-7.0","7932","<p>Nagyon jó.</p><p>Ezt a játékot nem egyedül fogod játszani, hanem egy másik játékossal.</p><p>Mielőtt továbblépünk, összekapcsolunk titeket egymással.</p><p>Ez igénybe vehet néhány másodpercet, amihez szíves türelmed kérjük.</p>","0","","","","","",""
"html-button-response","8","254299","0.0-8.0","null","<p>Csatlakozás a másik játékoshoz...</p>","null","","","","","",""
"html-button-response","9","256819","0.0-9.0","null","<p> Sikeres kapcsolódás!</p>","null","","","","","",""
"html-button-response","10","267338","0.0-10.0","null","<p>A következőkben ketten játsszátok a szóválasztós játékot.</p><p>A feladatotok az lesz, hogy minden körben <b>ugyanazt</b> a szót válasszátok.</p><p>Minden ilyen egyező válaszért pontot kaptok.</p><p>Próbáld meg kitalálni, mit választ a másik játékos!</p><p>Bármikor választhatsz, a körnek akkor van vége, ha mindketten döntöttetek.</p><p>Sok sikert!</p>","null","","","","","",""
"html-button-response-esp","11","275755","0.0-11.0-0.0","7328","Te bizony sokat brubzol. Én is sokat...","1","brubzok","[""brubzom"",""brubzok""]","brubzok","esp trial","4","true"
"html-button-response","12","279282","0.0-11.0-1.0","null","<p>A másik játékos ezt választotta: <b>brubzok</b>.</p><p>&#x2705;</p><p>A te válaszod és a másik játékos válasza <b>megegyeznek</b>.</p>","null","","","","feedback trial","",""
"html-button-response-esp","13","287690","0.0-11.0-0.1","7319","Te bizony sokat brobódzol. Én is sokat...","1","brobódzok","[""brobódzom"",""brobódzok""]","brobódzok","esp trial","4","true"
"html-button-response","14","291222","0.0-11.0-1.1","null","<p>A másik játékos ezt választotta: <b>brobódzok</b>.</p><p>&#x2705;</p><p>A te válaszod és a másik játékos válasza <b>megegyeznek</b>.</p>","null","","","","feedback trial","",""
"html-button-response-esp","15","299639","0.0-11.0-0.2","7772","Te bizony sokat lörűdzöl. Én is sokat...","0","lörűdzök","[""lörűdzök"",""lörűdzöm""]","lörűdzök","esp trial","4","true"
"html-button-response","16","303154","0.0-11.0-1.2","null","<p>A másik játékos ezt választotta: <b>lörűdzök</b>.</p><p>&#x2705;</p><p>A te válaszod és a másik játékos válasza <b>megegyeznek</b>.</p>","null","","","","feedback trial","",""
"html-button-response-esp","17","311564","0.0-11.0-0.3","6372","Te bizony sokat szibánylasz. Én is sokat...","1","szibánylok","[""szibánylom"",""szibánylok""]","szibánylom","esp trial","4","false"
"html-button-response","18","315083","0.0-11.0-1.3","null","<p>A másik játékos ezt választotta: <b>szibánylom</b>.</p><p>&#10060;</p><p>A válaszaitok <b>nem</b> egyeznek meg.</p>","null","","","","feedback trial","",""
"html-button-response-esp","19","323542","0.0-11.0-0.4","7955","Te bizony sokat filágzol. Én is sokat...","0","filágzok","[""filágzok"",""filágzom""]","filágzok","esp trial","4","true"
"html-button-response","20","327070","0.0-11.0-1.4","null","<p>A másik játékos ezt választotta: <b>filágzok</b>.</p><p>&#x2705;</p><p>A te válaszod és a másik játékos válasza <b>megegyeznek</b>.</p>","null","","","","feedback trial","",""
"html-button-response-esp","21","335493","0.0-11.0-0.5","5343","Te bizony sokat píjlasz. Én is sokat...","0","píjlok","[""píjlok"",""píjlom""]","píjlok","esp trial","4","true"
"html-button-response","22","339007","0.0-11.0-1.5","null","<p>A másik játékos ezt választotta: <b>píjlok</b>.</p><p>&#x2705;</p><p>A te válaszod és a másik játékos válasza <b>megegyeznek</b>.</p>","null","","","","feedback trial","",""
"html-button-response-esp","23","347956","0.0-11.0-0.6","8435","Te bizony sokat bűtszöl. Én is sokat...","0","bűtszök","[""bűtszök"",""bűtszöm""]","bűtszök","esp trial","4","true"
"html-button-response","24","351487","0.0-11.0-1.6","null","<p>A másik játékos ezt választotta: <b>bűtszök</b>.</p><p>&#x2705;</p><p>A te válaszod és a másik játékos válasza <b>megegyeznek</b>.</p>","null","","","","feedback trial","",""
"html-button-response-esp","25","359904","0.0-11.0-0.7","5201","Te bizony sokat salárzol. Én is sokat...","0","salárzok","[""salárzok"",""salárzom""]","salárzok","esp trial","4","true"
"html-button-response","26","363427","0.0-11.0-1.7","null","<p>A másik játékos ezt választotta: <b>salárzok</b>.</p><p>&#x2705;</p><p>A te válaszod és a másik játékos válasza <b>megegyeznek</b>.</p>","null","","","","feedback trial","",""
"html-button-response-esp","27","371846","0.0-11.0-0.8","7819","Te bizony sokat klivaslasz. Én is sokat...","1","klivaslok","[""klivaslom"",""klivaslok""]","klivaslom","esp trial","4","false"
"html-button-response","28","375367","0.0-11.0-1.8","null","<p>A másik játékos ezt választotta: <b>klivaslom</b>.</p><p>&#10060;</p><p>A válaszaitok <b>nem</b> egyeznek meg.</p>","null","","","","feedback trial","",""
"html-button-response-esp","29","385986","0.0-11.0-0.9","10108","Te bizony sokat huroslasz. Én is sokat...","1","huroslok","[""huroslom"",""huroslok""]","huroslom","esp trial","4","false"
"html-button-response","30","389520","0.0-11.0-1.9","null","<p>A másik játékos ezt választotta: <b>huroslom</b>.</p><p>&#10060;</p><p>A válaszaitok <b>nem</b> egyeznek meg.</p>","null","","","","feedback trial","",""
"html-button-response-esp","31","397937","0.0-11.0-0.10","711","Te bizony sokat flűmlesz. Én is sokat...","0","flűmlöm","[""flűmlöm"",""flűmlök""]","flűmlöm","esp trial","4","true"
"html-button-response","32","401450","0.0-11.0-1.10","null","<p>A másik játékos ezt választotta: <b>flűmlöm</b>.</p><p>&#x2705;</p><p>A te válaszod és a másik játékos válasza <b>megegyeznek</b>.</p>","null","","","","feedback trial","",""
"html-button-response-esp","33","411130","0.0-11.0-0.11","9176","Te bizony sokat flátszol. Én is sokat...","0","flátszom","[""flátszom"",""flátszok""]","flátszok","esp trial","4","false"
"html-button-response","34","414645","0.0-11.0-1.11","null","<p>A másik játékos ezt választotta: <b>flátszok</b>.</p><p>&#10060;</p><p>A válaszaitok <b>nem</b> egyeznek meg.</p>","null","","","","feedback trial","",""
"html-button-response-esp","35","423060","0.0-11.0-0.12","7373","Te bizony sokat spihegzel. Én is sokat...","0","spihegzek","[""spihegzek"",""spihegzem""]","spihegzek","esp trial","4","true"
"html-button-response","36","426577","0.0-11.0-1.12","null","<p>A másik játékos ezt választotta: <b>spihegzek</b>.</p><p>&#x2705;</p><p>A te válaszod és a másik játékos válasza <b>megegyeznek</b>.</p>","null","","","","feedback trial","",""
"html-button-response-esp","37","434987","0.0-11.0-0.13","4304","Te bizony sokat pribagszol. Én is sokat...","1","pribagszok","[""pribagszom"",""pribagszok""]","pribagszok","esp trial","4","true"
"html-button-response","38","438506","0.0-11.0-1.13","null","<p>A másik játékos ezt választotta: <b>pribagszok</b>.</p><p>&#x2705;</p><p>A te válaszod és a másik játékos válasza <b>megegyeznek</b>.</p>","null","","","","feedback trial","",""
"html-button-response-esp","39","446913","0.0-11.0-0.14","5581","Te bizony sokat flitlasz. Én is sokat...","1","flitlok","[""flitlom"",""flitlok""]","flitlom","esp trial","4","false"
"html-button-response","40","450426","0.0-11.0-1.14","null","<p>A másik játékos ezt választotta: <b>flitlom</b>.</p><p>&#10060;</p><p>A válaszaitok <b>nem</b> egyeznek meg.</p>","null","","","","feedback trial","",""
"html-button-response-esp","41","458836","0.0-11.0-0.15","7640","Te bizony sokat trehégszel. Én is sokat...","0","trehégszek","[""trehégszek"",""trehégszem""]","trehégszek","esp trial","4","true"
"html-button-response","42","462345","0.0-11.0-1.15","null","<p>A másik játékos ezt választotta: <b>trehégszek</b>.</p><p>&#x2705;</p><p>A te válaszod és a másik játékos válasza <b>megegyeznek</b>.</p>","null","","","","feedback trial","",""
"html-button-response-esp","43","470758","0.0-11.0-0.16","6386","Te bizony sokat figlasz. Én is sokat...","0","figlom","[""figlom"",""figlok""]","figlok","esp trial","4","false"
"html-button-response","44","474274","0.0-11.0-1.16","null","<p>A másik játékos ezt választotta: <b>figlok</b>.</p><p>&#10060;</p><p>A válaszaitok <b>nem</b> egyeznek meg.</p>","null","","","","feedback trial","",""
"html-button-response-esp","45","484385","0.0-11.0-0.17","9607","Te bizony sokat hurjorzol. Én is sokat...","1","hurjorzok","[""hurjorzom"",""hurjorzok""]","hurjorzok","esp trial","4","true"
"html-button-response","46","487911","0.0-11.0-1.17","null","<p>A másik játékos ezt választotta: <b>hurjorzok</b>.</p><p>&#x2705;</p><p>A te válaszod és a másik játékos válasza <b>megegyeznek</b>.</p>","null","","","","feedback trial","",""
"html-button-response-esp","47","498419","0.0-11.0-0.18","9994","Te bizony sokat nűröklesz. Én is sokat...","1","nűröklök","[""nűröklöm"",""nűröklök""]","nűröklök","esp trial","4","true"
"html-button-response","48","501934","0.0-11.0-1.18","null","<p>A másik játékos ezt választotta: <b>nűröklök</b>.</p><p>&#x2705;</p><p>A te válaszod és a másik játékos válasza <b>megegyeznek</b>.</p>","null","","","","feedback trial","",""
"html-button-response-esp","49","510351","0.0-11.0-0.19","5547","Te bizony sokat prínylasz. Én is sokat...","0","prínylok","[""prínylok"",""prínylom""]","prínylok","esp trial","4","true"
"html-button-response","50","513875","0.0-11.0-1.19","null","<p>A másik játékos ezt választotta: <b>prínylok</b>.</p><p>&#x2705;</p><p>A te válaszod és a másik játékos válasza <b>megegyeznek</b>.</p>","null","","","","feedback trial","",""
"html-button-response-esp","51","522289","0.0-11.0-0.20","7695","Te bizony sokat pítszol. Én is sokat...","0","pítszok","[""pítszok"",""pítszom""]","pítszok","esp trial","4","true"
"html-button-response","52","525809","0.0-11.0-1.20","null","<p>A másik játékos ezt választotta: <b>pítszok</b>.</p><p>&#x2705;</p><p>A te válaszod és a másik játékos válasza <b>megegyeznek</b>.</p>","null","","","","feedback trial","",""
"html-button-response-esp","53","535439","0.0-11.0-0.21","9115","Te bizony sokat narádzol. Én is sokat...","0","narádzok","[""narádzok"",""narádzom""]","narádzok","esp trial","4","true"
"html-button-response","54","538958","0.0-11.0-1.21","null","<p>A másik játékos ezt választotta: <b>narádzok</b>.</p><p>&#x2705;</p><p>A te válaszod és a másik játékos válasza <b>megegyeznek</b>.</p>","null","","","","feedback trial","",""
"html-button-response-esp","55","547368","0.0-11.0-0.22","6704","Te bizony sokat bivégszel. Én is sokat...","1","bivégszek","[""bivégszem"",""bivégszek""]","bivégszek","esp trial","4","true"
"html-button-response","56","550888","0.0-11.0-1.22","null","<p>A másik játékos ezt választotta: <b>bivégszek</b>.</p><p>&#x2705;</p><p>A te válaszod és a másik játékos válasza <b>megegyeznek</b>.</p>","null","","","","feedback trial","",""
"html-button-response-esp","57","560022","0.0-11.0-0.23","8631","Te bizony sokat spubonylasz. Én is sokat...","1","spubonylok","[""spubonylom"",""spubonylok""]","spubonylom","esp trial","4","false"
"html-button-response","58","563552","0.0-11.0-1.23","null","<p>A másik játékos ezt választotta: <b>spubonylom</b>.</p><p>&#10060;</p><p>A válaszaitok <b>nem</b> egyeznek meg.</p>","null","","","","feedback trial","",""
"html-button-response-esp","59","573299","0.0-11.0-0.24","9236","Te bizony sokat flehékszel. Én is sokat...","1","flehékszek","[""flehékszem"",""flehékszek""]","flehékszek","esp trial","4","true"
"html-button-response","60","576817","0.0-11.0-1.24","null","<p>A másik játékos ezt választotta: <b>flehékszek</b>.</p><p>&#x2705;</p><p>A te válaszod és a másik játékos válasza <b>megegyeznek</b>.</p>","null","","","","feedback trial","",""
"html-button-response-esp","61","585239","0.0-11.0-0.25","4464","Te bizony sokat plűbzöl. Én is sokat...","0","plűbzök","[""plűbzök"",""plűbzöm""]","plűbzök","esp trial","4","true"
"html-button-response","62","588762","0.0-11.0-1.25","null","<p>A másik játékos ezt választotta: <b>plűbzök</b>.</p><p>&#x2705;</p><p>A te válaszod és a másik játékos válasza <b>megegyeznek</b>.</p>","null","","","","feedback trial","",""
"html-button-response-esp","63","598512","0.0-11.0-0.26","9240","Te bizony sokat hűgzöl. Én is sokat...","0","hűgzök","[""hűgzök"",""hűgzöm""]","hűgzök","esp trial","4","true"
"html-button-response","64","602043","0.0-11.0-1.26","null","<p>A másik játékos ezt választotta: <b>hűgzök</b>.</p><p>&#x2705;</p><p>A te válaszod és a másik játékos válasza <b>megegyeznek</b>.</p>","null","","","","feedback trial","",""
"html-button-response-esp","65","610943","0.0-11.0-0.27","8385","Te bizony sokat düjzöl. Én is sokat...","0","düjzöm","[""düjzöm"",""düjzök""]","düjzök","esp trial","4","false"
"html-button-response","66","614468","0.0-11.0-1.27","null","<p>A másik játékos ezt választotta: <b>düjzök</b>.</p><p>&#10060;</p><p>A válaszaitok <b>nem</b> egyeznek meg.</p>","null","","","","feedback trial","",""
"html-button-response-esp","67","622886","0.0-11.0-0.28","3624","Te bizony sokat treglesz. Én is sokat...","1","treglek","[""treglem"",""treglek""]","treglem","esp trial","4","false"
"html-button-response","68","626401","0.0-11.0-1.28","null","<p>A másik játékos ezt választotta: <b>treglem</b>.</p><p>&#10060;</p><p>A válaszaitok <b>nem</b> egyeznek meg.</p>","null","","","","feedback trial","",""
"html-button-response-esp","69","634810","0.0-11.0-0.29","7028","Te bizony sokat sztrozlasz. Én is sokat...","0","sztrozlok","[""sztrozlok"",""sztrozlom""]","sztrozlok","esp trial","4","true"
"html-button-response","70","638340","0.0-11.0-1.29","null","<p>A másik játékos ezt választotta: <b>sztrozlok</b>.</p><p>&#x2705;</p><p>A te válaszod és a másik játékos válasza <b>megegyeznek</b>.</p>","null","","","","feedback trial","",""
"html-button-response-esp","71","646754","0.0-11.0-0.30","4338","Te bizony sokat sztrűkszöl. Én is sokat...","0","sztrűkszök","[""sztrűkszök"",""sztrűkszöm""]","sztrűkszök","esp trial","4","true"
"html-button-response","72","650279","0.0-11.0-1.30","null","<p>A másik játékos ezt választotta: <b>sztrűkszök</b>.</p><p>&#x2705;</p><p>A te válaszod és a másik játékos válasza <b>megegyeznek</b>.</p>","null","","","","feedback trial","",""
"html-button-response-esp","73","658686","0.0-11.0-0.31","6788","Te bizony sokat spülűdzöl. Én is sokat...","0","spülűdzök","[""spülűdzök"",""spülűdzöm""]","spülűdzök","esp trial","4","true"
"html-button-response","74","662213","0.0-11.0-1.31","null","<p>A másik játékos ezt választotta: <b>spülűdzök</b>.</p><p>&#x2705;</p><p>A te válaszod és a másik játékos válasza <b>megegyeznek</b>.</p>","null","","","","feedback trial","",""
"html-button-response-esp","75","670617","0.0-11.0-0.32","3706","Te bizony sokat trádlasz. Én is sokat...","0","trádlok","[""trádlok"",""trádlom""]","trádlok","esp trial","4","true"
"html-button-response","76","674129","0.0-11.0-1.32","null","<p>A másik játékos ezt választotta: <b>trádlok</b>.</p><p>&#x2705;</p><p>A te válaszod és a másik játékos válasza <b>megegyeznek</b>.</p>","null","","","","feedback trial","",""
"html-button-response-esp","77","682538","0.0-11.0-0.33","6577","Te bizony sokat pribemlesz. Én is sokat...","1","pribemlek","[""pribemlem"",""pribemlek""]","pribemlem","esp trial","4","false"
"html-button-response","78","686064","0.0-11.0-1.33","null","<p>A másik játékos ezt választotta: <b>pribemlem</b>.</p><p>&#10060;</p><p>A válaszaitok <b>nem</b> egyeznek meg.</p>","null","","","","feedback trial","",""
"html-button-response-esp","79","694485","0.0-11.0-0.34","6494","Te bizony sokat jonylasz. Én is sokat...","0","jonylok","[""jonylok"",""jonylom""]","jonylom","esp trial","4","false"
"html-button-response","80","698014","0.0-11.0-1.34","null","<p>A másik játékos ezt választotta: <b>jonylom</b>.</p><p>&#10060;</p><p>A válaszaitok <b>nem</b> egyeznek meg.</p>","null","","","","feedback trial","",""
"html-button-response-esp","81","709772","0.0-11.0-0.35","11247","Te bizony sokat spröbzöl. Én is sokat...","0","spröbzöm","[""spröbzöm"",""spröbzök""]","spröbzök","esp trial","4","false"
"html-button-response","82","713283","0.0-11.0-1.35","null","<p>A másik játékos ezt választotta: <b>spröbzök</b>.</p><p>&#10060;</p><p>A válaszaitok <b>nem</b> egyeznek meg.</p>","null","","","","feedback trial","",""
"html-button-response-esp","83","721686","0.0-11.0-0.36","6158","Te bizony sokat bihánylasz. Én is sokat...","0","bihánylok","[""bihánylok"",""bihánylom""]","bihánylom","esp trial","4","false"
"html-button-response","84","725212","0.0-11.0-1.36","null","<p>A másik játékos ezt választotta: <b>bihánylom</b>.</p><p>&#10060;</p><p>A válaszaitok <b>nem</b> egyeznek meg.</p>","null","","","","feedback trial","",""
"html-button-response-esp","85","736864","0.0-11.0-0.37","11136","Te bizony sokat brivegzel. Én is sokat...","1","brivegzek","[""brivegzem"",""brivegzek""]","brivegzek","esp trial","4","true"
"html-button-response","86","740378","0.0-11.0-1.37","null","<p>A másik játékos ezt választotta: <b>brivegzek</b>.</p><p>&#x2705;</p><p>A te válaszod és a másik játékos válasza <b>megegyeznek</b>.</p>","null","","","","feedback trial","",""
"html-button-response-esp","87","749237","0.0-11.0-0.38","8355","Te bizony sokat ibékszel. Én is sokat...","1","ibékszek","[""ibékszem"",""ibékszek""]","ibékszek","esp trial","4","true"
"html-button-response","88","752746","0.0-11.0-1.38","null","<p>A másik játékos ezt választotta: <b>ibékszek</b>.</p><p>&#x2705;</p><p>A te válaszod és a másik játékos válasza <b>megegyeznek</b>.</p>","null","","","","feedback trial","",""
"html-button-response-esp","89","761714","0.0-11.0-0.39","8463","Te bizony sokat spihemlesz. Én is sokat...","0","spihemlek","[""spihemlek"",""spihemlem""]","spihemlem","esp trial","4","false"
"html-button-response","90","765227","0.0-11.0-1.39","null","<p>A másik játékos ezt választotta: <b>spihemlem</b>.</p><p>&#10060;</p><p>A válaszaitok <b>nem</b> egyeznek meg.</p>","null","","","","feedback trial","",""
"html-button-response-esp","91","776582","0.0-11.0-0.40","10850","Te bizony sokat rokszol. Én is sokat...","1","rokszok","[""rokszom"",""rokszok""]","rokszok","esp trial","4","true"
"html-button-response","92","780108","0.0-11.0-1.40","null","<p>A másik játékos ezt választotta: <b>rokszok</b>.</p><p>&#x2705;</p><p>A te válaszod és a másik játékos válasza <b>megegyeznek</b>.</p>","null","","","","feedback trial","",""
"html-button-response-esp","93","788514","0.0-11.0-0.41","2452","Te bizony sokat vülődzöl. Én is sokat...","0","vülődzök","[""vülődzök"",""vülődzöm""]","vülődzök","esp trial","4","true"
"html-button-response","94","792026","0.0-11.0-1.41","null","<p>A másik játékos ezt választotta: <b>vülődzök</b>.</p><p>&#x2705;</p><p>A te válaszod és a másik játékos válasza <b>megegyeznek</b>.</p>","null","","","","feedback trial","",""
"html-button-response-esp","95","803513","0.0-11.0-0.42","10976","Te bizony sokat vanylasz. Én is sokat...","0","vanylok","[""vanylok"",""vanylom""]","vanylom","esp trial","4","false"
"html-button-response","96","807058","0.0-11.0-1.42","null","<p>A másik játékos ezt választotta: <b>vanylom</b>.</p><p>&#10060;</p><p>A válaszaitok <b>nem</b> egyeznek meg.</p>","null","","","","feedback trial","",""
"html-button-response-esp","97","815458","0.0-11.0-0.43","2927","Te bizony sokat rájzol. Én is sokat...","0","rájzom","[""rájzom"",""rájzok""]","rájzok","esp trial","4","false"
"html-button-response","98","818978","0.0-11.0-1.43","null","<p>A másik játékos ezt választotta: <b>rájzok</b>.</p><p>&#10060;</p><p>A válaszaitok <b>nem</b> egyeznek meg.</p>","null","","","","feedback trial","",""
"html-button-response-esp","99","827393","0.0-11.0-0.44","5864","Te bizony sokat klétszel. Én is sokat...","0","klétszem","[""klétszem"",""klétszek""]","klétszek","esp trial","4","false"
"html-button-response","100","830916","0.0-11.0-1.44","null","<p>A másik játékos ezt választotta: <b>klétszek</b>.</p><p>&#10060;</p><p>A válaszaitok <b>nem</b> egyeznek meg.</p>","null","","","","feedback trial","",""
"html-button-response-esp","101","839335","0.0-11.0-0.45","3809","Te bizony sokat gyibeslesz. Én is sokat...","0","gyibeslem","[""gyibeslem"",""gyibeslek""]","gyibeslek","esp trial","4","false"
"html-button-response","102","842850","0.0-11.0-1.45","null","<p>A másik játékos ezt választotta: <b>gyibeslek</b>.</p><p>&#10060;</p><p>A válaszaitok <b>nem</b> egyeznek meg.</p>","null","","","","feedback trial","",""
"html-button-response-esp","103","851258","0.0-11.0-0.46","2394","Te bizony sokat spüjzöl. Én is sokat...","0","spüjzök","[""spüjzök"",""spüjzöm""]","spüjzöm","esp trial","4","false"
"html-button-response","104","854785","0.0-11.0-1.46","null","<p>A másik játékos ezt választotta: <b>spüjzöm</b>.</p><p>&#10060;</p><p>A válaszaitok <b>nem</b> egyeznek meg.</p>","null","","","","feedback trial","",""
"html-button-response-esp","105","863193","0.0-11.0-0.47","2405","Te bizony sokat plugzol. Én is sokat...","0","plugzom","[""plugzom"",""plugzok""]","plugzok","esp trial","4","false"
"html-button-response","106","866706","0.0-11.0-1.47","null","<p>A másik játékos ezt választotta: <b>plugzok</b>.</p><p>&#10060;</p><p>A válaszaitok <b>nem</b> egyeznek meg.</p>","null","","","","feedback trial","",""
"html-button-response-esp","107","875115","0.0-11.0-0.48","1339","Te bizony sokat flehénylesz. Én is sokat...","0","flehénylek","[""flehénylek"",""flehénylem""]","flehénylem","esp trial","4","false"
"html-button-response","108","878643","0.0-11.0-1.48","null","<p>A másik játékos ezt választotta: <b>flehénylem</b>.</p><p>&#10060;</p><p>A válaszaitok <b>nem</b> egyeznek meg.</p>","null","","","","feedback trial","",""
"html-button-response-esp","109","887064","0.0-11.0-0.49","1346","Te bizony sokat frodlasz. Én is sokat...","1","frodlok","[""frodlom"",""frodlok""]","frodlok","esp trial","4","true"
"html-button-response","110","890587","0.0-11.0-1.49","null","<p>A másik játékos ezt választotta: <b>frodlok</b>.</p><p>&#x2705;</p><p>A te válaszod és a másik játékos válasza <b>megegyeznek</b>.</p>","null","","","","feedback trial","",""
"html-button-response-esp","111","899001","0.0-11.0-0.50","1861","Te bizony sokat tragzol. Én is sokat...","0","tragzok","[""tragzok"",""tragzom""]","tragzok","esp trial","4","true"
"html-button-response","112","902518","0.0-11.0-1.50","null","<p>A másik játékos ezt választotta: <b>tragzok</b>.</p><p>&#x2705;</p><p>A te válaszod és a másik játékos válasza <b>megegyeznek</b>.</p>","null","","","","feedback trial","",""
"html-button-response-esp","113","910931","0.0-11.0-0.51","2461","Te bizony sokat sztrijzol. Én is sokat...","1","sztrijzok","[""sztrijzom"",""sztrijzok""]","sztrijzok","esp trial","4","true"
"html-button-response","114","914457","0.0-11.0-1.51","null","<p>A másik játékos ezt választotta: <b>sztrijzok</b>.</p><p>&#x2705;</p><p>A te válaszod és a másik játékos válasza <b>megegyeznek</b>.</p>","null","","","","feedback trial","",""
"html-button-response-esp","115","943193","0.0-11.0-0.52","28224","Te bizony sokat klaráglasz. Én is sokat...","0","klaráglok","[""klaráglok"",""klaráglom""]","klaráglom","esp trial","4","false"
"html-button-response","116","946727","0.0-11.0-1.52","null","<p>A másik játékos ezt választotta: <b>klaráglom</b>.</p><p>&#10060;</p><p>A válaszaitok <b>nem</b> egyeznek meg.</p>","null","","","","feedback trial","",""
"html-button-response-esp","117","955142","0.0-11.0-0.53","3608","Te bizony sokat spáraklasz. Én is sokat...","0","spáraklok","[""spáraklok"",""spáraklom""]","spáraklok","esp trial","4","true"
"html-button-response","118","958662","0.0-11.0-1.53","null","<p>A másik játékos ezt választotta: <b>spáraklok</b>.</p><p>&#x2705;</p><p>A te válaszod és a másik játékos válasza <b>megegyeznek</b>.</p>","null","","","","feedback trial","",""
"html-button-response","119","969617","0.0-12.0","10445","<p>A közös játék most véget ért.</p><p>Mielőtt eláruljuk a végső pontszámodat, arra kérlek, játszd a szóválasztós játékot néhány percig egyedül is.</p><p>A feladatod ugyanaz lesz, választani két lehetőség közül.</p><p>Most viszont egyedül kell döntened, hogy te melyiket választanád.</p>","0","","","","","",""
"html-button-response-clever","120","973207","0.0-13.0-0.0","3082","Te bizony sokat prihekszel. Én is sokat...","1","prihekszek","[""prihekszem"",""prihekszek""]","","posttest trial","8",""
"html-button-response-clever","121","974708","0.0-13.0-0.1","996","Te bizony sokat táklasz. Én is sokat...","0","táklok","[""táklok"",""táklom""]","","posttest trial","8",""
"html-button-response-clever","122","976117","0.0-13.0-0.2","907","Te bizony sokat féjzel. Én is sokat...","0","féjzek","[""féjzek"",""féjzem""]","","posttest trial","8",""
"html-button-response-clever","123","977367","0.0-13.0-0.3","749","Te bizony sokat drügzöl. Én is sokat...","0","drügzök","[""drügzök"",""drügzöm""]","","posttest trial","8",""
"html-button-response-clever","124","978549","0.0-13.0-0.4","660","Te bizony sokat frivajlasz. Én is sokat...","0","frivajlok","[""frivajlok"",""frivajlom""]","","posttest trial","8",""
"html-button-response-clever","125","979633","0.0-13.0-0.5","581","Te bizony sokat brarlasz. Én is sokat...","0","brarlok","[""brarlok"",""brarlom""]","","posttest trial","8",""
"html-button-response-clever","126","980917","0.0-13.0-0.6","778","Te bizony sokat zödlesz. Én is sokat...","0","zödlök","[""zödlök"",""zödlöm""]","","posttest trial","8",""
"html-button-response-clever","127","982161","0.0-13.0-0.7","742","Te bizony sokat gyivádzol. Én is sokat...","0","gyivádzok","[""gyivádzok"",""gyivádzom""]","","posttest trial","8",""
"html-button-response-clever","128","986567","0.0-13.0-0.8","3900","Te bizony sokat flérlesz. Én is sokat...","1","flérlek","[""flérlem"",""flérlek""]","","posttest trial","8",""
"html-button-response-clever","129","990395","0.0-13.0-0.9","3320","Te bizony sokat spüszlesz. Én is sokat...","0","spüszlök","[""spüszlök"",""spüszlöm""]","","posttest trial","8",""
"html-button-response-clever","130","991762","0.0-13.0-0.10","852","Te bizony sokat gyibakszol. Én is sokat...","0","gyibakszok","[""gyibakszok"",""gyibakszom""]","","posttest trial","8",""
"html-button-response-clever","131","993045","0.0-13.0-0.11","766","Te bizony sokat spatszol. Én is sokat...","1","spatszok","[""spatszom"",""spatszok""]","","posttest trial","8",""
"html-button-response-clever","132","997915","0.0-13.0-0.12","4369","Te bizony sokat huklasz. Én is sokat...","0","huklok","[""huklok"",""huklom""]","","posttest trial","8",""
"html-button-response-clever","133","999269","0.0-13.0-0.13","849","Te bizony sokat spibádzol. Én is sokat...","0","spibádzok","[""spibádzok"",""spibádzom""]","","posttest trial","8",""
"html-button-response-clever","134","1003413","0.0-13.0-0.14","3630","Te bizony sokat szűslesz. Én is sokat...","0","szűslök","[""szűslök"",""szűslöm""]","","posttest trial","8",""
"html-button-response-clever","135","1004546","0.0-13.0-0.15","631","Te bizony sokat friszlasz. Én is sokat...","0","friszlok","[""friszlok"",""friszlom""]","","posttest trial","8",""
"html-button-response-clever","136","1005723","0.0-13.0-0.16","663","Te bizony sokat pugoslasz. Én is sokat...","1","pugoslok","[""pugoslom"",""pugoslok""]","","posttest trial","8",""
"html-button-response-clever","137","1006879","0.0-13.0-0.17","653","Te bizony sokat plövőrzöl. Én is sokat...","0","plövőrzök","[""plövőrzök"",""plövőrzöm""]","","posttest trial","8",""
"html-button-response-clever","138","1008089","0.0-13.0-0.18","701","Te bizony sokat sprálszol. Én is sokat...","1","sprálszok","[""sprálszom"",""sprálszok""]","","posttest trial","8",""
"html-button-response-clever","139","1009264","0.0-13.0-0.19","673","Te bizony sokat fligzol. Én is sokat...","0","fligzok","[""fligzok"",""fligzom""]","","posttest trial","8",""
"html-button-response-clever","140","1010517","0.0-13.0-0.20","731","Te bizony sokat gilárzol. Én is sokat...","1","gilárzok","[""gilárzom"",""gilárzok""]","","posttest trial","8",""
"html-button-response-clever","141","1011773","0.0-13.0-0.21","744","Te bizony sokat frágapszol. Én is sokat...","1","frágapszok","[""frágapszom"",""frágapszok""]","","posttest trial","8",""
"html-button-response-clever","142","1013066","0.0-13.0-0.22","778","Te bizony sokat trihagzol. Én is sokat...","1","trihagzok","[""trihagzom"",""trihagzok""]","","posttest trial","8",""
"html-button-response-clever","143","1014417","0.0-13.0-0.23","847","Te bizony sokat livaklasz. Én is sokat...","1","livaklok","[""livaklom"",""livaklok""]","","posttest trial","8",""
"html-button-response-clever","144","1015767","0.0-13.0-0.24","842","Te bizony sokat prezlesz. Én is sokat...","1","prezlek","[""prezlem"",""prezlek""]","","posttest trial","8",""
"html-button-response-clever","145","1017172","0.0-13.0-0.25","897","Te bizony sokat aglasz. Én is sokat...","1","aglok","[""aglom"",""aglok""]","","posttest trial","8",""
"html-button-response-clever","146","1018571","0.0-13.0-0.26","882","Te bizony sokat spülöklesz. Én is sokat...","1","spülöklök","[""spülöklöm"",""spülöklök""]","","posttest trial","8",""
"html-button-response-clever","147","1019811","0.0-13.0-0.27","725","Te bizony sokat vűjlesz. Én is sokat...","0","vűjlök","[""vűjlök"",""vűjlöm""]","","posttest trial","8",""
"html-button-response-clever","148","1021038","0.0-13.0-0.28","723","Te bizony sokat sprédlesz. Én is sokat...","1","sprédlek","[""sprédlem"",""sprédlek""]","","posttest trial","8",""
"html-button-response-clever","149","1022210","0.0-13.0-0.29","650","Te bizony sokat flibekszel. Én is sokat...","0","flibekszek","[""flibekszek"",""flibekszem""]","","posttest trial","8",""
"html-button-response-clever","150","1023375","0.0-13.0-0.30","650","Te bizony sokat mékszel. Én is sokat...","1","mékszek","[""mékszem"",""mékszek""]","","posttest trial","8",""
"html-button-response-clever","151","1024597","0.0-13.0-0.31","713","Te bizony sokat spülőrzöl. Én is sokat...","1","spülőrzök","[""spülőrzöm"",""spülőrzök""]","","posttest trial","8",""
"html-button-response-clever","152","1025948","0.0-13.0-0.32","828","Te bizony sokat tuboklasz. Én is sokat...","1","tuboklok","[""tuboklom"",""tuboklok""]","","posttest trial","8",""
"html-button-response-clever","153","1027057","0.0-13.0-0.33","603","Te bizony sokat flözlesz. Én is sokat...","1","flözlök","[""flözlöm"",""flözlök""]","","posttest trial","8",""
"html-button-response-clever","154","1028335","0.0-13.0-0.34","765","Te bizony sokat sztruglasz. Én is sokat...","1","sztruglok","[""sztruglom"",""sztruglok""]","","posttest trial","8",""
"html-button-response-clever","155","1029475","0.0-13.0-0.35","631","Te bizony sokat kumlasz. Én is sokat...","1","kumlok","[""kumlom"",""kumlok""]","","posttest trial","8",""
"html-button-response-clever","156","1030676","0.0-13.0-0.36","698","Te bizony sokat vihepszel. Én is sokat...","1","vihepszek","[""vihepszem"",""vihepszek""]","","posttest trial","8",""
"html-button-response-clever","157","1031817","0.0-13.0-0.37","630","Te bizony sokat klidlasz. Én is sokat...","1","klidlok","[""klidlom"",""klidlok""]","","posttest trial","8",""
"html-button-response-clever","158","1032991","0.0-13.0-0.38","669","Te bizony sokat préleglesz. Én is sokat...","0","préleglek","[""préleglek"",""préleglem""]","","posttest trial","8",""
"html-button-response-clever","159","1034305","0.0-13.0-0.39","807","Te bizony sokat floglasz. Én is sokat...","0","floglok","[""floglok"",""floglom""]","","posttest trial","8",""
"html-button-response-clever","160","1035695","0.0-13.0-0.40","876","Te bizony sokat praslasz. Én is sokat...","0","praslok","[""praslok"",""praslom""]","","posttest trial","8",""
"html-button-response-clever","161","1036711","0.0-13.0-0.41","507","Te bizony sokat péleslesz. Én is sokat...","0","péleslek","[""péleslek"",""péleslem""]","","posttest trial","8",""
"html-button-response-clever","162","1037935","0.0-13.0-0.42","704","Te bizony sokat ibáglasz. Én is sokat...","1","ibáglok","[""ibáglom"",""ibáglok""]","","posttest trial","8",""
"html-button-response-clever","163","1039197","0.0-13.0-0.43","755","Te bizony sokat fivénylesz. Én is sokat...","1","fivénylek","[""fivénylem"",""fivénylek""]","","posttest trial","8",""
"html-button-response-clever","164","1040494","0.0-13.0-0.44","788","Te bizony sokat bivejlesz. Én is sokat...","0","bivejlek","[""bivejlek"",""bivejlem""]","","posttest trial","8",""
"html-button-response-clever","165","1041716","0.0-13.0-0.45","712","Te bizony sokat lihadzol. Én is sokat...","0","lihadzok","[""lihadzok"",""lihadzom""]","","posttest trial","8",""
"html-button-response-clever","166","1042698","0.0-13.0-0.46","468","Te bizony sokat spírzol. Én is sokat...","0","spírzok","[""spírzok"",""spírzom""]","","posttest trial","8",""
"html-button-response-clever","167","1043889","0.0-13.0-0.47","677","Te bizony sokat klárzol. Én is sokat...","1","klárzok","[""klárzom"",""klárzok""]","","posttest trial","8",""
"html-button-response-clever","168","1045159","0.0-13.0-0.48","751","Te bizony sokat spélszel. Én is sokat...","0","spélszek","[""spélszek"",""spélszem""]","","posttest trial","8",""
"html-button-response-clever","169","1046419","0.0-13.0-0.49","739","Te bizony sokat prohódzol. Én is sokat...","0","prohódzok","[""prohódzok"",""prohódzom""]","","posttest trial","8",""
"html-button-response-clever","170","1047531","0.0-13.0-0.50","593","Te bizony sokat fliraklasz. Én is sokat...","0","fliraklok","[""fliraklok"",""fliraklom""]","","posttest trial","8",""
"html-button-response-clever","171","1048584","0.0-13.0-0.51","548","Te bizony sokat gerénylesz. Én is sokat...","0","gerénylek","[""gerénylek"",""gerénylem""]","","posttest trial","8",""
"html-button-response-clever","172","1049692","0.0-13.0-0.52","599","Te bizony sokat plágadzol. Én is sokat...","0","plágadzok","[""plágadzok"",""plágadzom""]","","posttest trial","8",""
"html-button-response-clever","173","1050731","0.0-13.0-0.53","532","Te bizony sokat csólorzol. Én is sokat...","0","csólorzok","[""csólorzok"",""csólorzom""]","","posttest trial","8",""
"html-button-response","174","1055178","0.0-14.0","3939","<p> Vége a játéknak. A teljes pontszámod 32/54.</p><p> Szép munka! &#128526;&#128526;&#128526;</p><p>A Befejezés gomb megnyomása után bezárhatod a böngészőablakot.</p>","0","","","","","",""
"html-keyboard-response","175","1060695","0.0-15.0","null","<div class=""message"">
         <p>Egy kis türelmet kérünk, amíg elmentjük az adatokat...</p>
         </div>","null","","","","","",""
