"trial_type","trial_index","time_elapsed","internal_node_id","rt","stimulus","response","response_string","choices","esp_response","trial_kind","list_number","esp_match"
"pavlovia","0","697","0.0-0.0","","","","","","","","",""
"html-button-response","1","13325","0.0-1.0","12120","<p>Kedves Résztvevő! A Budapesti Műszaki és Gazdaságtudományi Egyetem Kognitív Tudományi Tanszékének kutatásában való részvételed kérjük. A kutatásban azt vizsgáljuk, hogy a magyar anyanyelvűek hogyan használnak bizonyos szóalakokat, és hogy milyen képük van arról, hogy mások hogyan használják, hogyan képzik a szavakat. Ez hozzásegít bennünket ahhoz, hogy jobban megértsük, hogyan dolgozza fel és tárolja a nyelvet az emberi agy, és hogyan működnek, hogyan változnak egy adott közösség nyelvi konvenciói.</p><p>A vizsgálat egy rövid számítógépes feladatból fog állni. A kutatásban való részvétel önkéntes, a részvételi szándék bármikor visszavonható. A résztvevők eredményeit név nélkül kezeljük, így nem beazonosíthatók az adatok feldolgozása során. Minden személyes adatot az EU általános adatvédelmi rendeletének (GDPR) megfelelően kezelünk és legfeljebb öt éven belül megsemmisítünk. A vizsgálat jellemzően húsz percet vesz igénybe.</p><p>Kutatásvezető:</p><p>Dr. Rácz Péter, tudományos munkatárs, BME KTT</p><p>e-mail: racz.peter.marton@ttk.bme.hu</p>","0","","","","","",""
"html-button-response","2","43358","0.0-2.0","29527","<p>A kísérletben szavakat fogsz látni. Ezek között lesznek olyanok, amelyeket ismersz, de előfordulhatnak olyanok is, amelyeket nem ismersz, sőt, vannak köztük kitalált szavak is. Minden szónál látni fogsz toldalékolt alakokat. A te feladatod az lesz, hogy minden szóhoz kiválaszd azt a toldalékolt alakot, amely a te számodra ismerősebben, természetesebben hangzik. Rossz válaszok nincsenek, mert van olyan, hogy különböző embereknek más és más szó tűnik jobb választásnak. A választ úgy tudod majd kiválasztani, ha rákattintasz.</p><p>Ebben a szóválasztós játékban egy másik játékossal együtt veszel majd részt. A másik játékos is minden esetben azok közül a lehetőségek közül válogathat, mint te. Kettőtök feladata az, hogy ugyanazt a lehetőséget válasszátok minden esetben. Ahhoz, hogy ez sikerüljön, neked figyelned kell arra, hogy a másik játékos milyen válaszokat ad, és ennek alapján meg kell tippelned, hogyan választ legközelebb. Ha eltalálod, akkor pontot kapsz.</p>","0","","","","","",""
"html-button-response","3","104351","0.0-3.0","60480","<p>Kérjük, olvasd el az alábbi nyilatkozatot, és amennyiben egyetértesz vele, nyomj a Beleegyezés gombra!</p><p>Kijelentem, hogy magyar anyanyelvű személyként önként veszek részt a BME KTT kísérletében. A kutatás céljával és folyamatával kapcsolatban elegendő tájékoztatást kaptam, lehetőségem volt kérdések feltételére, és esetleges kérdéseimre megfelelő válaszokat kaptam. A tájékoztatás alapján elegendő mennyiségű információ áll a rendelkezésemre, hogy eldönthessem, részt kívánok-e venni a kutatásban.</p><p>Tisztában vagyok vele, hogy részvételi szándékomat és adataimat bármikor, indoklás nélkül visszavonhatom.</p><p>Értem és tudomásul veszem, hogy a kutatás tudományos célokat szolgál, és az általam szolgáltatott adatokat a BME kizárólag kutatási célból használja fel. Tudomásul veszem, hogy eredményeimet a többi résztvevő eredményeivel együtt kezelik, így egyéni teljesítményemről visszajelzést, szakvéleményt nem kapok.</p><p>Megértettem, hogy adataim kezelését illetően a BME az EU általános adatvédelmi rendelete (GDPR), a hatályos adatvédelmi törvény és a nemzetközi kutatás-etikai alapelvek szerint jár el. Eredményeim anonim módon kerülnek feldolgozásra, és a kutatás résztvevői az azonosításomra alkalmas adataimat harmadik félnek nem szolgáltatják ki. Engedélyezem a BME számára a jelen kutatásban felvett adataim feldolgozását és tárolását, beleértve azok későbbi kutatásokhoz való felhasználását is. Személyes adataim kezelésével kapcsolatban tájékoztatást kérhetek a kutatás résztvevőitől, az adatkezelés ellen tiltakozhatok, kérhetem személyes adataim helyesbítését, törlését vagy zárolását, valamint jogorvoslatért a Nemzeti Adatvédelmi és Információszabadság Hatósághoz fordulhatok.</p><p>Kijelentem, hogy a kutatásban való részvételem körülményeiről részletes tájékoztatást kaptam, és a feltételeket elfogadom.</p>","0","","","","","",""
"survey-text","4","146382","0.0-4.0","41509","","{""Q0"":""gc4ctk"",""Q1"":""nő"",""Q2"":""2002"",""Q3"":""14""}","","","","","",""
"html-button-response","5","156186","0.0-5.0","9288","<p>Ebben a játékban szavakat kell toldalékolni.</p> <p>Minden körben mutatunk majd egy példamondatot, amiben lesz egy szó.</p> <p>Alatta jön egy második mondat, ezt a mondatot neked kell majd befejezni, ugyanezzel a szóval.</p> <p>Nem biztos, hogy a szó eleve ismerős lesz számodra!</p> <p>Minden mondathoz adunk két lehetőséget, ezeket balra és jobbra látod majd.</p> <p>A játék kb. negyedóráig-húsz percig tart.</p>","0","","","","","",""
"html-button-response","6","181925","0.0-6.0","25228","<p>Nézzünk egy példát!</p> <p>A példamondat: ""János imád fláramolni, ezért sokat fláramlik. Mi ritkán...""</p><p>Neked ezt a mondatot kell befejezned: ""Ti ritkán...""</p><p>A lehetőségek pedig ezek:</p>","0","","","","","",""
"html-button-response","7","185442","0.0-7.0","2996","<p>Nagyon jó.</p><p>Ezt a játékot nem egyedül fogod játszani, hanem egy másik játékossal.</p><p>Mielőtt továbblépünk, összekapcsolunk titeket egymással.</p><p>Ez igénybe vehet néhány másodpercet, amihez szíves türelmed kérjük.</p>","0","","","","","",""
"html-button-response","8","191199","0.0-8.0","null","<p>Csatlakozás a másik játékoshoz...</p>","null","","","","","",""
"html-button-response","9","193725","0.0-9.0","null","<p> Sikeres kapcsolódás!</p>","null","","","","","",""
"html-button-response","10","197848","0.0-10.0","3598","<p>A következőkben ketten játsszátok a szóválasztós játékot.</p><p>A feladatotok az lesz, hogy minden körben <b>ugyanazt</b> a szót válasszátok.</p><p>Minden ilyen egyező válaszért pontot kaptok.</p><p>Próbáld meg kitalálni, mit választ a másik játékos!</p><p>Bármikor választhatsz, a körnek akkor van vége, ha mindketten döntöttetek.</p><p>Sok sikert!</p>","0","","","","","",""
"html-button-response-esp","11","208555","0.0-11.0-0.0","10187","János imád bötőrözni, ezért sokat bötőrzik. Mi ritkán...","1","bötőrözünk","[""bötőrzünk"",""bötőrözünk""]","bötőrzünk","esp trial","0","false"
"html-button-response","12","212077","0.0-11.0-1.0","null","<p>A másik játékos ezt választotta: <b>bötőrzünk</b>.</p><p>&#10060;</p><p>A válaszaitok <b>nem</b> egyeznek meg.</p>","null","","","","feedback trial","",""
"html-button-response-esp","13","216726","0.0-11.0-0.1","3173","János imád klűmözni, ezért sokat klűmlik. Ti ritkán...","0","klűmöztök","[""klűmöztök"",""klűmlötök""]","klűmlötök","esp trial","0","false"
"html-button-response","14","220254","0.0-11.0-1.1","null","<p>A másik játékos ezt választotta: <b>klűmlötök</b>.</p><p>&#10060;</p><p>A válaszaitok <b>nem</b> egyeznek meg.</p>","null","","","","feedback trial","",""
"html-button-response-esp","15","230398","0.0-11.0-0.2","9624","János imád döjözni, ezért sokat döjlik. Ők ritkán...","0","döjöznek","[""döjöznek"",""döjlenek""]","döjöznek","esp trial","0","true"
"html-button-response","16","233935","0.0-11.0-1.2","null","<p>A másik játékos ezt választotta: <b>döjöznek</b>.</p><p>&#x2705;</p><p>A te válaszod és a másik játékos válasza <b>megegyeznek</b>.</p>","null","","","","feedback trial","",""
"html-button-response-esp","17","239039","0.0-11.0-0.3","4581","János imád brűközni, ezért sokat brűklik. Ti ritkán...","0","brűklötök","[""brűklötök"",""brűköztök""]","brűklötök","esp trial","0","true"
"html-button-response","18","242567","0.0-11.0-1.3","null","<p>A másik játékos ezt választotta: <b>brűklötök</b>.</p><p>&#x2705;</p><p>A te válaszod és a másik játékos válasza <b>megegyeznek</b>.</p>","null","","","","feedback trial","",""
"html-button-response-esp","19","247646","0.0-11.0-0.4","4572","János imád gihamozni, ezért sokat gihamlik. Ők ritkán...","0","gihamoznak","[""gihamoznak"",""gihamlanak""]","gihamlanak","esp trial","0","false"
"html-button-response","20","251179","0.0-11.0-1.4","null","<p>A másik játékos ezt választotta: <b>gihamlanak</b>.</p><p>&#10060;</p><p>A válaszaitok <b>nem</b> egyeznek meg.</p>","null","","","","feedback trial","",""
"html-button-response-esp","21","259319","0.0-11.0-0.5","7626","János imád géregezni, ezért sokat géreglik. Ti ritkán...","0","géregeztek","[""géregeztek"",""géregletek""]","géregletek","esp trial","0","false"
"html-button-response","22","262849","0.0-11.0-1.5","null","<p>A másik játékos ezt választotta: <b>géregletek</b>.</p><p>&#10060;</p><p>A válaszaitok <b>nem</b> egyeznek meg.</p>","null","","","","feedback trial","",""
"html-button-response-esp","23","270364","0.0-11.0-0.6","6998","János imád nyizozni, ezért sokat nyizlik. Mi ritkán...","1","nyizlunk","[""nyizozunk"",""nyizlunk""]","nyizozunk","esp trial","0","false"
"html-button-response","24","273889","0.0-11.0-1.6","null","<p>A másik játékos ezt választotta: <b>nyizozunk</b>.</p><p>&#10060;</p><p>A válaszaitok <b>nem</b> egyeznek meg.</p>","null","","","","feedback trial","",""
"html-button-response-esp","25","280403","0.0-11.0-0.7","5997","János imád hubonyozni, ezért sokat hubonylik. Ti ritkán...","1","hubonyoztok","[""hubonylotok"",""hubonyoztok""]","hubonylotok","esp trial","0","false"
"html-button-response","26","283929","0.0-11.0-1.7","null","<p>A másik játékos ezt választotta: <b>hubonylotok</b>.</p><p>&#10060;</p><p>A válaszaitok <b>nem</b> egyeznek meg.</p>","null","","","","feedback trial","",""
"html-button-response-esp","27","288972","0.0-11.0-0.8","4522","János imád jurozni, ezért sokat jurlik. Mi ritkán...","1","jurlunk","[""jurozunk"",""jurlunk""]","jurlunk","esp trial","0","true"
"html-button-response","28","292490","0.0-11.0-1.8","null","<p>A másik játékos ezt választotta: <b>jurlunk</b>.</p><p>&#x2705;</p><p>A te válaszod és a másik játékos válasza <b>megegyeznek</b>.</p>","null","","","","feedback trial","",""
"html-button-response-esp","29","299335","0.0-11.0-0.9","6327","János imád klihasozni, ezért sokat klihaslik. Ti ritkán...","0","klihasoztok","[""klihasoztok"",""klihaslotok""]","klihaslotok","esp trial","0","false"
"html-button-response","30","302861","0.0-11.0-1.9","null","<p>A másik játékos ezt választotta: <b>klihaslotok</b>.</p><p>&#10060;</p><p>A válaszaitok <b>nem</b> egyeznek meg.</p>","null","","","","feedback trial","",""
"html-button-response-esp","31","320075","0.0-11.0-0.10","16697","János imád vilesezni, ezért sokat vileslik. Mi ritkán...","0","vilesezünk","[""vilesezünk"",""vileslünk""]","vileslünk","esp trial","0","false"
"html-button-response","32","323594","0.0-11.0-1.10","null","<p>A másik játékos ezt választotta: <b>vileslünk</b>.</p><p>&#10060;</p><p>A válaszaitok <b>nem</b> egyeznek meg.</p>","null","","","","feedback trial","",""
"html-button-response-esp","33","337966","0.0-11.0-0.11","13854","János imád trilekedni, ezért sokat trilekszik. Ti ritkán...","0","trilekszetek","[""trilekszetek"",""trilekedtek""]","trilekszetek","esp trial","0","true"
"html-button-response","34","341496","0.0-11.0-1.11","null","<p>A másik játékos ezt választotta: <b>trilekszetek</b>.</p><p>&#x2705;</p><p>A te válaszod és a másik játékos válasza <b>megegyeznek</b>.</p>","null","","","","feedback trial","",""
"html-button-response-esp","35","355634","0.0-11.0-0.12","13622","János imád pibegezni, ezért sokat pibegzik. Ők ritkán...","0","pibegeznek","[""pibegeznek"",""pibegzenek""]","pibegzenek","esp trial","0","false"
"html-button-response","36","359158","0.0-11.0-1.12","null","<p>A másik játékos ezt választotta: <b>pibegzenek</b>.</p><p>&#10060;</p><p>A válaszaitok <b>nem</b> egyeznek meg.</p>","null","","","","feedback trial","",""
"html-button-response-esp","37","375465","0.0-11.0-0.13","15791","János imád sztredezni, ezért sokat sztredlik. Ti ritkán...","1","sztredletek","[""sztredeztek"",""sztredletek""]","sztredletek","esp trial","0","true"
"html-button-response","38","378988","0.0-11.0-1.13","null","<p>A másik játékos ezt választotta: <b>sztredletek</b>.</p><p>&#x2705;</p><p>A te válaszod és a másik játékos válasza <b>megegyeznek</b>.</p>","null","","","","feedback trial","",""
"html-button-response-esp","39","386505","0.0-11.0-0.14","7002","János imád flodozni, ezért sokat flodlik. Ti ritkán...","1","flodoztok","[""flodlotok"",""flodoztok""]","flodlotok","esp trial","0","false"
"html-button-response","40","390030","0.0-11.0-1.14","null","<p>A másik játékos ezt választotta: <b>flodlotok</b>.</p><p>&#10060;</p><p>A válaszaitok <b>nem</b> egyeznek meg.</p>","null","","","","feedback trial","",""
"html-button-response-esp","41","401423","0.0-11.0-0.15","10876","János imád frélegezni, ezért sokat frélegzik. Mi ritkán...","1","frélegzünk","[""frélegezünk"",""frélegzünk""]","frélegezünk","esp trial","0","false"
"html-button-response","42","404951","0.0-11.0-1.15","null","<p>A másik játékos ezt választotta: <b>frélegezünk</b>.</p><p>&#10060;</p><p>A válaszaitok <b>nem</b> egyeznek meg.</p>","null","","","","feedback trial","",""
"html-button-response-esp","43","416893","0.0-11.0-0.16","11425","János imád trukodni, ezért sokat trukszik. Ti ritkán...","1","trukodtok","[""trukszotok"",""trukodtok""]","trukszotok","esp trial","0","false"
"html-button-response","44","420418","0.0-11.0-1.16","null","<p>A másik játékos ezt választotta: <b>trukszotok</b>.</p><p>&#10060;</p><p>A válaszaitok <b>nem</b> egyeznek meg.</p>","null","","","","feedback trial","",""
"html-button-response-esp","45","425059","0.0-11.0-0.17","1618","János imád flugonyozni, ezért sokat flugonylik. Ők ritkán...","0","flugonylanak","[""flugonylanak"",""flugonyoznak""]","flugonylanak","esp trial","0","true"
"html-button-response","46","428595","0.0-11.0-1.17","null","<p>A másik játékos ezt választotta: <b>flugonylanak</b>.</p><p>&#x2705;</p><p>A te válaszod és a másik játékos válasza <b>megegyeznek</b>.</p>","null","","","","feedback trial","",""
"html-button-response-esp","47","435641","0.0-11.0-0.18","6531","János imád bejezni, ezért sokat bejzik. Mi ritkán...","0","bejzünk","[""bejzünk"",""bejezünk""]","bejzünk","esp trial","0","true"
"html-button-response","48","439167","0.0-11.0-1.18","null","<p>A másik játékos ezt választotta: <b>bejzünk</b>.</p><p>&#x2705;</p><p>A te válaszod és a másik játékos válasza <b>megegyeznek</b>.</p>","null","","","","feedback trial","",""
"html-button-response-esp","49","443802","0.0-11.0-0.19","1426","János imád spivejezni, ezért sokat spivejlik. Ők ritkán...","0","spivejlenek","[""spivejlenek"",""spivejeznek""]","spivejlenek","esp trial","0","true"
"html-button-response","50","447323","0.0-11.0-1.19","null","<p>A másik játékos ezt választotta: <b>spivejlenek</b>.</p><p>&#x2705;</p><p>A te válaszod és a másik játékos válasza <b>megegyeznek</b>.</p>","null","","","","feedback trial","",""
"html-button-response-esp","51","451971","0.0-11.0-0.20","1333","János imád nyülöközni, ezért sokat nyülöklik. Ők ritkán...","0","nyülöklenek","[""nyülöklenek"",""nyülököznek""]","nyülöklenek","esp trial","0","true"
"html-button-response","52","455500","0.0-11.0-1.20","null","<p>A másik játékos ezt választotta: <b>nyülöklenek</b>.</p><p>&#x2705;</p><p>A te válaszod és a másik játékos válasza <b>megegyeznek</b>.</p>","null","","","","feedback trial","",""
"html-button-response-esp","53","460131","0.0-11.0-0.21","2536","János imád dralágozni, ezért sokat dralágzik. Mi ritkán...","0","dralágzunk","[""dralágzunk"",""dralágozunk""]","dralágozunk","esp trial","0","false"
"html-button-response","54","463660","0.0-11.0-1.21","null","<p>A másik játékos ezt választotta: <b>dralágozunk</b>.</p><p>&#10060;</p><p>A válaszaitok <b>nem</b> egyeznek meg.</p>","null","","","","feedback trial","",""
"html-button-response-esp","55","468287","0.0-11.0-0.22","2700","János imád brürözni, ezért sokat brürzik. Ők ritkán...","0","brüröznek","[""brüröznek"",""brürzenek""]","brürzenek","esp trial","0","false"
"html-button-response","56","471821","0.0-11.0-1.22","null","<p>A másik játékos ezt választotta: <b>brürzenek</b>.</p><p>&#10060;</p><p>A válaszaitok <b>nem</b> egyeznek meg.</p>","null","","","","feedback trial","",""
"html-button-response-esp","57","476449","0.0-11.0-0.23","1272","János imád bribékedni, ezért sokat bribékszik. Ti ritkán...","1","bribékedtek","[""bribékszetek"",""bribékedtek""]","bribékszetek","esp trial","0","false"
"html-button-response","58","479972","0.0-11.0-1.23","null","<p>A másik játékos ezt választotta: <b>bribékszetek</b>.</p><p>&#10060;</p><p>A válaszaitok <b>nem</b> egyeznek meg.</p>","null","","","","feedback trial","",""
"html-button-response-esp","59","484615","0.0-11.0-0.24","886","János imád nivározni, ezért sokat nivárzik. Ti ritkán...","0","nivárzotok","[""nivárzotok"",""nivároztok""]","nivárzotok","esp trial","0","true"
"html-button-response","60","488138","0.0-11.0-1.24","null","<p>A másik játékos ezt választotta: <b>nivárzotok</b>.</p><p>&#x2705;</p><p>A te válaszod és a másik játékos válasza <b>megegyeznek</b>.</p>","null","","","","feedback trial","",""
"html-button-response-esp","61","492768","0.0-11.0-0.25","1734","János imád spuborozni, ezért sokat spuborzik. Ők ritkán...","0","spuboroznak","[""spuboroznak"",""spuborzanak""]","spuborzanak","esp trial","0","false"
"html-button-response","62","496297","0.0-11.0-1.25","null","<p>A másik játékos ezt választotta: <b>spuborzanak</b>.</p><p>&#10060;</p><p>A válaszaitok <b>nem</b> egyeznek meg.</p>","null","","","","feedback trial","",""
"html-button-response-esp","63","504676","0.0-11.0-0.26","7863","János imád frorozni, ezért sokat frorlik. Ők ritkán...","1","froroznak","[""frorlanak"",""froroznak""]","froroznak","esp trial","0","true"
"html-button-response","64","508199","0.0-11.0-1.26","null","<p>A másik játékos ezt választotta: <b>froroznak</b>.</p><p>&#x2705;</p><p>A te válaszod és a másik játékos válasza <b>megegyeznek</b>.</p>","null","","","","feedback trial","",""
"html-button-response-esp","65","514985","0.0-11.0-0.27","6258","János imád kláragodni, ezért sokat kláragszik. Ti ritkán...","1","kláragszotok","[""kláragodtok"",""kláragszotok""]","kláragszotok","esp trial","0","true"
"html-button-response","66","518505","0.0-11.0-1.27","null","<p>A másik játékos ezt választotta: <b>kláragszotok</b>.</p><p>&#x2705;</p><p>A te válaszod és a másik játékos válasza <b>megegyeznek</b>.</p>","null","","","","feedback trial","",""
"html-button-response-esp","67","523127","0.0-11.0-0.28","4090","János imád klégezni, ezért sokat kléglik. Mi ritkán...","0","klégezünk","[""klégezünk"",""kléglünk""]","klégezünk","esp trial","0","true"
"html-button-response","68","526648","0.0-11.0-1.28","null","<p>A másik játékos ezt választotta: <b>klégezünk</b>.</p><p>&#x2705;</p><p>A te válaszod és a másik játékos válasza <b>megegyeznek</b>.</p>","null","","","","feedback trial","",""
"html-button-response-esp","69","532701","0.0-11.0-0.29","5545","János imád flerékedni, ezért sokat flerékszik. Mi ritkán...","0","flerékszünk","[""flerékszünk"",""flerékedünk""]","flerékszünk","esp trial","0","true"
"html-button-response","70","536228","0.0-11.0-1.29","null","<p>A másik játékos ezt választotta: <b>flerékszünk</b>.</p><p>&#x2705;</p><p>A te válaszod és a másik játékos válasza <b>megegyeznek</b>.</p>","null","","","","feedback trial","",""
"html-button-response-esp","71","542241","0.0-11.0-0.30","5498","János imád frirozni, ezért sokat frirzik. Mi ritkán...","1","frirzunk","[""frirozunk"",""frirzunk""]","frirzunk","esp trial","0","true"
"html-button-response","72","545767","0.0-11.0-1.30","null","<p>A másik játékos ezt választotta: <b>frirzunk</b>.</p><p>&#x2705;</p><p>A te válaszod és a másik játékos válasza <b>megegyeznek</b>.</p>","null","","","","feedback trial","",""
"html-button-response-esp","73","552615","0.0-11.0-0.31","6331","János imád prihegedni, ezért sokat prihegszik. Ők ritkán...","1","prihegednek","[""prihegszenek"",""prihegednek""]","prihegszenek","esp trial","0","false"
"html-button-response","74","556141","0.0-11.0-1.31","null","<p>A másik játékos ezt választotta: <b>prihegszenek</b>.</p><p>&#10060;</p><p>A válaszaitok <b>nem</b> egyeznek meg.</p>","null","","","","feedback trial","",""
"html-button-response-esp","75","563071","0.0-11.0-0.32","6410","János imád bribasozni, ezért sokat bribaslik. Ők ritkán...","0","bribasoznak","[""bribasoznak"",""bribaslanak""]","bribaslanak","esp trial","0","false"
"html-button-response","76","566600","0.0-11.0-1.32","null","<p>A másik játékos ezt választotta: <b>bribaslanak</b>.</p><p>&#10060;</p><p>A válaszaitok <b>nem</b> egyeznek meg.</p>","null","","","","feedback trial","",""
"html-button-response-esp","77","571242","0.0-11.0-0.33","3329","János imád ribegedni, ezért sokat ribegszik. Ti ritkán...","0","ribegedtek","[""ribegedtek"",""ribegszetek""]","ribegszetek","esp trial","0","false"
"html-button-response","78","574771","0.0-11.0-1.33","null","<p>A másik játékos ezt választotta: <b>ribegszetek</b>.</p><p>&#10060;</p><p>A válaszaitok <b>nem</b> egyeznek meg.</p>","null","","","","feedback trial","",""
"html-button-response-esp","79","579419","0.0-11.0-0.34","2948","János imád vihapodni, ezért sokat vihapszik. Mi ritkán...","0","vihapodunk","[""vihapodunk"",""vihapszunk""]","vihapodunk","esp trial","0","true"
"html-button-response","80","582948","0.0-11.0-1.34","null","<p>A másik játékos ezt választotta: <b>vihapodunk</b>.</p><p>&#x2705;</p><p>A te válaszod és a másik játékos válasza <b>megegyeznek</b>.</p>","null","","","","feedback trial","",""
"html-button-response-esp","81","588764","0.0-11.0-0.35","5295","János imád metégedni, ezért sokat metégszik. Ők ritkán...","0","metégszenek","[""metégszenek"",""metégednek""]","metégszenek","esp trial","0","true"
"html-button-response","82","592288","0.0-11.0-1.35","null","<p>A másik játékos ezt választotta: <b>metégszenek</b>.</p><p>&#x2705;</p><p>A te válaszod és a másik játékos válasza <b>megegyeznek</b>.</p>","null","","","","feedback trial","",""
"html-button-response-esp","83","596932","0.0-11.0-0.36","1824","János imád tögözni, ezért sokat töglik. Ők ritkán...","0","tögöznek","[""tögöznek"",""töglenek""]","tögöznek","esp trial","0","true"
"html-button-response","84","600465","0.0-11.0-1.36","null","<p>A másik játékos ezt választotta: <b>tögöznek</b>.</p><p>&#x2705;</p><p>A te válaszod és a másik játékos válasza <b>megegyeznek</b>.</p>","null","","","","feedback trial","",""
"html-button-response-esp","85","605097","0.0-11.0-0.37","3813","János imád frinyozni, ezért sokat frinylik. Mi ritkán...","0","frinyozunk","[""frinyozunk"",""frinylunk""]","frinylunk","esp trial","0","false"
"html-button-response","86","608622","0.0-11.0-1.37","null","<p>A másik játékos ezt választotta: <b>frinylunk</b>.</p><p>&#10060;</p><p>A válaszaitok <b>nem</b> egyeznek meg.</p>","null","","","","feedback trial","",""
"html-button-response-esp","87","613254","0.0-11.0-0.38","3631","János imád bresezni, ezért sokat breslik. Ők ritkán...","0","breslenek","[""breslenek"",""breseznek""]","breslenek","esp trial","0","true"
"html-button-response","88","616786","0.0-11.0-1.38","null","<p>A másik játékos ezt választotta: <b>breslenek</b>.</p><p>&#x2705;</p><p>A te válaszod és a másik játékos válasza <b>megegyeznek</b>.</p>","null","","","","feedback trial","",""
"html-button-response-esp","89","622778","0.0-11.0-0.39","5465","János imád trálodni, ezért sokat trálszik. Mi ritkán...","1","trálodunk","[""trálszunk"",""trálodunk""]","trálodunk","esp trial","0","true"
"html-button-response","90","626310","0.0-11.0-1.39","null","<p>A másik játékos ezt választotta: <b>trálodunk</b>.</p><p>&#x2705;</p><p>A te válaszod és a másik játékos válasza <b>megegyeznek</b>.</p>","null","","","","feedback trial","",""
"html-button-response-esp","91","631807","0.0-11.0-0.40","4979","János imád prugorozni, ezért sokat prugorzik. Ti ritkán...","1","prugoroztok","[""prugorzotok"",""prugoroztok""]","prugorzotok","esp trial","0","false"
"html-button-response","92","635346","0.0-11.0-1.40","null","<p>A másik játékos ezt választotta: <b>prugorzotok</b>.</p><p>&#10060;</p><p>A válaszaitok <b>nem</b> egyeznek meg.</p>","null","","","","feedback trial","",""
"html-button-response-esp","93","640792","0.0-11.0-0.41","4925","János imád sprebezni, ezért sokat sprebzik. Ők ritkán...","1","sprebzenek","[""sprebeznek"",""sprebzenek""]","sprebzenek","esp trial","0","true"
"html-button-response","94","644319","0.0-11.0-1.41","null","<p>A másik játékos ezt választotta: <b>sprebzenek</b>.</p><p>&#x2705;</p><p>A te válaszod és a másik játékos válasza <b>megegyeznek</b>.</p>","null","","","","feedback trial","",""
"html-button-response-esp","95","649218","0.0-11.0-0.42","4382","János imád flátozni, ezért sokat flátlik. Ti ritkán...","1","flátoztok","[""flátlotok"",""flátoztok""]","flátlotok","esp trial","0","false"
"html-button-response","96","652749","0.0-11.0-1.42","null","<p>A másik játékos ezt választotta: <b>flátlotok</b>.</p><p>&#10060;</p><p>A válaszaitok <b>nem</b> egyeznek meg.</p>","null","","","","feedback trial","",""
"html-button-response-esp","97","658148","0.0-11.0-0.43","4878","János imád nyöbözni, ezért sokat nyöbzik. Ők ritkán...","1","nyöböznek","[""nyöbzenek"",""nyöböznek""]","nyöbzenek","esp trial","0","false"
"html-button-response","98","661672","0.0-11.0-1.43","null","<p>A másik játékos ezt választotta: <b>nyöbzenek</b>.</p><p>&#10060;</p><p>A válaszaitok <b>nem</b> egyeznek meg.</p>","null","","","","feedback trial","",""
"html-button-response-esp","99","666303","0.0-11.0-0.44","1316","János imád sűjözni, ezért sokat sűjlik. Mi ritkán...","0","sűjlünk","[""sűjlünk"",""sűjözünk""]","sűjözünk","esp trial","0","false"
"html-button-response","100","669836","0.0-11.0-1.44","null","<p>A másik játékos ezt választotta: <b>sűjözünk</b>.</p><p>&#10060;</p><p>A válaszaitok <b>nem</b> egyeznek meg.</p>","null","","","","feedback trial","",""
"html-button-response-esp","101","674464","0.0-11.0-0.45","839","János imád bügözni, ezért sokat bügzik. Ők ritkán...","0","bügöznek","[""bügöznek"",""bügzenek""]","bügöznek","esp trial","0","true"
"html-button-response","102","677993","0.0-11.0-1.45","null","<p>A másik játékos ezt választotta: <b>bügöznek</b>.</p><p>&#x2705;</p><p>A te válaszod és a másik játékos válasza <b>megegyeznek</b>.</p>","null","","","","feedback trial","",""
"html-button-response-esp","103","682631","0.0-11.0-0.46","3065","János imád trálakozni, ezért sokat trálaklik. Ők ritkán...","0","trálakoznak","[""trálakoznak"",""trálaklanak""]","trálaklanak","esp trial","0","false"
"html-button-response","104","686154","0.0-11.0-1.46","null","<p>A másik játékos ezt választotta: <b>trálaklanak</b>.</p><p>&#10060;</p><p>A válaszaitok <b>nem</b> egyeznek meg.</p>","null","","","","feedback trial","",""
"html-button-response-esp","105","705653","0.0-11.0-0.47","18980","János imád játozni, ezért sokat játlik. Mi ritkán...","0","játozunk","[""játozunk"",""játlunk""]","játozunk","esp trial","0","true"
"html-button-response","106","709183","0.0-11.0-1.47","null","<p>A másik játékos ezt választotta: <b>játozunk</b>.</p><p>&#x2705;</p><p>A te válaszod és a másik játékos válasza <b>megegyeznek</b>.</p>","null","","","","feedback trial","",""
"html-button-response-esp","107","714445","0.0-11.0-0.48","4747","János imád nyádozni, ezért sokat nyádlik. Ők ritkán...","1","nyádlanak","[""nyádoznak"",""nyádlanak""]","nyádoznak","esp trial","0","false"
"html-button-response","108","717973","0.0-11.0-1.48","null","<p>A másik játékos ezt választotta: <b>nyádoznak</b>.</p><p>&#10060;</p><p>A válaszaitok <b>nem</b> egyeznek meg.</p>","null","","","","feedback trial","",""
"html-button-response-esp","109","722614","0.0-11.0-0.49","2816","János imád vehékedni, ezért sokat vehékszik. Mi ritkán...","1","vehékedünk","[""vehékszünk"",""vehékedünk""]","vehékedünk","esp trial","0","true"
"html-button-response","110","726147","0.0-11.0-1.49","null","<p>A másik játékos ezt választotta: <b>vehékedünk</b>.</p><p>&#x2705;</p><p>A te válaszod és a másik játékos válasza <b>megegyeznek</b>.</p>","null","","","","feedback trial","",""
"html-button-response-esp","111","730778","0.0-11.0-0.50","3856","János imád hiragozni, ezért sokat hiragzik. Ők ritkán...","1","hiragzanak","[""hiragoznak"",""hiragzanak""]","hiragzanak","esp trial","0","true"
"html-button-response","112","734309","0.0-11.0-1.50","null","<p>A másik játékos ezt választotta: <b>hiragzanak</b>.</p><p>&#x2705;</p><p>A te válaszod és a másik játékos válasza <b>megegyeznek</b>.</p>","null","","","","feedback trial","",""
"html-button-response-esp","113","740372","0.0-11.0-0.51","5544","János imád dibágozni, ezért sokat dibáglik. Ti ritkán...","1","dibáglotok","[""dibágoztok"",""dibáglotok""]","dibáglotok","esp trial","0","true"
"html-button-response","114","743913","0.0-11.0-1.51","null","<p>A másik játékos ezt választotta: <b>dibáglotok</b>.</p><p>&#x2705;</p><p>A te válaszod és a másik játékos válasza <b>megegyeznek</b>.</p>","null","","","","feedback trial","",""
"html-button-response-esp","115","749299","0.0-11.0-0.52","4869","János imád plibozni, ezért sokat plibzik. Ti ritkán...","0","plibzotok","[""plibzotok"",""pliboztok""]","plibzotok","esp trial","0","true"
"html-button-response","116","752820","0.0-11.0-1.52","null","<p>A másik játékos ezt választotta: <b>plibzotok</b>.</p><p>&#x2705;</p><p>A te válaszod és a másik játékos válasza <b>megegyeznek</b>.</p>","null","","","","feedback trial","",""
"html-button-response-esp","117","757460","0.0-11.0-0.53","3768","János imád nurokozni, ezért sokat nuroklik. Mi ritkán...","0","nurokozunk","[""nurokozunk"",""nuroklunk""]","nurokozunk","esp trial","0","true"
"html-button-response","118","761002","0.0-11.0-1.53","null","<p>A másik játékos ezt választotta: <b>nurokozunk</b>.</p><p>&#x2705;</p><p>A te válaszod és a másik játékos válasza <b>megegyeznek</b>.</p>","null","","","","feedback trial","",""
"html-button-response","119","770495","0.0-12.0","8976","<p>A közös játék most véget ért.</p><p>Mielőtt eláruljuk a végső pontszámodat, arra kérlek, játszd a szóválasztós játékot néhány percig egyedül is.</p><p>A feladatod ugyanaz lesz, választani két lehetőség közül.</p><p>Most viszont egyedül kell döntened, hogy te melyiket választanád.</p>","0","","","","","",""
"html-button-response-clever","120","776571","0.0-13.0-0.0","5555","János imád prélemezni, ezért sokat prélemlik. Ők ritkán...","0","prélemlenek","[""prélemlenek"",""prélemeznek""]","","posttest trial","4",""
"html-button-response-clever","121","780485","0.0-13.0-0.1","3399","János imád nyivágozni, ezért sokat nyivágzik. Mi ritkán...","0","nyivágzunk","[""nyivágzunk"",""nyivágozunk""]","","posttest trial","4",""
"html-button-response-clever","122","784882","0.0-13.0-0.2","3877","János imád dilakozni, ezért sokat dilaklik. Ti ritkán...","0","dilakoztok","[""dilakoztok"",""dilaklotok""]","","posttest trial","4",""
"html-button-response-clever","123","788027","0.0-13.0-0.3","2630","János imád spirágozni, ezért sokat spiráglik. Ti ritkán...","1","spiráglotok","[""spirágoztok"",""spiráglotok""]","","posttest trial","4",""
"html-button-response-clever","124","791892","0.0-13.0-0.4","3347","János imád trikozni, ezért sokat triklik. Ti ritkán...","1","triklotok","[""trikoztok"",""triklotok""]","","posttest trial","4",""
"html-button-response-clever","125","794605","0.0-13.0-0.5","2197","János imád frakozni, ezért sokat fraklik. Mi ritkán...","1","fraklunk","[""frakozunk"",""fraklunk""]","","posttest trial","4",""
"html-button-response-clever","126","798263","0.0-13.0-0.6","3140","János imád trivakodni, ezért sokat trivakszik. Mi ritkán...","1","trivakodunk","[""trivakszunk"",""trivakodunk""]","","posttest trial","4",""
"html-button-response-clever","127","802314","0.0-13.0-0.7","3529","János imád trugozni, ezért sokat trugzik. Ők ritkán...","1","trugzanak","[""trugoznak"",""trugzanak""]","","posttest trial","4",""
"html-button-response-clever","128","805313","0.0-13.0-0.8","2495","János imád gihejezni, ezért sokat gihejlik. Mi ritkán...","0","gihejezünk","[""gihejezünk"",""gihejlünk""]","","posttest trial","4",""
"html-button-response-clever","129","808952","0.0-13.0-0.9","3128","János imád prögözni, ezért sokat prögzik. Ti ritkán...","1","prögöztök","[""prögzötök"",""prögöztök""]","","posttest trial","4",""
"html-button-response-clever","130","811830","0.0-13.0-0.10","2371","János imád flűgözni, ezért sokat flűgzik. Mi ritkán...","1","flűgzünk","[""flűgözünk"",""flűgzünk""]","","posttest trial","4",""
"html-button-response-clever","131","815133","0.0-13.0-0.11","2792","János imád dárakodni, ezért sokat dárakszik. Mi ritkán...","1","dárakodunk","[""dárakszunk"",""dárakodunk""]","","posttest trial","4",""
"html-button-response-clever","132","818595","0.0-13.0-0.12","2954","János imád spiharozni, ezért sokat spiharzik. Ti ritkán...","1","spiharzotok","[""spiharoztok"",""spiharzotok""]","","posttest trial","4",""
"html-button-response-clever","133","821131","0.0-13.0-0.13","2018","János imád flöközni, ezért sokat flöklik. Ti ritkán...","1","flöklötök","[""flököztök"",""flöklötök""]","","posttest trial","4",""
"html-button-response-clever","134","824727","0.0-13.0-0.14","3080","János imád püzözni, ezért sokat püzlik. Ti ritkán...","1","püzlötök","[""püzöztök"",""püzlötök""]","","posttest trial","4",""
"html-button-response-clever","135","827507","0.0-13.0-0.15","2273","János imád csubozni, ezért sokat csubzik. Mi ritkán...","1","csubzunk","[""csubozunk"",""csubzunk""]","","posttest trial","4",""
"html-button-response-clever","136","830272","0.0-13.0-0.16","2246","János imád sprűrözni, ezért sokat sprűrlik. Ők ritkán...","0","sprűröznek","[""sprűröznek"",""sprűrlenek""]","","posttest trial","4",""
"html-button-response-clever","137","833652","0.0-13.0-0.17","2873","János imád trugokozni, ezért sokat trugoklik. Ők ritkán...","1","trugokoznak","[""trugoklanak"",""trugokoznak""]","","posttest trial","4",""
"html-button-response-clever","138","837082","0.0-13.0-0.18","2915","János imád pragányozni, ezért sokat pragánylik. Ti ritkán...","0","pragánylotok","[""pragánylotok"",""pragányoztok""]","","posttest trial","4",""
"html-button-response-clever","139","840011","0.0-13.0-0.19","2424","János imád posozni, ezért sokat poslik. Ti ritkán...","0","poslotok","[""poslotok"",""posoztok""]","","posttest trial","4",""
"html-button-response-clever","140","842959","0.0-13.0-0.20","2442","János imád branyozni, ezért sokat branylik. Ők ritkán...","1","branylanak","[""branyoznak"",""branylanak""]","","posttest trial","4",""
"html-button-response-clever","141","845740","0.0-13.0-0.21","2275","János imád frálapodni, ezért sokat frálapszik. Ti ritkán...","1","frálapodtok","[""frálapszotok"",""frálapodtok""]","","posttest trial","4",""
"html-button-response-clever","142","849192","0.0-13.0-0.22","2939","János imád gyihegezni, ezért sokat gyihegzik. Ti ritkán...","1","gyihegeztek","[""gyihegzetek"",""gyihegeztek""]","","posttest trial","4",""
"html-button-response-clever","143","879142","0.0-13.0-0.23","29436","János imád sprozozni, ezért sokat sprozlik. Ők ritkán...","1","sprozlanak","[""sprozoznak"",""sprozlanak""]","","posttest trial","4",""
"html-button-response-clever","144","882141","0.0-13.0-0.24","2481","János imád csibagozni, ezért sokat csibagzik. Ti ritkán...","1","csibagoztok","[""csibagzotok"",""csibagoztok""]","","posttest trial","4",""
"html-button-response-clever","145","885336","0.0-13.0-0.25","2680","János imád pilégedni, ezért sokat pilégszik. Ők ritkán...","0","pilégednek","[""pilégednek"",""pilégszenek""]","","posttest trial","4",""
"html-button-response-clever","146","888485","0.0-13.0-0.26","2632","János imád drilarozni, ezért sokat drilarzik. Mi ritkán...","1","drilarzunk","[""drilarozunk"",""drilarzunk""]","","posttest trial","4",""
"html-button-response-clever","147","892516","0.0-13.0-0.27","3514","János imád lűközni, ezért sokat lűklik. Ők ritkán...","0","lűklenek","[""lűklenek"",""lűköznek""]","","posttest trial","4",""
"html-button-response-clever","148","895988","0.0-13.0-0.28","2961","János imád virozni, ezért sokat virzik. Ők ritkán...","0","viroznak","[""viroznak"",""virzanak""]","","posttest trial","4",""
"html-button-response-clever","149","898341","0.0-13.0-0.29","1847","János imád privékedni, ezért sokat privékszik. Ők ritkán...","1","privékszenek","[""privékednek"",""privékszenek""]","","posttest trial","4",""
"html-button-response-clever","150","901124","0.0-13.0-0.30","2266","János imád drűrözni, ezért sokat drűrzik. Ők ritkán...","1","drűröznek","[""drűrzenek"",""drűröznek""]","","posttest trial","4",""
"html-button-response-clever","151","905052","0.0-13.0-0.31","3416","János imád mágamozni, ezért sokat mágamlik. Mi ritkán...","1","mágamozunk","[""mágamlunk"",""mágamozunk""]","","posttest trial","4",""
"html-button-response-clever","152","908411","0.0-13.0-0.32","2841","János imád föködni, ezért sokat fökszik. Ők ritkán...","1","fökszenek","[""föködnek"",""fökszenek""]","","posttest trial","4",""
"html-button-response-clever","153","911232","0.0-13.0-0.33","2317","János imád dabozni, ezért sokat dabzik. Ti ritkán...","1","dabzotok","[""daboztok"",""dabzotok""]","","posttest trial","4",""
"html-button-response-clever","154","917774","0.0-13.0-0.34","6037","János imád flüröközni, ezért sokat flüröklik. Ti ritkán...","0","flüröklötök","[""flüröklötök"",""flürököztök""]","","posttest trial","4",""
"html-button-response-clever","155","920304","0.0-13.0-0.35","2018","János imád dujozni, ezért sokat dujzik. Ők ritkán...","0","dujzanak","[""dujzanak"",""dujoznak""]","","posttest trial","4",""
"html-button-response-clever","156","926741","0.0-13.0-0.36","5921","János imád klehényezni, ezért sokat klehénylik. Ti ritkán...","0","klehényletek","[""klehényletek"",""klehényeztek""]","","posttest trial","4",""
"html-button-response-clever","157","929013","0.0-13.0-0.37","1757","János imád köszözni, ezért sokat köszlik. Ti ritkán...","0","köszöztök","[""köszöztök"",""köszlötök""]","","posttest trial","4",""
"html-button-response-clever","158","934257","0.0-13.0-0.38","4725","János imád sprudozni, ezért sokat sprudlik. Mi ritkán...","0","sprudlunk","[""sprudlunk"",""sprudozunk""]","","posttest trial","4",""
"html-button-response-clever","159","937344","0.0-13.0-0.39","2578","János imád dirozni, ezért sokat dirlik. Ti ritkán...","1","dirlotok","[""diroztok"",""dirlotok""]","","posttest trial","4",""
"html-button-response-clever","160","939669","0.0-13.0-0.40","1813","János imád spibegezni, ezért sokat spibeglik. Mi ritkán...","0","spibeglünk","[""spibeglünk"",""spibegezünk""]","","posttest trial","4",""
"html-button-response-clever","161","943501","0.0-13.0-0.41","3318","János imád lájozni, ezért sokat lájzik. Ti ritkán...","0","lájzotok","[""lájzotok"",""lájoztok""]","","posttest trial","4",""
"html-button-response-clever","162","947961","0.0-13.0-0.42","3948","János imád nyürözni, ezért sokat nyürzik. Ők ritkán...","0","nyürzenek","[""nyürzenek"",""nyüröznek""]","","posttest trial","4",""
"html-button-response-clever","163","955554","0.0-13.0-0.43","7073","János imád mülőrözni, ezért sokat mülőrzik. Mi ritkán...","0","mülőrzünk","[""mülőrzünk"",""mülőrözünk""]","","posttest trial","4",""
"html-button-response-clever","164","960817","0.0-13.0-0.44","4750","János imád kűdözni, ezért sokat kűdlik. Ők ritkán...","1","kűdlenek","[""kűdöznek"",""kűdlenek""]","","posttest trial","4",""
"html-button-response-clever","165","965262","0.0-13.0-0.45","3929","János imád brivakozni, ezért sokat brivaklik. Ti ritkán...","1","brivaklotok","[""brivakoztok"",""brivaklotok""]","","posttest trial","4",""
"html-button-response-clever","166","968687","0.0-13.0-0.46","2918","János imád fröjözni, ezért sokat fröjzik. Ti ritkán...","0","fröjzötök","[""fröjzötök"",""fröjöztök""]","","posttest trial","4",""
"html-button-response-clever","167","971190","0.0-13.0-0.47","1980","János imád spügözni, ezért sokat spügzik. Mi ritkán...","1","spügzünk","[""spügözünk"",""spügzünk""]","","posttest trial","4",""
"html-button-response-clever","168","973937","0.0-13.0-0.48","2223","János imád brözözni, ezért sokat brözlik. Ti ritkán...","0","brözlötök","[""brözlötök"",""brözöztök""]","","posttest trial","4",""
"html-button-response-clever","169","976981","0.0-13.0-0.49","2526","János imád frálasozni, ezért sokat frálaslik. Ők ritkán...","0","frálaslanak","[""frálaslanak"",""frálasoznak""]","","posttest trial","4",""
"html-button-response-clever","170","980215","0.0-13.0-0.50","2727","János imád flemezni, ezért sokat flemlik. Mi ritkán...","1","flemlünk","[""flemezünk"",""flemlünk""]","","posttest trial","4",""
"html-button-response-clever","171","983527","0.0-13.0-0.51","2804","János imád molodni, ezért sokat molszik. Ti ritkán...","1","molodtok","[""molszotok"",""molodtok""]","","posttest trial","4",""
"html-button-response-clever","172","987093","0.0-13.0-0.52","3057","János imád brülösözni, ezért sokat brülöslik. Mi ritkán...","1","brülösözünk","[""brülöslünk"",""brülösözünk""]","","posttest trial","4",""
"html-button-response-clever","173","990583","0.0-13.0-0.53","2974","János imád bratározni, ezért sokat bratárzik. Ők ritkán...","1","bratárzanak","[""bratároznak"",""bratárzanak""]","","posttest trial","4",""
"html-button-response","174","996068","0.0-14.0","4963","<p> Vége a játéknak. A teljes pontszámod 28/54.</p><p> Szép munka! &#128526;&#128526;&#128526;</p><p>A Befejezés gomb megnyomása után bezárhatod a böngészőablakot.</p>","0","","","","","",""
"html-keyboard-response","175","1001604","0.0-15.0","null","<div class=""message"">
         <p>Egy kis türelmet kérünk, amíg elmentjük az adatokat...</p>
         </div>","null","","","","","",""
