"trial_type","trial_index","time_elapsed","internal_node_id","rt","stimulus","response","response_string","choices","esp_response","trial_kind","list_number","esp_match"
"pavlovia","0","796","0.0-0.0","","","","","","","","",""
"html-button-response","1","28067","0.0-1.0","26767","<p>Kedves Résztvevő! A Budapesti Műszaki és Gazdaságtudományi Egyetem Kognitív Tudományi Tanszékének kutatásában való részvételed kérjük. A kutatásban azt vizsgáljuk, hogy a magyar anyanyelvűek hogyan használnak bizonyos szóalakokat, és hogy milyen képük van arról, hogy mások hogyan használják, hogyan képzik a szavakat. Ez hozzásegít bennünket ahhoz, hogy jobban megértsük, hogyan dolgozza fel és tárolja a nyelvet az emberi agy, és hogyan működnek, hogyan változnak egy adott közösség nyelvi konvenciói.</p><p>A vizsgálat egy rövid számítógépes feladatból fog állni. A kutatásban való részvétel önkéntes, a részvételi szándék bármikor visszavonható. A résztvevők eredményeit név nélkül kezeljük, így nem beazonosíthatók az adatok feldolgozása során. Minden személyes adatot az EU általános adatvédelmi rendeletének (GDPR) megfelelően kezelünk és legfeljebb öt éven belül megsemmisítünk. A vizsgálat jellemzően húsz percet vesz igénybe.</p><p>Kutatásvezető:</p><p>Dr. Rácz Péter, tudományos munkatárs, BME KTT</p><p>e-mail: racz.peter.marton@ttk.bme.hu</p>","0","","","","","",""
"html-button-response","2","60703","0.0-2.0","32135","<p>A kísérletben szavakat fogsz látni. Ezek között lesznek olyanok, amelyeket ismersz, de előfordulhatnak olyanok is, amelyeket nem ismersz, sőt, vannak köztük kitalált szavak is. Minden szónál látni fogsz toldalékolt alakokat. A te feladatod az lesz, hogy minden szóhoz kiválaszd azt a toldalékolt alakot, amely a te számodra ismerősebben, természetesebben hangzik. Rossz válaszok nincsenek, mert van olyan, hogy különböző embereknek más és más szó tűnik jobb választásnak. A választ úgy tudod majd kiválasztani, ha rákattintasz.</p><p>Ebben a szóválasztós játékban egy másik játékossal együtt veszel majd részt. A másik játékos is minden esetben azok közül a lehetőségek közül válogathat, mint te. Kettőtök feladata az, hogy ugyanazt a lehetőséget válasszátok minden esetben. Ahhoz, hogy ez sikerüljön, neked figyelned kell arra, hogy a másik játékos milyen válaszokat ad, és ennek alapján meg kell tippelned, hogyan választ legközelebb. Ha eltalálod, akkor pontot kapsz.</p>","0","","","","","",""
"html-button-response","3","73020","0.0-3.0","11816","<p>Kérjük, olvasd el az alábbi nyilatkozatot, és amennyiben egyetértesz vele, nyomj a Beleegyezés gombra!</p><p>Kijelentem, hogy magyar anyanyelvű személyként önként veszek részt a BME KTT kísérletében. A kutatás céljával és folyamatával kapcsolatban elegendő tájékoztatást kaptam, lehetőségem volt kérdések feltételére, és esetleges kérdéseimre megfelelő válaszokat kaptam. A tájékoztatás alapján elegendő mennyiségű információ áll a rendelkezésemre, hogy eldönthessem, részt kívánok-e venni a kutatásban.</p><p>Tisztában vagyok vele, hogy részvételi szándékomat és adataimat bármikor, indoklás nélkül visszavonhatom.</p><p>Értem és tudomásul veszem, hogy a kutatás tudományos célokat szolgál, és az általam szolgáltatott adatokat a BME kizárólag kutatási célból használja fel. Tudomásul veszem, hogy eredményeimet a többi résztvevő eredményeivel együtt kezelik, így egyéni teljesítményemről visszajelzést, szakvéleményt nem kapok.</p><p>Megértettem, hogy adataim kezelését illetően a BME az EU általános adatvédelmi rendelete (GDPR), a hatályos adatvédelmi törvény és a nemzetközi kutatás-etikai alapelvek szerint jár el. Eredményeim anonim módon kerülnek feldolgozásra, és a kutatás résztvevői az azonosításomra alkalmas adataimat harmadik félnek nem szolgáltatják ki. Engedélyezem a BME számára a jelen kutatásban felvett adataim feldolgozását és tárolását, beleértve azok későbbi kutatásokhoz való felhasználását is. Személyes adataim kezelésével kapcsolatban tájékoztatást kérhetek a kutatás résztvevőitől, az adatkezelés ellen tiltakozhatok, kérhetem személyes adataim helyesbítését, törlését vagy zárolását, valamint jogorvoslatért a Nemzeti Adatvédelmi és Információszabadság Hatósághoz fordulhatok.</p><p>Kijelentem, hogy a kutatásban való részvételem körülményeiről részletes tájékoztatást kaptam, és a feltételeket elfogadom.</p>","0","","","","","",""
"survey-text","4","135744","0.0-4.0","62187","","{""Q0"":""BSRTUG"",""Q1"":""nő"",""Q2"":""1998"",""Q3"":""17,5""}","","","","","",""
"html-button-response","5","160028","0.0-5.0","23781","<p>Ebben a játékban szavakat kell toldalékolni.</p> <p>Minden körben mutatunk majd egy példamondatot, amiben lesz egy szó.</p> <p>Alatta jön egy második mondat, ezt a mondatot neked kell majd befejezni, ugyanezzel a szóval.</p> <p>Nem biztos, hogy a szó eleve ismerős lesz számodra!</p> <p>Minden mondathoz adunk két lehetőséget, ezeket balra és jobbra látod majd.</p> <p>A játék kb. negyedóráig-húsz percig tart.</p>","0","","","","","",""
"html-button-response","6","173627","0.0-6.0","13096","<p>Nézzünk egy példát!</p> <p>A példamondat: ""János nagyon szeret rancsúrozni.""</p><p>Neked ezt a mondatot kell befejezned: ""Én is szívesen...""</p><p>A lehetőségek pedig ezek:</p>","1","","","","","",""
"html-button-response","7","180943","0.0-7.0","6814","<p>Nagyon jó.</p><p>Ezt a játékot nem egyedül fogod játszani, hanem egy másik játékossal.</p><p>Mielőtt továbblépünk, összekapcsolunk titeket egymással.</p><p>Ez igénybe vehet néhány másodpercet, amihez szíves türelmed kérjük.</p>","0","","","","","",""
"html-button-response","8","186667","0.0-8.0","null","<p>Csatlakozás a másik játékoshoz...</p>","null","","","","","",""
"html-button-response","9","189170","0.0-9.0","null","<p> Sikeres kapcsolódás!</p>","null","","","","","",""
"html-button-response","10","199672","0.0-10.0","null","<p>A következőkben ketten játsszátok a szóválasztós játékot.</p><p>A feladatotok az lesz, hogy minden körben <b>ugyanazt</b> a szót válasszátok.</p><p>Minden ilyen egyező válaszért pontot kaptok.</p><p>Próbáld meg kitalálni, mit választ a másik játékos!</p><p>Bármikor választhatsz, a körnek akkor van vége, ha mindketten döntöttetek.</p><p>Sok sikert!</p>","null","","","","","",""
"html-button-response-esp","11","206066","0.0-11.0-0.0","5890","Te bizony sokat spröbzöl. Én is sokat...","0","spröbzök","[""spröbzök"",""spröbzöm""]","spröbzök","esp trial","4","true"
"html-button-response","12","209569","0.0-11.0-1.0","null","<p>A másik játékos ezt választotta: <b>spröbzök</b>.</p><p>&#x2705;</p><p>A te válaszod és a másik játékos válasza <b>megegyeznek</b>.</p>","null","","","","feedback trial","",""
"html-button-response-esp","13","217380","0.0-11.0-0.1","7309","Te bizony sokat pribagszol. Én is sokat...","1","pribagszok","[""pribagszom"",""pribagszok""]","pribagszok","esp trial","4","true"
"html-button-response","14","220884","0.0-11.0-1.1","null","<p>A másik játékos ezt választotta: <b>pribagszok</b>.</p><p>&#x2705;</p><p>A te válaszod és a másik játékos válasza <b>megegyeznek</b>.</p>","null","","","","feedback trial","",""
"html-button-response-esp","15","226287","0.0-11.0-0.2","3978","Te bizony sokat plűbzöl. Én is sokat...","1","plűbzök","[""plűbzöm"",""plűbzök""]","plűbzök","esp trial","4","true"
"html-button-response","16","229790","0.0-11.0-1.2","null","<p>A másik játékos ezt választotta: <b>plűbzök</b>.</p><p>&#x2705;</p><p>A te válaszod és a másik játékos válasza <b>megegyeznek</b>.</p>","null","","","","feedback trial","",""
"html-button-response-esp","17","235194","0.0-11.0-0.3","4773","Te bizony sokat vülődzöl. Én is sokat...","1","vülődzök","[""vülődzöm"",""vülődzök""]","vülődzök","esp trial","4","true"
"html-button-response","18","238696","0.0-11.0-1.3","null","<p>A másik játékos ezt választotta: <b>vülődzök</b>.</p><p>&#x2705;</p><p>A te válaszod és a másik játékos válasza <b>megegyeznek</b>.</p>","null","","","","feedback trial","",""
"html-button-response-esp","19","244449","0.0-11.0-0.4","5251","Te bizony sokat flehénylesz. Én is sokat...","1","flehénylek","[""flehénylem"",""flehénylek""]","flehénylem","esp trial","4","false"
"html-button-response","20","247952","0.0-11.0-1.4","null","<p>A másik játékos ezt választotta: <b>flehénylem</b>.</p><p>&#10060;</p><p>A válaszaitok <b>nem</b> egyeznek meg.</p>","null","","","","feedback trial","",""
"html-button-response-esp","21","254233","0.0-11.0-0.5","5778","Te bizony sokat klétszel. Én is sokat...","1","klétszem","[""klétszek"",""klétszem""]","klétszek","esp trial","4","false"
"html-button-response","22","257737","0.0-11.0-1.5","null","<p>A másik játékos ezt választotta: <b>klétszek</b>.</p><p>&#10060;</p><p>A válaszaitok <b>nem</b> egyeznek meg.</p>","null","","","","feedback trial","",""
"html-button-response-esp","23","263141","0.0-11.0-0.6","3095","Te bizony sokat flűmlesz. Én is sokat...","0","flűmlök","[""flűmlök"",""flűmlöm""]","flűmlöm","esp trial","4","false"
"html-button-response","24","266645","0.0-11.0-1.6","null","<p>A másik játékos ezt választotta: <b>flűmlöm</b>.</p><p>&#10060;</p><p>A válaszaitok <b>nem</b> egyeznek meg.</p>","null","","","","feedback trial","",""
"html-button-response-esp","25","272117","0.0-11.0-0.7","4968","Te bizony sokat huroslasz. Én is sokat...","0","huroslom","[""huroslom"",""huroslok""]","huroslom","esp trial","4","true"
"html-button-response","26","275620","0.0-11.0-1.7","null","<p>A másik játékos ezt választotta: <b>huroslom</b>.</p><p>&#x2705;</p><p>A te válaszod és a másik játékos válasza <b>megegyeznek</b>.</p>","null","","","","feedback trial","",""
"html-button-response-esp","27","281023","0.0-11.0-0.8","3646","Te bizony sokat spihemlesz. Én is sokat...","1","spihemlek","[""spihemlem"",""spihemlek""]","spihemlem","esp trial","4","false"
"html-button-response","28","284526","0.0-11.0-1.8","null","<p>A másik játékos ezt választotta: <b>spihemlem</b>.</p><p>&#10060;</p><p>A válaszaitok <b>nem</b> egyeznek meg.</p>","null","","","","feedback trial","",""
"html-button-response-esp","29","289930","0.0-11.0-0.9","4809","Te bizony sokat rokszol. Én is sokat...","0","rokszom","[""rokszom"",""rokszok""]","rokszok","esp trial","4","false"
"html-button-response","30","293434","0.0-11.0-1.9","null","<p>A másik játékos ezt választotta: <b>rokszok</b>.</p><p>&#10060;</p><p>A válaszaitok <b>nem</b> egyeznek meg.</p>","null","","","","feedback trial","",""
"html-button-response-esp","31","298838","0.0-11.0-0.10","3883","Te bizony sokat brobódzol. Én is sokat...","0","brobódzom","[""brobódzom"",""brobódzok""]","brobódzok","esp trial","4","false"
"html-button-response","32","302341","0.0-11.0-1.10","null","<p>A másik játékos ezt választotta: <b>brobódzok</b>.</p><p>&#10060;</p><p>A válaszaitok <b>nem</b> egyeznek meg.</p>","null","","","","feedback trial","",""
"html-button-response-esp","33","309470","0.0-11.0-0.11","6627","Te bizony sokat sztrozlasz. Én is sokat...","0","sztrozlok","[""sztrozlok"",""sztrozlom""]","sztrozlok","esp trial","4","true"
"html-button-response","34","312974","0.0-11.0-1.11","null","<p>A másik játékos ezt választotta: <b>sztrozlok</b>.</p><p>&#x2705;</p><p>A te válaszod és a másik játékos válasza <b>megegyeznek</b>.</p>","null","","","","feedback trial","",""
"html-button-response-esp","35","318378","0.0-11.0-0.12","4478","Te bizony sokat píjlasz. Én is sokat...","1","píjlok","[""píjlom"",""píjlok""]","píjlok","esp trial","4","true"
"html-button-response","36","321881","0.0-11.0-1.12","null","<p>A másik játékos ezt választotta: <b>píjlok</b>.</p><p>&#x2705;</p><p>A te válaszod és a másik játékos válasza <b>megegyeznek</b>.</p>","null","","","","feedback trial","",""
"html-button-response-esp","37","327288","0.0-11.0-0.13","2766","Te bizony sokat treglesz. Én is sokat...","0","treglek","[""treglek"",""treglem""]","treglem","esp trial","4","false"
"html-button-response","38","330791","0.0-11.0-1.13","null","<p>A másik játékos ezt választotta: <b>treglem</b>.</p><p>&#10060;</p><p>A válaszaitok <b>nem</b> egyeznek meg.</p>","null","","","","feedback trial","",""
"html-button-response-esp","39","336194","0.0-11.0-0.14","4610","Te bizony sokat lörűdzöl. Én is sokat...","1","lörűdzök","[""lörűdzöm"",""lörűdzök""]","lörűdzök","esp trial","4","true"
"html-button-response","40","339698","0.0-11.0-1.14","null","<p>A másik játékos ezt választotta: <b>lörűdzök</b>.</p><p>&#x2705;</p><p>A te válaszod és a másik játékos válasza <b>megegyeznek</b>.</p>","null","","","","feedback trial","",""
"html-button-response-esp","41","345101","0.0-11.0-0.15","2704","Te bizony sokat plugzol. Én is sokat...","1","plugzok","[""plugzom"",""plugzok""]","plugzok","esp trial","4","true"
"html-button-response","42","348605","0.0-11.0-1.15","null","<p>A másik játékos ezt választotta: <b>plugzok</b>.</p><p>&#x2705;</p><p>A te válaszod és a másik játékos válasza <b>megegyeznek</b>.</p>","null","","","","feedback trial","",""
"html-button-response-esp","43","354008","0.0-11.0-0.16","4699","Te bizony sokat frodlasz. Én is sokat...","0","frodlok","[""frodlok"",""frodlom""]","frodlok","esp trial","4","true"
"html-button-response","44","357514","0.0-11.0-1.16","null","<p>A másik játékos ezt választotta: <b>frodlok</b>.</p><p>&#x2705;</p><p>A te válaszod és a másik játékos válasza <b>megegyeznek</b>.</p>","null","","","","feedback trial","",""
"html-button-response-esp","45","362918","0.0-11.0-0.17","4425","Te bizony sokat sztrűkszöl. Én is sokat...","0","sztrűkszök","[""sztrűkszök"",""sztrűkszöm""]","sztrűkszök","esp trial","4","true"
"html-button-response","46","366422","0.0-11.0-1.17","null","<p>A másik játékos ezt választotta: <b>sztrűkszök</b>.</p><p>&#x2705;</p><p>A te válaszod és a másik játékos válasza <b>megegyeznek</b>.</p>","null","","","","feedback trial","",""
"html-button-response-esp","47","371824","0.0-11.0-0.18","3419","Te bizony sokat bűtszöl. Én is sokat...","0","bűtszök","[""bűtszök"",""bűtszöm""]","bűtszök","esp trial","4","true"
"html-button-response","48","375327","0.0-11.0-1.18","null","<p>A másik játékos ezt választotta: <b>bűtszök</b>.</p><p>&#x2705;</p><p>A te válaszod és a másik játékos válasza <b>megegyeznek</b>.</p>","null","","","","feedback trial","",""
"html-button-response-esp","49","382076","0.0-11.0-0.19","6246","Te bizony sokat spihegzel. Én is sokat...","1","spihegzek","[""spihegzem"",""spihegzek""]","spihegzek","esp trial","4","true"
"html-button-response","50","385579","0.0-11.0-1.19","null","<p>A másik játékos ezt választotta: <b>spihegzek</b>.</p><p>&#x2705;</p><p>A te válaszod és a másik játékos válasza <b>megegyeznek</b>.</p>","null","","","","feedback trial","",""
"html-button-response-esp","51","390985","0.0-11.0-0.20","2742","Te bizony sokat düjzöl. Én is sokat...","0","düjzök","[""düjzök"",""düjzöm""]","düjzök","esp trial","4","true"
"html-button-response","52","394489","0.0-11.0-1.20","null","<p>A másik játékos ezt választotta: <b>düjzök</b>.</p><p>&#x2705;</p><p>A te válaszod és a másik játékos válasza <b>megegyeznek</b>.</p>","null","","","","feedback trial","",""
"html-button-response-esp","53","399892","0.0-11.0-0.21","2502","Te bizony sokat szibánylasz. Én is sokat...","1","szibánylok","[""szibánylom"",""szibánylok""]","szibánylom","esp trial","4","false"
"html-button-response","54","403395","0.0-11.0-1.21","null","<p>A másik játékos ezt választotta: <b>szibánylom</b>.</p><p>&#10060;</p><p>A válaszaitok <b>nem</b> egyeznek meg.</p>","null","","","","feedback trial","",""
"html-button-response-esp","55","409626","0.0-11.0-0.22","5729","Te bizony sokat flitlasz. Én is sokat...","0","flitlok","[""flitlok"",""flitlom""]","flitlom","esp trial","4","false"
"html-button-response","56","413129","0.0-11.0-1.22","null","<p>A másik játékos ezt választotta: <b>flitlom</b>.</p><p>&#10060;</p><p>A válaszaitok <b>nem</b> egyeznek meg.</p>","null","","","","feedback trial","",""
"html-button-response-esp","57","418533","0.0-11.0-0.23","3663","Te bizony sokat pribemlesz. Én is sokat...","0","pribemlek","[""pribemlek"",""pribemlem""]","pribemlem","esp trial","4","false"
"html-button-response","58","422038","0.0-11.0-1.23","null","<p>A másik játékos ezt választotta: <b>pribemlem</b>.</p><p>&#10060;</p><p>A válaszaitok <b>nem</b> egyeznek meg.</p>","null","","","","feedback trial","",""
"html-button-response-esp","59","427442","0.0-11.0-0.24","4140","Te bizony sokat trádlasz. Én is sokat...","0","trádlok","[""trádlok"",""trádlom""]","trádlok","esp trial","4","true"
"html-button-response","60","430945","0.0-11.0-1.24","null","<p>A másik játékos ezt választotta: <b>trádlok</b>.</p><p>&#x2705;</p><p>A te válaszod és a másik játékos válasza <b>megegyeznek</b>.</p>","null","","","","feedback trial","",""
"html-button-response-esp","61","436349","0.0-11.0-0.25","2566","Te bizony sokat trehégszel. Én is sokat...","1","trehégszem","[""trehégszek"",""trehégszem""]","trehégszek","esp trial","4","false"
"html-button-response","62","439852","0.0-11.0-1.25","null","<p>A másik játékos ezt választotta: <b>trehégszek</b>.</p><p>&#10060;</p><p>A válaszaitok <b>nem</b> egyeznek meg.</p>","null","","","","feedback trial","",""
"html-button-response-esp","63","445258","0.0-11.0-0.26","2057","Te bizony sokat flehékszel. Én is sokat...","0","flehékszem","[""flehékszem"",""flehékszek""]","flehékszek","esp trial","4","false"
"html-button-response","64","448762","0.0-11.0-1.26","null","<p>A másik játékos ezt választotta: <b>flehékszek</b>.</p><p>&#10060;</p><p>A válaszaitok <b>nem</b> egyeznek meg.</p>","null","","","","feedback trial","",""
"html-button-response-esp","65","454166","0.0-11.0-0.27","2734","Te bizony sokat brivegzel. Én is sokat...","1","brivegzem","[""brivegzek"",""brivegzem""]","brivegzek","esp trial","4","false"
"html-button-response","66","457669","0.0-11.0-1.27","null","<p>A másik játékos ezt választotta: <b>brivegzek</b>.</p><p>&#10060;</p><p>A válaszaitok <b>nem</b> egyeznek meg.</p>","null","","","","feedback trial","",""
"html-button-response-esp","67","463073","0.0-11.0-0.28","4379","Te bizony sokat vanylasz. Én is sokat...","0","vanylok","[""vanylok"",""vanylom""]","vanylom","esp trial","4","false"
"html-button-response","68","466577","0.0-11.0-1.28","null","<p>A másik játékos ezt választotta: <b>vanylom</b>.</p><p>&#10060;</p><p>A válaszaitok <b>nem</b> egyeznek meg.</p>","null","","","","feedback trial","",""
"html-button-response-esp","69","471981","0.0-11.0-0.29","2219","Te bizony sokat klivaslasz. Én is sokat...","1","klivaslom","[""klivaslok"",""klivaslom""]","klivaslom","esp trial","4","true"
"html-button-response","70","475484","0.0-11.0-1.29","null","<p>A másik játékos ezt választotta: <b>klivaslom</b>.</p><p>&#x2705;</p><p>A te válaszod és a másik játékos válasza <b>megegyeznek</b>.</p>","null","","","","feedback trial","",""
"html-button-response-esp","71","480888","0.0-11.0-0.30","1912","Te bizony sokat nűröklesz. Én is sokat...","0","nűröklök","[""nűröklök"",""nűröklöm""]","nűröklök","esp trial","4","true"
"html-button-response","72","484391","0.0-11.0-1.30","null","<p>A másik játékos ezt választotta: <b>nűröklök</b>.</p><p>&#x2705;</p><p>A te válaszod és a másik játékos válasza <b>megegyeznek</b>.</p>","null","","","","feedback trial","",""
"html-button-response-esp","73","489794","0.0-11.0-0.31","2006","Te bizony sokat tragzol. Én is sokat...","1","tragzom","[""tragzok"",""tragzom""]","tragzok","esp trial","4","false"
"html-button-response","74","493300","0.0-11.0-1.31","null","<p>A másik játékos ezt választotta: <b>tragzok</b>.</p><p>&#10060;</p><p>A válaszaitok <b>nem</b> egyeznek meg.</p>","null","","","","feedback trial","",""
"html-button-response-esp","75","498703","0.0-11.0-0.32","3915","Te bizony sokat ibékszel. Én is sokat...","1","ibékszem","[""ibékszek"",""ibékszem""]","ibékszek","esp trial","4","false"
"html-button-response","76","502206","0.0-11.0-1.32","null","<p>A másik játékos ezt választotta: <b>ibékszek</b>.</p><p>&#10060;</p><p>A válaszaitok <b>nem</b> egyeznek meg.</p>","null","","","","feedback trial","",""
"html-button-response-esp","77","507610","0.0-11.0-0.33","2324","Te bizony sokat hűgzöl. Én is sokat...","0","hűgzöm","[""hűgzöm"",""hűgzök""]","hűgzök","esp trial","4","false"
"html-button-response","78","511112","0.0-11.0-1.33","null","<p>A másik játékos ezt választotta: <b>hűgzök</b>.</p><p>&#10060;</p><p>A válaszaitok <b>nem</b> egyeznek meg.</p>","null","","","","feedback trial","",""
"html-button-response-esp","79","516518","0.0-11.0-0.34","1985","Te bizony sokat sztrijzol. Én is sokat...","1","sztrijzom","[""sztrijzok"",""sztrijzom""]","sztrijzok","esp trial","4","false"
"html-button-response","80","520023","0.0-11.0-1.34","null","<p>A másik játékos ezt választotta: <b>sztrijzok</b>.</p><p>&#10060;</p><p>A válaszaitok <b>nem</b> egyeznek meg.</p>","null","","","","feedback trial","",""
"html-button-response-esp","81","525426","0.0-11.0-0.35","827","Te bizony sokat brubzol. Én is sokat...","0","brubzom","[""brubzom"",""brubzok""]","brubzok","esp trial","4","false"
"html-button-response","82","528929","0.0-11.0-1.35","null","<p>A másik játékos ezt választotta: <b>brubzok</b>.</p><p>&#10060;</p><p>A válaszaitok <b>nem</b> egyeznek meg.</p>","null","","","","feedback trial","",""
"html-button-response-esp","83","534333","0.0-11.0-0.36","720","Te bizony sokat spülűdzöl. Én is sokat...","1","spülűdzöm","[""spülűdzök"",""spülűdzöm""]","spülűdzök","esp trial","4","false"
"html-button-response","84","537840","0.0-11.0-1.36","null","<p>A másik játékos ezt választotta: <b>spülűdzök</b>.</p><p>&#10060;</p><p>A válaszaitok <b>nem</b> egyeznek meg.</p>","null","","","","feedback trial","",""
"html-button-response-esp","85","543243","0.0-11.0-0.37","663","Te bizony sokat spáraklasz. Én is sokat...","0","spáraklok","[""spáraklok"",""spáraklom""]","spáraklok","esp trial","4","true"
"html-button-response","86","546745","0.0-11.0-1.37","null","<p>A másik játékos ezt választotta: <b>spáraklok</b>.</p><p>&#x2705;</p><p>A te válaszod és a másik játékos válasza <b>megegyeznek</b>.</p>","null","","","","feedback trial","",""
"html-button-response-esp","87","552148","0.0-11.0-0.38","2038","Te bizony sokat filágzol. Én is sokat...","1","filágzok","[""filágzom"",""filágzok""]","filágzok","esp trial","4","true"
"html-button-response","88","555651","0.0-11.0-1.38","null","<p>A másik játékos ezt választotta: <b>filágzok</b>.</p><p>&#x2705;</p><p>A te válaszod és a másik játékos válasza <b>megegyeznek</b>.</p>","null","","","","feedback trial","",""
"html-button-response-esp","89","561058","0.0-11.0-0.39","1813","Te bizony sokat gyibeslesz. Én is sokat...","0","gyibeslek","[""gyibeslek"",""gyibeslem""]","gyibeslek","esp trial","4","true"
"html-button-response","90","564562","0.0-11.0-1.39","null","<p>A másik játékos ezt választotta: <b>gyibeslek</b>.</p><p>&#x2705;</p><p>A te válaszod és a másik játékos válasza <b>megegyeznek</b>.</p>","null","","","","feedback trial","",""
"html-button-response-esp","91","569965","0.0-11.0-0.40","3459","Te bizony sokat prínylasz. Én is sokat...","1","prínylom","[""prínylok"",""prínylom""]","prínylok","esp trial","4","false"
"html-button-response","92","573469","0.0-11.0-1.40","null","<p>A másik játékos ezt választotta: <b>prínylok</b>.</p><p>&#10060;</p><p>A válaszaitok <b>nem</b> egyeznek meg.</p>","null","","","","feedback trial","",""
"html-button-response-esp","93","578875","0.0-11.0-0.41","2831","Te bizony sokat hurjorzol. Én is sokat...","0","hurjorzok","[""hurjorzok"",""hurjorzom""]","hurjorzok","esp trial","4","true"
"html-button-response","94","582378","0.0-11.0-1.41","null","<p>A másik játékos ezt választotta: <b>hurjorzok</b>.</p><p>&#x2705;</p><p>A te válaszod és a másik játékos válasza <b>megegyeznek</b>.</p>","null","","","","feedback trial","",""
"html-button-response-esp","95","587782","0.0-11.0-0.42","2325","Te bizony sokat salárzol. Én is sokat...","0","salárzom","[""salárzom"",""salárzok""]","salárzok","esp trial","4","false"
"html-button-response","96","591286","0.0-11.0-1.42","null","<p>A másik játékos ezt választotta: <b>salárzok</b>.</p><p>&#10060;</p><p>A válaszaitok <b>nem</b> egyeznek meg.</p>","null","","","","feedback trial","",""
"html-button-response-esp","97","596689","0.0-11.0-0.43","1555","Te bizony sokat narádzol. Én is sokat...","1","narádzok","[""narádzom"",""narádzok""]","narádzok","esp trial","4","true"
"html-button-response","98","600192","0.0-11.0-1.43","null","<p>A másik játékos ezt választotta: <b>narádzok</b>.</p><p>&#x2705;</p><p>A te válaszod és a másik játékos válasza <b>megegyeznek</b>.</p>","null","","","","feedback trial","",""
"html-button-response-esp","99","605596","0.0-11.0-0.44","4279","Te bizony sokat figlasz. Én is sokat...","0","figlok","[""figlok"",""figlom""]","figlok","esp trial","4","true"
"html-button-response","100","609098","0.0-11.0-1.44","null","<p>A másik játékos ezt választotta: <b>figlok</b>.</p><p>&#x2705;</p><p>A te válaszod és a másik játékos válasza <b>megegyeznek</b>.</p>","null","","","","feedback trial","",""
"html-button-response-esp","101","614502","0.0-11.0-0.45","4675","Te bizony sokat pítszol. Én is sokat...","1","pítszok","[""pítszom"",""pítszok""]","pítszok","esp trial","4","true"
"html-button-response","102","618005","0.0-11.0-1.45","null","<p>A másik játékos ezt választotta: <b>pítszok</b>.</p><p>&#x2705;</p><p>A te válaszod és a másik játékos válasza <b>megegyeznek</b>.</p>","null","","","","feedback trial","",""
"html-button-response-esp","103","623408","0.0-11.0-0.46","2637","Te bizony sokat klaráglasz. Én is sokat...","0","klaráglok","[""klaráglok"",""klaráglom""]","klaráglom","esp trial","4","false"
"html-button-response","104","626914","0.0-11.0-1.46","null","<p>A másik játékos ezt választotta: <b>klaráglom</b>.</p><p>&#10060;</p><p>A válaszaitok <b>nem</b> egyeznek meg.</p>","null","","","","feedback trial","",""
"html-button-response-esp","105","632318","0.0-11.0-0.47","1294","Te bizony sokat bivégszel. Én is sokat...","1","bivégszek","[""bivégszem"",""bivégszek""]","bivégszek","esp trial","4","true"
"html-button-response","106","635821","0.0-11.0-1.47","null","<p>A másik játékos ezt választotta: <b>bivégszek</b>.</p><p>&#x2705;</p><p>A te válaszod és a másik játékos válasza <b>megegyeznek</b>.</p>","null","","","","feedback trial","",""
"html-button-response-esp","107","641225","0.0-11.0-0.48","1104","Te bizony sokat spüjzöl. Én is sokat...","0","spüjzök","[""spüjzök"",""spüjzöm""]","spüjzöm","esp trial","4","false"
"html-button-response","108","644728","0.0-11.0-1.48","null","<p>A másik játékos ezt választotta: <b>spüjzöm</b>.</p><p>&#10060;</p><p>A válaszaitok <b>nem</b> egyeznek meg.</p>","null","","","","feedback trial","",""
"html-button-response-esp","109","650131","0.0-11.0-0.49","498","Te bizony sokat flátszol. Én is sokat...","0","flátszok","[""flátszok"",""flátszom""]","flátszok","esp trial","4","true"
"html-button-response","110","653633","0.0-11.0-1.49","null","<p>A másik játékos ezt választotta: <b>flátszok</b>.</p><p>&#x2705;</p><p>A te válaszod és a másik játékos válasza <b>megegyeznek</b>.</p>","null","","","","feedback trial","",""
"html-button-response-esp","111","659040","0.0-11.0-0.50","1425","Te bizony sokat spubonylasz. Én is sokat...","1","spubonylok","[""spubonylom"",""spubonylok""]","spubonylom","esp trial","4","false"
"html-button-response","112","662543","0.0-11.0-1.50","null","<p>A másik játékos ezt választotta: <b>spubonylom</b>.</p><p>&#10060;</p><p>A válaszaitok <b>nem</b> egyeznek meg.</p>","null","","","","feedback trial","",""
"html-button-response-esp","113","667947","0.0-11.0-0.51","1132","Te bizony sokat jonylasz. Én is sokat...","0","jonylok","[""jonylok"",""jonylom""]","jonylom","esp trial","4","false"
"html-button-response","114","671449","0.0-11.0-1.51","null","<p>A másik játékos ezt választotta: <b>jonylom</b>.</p><p>&#10060;</p><p>A válaszaitok <b>nem</b> egyeznek meg.</p>","null","","","","feedback trial","",""
"html-button-response-esp","115","676852","0.0-11.0-0.52","1413","Te bizony sokat rájzol. Én is sokat...","0","rájzom","[""rájzom"",""rájzok""]","rájzok","esp trial","4","false"
"html-button-response","116","680356","0.0-11.0-1.52","null","<p>A másik játékos ezt választotta: <b>rájzok</b>.</p><p>&#10060;</p><p>A válaszaitok <b>nem</b> egyeznek meg.</p>","null","","","","feedback trial","",""
"html-button-response-esp","117","685759","0.0-11.0-0.53","3671","Te bizony sokat bihánylasz. Én is sokat...","1","bihánylom","[""bihánylok"",""bihánylom""]","bihánylom","esp trial","4","true"
"html-button-response","118","689261","0.0-11.0-1.53","null","<p>A másik játékos ezt választotta: <b>bihánylom</b>.</p><p>&#x2705;</p><p>A te válaszod és a másik játékos válasza <b>megegyeznek</b>.</p>","null","","","","feedback trial","",""
"html-button-response","119","701465","0.0-12.0","11700","<p>A közös játék most véget ért.</p><p>Mielőtt eláruljuk a végső pontszámodat, arra kérlek, játszd a szóválasztós játékot néhány percig egyedül is.</p><p>A feladatod ugyanaz lesz, választani két lehetőség közül.</p><p>Most viszont egyedül kell döntened, hogy te melyiket választanád.</p>","0","","","","","",""
"html-button-response-clever","120","704682","0.0-13.0-0.0","2714","Te bizony sokat tuboklasz. Én is sokat...","0","tuboklok","[""tuboklok"",""tuboklom""]","","posttest trial","8",""
"html-button-response-clever","121","708097","0.0-13.0-0.1","2913","Te bizony sokat trihagzol. Én is sokat...","1","trihagzok","[""trihagzom"",""trihagzok""]","","posttest trial","8",""
"html-button-response-clever","122","710747","0.0-13.0-0.2","2148","Te bizony sokat préleglesz. Én is sokat...","0","préleglek","[""préleglek"",""préleglem""]","","posttest trial","8",""
"html-button-response-clever","123","713366","0.0-13.0-0.3","2117","Te bizony sokat flibekszel. Én is sokat...","1","flibekszek","[""flibekszem"",""flibekszek""]","","posttest trial","8",""
"html-button-response-clever","124","714766","0.0-13.0-0.4","900","Te bizony sokat sprálszol. Én is sokat...","1","sprálszok","[""sprálszom"",""sprálszok""]","","posttest trial","8",""
"html-button-response-clever","125","716050","0.0-13.0-0.5","780","Te bizony sokat prohódzol. Én is sokat...","0","prohódzok","[""prohódzok"",""prohódzom""]","","posttest trial","8",""
"html-button-response-clever","126","717017","0.0-13.0-0.6","465","Te bizony sokat szűslesz. Én is sokat...","0","szűslök","[""szűslök"",""szűslöm""]","","posttest trial","8",""
"html-button-response-clever","127","718432","0.0-13.0-0.7","913","Te bizony sokat klidlasz. Én is sokat...","1","klidlok","[""klidlom"",""klidlok""]","","posttest trial","8",""
"html-button-response-clever","128","719484","0.0-13.0-0.8","550","Te bizony sokat spülőrzöl. Én is sokat...","1","spülőrzöm","[""spülőrzök"",""spülőrzöm""]","","posttest trial","8",""
"html-button-response-clever","129","721315","0.0-13.0-0.9","1329","Te bizony sokat frágapszol. Én is sokat...","0","frágapszom","[""frágapszom"",""frágapszok""]","","posttest trial","8",""
"html-button-response-clever","130","723384","0.0-13.0-0.10","1567","Te bizony sokat spüszlesz. Én is sokat...","0","spüszlöm","[""spüszlöm"",""spüszlök""]","","posttest trial","8",""
"html-button-response-clever","131","727600","0.0-13.0-0.11","3714","Te bizony sokat sztruglasz. Én is sokat...","0","sztruglok","[""sztruglok"",""sztruglom""]","","posttest trial","8",""
"html-button-response-clever","132","730351","0.0-13.0-0.12","2250","Te bizony sokat aglasz. Én is sokat...","0","aglok","[""aglok"",""aglom""]","","posttest trial","8",""
"html-button-response-clever","133","733301","0.0-13.0-0.13","2448","Te bizony sokat mékszel. Én is sokat...","1","mékszek","[""mékszem"",""mékszek""]","","posttest trial","8",""
"html-button-response-clever","134","735418","0.0-13.0-0.14","1615","Te bizony sokat gyivádzol. Én is sokat...","0","gyivádzok","[""gyivádzok"",""gyivádzom""]","","posttest trial","8",""
"html-button-response-clever","135","741734","0.0-13.0-0.15","5814","Te bizony sokat plövőrzöl. Én is sokat...","1","plövőrzöm","[""plövőrzök"",""plövőrzöm""]","","posttest trial","8",""
"html-button-response-clever","136","742984","0.0-13.0-0.16","748","Te bizony sokat táklasz. Én is sokat...","0","táklok","[""táklok"",""táklom""]","","posttest trial","8",""
"html-button-response-clever","137","743901","0.0-13.0-0.17","416","Te bizony sokat vűjlesz. Én is sokat...","0","vűjlöm","[""vűjlöm"",""vűjlök""]","","posttest trial","8",""
"html-button-response-clever","138","745019","0.0-13.0-0.18","616","Te bizony sokat spatszol. Én is sokat...","1","spatszok","[""spatszom"",""spatszok""]","","posttest trial","8",""
"html-button-response-clever","139","746853","0.0-13.0-0.19","1331","Te bizony sokat spélszel. Én is sokat...","0","spélszek","[""spélszek"",""spélszem""]","","posttest trial","8",""
"html-button-response-clever","140","748802","0.0-13.0-0.20","1447","Te bizony sokat praslasz. Én is sokat...","1","praslok","[""praslom"",""praslok""]","","posttest trial","8",""
"html-button-response-clever","141","749884","0.0-13.0-0.21","580","Te bizony sokat flérlesz. Én is sokat...","0","flérlem","[""flérlem"",""flérlek""]","","posttest trial","8",""
"html-button-response-clever","142","750800","0.0-13.0-0.22","413","Te bizony sokat sprédlesz. Én is sokat...","0","sprédlek","[""sprédlek"",""sprédlem""]","","posttest trial","8",""
"html-button-response-clever","143","751736","0.0-13.0-0.23","435","Te bizony sokat gyibakszol. Én is sokat...","0","gyibakszok","[""gyibakszok"",""gyibakszom""]","","posttest trial","8",""
"html-button-response-clever","144","753069","0.0-13.0-0.24","831","Te bizony sokat péleslesz. Én is sokat...","1","péleslek","[""péleslem"",""péleslek""]","","posttest trial","8",""
"html-button-response-clever","145","753970","0.0-13.0-0.25","399","Te bizony sokat pugoslasz. Én is sokat...","1","pugoslok","[""pugoslom"",""pugoslok""]","","posttest trial","8",""
"html-button-response-clever","146","754901","0.0-13.0-0.26","429","Te bizony sokat ibáglasz. Én is sokat...","0","ibáglom","[""ibáglom"",""ibáglok""]","","posttest trial","8",""
"html-button-response-clever","147","756403","0.0-13.0-0.27","1001","Te bizony sokat drügzöl. Én is sokat...","1","drügzöm","[""drügzök"",""drügzöm""]","","posttest trial","8",""
"html-button-response-clever","148","757469","0.0-13.0-0.28","564","Te bizony sokat bivejlesz. Én is sokat...","0","bivejlem","[""bivejlem"",""bivejlek""]","","posttest trial","8",""
"html-button-response-clever","149","758469","0.0-13.0-0.29","498","Te bizony sokat flözlesz. Én is sokat...","0","flözlöm","[""flözlöm"",""flözlök""]","","posttest trial","8",""
"html-button-response-clever","150","760253","0.0-13.0-0.30","1282","Te bizony sokat csólorzol. Én is sokat...","0","csólorzom","[""csólorzom"",""csólorzok""]","","posttest trial","8",""
"html-button-response-clever","151","761469","0.0-13.0-0.31","715","Te bizony sokat fligzol. Én is sokat...","1","fligzok","[""fligzom"",""fligzok""]","","posttest trial","8",""
"html-button-response-clever","152","762770","0.0-13.0-0.32","800","Te bizony sokat féjzel. Én is sokat...","0","féjzem","[""féjzem"",""féjzek""]","","posttest trial","8",""
"html-button-response-clever","153","763653","0.0-13.0-0.33","380","Te bizony sokat livaklasz. Én is sokat...","0","livaklok","[""livaklok"",""livaklom""]","","posttest trial","8",""
"html-button-response-clever","154","764770","0.0-13.0-0.34","614","Te bizony sokat kumlasz. Én is sokat...","0","kumlok","[""kumlok"",""kumlom""]","","posttest trial","8",""
"html-button-response-clever","155","766321","0.0-13.0-0.35","1048","Te bizony sokat fivénylesz. Én is sokat...","1","fivénylek","[""fivénylem"",""fivénylek""]","","posttest trial","8",""
"html-button-response-clever","156","767353","0.0-13.0-0.36","531","Te bizony sokat brarlasz. Én is sokat...","0","brarlom","[""brarlom"",""brarlok""]","","posttest trial","8",""
"html-button-response-clever","157","768371","0.0-13.0-0.37","516","Te bizony sokat frivajlasz. Én is sokat...","0","frivajlok","[""frivajlok"",""frivajlom""]","","posttest trial","8",""
"html-button-response-clever","158","769337","0.0-13.0-0.38","465","Te bizony sokat plágadzol. Én is sokat...","0","plágadzom","[""plágadzom"",""plágadzok""]","","posttest trial","8",""
"html-button-response-clever","159","770238","0.0-13.0-0.39","399","Te bizony sokat zödlesz. Én is sokat...","0","zödlöm","[""zödlöm"",""zödlök""]","","posttest trial","8",""
"html-button-response-clever","160","771604","0.0-13.0-0.40","864","Te bizony sokat spibádzol. Én is sokat...","1","spibádzom","[""spibádzok"",""spibádzom""]","","posttest trial","8",""
"html-button-response-clever","161","773021","0.0-13.0-0.41","915","Te bizony sokat klárzol. Én is sokat...","0","klárzok","[""klárzok"",""klárzom""]","","posttest trial","8",""
"html-button-response-clever","162","773888","0.0-13.0-0.42","365","Te bizony sokat fliraklasz. Én is sokat...","0","fliraklom","[""fliraklom"",""fliraklok""]","","posttest trial","8",""
"html-button-response-clever","163","774753","0.0-13.0-0.43","363","Te bizony sokat prezlesz. Én is sokat...","0","prezlek","[""prezlek"",""prezlem""]","","posttest trial","8",""
"html-button-response-clever","164","775754","0.0-13.0-0.44","498","Te bizony sokat floglasz. Én is sokat...","0","floglom","[""floglom"",""floglok""]","","posttest trial","8",""
"html-button-response-clever","165","777019","0.0-13.0-0.45","764","Te bizony sokat friszlasz. Én is sokat...","1","friszlok","[""friszlom"",""friszlok""]","","posttest trial","8",""
"html-button-response-clever","166","778153","0.0-13.0-0.46","632","Te bizony sokat vihepszel. Én is sokat...","1","vihepszek","[""vihepszem"",""vihepszek""]","","posttest trial","8",""
"html-button-response-clever","167","779038","0.0-13.0-0.47","383","Te bizony sokat gerénylesz. Én is sokat...","0","gerénylem","[""gerénylem"",""gerénylek""]","","posttest trial","8",""
"html-button-response-clever","168","781221","0.0-13.0-0.48","1682","Te bizony sokat huklasz. Én is sokat...","1","huklom","[""huklok"",""huklom""]","","posttest trial","8",""
"html-button-response-clever","169","783058","0.0-13.0-0.49","1335","Te bizony sokat spülöklesz. Én is sokat...","0","spülöklöm","[""spülöklöm"",""spülöklök""]","","posttest trial","8",""
"html-button-response-clever","170","784520","0.0-13.0-0.50","960","Te bizony sokat spírzol. Én is sokat...","1","spírzok","[""spírzom"",""spírzok""]","","posttest trial","8",""
"html-button-response-clever","171","786705","0.0-13.0-0.51","1683","Te bizony sokat gilárzol. Én is sokat...","0","gilárzom","[""gilárzom"",""gilárzok""]","","posttest trial","8",""
"html-button-response-clever","172","788454","0.0-13.0-0.52","1248","Te bizony sokat lihadzol. Én is sokat...","0","lihadzom","[""lihadzom"",""lihadzok""]","","posttest trial","8",""
"html-button-response-clever","173","790204","0.0-13.0-0.53","1249","Te bizony sokat prihekszel. Én is sokat...","0","prihekszek","[""prihekszek"",""prihekszem""]","","posttest trial","8",""
"html-button-response","174","794741","0.0-14.0","4033","<p> Vége a játéknak. A teljes pontszámod 27/54.</p><p> Szép munka! &#128526;&#128526;&#128526;</p><p>A Befejezés gomb megnyomása után bezárhatod a böngészőablakot.</p>","0","","","","","",""
"html-keyboard-response","175","800377","0.0-15.0","null","<div class=""message"">
         <p>Egy kis türelmet kérünk, amíg elmentjük az adatokat...</p>
         </div>","null","","","","","",""
