"trial_type","trial_index","time_elapsed","internal_node_id","rt","stimulus","response","response_string","choices","esp_response","trial_kind","list_number","esp_match"
"pavlovia","0","677","0.0-0.0","","","","","","","","",""
"html-button-response","1","62558","0.0-1.0","61369","<p>Kedves Résztvevő! A Budapesti Műszaki és Gazdaságtudományi Egyetem Kognitív Tudományi Tanszékének kutatásában való részvételed kérjük. A kutatásban azt vizsgáljuk, hogy a magyar anyanyelvűek hogyan használnak bizonyos szóalakokat, és hogy milyen képük van arról, hogy mások hogyan használják, hogyan képzik a szavakat. Ez hozzásegít bennünket ahhoz, hogy jobban megértsük, hogyan dolgozza fel és tárolja a nyelvet az emberi agy, és hogyan működnek, hogyan változnak egy adott közösség nyelvi konvenciói.</p><p>A vizsgálat egy rövid számítógépes feladatból fog állni. A kutatásban való részvétel önkéntes, a részvételi szándék bármikor visszavonható. A résztvevők eredményeit név nélkül kezeljük, így nem beazonosíthatók az adatok feldolgozása során. Minden személyes adatot az EU általános adatvédelmi rendeletének (GDPR) megfelelően kezelünk és legfeljebb öt éven belül megsemmisítünk. A vizsgálat jellemzően húsz percet vesz igénybe.</p><p>Kutatásvezető:</p><p>Dr. Rácz Péter, tudományos munkatárs, BME KTT</p><p>e-mail: racz.peter.marton@ttk.bme.hu</p>","0","","","","","",""
"html-button-response","2","139749","0.0-2.0","76679","<p>A kísérletben szavakat fogsz látni. Ezek között lesznek olyanok, amelyeket ismersz, de előfordulhatnak olyanok is, amelyeket nem ismersz, sőt, vannak köztük kitalált szavak is. Minden szónál látni fogsz toldalékolt alakokat. A te feladatod az lesz, hogy minden szóhoz kiválaszd azt a toldalékolt alakot, amely a te számodra ismerősebben, természetesebben hangzik. Rossz válaszok nincsenek, mert van olyan, hogy különböző embereknek más és más szó tűnik jobb választásnak. A választ úgy tudod majd kiválasztani, ha rákattintasz.</p><p>Ebben a szóválasztós játékban egy másik játékossal együtt veszel majd részt. A másik játékos is minden esetben azok közül a lehetőségek közül válogathat, mint te. Kettőtök feladata az, hogy ugyanazt a lehetőséget válasszátok minden esetben. Ahhoz, hogy ez sikerüljön, neked figyelned kell arra, hogy a másik játékos milyen válaszokat ad, és ennek alapján meg kell tippelned, hogyan választ legközelebb. Ha eltalálod, akkor pontot kapsz.</p>","0","","","","","",""
"html-button-response","3","207757","0.0-3.0","67493","<p>Kérjük, olvasd el az alábbi nyilatkozatot, és amennyiben egyetértesz vele, nyomj a Beleegyezés gombra!</p><p>Kijelentem, hogy magyar anyanyelvű személyként önként veszek részt a BME KTT kísérletében. A kutatás céljával és folyamatával kapcsolatban elegendő tájékoztatást kaptam, lehetőségem volt kérdések feltételére, és esetleges kérdéseimre megfelelő válaszokat kaptam. A tájékoztatás alapján elegendő mennyiségű információ áll a rendelkezésemre, hogy eldönthessem, részt kívánok-e venni a kutatásban.</p><p>Tisztában vagyok vele, hogy részvételi szándékomat és adataimat bármikor, indoklás nélkül visszavonhatom.</p><p>Értem és tudomásul veszem, hogy a kutatás tudományos célokat szolgál, és az általam szolgáltatott adatokat a BME kizárólag kutatási célból használja fel. Tudomásul veszem, hogy eredményeimet a többi résztvevő eredményeivel együtt kezelik, így egyéni teljesítményemről visszajelzést, szakvéleményt nem kapok.</p><p>Megértettem, hogy adataim kezelését illetően a BME az EU általános adatvédelmi rendelete (GDPR), a hatályos adatvédelmi törvény és a nemzetközi kutatás-etikai alapelvek szerint jár el. Eredményeim anonim módon kerülnek feldolgozásra, és a kutatás résztvevői az azonosításomra alkalmas adataimat harmadik félnek nem szolgáltatják ki. Engedélyezem a BME számára a jelen kutatásban felvett adataim feldolgozását és tárolását, beleértve azok későbbi kutatásokhoz való felhasználását is. Személyes adataim kezelésével kapcsolatban tájékoztatást kérhetek a kutatás résztvevőitől, az adatkezelés ellen tiltakozhatok, kérhetem személyes adataim helyesbítését, törlését vagy zárolását, valamint jogorvoslatért a Nemzeti Adatvédelmi és Információszabadság Hatósághoz fordulhatok.</p><p>Kijelentem, hogy a kutatásban való részvételem körülményeiről részletes tájékoztatást kaptam, és a feltételeket elfogadom.</p>","0","","","","","",""
"survey-text","4","381550","0.0-4.0","173269","","{""Q0"":""DEXM7Y"",""Q1"":"""",""Q2"":""1999"",""Q3"":""16""}","","","","","",""
"html-button-response","5","437591","0.0-5.0","55535","<p>Ebben a játékban szavakat kell toldalékolni.</p> <p>Minden körben mutatunk majd egy példamondatot, amiben lesz egy szó.</p> <p>Alatta jön egy második mondat, ezt a mondatot neked kell majd befejezni, ugyanezzel a szóval.</p> <p>Nem biztos, hogy a szó eleve ismerős lesz számodra!</p> <p>Minden mondathoz adunk két lehetőséget, ezeket balra és jobbra látod majd.</p> <p>A játék kb. negyedóráig-húsz percig tart.</p>","0","","","","","",""
"html-button-response","6","465495","0.0-6.0","27386","<p>Nézzünk egy példát!</p> <p>A példamondat: ""János nagyon szeret rancsúrozni.""</p><p>Neked ezt a mondatot kell befejezned: ""Én is szívesen...""</p><p>A lehetőségek pedig ezek:</p>","1","","","","","",""
"html-button-response","7","477151","0.0-7.0","11149","<p>Nagyon jó.</p><p>Ezt a játékot nem egyedül fogod játszani, hanem egy másik játékossal.</p><p>Mielőtt továbblépünk, összekapcsolunk titeket egymással.</p><p>Ez igénybe vehet néhány másodpercet, amihez szíves türelmed kérjük.</p>","0","","","","","",""
"html-button-response","8","482908","0.0-8.0","null","<p>Csatlakozás a másik játékoshoz...</p>","null","","","","","",""
"html-button-response","9","485425","0.0-9.0","null","<p> Sikeres kapcsolódás!</p>","null","","","","","",""
"html-button-response","10","495957","0.0-10.0","null","<p>A következőkben ketten játsszátok a szóválasztós játékot.</p><p>A feladatotok az lesz, hogy minden körben <b>ugyanazt</b> a szót válasszátok.</p><p>Minden ilyen egyező válaszért pontot kaptok.</p><p>Próbáld meg kitalálni, mit választ a másik játékos!</p><p>Bármikor választhatsz, a körnek akkor van vége, ha mindketten döntöttetek.</p><p>Sok sikert!</p>","null","","","","","",""
"html-button-response-esp","11","507368","0.0-11.0-0.0","10889","Te bizony sokat spatárzol. Én is sokat...","0","spatárzok","[""spatárzok"",""spatárzom""]","spatárzom","esp trial","3","false"
"html-button-response","12","510888","0.0-11.0-1.0","null","<p>A másik játékos ezt választotta: <b>spatárzom</b>.</p><p>&#10060;</p><p>A válaszaitok <b>nem</b> egyeznek meg.</p>","null","","","","feedback trial","",""
"html-button-response-esp","13","524456","0.0-11.0-0.1","13055","Te bizony sokat brágaklasz. Én is sokat...","1","brágaklok","[""brágaklom"",""brágaklok""]","brágaklom","esp trial","3","false"
"html-button-response","14","527982","0.0-11.0-1.1","null","<p>A másik játékos ezt választotta: <b>brágaklom</b>.</p><p>&#10060;</p><p>A válaszaitok <b>nem</b> egyeznek meg.</p>","null","","","","feedback trial","",""
"html-button-response-esp","15","545496","0.0-11.0-0.2","16993","Te bizony sokat hilarzol. Én is sokat...","0","hilarzok","[""hilarzok"",""hilarzom""]","hilarzom","esp trial","3","false"
"html-button-response","16","549024","0.0-11.0-1.2","null","<p>A másik játékos ezt választotta: <b>hilarzom</b>.</p><p>&#10060;</p><p>A válaszaitok <b>nem</b> egyeznek meg.</p>","null","","","","feedback trial","",""
"html-button-response-esp","17","562352","0.0-11.0-0.3","12809","Te bizony sokat csíszlasz. Én is sokat...","0","csíszlom","[""csíszlom"",""csíszlok""]","csíszlom","esp trial","3","true"
"html-button-response","18","565875","0.0-11.0-1.3","null","<p>A másik játékos ezt választotta: <b>csíszlom</b>.</p><p>&#x2705;</p><p>A te válaszod és a másik játékos válasza <b>megegyeznek</b>.</p>","null","","","","feedback trial","",""
"html-button-response-esp","19","573528","0.0-11.0-0.4","7139","Te bizony sokat trilszol. Én is sokat...","0","trilszom","[""trilszom"",""trilszok""]","trilszom","esp trial","3","true"
"html-button-response","20","577057","0.0-11.0-1.4","null","<p>A másik játékos ezt választotta: <b>trilszom</b>.</p><p>&#x2705;</p><p>A te válaszod és a másik játékos válasza <b>megegyeznek</b>.</p>","null","","","","feedback trial","",""
"html-button-response-esp","21","585984","0.0-11.0-0.5","8413","Te bizony sokat jüslesz. Én is sokat...","1","jüslök","[""jüslöm"",""jüslök""]","jüslök","esp trial","3","true"
"html-button-response","22","589508","0.0-11.0-1.5","null","<p>A másik játékos ezt választotta: <b>jüslök</b>.</p><p>&#x2705;</p><p>A te válaszod és a másik játékos válasza <b>megegyeznek</b>.</p>","null","","","","feedback trial","",""
"html-button-response-esp","23","595376","0.0-11.0-0.6","5360","Te bizony sokat femlesz. Én is sokat...","1","femlek","[""femlem"",""femlek""]","femlek","esp trial","3","true"
"html-button-response","24","598886","0.0-11.0-1.6","null","<p>A másik játékos ezt választotta: <b>femlek</b>.</p><p>&#x2705;</p><p>A te válaszod és a másik játékos válasza <b>megegyeznek</b>.</p>","null","","","","feedback trial","",""
"html-button-response-esp","25","614265","0.0-11.0-0.7","14874","Te bizony sokat siladzol. Én is sokat...","1","siladzom","[""siladzok"",""siladzom""]","siladzom","esp trial","3","true"
"html-button-response","26","617781","0.0-11.0-1.7","null","<p>A másik játékos ezt választotta: <b>siladzom</b>.</p><p>&#x2705;</p><p>A te válaszod és a másik játékos válasza <b>megegyeznek</b>.</p>","null","","","","feedback trial","",""
"html-button-response-esp","27","630641","0.0-11.0-0.8","12354","Te bizony sokat drubódzol. Én is sokat...","1","drubódzom","[""drubódzok"",""drubódzom""]","drubódzom","esp trial","3","true"
"html-button-response","28","634166","0.0-11.0-1.8","null","<p>A másik játékos ezt választotta: <b>drubódzom</b>.</p><p>&#x2705;</p><p>A te válaszod és a másik játékos válasza <b>megegyeznek</b>.</p>","null","","","","feedback trial","",""
"html-button-response-esp","29","643977","0.0-11.0-0.9","9303","Te bizony sokat klörlesz. Én is sokat...","0","klörlök","[""klörlök"",""klörlöm""]","klörlöm","esp trial","3","false"
"html-button-response","30","647494","0.0-11.0-1.9","null","<p>A másik játékos ezt választotta: <b>klörlöm</b>.</p><p>&#10060;</p><p>A válaszaitok <b>nem</b> egyeznek meg.</p>","null","","","","feedback trial","",""
"html-button-response-esp","31","661146","0.0-11.0-0.10","13139","Te bizony sokat narjárzol. Én is sokat...","1","narjárzom","[""narjárzok"",""narjárzom""]","narjárzom","esp trial","3","true"
"html-button-response","32","664654","0.0-11.0-1.10","null","<p>A másik játékos ezt választotta: <b>narjárzom</b>.</p><p>&#x2705;</p><p>A te válaszod és a másik játékos válasza <b>megegyeznek</b>.</p>","null","","","","feedback trial","",""
"html-button-response-esp","33","679058","0.0-11.0-0.11","13892","Te bizony sokat sprogzol. Én is sokat...","0","sprogzom","[""sprogzom"",""sprogzok""]","sprogzom","esp trial","3","true"
"html-button-response","34","682570","0.0-11.0-1.11","null","<p>A másik játékos ezt választotta: <b>sprogzom</b>.</p><p>&#x2705;</p><p>A te válaszod és a másik játékos válasza <b>megegyeznek</b>.</p>","null","","","","feedback trial","",""
"html-button-response-esp","35","696794","0.0-11.0-0.12","13714","Te bizony sokat flüröslesz. Én is sokat...","0","flüröslök","[""flüröslök"",""flüröslöm""]","flüröslöm","esp trial","3","false"
"html-button-response","36","700326","0.0-11.0-1.12","null","<p>A másik játékos ezt választotta: <b>flüröslöm</b>.</p><p>&#10060;</p><p>A válaszaitok <b>nem</b> egyeznek meg.</p>","null","","","","feedback trial","",""
"html-button-response-esp","37","709819","0.0-11.0-0.13","8976","Te bizony sokat sűzlesz. Én is sokat...","1","sűzlök","[""sűzlöm"",""sűzlök""]","sűzlöm","esp trial","3","false"
"html-button-response","38","713349","0.0-11.0-1.13","null","<p>A másik játékos ezt választotta: <b>sűzlöm</b>.</p><p>&#10060;</p><p>A válaszaitok <b>nem</b> egyeznek meg.</p>","null","","","","feedback trial","",""
"html-button-response-esp","39","717265","0.0-11.0-0.14","3410","Te bizony sokat ruslasz. Én is sokat...","0","ruslom","[""ruslom"",""ruslok""]","ruslok","esp trial","3","false"
"html-button-response","40","720784","0.0-11.0-1.14","null","<p>A másik játékos ezt választotta: <b>ruslok</b>.</p><p>&#10060;</p><p>A válaszaitok <b>nem</b> egyeznek meg.</p>","null","","","","feedback trial","",""
"html-button-response-esp","41","739145","0.0-11.0-0.15","17855","Te bizony sokat flagánylasz. Én is sokat...","1","flagánylom","[""flagánylok"",""flagánylom""]","flagánylok","esp trial","3","false"
"html-button-response","42","742670","0.0-11.0-1.15","null","<p>A másik játékos ezt választotta: <b>flagánylok</b>.</p><p>&#10060;</p><p>A válaszaitok <b>nem</b> egyeznek meg.</p>","null","","","","feedback trial","",""
"html-button-response-esp","43","748361","0.0-11.0-0.16","5180","Te bizony sokat flagárzol. Én is sokat...","0","flagárzom","[""flagárzom"",""flagárzok""]","flagárzom","esp trial","3","true"
"html-button-response","44","751870","0.0-11.0-1.16","null","<p>A másik játékos ezt választotta: <b>flagárzom</b>.</p><p>&#x2705;</p><p>A te válaszod és a másik játékos válasza <b>megegyeznek</b>.</p>","null","","","","feedback trial","",""
"html-button-response-esp","45","765098","0.0-11.0-0.17","12708","Te bizony sokat spéslesz. Én is sokat...","0","spéslek","[""spéslek"",""spéslem""]","spéslek","esp trial","3","true"
"html-button-response","46","768617","0.0-11.0-1.17","null","<p>A másik játékos ezt választotta: <b>spéslek</b>.</p><p>&#x2705;</p><p>A te válaszod és a másik játékos válasza <b>megegyeznek</b>.</p>","null","","","","feedback trial","",""
"html-button-response-esp","47","780082","0.0-11.0-0.18","10964","Te bizony sokat ribegzel. Én is sokat...","0","ribegzek","[""ribegzek"",""ribegzem""]","ribegzem","esp trial","3","false"
"html-button-response","48","783603","0.0-11.0-1.18","null","<p>A másik játékos ezt választotta: <b>ribegzem</b>.</p><p>&#10060;</p><p>A válaszaitok <b>nem</b> egyeznek meg.</p>","null","","","","feedback trial","",""
"html-button-response-esp","49","792491","0.0-11.0-0.19","8384","Te bizony sokat driládzol. Én is sokat...","0","driládzok","[""driládzok"",""driládzom""]","driládzom","esp trial","3","false"
"html-button-response","50","796019","0.0-11.0-1.19","null","<p>A másik játékos ezt választotta: <b>driládzom</b>.</p><p>&#10060;</p><p>A válaszaitok <b>nem</b> egyeznek meg.</p>","null","","","","feedback trial","",""
"html-button-response-esp","51","811699","0.0-11.0-0.20","15163","Te bizony sokat fibamlasz. Én is sokat...","1","fibamlok","[""fibamlom"",""fibamlok""]","fibamlok","esp trial","3","true"
"html-button-response","52","815232","0.0-11.0-1.20","null","<p>A másik játékos ezt választotta: <b>fibamlok</b>.</p><p>&#x2705;</p><p>A te válaszod és a másik játékos válasza <b>megegyeznek</b>.</p>","null","","","","feedback trial","",""
"html-button-response-esp","53","836882","0.0-11.0-0.21","21134","Te bizony sokat spilágzol. Én is sokat...","1","spilágzok","[""spilágzom"",""spilágzok""]","spilágzom","esp trial","3","false"
"html-button-response","54","840409","0.0-11.0-1.21","null","<p>A másik játékos ezt választotta: <b>spilágzom</b>.</p><p>&#10060;</p><p>A válaszaitok <b>nem</b> egyeznek meg.</p>","null","","","","feedback trial","",""
"html-button-response-esp","55","848067","0.0-11.0-0.22","7156","Te bizony sokat sprökszöl. Én is sokat...","0","sprökszök","[""sprökszök"",""sprökszöm""]","sprökszöm","esp trial","3","false"
"html-button-response","56","851582","0.0-11.0-1.22","null","<p>A másik játékos ezt választotta: <b>sprökszöm</b>.</p><p>&#10060;</p><p>A válaszaitok <b>nem</b> egyeznek meg.</p>","null","","","","feedback trial","",""
"html-button-response-esp","57","855327","0.0-11.0-0.23","3047","Te bizony sokat sojzol. Én is sokat...","1","sojzok","[""sojzom"",""sojzok""]","sojzom","esp trial","3","false"
"html-button-response","58","858842","0.0-11.0-1.23","null","<p>A másik játékos ezt választotta: <b>sojzom</b>.</p><p>&#10060;</p><p>A válaszaitok <b>nem</b> egyeznek meg.</p>","null","","","","feedback trial","",""
"html-button-response-esp","59","864411","0.0-11.0-0.24","5056","Te bizony sokat brüjlesz. Én is sokat...","0","brüjlök","[""brüjlök"",""brüjlöm""]","brüjlök","esp trial","3","true"
"html-button-response","60","867931","0.0-11.0-1.24","null","<p>A másik játékos ezt választotta: <b>brüjlök</b>.</p><p>&#x2705;</p><p>A te válaszod és a másik játékos válasza <b>megegyeznek</b>.</p>","null","","","","feedback trial","",""
"html-button-response-esp","61","872468","0.0-11.0-0.25","4033","Te bizony sokat juszlasz. Én is sokat...","1","juszlok","[""juszlom"",""juszlok""]","juszlom","esp trial","3","false"
"html-button-response","62","875979","0.0-11.0-1.25","null","<p>A másik játékos ezt választotta: <b>juszlom</b>.</p><p>&#10060;</p><p>A válaszaitok <b>nem</b> egyeznek meg.</p>","null","","","","feedback trial","",""
"html-button-response-esp","63","883245","0.0-11.0-0.26","6759","Te bizony sokat tiregzel. Én is sokat...","1","tiregzem","[""tiregzek"",""tiregzem""]","tiregzem","esp trial","3","true"
"html-button-response","64","886773","0.0-11.0-1.26","null","<p>A másik játékos ezt választotta: <b>tiregzem</b>.</p><p>&#x2705;</p><p>A te válaszod és a másik játékos válasza <b>megegyeznek</b>.</p>","null","","","","feedback trial","",""
"html-button-response-esp","65","890547","0.0-11.0-0.27","3265","Te bizony sokat sztremlesz. Én is sokat...","1","sztremlem","[""sztremlek"",""sztremlem""]","sztremlek","esp trial","3","false"
"html-button-response","66","894072","0.0-11.0-1.27","null","<p>A másik játékos ezt választotta: <b>sztremlek</b>.</p><p>&#10060;</p><p>A válaszaitok <b>nem</b> egyeznek meg.</p>","null","","","","feedback trial","",""
"html-button-response-esp","67","897941","0.0-11.0-0.28","3366","Te bizony sokat böjzöl. Én is sokat...","0","böjzök","[""böjzök"",""böjzöm""]","böjzöm","esp trial","3","false"
"html-button-response","68","901467","0.0-11.0-1.28","null","<p>A másik játékos ezt választotta: <b>böjzöm</b>.</p><p>&#10060;</p><p>A válaszaitok <b>nem</b> egyeznek meg.</p>","null","","","","feedback trial","",""
"html-button-response-esp","69","905958","0.0-11.0-0.29","3979","Te bizony sokat klibamlasz. Én is sokat...","0","klibamlok","[""klibamlok"",""klibamlom""]","klibamlom","esp trial","3","false"
"html-button-response","70","909485","0.0-11.0-1.29","null","<p>A másik játékos ezt választotta: <b>klibamlom</b>.</p><p>&#10060;</p><p>A válaszaitok <b>nem</b> egyeznek meg.</p>","null","","","","feedback trial","",""
"html-button-response-esp","71","913588","0.0-11.0-0.30","3598","Te bizony sokat fretszel. Én is sokat...","1","fretszek","[""fretszem"",""fretszek""]","fretszem","esp trial","3","false"
"html-button-response","72","917111","0.0-11.0-1.30","null","<p>A másik játékos ezt választotta: <b>fretszem</b>.</p><p>&#10060;</p><p>A válaszaitok <b>nem</b> egyeznek meg.</p>","null","","","","feedback trial","",""
"html-button-response-esp","73","923099","0.0-11.0-0.31","5484","Te bizony sokat spibaklasz. Én is sokat...","0","spibaklok","[""spibaklok"",""spibaklom""]","spibaklom","esp trial","3","false"
"html-button-response","74","926618","0.0-11.0-1.31","null","<p>A másik játékos ezt választotta: <b>spibaklom</b>.</p><p>&#10060;</p><p>A válaszaitok <b>nem</b> egyeznek meg.</p>","null","","","","feedback trial","",""
"html-button-response-esp","75","930382","0.0-11.0-0.32","415","Te bizony sokat szirlasz. Én is sokat...","1","szirlok","[""szirlom"",""szirlok""]","szirlom","esp trial","3","false"
"html-button-response","76","933917","0.0-11.0-1.32","null","<p>A másik játékos ezt választotta: <b>szirlom</b>.</p><p>&#10060;</p><p>A válaszaitok <b>nem</b> egyeznek meg.</p>","null","","","","feedback trial","",""
"html-button-response-esp","77","938533","0.0-11.0-0.33","4110","Te bizony sokat feténylesz. Én is sokat...","1","feténylek","[""feténylem"",""feténylek""]","feténylek","esp trial","3","true"
"html-button-response","78","942077","0.0-11.0-1.33","null","<p>A másik játékos ezt választotta: <b>feténylek</b>.</p><p>&#x2705;</p><p>A te válaszod és a másik játékos válasza <b>megegyeznek</b>.</p>","null","","","","feedback trial","",""
"html-button-response-esp","79","949531","0.0-11.0-0.34","6950","Te bizony sokat frilegszel. Én is sokat...","1","frilegszek","[""frilegszem"",""frilegszek""]","frilegszem","esp trial","3","false"
"html-button-response","80","953056","0.0-11.0-1.34","null","<p>A másik játékos ezt választotta: <b>frilegszem</b>.</p><p>&#10060;</p><p>A válaszaitok <b>nem</b> egyeznek meg.</p>","null","","","","feedback trial","",""
"html-button-response-esp","81","959179","0.0-11.0-0.35","5614","Te bizony sokat málapszol. Én is sokat...","1","málapszom","[""málapszok"",""málapszom""]","málapszom","esp trial","3","true"
"html-button-response","82","962708","0.0-11.0-1.35","null","<p>A másik játékos ezt választotta: <b>málapszom</b>.</p><p>&#x2705;</p><p>A te válaszod és a másik játékos válasza <b>megegyeznek</b>.</p>","null","","","","feedback trial","",""
"html-button-response-esp","83","968508","0.0-11.0-0.36","5279","Te bizony sokat tomlasz. Én is sokat...","0","tomlok","[""tomlok"",""tomlom""]","tomlok","esp trial","3","true"
"html-button-response","84","972014","0.0-11.0-1.36","null","<p>A másik játékos ezt választotta: <b>tomlok</b>.</p><p>&#x2705;</p><p>A te válaszod és a másik játékos válasza <b>megegyeznek</b>.</p>","null","","","","feedback trial","",""
"html-button-response-esp","85","975773","0.0-11.0-0.37","3108","Te bizony sokat prilegzel. Én is sokat...","1","prilegzek","[""prilegzem"",""prilegzek""]","prilegzem","esp trial","3","false"
"html-button-response","86","979294","0.0-11.0-1.37","null","<p>A másik játékos ezt választotta: <b>prilegzem</b>.</p><p>&#10060;</p><p>A válaszaitok <b>nem</b> egyeznek meg.</p>","null","","","","feedback trial","",""
"html-button-response-esp","87","983066","0.0-11.0-0.38","2496","Te bizony sokat tínylasz. Én is sokat...","0","tínylok","[""tínylok"",""tínylom""]","tínylom","esp trial","3","false"
"html-button-response","88","986582","0.0-11.0-1.38","null","<p>A másik játékos ezt választotta: <b>tínylom</b>.</p><p>&#10060;</p><p>A válaszaitok <b>nem</b> egyeznek meg.</p>","null","","","","feedback trial","",""
"html-button-response-esp","89","990349","0.0-11.0-0.39","3161","Te bizony sokat büglesz. Én is sokat...","1","büglök","[""büglöm"",""büglök""]","büglök","esp trial","3","true"
"html-button-response","90","993869","0.0-11.0-1.39","null","<p>A másik játékos ezt választotta: <b>büglök</b>.</p><p>&#x2705;</p><p>A te válaszod és a másik játékos válasza <b>megegyeznek</b>.</p>","null","","","","feedback trial","",""
"html-button-response-esp","91","998956","0.0-11.0-0.40","4566","Te bizony sokat vilakszol. Én is sokat...","1","vilakszom","[""vilakszok"",""vilakszom""]","vilakszom","esp trial","3","true"
"html-button-response","92","1002467","0.0-11.0-1.40","null","<p>A másik játékos ezt választotta: <b>vilakszom</b>.</p><p>&#x2705;</p><p>A te válaszod és a másik játékos válasza <b>megegyeznek</b>.</p>","null","","","","feedback trial","",""
"html-button-response-esp","93","1007245","0.0-11.0-0.41","4272","Te bizony sokat pebzel. Én is sokat...","0","pebzem","[""pebzem"",""pebzek""]","pebzem","esp trial","3","true"
"html-button-response","94","1010778","0.0-11.0-1.41","null","<p>A másik játékos ezt választotta: <b>pebzem</b>.</p><p>&#x2705;</p><p>A te válaszod és a másik játékos válasza <b>megegyeznek</b>.</p>","null","","","","feedback trial","",""
"html-button-response-esp","95","1018092","0.0-11.0-0.42","6805","Te bizony sokat lorjódzol. Én is sokat...","0","lorjódzom","[""lorjódzom"",""lorjódzok""]","lorjódzom","esp trial","3","true"
"html-button-response","96","1021621","0.0-11.0-1.42","null","<p>A másik játékos ezt választotta: <b>lorjódzom</b>.</p><p>&#x2705;</p><p>A te válaszod és a másik játékos válasza <b>megegyeznek</b>.</p>","null","","","","feedback trial","",""
"html-button-response-esp","97","1027284","0.0-11.0-0.43","5152","Te bizony sokat bölszöl. Én is sokat...","0","bölszöm","[""bölszöm"",""bölszök""]","bölszöm","esp trial","3","true"
"html-button-response","98","1030803","0.0-11.0-1.43","null","<p>A másik játékos ezt választotta: <b>bölszöm</b>.</p><p>&#x2705;</p><p>A te válaszod és a másik játékos válasza <b>megegyeznek</b>.</p>","null","","","","feedback trial","",""
"html-button-response-esp","99","1034572","0.0-11.0-0.44","3138","Te bizony sokat piragszol. Én is sokat...","1","piragszom","[""piragszok"",""piragszom""]","piragszom","esp trial","3","true"
"html-button-response","100","1038096","0.0-11.0-1.44","null","<p>A másik játékos ezt választotta: <b>piragszom</b>.</p><p>&#x2705;</p><p>A te válaszod és a másik játékos válasza <b>megegyeznek</b>.</p>","null","","","","feedback trial","",""
"html-button-response-esp","101","1041924","0.0-11.0-0.45","3312","Te bizony sokat nyáslasz. Én is sokat...","0","nyáslom","[""nyáslom"",""nyáslok""]","nyáslom","esp trial","3","true"
"html-button-response","102","1045454","0.0-11.0-1.45","null","<p>A másik játékos ezt választotta: <b>nyáslom</b>.</p><p>&#x2705;</p><p>A te válaszod és a másik játékos válasza <b>megegyeznek</b>.</p>","null","","","","feedback trial","",""
"html-button-response-esp","103","1049207","0.0-11.0-0.46","2640","Te bizony sokat ribzol. Én is sokat...","1","ribzom","[""ribzok"",""ribzom""]","ribzom","esp trial","3","true"
"html-button-response","104","1052718","0.0-11.0-1.46","null","<p>A másik játékos ezt választotta: <b>ribzom</b>.</p><p>&#x2705;</p><p>A te válaszod és a másik játékos válasza <b>megegyeznek</b>.</p>","null","","","","feedback trial","",""
"html-button-response-esp","105","1056470","0.0-11.0-0.47","1350","Te bizony sokat pratánylasz. Én is sokat...","0","pratánylom","[""pratánylom"",""pratánylok""]","pratánylok","esp trial","3","false"
"html-button-response","106","1059993","0.0-11.0-1.47","null","<p>A másik játékos ezt választotta: <b>pratánylok</b>.</p><p>&#10060;</p><p>A válaszaitok <b>nem</b> egyeznek meg.</p>","null","","","","feedback trial","",""
"html-button-response-esp","107","1066197","0.0-11.0-0.48","5689","Te bizony sokat flűröklesz. Én is sokat...","1","flűröklöm","[""flűröklök"",""flűröklöm""]","flűröklöm","esp trial","3","true"
"html-button-response","108","1069721","0.0-11.0-1.48","null","<p>A másik játékos ezt választotta: <b>flűröklöm</b>.</p><p>&#x2705;</p><p>A te válaszod és a másik játékos válasza <b>megegyeznek</b>.</p>","null","","","","feedback trial","",""
"html-button-response-esp","109","1077421","0.0-11.0-0.49","7181","Te bizony sokat herégszel. Én is sokat...","0","herégszem","[""herégszem"",""herégszek""]","herégszem","esp trial","3","true"
"html-button-response","110","1080957","0.0-11.0-1.49","null","<p>A másik játékos ezt választotta: <b>herégszem</b>.</p><p>&#x2705;</p><p>A te válaszod és a másik játékos válasza <b>megegyeznek</b>.</p>","null","","","","feedback trial","",""
"html-button-response-esp","111","1084726","0.0-11.0-0.50","2590","Te bizony sokat spűmlesz. Én is sokat...","0","spűmlöm","[""spűmlöm"",""spűmlök""]","spűmlök","esp trial","3","false"
"html-button-response","112","1088245","0.0-11.0-1.50","null","<p>A másik játékos ezt választotta: <b>spűmlök</b>.</p><p>&#10060;</p><p>A válaszaitok <b>nem</b> egyeznek meg.</p>","null","","","","feedback trial","",""
"html-button-response-esp","113","1097541","0.0-11.0-0.51","8787","Te bizony sokat pivegszel. Én is sokat...","1","pivegszek","[""pivegszem"",""pivegszek""]","pivegszem","esp trial","3","false"
"html-button-response","114","1101057","0.0-11.0-1.51","null","<p>A másik játékos ezt választotta: <b>pivegszem</b>.</p><p>&#10060;</p><p>A válaszaitok <b>nem</b> egyeznek meg.</p>","null","","","","feedback trial","",""
"html-button-response-esp","115","1104823","0.0-11.0-0.52","3143","Te bizony sokat marzol. Én is sokat...","0","marzok","[""marzok"",""marzom""]","marzok","esp trial","3","true"
"html-button-response","116","1108355","0.0-11.0-1.52","null","<p>A másik játékos ezt választotta: <b>marzok</b>.</p><p>&#x2705;</p><p>A te válaszod és a másik játékos válasza <b>megegyeznek</b>.</p>","null","","","","feedback trial","",""
"html-button-response-esp","117","1113398","0.0-11.0-0.53","4533","Te bizony sokat prűrlesz. Én is sokat...","0","prűrlök","[""prűrlök"",""prűrlöm""]","prűrlök","esp trial","3","true"
"html-button-response","118","1116934","0.0-11.0-1.53","null","<p>A másik játékos ezt választotta: <b>prűrlök</b>.</p><p>&#x2705;</p><p>A te válaszod és a másik játékos válasza <b>megegyeznek</b>.</p>","null","","","","feedback trial","",""
"html-button-response","119","1132822","0.0-12.0","15376","<p>A közös játék most véget ért.</p><p>Mielőtt eláruljuk a végső pontszámodat, arra kérlek, játszd a szóválasztós játékot néhány percig egyedül is.</p><p>A feladatod ugyanaz lesz, választani két lehetőség közül.</p><p>Most viszont egyedül kell döntened, hogy te melyiket választanád.</p>","0","","","","","",""
"html-button-response-clever","120","1141734","0.0-13.0-0.0","8406","Te bizony sokat pribagszol. Én is sokat...","0","pribagszom","[""pribagszom"",""pribagszok""]","","posttest trial","4",""
"html-button-response-clever","121","1149886","0.0-13.0-0.1","7645","Te bizony sokat spihemlesz. Én is sokat...","0","spihemlek","[""spihemlek"",""spihemlem""]","","posttest trial","4",""
"html-button-response-clever","122","1155870","0.0-13.0-0.2","5478","Te bizony sokat spülűdzöl. Én is sokat...","1","spülűdzöm","[""spülűdzök"",""spülűdzöm""]","","posttest trial","4",""
"html-button-response-clever","123","1159599","0.0-13.0-0.3","3210","Te bizony sokat brivegzel. Én is sokat...","1","brivegzem","[""brivegzek"",""brivegzem""]","","posttest trial","4",""
"html-button-response-clever","124","1170334","0.0-13.0-0.4","10216","Te bizony sokat filágzol. Én is sokat...","1","filágzok","[""filágzom"",""filágzok""]","","posttest trial","4",""
"html-button-response-clever","125","1174974","0.0-13.0-0.5","4119","Te bizony sokat bihánylasz. Én is sokat...","0","bihánylom","[""bihánylom"",""bihánylok""]","","posttest trial","4",""
"html-button-response-clever","126","1183542","0.0-13.0-0.6","8055","Te bizony sokat trádlasz. Én is sokat...","1","trádlom","[""trádlok"",""trádlom""]","","posttest trial","4",""
"html-button-response-clever","127","1188734","0.0-13.0-0.7","4680","Te bizony sokat lörűdzöl. Én is sokat...","1","lörűdzöm","[""lörűdzök"",""lörűdzöm""]","","posttest trial","4",""
"html-button-response-clever","128","1200686","0.0-13.0-0.8","11445","Te bizony sokat gyibeslesz. Én is sokat...","0","gyibeslem","[""gyibeslem"",""gyibeslek""]","","posttest trial","4",""
"html-button-response-clever","129","1207191","0.0-13.0-0.9","5989","Te bizony sokat flitlasz. Én is sokat...","0","flitlok","[""flitlok"",""flitlom""]","","posttest trial","4",""
"html-button-response-clever","130","1218886","0.0-13.0-0.10","11185","Te bizony sokat flehékszel. Én is sokat...","1","flehékszem","[""flehékszek"",""flehékszem""]","","posttest trial","4",""
"html-button-response-clever","131","1235734","0.0-13.0-0.11","16342","Te bizony sokat vülődzöl. Én is sokat...","0","vülődzök","[""vülődzök"",""vülődzöm""]","","posttest trial","4",""
"html-button-response-clever","132","1239647","0.0-13.0-0.12","3406","Te bizony sokat brubzol. Én is sokat...","1","brubzom","[""brubzok"",""brubzom""]","","posttest trial","4",""
"html-button-response-clever","133","1245031","0.0-13.0-0.13","4867","Te bizony sokat pítszol. Én is sokat...","0","pítszok","[""pítszok"",""pítszom""]","","posttest trial","4",""
"html-button-response-clever","134","1249919","0.0-13.0-0.14","4370","Te bizony sokat sztrijzol. Én is sokat...","0","sztrijzok","[""sztrijzok"",""sztrijzom""]","","posttest trial","4",""
"html-button-response-clever","135","1254991","0.0-13.0-0.15","4565","Te bizony sokat narádzol. Én is sokat...","1","narádzok","[""narádzom"",""narádzok""]","","posttest trial","4",""
"html-button-response-clever","136","1260823","0.0-13.0-0.16","5323","Te bizony sokat vanylasz. Én is sokat...","1","vanylok","[""vanylom"",""vanylok""]","","posttest trial","4",""
"html-button-response-clever","137","1264871","0.0-13.0-0.17","3546","Te bizony sokat szibánylasz. Én is sokat...","1","szibánylok","[""szibánylom"",""szibánylok""]","","posttest trial","4",""
"html-button-response-clever","138","1268807","0.0-13.0-0.18","3431","Te bizony sokat treglesz. Én is sokat...","0","treglek","[""treglek"",""treglem""]","","posttest trial","4",""
"html-button-response-clever","139","1271879","0.0-13.0-0.19","2557","Te bizony sokat bűtszöl. Én is sokat...","0","bűtszöm","[""bűtszöm"",""bűtszök""]","","posttest trial","4",""
"html-button-response-clever","140","1275415","0.0-13.0-0.20","3027","Te bizony sokat spihegzel. Én is sokat...","1","spihegzem","[""spihegzek"",""spihegzem""]","","posttest trial","4",""
"html-button-response-clever","141","1278719","0.0-13.0-0.21","2792","Te bizony sokat spubonylasz. Én is sokat...","1","spubonylom","[""spubonylok"",""spubonylom""]","","posttest trial","4",""
"html-button-response-clever","142","1283720","0.0-13.0-0.22","4497","Te bizony sokat frodlasz. Én is sokat...","1","frodlok","[""frodlom"",""frodlok""]","","posttest trial","4",""
"html-button-response-clever","143","1288535","0.0-13.0-0.23","4298","Te bizony sokat rájzol. Én is sokat...","1","rájzok","[""rájzom"",""rájzok""]","","posttest trial","4",""
"html-button-response-clever","144","1295823","0.0-13.0-0.24","6784","Te bizony sokat bivégszel. Én is sokat...","0","bivégszem","[""bivégszem"",""bivégszek""]","","posttest trial","4",""
"html-button-response-clever","145","1302471","0.0-13.0-0.25","6144","Te bizony sokat sztrűkszöl. Én is sokat...","1","sztrűkszök","[""sztrűkszöm"",""sztrűkszök""]","","posttest trial","4",""
"html-button-response-clever","146","1309999","0.0-13.0-0.26","7023","Te bizony sokat plűbzöl. Én is sokat...","1","plűbzök","[""plűbzöm"",""plűbzök""]","","posttest trial","4",""
"html-button-response-clever","147","1315624","0.0-13.0-0.27","5120","Te bizony sokat nűröklesz. Én is sokat...","0","nűröklöm","[""nűröklöm"",""nűröklök""]","","posttest trial","4",""
"html-button-response-clever","148","1320463","0.0-13.0-0.28","4336","Te bizony sokat prínylasz. Én is sokat...","0","prínylok","[""prínylok"",""prínylom""]","","posttest trial","4",""
"html-button-response-clever","149","1324088","0.0-13.0-0.29","3106","Te bizony sokat pribemlesz. Én is sokat...","0","pribemlek","[""pribemlek"",""pribemlem""]","","posttest trial","4",""
"html-button-response-clever","150","1328807","0.0-13.0-0.30","4213","Te bizony sokat klaráglasz. Én is sokat...","0","klaráglok","[""klaráglok"",""klaráglom""]","","posttest trial","4",""
"html-button-response-clever","151","1334696","0.0-13.0-0.31","5371","Te bizony sokat brobódzol. Én is sokat...","1","brobódzok","[""brobódzom"",""brobódzok""]","","posttest trial","4",""
"html-button-response-clever","152","1338208","0.0-13.0-0.32","3002","Te bizony sokat düjzöl. Én is sokat...","0","düjzök","[""düjzök"",""düjzöm""]","","posttest trial","4",""
"html-button-response-clever","153","1341223","0.0-13.0-0.33","2504","Te bizony sokat spüjzöl. Én is sokat...","0","spüjzök","[""spüjzök"",""spüjzöm""]","","posttest trial","4",""
"html-button-response-clever","154","1348008","0.0-13.0-0.34","6269","Te bizony sokat hurjorzol. Én is sokat...","0","hurjorzom","[""hurjorzom"",""hurjorzok""]","","posttest trial","4",""
"html-button-response-clever","155","1353864","0.0-13.0-0.35","5342","Te bizony sokat trehégszel. Én is sokat...","1","trehégszem","[""trehégszek"",""trehégszem""]","","posttest trial","4",""
"html-button-response-clever","156","1357712","0.0-13.0-0.36","3345","Te bizony sokat klétszel. Én is sokat...","0","klétszem","[""klétszem"",""klétszek""]","","posttest trial","4",""
"html-button-response-clever","157","1363208","0.0-13.0-0.37","4992","Te bizony sokat huroslasz. Én is sokat...","0","huroslok","[""huroslok"",""huroslom""]","","posttest trial","4",""
"html-button-response-clever","158","1369792","0.0-13.0-0.38","6081","Te bizony sokat flehénylesz. Én is sokat...","0","flehénylek","[""flehénylek"",""flehénylem""]","","posttest trial","4",""
"html-button-response-clever","159","1374224","0.0-13.0-0.39","3917","Te bizony sokat figlasz. Én is sokat...","0","figlok","[""figlok"",""figlom""]","","posttest trial","4",""
"html-button-response-clever","160","1377088","0.0-13.0-0.40","2361","Te bizony sokat tragzol. Én is sokat...","0","tragzom","[""tragzom"",""tragzok""]","","posttest trial","4",""
"html-button-response-clever","161","1382808","0.0-13.0-0.41","5215","Te bizony sokat spröbzöl. Én is sokat...","1","spröbzök","[""spröbzöm"",""spröbzök""]","","posttest trial","4",""
"html-button-response-clever","162","1387272","0.0-13.0-0.42","3954","Te bizony sokat jonylasz. Én is sokat...","1","jonylok","[""jonylom"",""jonylok""]","","posttest trial","4",""
"html-button-response-clever","163","1390752","0.0-13.0-0.43","2962","Te bizony sokat hűgzöl. Én is sokat...","0","hűgzöm","[""hűgzöm"",""hűgzök""]","","posttest trial","4",""
"html-button-response-clever","164","1394920","0.0-13.0-0.44","3651","Te bizony sokat salárzol. Én is sokat...","1","salárzok","[""salárzom"",""salárzok""]","","posttest trial","4",""
"html-button-response-clever","165","1400672","0.0-13.0-0.45","5246","Te bizony sokat rokszol. Én is sokat...","0","rokszok","[""rokszok"",""rokszom""]","","posttest trial","4",""
"html-button-response-clever","166","1404672","0.0-13.0-0.46","3489","Te bizony sokat plugzol. Én is sokat...","0","plugzom","[""plugzom"",""plugzok""]","","posttest trial","4",""
"html-button-response-clever","167","1408232","0.0-13.0-0.47","3054","Te bizony sokat spáraklasz. Én is sokat...","1","spáraklok","[""spáraklom"",""spáraklok""]","","posttest trial","4",""
"html-button-response-clever","168","1411088","0.0-13.0-0.48","2347","Te bizony sokat sztrozlasz. Én is sokat...","0","sztrozlom","[""sztrozlom"",""sztrozlok""]","","posttest trial","4",""
"html-button-response-clever","169","1415224","0.0-13.0-0.49","3619","Te bizony sokat ibékszel. Én is sokat...","1","ibékszem","[""ibékszek"",""ibékszem""]","","posttest trial","4",""
"html-button-response-clever","170","1417456","0.0-13.0-0.50","1715","Te bizony sokat flátszol. Én is sokat...","1","flátszom","[""flátszok"",""flátszom""]","","posttest trial","4",""
"html-button-response-clever","171","1419920","0.0-13.0-0.51","1952","Te bizony sokat flűmlesz. Én is sokat...","0","flűmlök","[""flűmlök"",""flűmlöm""]","","posttest trial","4",""
"html-button-response-clever","172","1423337","0.0-13.0-0.52","2910","Te bizony sokat klivaslasz. Én is sokat...","1","klivaslok","[""klivaslom"",""klivaslok""]","","posttest trial","4",""
"html-button-response-clever","173","1426248","0.0-13.0-0.53","2394","Te bizony sokat píjlasz. Én is sokat...","0","píjlok","[""píjlok"",""píjlom""]","","posttest trial","4",""
"html-button-response","174","1435217","0.0-14.0","8465","<p> Vége a játéknak. A teljes pontszámod 28/54.</p><p> Szép munka! &#128526;&#128526;&#128526;</p><p>A Befejezés gomb megnyomása után bezárhatod a böngészőablakot.</p>","0","","","","","",""
"html-keyboard-response","175","1440735","0.0-15.0","null","<div class=""message"">
         <p>Egy kis türelmet kérünk, amíg elmentjük az adatokat...</p>
         </div>","null","","","","","",""
