"trial_type","trial_index","time_elapsed","internal_node_id","rt","stimulus","response","response_string","choices","esp_response","trial_kind","list_number","esp_match"
"pavlovia","0","801","0.0-0.0","","","","","","","","",""
"html-button-response","1","23085","0.0-1.0","21780","<p>Kedves Résztvevő! A Budapesti Műszaki és Gazdaságtudományi Egyetem Kognitív Tudományi Tanszékének kutatásában való részvételed kérjük. A kutatásban azt vizsgáljuk, hogy a magyar anyanyelvűek hogyan használnak bizonyos szóalakokat, és hogy milyen képük van arról, hogy mások hogyan használják, hogyan képzik a szavakat. Ez hozzásegít bennünket ahhoz, hogy jobban megértsük, hogyan dolgozza fel és tárolja a nyelvet az emberi agy, és hogyan működnek, hogyan változnak egy adott közösség nyelvi konvenciói.</p><p>A vizsgálat egy rövid számítógépes feladatból fog állni. A kutatásban való részvétel önkéntes, a részvételi szándék bármikor visszavonható. A résztvevők eredményeit név nélkül kezeljük, így nem beazonosíthatók az adatok feldolgozása során. Minden személyes adatot az EU általános adatvédelmi rendeletének (GDPR) megfelelően kezelünk és legfeljebb öt éven belül megsemmisítünk. A vizsgálat jellemzően húsz percet vesz igénybe.</p><p>Kutatásvezető:</p><p>Dr. Rácz Péter, tudományos munkatárs, BME KTT</p><p>e-mail: racz.peter.marton@ttk.bme.hu</p>","0","","","","","",""
"html-button-response","2","70260","0.0-2.0","46663","<p>A kísérletben szavakat fogsz látni. Ezek között lesznek olyanok, amelyeket ismersz, de előfordulhatnak olyanok is, amelyeket nem ismersz, sőt, vannak köztük kitalált szavak is. Minden szónál látni fogsz toldalékolt alakokat. A te feladatod az lesz, hogy minden szóhoz kiválaszd azt a toldalékolt alakot, amely a te számodra ismerősebben, természetesebben hangzik. Rossz válaszok nincsenek, mert van olyan, hogy különböző embereknek más és más szó tűnik jobb választásnak. A választ úgy tudod majd kiválasztani, ha rákattintasz.</p><p>Ebben a szóválasztós játékban egy másik játékossal együtt veszel majd részt. A másik játékos is minden esetben azok közül a lehetőségek közül válogathat, mint te. Kettőtök feladata az, hogy ugyanazt a lehetőséget válasszátok minden esetben. Ahhoz, hogy ez sikerüljön, neked figyelned kell arra, hogy a másik játékos milyen válaszokat ad, és ennek alapján meg kell tippelned, hogyan választ legközelebb. Ha eltalálod, akkor pontot kapsz.</p>","0","","","","","",""
"html-button-response","3","96047","0.0-3.0","25280","<p>Kérjük, olvasd el az alábbi nyilatkozatot, és amennyiben egyetértesz vele, nyomj a Beleegyezés gombra!</p><p>Kijelentem, hogy magyar anyanyelvű személyként önként veszek részt a BME KTT kísérletében. A kutatás céljával és folyamatával kapcsolatban elegendő tájékoztatást kaptam, lehetőségem volt kérdések feltételére, és esetleges kérdéseimre megfelelő válaszokat kaptam. A tájékoztatás alapján elegendő mennyiségű információ áll a rendelkezésemre, hogy eldönthessem, részt kívánok-e venni a kutatásban.</p><p>Tisztában vagyok vele, hogy részvételi szándékomat és adataimat bármikor, indoklás nélkül visszavonhatom.</p><p>Értem és tudomásul veszem, hogy a kutatás tudományos célokat szolgál, és az általam szolgáltatott adatokat a BME kizárólag kutatási célból használja fel. Tudomásul veszem, hogy eredményeimet a többi résztvevő eredményeivel együtt kezelik, így egyéni teljesítményemről visszajelzést, szakvéleményt nem kapok.</p><p>Megértettem, hogy adataim kezelését illetően a BME az EU általános adatvédelmi rendelete (GDPR), a hatályos adatvédelmi törvény és a nemzetközi kutatás-etikai alapelvek szerint jár el. Eredményeim anonim módon kerülnek feldolgozásra, és a kutatás résztvevői az azonosításomra alkalmas adataimat harmadik félnek nem szolgáltatják ki. Engedélyezem a BME számára a jelen kutatásban felvett adataim feldolgozását és tárolását, beleértve azok későbbi kutatásokhoz való felhasználását is. Személyes adataim kezelésével kapcsolatban tájékoztatást kérhetek a kutatás résztvevőitől, az adatkezelés ellen tiltakozhatok, kérhetem személyes adataim helyesbítését, törlését vagy zárolását, valamint jogorvoslatért a Nemzeti Adatvédelmi és Információszabadság Hatósághoz fordulhatok.</p><p>Kijelentem, hogy a kutatásban való részvételem körülményeiről részletes tájékoztatást kaptam, és a feltételeket elfogadom.</p>","0","","","","","",""
"survey-text","4","119484","0.0-4.0","22920","","{""Q0"":""W2E2AE"",""Q1"":""férfi"",""Q2"":""2003"",""Q3"":""12,5""}","","","","","",""
"html-button-response","5","144107","0.0-5.0","24118","<p>Ebben a játékban szavakat kell toldalékolni.</p> <p>Minden körben mutatunk majd egy példamondatot, amiben lesz egy szó.</p> <p>Alatta jön egy második mondat, ezt a mondatot neked kell majd befejezni, ugyanezzel a szóval.</p> <p>Nem biztos, hogy a szó eleve ismerős lesz számodra!</p> <p>Minden mondathoz adunk két lehetőséget, ezeket balra és jobbra látod majd.</p> <p>A játék kb. negyedóráig-húsz percig tart.</p>","0","","","","","",""
"html-button-response","6","171032","0.0-6.0","26416","<p>Nézzünk egy példát!</p> <p>A példamondat: ""János imád fláramolni, ezért sokat fláramlik. Mi ritkán...""</p><p>Neked ezt a mondatot kell befejezned: ""Ti ritkán...""</p><p>A lehetőségek pedig ezek:</p>","0","","","","","",""
"html-button-response","7","176420","0.0-7.0","4880","<p>Nagyon jó.</p><p>Ezt a játékot nem egyedül fogod játszani, hanem egy másik játékossal.</p><p>Mielőtt továbblépünk, összekapcsolunk titeket egymással.</p><p>Ez igénybe vehet néhány másodpercet, amihez szíves türelmed kérjük.</p>","0","","","","","",""
"html-button-response","8","182152","0.0-8.0","null","<p>Csatlakozás a másik játékoshoz...</p>","null","","","","","",""
"html-button-response","9","184654","0.0-9.0","null","<p> Sikeres kapcsolódás!</p>","null","","","","","",""
"html-button-response","10","195177","0.0-10.0","null","<p>A következőkben ketten játsszátok a szóválasztós játékot.</p><p>A feladatotok az lesz, hogy minden körben <b>ugyanazt</b> a szót válasszátok.</p><p>Minden ilyen egyező válaszért pontot kaptok.</p><p>Próbáld meg kitalálni, mit választ a másik játékos!</p><p>Bármikor választhatsz, a körnek akkor van vége, ha mindketten döntöttetek.</p><p>Sok sikert!</p>","null","","","","","",""
"html-button-response-esp","11","206704","0.0-11.0-0.0","11022","János imád sűjözni, ezért sokat sűjlik. Mi ritkán...","0","sűjlünk","[""sűjlünk"",""sűjözünk""]","sűjlünk","esp trial","3","true"
"html-button-response","12","210224","0.0-11.0-1.0","null","<p>A másik játékos ezt választotta: <b>sűjlünk</b>.</p><p>&#x2705;</p><p>A te válaszod és a másik játékos válasza <b>megegyeznek</b>.</p>","null","","","","feedback trial","",""
"html-button-response-esp","13","219770","0.0-11.0-0.1","7855","János imád bresezni, ezért sokat breslik. Ők ritkán...","0","breslenek","[""breslenek"",""breseznek""]","breseznek","esp trial","3","false"
"html-button-response","14","223283","0.0-11.0-1.1","null","<p>A másik játékos ezt választotta: <b>breseznek</b>.</p><p>&#10060;</p><p>A válaszaitok <b>nem</b> egyeznek meg.</p>","null","","","","feedback trial","",""
"html-button-response-esp","15","232826","0.0-11.0-0.2","5531","János imád flugonyozni, ezért sokat flugonylik. Ők ritkán...","1","flugonyoznak","[""flugonylanak"",""flugonyoznak""]","flugonyoznak","esp trial","3","true"
"html-button-response","16","236349","0.0-11.0-1.2","null","<p>A másik játékos ezt választotta: <b>flugonyoznak</b>.</p><p>&#x2705;</p><p>A te válaszod és a másik játékos válasza <b>megegyeznek</b>.</p>","null","","","","feedback trial","",""
"html-button-response-esp","17","245910","0.0-11.0-0.3","6318","János imád klűmözni, ezért sokat klűmlik. Ti ritkán...","0","klűmöztök","[""klűmöztök"",""klűmlötök""]","klűmöztök","esp trial","3","true"
"html-button-response","18","249422","0.0-11.0-1.3","null","<p>A másik játékos ezt választotta: <b>klűmöztök</b>.</p><p>&#x2705;</p><p>A te válaszod és a másik játékos válasza <b>megegyeznek</b>.</p>","null","","","","feedback trial","",""
"html-button-response-esp","19","263279","0.0-11.0-0.4","13351","János imád nivározni, ezért sokat nivárzik. Ti ritkán...","1","nivárzotok","[""nivároztok"",""nivárzotok""]","nivároztok","esp trial","3","false"
"html-button-response","20","266793","0.0-11.0-1.4","null","<p>A másik játékos ezt választotta: <b>nivároztok</b>.</p><p>&#10060;</p><p>A válaszaitok <b>nem</b> egyeznek meg.</p>","null","","","","feedback trial","",""
"html-button-response-esp","21","276334","0.0-11.0-0.5","4428","János imád pibegezni, ezért sokat pibegzik. Ők ritkán...","0","pibegeznek","[""pibegeznek"",""pibegzenek""]","pibegeznek","esp trial","3","true"
"html-button-response","22","279855","0.0-11.0-1.5","null","<p>A másik játékos ezt választotta: <b>pibegeznek</b>.</p><p>&#x2705;</p><p>A te válaszod és a másik játékos válasza <b>megegyeznek</b>.</p>","null","","","","feedback trial","",""
"html-button-response-esp","23","289403","0.0-11.0-0.6","5168","János imád dralágozni, ezért sokat dralágzik. Mi ritkán...","0","dralágozunk","[""dralágozunk"",""dralágzunk""]","dralágzunk","esp trial","3","false"
"html-button-response","24","292924","0.0-11.0-1.6","null","<p>A másik játékos ezt választotta: <b>dralágzunk</b>.</p><p>&#10060;</p><p>A válaszaitok <b>nem</b> egyeznek meg.</p>","null","","","","feedback trial","",""
"html-button-response-esp","25","302461","0.0-11.0-0.7","7217","János imád dibágozni, ezért sokat dibáglik. Ti ritkán...","0","dibágoztok","[""dibágoztok"",""dibáglotok""]","dibágoztok","esp trial","3","true"
"html-button-response","26","305972","0.0-11.0-1.7","null","<p>A másik játékos ezt választotta: <b>dibágoztok</b>.</p><p>&#x2705;</p><p>A te válaszod és a másik játékos válasza <b>megegyeznek</b>.</p>","null","","","","feedback trial","",""
"html-button-response-esp","27","315525","0.0-11.0-0.8","7168","János imád trilekedni, ezért sokat trilekszik. Ti ritkán...","1","trilekedtek","[""trilekszetek"",""trilekedtek""]","trilekedtek","esp trial","3","true"
"html-button-response","28","319050","0.0-11.0-1.8","null","<p>A másik játékos ezt választotta: <b>trilekedtek</b>.</p><p>&#x2705;</p><p>A te válaszod és a másik játékos válasza <b>megegyeznek</b>.</p>","null","","","","feedback trial","",""
"html-button-response-esp","29","328596","0.0-11.0-0.9","8146","János imád bügözni, ezért sokat bügzik. Ők ritkán...","1","bügzenek","[""bügöznek"",""bügzenek""]","bügzenek","esp trial","3","true"
"html-button-response","30","332102","0.0-11.0-1.9","null","<p>A másik játékos ezt választotta: <b>bügzenek</b>.</p><p>&#x2705;</p><p>A te válaszod és a másik játékos válasza <b>megegyeznek</b>.</p>","null","","","","feedback trial","",""
"html-button-response-esp","31","343659","0.0-11.0-0.10","11047","János imád hiragozni, ezért sokat hiragzik. Ők ritkán...","1","hiragoznak","[""hiragzanak"",""hiragoznak""]","hiragoznak","esp trial","3","true"
"html-button-response","32","347173","0.0-11.0-1.10","null","<p>A másik játékos ezt választotta: <b>hiragoznak</b>.</p><p>&#x2705;</p><p>A te válaszod és a másik játékos válasza <b>megegyeznek</b>.</p>","null","","","","feedback trial","",""
"html-button-response-esp","33","356716","0.0-11.0-0.11","5496","János imád vilesezni, ezért sokat vileslik. Mi ritkán...","1","vileslünk","[""vilesezünk"",""vileslünk""]","vilesezünk","esp trial","3","false"
"html-button-response","34","360240","0.0-11.0-1.11","null","<p>A másik játékos ezt választotta: <b>vilesezünk</b>.</p><p>&#10060;</p><p>A válaszaitok <b>nem</b> egyeznek meg.</p>","null","","","","feedback trial","",""
"html-button-response-esp","35","369784","0.0-11.0-0.12","5365","János imád nyülöközni, ezért sokat nyülöklik. Ők ritkán...","1","nyülöklenek","[""nyülököznek"",""nyülöklenek""]","nyülököznek","esp trial","3","false"
"html-button-response","36","373310","0.0-11.0-1.12","null","<p>A másik játékos ezt választotta: <b>nyülököznek</b>.</p><p>&#10060;</p><p>A válaszaitok <b>nem</b> egyeznek meg.</p>","null","","","","feedback trial","",""
"html-button-response-esp","37","382864","0.0-11.0-0.13","7863","János imád sprebezni, ezért sokat sprebzik. Ők ritkán...","0","sprebzenek","[""sprebzenek"",""sprebeznek""]","sprebeznek","esp trial","3","false"
"html-button-response","38","386384","0.0-11.0-1.13","null","<p>A másik játékos ezt választotta: <b>sprebeznek</b>.</p><p>&#10060;</p><p>A válaszaitok <b>nem</b> egyeznek meg.</p>","null","","","","feedback trial","",""
"html-button-response-esp","39","395934","0.0-11.0-0.14","4395","János imád flátozni, ezért sokat flátlik. Ti ritkán...","1","flátlotok","[""flátoztok"",""flátlotok""]","flátoztok","esp trial","3","false"
"html-button-response","40","399443","0.0-11.0-1.14","null","<p>A másik játékos ezt választotta: <b>flátoztok</b>.</p><p>&#10060;</p><p>A válaszaitok <b>nem</b> egyeznek meg.</p>","null","","","","feedback trial","",""
"html-button-response-esp","41","408998","0.0-11.0-0.15","5429","János imád prugorozni, ezért sokat prugorzik. Ti ritkán...","0","prugoroztok","[""prugoroztok"",""prugorzotok""]","prugoroztok","esp trial","3","true"
"html-button-response","42","412515","0.0-11.0-1.15","null","<p>A másik játékos ezt választotta: <b>prugoroztok</b>.</p><p>&#x2705;</p><p>A te válaszod és a másik játékos válasza <b>megegyeznek</b>.</p>","null","","","","feedback trial","",""
"html-button-response-esp","43","422071","0.0-11.0-0.16","4218","János imád játozni, ezért sokat játlik. Mi ritkán...","1","játlunk","[""játozunk"",""játlunk""]","játlunk","esp trial","3","true"
"html-button-response","44","425588","0.0-11.0-1.16","null","<p>A másik játékos ezt választotta: <b>játlunk</b>.</p><p>&#x2705;</p><p>A te válaszod és a másik játékos válasza <b>megegyeznek</b>.</p>","null","","","","feedback trial","",""
"html-button-response-esp","45","435145","0.0-11.0-0.17","4217","János imád nyádozni, ezért sokat nyádlik. Ők ritkán...","0","nyádlanak","[""nyádlanak"",""nyádoznak""]","nyádlanak","esp trial","3","true"
"html-button-response","46","438658","0.0-11.0-1.17","null","<p>A másik játékos ezt választotta: <b>nyádlanak</b>.</p><p>&#x2705;</p><p>A te válaszod és a másik játékos válasza <b>megegyeznek</b>.</p>","null","","","","feedback trial","",""
"html-button-response-esp","47","448219","0.0-11.0-0.18","4615","János imád frinyozni, ezért sokat frinylik. Mi ritkán...","0","frinylunk","[""frinylunk"",""frinyozunk""]","frinyozunk","esp trial","3","false"
"html-button-response","48","451732","0.0-11.0-1.18","null","<p>A másik játékos ezt választotta: <b>frinyozunk</b>.</p><p>&#10060;</p><p>A válaszaitok <b>nem</b> egyeznek meg.</p>","null","","","","feedback trial","",""
"html-button-response-esp","49","461287","0.0-11.0-0.19","6025","János imád klihasozni, ezért sokat klihaslik. Ti ritkán...","0","klihasoztok","[""klihasoztok"",""klihaslotok""]","klihasoztok","esp trial","3","true"
"html-button-response","50","464797","0.0-11.0-1.19","null","<p>A másik játékos ezt választotta: <b>klihasoztok</b>.</p><p>&#x2705;</p><p>A te válaszod és a másik játékos válasza <b>megegyeznek</b>.</p>","null","","","","feedback trial","",""
"html-button-response-esp","51","474342","0.0-11.0-0.20","4737","János imád trálakozni, ezért sokat trálaklik. Ők ritkán...","0","trálakoznak","[""trálakoznak"",""trálaklanak""]","trálakoznak","esp trial","3","true"
"html-button-response","52","477870","0.0-11.0-1.20","null","<p>A másik játékos ezt választotta: <b>trálakoznak</b>.</p><p>&#x2705;</p><p>A te válaszod és a másik játékos válasza <b>megegyeznek</b>.</p>","null","","","","feedback trial","",""
"html-button-response-esp","53","487407","0.0-11.0-0.21","6850","János imád vehékedni, ezért sokat vehékszik. Mi ritkán...","0","vehékszünk","[""vehékszünk"",""vehékedünk""]","vehékszünk","esp trial","3","true"
"html-button-response","54","490927","0.0-11.0-1.21","null","<p>A másik játékos ezt választotta: <b>vehékszünk</b>.</p><p>&#x2705;</p><p>A te válaszod és a másik játékos válasza <b>megegyeznek</b>.</p>","null","","","","feedback trial","",""
"html-button-response-esp","55","500467","0.0-11.0-0.22","9031","János imád prihegedni, ezért sokat prihegszik. Ők ritkán...","0","prihegszenek","[""prihegszenek"",""prihegednek""]","prihegednek","esp trial","3","false"
"html-button-response","56","503980","0.0-11.0-1.22","null","<p>A másik játékos ezt választotta: <b>prihegednek</b>.</p><p>&#10060;</p><p>A válaszaitok <b>nem</b> egyeznek meg.</p>","null","","","","feedback trial","",""
"html-button-response-esp","57","513523","0.0-11.0-0.23","4989","János imád bribékedni, ezért sokat bribékszik. Ti ritkán...","1","bribékedtek","[""bribékszetek"",""bribékedtek""]","bribékedtek","esp trial","3","true"
"html-button-response","58","517055","0.0-11.0-1.23","null","<p>A másik játékos ezt választotta: <b>bribékedtek</b>.</p><p>&#x2705;</p><p>A te válaszod és a másik játékos válasza <b>megegyeznek</b>.</p>","null","","","","feedback trial","",""
"html-button-response-esp","59","526600","0.0-11.0-0.24","5543","János imád spuborozni, ezért sokat spuborzik. Ők ritkán...","0","spuboroznak","[""spuboroznak"",""spuborzanak""]","spuboroznak","esp trial","3","true"
"html-button-response","60","530122","0.0-11.0-1.24","null","<p>A másik játékos ezt választotta: <b>spuboroznak</b>.</p><p>&#x2705;</p><p>A te válaszod és a másik játékos válasza <b>megegyeznek</b>.</p>","null","","","","feedback trial","",""
"html-button-response-esp","61","539663","0.0-11.0-0.25","5728","János imád nurokozni, ezért sokat nuroklik. Mi ritkán...","0","nuroklunk","[""nuroklunk"",""nurokozunk""]","nuroklunk","esp trial","3","true"
"html-button-response","62","543185","0.0-11.0-1.25","null","<p>A másik játékos ezt választotta: <b>nuroklunk</b>.</p><p>&#x2705;</p><p>A te válaszod és a másik játékos válasza <b>megegyeznek</b>.</p>","null","","","","feedback trial","",""
"html-button-response-esp","63","552726","0.0-11.0-0.26","4923","János imád döjözni, ezért sokat döjlik. Ők ritkán...","1","döjlenek","[""döjöznek"",""döjlenek""]","döjlenek","esp trial","3","true"
"html-button-response","64","556235","0.0-11.0-1.26","null","<p>A másik játékos ezt választotta: <b>döjlenek</b>.</p><p>&#x2705;</p><p>A te válaszod és a másik játékos válasza <b>megegyeznek</b>.</p>","null","","","","feedback trial","",""
"html-button-response-esp","65","565785","0.0-11.0-0.27","6196","János imád bötőrözni, ezért sokat bötőrzik. Mi ritkán...","1","bötőrzünk","[""bötőrözünk"",""bötőrzünk""]","bötőrözünk","esp trial","3","false"
"html-button-response","66","569309","0.0-11.0-1.27","null","<p>A másik játékos ezt választotta: <b>bötőrözünk</b>.</p><p>&#10060;</p><p>A válaszaitok <b>nem</b> egyeznek meg.</p>","null","","","","feedback trial","",""
"html-button-response-esp","67","578864","0.0-11.0-0.28","3917","János imád hubonyozni, ezért sokat hubonylik. Ti ritkán...","1","hubonyoztok","[""hubonylotok"",""hubonyoztok""]","hubonyoztok","esp trial","3","true"
"html-button-response","68","582390","0.0-11.0-1.28","null","<p>A másik játékos ezt választotta: <b>hubonyoztok</b>.</p><p>&#x2705;</p><p>A te válaszod és a másik játékos válasza <b>megegyeznek</b>.</p>","null","","","","feedback trial","",""
"html-button-response-esp","69","594841","0.0-11.0-0.29","11943","János imád brürözni, ezért sokat brürzik. Ők ritkán...","1","brürzenek","[""brüröznek"",""brürzenek""]","brüröznek","esp trial","3","false"
"html-button-response","70","598360","0.0-11.0-1.29","null","<p>A másik játékos ezt választotta: <b>brüröznek</b>.</p><p>&#10060;</p><p>A válaszaitok <b>nem</b> egyeznek meg.</p>","null","","","","feedback trial","",""
"html-button-response-esp","71","607912","0.0-11.0-0.30","6242","János imád vihapodni, ezért sokat vihapszik. Mi ritkán...","0","vihapszunk","[""vihapszunk"",""vihapodunk""]","vihapszunk","esp trial","3","true"
"html-button-response","72","611431","0.0-11.0-1.30","null","<p>A másik játékos ezt választotta: <b>vihapszunk</b>.</p><p>&#x2705;</p><p>A te válaszod és a másik játékos válasza <b>megegyeznek</b>.</p>","null","","","","feedback trial","",""
"html-button-response-esp","73","620979","0.0-11.0-0.31","6088","János imád frorozni, ezért sokat frorlik. Ők ritkán...","1","frorlanak","[""froroznak"",""frorlanak""]","frorlanak","esp trial","3","true"
"html-button-response","74","624495","0.0-11.0-1.31","null","<p>A másik játékos ezt választotta: <b>frorlanak</b>.</p><p>&#x2705;</p><p>A te válaszod és a másik játékos válasza <b>megegyeznek</b>.</p>","null","","","","feedback trial","",""
"html-button-response-esp","75","634031","0.0-11.0-0.32","4402","János imád frirozni, ezért sokat frirzik. Mi ritkán...","1","frirzunk","[""frirozunk"",""frirzunk""]","frirozunk","esp trial","3","false"
"html-button-response","76","637539","0.0-11.0-1.32","null","<p>A másik játékos ezt választotta: <b>frirozunk</b>.</p><p>&#10060;</p><p>A válaszaitok <b>nem</b> egyeznek meg.</p>","null","","","","feedback trial","",""
"html-button-response-esp","77","647100","0.0-11.0-0.33","8433","János imád tögözni, ezért sokat töglik. Ők ritkán...","1","töglenek","[""tögöznek"",""töglenek""]","töglenek","esp trial","3","true"
"html-button-response","78","650627","0.0-11.0-1.33","null","<p>A másik játékos ezt választotta: <b>töglenek</b>.</p><p>&#x2705;</p><p>A te válaszod és a másik játékos válasza <b>megegyeznek</b>.</p>","null","","","","feedback trial","",""
"html-button-response-esp","79","660171","0.0-11.0-0.34","8408","János imád klégezni, ezért sokat kléglik. Mi ritkán...","1","kléglünk","[""klégezünk"",""kléglünk""]","kléglünk","esp trial","3","true"
"html-button-response","80","663693","0.0-11.0-1.34","null","<p>A másik játékos ezt választotta: <b>kléglünk</b>.</p><p>&#x2705;</p><p>A te válaszod és a másik játékos válasza <b>megegyeznek</b>.</p>","null","","","","feedback trial","",""
"html-button-response-esp","81","673234","0.0-11.0-0.35","8430","János imád géregezni, ezért sokat géreglik. Ti ritkán...","1","géregletek","[""géregeztek"",""géregletek""]","géregeztek","esp trial","3","false"
"html-button-response","82","676756","0.0-11.0-1.35","null","<p>A másik játékos ezt választotta: <b>géregeztek</b>.</p><p>&#10060;</p><p>A válaszaitok <b>nem</b> egyeznek meg.</p>","null","","","","feedback trial","",""
"html-button-response-esp","83","686306","0.0-11.0-0.36","4767","János imád sztredezni, ezért sokat sztredlik. Ti ritkán...","0","sztredeztek","[""sztredeztek"",""sztredletek""]","sztredeztek","esp trial","3","true"
"html-button-response","84","689821","0.0-11.0-1.36","null","<p>A másik játékos ezt választotta: <b>sztredeztek</b>.</p><p>&#x2705;</p><p>A te válaszod és a másik játékos válasza <b>megegyeznek</b>.</p>","null","","","","feedback trial","",""
"html-button-response-esp","85","699367","0.0-11.0-0.37","3791","János imád nyizozni, ezért sokat nyizlik. Mi ritkán...","0","nyizlunk","[""nyizlunk"",""nyizozunk""]","nyizlunk","esp trial","3","true"
"html-button-response","86","702886","0.0-11.0-1.37","null","<p>A másik játékos ezt választotta: <b>nyizlunk</b>.</p><p>&#x2705;</p><p>A te válaszod és a másik játékos válasza <b>megegyeznek</b>.</p>","null","","","","feedback trial","",""
"html-button-response-esp","87","712432","0.0-11.0-0.38","3988","János imád bribasozni, ezért sokat bribaslik. Ők ritkán...","0","bribasoznak","[""bribasoznak"",""bribaslanak""]","bribasoznak","esp trial","3","true"
"html-button-response","88","715962","0.0-11.0-1.38","null","<p>A másik játékos ezt választotta: <b>bribasoznak</b>.</p><p>&#x2705;</p><p>A te válaszod és a másik játékos válasza <b>megegyeznek</b>.</p>","null","","","","feedback trial","",""
"html-button-response-esp","89","725506","0.0-11.0-0.39","5188","János imád ribegedni, ezért sokat ribegszik. Ti ritkán...","0","ribegszetek","[""ribegszetek"",""ribegedtek""]","ribegedtek","esp trial","3","false"
"html-button-response","90","729032","0.0-11.0-1.39","null","<p>A másik játékos ezt választotta: <b>ribegedtek</b>.</p><p>&#10060;</p><p>A válaszaitok <b>nem</b> egyeznek meg.</p>","null","","","","feedback trial","",""
"html-button-response-esp","91","738585","0.0-11.0-0.40","4933","János imád trálodni, ezért sokat trálszik. Mi ritkán...","0","trálszunk","[""trálszunk"",""trálodunk""]","trálszunk","esp trial","3","true"
"html-button-response","92","742113","0.0-11.0-1.40","null","<p>A másik játékos ezt választotta: <b>trálszunk</b>.</p><p>&#x2705;</p><p>A te válaszod és a másik játékos válasza <b>megegyeznek</b>.</p>","null","","","","feedback trial","",""
"html-button-response-esp","93","751659","0.0-11.0-0.41","8736","János imád gihamozni, ezért sokat gihamlik. Ők ritkán...","0","gihamlanak","[""gihamlanak"",""gihamoznak""]","gihamoznak","esp trial","3","false"
"html-button-response","94","755178","0.0-11.0-1.41","null","<p>A másik játékos ezt választotta: <b>gihamoznak</b>.</p><p>&#10060;</p><p>A válaszaitok <b>nem</b> egyeznek meg.</p>","null","","","","feedback trial","",""
"html-button-response-esp","95","764732","0.0-11.0-0.42","3294","János imád bejezni, ezért sokat bejzik. Mi ritkán...","1","bejzünk","[""bejezünk"",""bejzünk""]","bejezünk","esp trial","3","false"
"html-button-response","96","768246","0.0-11.0-1.42","null","<p>A másik játékos ezt választotta: <b>bejezünk</b>.</p><p>&#10060;</p><p>A válaszaitok <b>nem</b> egyeznek meg.</p>","null","","","","feedback trial","",""
"html-button-response-esp","97","777795","0.0-11.0-0.43","4802","János imád frélegezni, ezért sokat frélegzik. Mi ritkán...","0","frélegzünk","[""frélegzünk"",""frélegezünk""]","frélegzünk","esp trial","3","true"
"html-button-response","98","781316","0.0-11.0-1.43","null","<p>A másik játékos ezt választotta: <b>frélegzünk</b>.</p><p>&#x2705;</p><p>A te válaszod és a másik játékos válasza <b>megegyeznek</b>.</p>","null","","","","feedback trial","",""
"html-button-response-esp","99","790860","0.0-11.0-0.44","4059","János imád plibozni, ezért sokat plibzik. Ti ritkán...","1","pliboztok","[""plibzotok"",""pliboztok""]","pliboztok","esp trial","3","true"
"html-button-response","100","794377","0.0-11.0-1.44","null","<p>A másik játékos ezt választotta: <b>pliboztok</b>.</p><p>&#x2705;</p><p>A te válaszod és a másik játékos válasza <b>megegyeznek</b>.</p>","null","","","","feedback trial","",""
"html-button-response-esp","101","803927","0.0-11.0-0.45","6264","János imád kláragodni, ezért sokat kláragszik. Ti ritkán...","0","kláragodtok","[""kláragodtok"",""kláragszotok""]","kláragodtok","esp trial","3","true"
"html-button-response","102","807457","0.0-11.0-1.45","null","<p>A másik játékos ezt választotta: <b>kláragodtok</b>.</p><p>&#x2705;</p><p>A te válaszod és a másik játékos válasza <b>megegyeznek</b>.</p>","null","","","","feedback trial","",""
"html-button-response-esp","103","816993","0.0-11.0-0.46","4035","János imád flodozni, ezért sokat flodlik. Ti ritkán...","0","flodoztok","[""flodoztok"",""flodlotok""]","flodoztok","esp trial","3","true"
"html-button-response","104","820531","0.0-11.0-1.46","null","<p>A másik játékos ezt választotta: <b>flodoztok</b>.</p><p>&#x2705;</p><p>A te válaszod és a másik játékos válasza <b>megegyeznek</b>.</p>","null","","","","feedback trial","",""
"html-button-response-esp","105","830065","0.0-11.0-0.47","4241","János imád brűközni, ezért sokat brűklik. Ti ritkán...","1","brűköztök","[""brűklötök"",""brűköztök""]","brűköztök","esp trial","3","true"
"html-button-response","106","833589","0.0-11.0-1.47","null","<p>A másik játékos ezt választotta: <b>brűköztök</b>.</p><p>&#x2705;</p><p>A te válaszod és a másik játékos válasza <b>megegyeznek</b>.</p>","null","","","","feedback trial","",""
"html-button-response-esp","107","843133","0.0-11.0-0.48","5544","János imád nyöbözni, ezért sokat nyöbzik. Ők ritkán...","1","nyöbzenek","[""nyöböznek"",""nyöbzenek""]","nyöböznek","esp trial","3","false"
"html-button-response","108","846648","0.0-11.0-1.48","null","<p>A másik játékos ezt választotta: <b>nyöböznek</b>.</p><p>&#10060;</p><p>A válaszaitok <b>nem</b> egyeznek meg.</p>","null","","","","feedback trial","",""
"html-button-response-esp","109","856191","0.0-11.0-0.49","6564","János imád metégedni, ezért sokat metégszik. Ők ritkán...","0","metégednek","[""metégednek"",""metégszenek""]","metégednek","esp trial","3","true"
"html-button-response","110","859708","0.0-11.0-1.49","null","<p>A másik játékos ezt választotta: <b>metégednek</b>.</p><p>&#x2705;</p><p>A te válaszod és a másik játékos válasza <b>megegyeznek</b>.</p>","null","","","","feedback trial","",""
"html-button-response-esp","111","869243","0.0-11.0-0.50","5446","János imád spivejezni, ezért sokat spivejlik. Ők ritkán...","1","spivejeznek","[""spivejlenek"",""spivejeznek""]","spivejeznek","esp trial","3","true"
"html-button-response","112","872758","0.0-11.0-1.50","null","<p>A másik játékos ezt választotta: <b>spivejeznek</b>.</p><p>&#x2705;</p><p>A te válaszod és a másik játékos válasza <b>megegyeznek</b>.</p>","null","","","","feedback trial","",""
"html-button-response-esp","113","882315","0.0-11.0-0.51","4855","János imád flerékedni, ezért sokat flerékszik. Mi ritkán...","0","flerékszünk","[""flerékszünk"",""flerékedünk""]","flerékedünk","esp trial","3","false"
"html-button-response","114","885830","0.0-11.0-1.51","null","<p>A másik játékos ezt választotta: <b>flerékedünk</b>.</p><p>&#10060;</p><p>A válaszaitok <b>nem</b> egyeznek meg.</p>","null","","","","feedback trial","",""
"html-button-response-esp","115","895369","0.0-11.0-0.52","3173","János imád jurozni, ezért sokat jurlik. Mi ritkán...","0","jurozunk","[""jurozunk"",""jurlunk""]","jurozunk","esp trial","3","true"
"html-button-response","116","898875","0.0-11.0-1.52","null","<p>A másik játékos ezt választotta: <b>jurozunk</b>.</p><p>&#x2705;</p><p>A te válaszod és a másik játékos válasza <b>megegyeznek</b>.</p>","null","","","","feedback trial","",""
"html-button-response-esp","117","908411","0.0-11.0-0.53","3129","János imád trukodni, ezért sokat trukszik. Ti ritkán...","1","trukodtok","[""trukszotok"",""trukodtok""]","trukodtok","esp trial","3","true"
"html-button-response","118","911922","0.0-11.0-1.53","null","<p>A másik játékos ezt választotta: <b>trukodtok</b>.</p><p>&#x2705;</p><p>A te válaszod és a másik játékos válasza <b>megegyeznek</b>.</p>","null","","","","feedback trial","",""
"html-button-response","119","924150","0.0-12.0","11713","<p>A közös játék most véget ért.</p><p>Mielőtt eláruljuk a végső pontszámodat, arra kérlek, játszd a szóválasztós játékot néhány percig egyedül is.</p><p>A feladatod ugyanaz lesz, választani két lehetőség közül.</p><p>Most viszont egyedül kell döntened, hogy te melyiket választanád.</p>","0","","","","","",""
"html-button-response-clever","120","929167","0.0-13.0-0.0","4499","János imád lűközni, ezért sokat lűklik. Ők ritkán...","0","lűklenek","[""lűklenek"",""lűköznek""]","","posttest trial","4",""
"html-button-response-clever","121","934232","0.0-13.0-0.1","4559","János imád fröjözni, ezért sokat fröjzik. Ti ritkán...","0","fröjzötök","[""fröjzötök"",""fröjöztök""]","","posttest trial","4",""
"html-button-response-clever","122","938298","0.0-13.0-0.2","3561","János imád klehényezni, ezért sokat klehénylik. Ti ritkán...","1","klehényletek","[""klehényeztek"",""klehényletek""]","","posttest trial","4",""
"html-button-response-clever","123","942676","0.0-13.0-0.3","3859","János imád sprűrözni, ezért sokat sprűrlik. Ők ritkán...","1","sprűröznek","[""sprűrlenek"",""sprűröznek""]","","posttest trial","4",""
"html-button-response-clever","124","946198","0.0-13.0-0.4","3013","János imád sprudozni, ezért sokat sprudlik. Mi ritkán...","1","sprudozunk","[""sprudlunk"",""sprudozunk""]","","posttest trial","4",""
"html-button-response-clever","125","952237","0.0-13.0-0.5","5523","János imád bratározni, ezért sokat bratárzik. Ők ritkán...","0","bratároznak","[""bratároznak"",""bratárzanak""]","","posttest trial","4",""
"html-button-response-clever","126","958032","0.0-13.0-0.6","5290","János imád flűgözni, ezért sokat flűgzik. Mi ritkán...","0","flűgözünk","[""flűgözünk"",""flűgzünk""]","","posttest trial","4",""
"html-button-response-clever","127","963814","0.0-13.0-0.7","5271","János imád sprozozni, ezért sokat sprozlik. Ők ritkán...","0","sprozlanak","[""sprozlanak"",""sprozoznak""]","","posttest trial","4",""
"html-button-response-clever","128","969704","0.0-13.0-0.8","5387","János imád flemezni, ezért sokat flemlik. Mi ritkán...","1","flemezünk","[""flemlünk"",""flemezünk""]","","posttest trial","4",""
"html-button-response-clever","129","974220","0.0-13.0-0.9","4006","János imád csubozni, ezért sokat csubzik. Mi ritkán...","1","csubzunk","[""csubozunk"",""csubzunk""]","","posttest trial","4",""
"html-button-response-clever","130","979163","0.0-13.0-0.10","4436","János imád brözözni, ezért sokat brözlik. Ti ritkán...","1","brözlötök","[""brözöztök"",""brözlötök""]","","posttest trial","4",""
"html-button-response-clever","131","984437","0.0-13.0-0.11","4757","János imád brülösözni, ezért sokat brülöslik. Mi ritkán...","0","brülöslünk","[""brülöslünk"",""brülösözünk""]","","posttest trial","4",""
"html-button-response-clever","132","989972","0.0-13.0-0.12","5021","János imád drilarozni, ezért sokat drilarzik. Mi ritkán...","0","drilarozunk","[""drilarozunk"",""drilarzunk""]","","posttest trial","4",""
"html-button-response-clever","133","994242","0.0-13.0-0.13","3759","János imád dirozni, ezért sokat dirlik. Ti ritkán...","0","diroztok","[""diroztok"",""dirlotok""]","","posttest trial","4",""
"html-button-response-clever","134","998292","0.0-13.0-0.14","3548","János imád püzözni, ezért sokat püzlik. Ti ritkán...","0","püzlötök","[""püzlötök"",""püzöztök""]","","posttest trial","4",""
"html-button-response-clever","135","1003833","0.0-13.0-0.15","5031","János imád frálasozni, ezért sokat frálaslik. Ők ritkán...","0","frálaslanak","[""frálaslanak"",""frálasoznak""]","","posttest trial","4",""
"html-button-response-clever","136","1009083","0.0-13.0-0.16","4748","János imád brivakozni, ezért sokat brivaklik. Ti ritkán...","0","brivakoztok","[""brivakoztok"",""brivaklotok""]","","posttest trial","4",""
"html-button-response-clever","137","1012913","0.0-13.0-0.17","3314","János imád privékedni, ezért sokat privékszik. Ők ritkán...","1","privékszenek","[""privékednek"",""privékszenek""]","","posttest trial","4",""
"html-button-response-clever","138","1017422","0.0-13.0-0.18","4003","János imád prélemezni, ezért sokat prélemlik. Ők ritkán...","1","prélemlenek","[""prélemeznek"",""prélemlenek""]","","posttest trial","4",""
"html-button-response-clever","139","1020919","0.0-13.0-0.19","2991","János imád molodni, ezért sokat molszik. Ti ritkán...","0","molodtok","[""molodtok"",""molszotok""]","","posttest trial","4",""
"html-button-response-clever","140","1023647","0.0-13.0-0.20","2214","János imád dilakozni, ezért sokat dilaklik. Ti ritkán...","1","dilakoztok","[""dilaklotok"",""dilakoztok""]","","posttest trial","4",""
"html-button-response-clever","141","1031312","0.0-13.0-0.21","7157","János imád prögözni, ezért sokat prögzik. Ti ritkán...","1","prögzötök","[""prögöztök"",""prögzötök""]","","posttest trial","4",""
"html-button-response-clever","142","1037081","0.0-13.0-0.22","5260","János imád flüröközni, ezért sokat flüröklik. Ti ritkán...","1","flürököztök","[""flüröklötök"",""flürököztök""]","","posttest trial","4",""
"html-button-response-clever","143","1042937","0.0-13.0-0.23","5342","János imád pilégedni, ezért sokat pilégszik. Ők ritkán...","1","pilégszenek","[""pilégednek"",""pilégszenek""]","","posttest trial","4",""
"html-button-response-clever","144","1047078","0.0-13.0-0.24","3637","János imád pragányozni, ezért sokat pragánylik. Ti ritkán...","1","pragányoztok","[""pragánylotok"",""pragányoztok""]","","posttest trial","4",""
"html-button-response-clever","145","1051529","0.0-13.0-0.25","3940","János imád mágamozni, ezért sokat mágamlik. Mi ritkán...","0","mágamozunk","[""mágamozunk"",""mágamlunk""]","","posttest trial","4",""
"html-button-response-clever","146","1057877","0.0-13.0-0.26","5842","János imád flöközni, ezért sokat flöklik. Ti ritkán...","1","flöklötök","[""flököztök"",""flöklötök""]","","posttest trial","4",""
"html-button-response-clever","147","1063953","0.0-13.0-0.27","5560","János imád lájozni, ezért sokat lájzik. Ti ritkán...","1","lájoztok","[""lájzotok"",""lájoztok""]","","posttest trial","4",""
"html-button-response-clever","148","1066448","0.0-13.0-0.28","1978","János imád dujozni, ezért sokat dujzik. Ők ritkán...","0","dujzanak","[""dujzanak"",""dujoznak""]","","posttest trial","4",""
"html-button-response-clever","149","1071282","0.0-13.0-0.29","4322","János imád spügözni, ezért sokat spügzik. Mi ritkán...","0","spügözünk","[""spügözünk"",""spügzünk""]","","posttest trial","4",""
"html-button-response-clever","150","1074166","0.0-13.0-0.30","2382","János imád csibagozni, ezért sokat csibagzik. Ti ritkán...","0","csibagoztok","[""csibagoztok"",""csibagzotok""]","","posttest trial","4",""
"html-button-response-clever","151","1087779","0.0-13.0-0.31","13097","János imád trugokozni, ezért sokat trugoklik. Ők ritkán...","1","trugoklanak","[""trugokoznak"",""trugoklanak""]","","posttest trial","4",""
"html-button-response-clever","152","1093082","0.0-13.0-0.32","4793","János imád dárakodni, ezért sokat dárakszik. Mi ritkán...","0","dárakodunk","[""dárakodunk"",""dárakszunk""]","","posttest trial","4",""
"html-button-response-clever","153","1096711","0.0-13.0-0.33","3126","János imád frakozni, ezért sokat fraklik. Mi ritkán...","1","frakozunk","[""fraklunk"",""frakozunk""]","","posttest trial","4",""
"html-button-response-clever","154","1100601","0.0-13.0-0.34","3377","János imád nyivágozni, ezért sokat nyivágzik. Mi ritkán...","1","nyivágzunk","[""nyivágozunk"",""nyivágzunk""]","","posttest trial","4",""
"html-button-response-clever","155","1104963","0.0-13.0-0.35","3843","János imád spibegezni, ezért sokat spibeglik. Mi ritkán...","1","spibegezünk","[""spibeglünk"",""spibegezünk""]","","posttest trial","4",""
"html-button-response-clever","156","1109482","0.0-13.0-0.36","4013","János imád gihejezni, ezért sokat gihejlik. Mi ritkán...","1","gihejezünk","[""gihejlünk"",""gihejezünk""]","","posttest trial","4",""
"html-button-response-clever","157","1113797","0.0-13.0-0.37","3801","János imád drűrözni, ezért sokat drűrzik. Ők ritkán...","1","drűröznek","[""drűrzenek"",""drűröznek""]","","posttest trial","4",""
"html-button-response-clever","158","1118427","0.0-13.0-0.38","4122","János imád virozni, ezért sokat virzik. Ők ritkán...","0","virzanak","[""virzanak"",""viroznak""]","","posttest trial","4",""
"html-button-response-clever","159","1123691","0.0-13.0-0.39","4751","János imád posozni, ezért sokat poslik. Ti ritkán...","0","posoztok","[""posoztok"",""poslotok""]","","posttest trial","4",""
"html-button-response-clever","160","1126398","0.0-13.0-0.40","2198","János imád trugozni, ezért sokat trugzik. Ők ritkán...","0","trugoznak","[""trugoznak"",""trugzanak""]","","posttest trial","4",""
"html-button-response-clever","161","1128828","0.0-13.0-0.41","1923","János imád kűdözni, ezért sokat kűdlik. Ők ritkán...","0","kűdöznek","[""kűdöznek"",""kűdlenek""]","","posttest trial","4",""
"html-button-response-clever","162","1132319","0.0-13.0-0.42","2974","János imád frálapodni, ezért sokat frálapszik. Ti ritkán...","0","frálapodtok","[""frálapodtok"",""frálapszotok""]","","posttest trial","4",""
"html-button-response-clever","163","1136800","0.0-13.0-0.43","3973","János imád dabozni, ezért sokat dabzik. Ti ritkán...","1","dabzotok","[""daboztok"",""dabzotok""]","","posttest trial","4",""
"html-button-response-clever","164","1140028","0.0-13.0-0.44","2718","János imád branyozni, ezért sokat branylik. Ők ritkán...","1","branylanak","[""branyoznak"",""branylanak""]","","posttest trial","4",""
"html-button-response-clever","165","1144799","0.0-13.0-0.45","4262","János imád spirágozni, ezért sokat spiráglik. Ti ritkán...","1","spirágoztok","[""spiráglotok"",""spirágoztok""]","","posttest trial","4",""
"html-button-response-clever","166","1148978","0.0-13.0-0.46","3671","János imád mülőrözni, ezért sokat mülőrzik. Mi ritkán...","0","mülőrözünk","[""mülőrözünk"",""mülőrzünk""]","","posttest trial","4",""
"html-button-response-clever","167","1152872","0.0-13.0-0.47","3377","János imád nyürözni, ezért sokat nyürzik. Ők ritkán...","0","nyürzenek","[""nyürzenek"",""nyüröznek""]","","posttest trial","4",""
"html-button-response-clever","168","1155477","0.0-13.0-0.48","2092","János imád trikozni, ezért sokat triklik. Ti ritkán...","1","trikoztok","[""triklotok"",""trikoztok""]","","posttest trial","4",""
"html-button-response-clever","169","1159727","0.0-13.0-0.49","3724","János imád spiharozni, ezért sokat spiharzik. Ti ritkán...","0","spiharoztok","[""spiharoztok"",""spiharzotok""]","","posttest trial","4",""
"html-button-response-clever","170","1163993","0.0-13.0-0.50","3748","János imád köszözni, ezért sokat köszlik. Ti ritkán...","0","köszlötök","[""köszlötök"",""köszöztök""]","","posttest trial","4",""
"html-button-response-clever","171","1167798","0.0-13.0-0.51","3302","János imád föködni, ezért sokat fökszik. Ők ritkán...","0","föködnek","[""föködnek"",""fökszenek""]","","posttest trial","4",""
"html-button-response-clever","172","1172310","0.0-13.0-0.52","4005","János imád trivakodni, ezért sokat trivakszik. Mi ritkán...","0","trivakszunk","[""trivakszunk"",""trivakodunk""]","","posttest trial","4",""
"html-button-response-clever","173","1176328","0.0-13.0-0.53","3513","János imád gyihegezni, ezért sokat gyihegzik. Ti ritkán...","0","gyihegzetek","[""gyihegzetek"",""gyihegeztek""]","","posttest trial","4",""
"html-button-response","174","1181451","0.0-14.0","4606","<p> Vége a játéknak. A teljes pontszámod 36/54.</p><p> Szép munka! &#128526;&#128526;&#128526;</p><p>A Befejezés gomb megnyomása után bezárhatod a böngészőablakot.</p>","0","","","","","",""
"html-keyboard-response","175","1186986","0.0-15.0","null","<div class=""message"">
         <p>Egy kis türelmet kérünk, amíg elmentjük az adatokat...</p>
         </div>","null","","","","","",""
