"trial_type","trial_index","time_elapsed","internal_node_id","rt","stimulus","response","response_string","choices","esp_response","trial_kind","list_number","esp_match"
"pavlovia","0","841","0.0-0.0","","","","","","","","",""
"html-button-response","1","15962","0.0-1.0","14604","<p>Kedves Résztvevő! A Budapesti Műszaki és Gazdaságtudományi Egyetem Kognitív Tudományi Tanszékének kutatásában való részvételed kérjük. A kutatásban azt vizsgáljuk, hogy a magyar anyanyelvűek hogyan használnak bizonyos szóalakokat, és hogy milyen képük van arról, hogy mások hogyan használják, hogyan képzik a szavakat. Ez hozzásegít bennünket ahhoz, hogy jobban megértsük, hogyan dolgozza fel és tárolja a nyelvet az emberi agy, és hogyan működnek, hogyan változnak egy adott közösség nyelvi konvenciói.</p><p>A vizsgálat egy rövid számítógépes feladatból fog állni. A kutatásban való részvétel önkéntes, a részvételi szándék bármikor visszavonható. A résztvevők eredményeit név nélkül kezeljük, így nem beazonosíthatók az adatok feldolgozása során. Minden személyes adatot az EU általános adatvédelmi rendeletének (GDPR) megfelelően kezelünk és legfeljebb öt éven belül megsemmisítünk. A vizsgálat jellemzően húsz percet vesz igénybe.</p><p>Kutatásvezető:</p><p>Dr. Rácz Péter, tudományos munkatárs, BME KTT</p><p>e-mail: racz.peter.marton@ttk.bme.hu</p>","0","","","","","",""
"html-button-response","2","29856","0.0-2.0","13389","<p>A kísérletben szavakat fogsz látni. Ezek között lesznek olyanok, amelyeket ismersz, de előfordulhatnak olyanok is, amelyeket nem ismersz, sőt, vannak köztük kitalált szavak is. Minden szónál látni fogsz toldalékolt alakokat. A te feladatod az lesz, hogy minden szóhoz kiválaszd azt a toldalékolt alakot, amely a te számodra ismerősebben, természetesebben hangzik. Rossz válaszok nincsenek, mert van olyan, hogy különböző embereknek más és más szó tűnik jobb választásnak. A választ úgy tudod majd kiválasztani, ha rákattintasz.</p><p>Ebben a szóválasztós játékban egy másik játékossal együtt veszel majd részt. A másik játékos is minden esetben azok közül a lehetőségek közül válogathat, mint te. Kettőtök feladata az, hogy ugyanazt a lehetőséget válasszátok minden esetben. Ahhoz, hogy ez sikerüljön, neked figyelned kell arra, hogy a másik játékos milyen válaszokat ad, és ennek alapján meg kell tippelned, hogyan választ legközelebb. Ha eltalálod, akkor pontot kapsz.</p>","0","","","","","",""
"html-button-response","3","32766","0.0-3.0","2400","<p>Kérjük, olvasd el az alábbi nyilatkozatot, és amennyiben egyetértesz vele, nyomj a Beleegyezés gombra!</p><p>Kijelentem, hogy magyar anyanyelvű személyként önként veszek részt a BME KTT kísérletében. A kutatás céljával és folyamatával kapcsolatban elegendő tájékoztatást kaptam, lehetőségem volt kérdések feltételére, és esetleges kérdéseimre megfelelő válaszokat kaptam. A tájékoztatás alapján elegendő mennyiségű információ áll a rendelkezésemre, hogy eldönthessem, részt kívánok-e venni a kutatásban.</p><p>Tisztában vagyok vele, hogy részvételi szándékomat és adataimat bármikor, indoklás nélkül visszavonhatom.</p><p>Értem és tudomásul veszem, hogy a kutatás tudományos célokat szolgál, és az általam szolgáltatott adatokat a BME kizárólag kutatási célból használja fel. Tudomásul veszem, hogy eredményeimet a többi résztvevő eredményeivel együtt kezelik, így egyéni teljesítményemről visszajelzést, szakvéleményt nem kapok.</p><p>Megértettem, hogy adataim kezelését illetően a BME az EU általános adatvédelmi rendelete (GDPR), a hatályos adatvédelmi törvény és a nemzetközi kutatás-etikai alapelvek szerint jár el. Eredményeim anonim módon kerülnek feldolgozásra, és a kutatás résztvevői az azonosításomra alkalmas adataimat harmadik félnek nem szolgáltatják ki. Engedélyezem a BME számára a jelen kutatásban felvett adataim feldolgozását és tárolását, beleértve azok későbbi kutatásokhoz való felhasználását is. Személyes adataim kezelésével kapcsolatban tájékoztatást kérhetek a kutatás résztvevőitől, az adatkezelés ellen tiltakozhatok, kérhetem személyes adataim helyesbítését, törlését vagy zárolását, valamint jogorvoslatért a Nemzeti Adatvédelmi és Információszabadság Hatósághoz fordulhatok.</p><p>Kijelentem, hogy a kutatásban való részvételem körülményeiről részletes tájékoztatást kaptam, és a feltételeket elfogadom.</p>","0","","","","","",""
"survey-text","4","55882","0.0-4.0","22604","","{""Q0"":""EOSX6A"",""Q1"":"""",""Q2"":""2002"",""Q3"":""14""}","","","","","",""
"html-button-response","5","58902","0.0-5.0","2517","<p>Ebben a játékban szavakat kell toldalékolni.</p> <p>Minden körben mutatunk majd egy példamondatot, amiben lesz egy szó.</p> <p>Alatta jön egy második mondat, ezt a mondatot neked kell majd befejezni, ugyanezzel a szóval.</p> <p>Nem biztos, hogy a szó eleve ismerős lesz számodra!</p> <p>Minden mondathoz adunk két lehetőséget, ezeket balra és jobbra látod majd.</p> <p>A játék kb. negyedóráig-húsz percig tart.</p>","0","","","","","",""
"html-button-response","6","69156","0.0-6.0","9742","<p>Nézzünk egy példát!</p> <p>A példamondat: ""János imád fláramolni, ezért sokat fláramlik. Mi ritkán...""</p><p>Neked ezt a mondatot kell befejezned: ""Ti ritkán...""</p><p>A lehetőségek pedig ezek:</p>","0","","","","","",""
"html-button-response","7","74570","0.0-7.0","4901","<p>Nagyon jó.</p><p>Ezt a játékot nem egyedül fogod játszani, hanem egy másik játékossal.</p><p>Mielőtt továbblépünk, összekapcsolunk titeket egymással.</p><p>Ez igénybe vehet néhány másodpercet, amihez szíves türelmed kérjük.</p>","0","","","","","",""
"html-button-response","8","80305","0.0-8.0","null","<p>Csatlakozás a másik játékoshoz...</p>","null","","","","","",""
"html-button-response","9","82826","0.0-9.0","null","<p> Sikeres kapcsolódás!</p>","null","","","","","",""
"html-button-response","10","88555","0.0-10.0","5219","<p>A következőkben ketten játsszátok a szóválasztós játékot.</p><p>A feladatotok az lesz, hogy minden körben <b>ugyanazt</b> a szót válasszátok.</p><p>Minden ilyen egyező válaszért pontot kaptok.</p><p>Próbáld meg kitalálni, mit választ a másik játékos!</p><p>Bármikor választhatsz, a körnek akkor van vége, ha mindketten döntöttetek.</p><p>Sok sikert!</p>","0","","","","","",""
"html-button-response-esp","11","106427","0.0-11.0-0.0","17354","János imád mísozni, ezért sokat míslik. Mi ritkán...","1","mísozunk","[""míslunk"",""mísozunk""]","mísozunk","esp trial","10","true"
"html-button-response","12","109932","0.0-11.0-1.0","null","<p>A másik játékos ezt választotta: <b>mísozunk</b>.</p><p>&#x2705;</p><p>A te válaszod és a másik játékos válasza <b>megegyeznek</b>.</p>","null","","","","feedback trial","",""
"html-button-response-esp","13","117949","0.0-11.0-0.1","7514","János imád trűnyözni, ezért sokat trűnylik. Ők ritkán...","0","trűnyöznek","[""trűnyöznek"",""trűnylenek""]","trűnyöznek","esp trial","10","true"
"html-button-response","14","121458","0.0-11.0-1.1","null","<p>A másik játékos ezt választotta: <b>trűnyöznek</b>.</p><p>&#x2705;</p><p>A te válaszod és a másik játékos válasza <b>megegyeznek</b>.</p>","null","","","","feedback trial","",""
"html-button-response-esp","15","130699","0.0-11.0-0.2","8739","János imád spalározni, ezért sokat spalárzik. Ők ritkán...","1","spalároznak","[""spalárzanak"",""spalároznak""]","spalároznak","esp trial","10","true"
"html-button-response","16","134214","0.0-11.0-1.2","null","<p>A másik játékos ezt választotta: <b>spalároznak</b>.</p><p>&#x2705;</p><p>A te válaszod és a másik játékos válasza <b>megegyeznek</b>.</p>","null","","","","feedback trial","",""
"html-button-response-esp","17","140874","0.0-11.0-0.3","6151","János imád brivepedni, ezért sokat brivepszik. Mi ritkán...","0","brivepszünk","[""brivepszünk"",""brivepedünk""]","brivepedünk","esp trial","10","false"
"html-button-response","18","144397","0.0-11.0-1.3","null","<p>A másik játékos ezt választotta: <b>brivepedünk</b>.</p><p>&#10060;</p><p>A válaszaitok <b>nem</b> egyeznek meg.</p>","null","","","","feedback trial","",""
"html-button-response-esp","19","152270","0.0-11.0-0.4","7363","János imád pekedni, ezért sokat pekszik. Mi ritkán...","1","pekedünk","[""pekszünk"",""pekedünk""]","pekedünk","esp trial","10","true"
"html-button-response","20","155794","0.0-11.0-1.4","null","<p>A másik játékos ezt választotta: <b>pekedünk</b>.</p><p>&#x2705;</p><p>A te válaszod és a másik játékos válasza <b>megegyeznek</b>.</p>","null","","","","feedback trial","",""
"html-button-response-esp","21","164574","0.0-11.0-0.5","8267","János imád pörözni, ezért sokat pörzik. Ti ritkán...","1","pöröztök","[""pörzötök"",""pöröztök""]","pörzötök","esp trial","10","false"
"html-button-response","22","168094","0.0-11.0-1.5","null","<p>A másik játékos ezt választotta: <b>pörzötök</b>.</p><p>&#10060;</p><p>A válaszaitok <b>nem</b> egyeznek meg.</p>","null","","","","feedback trial","",""
"html-button-response-esp","23","176034","0.0-11.0-0.6","7431","János imád kluzozni, ezért sokat kluzlik. Ti ritkán...","0","kluzoztok","[""kluzoztok"",""kluzlotok""]","kluzlotok","esp trial","10","false"
"html-button-response","24","179549","0.0-11.0-1.6","null","<p>A másik játékos ezt választotta: <b>kluzlotok</b>.</p><p>&#10060;</p><p>A válaszaitok <b>nem</b> egyeznek meg.</p>","null","","","","feedback trial","",""
"html-button-response-esp","25","188486","0.0-11.0-0.7","8427","János imád sprimozni, ezért sokat sprimlik. Mi ritkán...","1","sprimozunk","[""sprimlunk"",""sprimozunk""]","sprimozunk","esp trial","10","true"
"html-button-response","26","192005","0.0-11.0-1.7","null","<p>A másik játékos ezt választotta: <b>sprimozunk</b>.</p><p>&#x2705;</p><p>A te válaszod és a másik játékos válasza <b>megegyeznek</b>.</p>","null","","","","feedback trial","",""
"html-button-response-esp","27","199443","0.0-11.0-0.8","6930","János imád tibarozni, ezért sokat tibarzik. Ők ritkán...","0","tibaroznak","[""tibaroznak"",""tibarzanak""]","tibaroznak","esp trial","10","true"
"html-button-response","28","202961","0.0-11.0-1.8","null","<p>A másik játékos ezt választotta: <b>tibaroznak</b>.</p><p>&#x2705;</p><p>A te válaszod és a másik játékos válasza <b>megegyeznek</b>.</p>","null","","","","feedback trial","",""
"html-button-response-esp","29","208979","0.0-11.0-0.9","5507","János imád míjozni, ezért sokat míjzik. Mi ritkán...","1","míjozunk","[""míjzunk"",""míjozunk""]","míjozunk","esp trial","10","true"
"html-button-response","30","212497","0.0-11.0-1.9","null","<p>A másik játékos ezt választotta: <b>míjozunk</b>.</p><p>&#x2705;</p><p>A te válaszod és a másik játékos válasza <b>megegyeznek</b>.</p>","null","","","","feedback trial","",""
"html-button-response-esp","31","223857","0.0-11.0-0.10","10850","János imád brálamozni, ezért sokat brálamlik. Ők ritkán...","1","brálamoznak","[""brálamlanak"",""brálamoznak""]","brálamoznak","esp trial","10","true"
"html-button-response","32","227375","0.0-11.0-1.10","null","<p>A másik játékos ezt választotta: <b>brálamoznak</b>.</p><p>&#x2705;</p><p>A te válaszod és a másik játékos válasza <b>megegyeznek</b>.</p>","null","","","","feedback trial","",""
"html-button-response-esp","33","239948","0.0-11.0-0.11","12062","János imád flubokozni, ezért sokat fluboklik. Ti ritkán...","1","flubokoztok","[""fluboklotok"",""flubokoztok""]","fluboklotok","esp trial","10","false"
"html-button-response","34","243471","0.0-11.0-1.11","null","<p>A másik játékos ezt választotta: <b>fluboklotok</b>.</p><p>&#10060;</p><p>A válaszaitok <b>nem</b> egyeznek meg.</p>","null","","","","feedback trial","",""
"html-button-response-esp","35","250595","0.0-11.0-0.12","6612","János imád sztritozni, ezért sokat sztritlik. Ők ritkán...","1","sztritoznak","[""sztritlanak"",""sztritoznak""]","sztritoznak","esp trial","10","true"
"html-button-response","36","254111","0.0-11.0-1.12","null","<p>A másik játékos ezt választotta: <b>sztritoznak</b>.</p><p>&#x2705;</p><p>A te válaszod és a másik játékos válasza <b>megegyeznek</b>.</p>","null","","","","feedback trial","",""
"html-button-response-esp","37","258827","0.0-11.0-0.13","3223","János imád lírozni, ezért sokat lírlik. Ők ritkán...","1","líroznak","[""lírlanak"",""líroznak""]","líroznak","esp trial","10","true"
"html-button-response","38","262348","0.0-11.0-1.13","null","<p>A másik játékos ezt választotta: <b>líroznak</b>.</p><p>&#x2705;</p><p>A te válaszod és a másik játékos válasza <b>megegyeznek</b>.</p>","null","","","","feedback trial","",""
"html-button-response-esp","39","267084","0.0-11.0-0.14","4234","János imád livényezni, ezért sokat livénylik. Mi ritkán...","1","livényezünk","[""livénylünk"",""livényezünk""]","livényezünk","esp trial","10","true"
"html-button-response","40","270607","0.0-11.0-1.14","null","<p>A másik játékos ezt választotta: <b>livényezünk</b>.</p><p>&#x2705;</p><p>A te válaszod és a másik játékos válasza <b>megegyeznek</b>.</p>","null","","","","feedback trial","",""
"html-button-response-esp","41","275322","0.0-11.0-0.15","3341","János imád galározni, ezért sokat galárzik. Ők ritkán...","1","galároznak","[""galárzanak"",""galároznak""]","galárzanak","esp trial","10","false"
"html-button-response","42","278840","0.0-11.0-1.15","null","<p>A másik játékos ezt választotta: <b>galárzanak</b>.</p><p>&#10060;</p><p>A válaszaitok <b>nem</b> egyeznek meg.</p>","null","","","","feedback trial","",""
"html-button-response-esp","43","284631","0.0-11.0-0.16","5281","János imád prilepedni, ezért sokat prilepszik. Mi ritkán...","0","prilepedünk","[""prilepedünk"",""prilepszünk""]","prilepedünk","esp trial","10","true"
"html-button-response","44","288153","0.0-11.0-1.16","null","<p>A másik játékos ezt választotta: <b>prilepedünk</b>.</p><p>&#x2705;</p><p>A te válaszod és a másik játékos válasza <b>megegyeznek</b>.</p>","null","","","","feedback trial","",""
"html-button-response-esp","45","295905","0.0-11.0-0.17","7236","János imád gyivepedni, ezért sokat gyivepszik. Ők ritkán...","0","gyivepednek","[""gyivepednek"",""gyivepszenek""]","gyivepednek","esp trial","10","true"
"html-button-response","46","299425","0.0-11.0-1.17","null","<p>A másik játékos ezt választotta: <b>gyivepednek</b>.</p><p>&#x2705;</p><p>A te válaszod és a másik játékos válasza <b>megegyeznek</b>.</p>","null","","","","feedback trial","",""
"html-button-response-esp","47","304133","0.0-11.0-0.18","3158","János imád frésezni, ezért sokat fréslik. Mi ritkán...","1","frésezünk","[""fréslünk"",""frésezünk""]","frésezünk","esp trial","10","true"
"html-button-response","48","307655","0.0-11.0-1.18","null","<p>A másik játékos ezt választotta: <b>frésezünk</b>.</p><p>&#x2705;</p><p>A te válaszod és a másik játékos válasza <b>megegyeznek</b>.</p>","null","","","","feedback trial","",""
"html-button-response-esp","49","314535","0.0-11.0-0.19","6370","János imád nágapodni, ezért sokat nágapszik. Ők ritkán...","1","nágapodnak","[""nágapszanak"",""nágapodnak""]","nágapodnak","esp trial","10","true"
"html-button-response","50","318058","0.0-11.0-1.19","null","<p>A másik játékos ezt választotta: <b>nágapodnak</b>.</p><p>&#x2705;</p><p>A te válaszod és a másik játékos válasza <b>megegyeznek</b>.</p>","null","","","","feedback trial","",""
"html-button-response-esp","51","324163","0.0-11.0-0.20","5603","János imád flivegezni, ezért sokat flivegzik. Ők ritkán...","0","flivegeznek","[""flivegeznek"",""flivegzenek""]","flivegzenek","esp trial","10","false"
"html-button-response","52","327682","0.0-11.0-1.20","null","<p>A másik játékos ezt választotta: <b>flivegzenek</b>.</p><p>&#10060;</p><p>A válaszaitok <b>nem</b> egyeznek meg.</p>","null","","","","feedback trial","",""
"html-button-response-esp","53","335791","0.0-11.0-0.21","7597","János imád spöközni, ezért sokat spöklik. Mi ritkán...","1","spöközünk","[""spöklünk"",""spöközünk""]","spöközünk","esp trial","10","true"
"html-button-response","54","339308","0.0-11.0-1.21","null","<p>A másik játékos ezt választotta: <b>spöközünk</b>.</p><p>&#x2705;</p><p>A te válaszod és a másik játékos válasza <b>megegyeznek</b>.</p>","null","","","","feedback trial","",""
"html-button-response-esp","55","348964","0.0-11.0-0.22","9146","János imád sponyozni, ezért sokat sponylik. Ők ritkán...","0","sponyoznak","[""sponyoznak"",""sponylanak""]","sponyoznak","esp trial","10","true"
"html-button-response","56","352487","0.0-11.0-1.22","null","<p>A másik játékos ezt választotta: <b>sponyoznak</b>.</p><p>&#x2705;</p><p>A te válaszod és a másik játékos válasza <b>megegyeznek</b>.</p>","null","","","","feedback trial","",""
"html-button-response-esp","57","360930","0.0-11.0-0.23","7934","János imád klarágozni, ezért sokat klarágzik. Ti ritkán...","0","klarágoztok","[""klarágoztok"",""klarágzotok""]","klarágzotok","esp trial","10","false"
"html-button-response","58","364447","0.0-11.0-1.23","null","<p>A másik játékos ezt választotta: <b>klarágzotok</b>.</p><p>&#10060;</p><p>A válaszaitok <b>nem</b> egyeznek meg.</p>","null","","","","feedback trial","",""
"html-button-response-esp","59","370286","0.0-11.0-0.24","5329","János imád lumozni, ezért sokat lumlik. Ti ritkán...","1","lumoztok","[""lumlotok"",""lumoztok""]","lumlotok","esp trial","10","false"
"html-button-response","60","373802","0.0-11.0-1.24","null","<p>A másik játékos ezt választotta: <b>lumlotok</b>.</p><p>&#10060;</p><p>A válaszaitok <b>nem</b> egyeznek meg.</p>","null","","","","feedback trial","",""
"html-button-response-esp","61","380900","0.0-11.0-0.25","6586","János imád vobozni, ezért sokat vobzik. Ti ritkán...","0","voboztok","[""voboztok"",""vobzotok""]","vobzotok","esp trial","10","false"
"html-button-response","62","384407","0.0-11.0-1.25","null","<p>A másik játékos ezt választotta: <b>vobzotok</b>.</p><p>&#10060;</p><p>A válaszaitok <b>nem</b> egyeznek meg.</p>","null","","","","feedback trial","",""
"html-button-response-esp","63","395347","0.0-11.0-0.26","10428","János imád tágarozni, ezért sokat tágarzik. Mi ritkán...","1","tágarozunk","[""tágarzunk"",""tágarozunk""]","tágarozunk","esp trial","10","true"
"html-button-response","64","398863","0.0-11.0-1.26","null","<p>A másik játékos ezt választotta: <b>tágarozunk</b>.</p><p>&#x2705;</p><p>A te válaszod és a másik játékos válasza <b>megegyeznek</b>.</p>","null","","","","feedback trial","",""
"html-button-response-esp","65","407375","0.0-11.0-0.27","8003","János imád flézezni, ezért sokat flézlik. Ti ritkán...","0","flézeztek","[""flézeztek"",""flézletek""]","flézletek","esp trial","10","false"
"html-button-response","66","410889","0.0-11.0-1.27","null","<p>A másik játékos ezt választotta: <b>flézletek</b>.</p><p>&#10060;</p><p>A válaszaitok <b>nem</b> egyeznek meg.</p>","null","","","","feedback trial","",""
"html-button-response-esp","67","420883","0.0-11.0-0.28","9484","János imád tribejezni, ezért sokat tribejlik. Ti ritkán...","0","tribejeztek","[""tribejeztek"",""tribejletek""]","tribejletek","esp trial","10","false"
"html-button-response","68","424404","0.0-11.0-1.28","null","<p>A másik játékos ezt választotta: <b>tribejletek</b>.</p><p>&#10060;</p><p>A válaszaitok <b>nem</b> egyeznek meg.</p>","null","","","","feedback trial","",""
"html-button-response-esp","69","432059","0.0-11.0-0.29","7144","János imád mihágozni, ezért sokat mihágzik. Ti ritkán...","1","mihágoztok","[""mihágzotok"",""mihágoztok""]","mihágzotok","esp trial","10","false"
"html-button-response","70","435579","0.0-11.0-1.29","null","<p>A másik játékos ezt választotta: <b>mihágzotok</b>.</p><p>&#10060;</p><p>A válaszaitok <b>nem</b> egyeznek meg.</p>","null","","","","feedback trial","",""
"html-button-response-esp","71","445363","0.0-11.0-0.30","9274","János imád gibemezni, ezért sokat gibemlik. Mi ritkán...","1","gibemezünk","[""gibemlünk"",""gibemezünk""]","gibemezünk","esp trial","10","true"
"html-button-response","72","448887","0.0-11.0-1.30","null","<p>A másik játékos ezt választotta: <b>gibemezünk</b>.</p><p>&#x2705;</p><p>A te válaszod és a másik játékos válasza <b>megegyeznek</b>.</p>","null","","","","feedback trial","",""
"html-button-response-esp","73","460355","0.0-11.0-0.31","10957","János imád küsözni, ezért sokat küslik. Mi ritkán...","0","küsözünk","[""küsözünk"",""küslünk""]","küsözünk","esp trial","10","true"
"html-button-response","74","463875","0.0-11.0-1.31","null","<p>A másik játékos ezt választotta: <b>küsözünk</b>.</p><p>&#x2705;</p><p>A te válaszod és a másik játékos válasza <b>megegyeznek</b>.</p>","null","","","","feedback trial","",""
"html-button-response-esp","75","471083","0.0-11.0-0.32","6698","János imád trírozni, ezért sokat trírzik. Mi ritkán...","0","trírzunk","[""trírzunk"",""trírozunk""]","trírozunk","esp trial","10","false"
"html-button-response","76","474603","0.0-11.0-1.32","null","<p>A másik játékos ezt választotta: <b>trírozunk</b>.</p><p>&#10060;</p><p>A válaszaitok <b>nem</b> egyeznek meg.</p>","null","","","","feedback trial","",""
"html-button-response-esp","77","486191","0.0-11.0-0.33","11076","János imád brározni, ezért sokat brárlik. Ők ritkán...","0","brároznak","[""brároznak"",""brárlanak""]","brároznak","esp trial","10","true"
"html-button-response","78","489708","0.0-11.0-1.33","null","<p>A másik játékos ezt választotta: <b>brároznak</b>.</p><p>&#x2705;</p><p>A te válaszod és a másik játékos válasza <b>megegyeznek</b>.</p>","null","","","","feedback trial","",""
"html-button-response-esp","79","498424","0.0-11.0-0.34","8205","János imád bregezni, ezért sokat bregzik. Mi ritkán...","0","bregzünk","[""bregzünk"",""bregezünk""]","bregezünk","esp trial","10","false"
"html-button-response","80","501943","0.0-11.0-1.34","null","<p>A másik játékos ezt választotta: <b>bregezünk</b>.</p><p>&#10060;</p><p>A válaszaitok <b>nem</b> egyeznek meg.</p>","null","","","","feedback trial","",""
"html-button-response-esp","81","511942","0.0-11.0-0.35","9489","János imád prazozni, ezért sokat prazlik. Mi ritkán...","0","prazozunk","[""prazozunk"",""prazlunk""]","prazozunk","esp trial","10","true"
"html-button-response","82","515465","0.0-11.0-1.35","null","<p>A másik játékos ezt választotta: <b>prazozunk</b>.</p><p>&#x2705;</p><p>A te válaszod és a másik játékos válasza <b>megegyeznek</b>.</p>","null","","","","feedback trial","",""
"html-button-response-esp","83","520189","0.0-11.0-0.36","4011","János imád dirányozni, ezért sokat diránylik. Ők ritkán...","0","dirányoznak","[""dirányoznak"",""diránylanak""]","dirányoznak","esp trial","10","true"
"html-button-response","84","523704","0.0-11.0-1.36","null","<p>A másik játékos ezt választotta: <b>dirányoznak</b>.</p><p>&#x2705;</p><p>A te válaszod és a másik játékos válasza <b>megegyeznek</b>.</p>","null","","","","feedback trial","",""
"html-button-response-esp","85","528513","0.0-11.0-0.37","4298","János imád brüszözni, ezért sokat brüszlik. Ti ritkán...","0","brüszöztök","[""brüszöztök"",""brüszlötök""]","brüszöztök","esp trial","10","true"
"html-button-response","86","532033","0.0-11.0-1.37","null","<p>A másik játékos ezt választotta: <b>brüszöztök</b>.</p><p>&#x2705;</p><p>A te válaszod és a másik játékos válasza <b>megegyeznek</b>.</p>","null","","","","feedback trial","",""
"html-button-response-esp","87","538306","0.0-11.0-0.38","5761","János imád gatágozni, ezért sokat gatáglik. Mi ritkán...","0","gatágozunk","[""gatágozunk"",""gatáglunk""]","gatáglunk","esp trial","10","false"
"html-button-response","88","541817","0.0-11.0-1.38","null","<p>A másik játékos ezt választotta: <b>gatáglunk</b>.</p><p>&#10060;</p><p>A válaszaitok <b>nem</b> egyeznek meg.</p>","null","","","","feedback trial","",""
"html-button-response-esp","89","547966","0.0-11.0-0.39","5639","János imád drivegezni, ezért sokat drivegzik. Ti ritkán...","0","drivegzetek","[""drivegzetek"",""drivegeztek""]","drivegzetek","esp trial","10","true"
"html-button-response","90","551489","0.0-11.0-1.39","null","<p>A másik játékos ezt választotta: <b>drivegzetek</b>.</p><p>&#x2705;</p><p>A te válaszod és a másik játékos válasza <b>megegyeznek</b>.</p>","null","","","","feedback trial","",""
"html-button-response-esp","91","557242","0.0-11.0-0.40","5245","János imád drojozni, ezért sokat drojzik. Mi ritkán...","1","drojzunk","[""drojozunk"",""drojzunk""]","drojozunk","esp trial","10","false"
"html-button-response","92","560761","0.0-11.0-1.40","null","<p>A másik játékos ezt választotta: <b>drojozunk</b>.</p><p>&#10060;</p><p>A válaszaitok <b>nem</b> egyeznek meg.</p>","null","","","","feedback trial","",""
"html-button-response-esp","93","565483","0.0-11.0-0.41","3152","János imád sztrajozni, ezért sokat sztrajlik. Ők ritkán...","1","sztrajoznak","[""sztrajlanak"",""sztrajoznak""]","sztrajoznak","esp trial","10","true"
"html-button-response","94","569005","0.0-11.0-1.41","null","<p>A másik játékos ezt választotta: <b>sztrajoznak</b>.</p><p>&#x2705;</p><p>A te válaszod és a másik játékos válasza <b>megegyeznek</b>.</p>","null","","","","feedback trial","",""
"html-button-response-esp","95","583147","0.0-11.0-0.42","13630","János imád sprigozni, ezért sokat sprigzik. Ti ritkán...","0","sprigzotok","[""sprigzotok"",""sprigoztok""]","sprigzotok","esp trial","10","true"
"html-button-response","96","586662","0.0-11.0-1.42","null","<p>A másik játékos ezt választotta: <b>sprigzotok</b>.</p><p>&#x2705;</p><p>A te válaszod és a másik játékos válasza <b>megegyeznek</b>.</p>","null","","","","feedback trial","",""
"html-button-response-esp","97","595296","0.0-11.0-0.43","8124","János imád tűgözni, ezért sokat tűgzik. Ti ritkán...","0","tűgzötök","[""tűgzötök"",""tűgöztök""]","tűgöztök","esp trial","10","false"
"html-button-response","98","598805","0.0-11.0-1.43","null","<p>A másik játékos ezt választotta: <b>tűgöztök</b>.</p><p>&#10060;</p><p>A válaszaitok <b>nem</b> egyeznek meg.</p>","null","","","","feedback trial","",""
"html-button-response-esp","99","609163","0.0-11.0-0.44","9846","János imád frivamozni, ezért sokat frivamlik. Mi ritkán...","1","frivamozunk","[""frivamlunk"",""frivamozunk""]","frivamozunk","esp trial","10","true"
"html-button-response","100","612687","0.0-11.0-1.44","null","<p>A másik játékos ezt választotta: <b>frivamozunk</b>.</p><p>&#x2705;</p><p>A te válaszod és a másik játékos válasza <b>megegyeznek</b>.</p>","null","","","","feedback trial","",""
"html-button-response-esp","101","620362","0.0-11.0-0.45","7164","János imád spibamozni, ezért sokat spibamlik. Ők ritkán...","1","spibamoznak","[""spibamlanak"",""spibamoznak""]","spibamoznak","esp trial","10","true"
"html-button-response","102","623881","0.0-11.0-1.45","null","<p>A másik játékos ezt választotta: <b>spibamoznak</b>.</p><p>&#x2705;</p><p>A te válaszod és a másik játékos válasza <b>megegyeznek</b>.</p>","null","","","","feedback trial","",""
"html-button-response-esp","103","633277","0.0-11.0-0.46","8884","János imád frihegezni, ezért sokat friheglik. Mi ritkán...","1","frihegezünk","[""friheglünk"",""frihegezünk""]","frihegezünk","esp trial","10","true"
"html-button-response","104","636793","0.0-11.0-1.46","null","<p>A másik játékos ezt választotta: <b>frihegezünk</b>.</p><p>&#x2705;</p><p>A te válaszod és a másik játékos válasza <b>megegyeznek</b>.</p>","null","","","","feedback trial","",""
"html-button-response-esp","105","652134","0.0-11.0-0.47","14831","János imád riványozni, ezért sokat riványlik. Ti ritkán...","0","riványoztok","[""riványoztok"",""riványlotok""]","riványoztok","esp trial","10","true"
"html-button-response","106","655654","0.0-11.0-1.47","null","<p>A másik játékos ezt választotta: <b>riványoztok</b>.</p><p>&#x2705;</p><p>A te válaszod és a másik játékos válasza <b>megegyeznek</b>.</p>","null","","","","feedback trial","",""
"html-button-response-esp","107","663758","0.0-11.0-0.48","7595","János imád filányozni, ezért sokat filánylik. Mi ritkán...","0","filányozunk","[""filányozunk"",""filánylunk""]","filányozunk","esp trial","10","true"
"html-button-response","108","667277","0.0-11.0-1.48","null","<p>A másik játékos ezt választotta: <b>filányozunk</b>.</p><p>&#x2705;</p><p>A te válaszod és a másik játékos válasza <b>megegyeznek</b>.</p>","null","","","","feedback trial","",""
"html-button-response-esp","109","673840","0.0-11.0-0.49","6061","János imád fröjözni, ezért sokat fröjlik. Mi ritkán...","1","fröjözünk","[""fröjlünk"",""fröjözünk""]","fröjözünk","esp trial","10","true"
"html-button-response","110","677360","0.0-11.0-1.49","null","<p>A másik játékos ezt választotta: <b>fröjözünk</b>.</p><p>&#x2705;</p><p>A te válaszod és a másik játékos válasza <b>megegyeznek</b>.</p>","null","","","","feedback trial","",""
"html-button-response-esp","111","682500","0.0-11.0-0.50","4639","János imád brivágozni, ezért sokat briváglik. Ők ritkán...","1","brivágoznak","[""briváglanak"",""brivágoznak""]","briváglanak","esp trial","10","false"
"html-button-response","112","686017","0.0-11.0-1.50","null","<p>A másik játékos ezt választotta: <b>briváglanak</b>.</p><p>&#10060;</p><p>A válaszaitok <b>nem</b> egyeznek meg.</p>","null","","","","feedback trial","",""
"html-button-response-esp","113","702101","0.0-11.0-0.51","15581","János imád brilegezni, ezért sokat brilegzik. Mi ritkán...","1","brilegzünk","[""brilegezünk"",""brilegzünk""]","brilegezünk","esp trial","10","false"
"html-button-response","114","705613","0.0-11.0-1.51","null","<p>A másik játékos ezt választotta: <b>brilegezünk</b>.</p><p>&#10060;</p><p>A válaszaitok <b>nem</b> egyeznek meg.</p>","null","","","","feedback trial","",""
"html-button-response-esp","115","714972","0.0-11.0-0.52","8858","János imád pehégedni, ezért sokat pehégszik. Ti ritkán...","1","pehégedtek","[""pehégszetek"",""pehégedtek""]","pehégedtek","esp trial","10","true"
"html-button-response","116","718494","0.0-11.0-1.52","null","<p>A másik játékos ezt választotta: <b>pehégedtek</b>.</p><p>&#x2705;</p><p>A te válaszod és a másik játékos válasza <b>megegyeznek</b>.</p>","null","","","","feedback trial","",""
"html-button-response-esp","117","726369","0.0-11.0-0.53","7373","János imád hákodni, ezért sokat hákszik. Ők ritkán...","1","hákodnak","[""hákszanak"",""hákodnak""]","hákodnak","esp trial","10","true"
"html-button-response","118","729884","0.0-11.0-1.53","null","<p>A másik játékos ezt választotta: <b>hákodnak</b>.</p><p>&#x2705;</p><p>A te válaszod és a másik játékos válasza <b>megegyeznek</b>.</p>","null","","","","feedback trial","",""
"html-button-response","119","743235","0.0-12.0","12839","<p>A közös játék most véget ért.</p><p>Mielőtt eláruljuk a végső pontszámodat, arra kérlek, játszd a szóválasztós játékot néhány percig egyedül is.</p><p>A feladatod ugyanaz lesz, választani két lehetőség közül.</p><p>Most viszont egyedül kell döntened, hogy te melyiket választanád.</p>","0","","","","","",""
"html-button-response-clever","120","752038","0.0-13.0-0.0","8289","János imád klűmözni, ezért sokat klűmlik. Ti ritkán...","0","klűmlötök","[""klűmlötök"",""klűmöztök""]","","posttest trial","1",""
"html-button-response-clever","121","758062","0.0-13.0-0.1","5515","János imád vehékedni, ezért sokat vehékszik. Mi ritkán...","1","vehékszünk","[""vehékedünk"",""vehékszünk""]","","posttest trial","1",""
"html-button-response-clever","122","765266","0.0-13.0-0.2","6692","János imád sprebezni, ezért sokat sprebzik. Ők ritkán...","0","sprebzenek","[""sprebzenek"",""sprebeznek""]","","posttest trial","1",""
"html-button-response-clever","123","770127","0.0-13.0-0.3","4349","János imád trilekedni, ezért sokat trilekszik. Ti ritkán...","0","trilekedtek","[""trilekedtek"",""trilekszetek""]","","posttest trial","1",""
"html-button-response-clever","124","777897","0.0-13.0-0.4","7258","János imád bötőrözni, ezért sokat bötőrzik. Mi ritkán...","1","bötőrzünk","[""bötőrözünk"",""bötőrzünk""]","","posttest trial","1",""
"html-button-response-clever","125","786820","0.0-13.0-0.5","8412","János imád spivejezni, ezért sokat spivejlik. Ők ritkán...","1","spivejlenek","[""spivejeznek"",""spivejlenek""]","","posttest trial","1",""
"html-button-response-clever","126","795416","0.0-13.0-0.6","8085","János imád géregezni, ezért sokat géreglik. Ti ritkán...","1","géregletek","[""géregeztek"",""géregletek""]","","posttest trial","1",""
"html-button-response-clever","127","803040","0.0-13.0-0.7","7117","János imád klihasozni, ezért sokat klihaslik. Ti ritkán...","0","klihasoztok","[""klihasoztok"",""klihaslotok""]","","posttest trial","1",""
"html-button-response-clever","128","809052","0.0-13.0-0.8","5501","János imád kláragodni, ezért sokat kláragszik. Ti ritkán...","0","kláragszotok","[""kláragszotok"",""kláragodtok""]","","posttest trial","1",""
"html-button-response-clever","129","816169","0.0-13.0-0.9","6606","János imád metégedni, ezért sokat metégszik. Ők ritkán...","1","metégszenek","[""metégednek"",""metégszenek""]","","posttest trial","1",""
"html-button-response-clever","130","820225","0.0-13.0-0.10","3547","János imád trukodni, ezért sokat trukszik. Ti ritkán...","0","trukszotok","[""trukszotok"",""trukodtok""]","","posttest trial","1",""
"html-button-response-clever","131","828724","0.0-13.0-0.11","7990","János imád spuborozni, ezért sokat spuborzik. Ők ritkán...","1","spuborzanak","[""spuboroznak"",""spuborzanak""]","","posttest trial","1",""
"html-button-response-clever","132","834357","0.0-13.0-0.12","5121","János imád nyülöközni, ezért sokat nyülöklik. Ők ritkán...","0","nyülököznek","[""nyülököznek"",""nyülöklenek""]","","posttest trial","1",""
"html-button-response-clever","133","839331","0.0-13.0-0.13","4466","János imád gihamozni, ezért sokat gihamlik. Ők ritkán...","1","gihamlanak","[""gihamoznak"",""gihamlanak""]","","posttest trial","1",""
"html-button-response-clever","134","844045","0.0-13.0-0.14","4203","János imád nyádozni, ezért sokat nyádlik. Ők ritkán...","0","nyádlanak","[""nyádlanak"",""nyádoznak""]","","posttest trial","1",""
"html-button-response-clever","135","849747","0.0-13.0-0.15","5192","János imád trálodni, ezért sokat trálszik. Mi ritkán...","1","trálodunk","[""trálszunk"",""trálodunk""]","","posttest trial","1",""
"html-button-response-clever","136","854374","0.0-13.0-0.16","4117","János imád vihapodni, ezért sokat vihapszik. Mi ritkán...","1","vihapodunk","[""vihapszunk"",""vihapodunk""]","","posttest trial","1",""
"html-button-response-clever","137","862424","0.0-13.0-0.17","7541","János imád nivározni, ezért sokat nivárzik. Ti ritkán...","1","nivároztok","[""nivárzotok"",""nivároztok""]","","posttest trial","1",""
"html-button-response-clever","138","868267","0.0-13.0-0.18","5335","János imád frélegezni, ezért sokat frélegzik. Mi ritkán...","0","frélegzünk","[""frélegzünk"",""frélegezünk""]","","posttest trial","1",""
"html-button-response-clever","139","872699","0.0-13.0-0.19","3920","János imád játozni, ezért sokat játlik. Mi ritkán...","0","játozunk","[""játozunk"",""játlunk""]","","posttest trial","1",""
"html-button-response-clever","140","878954","0.0-13.0-0.20","5741","János imád nyizozni, ezért sokat nyizlik. Mi ritkán...","1","nyizlunk","[""nyizozunk"",""nyizlunk""]","","posttest trial","1",""
"html-button-response-clever","141","885400","0.0-13.0-0.21","5937","János imád jurozni, ezért sokat jurlik. Mi ritkán...","1","jurlunk","[""jurozunk"",""jurlunk""]","","posttest trial","1",""
"html-button-response-clever","142","888271","0.0-13.0-0.22","2362","János imád prihegedni, ezért sokat prihegszik. Ők ritkán...","0","prihegszenek","[""prihegszenek"",""prihegednek""]","","posttest trial","1",""
"html-button-response-clever","143","891561","0.0-13.0-0.23","2779","János imád frorozni, ezért sokat frorlik. Ők ritkán...","0","frorlanak","[""frorlanak"",""froroznak""]","","posttest trial","1",""
"html-button-response-clever","144","895591","0.0-13.0-0.24","3521","János imád bribasozni, ezért sokat bribaslik. Ők ritkán...","1","bribaslanak","[""bribasoznak"",""bribaslanak""]","","posttest trial","1",""
"html-button-response-clever","145","901418","0.0-13.0-0.25","5318","János imád vilesezni, ezért sokat vileslik. Mi ritkán...","1","vileslünk","[""vilesezünk"",""vileslünk""]","","posttest trial","1",""
"html-button-response-clever","146","903982","0.0-13.0-0.26","2052","János imád nyöbözni, ezért sokat nyöbzik. Ők ritkán...","0","nyöböznek","[""nyöböznek"",""nyöbzenek""]","","posttest trial","1",""
"html-button-response-clever","147","907855","0.0-13.0-0.27","3362","János imád flátozni, ezért sokat flátlik. Ti ritkán...","0","flátlotok","[""flátlotok"",""flátoztok""]","","posttest trial","1",""
"html-button-response-clever","148","912856","0.0-13.0-0.28","4490","János imád dralágozni, ezért sokat dralágzik. Mi ritkán...","0","dralágzunk","[""dralágzunk"",""dralágozunk""]","","posttest trial","1",""
"html-button-response-clever","149","918044","0.0-13.0-0.29","4677","János imád frirozni, ezért sokat frirzik. Mi ritkán...","0","frirozunk","[""frirozunk"",""frirzunk""]","","posttest trial","1",""
"html-button-response-clever","150","926818","0.0-13.0-0.30","8262","János imád frinyozni, ezért sokat frinylik. Mi ritkán...","0","frinyozunk","[""frinyozunk"",""frinylunk""]","","posttest trial","1",""
"html-button-response-clever","151","931265","0.0-13.0-0.31","3937","János imád bresezni, ezért sokat breslik. Ők ritkán...","0","breslenek","[""breslenek"",""breseznek""]","","posttest trial","1",""
"html-button-response-clever","152","934620","0.0-13.0-0.32","2845","János imád klégezni, ezért sokat kléglik. Mi ritkán...","0","kléglünk","[""kléglünk"",""klégezünk""]","","posttest trial","1",""
"html-button-response-clever","153","939442","0.0-13.0-0.33","4310","János imád flerékedni, ezért sokat flerékszik. Mi ritkán...","0","flerékszünk","[""flerékszünk"",""flerékedünk""]","","posttest trial","1",""
"html-button-response-clever","154","944976","0.0-13.0-0.34","5022","János imád tögözni, ezért sokat töglik. Ők ritkán...","0","tögöznek","[""tögöznek"",""töglenek""]","","posttest trial","1",""
"html-button-response-clever","155","949531","0.0-13.0-0.35","4042","János imád brűközni, ezért sokat brűklik. Ti ritkán...","0","brűköztök","[""brűköztök"",""brűklötök""]","","posttest trial","1",""
"html-button-response-clever","156","954666","0.0-13.0-0.36","4624","János imád dibágozni, ezért sokat dibáglik. Ti ritkán...","1","dibáglotok","[""dibágoztok"",""dibáglotok""]","","posttest trial","1",""
"html-button-response-clever","157","986031","0.0-13.0-0.37","30856","János imád ribegedni, ezért sokat ribegszik. Ti ritkán...","0","ribegedtek","[""ribegedtek"",""ribegszetek""]","","posttest trial","1",""
"html-button-response-clever","158","988126","0.0-13.0-0.38","1585","János imád sűjözni, ezért sokat sűjlik. Mi ritkán...","0","sűjlünk","[""sűjlünk"",""sűjözünk""]","","posttest trial","1",""
"html-button-response-clever","159","991613","0.0-13.0-0.39","2977","János imád brürözni, ezért sokat brürzik. Ők ritkán...","1","brürzenek","[""brüröznek"",""brürzenek""]","","posttest trial","1",""
"html-button-response-clever","160","997778","0.0-13.0-0.40","5655","János imád hiragozni, ezért sokat hiragzik. Ők ritkán...","1","hiragzanak","[""hiragoznak"",""hiragzanak""]","","posttest trial","1",""
"html-button-response-clever","161","1002343","0.0-13.0-0.41","4051","János imád bribékedni, ezért sokat bribékszik. Ti ritkán...","1","bribékszetek","[""bribékedtek"",""bribékszetek""]","","posttest trial","1",""
"html-button-response-clever","162","1006724","0.0-13.0-0.42","3871","János imád plibozni, ezért sokat plibzik. Ti ritkán...","0","plibzotok","[""plibzotok"",""pliboztok""]","","posttest trial","1",""
"html-button-response-clever","163","1011003","0.0-13.0-0.43","3768","János imád trálakozni, ezért sokat trálaklik. Ők ritkán...","0","trálaklanak","[""trálaklanak"",""trálakoznak""]","","posttest trial","1",""
"html-button-response-clever","164","1015338","0.0-13.0-0.44","3826","János imád pibegezni, ezért sokat pibegzik. Ők ritkán...","1","pibegzenek","[""pibegeznek"",""pibegzenek""]","","posttest trial","1",""
"html-button-response-clever","165","1018277","0.0-13.0-0.45","2430","János imád bügözni, ezért sokat bügzik. Ők ritkán...","0","bügöznek","[""bügöznek"",""bügzenek""]","","posttest trial","1",""
"html-button-response-clever","166","1021477","0.0-13.0-0.46","2686","János imád sztredezni, ezért sokat sztredlik. Ti ritkán...","0","sztredletek","[""sztredletek"",""sztredeztek""]","","posttest trial","1",""
"html-button-response-clever","167","1027519","0.0-13.0-0.47","5529","János imád döjözni, ezért sokat döjlik. Ők ritkán...","0","döjöznek","[""döjöznek"",""döjlenek""]","","posttest trial","1",""
"html-button-response-clever","168","1032509","0.0-13.0-0.48","4479","János imád nurokozni, ezért sokat nuroklik. Mi ritkán...","1","nuroklunk","[""nurokozunk"",""nuroklunk""]","","posttest trial","1",""
"html-button-response-clever","169","1041088","0.0-13.0-0.49","8069","János imád prugorozni, ezért sokat prugorzik. Ti ritkán...","0","prugoroztok","[""prugoroztok"",""prugorzotok""]","","posttest trial","1",""
"html-button-response-clever","170","1043956","0.0-13.0-0.50","2359","János imád hubonyozni, ezért sokat hubonylik. Ti ritkán...","0","hubonylotok","[""hubonylotok"",""hubonyoztok""]","","posttest trial","1",""
"html-button-response-clever","171","1046601","0.0-13.0-0.51","2133","János imád flodozni, ezért sokat flodlik. Ti ritkán...","1","flodlotok","[""flodoztok"",""flodlotok""]","","posttest trial","1",""
"html-button-response-clever","172","1049591","0.0-13.0-0.52","2480","János imád flugonyozni, ezért sokat flugonylik. Ők ritkán...","1","flugonylanak","[""flugonyoznak"",""flugonylanak""]","","posttest trial","1",""
"html-button-response-clever","173","1052722","0.0-13.0-0.53","2620","János imád bejezni, ezért sokat bejzik. Mi ritkán...","1","bejzünk","[""bejezünk"",""bejzünk""]","","posttest trial","1",""
"html-button-response","174","1058474","0.0-14.0","5241","<p> Vége a játéknak. A teljes pontszámod 35/54.</p><p> Szép munka! &#128526;&#128526;&#128526;</p><p>A Befejezés gomb megnyomása után bezárhatod a böngészőablakot.</p>","0","","","","","",""
"html-keyboard-response","175","1063988","0.0-15.0","null","<div class=""message"">
         <p>Egy kis türelmet kérünk, amíg elmentjük az adatokat...</p>
         </div>","null","","","","","",""
