"trial_type","trial_index","time_elapsed","internal_node_id","rt","stimulus","response","response_string","choices","esp_response","trial_kind","list_number","esp_match"
"pavlovia","0","637","0.0-0.0","","","","","","","","",""
"html-button-response","1","31131","0.0-1.0","29989","<p>Kedves Résztvevő! A Budapesti Műszaki és Gazdaságtudományi Egyetem Kognitív Tudományi Tanszékének kutatásában való részvételed kérjük. A kutatásban azt vizsgáljuk, hogy a magyar anyanyelvűek hogyan használnak bizonyos szóalakokat, és hogy milyen képük van arról, hogy mások hogyan használják, hogyan képzik a szavakat. Ez hozzásegít bennünket ahhoz, hogy jobban megértsük, hogyan dolgozza fel és tárolja a nyelvet az emberi agy, és hogyan működnek, hogyan változnak egy adott közösség nyelvi konvenciói.</p><p>A vizsgálat egy rövid számítógépes feladatból fog állni. A kutatásban való részvétel önkéntes, a részvételi szándék bármikor visszavonható. A résztvevők eredményeit név nélkül kezeljük, így nem beazonosíthatók az adatok feldolgozása során. Minden személyes adatot az EU általános adatvédelmi rendeletének (GDPR) megfelelően kezelünk és legfeljebb öt éven belül megsemmisítünk. A vizsgálat jellemzően húsz percet vesz igénybe.</p><p>Kutatásvezető:</p><p>Dr. Rácz Péter, tudományos munkatárs, BME KTT</p><p>e-mail: racz.peter.marton@ttk.bme.hu</p>","0","","","","","",""
"html-button-response","2","67313","0.0-2.0","35681","<p>A kísérletben szavakat fogsz látni. Ezek között lesznek olyanok, amelyeket ismersz, de előfordulhatnak olyanok is, amelyeket nem ismersz, sőt, vannak köztük kitalált szavak is. Minden szónál látni fogsz toldalékolt alakokat. A te feladatod az lesz, hogy minden szóhoz kiválaszd azt a toldalékolt alakot, amely a te számodra ismerősebben, természetesebben hangzik. Rossz válaszok nincsenek, mert van olyan, hogy különböző embereknek más és más szó tűnik jobb választásnak. A választ úgy tudod majd kiválasztani, ha rákattintasz.</p><p>Ebben a szóválasztós játékban egy másik játékossal együtt veszel majd részt. A másik játékos is minden esetben azok közül a lehetőségek közül válogathat, mint te. Kettőtök feladata az, hogy ugyanazt a lehetőséget válasszátok minden esetben. Ahhoz, hogy ez sikerüljön, neked figyelned kell arra, hogy a másik játékos milyen válaszokat ad, és ennek alapján meg kell tippelned, hogyan választ legközelebb. Ha eltalálod, akkor pontot kapsz.</p>","0","","","","","",""
"html-button-response","3","101743","0.0-3.0","33918","<p>Kérjük, olvasd el az alábbi nyilatkozatot, és amennyiben egyetértesz vele, nyomj a Beleegyezés gombra!</p><p>Kijelentem, hogy magyar anyanyelvű személyként önként veszek részt a BME KTT kísérletében. A kutatás céljával és folyamatával kapcsolatban elegendő tájékoztatást kaptam, lehetőségem volt kérdések feltételére, és esetleges kérdéseimre megfelelő válaszokat kaptam. A tájékoztatás alapján elegendő mennyiségű információ áll a rendelkezésemre, hogy eldönthessem, részt kívánok-e venni a kutatásban.</p><p>Tisztában vagyok vele, hogy részvételi szándékomat és adataimat bármikor, indoklás nélkül visszavonhatom.</p><p>Értem és tudomásul veszem, hogy a kutatás tudományos célokat szolgál, és az általam szolgáltatott adatokat a BME kizárólag kutatási célból használja fel. Tudomásul veszem, hogy eredményeimet a többi résztvevő eredményeivel együtt kezelik, így egyéni teljesítményemről visszajelzést, szakvéleményt nem kapok.</p><p>Megértettem, hogy adataim kezelését illetően a BME az EU általános adatvédelmi rendelete (GDPR), a hatályos adatvédelmi törvény és a nemzetközi kutatás-etikai alapelvek szerint jár el. Eredményeim anonim módon kerülnek feldolgozásra, és a kutatás résztvevői az azonosításomra alkalmas adataimat harmadik félnek nem szolgáltatják ki. Engedélyezem a BME számára a jelen kutatásban felvett adataim feldolgozását és tárolását, beleértve azok későbbi kutatásokhoz való felhasználását is. Személyes adataim kezelésével kapcsolatban tájékoztatást kérhetek a kutatás résztvevőitől, az adatkezelés ellen tiltakozhatok, kérhetem személyes adataim helyesbítését, törlését vagy zárolását, valamint jogorvoslatért a Nemzeti Adatvédelmi és Információszabadság Hatósághoz fordulhatok.</p><p>Kijelentem, hogy a kutatásban való részvételem körülményeiről részletes tájékoztatást kaptam, és a feltételeket elfogadom.</p>","0","","","","","",""
"survey-text","4","126637","0.0-4.0","24376","","{""Q0"":""KS4L3P"",""Q1"":""férfi"",""Q2"":""2001"",""Q3"":""14""}","","","","","",""
"html-button-response","5","142367","0.0-5.0","15212","<p>Ebben a játékban szavakat kell toldalékolni.</p> <p>Minden körben mutatunk majd egy példamondatot, amiben lesz egy szó.</p> <p>Alatta jön egy második mondat, ezt a mondatot neked kell majd befejezni, ugyanezzel a szóval.</p> <p>Nem biztos, hogy a szó eleve ismerős lesz számodra!</p> <p>Minden mondathoz adunk két lehetőséget, ezeket balra és jobbra látod majd.</p> <p>A játék kb. negyedóráig-húsz percig tart.</p>","0","","","","","",""
"html-button-response","6","159919","0.0-6.0","17039","<p>Nézzünk egy példát!</p> <p>A példamondat: ""János nagyon szeret rancsúrozni.""</p><p>Neked ezt a mondatot kell befejezned: ""Én is szívesen...""</p><p>A lehetőségek pedig ezek:</p>","1","","","","","",""
"html-button-response","7","165261","0.0-7.0","4829","<p>Nagyon jó.</p><p>Ezt a játékot nem egyedül fogod játszani, hanem egy másik játékossal.</p><p>Mielőtt továbblépünk, összekapcsolunk titeket egymással.</p><p>Ez igénybe vehet néhány másodpercet, amihez szíves türelmed kérjük.</p>","0","","","","","",""
"html-button-response","8","171006","0.0-8.0","null","<p>Csatlakozás a másik játékoshoz...</p>","null","","","","","",""
"html-button-response","9","173531","0.0-9.0","null","<p> Sikeres kapcsolódás!</p>","null","","","","","",""
"html-button-response","10","182199","0.0-10.0","8149","<p>A következőkben ketten játsszátok a szóválasztós játékot.</p><p>A feladatotok az lesz, hogy minden körben <b>ugyanazt</b> a szót válasszátok.</p><p>Minden ilyen egyező válaszért pontot kaptok.</p><p>Próbáld meg kitalálni, mit választ a másik játékos!</p><p>Bármikor választhatsz, a körnek akkor van vége, ha mindketten döntöttetek.</p><p>Sok sikert!</p>","0","","","","","",""
"html-button-response-esp","11","189599","0.0-11.0-0.0","6883","Te bizony sokat flűmlesz. Én is sokat...","1","flűmlök","[""flűmlöm"",""flűmlök""]","flűmlök","esp trial","7","true"
"html-button-response","12","193138","0.0-11.0-1.0","null","<p>A másik játékos ezt választotta: <b>flűmlök</b>.</p><p>&#x2705;</p><p>A te válaszod és a másik játékos válasza <b>megegyeznek</b>.</p>","null","","","","feedback trial","",""
"html-button-response-esp","13","198899","0.0-11.0-0.1","5251","Te bizony sokat spüjzöl. Én is sokat...","1","spüjzök","[""spüjzöm"",""spüjzök""]","spüjzök","esp trial","7","true"
"html-button-response","14","202423","0.0-11.0-1.1","null","<p>A másik játékos ezt választotta: <b>spüjzök</b>.</p><p>&#x2705;</p><p>A te válaszod és a másik játékos válasza <b>megegyeznek</b>.</p>","null","","","","feedback trial","",""
"html-button-response-esp","15","207052","0.0-11.0-0.2","4039","Te bizony sokat tragzol. Én is sokat...","1","tragzok","[""tragzom"",""tragzok""]","tragzom","esp trial","7","false"
"html-button-response","16","210576","0.0-11.0-1.2","null","<p>A másik játékos ezt választotta: <b>tragzom</b>.</p><p>&#10060;</p><p>A válaszaitok <b>nem</b> egyeznek meg.</p>","null","","","","feedback trial","",""
"html-button-response-esp","17","218369","0.0-11.0-0.3","7277","Te bizony sokat brivegzel. Én is sokat...","1","brivegzek","[""brivegzem"",""brivegzek""]","brivegzem","esp trial","7","false"
"html-button-response","18","221914","0.0-11.0-1.3","null","<p>A másik játékos ezt választotta: <b>brivegzem</b>.</p><p>&#10060;</p><p>A válaszaitok <b>nem</b> egyeznek meg.</p>","null","","","","feedback trial","",""
"html-button-response-esp","19","226551","0.0-11.0-0.4","3492","Te bizony sokat sztrijzol. Én is sokat...","1","sztrijzom","[""sztrijzok"",""sztrijzom""]","sztrijzom","esp trial","7","true"
"html-button-response","20","230081","0.0-11.0-1.4","null","<p>A másik játékos ezt választotta: <b>sztrijzom</b>.</p><p>&#x2705;</p><p>A te válaszod és a másik játékos válasza <b>megegyeznek</b>.</p>","null","","","","feedback trial","",""
"html-button-response-esp","21","234714","0.0-11.0-0.5","3586","Te bizony sokat brubzol. Én is sokat...","0","brubzom","[""brubzom"",""brubzok""]","brubzom","esp trial","7","true"
"html-button-response","22","238231","0.0-11.0-1.5","null","<p>A másik játékos ezt választotta: <b>brubzom</b>.</p><p>&#x2705;</p><p>A te válaszod és a másik játékos válasza <b>megegyeznek</b>.</p>","null","","","","feedback trial","",""
"html-button-response-esp","23","242858","0.0-11.0-0.6","3764","Te bizony sokat ibékszel. Én is sokat...","1","ibékszek","[""ibékszem"",""ibékszek""]","ibékszem","esp trial","7","false"
"html-button-response","24","246379","0.0-11.0-1.6","null","<p>A másik játékos ezt választotta: <b>ibékszem</b>.</p><p>&#10060;</p><p>A válaszaitok <b>nem</b> egyeznek meg.</p>","null","","","","feedback trial","",""
"html-button-response-esp","25","250998","0.0-11.0-0.7","4083","Te bizony sokat spáraklasz. Én is sokat...","0","spáraklok","[""spáraklok"",""spáraklom""]","spáraklom","esp trial","7","false"
"html-button-response","26","254543","0.0-11.0-1.7","null","<p>A másik játékos ezt választotta: <b>spáraklom</b>.</p><p>&#10060;</p><p>A válaszaitok <b>nem</b> egyeznek meg.</p>","null","","","","feedback trial","",""
"html-button-response-esp","27","259180","0.0-11.0-0.8","2541","Te bizony sokat vanylasz. Én is sokat...","1","vanylom","[""vanylok"",""vanylom""]","vanylok","esp trial","7","false"
"html-button-response","28","262711","0.0-11.0-1.8","null","<p>A másik játékos ezt választotta: <b>vanylok</b>.</p><p>&#10060;</p><p>A válaszaitok <b>nem</b> egyeznek meg.</p>","null","","","","feedback trial","",""
"html-button-response-esp","29","267334","0.0-11.0-0.9","4113","Te bizony sokat lörűdzöl. Én is sokat...","1","lörűdzöm","[""lörűdzök"",""lörűdzöm""]","lörűdzöm","esp trial","7","true"
"html-button-response","30","270860","0.0-11.0-1.9","null","<p>A másik játékos ezt választotta: <b>lörűdzöm</b>.</p><p>&#x2705;</p><p>A te válaszod és a másik játékos válasza <b>megegyeznek</b>.</p>","null","","","","feedback trial","",""
"html-button-response-esp","31","277829","0.0-11.0-0.10","6459","Te bizony sokat spihemlesz. Én is sokat...","0","spihemlek","[""spihemlek"",""spihemlem""]","spihemlek","esp trial","7","true"
"html-button-response","32","281344","0.0-11.0-1.10","null","<p>A másik játékos ezt választotta: <b>spihemlek</b>.</p><p>&#x2705;</p><p>A te válaszod és a másik játékos válasza <b>megegyeznek</b>.</p>","null","","","","feedback trial","",""
"html-button-response-esp","33","286847","0.0-11.0-0.11","4981","Te bizony sokat narádzol. Én is sokat...","1","narádzok","[""narádzom"",""narádzok""]","narádzom","esp trial","7","false"
"html-button-response","34","290371","0.0-11.0-1.11","null","<p>A másik játékos ezt választotta: <b>narádzom</b>.</p><p>&#10060;</p><p>A válaszaitok <b>nem</b> egyeznek meg.</p>","null","","","","feedback trial","",""
"html-button-response-esp","35","295153","0.0-11.0-0.12","4266","Te bizony sokat gyibeslesz. Én is sokat...","1","gyibeslem","[""gyibeslek"",""gyibeslem""]","gyibeslem","esp trial","7","true"
"html-button-response","36","298679","0.0-11.0-1.12","null","<p>A másik játékos ezt választotta: <b>gyibeslem</b>.</p><p>&#x2705;</p><p>A te válaszod és a másik játékos válasza <b>megegyeznek</b>.</p>","null","","","","feedback trial","",""
"html-button-response-esp","37","307277","0.0-11.0-0.13","8078","Te bizony sokat sztrűkszöl. Én is sokat...","0","sztrűkszöm","[""sztrűkszöm"",""sztrűkszök""]","sztrűkszöm","esp trial","7","true"
"html-button-response","38","310803","0.0-11.0-1.13","null","<p>A másik játékos ezt választotta: <b>sztrűkszöm</b>.</p><p>&#x2705;</p><p>A te válaszod és a másik játékos válasza <b>megegyeznek</b>.</p>","null","","","","feedback trial","",""
"html-button-response-esp","39","315436","0.0-11.0-0.14","3990","Te bizony sokat spihegzel. Én is sokat...","0","spihegzem","[""spihegzem"",""spihegzek""]","spihegzem","esp trial","7","true"
"html-button-response","40","318960","0.0-11.0-1.14","null","<p>A másik játékos ezt választotta: <b>spihegzem</b>.</p><p>&#x2705;</p><p>A te válaszod és a másik játékos válasza <b>megegyeznek</b>.</p>","null","","","","feedback trial","",""
"html-button-response-esp","41","323983","0.0-11.0-0.15","4503","Te bizony sokat píjlasz. Én is sokat...","0","píjlok","[""píjlok"",""píjlom""]","píjlom","esp trial","7","false"
"html-button-response","42","327505","0.0-11.0-1.15","null","<p>A másik játékos ezt választotta: <b>píjlom</b>.</p><p>&#10060;</p><p>A válaszaitok <b>nem</b> egyeznek meg.</p>","null","","","","feedback trial","",""
"html-button-response-esp","43","335385","0.0-11.0-0.16","7365","Te bizony sokat spröbzöl. Én is sokat...","0","spröbzöm","[""spröbzöm"",""spröbzök""]","spröbzöm","esp trial","7","true"
"html-button-response","44","338906","0.0-11.0-1.16","null","<p>A másik játékos ezt választotta: <b>spröbzöm</b>.</p><p>&#x2705;</p><p>A te válaszod és a másik játékos válasza <b>megegyeznek</b>.</p>","null","","","","feedback trial","",""
"html-button-response-esp","45","343540","0.0-11.0-0.17","3183","Te bizony sokat figlasz. Én is sokat...","0","figlom","[""figlom"",""figlok""]","figlom","esp trial","7","true"
"html-button-response","46","347070","0.0-11.0-1.17","null","<p>A másik játékos ezt választotta: <b>figlom</b>.</p><p>&#x2705;</p><p>A te válaszod és a másik játékos válasza <b>megegyeznek</b>.</p>","null","","","","feedback trial","",""
"html-button-response-esp","47","352050","0.0-11.0-0.18","4456","Te bizony sokat spülűdzöl. Én is sokat...","1","spülűdzöm","[""spülűdzök"",""spülűdzöm""]","spülűdzöm","esp trial","7","true"
"html-button-response","48","355571","0.0-11.0-1.18","null","<p>A másik játékos ezt választotta: <b>spülűdzöm</b>.</p><p>&#x2705;</p><p>A te válaszod és a másik játékos válasza <b>megegyeznek</b>.</p>","null","","","","feedback trial","",""
"html-button-response-esp","49","360189","0.0-11.0-0.19","3598","Te bizony sokat prínylasz. Én is sokat...","0","prínylok","[""prínylok"",""prínylom""]","prínylom","esp trial","7","false"
"html-button-response","50","363713","0.0-11.0-1.19","null","<p>A másik játékos ezt választotta: <b>prínylom</b>.</p><p>&#10060;</p><p>A válaszaitok <b>nem</b> egyeznek meg.</p>","null","","","","feedback trial","",""
"html-button-response-esp","51","368338","0.0-11.0-0.20","2339","Te bizony sokat rokszol. Én is sokat...","0","rokszom","[""rokszom"",""rokszok""]","rokszom","esp trial","7","true"
"html-button-response","52","371867","0.0-11.0-1.20","null","<p>A másik játékos ezt választotta: <b>rokszom</b>.</p><p>&#x2705;</p><p>A te válaszod és a másik játékos válasza <b>megegyeznek</b>.</p>","null","","","","feedback trial","",""
"html-button-response-esp","53","376484","0.0-11.0-0.21","3301","Te bizony sokat flitlasz. Én is sokat...","1","flitlom","[""flitlok"",""flitlom""]","flitlok","esp trial","7","false"
"html-button-response","54","380007","0.0-11.0-1.21","null","<p>A másik játékos ezt választotta: <b>flitlok</b>.</p><p>&#10060;</p><p>A válaszaitok <b>nem</b> egyeznek meg.</p>","null","","","","feedback trial","",""
"html-button-response-esp","55","384893","0.0-11.0-0.22","4370","Te bizony sokat vülődzöl. Én is sokat...","1","vülődzöm","[""vülődzök"",""vülődzöm""]","vülődzöm","esp trial","7","true"
"html-button-response","56","388418","0.0-11.0-1.22","null","<p>A másik játékos ezt választotta: <b>vülődzöm</b>.</p><p>&#x2705;</p><p>A te válaszod és a másik játékos válasza <b>megegyeznek</b>.</p>","null","","","","feedback trial","",""
"html-button-response-esp","57","393059","0.0-11.0-0.23","3133","Te bizony sokat hurjorzol. Én is sokat...","1","hurjorzom","[""hurjorzok"",""hurjorzom""]","hurjorzom","esp trial","7","true"
"html-button-response","58","396581","0.0-11.0-1.23","null","<p>A másik játékos ezt választotta: <b>hurjorzom</b>.</p><p>&#x2705;</p><p>A te válaszod és a másik játékos válasza <b>megegyeznek</b>.</p>","null","","","","feedback trial","",""
"html-button-response-esp","59","401208","0.0-11.0-0.24","2783","Te bizony sokat bivégszel. Én is sokat...","0","bivégszem","[""bivégszem"",""bivégszek""]","bivégszem","esp trial","7","true"
"html-button-response","60","404749","0.0-11.0-1.24","null","<p>A másik játékos ezt választotta: <b>bivégszem</b>.</p><p>&#x2705;</p><p>A te válaszod és a másik játékos válasza <b>megegyeznek</b>.</p>","null","","","","feedback trial","",""
"html-button-response-esp","61","409379","0.0-11.0-0.25","3519","Te bizony sokat jonylasz. Én is sokat...","0","jonylom","[""jonylom"",""jonylok""]","jonylok","esp trial","7","false"
"html-button-response","62","412893","0.0-11.0-1.25","null","<p>A másik játékos ezt választotta: <b>jonylok</b>.</p><p>&#10060;</p><p>A válaszaitok <b>nem</b> egyeznek meg.</p>","null","","","","feedback trial","",""
"html-button-response-esp","63","417536","0.0-11.0-0.26","2877","Te bizony sokat klivaslasz. Én is sokat...","1","klivaslom","[""klivaslok"",""klivaslom""]","klivaslok","esp trial","7","false"
"html-button-response","64","421052","0.0-11.0-1.26","null","<p>A másik játékos ezt választotta: <b>klivaslok</b>.</p><p>&#10060;</p><p>A válaszaitok <b>nem</b> egyeznek meg.</p>","null","","","","feedback trial","",""
"html-button-response-esp","65","427554","0.0-11.0-0.27","5987","Te bizony sokat pítszol. Én is sokat...","1","pítszom","[""pítszok"",""pítszom""]","pítszom","esp trial","7","true"
"html-button-response","66","431075","0.0-11.0-1.27","null","<p>A másik játékos ezt választotta: <b>pítszom</b>.</p><p>&#x2705;</p><p>A te válaszod és a másik játékos válasza <b>megegyeznek</b>.</p>","null","","","","feedback trial","",""
"html-button-response-esp","67","435703","0.0-11.0-0.28","4020","Te bizony sokat spubonylasz. Én is sokat...","0","spubonylok","[""spubonylok"",""spubonylom""]","spubonylok","esp trial","7","true"
"html-button-response","68","439233","0.0-11.0-1.28","null","<p>A másik játékos ezt választotta: <b>spubonylok</b>.</p><p>&#x2705;</p><p>A te válaszod és a másik játékos válasza <b>megegyeznek</b>.</p>","null","","","","feedback trial","",""
"html-button-response-esp","69","444618","0.0-11.0-0.29","4873","Te bizony sokat flehénylesz. Én is sokat...","1","flehénylek","[""flehénylem"",""flehénylek""]","flehénylek","esp trial","7","true"
"html-button-response","70","448132","0.0-11.0-1.29","null","<p>A másik játékos ezt választotta: <b>flehénylek</b>.</p><p>&#x2705;</p><p>A te válaszod és a másik játékos válasza <b>megegyeznek</b>.</p>","null","","","","feedback trial","",""
"html-button-response-esp","71","453532","0.0-11.0-0.30","4884","Te bizony sokat plűbzöl. Én is sokat...","1","plűbzök","[""plűbzöm"",""plűbzök""]","plűbzöm","esp trial","7","false"
"html-button-response","72","457053","0.0-11.0-1.30","null","<p>A másik játékos ezt választotta: <b>plűbzöm</b>.</p><p>&#10060;</p><p>A válaszaitok <b>nem</b> egyeznek meg.</p>","null","","","","feedback trial","",""
"html-button-response-esp","73","461684","0.0-11.0-0.31","2939","Te bizony sokat pribemlesz. Én is sokat...","1","pribemlek","[""pribemlem"",""pribemlek""]","pribemlek","esp trial","7","true"
"html-button-response","74","465205","0.0-11.0-1.31","null","<p>A másik játékos ezt választotta: <b>pribemlek</b>.</p><p>&#x2705;</p><p>A te válaszod és a másik játékos válasza <b>megegyeznek</b>.</p>","null","","","","feedback trial","",""
"html-button-response-esp","75","469831","0.0-11.0-0.32","3672","Te bizony sokat düjzöl. Én is sokat...","0","düjzöm","[""düjzöm"",""düjzök""]","düjzöm","esp trial","7","true"
"html-button-response","76","473351","0.0-11.0-1.32","null","<p>A másik játékos ezt választotta: <b>düjzöm</b>.</p><p>&#x2705;</p><p>A te válaszod és a másik játékos válasza <b>megegyeznek</b>.</p>","null","","","","feedback trial","",""
"html-button-response-esp","77","477986","0.0-11.0-0.33","2256","Te bizony sokat trádlasz. Én is sokat...","0","trádlok","[""trádlok"",""trádlom""]","trádlom","esp trial","7","false"
"html-button-response","78","481509","0.0-11.0-1.33","null","<p>A másik játékos ezt választotta: <b>trádlom</b>.</p><p>&#10060;</p><p>A válaszaitok <b>nem</b> egyeznek meg.</p>","null","","","","feedback trial","",""
"html-button-response-esp","79","487713","0.0-11.0-0.34","5689","Te bizony sokat filágzol. Én is sokat...","0","filágzom","[""filágzom"",""filágzok""]","filágzom","esp trial","7","true"
"html-button-response","80","491241","0.0-11.0-1.34","null","<p>A másik játékos ezt választotta: <b>filágzom</b>.</p><p>&#x2705;</p><p>A te válaszod és a másik játékos válasza <b>megegyeznek</b>.</p>","null","","","","feedback trial","",""
"html-button-response-esp","81","497941","0.0-11.0-0.35","6185","Te bizony sokat frodlasz. Én is sokat...","0","frodlok","[""frodlok"",""frodlom""]","frodlom","esp trial","7","false"
"html-button-response","82","501467","0.0-11.0-1.35","null","<p>A másik játékos ezt választotta: <b>frodlom</b>.</p><p>&#10060;</p><p>A válaszaitok <b>nem</b> egyeznek meg.</p>","null","","","","feedback trial","",""
"html-button-response-esp","83","507661","0.0-11.0-0.36","5679","Te bizony sokat trehégszel. Én is sokat...","0","trehégszem","[""trehégszem"",""trehégszek""]","trehégszem","esp trial","7","true"
"html-button-response","84","511193","0.0-11.0-1.36","null","<p>A másik játékos ezt választotta: <b>trehégszem</b>.</p><p>&#x2705;</p><p>A te válaszod és a másik játékos válasza <b>megegyeznek</b>.</p>","null","","","","feedback trial","",""
"html-button-response-esp","85","515826","0.0-11.0-0.37","2816","Te bizony sokat plugzol. Én is sokat...","1","plugzom","[""plugzok"",""plugzom""]","plugzom","esp trial","7","true"
"html-button-response","86","519355","0.0-11.0-1.37","null","<p>A másik játékos ezt választotta: <b>plugzom</b>.</p><p>&#x2705;</p><p>A te válaszod és a másik játékos válasza <b>megegyeznek</b>.</p>","null","","","","feedback trial","",""
"html-button-response-esp","87","524755","0.0-11.0-0.38","4887","Te bizony sokat sztrozlasz. Én is sokat...","0","sztrozlok","[""sztrozlok"",""sztrozlom""]","sztrozlom","esp trial","7","false"
"html-button-response","88","528278","0.0-11.0-1.38","null","<p>A másik játékos ezt választotta: <b>sztrozlom</b>.</p><p>&#10060;</p><p>A válaszaitok <b>nem</b> egyeznek meg.</p>","null","","","","feedback trial","",""
"html-button-response-esp","89","533591","0.0-11.0-0.39","4789","Te bizony sokat nűröklesz. Én is sokat...","1","nűröklök","[""nűröklöm"",""nűröklök""]","nűröklöm","esp trial","7","false"
"html-button-response","90","537118","0.0-11.0-1.39","null","<p>A másik játékos ezt választotta: <b>nűröklöm</b>.</p><p>&#10060;</p><p>A válaszaitok <b>nem</b> egyeznek meg.</p>","null","","","","feedback trial","",""
"html-button-response-esp","91","541758","0.0-11.0-0.40","2925","Te bizony sokat bihánylasz. Én is sokat...","0","bihánylok","[""bihánylok"",""bihánylom""]","bihánylok","esp trial","7","true"
"html-button-response","92","545277","0.0-11.0-1.40","null","<p>A másik játékos ezt választotta: <b>bihánylok</b>.</p><p>&#x2705;</p><p>A te válaszod és a másik játékos válasza <b>megegyeznek</b>.</p>","null","","","","feedback trial","",""
"html-button-response-esp","93","551571","0.0-11.0-0.41","5788","Te bizony sokat rájzol. Én is sokat...","0","rájzok","[""rájzok"",""rájzom""]","rájzom","esp trial","7","false"
"html-button-response","94","555110","0.0-11.0-1.41","null","<p>A másik játékos ezt választotta: <b>rájzom</b>.</p><p>&#10060;</p><p>A válaszaitok <b>nem</b> egyeznek meg.</p>","null","","","","feedback trial","",""
"html-button-response-esp","95","559748","0.0-11.0-0.42","2337","Te bizony sokat huroslasz. Én is sokat...","1","huroslok","[""huroslom"",""huroslok""]","huroslok","esp trial","7","true"
"html-button-response","96","563259","0.0-11.0-1.42","null","<p>A másik játékos ezt választotta: <b>huroslok</b>.</p><p>&#x2705;</p><p>A te válaszod és a másik játékos válasza <b>megegyeznek</b>.</p>","null","","","","feedback trial","",""
"html-button-response-esp","97","567881","0.0-11.0-0.43","2357","Te bizony sokat hűgzöl. Én is sokat...","0","hűgzök","[""hűgzök"",""hűgzöm""]","hűgzöm","esp trial","7","false"
"html-button-response","98","571399","0.0-11.0-1.43","null","<p>A másik játékos ezt választotta: <b>hűgzöm</b>.</p><p>&#10060;</p><p>A válaszaitok <b>nem</b> egyeznek meg.</p>","null","","","","feedback trial","",""
"html-button-response-esp","99","576028","0.0-11.0-0.44","2484","Te bizony sokat salárzol. Én is sokat...","1","salárzom","[""salárzok"",""salárzom""]","salárzom","esp trial","7","true"
"html-button-response","100","579558","0.0-11.0-1.44","null","<p>A másik játékos ezt választotta: <b>salárzom</b>.</p><p>&#x2705;</p><p>A te válaszod és a másik játékos válasza <b>megegyeznek</b>.</p>","null","","","","feedback trial","",""
"html-button-response-esp","101","584200","0.0-11.0-0.45","3964","Te bizony sokat pribagszol. Én is sokat...","0","pribagszom","[""pribagszom"",""pribagszok""]","pribagszom","esp trial","7","true"
"html-button-response","102","587719","0.0-11.0-1.45","null","<p>A másik játékos ezt választotta: <b>pribagszom</b>.</p><p>&#x2705;</p><p>A te válaszod és a másik játékos válasza <b>megegyeznek</b>.</p>","null","","","","feedback trial","",""
"html-button-response-esp","103","592941","0.0-11.0-0.46","4714","Te bizony sokat klaráglasz. Én is sokat...","1","klaráglom","[""klaráglok"",""klaráglom""]","klaráglok","esp trial","7","false"
"html-button-response","104","596454","0.0-11.0-1.46","null","<p>A másik játékos ezt választotta: <b>klaráglok</b>.</p><p>&#10060;</p><p>A válaszaitok <b>nem</b> egyeznek meg.</p>","null","","","","feedback trial","",""
"html-button-response-esp","105","601100","0.0-11.0-0.47","2815","Te bizony sokat szibánylasz. Én is sokat...","1","szibánylok","[""szibánylom"",""szibánylok""]","szibánylok","esp trial","7","true"
"html-button-response","106","604626","0.0-11.0-1.47","null","<p>A másik játékos ezt választotta: <b>szibánylok</b>.</p><p>&#x2705;</p><p>A te válaszod és a másik játékos válasza <b>megegyeznek</b>.</p>","null","","","","feedback trial","",""
"html-button-response-esp","107","609261","0.0-11.0-0.48","2813","Te bizony sokat bűtszöl. Én is sokat...","0","bűtszöm","[""bűtszöm"",""bűtszök""]","bűtszöm","esp trial","7","true"
"html-button-response","108","612782","0.0-11.0-1.48","null","<p>A másik játékos ezt választotta: <b>bűtszöm</b>.</p><p>&#x2705;</p><p>A te válaszod és a másik játékos válasza <b>megegyeznek</b>.</p>","null","","","","feedback trial","",""
"html-button-response-esp","109","618925","0.0-11.0-0.49","5621","Te bizony sokat flátszol. Én is sokat...","1","flátszom","[""flátszok"",""flátszom""]","flátszom","esp trial","7","true"
"html-button-response","110","622447","0.0-11.0-1.49","null","<p>A másik játékos ezt választotta: <b>flátszom</b>.</p><p>&#x2705;</p><p>A te válaszod és a másik játékos válasza <b>megegyeznek</b>.</p>","null","","","","feedback trial","",""
"html-button-response-esp","111","627085","0.0-11.0-0.50","2658","Te bizony sokat treglesz. Én is sokat...","1","treglek","[""treglem"",""treglek""]","treglek","esp trial","7","true"
"html-button-response","112","630597","0.0-11.0-1.50","null","<p>A másik játékos ezt választotta: <b>treglek</b>.</p><p>&#x2705;</p><p>A te válaszod és a másik játékos válasza <b>megegyeznek</b>.</p>","null","","","","feedback trial","",""
"html-button-response-esp","113","635225","0.0-11.0-0.51","2223","Te bizony sokat klétszel. Én is sokat...","1","klétszem","[""klétszek"",""klétszem""]","klétszem","esp trial","7","true"
"html-button-response","114","638757","0.0-11.0-1.51","null","<p>A másik játékos ezt választotta: <b>klétszem</b>.</p><p>&#x2705;</p><p>A te válaszod és a másik játékos válasza <b>megegyeznek</b>.</p>","null","","","","feedback trial","",""
"html-button-response-esp","115","643395","0.0-11.0-0.52","3479","Te bizony sokat brobódzol. Én is sokat...","0","brobódzom","[""brobódzom"",""brobódzok""]","brobódzom","esp trial","7","true"
"html-button-response","116","646917","0.0-11.0-1.52","null","<p>A másik játékos ezt választotta: <b>brobódzom</b>.</p><p>&#x2705;</p><p>A te válaszod és a másik játékos válasza <b>megegyeznek</b>.</p>","null","","","","feedback trial","",""
"html-button-response-esp","117","651552","0.0-11.0-0.53","2667","Te bizony sokat flehékszel. Én is sokat...","0","flehékszem","[""flehékszem"",""flehékszek""]","flehékszem","esp trial","7","true"
"html-button-response","118","655075","0.0-11.0-1.53","null","<p>A másik játékos ezt választotta: <b>flehékszem</b>.</p><p>&#x2705;</p><p>A te válaszod és a másik játékos válasza <b>megegyeznek</b>.</p>","null","","","","feedback trial","",""
"html-button-response","119","662863","0.0-12.0","7276","<p>A közös játék most véget ért.</p><p>Mielőtt eláruljuk a végső pontszámodat, arra kérlek, játszd a szóválasztós játékot néhány percig egyedül is.</p><p>A feladatod ugyanaz lesz, választani két lehetőség közül.</p><p>Most viszont egyedül kell döntened, hogy te melyiket választanád.</p>","0","","","","","",""
"html-button-response-clever","120","667696","0.0-13.0-0.0","4310","Te bizony sokat brarlasz. Én is sokat...","0","brarlok","[""brarlok"",""brarlom""]","","posttest trial","8",""
"html-button-response-clever","121","670306","0.0-13.0-0.1","2088","Te bizony sokat pugoslasz. Én is sokat...","0","pugoslok","[""pugoslok"",""pugoslom""]","","posttest trial","8",""
"html-button-response-clever","122","675304","0.0-13.0-0.2","4491","Te bizony sokat péleslesz. Én is sokat...","0","péleslek","[""péleslek"",""péleslem""]","","posttest trial","8",""
"html-button-response-clever","123","677360","0.0-13.0-0.3","1534","Te bizony sokat sprédlesz. Én is sokat...","0","sprédlek","[""sprédlek"",""sprédlem""]","","posttest trial","8",""
"html-button-response-clever","124","681197","0.0-13.0-0.4","3335","Te bizony sokat klárzol. Én is sokat...","0","klárzok","[""klárzok"",""klárzom""]","","posttest trial","8",""
"html-button-response-clever","125","684263","0.0-13.0-0.5","2554","Te bizony sokat kumlasz. Én is sokat...","1","kumlok","[""kumlom"",""kumlok""]","","posttest trial","8",""
"html-button-response-clever","126","689534","0.0-13.0-0.6","4761","Te bizony sokat fliraklasz. Én is sokat...","1","fliraklok","[""fliraklom"",""fliraklok""]","","posttest trial","8",""
"html-button-response-clever","127","692842","0.0-13.0-0.7","2803","Te bizony sokat trihagzol. Én is sokat...","0","trihagzom","[""trihagzom"",""trihagzok""]","","posttest trial","8",""
"html-button-response-clever","128","696274","0.0-13.0-0.8","2920","Te bizony sokat prezlesz. Én is sokat...","1","prezlek","[""prezlem"",""prezlek""]","","posttest trial","8",""
"html-button-response-clever","129","701527","0.0-13.0-0.9","4751","Te bizony sokat spélszel. Én is sokat...","0","spélszem","[""spélszem"",""spélszek""]","","posttest trial","8",""
"html-button-response-clever","130","705524","0.0-13.0-0.10","3479","Te bizony sokat féjzel. Én is sokat...","0","féjzem","[""féjzem"",""féjzek""]","","posttest trial","8",""
"html-button-response-clever","131","709071","0.0-13.0-0.11","3030","Te bizony sokat gyivádzol. Én is sokat...","0","gyivádzom","[""gyivádzom"",""gyivádzok""]","","posttest trial","8",""
"html-button-response-clever","132","711933","0.0-13.0-0.12","2348","Te bizony sokat tuboklasz. Én is sokat...","1","tuboklok","[""tuboklom"",""tuboklok""]","","posttest trial","8",""
"html-button-response-clever","133","716741","0.0-13.0-0.13","4292","Te bizony sokat fligzol. Én is sokat...","1","fligzok","[""fligzom"",""fligzok""]","","posttest trial","8",""
"html-button-response-clever","134","720933","0.0-13.0-0.14","3690","Te bizony sokat drügzöl. Én is sokat...","0","drügzöm","[""drügzöm"",""drügzök""]","","posttest trial","8",""
"html-button-response-clever","135","725201","0.0-13.0-0.15","3751","Te bizony sokat gyibakszol. Én is sokat...","0","gyibakszom","[""gyibakszom"",""gyibakszok""]","","posttest trial","8",""
"html-button-response-clever","136","729533","0.0-13.0-0.16","3828","Te bizony sokat csólorzol. Én is sokat...","0","csólorzok","[""csólorzok"",""csólorzom""]","","posttest trial","8",""
"html-button-response-clever","137","731925","0.0-13.0-0.17","1884","Te bizony sokat táklasz. Én is sokat...","0","táklok","[""táklok"",""táklom""]","","posttest trial","8",""
"html-button-response-clever","138","734621","0.0-13.0-0.18","2192","Te bizony sokat flibekszel. Én is sokat...","0","flibekszem","[""flibekszem"",""flibekszek""]","","posttest trial","8",""
"html-button-response-clever","139","738593","0.0-13.0-0.19","3463","Te bizony sokat ibáglasz. Én is sokat...","0","ibáglok","[""ibáglok"",""ibáglom""]","","posttest trial","8",""
"html-button-response-clever","140","741509","0.0-13.0-0.20","2399","Te bizony sokat prohódzol. Én is sokat...","0","prohódzok","[""prohódzok"",""prohódzom""]","","posttest trial","8",""
"html-button-response-clever","141","744729","0.0-13.0-0.21","2707","Te bizony sokat floglasz. Én is sokat...","1","floglok","[""floglom"",""floglok""]","","posttest trial","8",""
"html-button-response-clever","142","747857","0.0-13.0-0.22","2617","Te bizony sokat praslasz. Én is sokat...","0","praslom","[""praslom"",""praslok""]","","posttest trial","8",""
"html-button-response-clever","143","751303","0.0-13.0-0.23","2930","Te bizony sokat friszlasz. Én is sokat...","0","friszlok","[""friszlok"",""friszlom""]","","posttest trial","8",""
"html-button-response-clever","144","754837","0.0-13.0-0.24","3011","Te bizony sokat spüszlesz. Én is sokat...","0","spüszlök","[""spüszlök"",""spüszlöm""]","","posttest trial","8",""
"html-button-response-clever","145","760903","0.0-13.0-0.25","5561","Te bizony sokat plövőrzöl. Én is sokat...","1","plövőrzök","[""plövőrzöm"",""plövőrzök""]","","posttest trial","8",""
"html-button-response-clever","146","767463","0.0-13.0-0.26","6037","Te bizony sokat préleglesz. Én is sokat...","1","préleglem","[""préleglek"",""préleglem""]","","posttest trial","8",""
"html-button-response-clever","147","771527","0.0-13.0-0.27","3542","Te bizony sokat spülőrzöl. Én is sokat...","1","spülőrzök","[""spülőrzöm"",""spülőrzök""]","","posttest trial","8",""
"html-button-response-clever","148","773975","0.0-13.0-0.28","1930","Te bizony sokat zödlesz. Én is sokat...","0","zödlök","[""zödlök"",""zödlöm""]","","posttest trial","8",""
"html-button-response-clever","149","776680","0.0-13.0-0.29","2193","Te bizony sokat spatszol. Én is sokat...","0","spatszom","[""spatszom"",""spatszok""]","","posttest trial","8",""
"html-button-response-clever","150","780235","0.0-13.0-0.30","3048","Te bizony sokat plágadzol. Én is sokat...","1","plágadzom","[""plágadzok"",""plágadzom""]","","posttest trial","8",""
"html-button-response-clever","151","783114","0.0-13.0-0.31","2371","Te bizony sokat mékszel. Én is sokat...","0","mékszem","[""mékszem"",""mékszek""]","","posttest trial","8",""
"html-button-response-clever","152","786576","0.0-13.0-0.32","2955","Te bizony sokat flérlesz. Én is sokat...","1","flérlek","[""flérlem"",""flérlek""]","","posttest trial","8",""
"html-button-response-clever","153","789922","0.0-13.0-0.33","2835","Te bizony sokat sprálszol. Én is sokat...","0","sprálszok","[""sprálszok"",""sprálszom""]","","posttest trial","8",""
"html-button-response-clever","154","792719","0.0-13.0-0.34","2291","Te bizony sokat bivejlesz. Én is sokat...","0","bivejlek","[""bivejlek"",""bivejlem""]","","posttest trial","8",""
"html-button-response-clever","155","795722","0.0-13.0-0.35","2488","Te bizony sokat szűslesz. Én is sokat...","1","szűslök","[""szűslöm"",""szűslök""]","","posttest trial","8",""
"html-button-response-clever","156","800036","0.0-13.0-0.36","3801","Te bizony sokat gerénylesz. Én is sokat...","1","gerénylek","[""gerénylem"",""gerénylek""]","","posttest trial","8",""
"html-button-response-clever","157","803210","0.0-13.0-0.37","2662","Te bizony sokat fivénylesz. Én is sokat...","1","fivénylem","[""fivénylek"",""fivénylem""]","","posttest trial","8",""
"html-button-response-clever","158","806532","0.0-13.0-0.38","2802","Te bizony sokat frivajlasz. Én is sokat...","1","frivajlok","[""frivajlom"",""frivajlok""]","","posttest trial","8",""
"html-button-response-clever","159","810018","0.0-13.0-0.39","2968","Te bizony sokat spülöklesz. Én is sokat...","0","spülöklöm","[""spülöklöm"",""spülöklök""]","","posttest trial","8",""
"html-button-response-clever","160","813106","0.0-13.0-0.40","2572","Te bizony sokat spírzol. Én is sokat...","1","spírzok","[""spírzom"",""spírzok""]","","posttest trial","8",""
"html-button-response-clever","161","816811","0.0-13.0-0.41","3196","Te bizony sokat gilárzol. Én is sokat...","0","gilárzok","[""gilárzok"",""gilárzom""]","","posttest trial","8",""
"html-button-response-clever","162","820322","0.0-13.0-0.42","3005","Te bizony sokat klidlasz. Én is sokat...","1","klidlom","[""klidlok"",""klidlom""]","","posttest trial","8",""
"html-button-response-clever","163","823956","0.0-13.0-0.43","3119","Te bizony sokat vűjlesz. Én is sokat...","1","vűjlök","[""vűjlöm"",""vűjlök""]","","posttest trial","8",""
"html-button-response-clever","164","829926","0.0-13.0-0.44","5456","Te bizony sokat spibádzol. Én is sokat...","1","spibádzom","[""spibádzok"",""spibádzom""]","","posttest trial","8",""
"html-button-response-clever","165","833046","0.0-13.0-0.45","2603","Te bizony sokat livaklasz. Én is sokat...","1","livaklok","[""livaklom"",""livaklok""]","","posttest trial","8",""
"html-button-response-clever","166","835696","0.0-13.0-0.46","2132","Te bizony sokat sztruglasz. Én is sokat...","1","sztruglok","[""sztruglom"",""sztruglok""]","","posttest trial","8",""
"html-button-response-clever","167","838250","0.0-13.0-0.47","2051","Te bizony sokat flözlesz. Én is sokat...","1","flözlök","[""flözlöm"",""flözlök""]","","posttest trial","8",""
"html-button-response-clever","168","841275","0.0-13.0-0.48","2518","Te bizony sokat vihepszel. Én is sokat...","1","vihepszek","[""vihepszem"",""vihepszek""]","","posttest trial","8",""
"html-button-response-clever","169","843675","0.0-13.0-0.49","1892","Te bizony sokat aglasz. Én is sokat...","1","aglok","[""aglom"",""aglok""]","","posttest trial","8",""
"html-button-response-clever","170","851390","0.0-13.0-0.50","7195","Te bizony sokat frágapszol. Én is sokat...","1","frágapszok","[""frágapszom"",""frágapszok""]","","posttest trial","8",""
"html-button-response-clever","171","855031","0.0-13.0-0.51","3135","Te bizony sokat prihekszel. Én is sokat...","0","prihekszem","[""prihekszem"",""prihekszek""]","","posttest trial","8",""
"html-button-response-clever","172","858429","0.0-13.0-0.52","2881","Te bizony sokat lihadzol. Én is sokat...","0","lihadzom","[""lihadzom"",""lihadzok""]","","posttest trial","8",""
"html-button-response-clever","173","861329","0.0-13.0-0.53","2398","Te bizony sokat huklasz. Én is sokat...","0","huklok","[""huklok"",""huklom""]","","posttest trial","8",""
"html-button-response","174","869301","0.0-14.0","7466","<p> Vége a játéknak. A teljes pontszámod 35/54.</p><p> Szép munka! &#128526;&#128526;&#128526;</p><p>A Befejezés gomb megnyomása után bezárhatod a böngészőablakot.</p>","0","","","","","",""
"html-keyboard-response","175","874827","0.0-15.0","null","<div class=""message"">
         <p>Egy kis türelmet kérünk, amíg elmentjük az adatokat...</p>
         </div>","null","","","","","",""
