"trial_type","trial_index","time_elapsed","internal_node_id","rt","stimulus","response","response_string","choices","esp_response","trial_kind","list_number","esp_match"
"pavlovia","0","921","0.0-0.0","","","","","","","","",""
"html-button-response","1","56738","0.0-1.0","55315","<p>Kedves Résztvevő! A Budapesti Műszaki és Gazdaságtudományi Egyetem Kognitív Tudományi Tanszékének kutatásában való részvételed kérjük. A kutatásban azt vizsgáljuk, hogy a magyar anyanyelvűek hogyan használnak bizonyos szóalakokat, és hogy milyen képük van arról, hogy mások hogyan használják, hogyan képzik a szavakat. Ez hozzásegít bennünket ahhoz, hogy jobban megértsük, hogyan dolgozza fel és tárolja a nyelvet az emberi agy, és hogyan működnek, hogyan változnak egy adott közösség nyelvi konvenciói.</p><p>A vizsgálat egy rövid számítógépes feladatból fog állni. A kutatásban való részvétel önkéntes, a részvételi szándék bármikor visszavonható. A résztvevők eredményeit név nélkül kezeljük, így nem beazonosíthatók az adatok feldolgozása során. Minden személyes adatot az EU általános adatvédelmi rendeletének (GDPR) megfelelően kezelünk és legfeljebb öt éven belül megsemmisítünk. A vizsgálat jellemzően húsz percet vesz igénybe.</p><p>Kutatásvezető:</p><p>Dr. Rácz Péter, tudományos munkatárs, BME KTT</p><p>e-mail: racz.peter.marton@ttk.bme.hu</p>","0","","","","","",""
"html-button-response","2","158696","0.0-2.0","101448","<p>A kísérletben szavakat fogsz látni. Ezek között lesznek olyanok, amelyeket ismersz, de előfordulhatnak olyanok is, amelyeket nem ismersz, sőt, vannak köztük kitalált szavak is. Minden szónál látni fogsz toldalékolt alakokat. A te feladatod az lesz, hogy minden szóhoz kiválaszd azt a toldalékolt alakot, amely a te számodra ismerősebben, természetesebben hangzik. Rossz válaszok nincsenek, mert van olyan, hogy különböző embereknek más és más szó tűnik jobb választásnak. A választ úgy tudod majd kiválasztani, ha rákattintasz.</p><p>Ebben a szóválasztós játékban egy másik játékossal együtt veszel majd részt. A másik játékos is minden esetben azok közül a lehetőségek közül válogathat, mint te. Kettőtök feladata az, hogy ugyanazt a lehetőséget válasszátok minden esetben. Ahhoz, hogy ez sikerüljön, neked figyelned kell arra, hogy a másik játékos milyen válaszokat ad, és ennek alapján meg kell tippelned, hogyan választ legközelebb. Ha eltalálod, akkor pontot kapsz.</p>","0","","","","","",""
"html-button-response","3","246376","0.0-3.0","87168","<p>Kérjük, olvasd el az alábbi nyilatkozatot, és amennyiben egyetértesz vele, nyomj a Beleegyezés gombra!</p><p>Kijelentem, hogy magyar anyanyelvű személyként önként veszek részt a BME KTT kísérletében. A kutatás céljával és folyamatával kapcsolatban elegendő tájékoztatást kaptam, lehetőségem volt kérdések feltételére, és esetleges kérdéseimre megfelelő válaszokat kaptam. A tájékoztatás alapján elegendő mennyiségű információ áll a rendelkezésemre, hogy eldönthessem, részt kívánok-e venni a kutatásban.</p><p>Tisztában vagyok vele, hogy részvételi szándékomat és adataimat bármikor, indoklás nélkül visszavonhatom.</p><p>Értem és tudomásul veszem, hogy a kutatás tudományos célokat szolgál, és az általam szolgáltatott adatokat a BME kizárólag kutatási célból használja fel. Tudomásul veszem, hogy eredményeimet a többi résztvevő eredményeivel együtt kezelik, így egyéni teljesítményemről visszajelzést, szakvéleményt nem kapok.</p><p>Megértettem, hogy adataim kezelését illetően a BME az EU általános adatvédelmi rendelete (GDPR), a hatályos adatvédelmi törvény és a nemzetközi kutatás-etikai alapelvek szerint jár el. Eredményeim anonim módon kerülnek feldolgozásra, és a kutatás résztvevői az azonosításomra alkalmas adataimat harmadik félnek nem szolgáltatják ki. Engedélyezem a BME számára a jelen kutatásban felvett adataim feldolgozását és tárolását, beleértve azok későbbi kutatásokhoz való felhasználását is. Személyes adataim kezelésével kapcsolatban tájékoztatást kérhetek a kutatás résztvevőitől, az adatkezelés ellen tiltakozhatok, kérhetem személyes adataim helyesbítését, törlését vagy zárolását, valamint jogorvoslatért a Nemzeti Adatvédelmi és Információszabadság Hatósághoz fordulhatok.</p><p>Kijelentem, hogy a kutatásban való részvételem körülményeiről részletes tájékoztatást kaptam, és a feltételeket elfogadom.</p>","0","","","","","",""
"survey-text","4","283265","0.0-4.0","36379","","{""Q0"":""E2P76N"",""Q1"":""férfi"",""Q2"":""2004"",""Q3"":""12""}","","","","","",""
"html-button-response","5","302728","0.0-5.0","18952","<p>Ebben a játékban szavakat kell toldalékolni.</p> <p>Minden körben mutatunk majd egy példamondatot, amiben lesz egy szó.</p> <p>Alatta jön egy második mondat, ezt a mondatot neked kell majd befejezni, ugyanezzel a szóval.</p> <p>Nem biztos, hogy a szó eleve ismerős lesz számodra!</p> <p>Minden mondathoz adunk két lehetőséget, ezeket balra és jobbra látod majd.</p> <p>A játék kb. negyedóráig-húsz percig tart.</p>","0","","","","","",""
"html-button-response","6","333432","0.0-6.0","30190","<p>Nézzünk egy példát!</p> <p>A példamondat: ""János imád fláramolni, ezért sokat fláramlik. Mi ritkán...""</p><p>Neked ezt a mondatot kell befejezned: ""Ti ritkán...""</p><p>A lehetőségek pedig ezek:</p>","0","","","","","",""
"html-button-response","7","342480","0.0-7.0","8536","<p>Nagyon jó.</p><p>Ezt a játékot nem egyedül fogod játszani, hanem egy másik játékossal.</p><p>Mielőtt továbblépünk, összekapcsolunk titeket egymással.</p><p>Ez igénybe vehet néhány másodpercet, amihez szíves türelmed kérjük.</p>","0","","","","","",""
"html-button-response","8","348218","0.0-8.0","null","<p>Csatlakozás a másik játékoshoz...</p>","null","","","","","",""
"html-button-response","9","350720","0.0-9.0","null","<p> Sikeres kapcsolódás!</p>","null","","","","","",""
"html-button-response","10","361222","0.0-10.0","null","<p>A következőkben ketten játsszátok a szóválasztós játékot.</p><p>A feladatotok az lesz, hogy minden körben <b>ugyanazt</b> a szót válasszátok.</p><p>Minden ilyen egyező válaszért pontot kaptok.</p><p>Próbáld meg kitalálni, mit választ a másik játékos!</p><p>Bármikor választhatsz, a körnek akkor van vége, ha mindketten döntöttetek.</p><p>Sok sikert!</p>","null","","","","","",""
"html-button-response-esp","11","369960","0.0-11.0-0.0","8235","János imád flézezni, ezért sokat flézlik. Ti ritkán...","0","flézeztek","[""flézeztek"",""flézletek""]","flézeztek","esp trial","9","true"
"html-button-response","12","373471","0.0-11.0-1.0","null","<p>A másik játékos ezt választotta: <b>flézeztek</b>.</p><p>&#x2705;</p><p>A te válaszod és a másik játékos válasza <b>megegyeznek</b>.</p>","null","","","","feedback trial","",""
"html-button-response-esp","13","380056","0.0-11.0-0.1","6083","János imád prazozni, ezért sokat prazlik. Mi ritkán...","0","prazlunk","[""prazlunk"",""prazozunk""]","prazlunk","esp trial","9","true"
"html-button-response","14","383580","0.0-11.0-1.1","null","<p>A másik játékos ezt választotta: <b>prazlunk</b>.</p><p>&#x2705;</p><p>A te válaszod és a másik játékos válasza <b>megegyeznek</b>.</p>","null","","","","feedback trial","",""
"html-button-response-esp","15","389376","0.0-11.0-0.2","5283","János imád fröjözni, ezért sokat fröjlik. Mi ritkán...","1","fröjözünk","[""fröjlünk"",""fröjözünk""]","fröjlünk","esp trial","9","false"
"html-button-response","16","392892","0.0-11.0-1.2","null","<p>A másik játékos ezt választotta: <b>fröjlünk</b>.</p><p>&#10060;</p><p>A válaszaitok <b>nem</b> egyeznek meg.</p>","null","","","","feedback trial","",""
"html-button-response-esp","17","399032","0.0-11.0-0.3","5637","János imád sponyozni, ezért sokat sponylik. Ők ritkán...","1","sponyoznak","[""sponylanak"",""sponyoznak""]","sponylanak","esp trial","9","false"
"html-button-response","18","402535","0.0-11.0-1.3","null","<p>A másik játékos ezt választotta: <b>sponylanak</b>.</p><p>&#10060;</p><p>A válaszaitok <b>nem</b> egyeznek meg.</p>","null","","","","feedback trial","",""
"html-button-response-esp","19","413408","0.0-11.0-0.4","10370","János imád prilepedni, ezért sokat prilepszik. Mi ritkán...","0","prilepedünk","[""prilepedünk"",""prilepszünk""]","prilepszünk","esp trial","9","false"
"html-button-response","20","416912","0.0-11.0-1.4","null","<p>A másik játékos ezt választotta: <b>prilepszünk</b>.</p><p>&#10060;</p><p>A válaszaitok <b>nem</b> egyeznek meg.</p>","null","","","","feedback trial","",""
"html-button-response-esp","21","423240","0.0-11.0-0.5","5827","János imád kluzozni, ezért sokat kluzlik. Ti ritkán...","0","kluzoztok","[""kluzoztok"",""kluzlotok""]","kluzoztok","esp trial","9","true"
"html-button-response","22","426755","0.0-11.0-1.5","null","<p>A másik játékos ezt választotta: <b>kluzoztok</b>.</p><p>&#x2705;</p><p>A te válaszod és a másik játékos válasza <b>megegyeznek</b>.</p>","null","","","","feedback trial","",""
"html-button-response-esp","23","433152","0.0-11.0-0.6","5895","János imád sprigozni, ezért sokat sprigzik. Ti ritkán...","0","sprigoztok","[""sprigoztok"",""sprigzotok""]","sprigoztok","esp trial","9","true"
"html-button-response","24","436667","0.0-11.0-1.6","null","<p>A másik játékos ezt választotta: <b>sprigoztok</b>.</p><p>&#x2705;</p><p>A te válaszod és a másik játékos válasza <b>megegyeznek</b>.</p>","null","","","","feedback trial","",""
"html-button-response-esp","25","441369","0.0-11.0-0.7","3927","János imád vobozni, ezért sokat vobzik. Ti ritkán...","1","vobzotok","[""voboztok"",""vobzotok""]","voboztok","esp trial","9","false"
"html-button-response","26","444885","0.0-11.0-1.7","null","<p>A másik játékos ezt választotta: <b>voboztok</b>.</p><p>&#10060;</p><p>A válaszaitok <b>nem</b> egyeznek meg.</p>","null","","","","feedback trial","",""
"html-button-response-esp","27","451704","0.0-11.0-0.8","6309","János imád dirányozni, ezért sokat diránylik. Ők ritkán...","1","diránylanak","[""dirányoznak"",""diránylanak""]","diránylanak","esp trial","9","true"
"html-button-response","28","455207","0.0-11.0-1.8","null","<p>A másik játékos ezt választotta: <b>diránylanak</b>.</p><p>&#x2705;</p><p>A te válaszod és a másik játékos válasza <b>megegyeznek</b>.</p>","null","","","","feedback trial","",""
"html-button-response-esp","29","461831","0.0-11.0-0.9","6124","János imád pehégedni, ezért sokat pehégszik. Ti ritkán...","0","pehégedtek","[""pehégedtek"",""pehégszetek""]","pehégszetek","esp trial","9","false"
"html-button-response","30","465346","0.0-11.0-1.9","null","<p>A másik játékos ezt választotta: <b>pehégszetek</b>.</p><p>&#10060;</p><p>A válaszaitok <b>nem</b> egyeznek meg.</p>","null","","","","feedback trial","",""
"html-button-response-esp","31","471664","0.0-11.0-0.10","5815","János imád hákodni, ezért sokat hákszik. Ők ritkán...","0","hákszanak","[""hákszanak"",""hákodnak""]","hákszanak","esp trial","9","true"
"html-button-response","32","475181","0.0-11.0-1.10","null","<p>A másik játékos ezt választotta: <b>hákszanak</b>.</p><p>&#x2705;</p><p>A te válaszod és a másik játékos válasza <b>megegyeznek</b>.</p>","null","","","","feedback trial","",""
"html-button-response-esp","33","482639","0.0-11.0-0.11","6946","János imád frivamozni, ezért sokat frivamlik. Mi ritkán...","0","frivamozunk","[""frivamozunk"",""frivamlunk""]","frivamlunk","esp trial","9","false"
"html-button-response","34","486165","0.0-11.0-1.11","null","<p>A másik játékos ezt választotta: <b>frivamlunk</b>.</p><p>&#10060;</p><p>A válaszaitok <b>nem</b> egyeznek meg.</p>","null","","","","feedback trial","",""
"html-button-response-esp","35","490903","0.0-11.0-0.12","4227","János imád frésezni, ezért sokat fréslik. Mi ritkán...","1","fréslünk","[""frésezünk"",""fréslünk""]","fréslünk","esp trial","9","true"
"html-button-response","36","494420","0.0-11.0-1.12","null","<p>A másik játékos ezt választotta: <b>fréslünk</b>.</p><p>&#x2705;</p><p>A te válaszod és a másik játékos válasza <b>megegyeznek</b>.</p>","null","","","","feedback trial","",""
"html-button-response-esp","37","499143","0.0-11.0-0.13","4212","János imád trírozni, ezért sokat trírzik. Mi ritkán...","0","trírzunk","[""trírzunk"",""trírozunk""]","trírzunk","esp trial","9","true"
"html-button-response","38","502655","0.0-11.0-1.13","null","<p>A másik játékos ezt választotta: <b>trírzunk</b>.</p><p>&#x2705;</p><p>A te válaszod és a másik játékos válasza <b>megegyeznek</b>.</p>","null","","","","feedback trial","",""
"html-button-response-esp","39","507365","0.0-11.0-0.14","2373","János imád trűnyözni, ezért sokat trűnylik. Ők ritkán...","0","trűnylenek","[""trűnylenek"",""trűnyöznek""]","trűnylenek","esp trial","9","true"
"html-button-response","40","510892","0.0-11.0-1.14","null","<p>A másik játékos ezt választotta: <b>trűnylenek</b>.</p><p>&#x2705;</p><p>A te válaszod és a másik játékos válasza <b>megegyeznek</b>.</p>","null","","","","feedback trial","",""
"html-button-response-esp","41","515605","0.0-11.0-0.15","3414","János imád tibarozni, ezért sokat tibarzik. Ők ritkán...","0","tibarzanak","[""tibarzanak"",""tibaroznak""]","tibarzanak","esp trial","9","true"
"html-button-response","42","519117","0.0-11.0-1.15","null","<p>A másik játékos ezt választotta: <b>tibarzanak</b>.</p><p>&#x2705;</p><p>A te válaszod és a másik játékos válasza <b>megegyeznek</b>.</p>","null","","","","feedback trial","",""
"html-button-response-esp","43","523827","0.0-11.0-0.16","4038","János imád drivegezni, ezért sokat drivegzik. Ti ritkán...","1","drivegzetek","[""drivegeztek"",""drivegzetek""]","drivegeztek","esp trial","9","false"
"html-button-response","44","527344","0.0-11.0-1.16","null","<p>A másik játékos ezt választotta: <b>drivegeztek</b>.</p><p>&#10060;</p><p>A válaszaitok <b>nem</b> egyeznek meg.</p>","null","","","","feedback trial","",""
"html-button-response-esp","45","532047","0.0-11.0-0.17","3842","János imád míjozni, ezért sokat míjzik. Mi ritkán...","0","míjzunk","[""míjzunk"",""míjozunk""]","míjzunk","esp trial","9","true"
"html-button-response","46","535569","0.0-11.0-1.17","null","<p>A másik játékos ezt választotta: <b>míjzunk</b>.</p><p>&#x2705;</p><p>A te válaszod és a másik játékos válasza <b>megegyeznek</b>.</p>","null","","","","feedback trial","",""
"html-button-response-esp","47","540289","0.0-11.0-0.18","4179","János imád nágapodni, ezért sokat nágapszik. Ők ritkán...","0","nágapszanak","[""nágapszanak"",""nágapodnak""]","nágapszanak","esp trial","9","true"
"html-button-response","48","543814","0.0-11.0-1.18","null","<p>A másik játékos ezt választotta: <b>nágapszanak</b>.</p><p>&#x2705;</p><p>A te válaszod és a másik játékos válasza <b>megegyeznek</b>.</p>","null","","","","feedback trial","",""
"html-button-response-esp","49","548521","0.0-11.0-0.19","3118","János imád drojozni, ezért sokat drojzik. Mi ritkán...","0","drojzunk","[""drojzunk"",""drojozunk""]","drojzunk","esp trial","9","true"
"html-button-response","50","552050","0.0-11.0-1.19","null","<p>A másik játékos ezt választotta: <b>drojzunk</b>.</p><p>&#x2705;</p><p>A te válaszod és a másik játékos válasza <b>megegyeznek</b>.</p>","null","","","","feedback trial","",""
"html-button-response-esp","51","556760","0.0-11.0-0.20","2993","János imád sprimozni, ezért sokat sprimlik. Mi ritkán...","1","sprimlunk","[""sprimozunk"",""sprimlunk""]","sprimlunk","esp trial","9","true"
"html-button-response","52","560275","0.0-11.0-1.20","null","<p>A másik játékos ezt választotta: <b>sprimlunk</b>.</p><p>&#x2705;</p><p>A te válaszod és a másik játékos válasza <b>megegyeznek</b>.</p>","null","","","","feedback trial","",""
"html-button-response-esp","53","564988","0.0-11.0-0.21","2597","János imád brivágozni, ezért sokat briváglik. Ők ritkán...","0","briváglanak","[""briváglanak"",""brivágoznak""]","brivágoznak","esp trial","9","false"
"html-button-response","54","568502","0.0-11.0-1.21","null","<p>A másik játékos ezt választotta: <b>brivágoznak</b>.</p><p>&#10060;</p><p>A válaszaitok <b>nem</b> egyeznek meg.</p>","null","","","","feedback trial","",""
"html-button-response-esp","55","573220","0.0-11.0-0.22","4094","János imád bregezni, ezért sokat bregzik. Mi ritkán...","1","bregzünk","[""bregezünk"",""bregzünk""]","bregzünk","esp trial","9","true"
"html-button-response","56","576735","0.0-11.0-1.22","null","<p>A másik játékos ezt választotta: <b>bregzünk</b>.</p><p>&#x2705;</p><p>A te válaszod és a másik játékos válasza <b>megegyeznek</b>.</p>","null","","","","feedback trial","",""
"html-button-response-esp","57","582176","0.0-11.0-0.23","4938","János imád gibemezni, ezért sokat gibemlik. Mi ritkán...","1","gibemlünk","[""gibemezünk"",""gibemlünk""]","gibemlünk","esp trial","9","true"
"html-button-response","58","585690","0.0-11.0-1.23","null","<p>A másik játékos ezt választotta: <b>gibemlünk</b>.</p><p>&#x2705;</p><p>A te válaszod és a másik játékos válasza <b>megegyeznek</b>.</p>","null","","","","feedback trial","",""
"html-button-response-esp","59","592559","0.0-11.0-0.24","6354","János imád klarágozni, ezért sokat klarágzik. Ti ritkán...","0","klarágzotok","[""klarágzotok"",""klarágoztok""]","klarágoztok","esp trial","9","false"
"html-button-response","60","596081","0.0-11.0-1.24","null","<p>A másik játékos ezt választotta: <b>klarágoztok</b>.</p><p>&#10060;</p><p>A válaszaitok <b>nem</b> egyeznek meg.</p>","null","","","","feedback trial","",""
"html-button-response-esp","61","602367","0.0-11.0-0.25","5785","János imád brilegezni, ezért sokat brilegzik. Mi ritkán...","1","brilegezünk","[""brilegzünk"",""brilegezünk""]","brilegzünk","esp trial","9","false"
"html-button-response","62","605890","0.0-11.0-1.25","null","<p>A másik játékos ezt választotta: <b>brilegzünk</b>.</p><p>&#10060;</p><p>A válaszaitok <b>nem</b> egyeznek meg.</p>","null","","","","feedback trial","",""
"html-button-response-esp","63","614888","0.0-11.0-0.26","8496","János imád brálamozni, ezért sokat brálamlik. Ők ritkán...","1","brálamlanak","[""brálamoznak"",""brálamlanak""]","brálamlanak","esp trial","9","true"
"html-button-response","64","618411","0.0-11.0-1.26","null","<p>A másik játékos ezt választotta: <b>brálamlanak</b>.</p><p>&#x2705;</p><p>A te válaszod és a másik játékos válasza <b>megegyeznek</b>.</p>","null","","","","feedback trial","",""
"html-button-response-esp","65","623112","0.0-11.0-0.27","3920","János imád lumozni, ezért sokat lumlik. Ti ritkán...","1","lumlotok","[""lumoztok"",""lumlotok""]","lumoztok","esp trial","9","false"
"html-button-response","66","626628","0.0-11.0-1.27","null","<p>A másik játékos ezt választotta: <b>lumoztok</b>.</p><p>&#10060;</p><p>A válaszaitok <b>nem</b> egyeznek meg.</p>","null","","","","feedback trial","",""
"html-button-response-esp","67","633175","0.0-11.0-0.28","6047","János imád livényezni, ezért sokat livénylik. Mi ritkán...","1","livénylünk","[""livényezünk"",""livénylünk""]","livénylünk","esp trial","9","true"
"html-button-response","68","636686","0.0-11.0-1.28","null","<p>A másik játékos ezt választotta: <b>livénylünk</b>.</p><p>&#x2705;</p><p>A te válaszod és a másik játékos válasza <b>megegyeznek</b>.</p>","null","","","","feedback trial","",""
"html-button-response-esp","69","644215","0.0-11.0-0.29","7028","János imád tribejezni, ezért sokat tribejlik. Ti ritkán...","1","tribejletek","[""tribejeztek"",""tribejletek""]","tribejeztek","esp trial","9","false"
"html-button-response","70","647720","0.0-11.0-1.29","null","<p>A másik játékos ezt választotta: <b>tribejeztek</b>.</p><p>&#10060;</p><p>A válaszaitok <b>nem</b> egyeznek meg.</p>","null","","","","feedback trial","",""
"html-button-response-esp","71","654191","0.0-11.0-0.30","5970","János imád brivepedni, ezért sokat brivepszik. Mi ritkán...","0","brivepszünk","[""brivepszünk"",""brivepedünk""]","brivepszünk","esp trial","9","true"
"html-button-response","72","657716","0.0-11.0-1.30","null","<p>A másik játékos ezt választotta: <b>brivepszünk</b>.</p><p>&#x2705;</p><p>A te válaszod és a másik játékos válasza <b>megegyeznek</b>.</p>","null","","","","feedback trial","",""
"html-button-response-esp","73","664199","0.0-11.0-0.31","5982","János imád spalározni, ezért sokat spalárzik. Ők ritkán...","1","spalárzanak","[""spalároznak"",""spalárzanak""]","spalárzanak","esp trial","9","true"
"html-button-response","74","667708","0.0-11.0-1.31","null","<p>A másik játékos ezt választotta: <b>spalárzanak</b>.</p><p>&#x2705;</p><p>A te válaszod és a másik játékos válasza <b>megegyeznek</b>.</p>","null","","","","feedback trial","",""
"html-button-response-esp","75","672417","0.0-11.0-0.32","3038","János imád sztrajozni, ezért sokat sztrajlik. Ők ritkán...","0","sztrajlanak","[""sztrajlanak"",""sztrajoznak""]","sztrajlanak","esp trial","9","true"
"html-button-response","76","675940","0.0-11.0-1.32","null","<p>A másik játékos ezt választotta: <b>sztrajlanak</b>.</p><p>&#x2705;</p><p>A te válaszod és a másik játékos válasza <b>megegyeznek</b>.</p>","null","","","","feedback trial","",""
"html-button-response-esp","77","680642","0.0-11.0-0.33","2606","János imád tűgözni, ezért sokat tűgzik. Ti ritkán...","0","tűgzötök","[""tűgzötök"",""tűgöztök""]","tűgzötök","esp trial","9","true"
"html-button-response","78","684164","0.0-11.0-1.33","null","<p>A másik játékos ezt választotta: <b>tűgzötök</b>.</p><p>&#x2705;</p><p>A te válaszod és a másik játékos válasza <b>megegyeznek</b>.</p>","null","","","","feedback trial","",""
"html-button-response-esp","79","688886","0.0-11.0-0.34","3451","János imád pörözni, ezért sokat pörzik. Ti ritkán...","1","pöröztök","[""pörzötök"",""pöröztök""]","pöröztök","esp trial","9","true"
"html-button-response","80","692391","0.0-11.0-1.34","null","<p>A másik játékos ezt választotta: <b>pöröztök</b>.</p><p>&#x2705;</p><p>A te válaszod és a másik játékos válasza <b>megegyeznek</b>.</p>","null","","","","feedback trial","",""
"html-button-response-esp","81","698799","0.0-11.0-0.35","5894","János imád filányozni, ezért sokat filánylik. Mi ritkán...","0","filányozunk","[""filányozunk"",""filánylunk""]","filánylunk","esp trial","9","false"
"html-button-response","82","702311","0.0-11.0-1.35","null","<p>A másik játékos ezt választotta: <b>filánylunk</b>.</p><p>&#10060;</p><p>A válaszaitok <b>nem</b> egyeznek meg.</p>","null","","","","feedback trial","",""
"html-button-response-esp","83","707035","0.0-11.0-0.36","3519","János imád spöközni, ezért sokat spöklik. Mi ritkán...","1","spöklünk","[""spöközünk"",""spöklünk""]","spöklünk","esp trial","9","true"
"html-button-response","84","710564","0.0-11.0-1.36","null","<p>A másik játékos ezt választotta: <b>spöklünk</b>.</p><p>&#x2705;</p><p>A te válaszod és a másik játékos válasza <b>megegyeznek</b>.</p>","null","","","","feedback trial","",""
"html-button-response-esp","85","715752","0.0-11.0-0.37","4687","János imád frihegezni, ezért sokat friheglik. Mi ritkán...","0","frihegezünk","[""frihegezünk"",""friheglünk""]","friheglünk","esp trial","9","false"
"html-button-response","86","719266","0.0-11.0-1.37","null","<p>A másik játékos ezt választotta: <b>friheglünk</b>.</p><p>&#10060;</p><p>A válaszaitok <b>nem</b> egyeznek meg.</p>","null","","","","feedback trial","",""
"html-button-response-esp","87","723979","0.0-11.0-0.38","2560","János imád mísozni, ezért sokat míslik. Mi ritkán...","1","míslunk","[""mísozunk"",""míslunk""]","míslunk","esp trial","9","true"
"html-button-response","88","727496","0.0-11.0-1.38","null","<p>A másik játékos ezt választotta: <b>míslunk</b>.</p><p>&#x2705;</p><p>A te válaszod és a másik játékos válasza <b>megegyeznek</b>.</p>","null","","","","feedback trial","",""
"html-button-response-esp","89","732888","0.0-11.0-0.39","4882","János imád lírozni, ezért sokat lírlik. Ők ritkán...","0","líroznak","[""líroznak"",""lírlanak""]","lírlanak","esp trial","9","false"
"html-button-response","90","736390","0.0-11.0-1.39","null","<p>A másik játékos ezt választotta: <b>lírlanak</b>.</p><p>&#10060;</p><p>A válaszaitok <b>nem</b> egyeznek meg.</p>","null","","","","feedback trial","",""
"html-button-response-esp","91","741093","0.0-11.0-0.40","3747","János imád galározni, ezért sokat galárzik. Ők ritkán...","0","galárzanak","[""galárzanak"",""galároznak""]","galároznak","esp trial","9","false"
"html-button-response","92","744595","0.0-11.0-1.40","null","<p>A másik játékos ezt választotta: <b>galároznak</b>.</p><p>&#10060;</p><p>A válaszaitok <b>nem</b> egyeznek meg.</p>","null","","","","feedback trial","",""
"html-button-response-esp","93","749311","0.0-11.0-0.41","3375","János imád spibamozni, ezért sokat spibamlik. Ők ritkán...","0","spibamoznak","[""spibamoznak"",""spibamlanak""]","spibamlanak","esp trial","9","false"
"html-button-response","94","752816","0.0-11.0-1.41","null","<p>A másik játékos ezt választotta: <b>spibamlanak</b>.</p><p>&#10060;</p><p>A válaszaitok <b>nem</b> egyeznek meg.</p>","null","","","","feedback trial","",""
"html-button-response-esp","95","757534","0.0-11.0-0.42","3398","János imád flubokozni, ezért sokat fluboklik. Ti ritkán...","1","fluboklotok","[""flubokoztok"",""fluboklotok""]","flubokoztok","esp trial","9","false"
"html-button-response","96","761035","0.0-11.0-1.42","null","<p>A másik játékos ezt választotta: <b>flubokoztok</b>.</p><p>&#10060;</p><p>A válaszaitok <b>nem</b> egyeznek meg.</p>","null","","","","feedback trial","",""
"html-button-response-esp","97","765756","0.0-11.0-0.43","3273","János imád gyivepedni, ezért sokat gyivepszik. Ők ritkán...","0","gyivepszenek","[""gyivepszenek"",""gyivepednek""]","gyivepszenek","esp trial","9","true"
"html-button-response","98","769276","0.0-11.0-1.43","null","<p>A másik játékos ezt választotta: <b>gyivepszenek</b>.</p><p>&#x2705;</p><p>A te válaszod és a másik játékos válasza <b>megegyeznek</b>.</p>","null","","","","feedback trial","",""
"html-button-response-esp","99","773996","0.0-11.0-0.44","2339","János imád riványozni, ezért sokat riványlik. Ti ritkán...","1","riványlotok","[""riványoztok"",""riványlotok""]","riványlotok","esp trial","9","true"
"html-button-response","100","777509","0.0-11.0-1.44","null","<p>A másik játékos ezt választotta: <b>riványlotok</b>.</p><p>&#x2705;</p><p>A te válaszod és a másik játékos válasza <b>megegyeznek</b>.</p>","null","","","","feedback trial","",""
"html-button-response-esp","101","782220","0.0-11.0-0.45","2887","János imád brározni, ezért sokat brárlik. Ők ritkán...","0","brárlanak","[""brárlanak"",""brároznak""]","brárlanak","esp trial","9","true"
"html-button-response","102","785723","0.0-11.0-1.45","null","<p>A másik játékos ezt választotta: <b>brárlanak</b>.</p><p>&#x2705;</p><p>A te válaszod és a másik játékos válasza <b>megegyeznek</b>.</p>","null","","","","feedback trial","",""
"html-button-response-esp","103","790439","0.0-11.0-0.46","2930","János imád sztritozni, ezért sokat sztritlik. Ők ritkán...","1","sztritlanak","[""sztritoznak"",""sztritlanak""]","sztritlanak","esp trial","9","true"
"html-button-response","104","793954","0.0-11.0-1.46","null","<p>A másik játékos ezt választotta: <b>sztritlanak</b>.</p><p>&#x2705;</p><p>A te válaszod és a másik játékos válasza <b>megegyeznek</b>.</p>","null","","","","feedback trial","",""
"html-button-response-esp","105","798664","0.0-11.0-0.47","2225","János imád flivegezni, ezért sokat flivegzik. Ők ritkán...","1","flivegeznek","[""flivegzenek"",""flivegeznek""]","flivegeznek","esp trial","9","true"
"html-button-response","106","802179","0.0-11.0-1.47","null","<p>A másik játékos ezt választotta: <b>flivegeznek</b>.</p><p>&#x2705;</p><p>A te válaszod és a másik játékos válasza <b>megegyeznek</b>.</p>","null","","","","feedback trial","",""
"html-button-response-esp","107","807432","0.0-11.0-0.48","4752","János imád gatágozni, ezért sokat gatáglik. Mi ritkán...","1","gatáglunk","[""gatágozunk"",""gatáglunk""]","gatágozunk","esp trial","9","false"
"html-button-response","108","810949","0.0-11.0-1.48","null","<p>A másik játékos ezt választotta: <b>gatágozunk</b>.</p><p>&#10060;</p><p>A válaszaitok <b>nem</b> egyeznek meg.</p>","null","","","","feedback trial","",""
"html-button-response-esp","109","815669","0.0-11.0-0.49","3562","János imád tágarozni, ezért sokat tágarzik. Mi ritkán...","1","tágarzunk","[""tágarozunk"",""tágarzunk""]","tágarzunk","esp trial","9","true"
"html-button-response","110","819191","0.0-11.0-1.49","null","<p>A másik játékos ezt választotta: <b>tágarzunk</b>.</p><p>&#x2705;</p><p>A te válaszod és a másik játékos válasza <b>megegyeznek</b>.</p>","null","","","","feedback trial","",""
"html-button-response-esp","111","823913","0.0-11.0-0.50","2752","János imád küsözni, ezért sokat küslik. Mi ritkán...","1","küslünk","[""küsözünk"",""küslünk""]","küslünk","esp trial","9","true"
"html-button-response","112","827440","0.0-11.0-1.50","null","<p>A másik játékos ezt választotta: <b>küslünk</b>.</p><p>&#x2705;</p><p>A te válaszod és a másik játékos válasza <b>megegyeznek</b>.</p>","null","","","","feedback trial","",""
"html-button-response-esp","113","833944","0.0-11.0-0.51","6002","János imád brüszözni, ezért sokat brüszlik. Ti ritkán...","1","brüszlötök","[""brüszöztök"",""brüszlötök""]","brüszlötök","esp trial","9","true"
"html-button-response","114","837457","0.0-11.0-1.51","null","<p>A másik játékos ezt választotta: <b>brüszlötök</b>.</p><p>&#x2705;</p><p>A te válaszod és a másik játékos válasza <b>megegyeznek</b>.</p>","null","","","","feedback trial","",""
"html-button-response-esp","115","842172","0.0-11.0-0.52","2110","János imád pekedni, ezért sokat pekszik. Mi ritkán...","0","pekszünk","[""pekszünk"",""pekedünk""]","pekszünk","esp trial","9","true"
"html-button-response","116","845692","0.0-11.0-1.52","null","<p>A másik játékos ezt választotta: <b>pekszünk</b>.</p><p>&#x2705;</p><p>A te válaszod és a másik játékos válasza <b>megegyeznek</b>.</p>","null","","","","feedback trial","",""
"html-button-response-esp","117","852760","0.0-11.0-0.53","6566","János imád mihágozni, ezért sokat mihágzik. Ti ritkán...","0","mihágzotok","[""mihágzotok"",""mihágoztok""]","mihágoztok","esp trial","9","false"
"html-button-response","118","856272","0.0-11.0-1.53","null","<p>A másik játékos ezt választotta: <b>mihágoztok</b>.</p><p>&#10060;</p><p>A válaszaitok <b>nem</b> egyeznek meg.</p>","null","","","","feedback trial","",""
"html-button-response","119","869496","0.0-12.0","12710","<p>A közös játék most véget ért.</p><p>Mielőtt eláruljuk a végső pontszámodat, arra kérlek, játszd a szóválasztós játékot néhány percig egyedül is.</p><p>A feladatod ugyanaz lesz, választani két lehetőség közül.</p><p>Most viszont egyedül kell döntened, hogy te melyiket választanád.</p>","0","","","","","",""
"html-button-response-clever","120","878992","0.0-13.0-0.0","8993","János imád sprebezni, ezért sokat sprebzik. Ők ritkán...","0","sprebzenek","[""sprebzenek"",""sprebeznek""]","","posttest trial","1",""
"html-button-response-clever","121","887775","0.0-13.0-0.1","8282","János imád dibágozni, ezért sokat dibáglik. Ti ritkán...","0","dibáglotok","[""dibáglotok"",""dibágoztok""]","","posttest trial","1",""
"html-button-response-clever","122","897367","0.0-13.0-0.2","9089","János imád spuborozni, ezért sokat spuborzik. Ők ritkán...","1","spuboroznak","[""spuborzanak"",""spuboroznak""]","","posttest trial","1",""
"html-button-response-clever","123","907399","0.0-13.0-0.3","9527","János imád játozni, ezért sokat játlik. Mi ritkán...","0","játozunk","[""játozunk"",""játlunk""]","","posttest trial","1",""
"html-button-response-clever","124","914487","0.0-13.0-0.4","6577","János imád frorozni, ezért sokat frorlik. Ők ritkán...","1","froroznak","[""frorlanak"",""froroznak""]","","posttest trial","1",""
"html-button-response-clever","125","922095","0.0-13.0-0.5","7107","János imád ribegedni, ezért sokat ribegszik. Ti ritkán...","1","ribegszetek","[""ribegedtek"",""ribegszetek""]","","posttest trial","1",""
"html-button-response-clever","126","928439","0.0-13.0-0.6","5843","János imád frinyozni, ezért sokat frinylik. Mi ritkán...","0","frinyozunk","[""frinyozunk"",""frinylunk""]","","posttest trial","1",""
"html-button-response-clever","127","936567","0.0-13.0-0.7","7616","János imád nivározni, ezért sokat nivárzik. Ti ritkán...","1","nivároztok","[""nivárzotok"",""nivároztok""]","","posttest trial","1",""
"html-button-response-clever","128","948103","0.0-13.0-0.8","11035","János imád brürözni, ezért sokat brürzik. Ők ritkán...","1","brüröznek","[""brürzenek"",""brüröznek""]","","posttest trial","1",""
"html-button-response-clever","129","954855","0.0-13.0-0.9","6248","János imád pibegezni, ezért sokat pibegzik. Ők ritkán...","0","pibegeznek","[""pibegeznek"",""pibegzenek""]","","posttest trial","1",""
"html-button-response-clever","130","960607","0.0-13.0-0.10","5247","János imád klűmözni, ezért sokat klűmlik. Ti ritkán...","0","klűmöztök","[""klűmöztök"",""klűmlötök""]","","posttest trial","1",""
"html-button-response-clever","131","969415","0.0-13.0-0.11","8301","János imád klihasozni, ezért sokat klihaslik. Ti ritkán...","0","klihasoztok","[""klihasoztok"",""klihaslotok""]","","posttest trial","1",""
"html-button-response-clever","132","976367","0.0-13.0-0.12","6446","János imád bribasozni, ezért sokat bribaslik. Ők ritkán...","1","bribasoznak","[""bribaslanak"",""bribasoznak""]","","posttest trial","1",""
"html-button-response-clever","133","984695","0.0-13.0-0.13","7826","János imád metégedni, ezért sokat metégszik. Ők ritkán...","1","metégszenek","[""metégednek"",""metégszenek""]","","posttest trial","1",""
"html-button-response-clever","134","991863","0.0-13.0-0.14","6667","János imád hiragozni, ezért sokat hiragzik. Ők ritkán...","1","hiragoznak","[""hiragzanak"",""hiragoznak""]","","posttest trial","1",""
"html-button-response-clever","135","999015","0.0-13.0-0.15","6650","János imád bribékedni, ezért sokat bribékszik. Ti ritkán...","0","bribékedtek","[""bribékedtek"",""bribékszetek""]","","posttest trial","1",""
"html-button-response-clever","136","1006934","0.0-13.0-0.16","7416","János imád sűjözni, ezért sokat sűjlik. Mi ritkán...","0","sűjözünk","[""sűjözünk"",""sűjlünk""]","","posttest trial","1",""
"html-button-response-clever","137","1016711","0.0-13.0-0.17","9276","János imád bügözni, ezért sokat bügzik. Ők ritkán...","0","bügöznek","[""bügöznek"",""bügzenek""]","","posttest trial","1",""
"html-button-response-clever","138","1022383","0.0-13.0-0.18","5169","János imád plibozni, ezért sokat plibzik. Ti ritkán...","1","pliboztok","[""plibzotok"",""pliboztok""]","","posttest trial","1",""
"html-button-response-clever","139","1031798","0.0-13.0-0.19","8915","János imád prugorozni, ezért sokat prugorzik. Ti ritkán...","1","prugoroztok","[""prugorzotok"",""prugoroztok""]","","posttest trial","1",""
"html-button-response-clever","140","1040479","0.0-13.0-0.20","8169","János imád klégezni, ezért sokat kléglik. Mi ritkán...","0","klégezünk","[""klégezünk"",""kléglünk""]","","posttest trial","1",""
"html-button-response-clever","141","1046630","0.0-13.0-0.21","5642","János imád trukodni, ezért sokat trukszik. Ti ritkán...","1","trukodtok","[""trukszotok"",""trukodtok""]","","posttest trial","1",""
"html-button-response-clever","142","1056151","0.0-13.0-0.22","9019","János imád flerékedni, ezért sokat flerékszik. Mi ritkán...","1","flerékedünk","[""flerékszünk"",""flerékedünk""]","","posttest trial","1",""
"html-button-response-clever","143","1073551","0.0-13.0-0.23","16899","János imád gihamozni, ezért sokat gihamlik. Ők ritkán...","1","gihamoznak","[""gihamlanak"",""gihamoznak""]","","posttest trial","1",""
"html-button-response-clever","144","1088167","0.0-13.0-0.24","14101","János imád kláragodni, ezért sokat kláragszik. Ti ritkán...","1","kláragodtok","[""kláragszotok"",""kláragodtok""]","","posttest trial","1",""
"html-button-response-clever","145","1095263","0.0-13.0-0.25","6589","János imád tögözni, ezért sokat töglik. Ők ritkán...","1","tögöznek","[""töglenek"",""tögöznek""]","","posttest trial","1",""
"html-button-response-clever","146","1100383","0.0-13.0-0.26","4612","János imád bresezni, ezért sokat breslik. Ők ritkán...","0","breseznek","[""breseznek"",""breslenek""]","","posttest trial","1",""
"html-button-response-clever","147","1115759","0.0-13.0-0.27","14874","János imád vihapodni, ezért sokat vihapszik. Mi ritkán...","1","vihapszunk","[""vihapodunk"",""vihapszunk""]","","posttest trial","1",""
"html-button-response-clever","148","1131015","0.0-13.0-0.28","14755","János imád frirozni, ezért sokat frirzik. Mi ritkán...","0","frirozunk","[""frirozunk"",""frirzunk""]","","posttest trial","1",""
"html-button-response-clever","149","1137847","0.0-13.0-0.29","6322","János imád flodozni, ezért sokat flodlik. Ti ritkán...","0","flodoztok","[""flodoztok"",""flodlotok""]","","posttest trial","1",""
"html-button-response-clever","150","1148175","0.0-13.0-0.30","9819","János imád hubonyozni, ezért sokat hubonylik. Ti ritkán...","1","hubonyoztok","[""hubonylotok"",""hubonyoztok""]","","posttest trial","1",""
"html-button-response-clever","151","1160279","0.0-13.0-0.31","11601","János imád trilekedni, ezért sokat trilekszik. Ti ritkán...","1","trilekedtek","[""trilekszetek"",""trilekedtek""]","","posttest trial","1",""
"html-button-response-clever","152","1167599","0.0-13.0-0.32","6806","János imád brűközni, ezért sokat brűklik. Ti ritkán...","0","brűköztök","[""brűköztök"",""brűklötök""]","","posttest trial","1",""
"html-button-response-clever","153","1173991","0.0-13.0-0.33","5889","János imád flátozni, ezért sokat flátlik. Ti ritkán...","1","flátoztok","[""flátlotok"",""flátoztok""]","","posttest trial","1",""
"html-button-response-clever","154","1180895","0.0-13.0-0.34","6388","János imád vehékedni, ezért sokat vehékszik. Mi ritkán...","0","vehékedünk","[""vehékedünk"",""vehékszünk""]","","posttest trial","1",""
"html-button-response-clever","155","1190390","0.0-13.0-0.35","8995","János imád nurokozni, ezért sokat nuroklik. Mi ritkán...","1","nurokozunk","[""nuroklunk"",""nurokozunk""]","","posttest trial","1",""
"html-button-response-clever","156","1201487","0.0-13.0-0.36","10582","János imád trálodni, ezért sokat trálszik. Mi ritkán...","1","trálodunk","[""trálszunk"",""trálodunk""]","","posttest trial","1",""
"html-button-response-clever","157","1208462","0.0-13.0-0.37","6465","János imád bejezni, ezért sokat bejzik. Mi ritkán...","0","bejezünk","[""bejezünk"",""bejzünk""]","","posttest trial","1",""
"html-button-response-clever","158","1216710","0.0-13.0-0.38","7744","János imád spivejezni, ezért sokat spivejlik. Ők ritkán...","1","spivejeznek","[""spivejlenek"",""spivejeznek""]","","posttest trial","1",""
"html-button-response-clever","159","1228526","0.0-13.0-0.39","11302","János imád géregezni, ezért sokat géreglik. Ti ritkán...","1","géregeztek","[""géregletek"",""géregeztek""]","","posttest trial","1",""
"html-button-response-clever","160","1237310","0.0-13.0-0.40","8279","János imád bötőrözni, ezért sokat bötőrzik. Mi ritkán...","0","bötőrözünk","[""bötőrözünk"",""bötőrzünk""]","","posttest trial","1",""
"html-button-response-clever","161","1251103","0.0-13.0-0.41","13287","János imád frélegezni, ezért sokat frélegzik. Mi ritkán...","1","frélegzünk","[""frélegezünk"",""frélegzünk""]","","posttest trial","1",""
"html-button-response-clever","162","1259070","0.0-13.0-0.42","7454","János imád flugonyozni, ezért sokat flugonylik. Ők ritkán...","1","flugonyoznak","[""flugonylanak"",""flugonyoznak""]","","posttest trial","1",""
"html-button-response-clever","163","1272678","0.0-13.0-0.43","13100","János imád döjözni, ezért sokat döjlik. Ők ritkán...","0","döjlenek","[""döjlenek"",""döjöznek""]","","posttest trial","1",""
"html-button-response-clever","164","1288279","0.0-13.0-0.44","15087","János imád prihegedni, ezért sokat prihegszik. Ők ritkán...","1","prihegednek","[""prihegszenek"",""prihegednek""]","","posttest trial","1",""
"html-button-response-clever","165","1296239","0.0-13.0-0.45","7457","János imád nyizozni, ezért sokat nyizlik. Mi ritkán...","1","nyizozunk","[""nyizlunk"",""nyizozunk""]","","posttest trial","1",""
"html-button-response-clever","166","1308567","0.0-13.0-0.46","11814","János imád dralágozni, ezért sokat dralágzik. Mi ritkán...","1","dralágozunk","[""dralágzunk"",""dralágozunk""]","","posttest trial","1",""
"html-button-response-clever","167","1313478","0.0-13.0-0.47","4399","János imád jurozni, ezért sokat jurlik. Mi ritkán...","1","jurozunk","[""jurlunk"",""jurozunk""]","","posttest trial","1",""
"html-button-response-clever","168","1320799","0.0-13.0-0.48","6812","János imád nyülöközni, ezért sokat nyülöklik. Ők ritkán...","1","nyülököznek","[""nyülöklenek"",""nyülököznek""]","","posttest trial","1",""
"html-button-response-clever","169","1370918","0.0-13.0-0.49","49605","János imád sztredezni, ezért sokat sztredlik. Ti ritkán...","0","sztredeztek","[""sztredeztek"",""sztredletek""]","","posttest trial","1",""
"html-button-response-clever","170","1378710","0.0-13.0-0.50","7288","János imád vilesezni, ezért sokat vileslik. Mi ritkán...","0","vilesezünk","[""vilesezünk"",""vileslünk""]","","posttest trial","1",""
"html-button-response-clever","171","1389006","0.0-13.0-0.51","9795","János imád nyádozni, ezért sokat nyádlik. Ők ritkán...","1","nyádlanak","[""nyádoznak"",""nyádlanak""]","","posttest trial","1",""
"html-button-response-clever","172","1399142","0.0-13.0-0.52","9621","János imád nyöbözni, ezért sokat nyöbzik. Ők ritkán...","1","nyöböznek","[""nyöbzenek"",""nyöböznek""]","","posttest trial","1",""
"html-button-response-clever","173","1406342","0.0-13.0-0.53","6686","János imád trálakozni, ezért sokat trálaklik. Ők ritkán...","1","trálakoznak","[""trálaklanak"",""trálakoznak""]","","posttest trial","1",""
"html-button-response","174","1414342","0.0-14.0","7487","<p> Vége a játéknak. A teljes pontszámod 34/54.</p><p> Szép munka! &#128526;&#128526;&#128526;</p><p>A Befejezés gomb megnyomása után bezárhatod a böngészőablakot.</p>","0","","","","","",""
"html-keyboard-response","175","1419851","0.0-15.0","null","<div class=""message"">
         <p>Egy kis türelmet kérünk, amíg elmentjük az adatokat...</p>
         </div>","null","","","","","",""
