"trial_type","trial_index","time_elapsed","internal_node_id","rt","stimulus","response","response_string","choices","esp_response","trial_kind","list_number","esp_match"
"pavlovia","0","800","0.0-0.0","","","","","","","","",""
"html-button-response","1","22053","0.0-1.0","20749","<p>Kedves Résztvevő! A Budapesti Műszaki és Gazdaságtudományi Egyetem Kognitív Tudományi Tanszékének kutatásában való részvételed kérjük. A kutatásban azt vizsgáljuk, hogy a magyar anyanyelvűek hogyan használnak bizonyos szóalakokat, és hogy milyen képük van arról, hogy mások hogyan használják, hogyan képzik a szavakat. Ez hozzásegít bennünket ahhoz, hogy jobban megértsük, hogyan dolgozza fel és tárolja a nyelvet az emberi agy, és hogyan működnek, hogyan változnak egy adott közösség nyelvi konvenciói.</p><p>A vizsgálat egy rövid számítógépes feladatból fog állni. A kutatásban való részvétel önkéntes, a részvételi szándék bármikor visszavonható. A résztvevők eredményeit név nélkül kezeljük, így nem beazonosíthatók az adatok feldolgozása során. Minden személyes adatot az EU általános adatvédelmi rendeletének (GDPR) megfelelően kezelünk és legfeljebb öt éven belül megsemmisítünk. A vizsgálat jellemzően húsz percet vesz igénybe.</p><p>Kutatásvezető:</p><p>Dr. Rácz Péter, tudományos munkatárs, BME KTT</p><p>e-mail: racz.peter.marton@ttk.bme.hu</p>","0","","","","","",""
"html-button-response","2","62494","0.0-2.0","39936","<p>A kísérletben szavakat fogsz látni. Ezek között lesznek olyanok, amelyeket ismersz, de előfordulhatnak olyanok is, amelyeket nem ismersz, sőt, vannak köztük kitalált szavak is. Minden szónál látni fogsz toldalékolt alakokat. A te feladatod az lesz, hogy minden szóhoz kiválaszd azt a toldalékolt alakot, amely a te számodra ismerősebben, természetesebben hangzik. Rossz válaszok nincsenek, mert van olyan, hogy különböző embereknek más és más szó tűnik jobb választásnak. A választ úgy tudod majd kiválasztani, ha rákattintasz.</p><p>Ebben a szóválasztós játékban egy másik játékossal együtt veszel majd részt. A másik játékos is minden esetben azok közül a lehetőségek közül válogathat, mint te. Kettőtök feladata az, hogy ugyanazt a lehetőséget válasszátok minden esetben. Ahhoz, hogy ez sikerüljön, neked figyelned kell arra, hogy a másik játékos milyen válaszokat ad, és ennek alapján meg kell tippelned, hogyan választ legközelebb. Ha eltalálod, akkor pontot kapsz.</p>","0","","","","","",""
"html-button-response","3","75920","0.0-3.0","12920","<p>Kérjük, olvasd el az alábbi nyilatkozatot, és amennyiben egyetértesz vele, nyomj a Beleegyezés gombra!</p><p>Kijelentem, hogy magyar anyanyelvű személyként önként veszek részt a BME KTT kísérletében. A kutatás céljával és folyamatával kapcsolatban elegendő tájékoztatást kaptam, lehetőségem volt kérdések feltételére, és esetleges kérdéseimre megfelelő válaszokat kaptam. A tájékoztatás alapján elegendő mennyiségű információ áll a rendelkezésemre, hogy eldönthessem, részt kívánok-e venni a kutatásban.</p><p>Tisztában vagyok vele, hogy részvételi szándékomat és adataimat bármikor, indoklás nélkül visszavonhatom.</p><p>Értem és tudomásul veszem, hogy a kutatás tudományos célokat szolgál, és az általam szolgáltatott adatokat a BME kizárólag kutatási célból használja fel. Tudomásul veszem, hogy eredményeimet a többi résztvevő eredményeivel együtt kezelik, így egyéni teljesítményemről visszajelzést, szakvéleményt nem kapok.</p><p>Megértettem, hogy adataim kezelését illetően a BME az EU általános adatvédelmi rendelete (GDPR), a hatályos adatvédelmi törvény és a nemzetközi kutatás-etikai alapelvek szerint jár el. Eredményeim anonim módon kerülnek feldolgozásra, és a kutatás résztvevői az azonosításomra alkalmas adataimat harmadik félnek nem szolgáltatják ki. Engedélyezem a BME számára a jelen kutatásban felvett adataim feldolgozását és tárolását, beleértve azok későbbi kutatásokhoz való felhasználását is. Személyes adataim kezelésével kapcsolatban tájékoztatást kérhetek a kutatás résztvevőitől, az adatkezelés ellen tiltakozhatok, kérhetem személyes adataim helyesbítését, törlését vagy zárolását, valamint jogorvoslatért a Nemzeti Adatvédelmi és Információszabadság Hatósághoz fordulhatok.</p><p>Kijelentem, hogy a kutatásban való részvételem körülményeiről részletes tájékoztatást kaptam, és a feltételeket elfogadom.</p>","0","","","","","",""
"survey-text","4","142640","0.0-4.0","66197","","{""Q0"":""DR1GOX"",""Q1"":""nő"",""Q2"":""2001"",""Q3"":""15""}","","","","","",""
"html-button-response","5","158321","0.0-5.0","15170","<p>Ebben a játékban szavakat kell toldalékolni.</p> <p>Minden körben mutatunk majd egy példamondatot, amiben lesz egy szó.</p> <p>Alatta jön egy második mondat, ezt a mondatot neked kell majd befejezni, ugyanezzel a szóval.</p> <p>Nem biztos, hogy a szó eleve ismerős lesz számodra!</p> <p>Minden mondathoz adunk két lehetőséget, ezeket balra és jobbra látod majd.</p> <p>A játék kb. negyedóráig-húsz percig tart.</p>","0","","","","","",""
"html-button-response","6","170351","0.0-6.0","11520","<p>Nézzünk egy példát!</p> <p>A példamondat: ""János nagyon szeret rancsúrozni.""</p><p>Neked ezt a mondatot kell befejezned: ""Én is szívesen...""</p><p>A lehetőségek pedig ezek:</p>","1","","","","","",""
"html-button-response","7","176500","0.0-7.0","5641","<p>Nagyon jó.</p><p>Ezt a játékot nem egyedül fogod játszani, hanem egy másik játékossal.</p><p>Mielőtt továbblépünk, összekapcsolunk titeket egymással.</p><p>Ez igénybe vehet néhány másodpercet, amihez szíves türelmed kérjük.</p>","0","","","","","",""
"html-button-response","8","182248","0.0-8.0","null","<p>Csatlakozás a másik játékoshoz...</p>","null","","","","","",""
"html-button-response","9","184769","0.0-9.0","null","<p> Sikeres kapcsolódás!</p>","null","","","","","",""
"html-button-response","10","195286","0.0-10.0","null","<p>A következőkben ketten játsszátok a szóválasztós játékot.</p><p>A feladatotok az lesz, hogy minden körben <b>ugyanazt</b> a szót válasszátok.</p><p>Minden ilyen egyező válaszért pontot kaptok.</p><p>Próbáld meg kitalálni, mit választ a másik játékos!</p><p>Bármikor választhatsz, a körnek akkor van vége, ha mindketten döntöttetek.</p><p>Sok sikert!</p>","null","","","","","",""
"html-button-response-esp","11","201756","0.0-11.0-0.0","5953","Te bizony sokat drubódzol. Én is sokat...","1","drubódzom","[""drubódzok"",""drubódzom""]","drubódzom","esp trial","3","true"
"html-button-response","12","205290","0.0-11.0-1.0","null","<p>A másik játékos ezt választotta: <b>drubódzom</b>.</p><p>&#x2705;</p><p>A te válaszod és a másik játékos válasza <b>megegyeznek</b>.</p>","null","","","","feedback trial","",""
"html-button-response-esp","13","211301","0.0-11.0-0.1","4976","Te bizony sokat csíszlasz. Én is sokat...","1","csíszlok","[""csíszlom"",""csíszlok""]","csíszlom","esp trial","3","false"
"html-button-response","14","214827","0.0-11.0-1.1","null","<p>A másik játékos ezt választotta: <b>csíszlom</b>.</p><p>&#10060;</p><p>A válaszaitok <b>nem</b> egyeznek meg.</p>","null","","","","feedback trial","",""
"html-button-response-esp","15","221285","0.0-11.0-0.2","5945","Te bizony sokat bölszöl. Én is sokat...","1","bölszök","[""bölszöm"",""bölszök""]","bölszöm","esp trial","3","false"
"html-button-response","16","224803","0.0-11.0-1.2","null","<p>A másik játékos ezt választotta: <b>bölszöm</b>.</p><p>&#10060;</p><p>A válaszaitok <b>nem</b> egyeznek meg.</p>","null","","","","feedback trial","",""
"html-button-response-esp","17","230833","0.0-11.0-0.3","4070","Te bizony sokat jüslesz. Én is sokat...","1","jüslöm","[""jüslök"",""jüslöm""]","jüslök","esp trial","3","false"
"html-button-response","18","234347","0.0-11.0-1.3","null","<p>A másik játékos ezt választotta: <b>jüslök</b>.</p><p>&#10060;</p><p>A válaszaitok <b>nem</b> egyeznek meg.</p>","null","","","","feedback trial","",""
"html-button-response-esp","19","240372","0.0-11.0-0.4","3895","Te bizony sokat fibamlasz. Én is sokat...","1","fibamlom","[""fibamlok"",""fibamlom""]","fibamlok","esp trial","3","false"
"html-button-response","20","243884","0.0-11.0-1.4","null","<p>A másik játékos ezt választotta: <b>fibamlok</b>.</p><p>&#10060;</p><p>A válaszaitok <b>nem</b> egyeznek meg.</p>","null","","","","feedback trial","",""
"html-button-response-esp","21","249892","0.0-11.0-0.5","5308","Te bizony sokat brágaklasz. Én is sokat...","1","brágaklom","[""brágaklok"",""brágaklom""]","brágaklom","esp trial","3","true"
"html-button-response","22","253408","0.0-11.0-1.5","null","<p>A másik játékos ezt választotta: <b>brágaklom</b>.</p><p>&#x2705;</p><p>A te válaszod és a másik játékos válasza <b>megegyeznek</b>.</p>","null","","","","feedback trial","",""
"html-button-response-esp","23","259428","0.0-11.0-0.6","3949","Te bizony sokat trilszol. Én is sokat...","1","trilszom","[""trilszok"",""trilszom""]","trilszom","esp trial","3","true"
"html-button-response","24","262960","0.0-11.0-1.6","null","<p>A másik játékos ezt választotta: <b>trilszom</b>.</p><p>&#x2705;</p><p>A te válaszod és a másik játékos válasza <b>megegyeznek</b>.</p>","null","","","","feedback trial","",""
"html-button-response-esp","25","268986","0.0-11.0-0.7","4318","Te bizony sokat flűröklesz. Én is sokat...","1","flűröklöm","[""flűröklök"",""flűröklöm""]","flűröklöm","esp trial","3","true"
"html-button-response","26","272519","0.0-11.0-1.7","null","<p>A másik játékos ezt választotta: <b>flűröklöm</b>.</p><p>&#x2705;</p><p>A te válaszod és a másik játékos válasza <b>megegyeznek</b>.</p>","null","","","","feedback trial","",""
"html-button-response-esp","27","278559","0.0-11.0-0.8","4741","Te bizony sokat sűzlesz. Én is sokat...","1","sűzlöm","[""sűzlök"",""sűzlöm""]","sűzlöm","esp trial","3","true"
"html-button-response","28","282085","0.0-11.0-1.8","null","<p>A másik játékos ezt választotta: <b>sűzlöm</b>.</p><p>&#x2705;</p><p>A te válaszod és a másik játékos válasza <b>megegyeznek</b>.</p>","null","","","","feedback trial","",""
"html-button-response-esp","29","288173","0.0-11.0-0.9","5576","Te bizony sokat marzol. Én is sokat...","1","marzok","[""marzom"",""marzok""]","marzok","esp trial","3","true"
"html-button-response","30","291697","0.0-11.0-1.9","null","<p>A másik játékos ezt választotta: <b>marzok</b>.</p><p>&#x2705;</p><p>A te válaszod és a másik játékos válasza <b>megegyeznek</b>.</p>","null","","","","feedback trial","",""
"html-button-response-esp","31","297716","0.0-11.0-0.10","5209","Te bizony sokat narjárzol. Én is sokat...","1","narjárzom","[""narjárzok"",""narjárzom""]","narjárzom","esp trial","3","true"
"html-button-response","32","301227","0.0-11.0-1.10","null","<p>A másik játékos ezt választotta: <b>narjárzom</b>.</p><p>&#x2705;</p><p>A te válaszod és a másik játékos válasza <b>megegyeznek</b>.</p>","null","","","","feedback trial","",""
"html-button-response-esp","33","307244","0.0-11.0-0.11","5178","Te bizony sokat brüjlesz. Én is sokat...","1","brüjlök","[""brüjlöm"",""brüjlök""]","brüjlök","esp trial","3","true"
"html-button-response","34","310765","0.0-11.0-1.11","null","<p>A másik játékos ezt választotta: <b>brüjlök</b>.</p><p>&#x2705;</p><p>A te válaszod és a másik játékos válasza <b>megegyeznek</b>.</p>","null","","","","feedback trial","",""
"html-button-response-esp","35","316780","0.0-11.0-0.12","5200","Te bizony sokat flagárzol. Én is sokat...","1","flagárzom","[""flagárzok"",""flagárzom""]","flagárzom","esp trial","3","true"
"html-button-response","36","320310","0.0-11.0-1.12","null","<p>A másik játékos ezt választotta: <b>flagárzom</b>.</p><p>&#x2705;</p><p>A te válaszod és a másik játékos válasza <b>megegyeznek</b>.</p>","null","","","","feedback trial","",""
"html-button-response-esp","37","326910","0.0-11.0-0.13","6086","Te bizony sokat pebzel. Én is sokat...","1","pebzem","[""pebzek"",""pebzem""]","pebzem","esp trial","3","true"
"html-button-response","38","330432","0.0-11.0-1.13","null","<p>A másik játékos ezt választotta: <b>pebzem</b>.</p><p>&#x2705;</p><p>A te válaszod és a másik játékos válasza <b>megegyeznek</b>.</p>","null","","","","feedback trial","",""
"html-button-response-esp","39","336459","0.0-11.0-0.14","4165","Te bizony sokat ribzol. Én is sokat...","1","ribzom","[""ribzok"",""ribzom""]","ribzom","esp trial","3","true"
"html-button-response","40","339972","0.0-11.0-1.14","null","<p>A másik játékos ezt választotta: <b>ribzom</b>.</p><p>&#x2705;</p><p>A te válaszod és a másik játékos válasza <b>megegyeznek</b>.</p>","null","","","","feedback trial","",""
"html-button-response-esp","41","349060","0.0-11.0-0.15","8583","Te bizony sokat lorjódzol. Én is sokat...","1","lorjódzok","[""lorjódzom"",""lorjódzok""]","lorjódzom","esp trial","3","false"
"html-button-response","42","352574","0.0-11.0-1.15","null","<p>A másik játékos ezt választotta: <b>lorjódzom</b>.</p><p>&#10060;</p><p>A válaszaitok <b>nem</b> egyeznek meg.</p>","null","","","","feedback trial","",""
"html-button-response-esp","43","358591","0.0-11.0-0.16","3411","Te bizony sokat prilegzel. Én is sokat...","1","prilegzem","[""prilegzek"",""prilegzem""]","prilegzem","esp trial","3","true"
"html-button-response","44","362129","0.0-11.0-1.16","null","<p>A másik játékos ezt választotta: <b>prilegzem</b>.</p><p>&#x2705;</p><p>A te válaszod és a másik játékos válasza <b>megegyeznek</b>.</p>","null","","","","feedback trial","",""
"html-button-response-esp","45","368156","0.0-11.0-0.17","4518","Te bizony sokat spilágzol. Én is sokat...","1","spilágzom","[""spilágzok"",""spilágzom""]","spilágzom","esp trial","3","true"
"html-button-response","46","371677","0.0-11.0-1.17","null","<p>A másik játékos ezt választotta: <b>spilágzom</b>.</p><p>&#x2705;</p><p>A te válaszod és a másik játékos válasza <b>megegyeznek</b>.</p>","null","","","","feedback trial","",""
"html-button-response-esp","47","377699","0.0-11.0-0.18","4810","Te bizony sokat büglesz. Én is sokat...","1","büglök","[""büglöm"",""büglök""]","büglök","esp trial","3","true"
"html-button-response","48","381230","0.0-11.0-1.18","null","<p>A másik játékos ezt választotta: <b>büglök</b>.</p><p>&#x2705;</p><p>A te válaszod és a másik játékos válasza <b>megegyeznek</b>.</p>","null","","","","feedback trial","",""
"html-button-response-esp","49","389372","0.0-11.0-0.19","7629","Te bizony sokat spéslesz. Én is sokat...","0","spéslek","[""spéslek"",""spéslem""]","spéslek","esp trial","3","true"
"html-button-response","50","392900","0.0-11.0-1.19","null","<p>A másik játékos ezt választotta: <b>spéslek</b>.</p><p>&#x2705;</p><p>A te válaszod és a másik játékos válasza <b>megegyeznek</b>.</p>","null","","","","feedback trial","",""
"html-button-response-esp","51","398916","0.0-11.0-0.20","5077","Te bizony sokat hilarzol. Én is sokat...","1","hilarzok","[""hilarzom"",""hilarzok""]","hilarzom","esp trial","3","false"
"html-button-response","52","402450","0.0-11.0-1.20","null","<p>A másik játékos ezt választotta: <b>hilarzom</b>.</p><p>&#10060;</p><p>A válaszaitok <b>nem</b> egyeznek meg.</p>","null","","","","feedback trial","",""
"html-button-response-esp","53","408942","0.0-11.0-0.21","5977","Te bizony sokat siladzol. Én is sokat...","1","siladzok","[""siladzom"",""siladzok""]","siladzom","esp trial","3","false"
"html-button-response","54","412457","0.0-11.0-1.21","null","<p>A másik játékos ezt választotta: <b>siladzom</b>.</p><p>&#10060;</p><p>A válaszaitok <b>nem</b> egyeznek meg.</p>","null","","","","feedback trial","",""
"html-button-response-esp","55","418482","0.0-11.0-0.22","3358","Te bizony sokat feténylesz. Én is sokat...","1","feténylek","[""feténylem"",""feténylek""]","feténylek","esp trial","3","true"
"html-button-response","56","421999","0.0-11.0-1.22","null","<p>A másik játékos ezt választotta: <b>feténylek</b>.</p><p>&#x2705;</p><p>A te válaszod és a másik játékos válasza <b>megegyeznek</b>.</p>","null","","","","feedback trial","",""
"html-button-response-esp","57","428015","0.0-11.0-0.23","3884","Te bizony sokat klibamlasz. Én is sokat...","1","klibamlok","[""klibamlom"",""klibamlok""]","klibamlom","esp trial","3","false"
"html-button-response","58","431525","0.0-11.0-1.23","null","<p>A másik játékos ezt választotta: <b>klibamlom</b>.</p><p>&#10060;</p><p>A válaszaitok <b>nem</b> egyeznek meg.</p>","null","","","","feedback trial","",""
"html-button-response-esp","59","437541","0.0-11.0-0.24","2867","Te bizony sokat nyáslasz. Én is sokat...","1","nyáslok","[""nyáslom"",""nyáslok""]","nyáslom","esp trial","3","false"
"html-button-response","60","441054","0.0-11.0-1.24","null","<p>A másik játékos ezt választotta: <b>nyáslom</b>.</p><p>&#10060;</p><p>A válaszaitok <b>nem</b> egyeznek meg.</p>","null","","","","feedback trial","",""
"html-button-response-esp","61","447069","0.0-11.0-0.25","5260","Te bizony sokat flagánylasz. Én is sokat...","0","flagánylok","[""flagánylok"",""flagánylom""]","flagánylok","esp trial","3","true"
"html-button-response","62","450602","0.0-11.0-1.25","null","<p>A másik játékos ezt választotta: <b>flagánylok</b>.</p><p>&#x2705;</p><p>A te válaszod és a másik játékos válasza <b>megegyeznek</b>.</p>","null","","","","feedback trial","",""
"html-button-response-esp","63","456613","0.0-11.0-0.26","4743","Te bizony sokat málapszol. Én is sokat...","0","málapszom","[""málapszom"",""málapszok""]","málapszom","esp trial","3","true"
"html-button-response","64","460141","0.0-11.0-1.26","null","<p>A másik játékos ezt választotta: <b>málapszom</b>.</p><p>&#x2705;</p><p>A te válaszod és a másik játékos válasza <b>megegyeznek</b>.</p>","null","","","","feedback trial","",""
"html-button-response-esp","65","466169","0.0-11.0-0.27","3538","Te bizony sokat pratánylasz. Én is sokat...","1","pratánylom","[""pratánylok"",""pratánylom""]","pratánylok","esp trial","3","false"
"html-button-response","66","469688","0.0-11.0-1.27","null","<p>A másik játékos ezt választotta: <b>pratánylok</b>.</p><p>&#10060;</p><p>A válaszaitok <b>nem</b> egyeznek meg.</p>","null","","","","feedback trial","",""
"html-button-response-esp","67","475706","0.0-11.0-0.28","3687","Te bizony sokat spatárzol. Én is sokat...","1","spatárzom","[""spatárzok"",""spatárzom""]","spatárzom","esp trial","3","true"
"html-button-response","68","479221","0.0-11.0-1.28","null","<p>A másik játékos ezt választotta: <b>spatárzom</b>.</p><p>&#x2705;</p><p>A te válaszod és a másik játékos válasza <b>megegyeznek</b>.</p>","null","","","","feedback trial","",""
"html-button-response-esp","69","485240","0.0-11.0-0.29","4566","Te bizony sokat szirlasz. Én is sokat...","1","szirlok","[""szirlom"",""szirlok""]","szirlom","esp trial","3","false"
"html-button-response","70","488768","0.0-11.0-1.29","null","<p>A másik játékos ezt választotta: <b>szirlom</b>.</p><p>&#10060;</p><p>A válaszaitok <b>nem</b> egyeznek meg.</p>","null","","","","feedback trial","",""
"html-button-response-esp","71","494792","0.0-11.0-0.30","2923","Te bizony sokat herégszel. Én is sokat...","0","herégszem","[""herégszem"",""herégszek""]","herégszem","esp trial","3","true"
"html-button-response","72","498320","0.0-11.0-1.30","null","<p>A másik játékos ezt választotta: <b>herégszem</b>.</p><p>&#x2705;</p><p>A te válaszod és a másik játékos válasza <b>megegyeznek</b>.</p>","null","","","","feedback trial","",""
"html-button-response-esp","73","504344","0.0-11.0-0.31","3159","Te bizony sokat femlesz. Én is sokat...","0","femlek","[""femlek"",""femlem""]","femlek","esp trial","3","true"
"html-button-response","74","507876","0.0-11.0-1.31","null","<p>A másik játékos ezt választotta: <b>femlek</b>.</p><p>&#x2705;</p><p>A te válaszod és a másik játékos válasza <b>megegyeznek</b>.</p>","null","","","","feedback trial","",""
"html-button-response-esp","75","513892","0.0-11.0-0.32","2847","Te bizony sokat flüröslesz. Én is sokat...","1","flüröslök","[""flüröslöm"",""flüröslök""]","flüröslöm","esp trial","3","false"
"html-button-response","76","517413","0.0-11.0-1.32","null","<p>A másik játékos ezt választotta: <b>flüröslöm</b>.</p><p>&#10060;</p><p>A válaszaitok <b>nem</b> egyeznek meg.</p>","null","","","","feedback trial","",""
"html-button-response-esp","77","523447","0.0-11.0-0.33","4543","Te bizony sokat spibaklasz. Én is sokat...","1","spibaklom","[""spibaklok"",""spibaklom""]","spibaklom","esp trial","3","true"
"html-button-response","78","526976","0.0-11.0-1.33","null","<p>A másik játékos ezt választotta: <b>spibaklom</b>.</p><p>&#x2705;</p><p>A te válaszod és a másik játékos válasza <b>megegyeznek</b>.</p>","null","","","","feedback trial","",""
"html-button-response-esp","79","533002","0.0-11.0-0.34","3025","Te bizony sokat vilakszol. Én is sokat...","0","vilakszom","[""vilakszom"",""vilakszok""]","vilakszom","esp trial","3","true"
"html-button-response","80","536522","0.0-11.0-1.34","null","<p>A másik játékos ezt választotta: <b>vilakszom</b>.</p><p>&#x2705;</p><p>A te válaszod és a másik játékos válasza <b>megegyeznek</b>.</p>","null","","","","feedback trial","",""
"html-button-response-esp","81","546396","0.0-11.0-0.35","9360","Te bizony sokat sprogzol. Én is sokat...","0","sprogzom","[""sprogzom"",""sprogzok""]","sprogzom","esp trial","3","true"
"html-button-response","82","549924","0.0-11.0-1.35","null","<p>A másik játékos ezt választotta: <b>sprogzom</b>.</p><p>&#x2705;</p><p>A te válaszod és a másik játékos válasza <b>megegyeznek</b>.</p>","null","","","","feedback trial","",""
"html-button-response-esp","83","555940","0.0-11.0-0.36","3798","Te bizony sokat tiregzel. Én is sokat...","0","tiregzem","[""tiregzem"",""tiregzek""]","tiregzem","esp trial","3","true"
"html-button-response","84","559455","0.0-11.0-1.36","null","<p>A másik játékos ezt választotta: <b>tiregzem</b>.</p><p>&#x2705;</p><p>A te válaszod és a másik játékos válasza <b>megegyeznek</b>.</p>","null","","","","feedback trial","",""
"html-button-response-esp","85","565473","0.0-11.0-0.37","2969","Te bizony sokat prűrlesz. Én is sokat...","1","prűrlöm","[""prűrlök"",""prűrlöm""]","prűrlök","esp trial","3","false"
"html-button-response","86","569001","0.0-11.0-1.37","null","<p>A másik játékos ezt választotta: <b>prűrlök</b>.</p><p>&#10060;</p><p>A válaszaitok <b>nem</b> egyeznek meg.</p>","null","","","","feedback trial","",""
"html-button-response-esp","87","575025","0.0-11.0-0.38","3994","Te bizony sokat frilegszel. Én is sokat...","0","frilegszem","[""frilegszem"",""frilegszek""]","frilegszem","esp trial","3","true"
"html-button-response","88","578551","0.0-11.0-1.38","null","<p>A másik játékos ezt választotta: <b>frilegszem</b>.</p><p>&#x2705;</p><p>A te válaszod és a másik játékos válasza <b>megegyeznek</b>.</p>","null","","","","feedback trial","",""
"html-button-response-esp","89","584573","0.0-11.0-0.39","4975","Te bizony sokat klörlesz. Én is sokat...","0","klörlök","[""klörlök"",""klörlöm""]","klörlöm","esp trial","3","false"
"html-button-response","90","588097","0.0-11.0-1.39","null","<p>A másik játékos ezt választotta: <b>klörlöm</b>.</p><p>&#10060;</p><p>A válaszaitok <b>nem</b> egyeznek meg.</p>","null","","","","feedback trial","",""
"html-button-response-esp","91","594127","0.0-11.0-0.40","2587","Te bizony sokat tomlasz. Én is sokat...","1","tomlok","[""tomlom"",""tomlok""]","tomlok","esp trial","3","true"
"html-button-response","92","597650","0.0-11.0-1.40","null","<p>A másik játékos ezt választotta: <b>tomlok</b>.</p><p>&#x2705;</p><p>A te válaszod és a másik játékos válasza <b>megegyeznek</b>.</p>","null","","","","feedback trial","",""
"html-button-response-esp","93","603676","0.0-11.0-0.41","3575","Te bizony sokat driládzol. Én is sokat...","1","driládzom","[""driládzok"",""driládzom""]","driládzom","esp trial","3","true"
"html-button-response","94","607198","0.0-11.0-1.41","null","<p>A másik játékos ezt választotta: <b>driládzom</b>.</p><p>&#x2705;</p><p>A te válaszod és a másik játékos válasza <b>megegyeznek</b>.</p>","null","","","","feedback trial","",""
"html-button-response-esp","95","613228","0.0-11.0-0.42","2841","Te bizony sokat sojzol. Én is sokat...","1","sojzom","[""sojzok"",""sojzom""]","sojzom","esp trial","3","true"
"html-button-response","96","616748","0.0-11.0-1.42","null","<p>A másik játékos ezt választotta: <b>sojzom</b>.</p><p>&#x2705;</p><p>A te válaszod és a másik játékos válasza <b>megegyeznek</b>.</p>","null","","","","feedback trial","",""
"html-button-response-esp","97","622758","0.0-11.0-0.43","3048","Te bizony sokat fretszel. Én is sokat...","0","fretszem","[""fretszem"",""fretszek""]","fretszem","esp trial","3","true"
"html-button-response","98","626283","0.0-11.0-1.43","null","<p>A másik játékos ezt választotta: <b>fretszem</b>.</p><p>&#x2705;</p><p>A te válaszod és a másik játékos válasza <b>megegyeznek</b>.</p>","null","","","","feedback trial","",""
"html-button-response-esp","99","632303","0.0-11.0-0.44","4496","Te bizony sokat sprökszöl. Én is sokat...","1","sprökszöm","[""sprökszök"",""sprökszöm""]","sprökszöm","esp trial","3","true"
"html-button-response","100","635827","0.0-11.0-1.44","null","<p>A másik játékos ezt választotta: <b>sprökszöm</b>.</p><p>&#x2705;</p><p>A te válaszod és a másik játékos válasza <b>megegyeznek</b>.</p>","null","","","","feedback trial","",""
"html-button-response-esp","101","641850","0.0-11.0-0.45","3827","Te bizony sokat spűmlesz. Én is sokat...","1","spűmlök","[""spűmlöm"",""spűmlök""]","spűmlök","esp trial","3","true"
"html-button-response","102","645366","0.0-11.0-1.45","null","<p>A másik játékos ezt választotta: <b>spűmlök</b>.</p><p>&#x2705;</p><p>A te válaszod és a másik játékos válasza <b>megegyeznek</b>.</p>","null","","","","feedback trial","",""
"html-button-response-esp","103","651388","0.0-11.0-0.46","4513","Te bizony sokat juszlasz. Én is sokat...","1","juszlok","[""juszlom"",""juszlok""]","juszlom","esp trial","3","false"
"html-button-response","104","654904","0.0-11.0-1.46","null","<p>A másik játékos ezt választotta: <b>juszlom</b>.</p><p>&#10060;</p><p>A válaszaitok <b>nem</b> egyeznek meg.</p>","null","","","","feedback trial","",""
"html-button-response-esp","105","660930","0.0-11.0-0.47","3794","Te bizony sokat piragszol. Én is sokat...","0","piragszom","[""piragszom"",""piragszok""]","piragszom","esp trial","3","true"
"html-button-response","106","664447","0.0-11.0-1.47","null","<p>A másik játékos ezt választotta: <b>piragszom</b>.</p><p>&#x2705;</p><p>A te válaszod és a másik játékos válasza <b>megegyeznek</b>.</p>","null","","","","feedback trial","",""
"html-button-response-esp","107","670469","0.0-11.0-0.48","3762","Te bizony sokat pivegszel. Én is sokat...","1","pivegszem","[""pivegszek"",""pivegszem""]","pivegszem","esp trial","3","true"
"html-button-response","108","673996","0.0-11.0-1.48","null","<p>A másik játékos ezt választotta: <b>pivegszem</b>.</p><p>&#x2705;</p><p>A te válaszod és a másik játékos válasza <b>megegyeznek</b>.</p>","null","","","","feedback trial","",""
"html-button-response-esp","109","680023","0.0-11.0-0.49","4720","Te bizony sokat ribegzel. Én is sokat...","1","ribegzem","[""ribegzek"",""ribegzem""]","ribegzem","esp trial","3","true"
"html-button-response","110","683553","0.0-11.0-1.49","null","<p>A másik játékos ezt választotta: <b>ribegzem</b>.</p><p>&#x2705;</p><p>A te válaszod és a másik játékos válasza <b>megegyeznek</b>.</p>","null","","","","feedback trial","",""
"html-button-response-esp","111","689582","0.0-11.0-0.50","3345","Te bizony sokat böjzöl. Én is sokat...","1","böjzöm","[""böjzök"",""böjzöm""]","böjzöm","esp trial","3","true"
"html-button-response","112","693102","0.0-11.0-1.50","null","<p>A másik játékos ezt választotta: <b>böjzöm</b>.</p><p>&#x2705;</p><p>A te válaszod és a másik játékos válasza <b>megegyeznek</b>.</p>","null","","","","feedback trial","",""
"html-button-response-esp","113","699123","0.0-11.0-0.51","4250","Te bizony sokat ruslasz. Én is sokat...","1","ruslom","[""ruslok"",""ruslom""]","ruslok","esp trial","3","false"
"html-button-response","114","702646","0.0-11.0-1.51","null","<p>A másik játékos ezt választotta: <b>ruslok</b>.</p><p>&#10060;</p><p>A válaszaitok <b>nem</b> egyeznek meg.</p>","null","","","","feedback trial","",""
"html-button-response-esp","115","711665","0.0-11.0-0.52","8509","Te bizony sokat sztremlesz. Én is sokat...","1","sztremlek","[""sztremlem"",""sztremlek""]","sztremlek","esp trial","3","true"
"html-button-response","116","715194","0.0-11.0-1.52","null","<p>A másik játékos ezt választotta: <b>sztremlek</b>.</p><p>&#x2705;</p><p>A te válaszod és a másik játékos válasza <b>megegyeznek</b>.</p>","null","","","","feedback trial","",""
"html-button-response-esp","117","721217","0.0-11.0-0.53","4547","Te bizony sokat tínylasz. Én is sokat...","0","tínylom","[""tínylom"",""tínylok""]","tínylom","esp trial","3","true"
"html-button-response","118","724752","0.0-11.0-1.53","null","<p>A másik játékos ezt választotta: <b>tínylom</b>.</p><p>&#x2705;</p><p>A te válaszod és a másik játékos válasza <b>megegyeznek</b>.</p>","null","","","","feedback trial","",""
"html-button-response","119","733790","0.0-12.0","8527","<p>A közös játék most véget ért.</p><p>Mielőtt eláruljuk a végső pontszámodat, arra kérlek, játszd a szóválasztós játékot néhány percig egyedül is.</p><p>A feladatod ugyanaz lesz, választani két lehetőség közül.</p><p>Most viszont egyedül kell döntened, hogy te melyiket választanád.</p>","0","","","","","",""
"html-button-response-clever","120","740848","0.0-13.0-0.0","6544","Te bizony sokat flűmlesz. Én is sokat...","0","flűmlök","[""flűmlök"",""flűmlöm""]","","posttest trial","4",""
"html-button-response-clever","121","746049","0.0-13.0-0.1","4688","Te bizony sokat szibánylasz. Én is sokat...","0","szibánylok","[""szibánylok"",""szibánylom""]","","posttest trial","4",""
"html-button-response-clever","122","749973","0.0-13.0-0.2","3417","Te bizony sokat treglesz. Én is sokat...","1","treglek","[""treglem"",""treglek""]","","posttest trial","4",""
"html-button-response-clever","123","754381","0.0-13.0-0.3","3903","Te bizony sokat pribagszol. Én is sokat...","1","pribagszom","[""pribagszok"",""pribagszom""]","","posttest trial","4",""
"html-button-response-clever","124","758537","0.0-13.0-0.4","3649","Te bizony sokat jonylasz. Én is sokat...","1","jonylok","[""jonylom"",""jonylok""]","","posttest trial","4",""
"html-button-response-clever","125","762591","0.0-13.0-0.5","3538","Te bizony sokat spubonylasz. Én is sokat...","1","spubonylok","[""spubonylom"",""spubonylok""]","","posttest trial","4",""
"html-button-response-clever","126","766721","0.0-13.0-0.6","3612","Te bizony sokat salárzol. Én is sokat...","0","salárzom","[""salárzom"",""salárzok""]","","posttest trial","4",""
"html-button-response-clever","127","771977","0.0-13.0-0.7","4732","Te bizony sokat flátszol. Én is sokat...","0","flátszom","[""flátszom"",""flátszok""]","","posttest trial","4",""
"html-button-response-clever","128","775769","0.0-13.0-0.8","3283","Te bizony sokat brubzol. Én is sokat...","0","brubzom","[""brubzom"",""brubzok""]","","posttest trial","4",""
"html-button-response-clever","129","780741","0.0-13.0-0.9","4468","Te bizony sokat hurjorzol. Én is sokat...","1","hurjorzok","[""hurjorzom"",""hurjorzok""]","","posttest trial","4",""
"html-button-response-clever","130","792303","0.0-13.0-0.10","11048","Te bizony sokat pribemlesz. Én is sokat...","0","pribemlek","[""pribemlek"",""pribemlem""]","","posttest trial","4",""
"html-button-response-clever","131","817722","0.0-13.0-0.11","24916","Te bizony sokat vanylasz. Én is sokat...","1","vanylok","[""vanylom"",""vanylok""]","","posttest trial","4",""
"html-button-response-clever","132","830226","0.0-13.0-0.12","11993","Te bizony sokat spihemlesz. Én is sokat...","1","spihemlem","[""spihemlek"",""spihemlem""]","","posttest trial","4",""
"html-button-response-clever","133","836816","0.0-13.0-0.13","6069","Te bizony sokat flitlasz. Én is sokat...","1","flitlok","[""flitlom"",""flitlok""]","","posttest trial","4",""
"html-button-response-clever","134","855578","0.0-13.0-0.14","18251","Te bizony sokat trádlasz. Én is sokat...","1","trádlok","[""trádlom"",""trádlok""]","","posttest trial","4",""
"html-button-response-clever","135","866030","0.0-13.0-0.15","9941","Te bizony sokat tragzol. Én is sokat...","0","tragzom","[""tragzom"",""tragzok""]","","posttest trial","4",""
"html-button-response-clever","136","888225","0.0-13.0-0.16","21677","Te bizony sokat flehénylesz. Én is sokat...","1","flehénylem","[""flehénylek"",""flehénylem""]","","posttest trial","4",""
"html-button-response-clever","137","894169","0.0-13.0-0.17","5439","Te bizony sokat bűtszöl. Én is sokat...","1","bűtszök","[""bűtszöm"",""bűtszök""]","","posttest trial","4",""
"html-button-response-clever","138","912745","0.0-13.0-0.18","18059","Te bizony sokat trehégszel. Én is sokat...","1","trehégszem","[""trehégszek"",""trehégszem""]","","posttest trial","4",""
"html-button-response-clever","139","916623","0.0-13.0-0.19","3368","Te bizony sokat sztrozlasz. Én is sokat...","1","sztrozlok","[""sztrozlom"",""sztrozlok""]","","posttest trial","4",""
"html-button-response-clever","140","919845","0.0-13.0-0.20","2710","Te bizony sokat rokszol. Én is sokat...","1","rokszom","[""rokszok"",""rokszom""]","","posttest trial","4",""
"html-button-response-clever","141","951467","0.0-13.0-0.21","31102","Te bizony sokat narádzol. Én is sokat...","1","narádzok","[""narádzom"",""narádzok""]","","posttest trial","4",""
"html-button-response-clever","142","955789","0.0-13.0-0.22","3800","Te bizony sokat spülűdzöl. Én is sokat...","0","spülűdzök","[""spülűdzök"",""spülűdzöm""]","","posttest trial","4",""
"html-button-response-clever","143","1007473","0.0-13.0-0.23","51170","Te bizony sokat frodlasz. Én is sokat...","0","frodlok","[""frodlok"",""frodlom""]","","posttest trial","4",""
"html-button-response-clever","144","1021261","0.0-13.0-0.24","13273","Te bizony sokat spüjzöl. Én is sokat...","1","spüjzök","[""spüjzöm"",""spüjzök""]","","posttest trial","4",""
"html-button-response-clever","145","1025623","0.0-13.0-0.25","3858","Te bizony sokat spáraklasz. Én is sokat...","1","spáraklom","[""spáraklok"",""spáraklom""]","","posttest trial","4",""
"html-button-response-clever","146","1029963","0.0-13.0-0.26","3823","Te bizony sokat klivaslasz. Én is sokat...","1","klivaslom","[""klivaslok"",""klivaslom""]","","posttest trial","4",""
"html-button-response-clever","147","1033045","0.0-13.0-0.27","2572","Te bizony sokat pítszol. Én is sokat...","1","pítszok","[""pítszom"",""pítszok""]","","posttest trial","4",""
"html-button-response-clever","148","1036875","0.0-13.0-0.28","3325","Te bizony sokat figlasz. Én is sokat...","0","figlok","[""figlok"",""figlom""]","","posttest trial","4",""
"html-button-response-clever","149","1040667","0.0-13.0-0.29","3282","Te bizony sokat filágzol. Én is sokat...","1","filágzom","[""filágzok"",""filágzom""]","","posttest trial","4",""
"html-button-response-clever","150","1043827","0.0-13.0-0.30","2642","Te bizony sokat düjzöl. Én is sokat...","1","düjzöm","[""düjzök"",""düjzöm""]","","posttest trial","4",""
"html-button-response-clever","151","1049559","0.0-13.0-0.31","5219","Te bizony sokat spihegzel. Én is sokat...","1","spihegzek","[""spihegzem"",""spihegzek""]","","posttest trial","4",""
"html-button-response-clever","152","1053527","0.0-13.0-0.32","3464","Te bizony sokat ibékszel. Én is sokat...","0","ibékszem","[""ibékszem"",""ibékszek""]","","posttest trial","4",""
"html-button-response-clever","153","1056355","0.0-13.0-0.33","2312","Te bizony sokat hűgzöl. Én is sokat...","1","hűgzök","[""hűgzöm"",""hűgzök""]","","posttest trial","4",""
"html-button-response-clever","154","1059707","0.0-13.0-0.34","2838","Te bizony sokat rájzol. Én is sokat...","1","rájzom","[""rájzok"",""rájzom""]","","posttest trial","4",""
"html-button-response-clever","155","1062797","0.0-13.0-0.35","2578","Te bizony sokat plugzol. Én is sokat...","1","plugzok","[""plugzom"",""plugzok""]","","posttest trial","4",""
"html-button-response-clever","156","1068169","0.0-13.0-0.36","4861","Te bizony sokat sztrűkszöl. Én is sokat...","0","sztrűkszöm","[""sztrűkszöm"",""sztrűkszök""]","","posttest trial","4",""
"html-button-response-clever","157","1081625","0.0-13.0-0.37","12947","Te bizony sokat brobódzol. Én is sokat...","1","brobódzom","[""brobódzok"",""brobódzom""]","","posttest trial","4",""
"html-button-response-clever","158","1084953","0.0-13.0-0.38","2811","Te bizony sokat píjlasz. Én is sokat...","1","píjlok","[""píjlom"",""píjlok""]","","posttest trial","4",""
"html-button-response-clever","159","1088645","0.0-13.0-0.39","3169","Te bizony sokat vülődzöl. Én is sokat...","1","vülődzöm","[""vülődzök"",""vülődzöm""]","","posttest trial","4",""
"html-button-response-clever","160","1094835","0.0-13.0-0.40","5669","Te bizony sokat gyibeslesz. Én is sokat...","0","gyibeslek","[""gyibeslek"",""gyibeslem""]","","posttest trial","4",""
"html-button-response-clever","161","1099381","0.0-13.0-0.41","4039","Te bizony sokat klaráglasz. Én is sokat...","1","klaráglom","[""klaráglok"",""klaráglom""]","","posttest trial","4",""
"html-button-response-clever","162","1104939","0.0-13.0-0.42","5048","Te bizony sokat huroslasz. Én is sokat...","0","huroslok","[""huroslok"",""huroslom""]","","posttest trial","4",""
"html-button-response-clever","163","1109631","0.0-13.0-0.43","4190","Te bizony sokat bivégszel. Én is sokat...","1","bivégszem","[""bivégszek"",""bivégszem""]","","posttest trial","4",""
"html-button-response-clever","164","1113809","0.0-13.0-0.44","3661","Te bizony sokat sztrijzol. Én is sokat...","0","sztrijzok","[""sztrijzok"",""sztrijzom""]","","posttest trial","4",""
"html-button-response-clever","165","1117561","0.0-13.0-0.45","3243","Te bizony sokat klétszel. Én is sokat...","1","klétszek","[""klétszem"",""klétszek""]","","posttest trial","4",""
"html-button-response-clever","166","1120652","0.0-13.0-0.46","2581","Te bizony sokat lörűdzöl. Én is sokat...","1","lörűdzök","[""lörűdzöm"",""lörűdzök""]","","posttest trial","4",""
"html-button-response-clever","167","1124590","0.0-13.0-0.47","3423","Te bizony sokat prínylasz. Én is sokat...","0","prínylok","[""prínylok"",""prínylom""]","","posttest trial","4",""
"html-button-response-clever","168","1130724","0.0-13.0-0.48","5631","Te bizony sokat spröbzöl. Én is sokat...","1","spröbzöm","[""spröbzök"",""spröbzöm""]","","posttest trial","4",""
"html-button-response-clever","169","1137096","0.0-13.0-0.49","5869","Te bizony sokat flehékszel. Én is sokat...","1","flehékszek","[""flehékszem"",""flehékszek""]","","posttest trial","4",""
"html-button-response-clever","170","1140710","0.0-13.0-0.50","3104","Te bizony sokat plűbzöl. Én is sokat...","0","plűbzöm","[""plűbzöm"",""plűbzök""]","","posttest trial","4",""
"html-button-response-clever","171","1143978","0.0-13.0-0.51","2750","Te bizony sokat brivegzel. Én is sokat...","1","brivegzek","[""brivegzem"",""brivegzek""]","","posttest trial","4",""
"html-button-response-clever","172","1148194","0.0-13.0-0.52","3701","Te bizony sokat nűröklesz. Én is sokat...","0","nűröklöm","[""nűröklöm"",""nűröklök""]","","posttest trial","4",""
"html-button-response-clever","173","1151924","0.0-13.0-0.53","3222","Te bizony sokat bihánylasz. Én is sokat...","1","bihánylok","[""bihánylom"",""bihánylok""]","","posttest trial","4",""
"html-button-response","174","1158830","0.0-14.0","6390","<p> Vége a játéknak. A teljes pontszámod 38/54.</p><p> Szép munka! &#128526;&#128526;&#128526;</p><p>A Befejezés gomb megnyomása után bezárhatod a böngészőablakot.</p>","0","","","","","",""
"html-keyboard-response","175","1164362","0.0-15.0","null","<div class=""message"">
         <p>Egy kis türelmet kérünk, amíg elmentjük az adatokat...</p>
         </div>","null","","","","","",""
