"trial_type","trial_index","time_elapsed","internal_node_id","rt","stimulus","response","response_string","choices","esp_response","trial_kind","list_number","esp_match"
"pavlovia","0","744","0.0-0.0","","","","","","","","",""
"html-button-response","1","14158","0.0-1.0","12898","<p>Kedves Résztvevő! A Budapesti Műszaki és Gazdaságtudományi Egyetem Kognitív Tudományi Tanszékének kutatásában való részvételed kérjük. A kutatásban azt vizsgáljuk, hogy a magyar anyanyelvűek hogyan használnak bizonyos szóalakokat, és hogy milyen képük van arról, hogy mások hogyan használják, hogyan képzik a szavakat. Ez hozzásegít bennünket ahhoz, hogy jobban megértsük, hogyan dolgozza fel és tárolja a nyelvet az emberi agy, és hogyan működnek, hogyan változnak egy adott közösség nyelvi konvenciói.</p><p>A vizsgálat egy rövid számítógépes feladatból fog állni. A kutatásban való részvétel önkéntes, a részvételi szándék bármikor visszavonható. A résztvevők eredményeit név nélkül kezeljük, így nem beazonosíthatók az adatok feldolgozása során. Minden személyes adatot az EU általános adatvédelmi rendeletének (GDPR) megfelelően kezelünk és legfeljebb öt éven belül megsemmisítünk. A vizsgálat jellemzően húsz percet vesz igénybe.</p><p>Kutatásvezető:</p><p>Dr. Rácz Péter, tudományos munkatárs, BME KTT</p><p>e-mail: racz.peter.marton@ttk.bme.hu</p>","0","","","","","",""
"html-button-response","2","746811","0.0-2.0","732142","<p>A kísérletben szavakat fogsz látni. Ezek között lesznek olyanok, amelyeket ismersz, de előfordulhatnak olyanok is, amelyeket nem ismersz, sőt, vannak köztük kitalált szavak is. Minden szónál látni fogsz toldalékolt alakokat. A te feladatod az lesz, hogy minden szóhoz kiválaszd azt a toldalékolt alakot, amely a te számodra ismerősebben, természetesebben hangzik. Rossz válaszok nincsenek, mert van olyan, hogy különböző embereknek más és más szó tűnik jobb választásnak. A választ úgy tudod majd kiválasztani, ha rákattintasz.</p><p>Ebben a szóválasztós játékban egy másik játékossal együtt veszel majd részt. A másik játékos is minden esetben azok közül a lehetőségek közül válogathat, mint te. Kettőtök feladata az, hogy ugyanazt a lehetőséget válasszátok minden esetben. Ahhoz, hogy ez sikerüljön, neked figyelned kell arra, hogy a másik játékos milyen válaszokat ad, és ennek alapján meg kell tippelned, hogyan választ legközelebb. Ha eltalálod, akkor pontot kapsz.</p>","0","","","","","",""
"html-button-response","3","752380","0.0-3.0","5054","<p>Kérjük, olvasd el az alábbi nyilatkozatot, és amennyiben egyetértesz vele, nyomj a Beleegyezés gombra!</p><p>Kijelentem, hogy magyar anyanyelvű személyként önként veszek részt a BME KTT kísérletében. A kutatás céljával és folyamatával kapcsolatban elegendő tájékoztatást kaptam, lehetőségem volt kérdések feltételére, és esetleges kérdéseimre megfelelő válaszokat kaptam. A tájékoztatás alapján elegendő mennyiségű információ áll a rendelkezésemre, hogy eldönthessem, részt kívánok-e venni a kutatásban.</p><p>Tisztában vagyok vele, hogy részvételi szándékomat és adataimat bármikor, indoklás nélkül visszavonhatom.</p><p>Értem és tudomásul veszem, hogy a kutatás tudományos célokat szolgál, és az általam szolgáltatott adatokat a BME kizárólag kutatási célból használja fel. Tudomásul veszem, hogy eredményeimet a többi résztvevő eredményeivel együtt kezelik, így egyéni teljesítményemről visszajelzést, szakvéleményt nem kapok.</p><p>Megértettem, hogy adataim kezelését illetően a BME az EU általános adatvédelmi rendelete (GDPR), a hatályos adatvédelmi törvény és a nemzetközi kutatás-etikai alapelvek szerint jár el. Eredményeim anonim módon kerülnek feldolgozásra, és a kutatás résztvevői az azonosításomra alkalmas adataimat harmadik félnek nem szolgáltatják ki. Engedélyezem a BME számára a jelen kutatásban felvett adataim feldolgozását és tárolását, beleértve azok későbbi kutatásokhoz való felhasználását is. Személyes adataim kezelésével kapcsolatban tájékoztatást kérhetek a kutatás résztvevőitől, az adatkezelés ellen tiltakozhatok, kérhetem személyes adataim helyesbítését, törlését vagy zárolását, valamint jogorvoslatért a Nemzeti Adatvédelmi és Információszabadság Hatósághoz fordulhatok.</p><p>Kijelentem, hogy a kutatásban való részvételem körülményeiről részletes tájékoztatást kaptam, és a feltételeket elfogadom.</p>","0","","","","","",""
"survey-text","4","787958","0.0-4.0","35051","","{""Q0"":""DSAM48"",""Q1"":"""",""Q2"":""1995"",""Q3"":""17""}","","","","","",""
"html-button-response","5","1453474","0.0-5.0","665004","<p>Ebben a játékban szavakat kell toldalékolni.</p> <p>Minden körben mutatunk majd egy példamondatot, amiben lesz egy szó.</p> <p>Alatta jön egy második mondat, ezt a mondatot neked kell majd befejezni, ugyanezzel a szóval.</p> <p>Nem biztos, hogy a szó eleve ismerős lesz számodra!</p> <p>Minden mondathoz adunk két lehetőséget, ezeket balra és jobbra látod majd.</p> <p>A játék kb. negyedóráig-húsz percig tart.</p>","0","","","","","",""
"html-button-response","6","1479562","0.0-6.0","25584","<p>Nézzünk egy példát!</p> <p>A példamondat: ""János nagyon szeret rancsúrozni.""</p><p>Neked ezt a mondatot kell befejezned: ""Én is szívesen...""</p><p>A lehetőségek pedig ezek:</p>","0","","","","","",""
"html-button-response","7","1485370","0.0-7.0","5300","<p>Nagyon jó.</p><p>Ezt a játékot nem egyedül fogod játszani, hanem egy másik játékossal.</p><p>Mielőtt továbblépünk, összekapcsolunk titeket egymással.</p><p>Ez igénybe vehet néhány másodpercet, amihez szíves türelmed kérjük.</p>","0","","","","","",""
"html-button-response","8","1491101","0.0-8.0","null","<p>Csatlakozás a másik játékoshoz...</p>","null","","","","","",""
"html-button-response","9","1493626","0.0-9.0","null","<p> Sikeres kapcsolódás!</p>","null","","","","","",""
"html-button-response","10","1502290","0.0-10.0","8152","<p>A következőkben ketten játsszátok a szóválasztós játékot.</p><p>A feladatotok az lesz, hogy minden körben <b>ugyanazt</b> a szót válasszátok.</p><p>Minden ilyen egyező válaszért pontot kaptok.</p><p>Próbáld meg kitalálni, mit választ a másik játékos!</p><p>Bármikor választhatsz, a körnek akkor van vége, ha mindketten döntöttetek.</p><p>Sok sikert!</p>","0","","","","","",""
"html-button-response-esp","11","1512954","0.0-11.0-0.0","10153","Te bizony sokat flagánylasz. Én is sokat...","1","flagánylok","[""flagánylom"",""flagánylok""]","flagánylom","esp trial","0","false"
"html-button-response","12","1516467","0.0-11.0-1.0","null","<p>A másik játékos ezt választotta: <b>flagánylom</b>.</p><p>&#10060;</p><p>A válaszaitok <b>nem</b> egyeznek meg.</p>","null","","","","feedback trial","",""
"html-button-response-esp","13","1522428","0.0-11.0-0.1","5449","Te bizony sokat tomlasz. Én is sokat...","0","tomlok","[""tomlok"",""tomlom""]","tomlom","esp trial","0","false"
"html-button-response","14","1525941","0.0-11.0-1.1","null","<p>A másik játékos ezt választotta: <b>tomlom</b>.</p><p>&#10060;</p><p>A válaszaitok <b>nem</b> egyeznek meg.</p>","null","","","","feedback trial","",""
"html-button-response-esp","15","1530578","0.0-11.0-0.2","3178","Te bizony sokat marzol. Én is sokat...","0","marzom","[""marzom"",""marzok""]","marzom","esp trial","0","true"
"html-button-response","16","1534095","0.0-11.0-1.2","null","<p>A másik játékos ezt választotta: <b>marzom</b>.</p><p>&#x2705;</p><p>A te válaszod és a másik játékos válasza <b>megegyeznek</b>.</p>","null","","","","feedback trial","",""
"html-button-response-esp","17","1538724","0.0-11.0-0.3","3317","Te bizony sokat juszlasz. Én is sokat...","1","juszlom","[""juszlok"",""juszlom""]","juszlok","esp trial","0","false"
"html-button-response","18","1542239","0.0-11.0-1.3","null","<p>A másik játékos ezt választotta: <b>juszlok</b>.</p><p>&#10060;</p><p>A válaszaitok <b>nem</b> egyeznek meg.</p>","null","","","","feedback trial","",""
"html-button-response-esp","19","1551321","0.0-11.0-0.4","8569","Te bizony sokat narjárzol. Én is sokat...","0","narjárzom","[""narjárzom"",""narjárzok""]","narjárzok","esp trial","0","false"
"html-button-response","20","1554841","0.0-11.0-1.4","null","<p>A másik játékos ezt választotta: <b>narjárzok</b>.</p><p>&#10060;</p><p>A válaszaitok <b>nem</b> egyeznek meg.</p>","null","","","","feedback trial","",""
"html-button-response-esp","21","1561266","0.0-11.0-0.5","5912","Te bizony sokat tiregzel. Én is sokat...","1","tiregzek","[""tiregzem"",""tiregzek""]","tiregzek","esp trial","0","true"
"html-button-response","22","1564775","0.0-11.0-1.5","null","<p>A másik játékos ezt választotta: <b>tiregzek</b>.</p><p>&#x2705;</p><p>A te válaszod és a másik játékos válasza <b>megegyeznek</b>.</p>","null","","","","feedback trial","",""
"html-button-response-esp","23","1569946","0.0-11.0-0.6","4658","Te bizony sokat driládzol. Én is sokat...","0","driládzok","[""driládzok"",""driládzom""]","driládzok","esp trial","0","true"
"html-button-response","24","1573457","0.0-11.0-1.6","null","<p>A másik játékos ezt választotta: <b>driládzok</b>.</p><p>&#x2705;</p><p>A te válaszod és a másik játékos válasza <b>megegyeznek</b>.</p>","null","","","","feedback trial","",""
"html-button-response-esp","25","1581218","0.0-11.0-0.7","7252","Te bizony sokat herégszel. Én is sokat...","0","herégszem","[""herégszem"",""herégszek""]","herégszek","esp trial","0","false"
"html-button-response","26","1584733","0.0-11.0-1.7","null","<p>A másik játékos ezt választotta: <b>herégszek</b>.</p><p>&#10060;</p><p>A válaszaitok <b>nem</b> egyeznek meg.</p>","null","","","","feedback trial","",""
"html-button-response-esp","27","1589889","0.0-11.0-0.8","4643","Te bizony sokat fibamlasz. Én is sokat...","0","fibamlok","[""fibamlok"",""fibamlom""]","fibamlom","esp trial","0","false"
"html-button-response","28","1593404","0.0-11.0-1.8","null","<p>A másik játékos ezt választotta: <b>fibamlom</b>.</p><p>&#10060;</p><p>A válaszaitok <b>nem</b> egyeznek meg.</p>","null","","","","feedback trial","",""
"html-button-response-esp","29","1599522","0.0-11.0-0.9","5608","Te bizony sokat jüslesz. Én is sokat...","1","jüslök","[""jüslöm"",""jüslök""]","jüslöm","esp trial","0","false"
"html-button-response","30","1603042","0.0-11.0-1.9","null","<p>A másik játékos ezt választotta: <b>jüslöm</b>.</p><p>&#10060;</p><p>A válaszaitok <b>nem</b> egyeznek meg.</p>","null","","","","feedback trial","",""
"html-button-response-esp","31","1609186","0.0-11.0-0.10","5630","Te bizony sokat sztremlesz. Én is sokat...","0","sztremlem","[""sztremlem"",""sztremlek""]","sztremlem","esp trial","0","true"
"html-button-response","32","1612698","0.0-11.0-1.10","null","<p>A másik játékos ezt választotta: <b>sztremlem</b>.</p><p>&#x2705;</p><p>A te válaszod és a másik játékos válasza <b>megegyeznek</b>.</p>","null","","","","feedback trial","",""
"html-button-response-esp","33","1618882","0.0-11.0-0.11","5682","Te bizony sokat siladzol. Én is sokat...","1","siladzok","[""siladzom"",""siladzok""]","siladzok","esp trial","0","true"
"html-button-response","34","1622394","0.0-11.0-1.11","null","<p>A másik játékos ezt választotta: <b>siladzok</b>.</p><p>&#x2705;</p><p>A te válaszod és a másik játékos válasza <b>megegyeznek</b>.</p>","null","","","","feedback trial","",""
"html-button-response-esp","35","1628314","0.0-11.0-0.12","5418","Te bizony sokat klibamlasz. Én is sokat...","0","klibamlok","[""klibamlok"",""klibamlom""]","klibamlok","esp trial","0","true"
"html-button-response","36","1631833","0.0-11.0-1.12","null","<p>A másik játékos ezt választotta: <b>klibamlok</b>.</p><p>&#x2705;</p><p>A te válaszod és a másik játékos válasza <b>megegyeznek</b>.</p>","null","","","","feedback trial","",""
"html-button-response-esp","37","1637242","0.0-11.0-0.13","4896","Te bizony sokat spéslesz. Én is sokat...","0","spéslem","[""spéslem"",""spéslek""]","spéslem","esp trial","0","true"
"html-button-response","38","1640769","0.0-11.0-1.13","null","<p>A másik játékos ezt választotta: <b>spéslem</b>.</p><p>&#x2705;</p><p>A te válaszod és a másik játékos válasza <b>megegyeznek</b>.</p>","null","","","","feedback trial","",""
"html-button-response-esp","39","1646322","0.0-11.0-0.14","5038","Te bizony sokat feténylesz. Én is sokat...","0","feténylem","[""feténylem"",""feténylek""]","feténylem","esp trial","0","true"
"html-button-response","40","1649843","0.0-11.0-1.14","null","<p>A másik játékos ezt választotta: <b>feténylem</b>.</p><p>&#x2705;</p><p>A te válaszod és a másik játékos válasza <b>megegyeznek</b>.</p>","null","","","","feedback trial","",""
"html-button-response-esp","41","1656554","0.0-11.0-0.15","6196","Te bizony sokat málapszol. Én is sokat...","1","málapszom","[""málapszok"",""málapszom""]","málapszok","esp trial","0","false"
"html-button-response","42","1660073","0.0-11.0-1.15","null","<p>A másik játékos ezt választotta: <b>málapszok</b>.</p><p>&#10060;</p><p>A válaszaitok <b>nem</b> egyeznek meg.</p>","null","","","","feedback trial","",""
"html-button-response-esp","43","1665178","0.0-11.0-0.16","4590","Te bizony sokat szirlasz. Én is sokat...","1","szirlom","[""szirlok"",""szirlom""]","szirlok","esp trial","0","false"
"html-button-response","44","1668701","0.0-11.0-1.16","null","<p>A másik játékos ezt választotta: <b>szirlok</b>.</p><p>&#10060;</p><p>A válaszaitok <b>nem</b> egyeznek meg.</p>","null","","","","feedback trial","",""
"html-button-response-esp","45","1673328","0.0-11.0-0.17","3814","Te bizony sokat spibaklasz. Én is sokat...","1","spibaklok","[""spibaklom"",""spibaklok""]","spibaklok","esp trial","0","true"
"html-button-response","46","1676843","0.0-11.0-1.17","null","<p>A másik játékos ezt választotta: <b>spibaklok</b>.</p><p>&#x2705;</p><p>A te válaszod és a másik játékos válasza <b>megegyeznek</b>.</p>","null","","","","feedback trial","",""
"html-button-response-esp","47","1682313","0.0-11.0-0.18","4956","Te bizony sokat fretszel. Én is sokat...","1","fretszek","[""fretszem"",""fretszek""]","fretszek","esp trial","0","true"
"html-button-response","48","1685824","0.0-11.0-1.18","null","<p>A másik játékos ezt választotta: <b>fretszek</b>.</p><p>&#x2705;</p><p>A te válaszod és a másik játékos válasza <b>megegyeznek</b>.</p>","null","","","","feedback trial","",""
"html-button-response-esp","49","1691249","0.0-11.0-0.19","4911","Te bizony sokat flagárzol. Én is sokat...","0","flagárzom","[""flagárzom"",""flagárzok""]","flagárzok","esp trial","0","false"
"html-button-response","50","1694765","0.0-11.0-1.19","null","<p>A másik játékos ezt választotta: <b>flagárzok</b>.</p><p>&#10060;</p><p>A válaszaitok <b>nem</b> egyeznek meg.</p>","null","","","","feedback trial","",""
"html-button-response-esp","51","1700850","0.0-11.0-0.20","5576","Te bizony sokat csíszlasz. Én is sokat...","1","csíszlok","[""csíszlom"",""csíszlok""]","csíszlok","esp trial","0","true"
"html-button-response","52","1704359","0.0-11.0-1.20","null","<p>A másik játékos ezt választotta: <b>csíszlok</b>.</p><p>&#x2705;</p><p>A te válaszod és a másik játékos válasza <b>megegyeznek</b>.</p>","null","","","","feedback trial","",""
"html-button-response-esp","53","1708992","0.0-11.0-0.21","4047","Te bizony sokat bölszöl. Én is sokat...","1","bölszök","[""bölszöm"",""bölszök""]","bölszök","esp trial","0","true"
"html-button-response","54","1712509","0.0-11.0-1.21","null","<p>A másik játékos ezt választotta: <b>bölszök</b>.</p><p>&#x2705;</p><p>A te válaszod és a másik játékos válasza <b>megegyeznek</b>.</p>","null","","","","feedback trial","",""
"html-button-response-esp","55","1720577","0.0-11.0-0.22","7560","Te bizony sokat sprökszöl. Én is sokat...","1","sprökszök","[""sprökszöm"",""sprökszök""]","sprökszök","esp trial","0","true"
"html-button-response","56","1724090","0.0-11.0-1.22","null","<p>A másik játékos ezt választotta: <b>sprökszök</b>.</p><p>&#x2705;</p><p>A te válaszod és a másik játékos válasza <b>megegyeznek</b>.</p>","null","","","","feedback trial","",""
"html-button-response-esp","57","1728715","0.0-11.0-0.23","2471","Te bizony sokat sojzol. Én is sokat...","1","sojzok","[""sojzom"",""sojzok""]","sojzok","esp trial","0","true"
"html-button-response","58","1732239","0.0-11.0-1.23","null","<p>A másik játékos ezt választotta: <b>sojzok</b>.</p><p>&#x2705;</p><p>A te válaszod és a másik játékos válasza <b>megegyeznek</b>.</p>","null","","","","feedback trial","",""
"html-button-response-esp","59","1737370","0.0-11.0-0.24","4616","Te bizony sokat prűrlesz. Én is sokat...","1","prűrlök","[""prűrlöm"",""prűrlök""]","prűrlöm","esp trial","0","false"
"html-button-response","60","1740884","0.0-11.0-1.24","null","<p>A másik játékos ezt választotta: <b>prűrlöm</b>.</p><p>&#10060;</p><p>A válaszaitok <b>nem</b> egyeznek meg.</p>","null","","","","feedback trial","",""
"html-button-response-esp","61","1745518","0.0-11.0-0.25","1715","Te bizony sokat spilágzol. Én is sokat...","1","spilágzok","[""spilágzom"",""spilágzok""]","spilágzok","esp trial","0","true"
"html-button-response","62","1749036","0.0-11.0-1.25","null","<p>A másik játékos ezt választotta: <b>spilágzok</b>.</p><p>&#x2705;</p><p>A te válaszod és a másik játékos válasza <b>megegyeznek</b>.</p>","null","","","","feedback trial","",""
"html-button-response-esp","63","1754594","0.0-11.0-0.26","5044","Te bizony sokat brágaklasz. Én is sokat...","1","brágaklom","[""brágaklok"",""brágaklom""]","brágaklok","esp trial","0","false"
"html-button-response","64","1758104","0.0-11.0-1.26","null","<p>A másik játékos ezt választotta: <b>brágaklok</b>.</p><p>&#10060;</p><p>A válaszaitok <b>nem</b> egyeznek meg.</p>","null","","","","feedback trial","",""
"html-button-response-esp","65","1762731","0.0-11.0-0.27","2737","Te bizony sokat prilegzel. Én is sokat...","0","prilegzem","[""prilegzem"",""prilegzek""]","prilegzek","esp trial","0","false"
"html-button-response","66","1766244","0.0-11.0-1.27","null","<p>A másik játékos ezt választotta: <b>prilegzek</b>.</p><p>&#10060;</p><p>A válaszaitok <b>nem</b> egyeznek meg.</p>","null","","","","feedback trial","",""
"html-button-response-esp","67","1770872","0.0-11.0-0.28","2076","Te bizony sokat frilegszel. Én is sokat...","0","frilegszek","[""frilegszek"",""frilegszem""]","frilegszek","esp trial","0","true"
"html-button-response","68","1774386","0.0-11.0-1.28","null","<p>A másik játékos ezt választotta: <b>frilegszek</b>.</p><p>&#x2705;</p><p>A te válaszod és a másik játékos válasza <b>megegyeznek</b>.</p>","null","","","","feedback trial","",""
"html-button-response-esp","69","1780458","0.0-11.0-0.29","5558","Te bizony sokat klörlesz. Én is sokat...","0","klörlöm","[""klörlöm"",""klörlök""]","klörlök","esp trial","0","false"
"html-button-response","70","1783979","0.0-11.0-1.29","null","<p>A másik játékos ezt választotta: <b>klörlök</b>.</p><p>&#10060;</p><p>A válaszaitok <b>nem</b> egyeznek meg.</p>","null","","","","feedback trial","",""
"html-button-response-esp","71","1788613","0.0-11.0-0.30","1987","Te bizony sokat ribzol. Én is sokat...","1","ribzok","[""ribzom"",""ribzok""]","ribzok","esp trial","0","true"
"html-button-response","72","1792137","0.0-11.0-1.30","null","<p>A másik játékos ezt választotta: <b>ribzok</b>.</p><p>&#x2705;</p><p>A te válaszod és a másik játékos válasza <b>megegyeznek</b>.</p>","null","","","","feedback trial","",""
"html-button-response-esp","73","1805233","0.0-11.0-0.31","12583","Te bizony sokat pivegszel. Én is sokat...","0","pivegszem","[""pivegszem"",""pivegszek""]","pivegszek","esp trial","0","false"
"html-button-response","74","1808751","0.0-11.0-1.31","null","<p>A másik játékos ezt választotta: <b>pivegszek</b>.</p><p>&#10060;</p><p>A válaszaitok <b>nem</b> egyeznek meg.</p>","null","","","","feedback trial","",""
"html-button-response-esp","75","1813382","0.0-11.0-0.32","1479","Te bizony sokat vilakszol. Én is sokat...","1","vilakszok","[""vilakszom"",""vilakszok""]","vilakszok","esp trial","0","true"
"html-button-response","76","1816900","0.0-11.0-1.32","null","<p>A másik játékos ezt választotta: <b>vilakszok</b>.</p><p>&#x2705;</p><p>A te válaszod és a másik játékos válasza <b>megegyeznek</b>.</p>","null","","","","feedback trial","",""
"html-button-response-esp","77","1821539","0.0-11.0-0.33","2460","Te bizony sokat brüjlesz. Én is sokat...","0","brüjlök","[""brüjlök"",""brüjlöm""]","brüjlöm","esp trial","0","false"
"html-button-response","78","1825061","0.0-11.0-1.33","null","<p>A másik játékos ezt választotta: <b>brüjlöm</b>.</p><p>&#10060;</p><p>A válaszaitok <b>nem</b> egyeznek meg.</p>","null","","","","feedback trial","",""
"html-button-response-esp","79","1829695","0.0-11.0-0.34","2686","Te bizony sokat sűzlesz. Én is sokat...","0","sűzlök","[""sűzlök"",""sűzlöm""]","sűzlök","esp trial","0","true"
"html-button-response","80","1833222","0.0-11.0-1.34","null","<p>A másik játékos ezt választotta: <b>sűzlök</b>.</p><p>&#x2705;</p><p>A te válaszod és a másik játékos válasza <b>megegyeznek</b>.</p>","null","","","","feedback trial","",""
"html-button-response-esp","81","1837852","0.0-11.0-0.35","3932","Te bizony sokat spatárzol. Én is sokat...","1","spatárzok","[""spatárzom"",""spatárzok""]","spatárzok","esp trial","0","true"
"html-button-response","82","1841379","0.0-11.0-1.35","null","<p>A másik játékos ezt választotta: <b>spatárzok</b>.</p><p>&#x2705;</p><p>A te válaszod és a másik játékos válasza <b>megegyeznek</b>.</p>","null","","","","feedback trial","",""
"html-button-response-esp","83","1846017","0.0-11.0-0.36","3349","Te bizony sokat ruslasz. Én is sokat...","1","ruslok","[""ruslom"",""ruslok""]","ruslom","esp trial","0","false"
"html-button-response","84","1849529","0.0-11.0-1.36","null","<p>A másik játékos ezt választotta: <b>ruslom</b>.</p><p>&#10060;</p><p>A válaszaitok <b>nem</b> egyeznek meg.</p>","null","","","","feedback trial","",""
"html-button-response-esp","85","1854161","0.0-11.0-0.37","2977","Te bizony sokat trilszol. Én is sokat...","1","trilszom","[""trilszok"",""trilszom""]","trilszok","esp trial","0","false"
"html-button-response","86","1857676","0.0-11.0-1.37","null","<p>A másik játékos ezt választotta: <b>trilszok</b>.</p><p>&#10060;</p><p>A válaszaitok <b>nem</b> egyeznek meg.</p>","null","","","","feedback trial","",""
"html-button-response-esp","87","1862310","0.0-11.0-0.38","2884","Te bizony sokat tínylasz. Én is sokat...","1","tínylok","[""tínylom"",""tínylok""]","tínylok","esp trial","0","true"
"html-button-response","88","1865820","0.0-11.0-1.38","null","<p>A másik játékos ezt választotta: <b>tínylok</b>.</p><p>&#x2705;</p><p>A te válaszod és a másik játékos válasza <b>megegyeznek</b>.</p>","null","","","","feedback trial","",""
"html-button-response-esp","89","1871297","0.0-11.0-0.39","4963","Te bizony sokat spűmlesz. Én is sokat...","1","spűmlök","[""spűmlöm"",""spűmlök""]","spűmlöm","esp trial","0","false"
"html-button-response","90","1874804","0.0-11.0-1.39","null","<p>A másik játékos ezt választotta: <b>spűmlöm</b>.</p><p>&#10060;</p><p>A válaszaitok <b>nem</b> egyeznek meg.</p>","null","","","","feedback trial","",""
"html-button-response-esp","91","1883578","0.0-11.0-0.40","8261","Te bizony sokat flűröklesz. Én is sokat...","1","flűröklöm","[""flűröklök"",""flűröklöm""]","flűröklök","esp trial","0","false"
"html-button-response","92","1887089","0.0-11.0-1.40","null","<p>A másik játékos ezt választotta: <b>flűröklök</b>.</p><p>&#10060;</p><p>A válaszaitok <b>nem</b> egyeznek meg.</p>","null","","","","feedback trial","",""
"html-button-response-esp","93","1891712","0.0-11.0-0.41","3328","Te bizony sokat ribegzel. Én is sokat...","1","ribegzem","[""ribegzek"",""ribegzem""]","ribegzek","esp trial","0","false"
"html-button-response","94","1895235","0.0-11.0-1.41","null","<p>A másik játékos ezt választotta: <b>ribegzek</b>.</p><p>&#10060;</p><p>A válaszaitok <b>nem</b> egyeznek meg.</p>","null","","","","feedback trial","",""
"html-button-response-esp","95","1899859","0.0-11.0-0.42","2306","Te bizony sokat hilarzol. Én is sokat...","1","hilarzok","[""hilarzom"",""hilarzok""]","hilarzok","esp trial","0","true"
"html-button-response","96","1903381","0.0-11.0-1.42","null","<p>A másik játékos ezt választotta: <b>hilarzok</b>.</p><p>&#x2705;</p><p>A te válaszod és a másik játékos válasza <b>megegyeznek</b>.</p>","null","","","","feedback trial","",""
"html-button-response-esp","97","1908002","0.0-11.0-0.43","3120","Te bizony sokat lorjódzol. Én is sokat...","1","lorjódzok","[""lorjódzom"",""lorjódzok""]","lorjódzok","esp trial","0","true"
"html-button-response","98","1911516","0.0-11.0-1.43","null","<p>A másik játékos ezt választotta: <b>lorjódzok</b>.</p><p>&#x2705;</p><p>A te válaszod és a másik játékos válasza <b>megegyeznek</b>.</p>","null","","","","feedback trial","",""
"html-button-response-esp","99","1918865","0.0-11.0-0.44","6836","Te bizony sokat böjzöl. Én is sokat...","1","böjzök","[""böjzöm"",""böjzök""]","böjzök","esp trial","0","true"
"html-button-response","100","1922376","0.0-11.0-1.44","null","<p>A másik játékos ezt választotta: <b>böjzök</b>.</p><p>&#x2705;</p><p>A te válaszod és a másik játékos válasza <b>megegyeznek</b>.</p>","null","","","","feedback trial","",""
"html-button-response-esp","101","1927626","0.0-11.0-0.45","4736","Te bizony sokat femlesz. Én is sokat...","0","femlek","[""femlek"",""femlem""]","femlem","esp trial","0","false"
"html-button-response","102","1931134","0.0-11.0-1.45","null","<p>A másik játékos ezt választotta: <b>femlem</b>.</p><p>&#10060;</p><p>A válaszaitok <b>nem</b> egyeznek meg.</p>","null","","","","feedback trial","",""
"html-button-response-esp","103","1935759","0.0-11.0-0.46","2645","Te bizony sokat piragszol. Én is sokat...","1","piragszok","[""piragszom"",""piragszok""]","piragszok","esp trial","0","true"
"html-button-response","104","1939281","0.0-11.0-1.46","null","<p>A másik játékos ezt választotta: <b>piragszok</b>.</p><p>&#x2705;</p><p>A te válaszod és a másik játékos válasza <b>megegyeznek</b>.</p>","null","","","","feedback trial","",""
"html-button-response-esp","105","1943906","0.0-11.0-0.47","3231","Te bizony sokat pratánylasz. Én is sokat...","1","pratánylok","[""pratánylom"",""pratánylok""]","pratánylom","esp trial","0","false"
"html-button-response","106","1947426","0.0-11.0-1.47","null","<p>A másik játékos ezt választotta: <b>pratánylom</b>.</p><p>&#10060;</p><p>A válaszaitok <b>nem</b> egyeznek meg.</p>","null","","","","feedback trial","",""
"html-button-response-esp","107","1952063","0.0-11.0-0.48","3172","Te bizony sokat drubódzol. Én is sokat...","1","drubódzom","[""drubódzok"",""drubódzom""]","drubódzok","esp trial","0","false"
"html-button-response","108","1955578","0.0-11.0-1.48","null","<p>A másik játékos ezt választotta: <b>drubódzok</b>.</p><p>&#10060;</p><p>A válaszaitok <b>nem</b> egyeznek meg.</p>","null","","","","feedback trial","",""
"html-button-response-esp","109","1960204","0.0-11.0-0.49","3135","Te bizony sokat nyáslasz. Én is sokat...","0","nyáslok","[""nyáslok"",""nyáslom""]","nyáslok","esp trial","0","true"
"html-button-response","110","1963720","0.0-11.0-1.49","null","<p>A másik játékos ezt választotta: <b>nyáslok</b>.</p><p>&#x2705;</p><p>A te válaszod és a másik játékos válasza <b>megegyeznek</b>.</p>","null","","","","feedback trial","",""
"html-button-response-esp","111","1970561","0.0-11.0-0.50","6328","Te bizony sokat flüröslesz. Én is sokat...","0","flüröslök","[""flüröslök"",""flüröslöm""]","flüröslök","esp trial","0","true"
"html-button-response","112","1974075","0.0-11.0-1.50","null","<p>A másik játékos ezt választotta: <b>flüröslök</b>.</p><p>&#x2705;</p><p>A te válaszod és a másik játékos válasza <b>megegyeznek</b>.</p>","null","","","","feedback trial","",""
"html-button-response-esp","113","1978708","0.0-11.0-0.51","3289","Te bizony sokat sprogzol. Én is sokat...","0","sprogzom","[""sprogzom"",""sprogzok""]","sprogzok","esp trial","0","false"
"html-button-response","114","1982228","0.0-11.0-1.51","null","<p>A másik játékos ezt választotta: <b>sprogzok</b>.</p><p>&#10060;</p><p>A válaszaitok <b>nem</b> egyeznek meg.</p>","null","","","","feedback trial","",""
"html-button-response-esp","115","1986856","0.0-11.0-0.52","3792","Te bizony sokat pebzel. Én is sokat...","1","pebzek","[""pebzem"",""pebzek""]","pebzek","esp trial","0","true"
"html-button-response","116","1990372","0.0-11.0-1.52","null","<p>A másik játékos ezt választotta: <b>pebzek</b>.</p><p>&#x2705;</p><p>A te válaszod és a másik játékos válasza <b>megegyeznek</b>.</p>","null","","","","feedback trial","",""
"html-button-response-esp","117","1995007","0.0-11.0-0.53","3685","Te bizony sokat büglesz. Én is sokat...","1","büglök","[""büglöm"",""büglök""]","büglöm","esp trial","0","false"
"html-button-response","118","1998522","0.0-11.0-1.53","null","<p>A másik játékos ezt választotta: <b>büglöm</b>.</p><p>&#10060;</p><p>A válaszaitok <b>nem</b> egyeznek meg.</p>","null","","","","feedback trial","",""
"html-button-response","119","2006570","0.0-12.0","7533","<p>A közös játék most véget ért.</p><p>Mielőtt eláruljuk a végső pontszámodat, arra kérlek, játszd a szóválasztós játékot néhány percig egyedül is.</p><p>A feladatod ugyanaz lesz, választani két lehetőség közül.</p><p>Most viszont egyedül kell döntened, hogy te melyiket választanád.</p>","0","","","","","",""
"html-button-response-clever","120","2020289","0.0-13.0-0.0","13218","Te bizony sokat brubzol. Én is sokat...","1","brubzom","[""brubzok"",""brubzom""]","","posttest trial","4",""
"html-button-response-clever","121","2029202","0.0-13.0-0.1","8410","Te bizony sokat vülődzöl. Én is sokat...","1","vülődzök","[""vülődzöm"",""vülődzök""]","","posttest trial","4",""
"html-button-response-clever","122","2032465","0.0-13.0-0.2","2746","Te bizony sokat prínylasz. Én is sokat...","1","prínylok","[""prínylom"",""prínylok""]","","posttest trial","4",""
"html-button-response-clever","123","2037321","0.0-13.0-0.3","4347","Te bizony sokat pribemlesz. Én is sokat...","1","pribemlek","[""pribemlem"",""pribemlek""]","","posttest trial","4",""
"html-button-response-clever","124","2045810","0.0-13.0-0.4","7980","Te bizony sokat flátszol. Én is sokat...","1","flátszom","[""flátszok"",""flátszom""]","","posttest trial","4",""
"html-button-response-clever","125","2050801","0.0-13.0-0.5","4480","Te bizony sokat vanylasz. Én is sokat...","0","vanylok","[""vanylok"",""vanylom""]","","posttest trial","4",""
"html-button-response-clever","126","2055097","0.0-13.0-0.6","3790","Te bizony sokat bűtszöl. Én is sokat...","0","bűtszök","[""bűtszök"",""bűtszöm""]","","posttest trial","4",""
"html-button-response-clever","127","2060697","0.0-13.0-0.7","5093","Te bizony sokat jonylasz. Én is sokat...","0","jonylok","[""jonylok"",""jonylom""]","","posttest trial","4",""
"html-button-response-clever","128","2063681","0.0-13.0-0.8","2472","Te bizony sokat gyibeslesz. Én is sokat...","1","gyibeslek","[""gyibeslem"",""gyibeslek""]","","posttest trial","4",""
"html-button-response-clever","129","2067337","0.0-13.0-0.9","3152","Te bizony sokat spubonylasz. Én is sokat...","0","spubonylok","[""spubonylok"",""spubonylom""]","","posttest trial","4",""
"html-button-response-clever","130","2075722","0.0-13.0-0.10","7875","Te bizony sokat trehégszel. Én is sokat...","1","trehégszem","[""trehégszek"",""trehégszem""]","","posttest trial","4",""
"html-button-response-clever","131","2079025","0.0-13.0-0.11","2794","Te bizony sokat spröbzöl. Én is sokat...","1","spröbzöm","[""spröbzök"",""spröbzöm""]","","posttest trial","4",""
"html-button-response-clever","132","2082449","0.0-13.0-0.12","2917","Te bizony sokat klaráglasz. Én is sokat...","1","klaráglok","[""klaráglom"",""klaráglok""]","","posttest trial","4",""
"html-button-response-clever","133","2085953","0.0-13.0-0.13","2991","Te bizony sokat lörűdzöl. Én is sokat...","1","lörűdzöm","[""lörűdzök"",""lörűdzöm""]","","posttest trial","4",""
"html-button-response-clever","134","2097953","0.0-13.0-0.14","11496","Te bizony sokat nűröklesz. Én is sokat...","1","nűröklök","[""nűröklöm"",""nűröklök""]","","posttest trial","4",""
"html-button-response-clever","135","2102129","0.0-13.0-0.15","3668","Te bizony sokat bihánylasz. Én is sokat...","1","bihánylok","[""bihánylom"",""bihánylok""]","","posttest trial","4",""
"html-button-response-clever","136","2107241","0.0-13.0-0.16","4611","Te bizony sokat pribagszol. Én is sokat...","0","pribagszom","[""pribagszom"",""pribagszok""]","","posttest trial","4",""
"html-button-response-clever","137","2114905","0.0-13.0-0.17","7162","Te bizony sokat sztrűkszöl. Én is sokat...","0","sztrűkszöm","[""sztrűkszöm"",""sztrűkszök""]","","posttest trial","4",""
"html-button-response-clever","138","2117617","0.0-13.0-0.18","2208","Te bizony sokat klivaslasz. Én is sokat...","1","klivaslok","[""klivaslom"",""klivaslok""]","","posttest trial","4",""
"html-button-response-clever","139","2119225","0.0-13.0-0.19","1103","Te bizony sokat frodlasz. Én is sokat...","1","frodlok","[""frodlom"",""frodlok""]","","posttest trial","4",""
"html-button-response-clever","140","2132953","0.0-13.0-0.20","13218","Te bizony sokat huroslasz. Én is sokat...","0","huroslok","[""huroslok"",""huroslom""]","","posttest trial","4",""
"html-button-response-clever","141","2136817","0.0-13.0-0.21","3361","Te bizony sokat tragzol. Én is sokat...","0","tragzom","[""tragzom"",""tragzok""]","","posttest trial","4",""
"html-button-response-clever","142","2138898","0.0-13.0-0.22","1577","Te bizony sokat szibánylasz. Én is sokat...","1","szibánylok","[""szibánylom"",""szibánylok""]","","posttest trial","4",""
"html-button-response-clever","143","2140545","0.0-13.0-0.23","1145","Te bizony sokat sztrozlasz. Én is sokat...","1","sztrozlok","[""sztrozlom"",""sztrozlok""]","","posttest trial","4",""
"html-button-response-clever","144","2142649","0.0-13.0-0.24","1588","Te bizony sokat ibékszel. Én is sokat...","0","ibékszem","[""ibékszem"",""ibékszek""]","","posttest trial","4",""
"html-button-response-clever","145","2145273","0.0-13.0-0.25","2116","Te bizony sokat trádlasz. Én is sokat...","0","trádlok","[""trádlok"",""trádlom""]","","posttest trial","4",""
"html-button-response-clever","146","2148305","0.0-13.0-0.26","2516","Te bizony sokat plűbzöl. Én is sokat...","0","plűbzöm","[""plűbzöm"",""plűbzök""]","","posttest trial","4",""
"html-button-response-clever","147","2149906","0.0-13.0-0.27","1099","Te bizony sokat rokszol. Én is sokat...","1","rokszom","[""rokszok"",""rokszom""]","","posttest trial","4",""
"html-button-response-clever","148","2151937","0.0-13.0-0.28","1529","Te bizony sokat sztrijzol. Én is sokat...","0","sztrijzom","[""sztrijzom"",""sztrijzok""]","","posttest trial","4",""
"html-button-response-clever","149","2153738","0.0-13.0-0.29","1297","Te bizony sokat brivegzel. Én is sokat...","0","brivegzem","[""brivegzem"",""brivegzek""]","","posttest trial","4",""
"html-button-response-clever","150","2158241","0.0-13.0-0.30","4000","Te bizony sokat figlasz. Én is sokat...","1","figlok","[""figlom"",""figlok""]","","posttest trial","4",""
"html-button-response-clever","151","2163537","0.0-13.0-0.31","4782","Te bizony sokat flűmlesz. Én is sokat...","0","flűmlök","[""flűmlök"",""flűmlöm""]","","posttest trial","4",""
"html-button-response-clever","152","2194137","0.0-13.0-0.32","30097","Te bizony sokat treglesz. Én is sokat...","1","treglek","[""treglem"",""treglek""]","","posttest trial","4",""
"html-button-response-clever","153","2196145","0.0-13.0-0.33","1506","Te bizony sokat brobódzol. Én is sokat...","1","brobódzom","[""brobódzok"",""brobódzom""]","","posttest trial","4",""
"html-button-response-clever","154","2197961","0.0-13.0-0.34","1308","Te bizony sokat filágzol. Én is sokat...","1","filágzom","[""filágzok"",""filágzom""]","","posttest trial","4",""
"html-button-response-clever","155","2199098","0.0-13.0-0.35","626","Te bizony sokat narádzol. Én is sokat...","1","narádzom","[""narádzok"",""narádzom""]","","posttest trial","4",""
"html-button-response-clever","156","2200561","0.0-13.0-0.36","956","Te bizony sokat spihemlesz. Én is sokat...","0","spihemlek","[""spihemlek"",""spihemlem""]","","posttest trial","4",""
"html-button-response-clever","157","2202681","0.0-13.0-0.37","1604","Te bizony sokat flehénylesz. Én is sokat...","1","flehénylek","[""flehénylem"",""flehénylek""]","","posttest trial","4",""
"html-button-response-clever","158","2204481","0.0-13.0-0.38","1286","Te bizony sokat spihegzel. Én is sokat...","0","spihegzem","[""spihegzem"",""spihegzek""]","","posttest trial","4",""
"html-button-response-clever","159","2206144","0.0-13.0-0.39","1156","Te bizony sokat hűgzöl. Én is sokat...","0","hűgzöm","[""hűgzöm"",""hűgzök""]","","posttest trial","4",""
"html-button-response-clever","160","2208521","0.0-13.0-0.40","1873","Te bizony sokat píjlasz. Én is sokat...","1","píjlok","[""píjlom"",""píjlok""]","","posttest trial","4",""
"html-button-response-clever","161","2210760","0.0-13.0-0.41","1724","Te bizony sokat spülűdzöl. Én is sokat...","1","spülűdzöm","[""spülűdzök"",""spülűdzöm""]","","posttest trial","4",""
"html-button-response-clever","162","2212369","0.0-13.0-0.42","1100","Te bizony sokat plugzol. Én is sokat...","0","plugzom","[""plugzom"",""plugzok""]","","posttest trial","4",""
"html-button-response-clever","163","2214017","0.0-13.0-0.43","1139","Te bizony sokat bivégszel. Én is sokat...","0","bivégszem","[""bivégszem"",""bivégszek""]","","posttest trial","4",""
"html-button-response-clever","164","2216337","0.0-13.0-0.44","1807","Te bizony sokat spüjzöl. Én is sokat...","1","spüjzöm","[""spüjzök"",""spüjzöm""]","","posttest trial","4",""
"html-button-response-clever","165","2217905","0.0-13.0-0.45","1066","Te bizony sokat flitlasz. Én is sokat...","1","flitlok","[""flitlom"",""flitlok""]","","posttest trial","4",""
"html-button-response-clever","166","2220048","0.0-13.0-0.46","1642","Te bizony sokat klétszel. Én is sokat...","0","klétszem","[""klétszem"",""klétszek""]","","posttest trial","4",""
"html-button-response-clever","167","2221681","0.0-13.0-0.47","1126","Te bizony sokat pítszol. Én is sokat...","1","pítszom","[""pítszok"",""pítszom""]","","posttest trial","4",""
"html-button-response-clever","168","2223465","0.0-13.0-0.48","1281","Te bizony sokat flehékszel. Én is sokat...","1","flehékszem","[""flehékszek"",""flehékszem""]","","posttest trial","4",""
"html-button-response-clever","169","2225273","0.0-13.0-0.49","1294","Te bizony sokat salárzol. Én is sokat...","0","salárzom","[""salárzom"",""salárzok""]","","posttest trial","4",""
"html-button-response-clever","170","2228961","0.0-13.0-0.50","3181","Te bizony sokat spáraklasz. Én is sokat...","1","spáraklok","[""spáraklom"",""spáraklok""]","","posttest trial","4",""
"html-button-response-clever","171","2230562","0.0-13.0-0.51","1091","Te bizony sokat düjzöl. Én is sokat...","1","düjzöm","[""düjzök"",""düjzöm""]","","posttest trial","4",""
"html-button-response-clever","172","2233833","0.0-13.0-0.52","2767","Te bizony sokat hurjorzol. Én is sokat...","0","hurjorzom","[""hurjorzom"",""hurjorzok""]","","posttest trial","4",""
"html-button-response-clever","173","2235336","0.0-13.0-0.53","997","Te bizony sokat rájzol. Én is sokat...","1","rájzom","[""rájzok"",""rájzom""]","","posttest trial","4",""
"html-button-response","174","2241729","0.0-14.0","5882","<p> Vége a játéknak. A teljes pontszámod 28/54.</p><p> Szép munka! &#128526;&#128526;&#128526;</p><p>A Befejezés gomb megnyomása után bezárhatod a böngészőablakot.</p>","0","","","","","",""
"html-keyboard-response","175","2247240","0.0-15.0","null","<div class=""message"">
         <p>Egy kis türelmet kérünk, amíg elmentjük az adatokat...</p>
         </div>","null","","","","","",""
