"trial_type","trial_index","time_elapsed","internal_node_id","rt","stimulus","response","response_string","choices","esp_response","trial_kind","list_number","esp_match"
"pavlovia","0","899","0.0-0.0","","","","","","","","",""
"html-button-response","1","4507","0.0-1.0","3088","<p>Kedves Résztvevő! A Budapesti Műszaki és Gazdaságtudományi Egyetem Kognitív Tudományi Tanszékének kutatásában való részvételed kérjük. A kutatásban azt vizsgáljuk, hogy a magyar anyanyelvűek hogyan használnak bizonyos szóalakokat, és hogy milyen képük van arról, hogy mások hogyan használják, hogyan képzik a szavakat. Ez hozzásegít bennünket ahhoz, hogy jobban megértsük, hogyan dolgozza fel és tárolja a nyelvet az emberi agy, és hogyan működnek, hogyan változnak egy adott közösség nyelvi konvenciói.</p><p>A vizsgálat egy rövid számítógépes feladatból fog állni. A kutatásban való részvétel önkéntes, a részvételi szándék bármikor visszavonható. A résztvevők eredményeit név nélkül kezeljük, így nem beazonosíthatók az adatok feldolgozása során. Minden személyes adatot az EU általános adatvédelmi rendeletének (GDPR) megfelelően kezelünk és legfeljebb öt éven belül megsemmisítünk. A vizsgálat jellemzően húsz percet vesz igénybe.</p><p>Kutatásvezető:</p><p>Dr. Rácz Péter, tudományos munkatárs, BME KTT</p><p>e-mail: racz.peter.marton@ttk.bme.hu</p>","0","","","","","",""
"html-button-response","2","56912","0.0-2.0","51879","<p>A kísérletben szavakat fogsz látni. Ezek között lesznek olyanok, amelyeket ismersz, de előfordulhatnak olyanok is, amelyeket nem ismersz, sőt, vannak köztük kitalált szavak is. Minden szónál látni fogsz toldalékolt alakokat. A te feladatod az lesz, hogy minden szóhoz kiválaszd azt a toldalékolt alakot, amely a te számodra ismerősebben, természetesebben hangzik. Rossz válaszok nincsenek, mert van olyan, hogy különböző embereknek más és más szó tűnik jobb választásnak. A választ úgy tudod majd kiválasztani, ha rákattintasz.</p><p>Ebben a szóválasztós játékban egy másik játékossal együtt veszel majd részt. A másik játékos is minden esetben azok közül a lehetőségek közül válogathat, mint te. Kettőtök feladata az, hogy ugyanazt a lehetőséget válasszátok minden esetben. Ahhoz, hogy ez sikerüljön, neked figyelned kell arra, hogy a másik játékos milyen válaszokat ad, és ennek alapján meg kell tippelned, hogyan választ legközelebb. Ha eltalálod, akkor pontot kapsz.</p>","0","","","","","",""
"html-button-response","3","63003","0.0-3.0","5569","<p>Kérjük, olvasd el az alábbi nyilatkozatot, és amennyiben egyetértesz vele, nyomj a Beleegyezés gombra!</p><p>Kijelentem, hogy magyar anyanyelvű személyként önként veszek részt a BME KTT kísérletében. A kutatás céljával és folyamatával kapcsolatban elegendő tájékoztatást kaptam, lehetőségem volt kérdések feltételére, és esetleges kérdéseimre megfelelő válaszokat kaptam. A tájékoztatás alapján elegendő mennyiségű információ áll a rendelkezésemre, hogy eldönthessem, részt kívánok-e venni a kutatásban.</p><p>Tisztában vagyok vele, hogy részvételi szándékomat és adataimat bármikor, indoklás nélkül visszavonhatom.</p><p>Értem és tudomásul veszem, hogy a kutatás tudományos célokat szolgál, és az általam szolgáltatott adatokat a BME kizárólag kutatási célból használja fel. Tudomásul veszem, hogy eredményeimet a többi résztvevő eredményeivel együtt kezelik, így egyéni teljesítményemről visszajelzést, szakvéleményt nem kapok.</p><p>Megértettem, hogy adataim kezelését illetően a BME az EU általános adatvédelmi rendelete (GDPR), a hatályos adatvédelmi törvény és a nemzetközi kutatás-etikai alapelvek szerint jár el. Eredményeim anonim módon kerülnek feldolgozásra, és a kutatás résztvevői az azonosításomra alkalmas adataimat harmadik félnek nem szolgáltatják ki. Engedélyezem a BME számára a jelen kutatásban felvett adataim feldolgozását és tárolását, beleértve azok későbbi kutatásokhoz való felhasználását is. Személyes adataim kezelésével kapcsolatban tájékoztatást kérhetek a kutatás résztvevőitől, az adatkezelés ellen tiltakozhatok, kérhetem személyes adataim helyesbítését, törlését vagy zárolását, valamint jogorvoslatért a Nemzeti Adatvédelmi és Információszabadság Hatósághoz fordulhatok.</p><p>Kijelentem, hogy a kutatásban való részvételem körülményeiről részletes tájékoztatást kaptam, és a feltételeket elfogadom.</p>","0","","","","","",""
"survey-text","4","95867","0.0-4.0","32330","","{""Q0"":""ED49HH"",""Q1"":""férfi"",""Q2"":""2002"",""Q3"":""14""}","","","","","",""
"html-button-response","5","125428","0.0-5.0","29048","<p>Ebben a játékban szavakat kell toldalékolni.</p> <p>Minden körben mutatunk majd egy példamondatot, amiben lesz egy szó.</p> <p>Alatta jön egy második mondat, ezt a mondatot neked kell majd befejezni, ugyanezzel a szóval.</p> <p>Nem biztos, hogy a szó eleve ismerős lesz számodra!</p> <p>Minden mondathoz adunk két lehetőséget, ezeket balra és jobbra látod majd.</p> <p>A játék kb. negyedóráig-húsz percig tart.</p>","0","","","","","",""
"html-button-response","6","150938","0.0-6.0","24997","<p>Nézzünk egy példát!</p> <p>A példamondat: ""János imád fláramolni, ezért sokat fláramlik. Mi ritkán...""</p><p>Neked ezt a mondatot kell befejezned: ""Ti ritkán...""</p><p>A lehetőségek pedig ezek:</p>","1","","","","","",""
"html-button-response","7","157401","0.0-7.0","5946","<p>Nagyon jó.</p><p>Ezt a játékot nem egyedül fogod játszani, hanem egy másik játékossal.</p><p>Mielőtt továbblépünk, összekapcsolunk titeket egymással.</p><p>Ez igénybe vehet néhány másodpercet, amihez szíves türelmed kérjük.</p>","0","","","","","",""
"html-button-response","8","163161","0.0-8.0","null","<p>Csatlakozás a másik játékoshoz...</p>","null","","","","","",""
"html-button-response","9","165693","0.0-9.0","null","<p> Sikeres kapcsolódás!</p>","null","","","","","",""
"html-button-response","10","175088","0.0-10.0","8886","<p>A következőkben ketten játsszátok a szóválasztós játékot.</p><p>A feladatotok az lesz, hogy minden körben <b>ugyanazt</b> a szót válasszátok.</p><p>Minden ilyen egyező válaszért pontot kaptok.</p><p>Próbáld meg kitalálni, mit választ a másik játékos!</p><p>Bármikor választhatsz, a körnek akkor van vége, ha mindketten döntöttetek.</p><p>Sok sikert!</p>","0","","","","","",""
"html-button-response-esp","11","182871","0.0-11.0-0.0","7258","János imád brülösözni, ezért sokat brülöslik. Mi ritkán...","1","brülösözünk","[""brülöslünk"",""brülösözünk""]","brülösözünk","esp trial","7","true"
"html-button-response","12","186392","0.0-11.0-1.0","null","<p>A másik játékos ezt választotta: <b>brülösözünk</b>.</p><p>&#x2705;</p><p>A te válaszod és a másik játékos válasza <b>megegyeznek</b>.</p>","null","","","","feedback trial","",""
"html-button-response-esp","13","196448","0.0-11.0-0.1","9546","János imád sprűrözni, ezért sokat sprűrlik. Ők ritkán...","0","sprűrlenek","[""sprűrlenek"",""sprűröznek""]","sprűröznek","esp trial","7","false"
"html-button-response","14","199962","0.0-11.0-1.1","null","<p>A másik játékos ezt választotta: <b>sprűröznek</b>.</p><p>&#10060;</p><p>A válaszaitok <b>nem</b> egyeznek meg.</p>","null","","","","feedback trial","",""
"html-button-response-esp","15","210680","0.0-11.0-0.2","10194","János imád drilarozni, ezért sokat drilarzik. Mi ritkán...","1","drilarozunk","[""drilarzunk"",""drilarozunk""]","drilarozunk","esp trial","7","true"
"html-button-response","16","214213","0.0-11.0-1.2","null","<p>A másik játékos ezt választotta: <b>drilarozunk</b>.</p><p>&#x2705;</p><p>A te válaszod és a másik játékos válasza <b>megegyeznek</b>.</p>","null","","","","feedback trial","",""
"html-button-response-esp","17","220595","0.0-11.0-0.3","5860","János imád fröjözni, ezért sokat fröjzik. Ti ritkán...","1","fröjöztök","[""fröjzötök"",""fröjöztök""]","fröjöztök","esp trial","7","true"
"html-button-response","18","224132","0.0-11.0-1.3","null","<p>A másik játékos ezt választotta: <b>fröjöztök</b>.</p><p>&#x2705;</p><p>A te válaszod és a másik játékos válasza <b>megegyeznek</b>.</p>","null","","","","feedback trial","",""
"html-button-response-esp","19","232846","0.0-11.0-0.4","8203","János imád mágamozni, ezért sokat mágamlik. Mi ritkán...","1","mágamozunk","[""mágamlunk"",""mágamozunk""]","mágamlunk","esp trial","7","false"
"html-button-response","20","236383","0.0-11.0-1.4","null","<p>A másik játékos ezt választotta: <b>mágamlunk</b>.</p><p>&#10060;</p><p>A válaszaitok <b>nem</b> egyeznek meg.</p>","null","","","","feedback trial","",""
"html-button-response-esp","21","241320","0.0-11.0-0.5","4428","János imád dujozni, ezért sokat dujzik. Ők ritkán...","0","dujzanak","[""dujzanak"",""dujoznak""]","dujoznak","esp trial","7","false"
"html-button-response","22","244849","0.0-11.0-1.5","null","<p>A másik játékos ezt választotta: <b>dujoznak</b>.</p><p>&#10060;</p><p>A válaszaitok <b>nem</b> egyeznek meg.</p>","null","","","","feedback trial","",""
"html-button-response-esp","23","249623","0.0-11.0-0.6","4257","János imád prögözni, ezért sokat prögzik. Ti ritkán...","0","prögöztök","[""prögöztök"",""prögzötök""]","prögöztök","esp trial","7","true"
"html-button-response","24","253153","0.0-11.0-1.6","null","<p>A másik játékos ezt választotta: <b>prögöztök</b>.</p><p>&#x2705;</p><p>A te válaszod és a másik játékos válasza <b>megegyeznek</b>.</p>","null","","","","feedback trial","",""
"html-button-response-esp","25","259858","0.0-11.0-0.7","6200","János imád flemezni, ezért sokat flemlik. Mi ritkán...","1","flemezünk","[""flemlünk"",""flemezünk""]","flemezünk","esp trial","7","true"
"html-button-response","26","263380","0.0-11.0-1.7","null","<p>A másik játékos ezt választotta: <b>flemezünk</b>.</p><p>&#x2705;</p><p>A te válaszod és a másik játékos válasza <b>megegyeznek</b>.</p>","null","","","","feedback trial","",""
"html-button-response-esp","27","269145","0.0-11.0-0.8","5250","János imád dárakodni, ezért sokat dárakszik. Mi ritkán...","0","dárakodunk","[""dárakodunk"",""dárakszunk""]","dárakodunk","esp trial","7","true"
"html-button-response","28","272673","0.0-11.0-1.8","null","<p>A másik játékos ezt választotta: <b>dárakodunk</b>.</p><p>&#x2705;</p><p>A te válaszod és a másik játékos válasza <b>megegyeznek</b>.</p>","null","","","","feedback trial","",""
"html-button-response-esp","29","279897","0.0-11.0-0.9","6714","János imád csibagozni, ezért sokat csibagzik. Ti ritkán...","1","csibagoztok","[""csibagzotok"",""csibagoztok""]","csibagoztok","esp trial","7","true"
"html-button-response","30","283429","0.0-11.0-1.9","null","<p>A másik játékos ezt választotta: <b>csibagoztok</b>.</p><p>&#x2705;</p><p>A te válaszod és a másik játékos válasza <b>megegyeznek</b>.</p>","null","","","","feedback trial","",""
"html-button-response-esp","31","291538","0.0-11.0-0.10","7590","János imád klehényezni, ezért sokat klehénylik. Ti ritkán...","0","klehényeztek","[""klehényeztek"",""klehényletek""]","klehényeztek","esp trial","7","true"
"html-button-response","32","295065","0.0-11.0-1.10","null","<p>A másik játékos ezt választotta: <b>klehényeztek</b>.</p><p>&#x2705;</p><p>A te válaszod és a másik játékos válasza <b>megegyeznek</b>.</p>","null","","","","feedback trial","",""
"html-button-response-esp","33","308215","0.0-11.0-0.11","12630","János imád prélemezni, ezért sokat prélemlik. Ők ritkán...","1","prélemlenek","[""prélemeznek"",""prélemlenek""]","prélemeznek","esp trial","7","false"
"html-button-response","34","311739","0.0-11.0-1.11","null","<p>A másik játékos ezt választotta: <b>prélemeznek</b>.</p><p>&#10060;</p><p>A válaszaitok <b>nem</b> egyeznek meg.</p>","null","","","","feedback trial","",""
"html-button-response-esp","35","317111","0.0-11.0-0.12","4854","János imád flűgözni, ezért sokat flűgzik. Mi ritkán...","1","flűgözünk","[""flűgzünk"",""flűgözünk""]","flűgözünk","esp trial","7","true"
"html-button-response","36","320643","0.0-11.0-1.12","null","<p>A másik játékos ezt választotta: <b>flűgözünk</b>.</p><p>&#x2705;</p><p>A te válaszod és a másik játékos válasza <b>megegyeznek</b>.</p>","null","","","","feedback trial","",""
"html-button-response-esp","37","329008","0.0-11.0-0.13","7841","János imád frálapodni, ezért sokat frálapszik. Ti ritkán...","0","frálapodtok","[""frálapodtok"",""frálapszotok""]","frálapszotok","esp trial","7","false"
"html-button-response","38","332539","0.0-11.0-1.13","null","<p>A másik játékos ezt választotta: <b>frálapszotok</b>.</p><p>&#10060;</p><p>A válaszaitok <b>nem</b> egyeznek meg.</p>","null","","","","feedback trial","",""
"html-button-response-esp","39","338591","0.0-11.0-0.14","5532","János imád brivakozni, ezért sokat brivaklik. Ti ritkán...","1","brivakoztok","[""brivaklotok"",""brivakoztok""]","brivakoztok","esp trial","7","true"
"html-button-response","40","342117","0.0-11.0-1.14","null","<p>A másik játékos ezt választotta: <b>brivakoztok</b>.</p><p>&#x2705;</p><p>A te válaszod és a másik játékos válasza <b>megegyeznek</b>.</p>","null","","","","feedback trial","",""
"html-button-response-esp","41","347240","0.0-11.0-0.15","4609","János imád föködni, ezért sokat fökszik. Ők ritkán...","0","föködnek","[""föködnek"",""fökszenek""]","fökszenek","esp trial","7","false"
"html-button-response","42","350774","0.0-11.0-1.15","null","<p>A másik játékos ezt választotta: <b>fökszenek</b>.</p><p>&#10060;</p><p>A válaszaitok <b>nem</b> egyeznek meg.</p>","null","","","","feedback trial","",""
"html-button-response-esp","43","355209","0.0-11.0-0.16","3925","János imád sprudozni, ezért sokat sprudlik. Mi ritkán...","0","sprudozunk","[""sprudozunk"",""sprudlunk""]","sprudozunk","esp trial","7","true"
"html-button-response","44","358725","0.0-11.0-1.16","null","<p>A másik játékos ezt választotta: <b>sprudozunk</b>.</p><p>&#x2705;</p><p>A te válaszod és a másik játékos válasza <b>megegyeznek</b>.</p>","null","","","","feedback trial","",""
"html-button-response-esp","45","369277","0.0-11.0-0.17","10042","János imád dirozni, ezért sokat dirlik. Ti ritkán...","0","diroztok","[""diroztok"",""dirlotok""]","diroztok","esp trial","7","true"
"html-button-response","46","372804","0.0-11.0-1.17","null","<p>A másik játékos ezt választotta: <b>diroztok</b>.</p><p>&#x2705;</p><p>A te válaszod és a másik játékos válasza <b>megegyeznek</b>.</p>","null","","","","feedback trial","",""
"html-button-response-esp","47","377884","0.0-11.0-0.18","4559","János imád lájozni, ezért sokat lájzik. Ti ritkán...","1","lájoztok","[""lájzotok"",""lájoztok""]","lájzotok","esp trial","7","false"
"html-button-response","48","381416","0.0-11.0-1.18","null","<p>A másik játékos ezt választotta: <b>lájzotok</b>.</p><p>&#10060;</p><p>A válaszaitok <b>nem</b> egyeznek meg.</p>","null","","","","feedback trial","",""
"html-button-response-esp","49","391786","0.0-11.0-0.19","9852","János imád flöközni, ezért sokat flöklik. Ti ritkán...","1","flököztök","[""flöklötök"",""flököztök""]","flököztök","esp trial","7","true"
"html-button-response","50","395314","0.0-11.0-1.19","null","<p>A másik játékos ezt választotta: <b>flököztök</b>.</p><p>&#x2705;</p><p>A te válaszod és a másik játékos válasza <b>megegyeznek</b>.</p>","null","","","","feedback trial","",""
"html-button-response-esp","51","401578","0.0-11.0-0.20","5740","János imád mülőrözni, ezért sokat mülőrzik. Mi ritkán...","0","mülőrözünk","[""mülőrözünk"",""mülőrzünk""]","mülőrözünk","esp trial","7","true"
"html-button-response","52","405097","0.0-11.0-1.20","null","<p>A másik játékos ezt választotta: <b>mülőrözünk</b>.</p><p>&#x2705;</p><p>A te válaszod és a másik játékos válasza <b>megegyeznek</b>.</p>","null","","","","feedback trial","",""
"html-button-response-esp","53","411247","0.0-11.0-0.21","5630","János imád branyozni, ezért sokat branylik. Ők ritkán...","1","branyoznak","[""branylanak"",""branyoznak""]","branyoznak","esp trial","7","true"
"html-button-response","54","414773","0.0-11.0-1.21","null","<p>A másik játékos ezt választotta: <b>branyoznak</b>.</p><p>&#x2705;</p><p>A te válaszod és a másik játékos válasza <b>megegyeznek</b>.</p>","null","","","","feedback trial","",""
"html-button-response-esp","55","420445","0.0-11.0-0.22","5148","János imád trikozni, ezért sokat triklik. Ti ritkán...","0","trikoztok","[""trikoztok"",""triklotok""]","triklotok","esp trial","7","false"
"html-button-response","56","423983","0.0-11.0-1.22","null","<p>A másik játékos ezt választotta: <b>triklotok</b>.</p><p>&#10060;</p><p>A válaszaitok <b>nem</b> egyeznek meg.</p>","null","","","","feedback trial","",""
"html-button-response-esp","57","430162","0.0-11.0-0.23","5666","János imád spibegezni, ezért sokat spibeglik. Mi ritkán...","0","spibeglünk","[""spibeglünk"",""spibegezünk""]","spibeglünk","esp trial","7","true"
"html-button-response","58","433674","0.0-11.0-1.23","null","<p>A másik játékos ezt választotta: <b>spibeglünk</b>.</p><p>&#x2705;</p><p>A te válaszod és a másik játékos válasza <b>megegyeznek</b>.</p>","null","","","","feedback trial","",""
"html-button-response-esp","59","437979","0.0-11.0-0.24","3793","János imád csubozni, ezért sokat csubzik. Mi ritkán...","0","csubzunk","[""csubzunk"",""csubozunk""]","csubzunk","esp trial","7","true"
"html-button-response","60","441516","0.0-11.0-1.24","null","<p>A másik játékos ezt választotta: <b>csubzunk</b>.</p><p>&#x2705;</p><p>A te válaszod és a másik játékos válasza <b>megegyeznek</b>.</p>","null","","","","feedback trial","",""
"html-button-response-esp","61","451249","0.0-11.0-0.25","9220","János imád flüröközni, ezért sokat flüröklik. Ti ritkán...","1","flürököztök","[""flüröklötök"",""flürököztök""]","flürököztök","esp trial","7","true"
"html-button-response","62","454760","0.0-11.0-1.25","null","<p>A másik játékos ezt választotta: <b>flürököztök</b>.</p><p>&#x2705;</p><p>A te válaszod és a másik játékos válasza <b>megegyeznek</b>.</p>","null","","","","feedback trial","",""
"html-button-response-esp","63","468815","0.0-11.0-0.26","13552","János imád pragányozni, ezért sokat pragánylik. Ti ritkán...","1","pragányoztok","[""pragánylotok"",""pragányoztok""]","pragányoztok","esp trial","7","true"
"html-button-response","64","472337","0.0-11.0-1.26","null","<p>A másik játékos ezt választotta: <b>pragányoztok</b>.</p><p>&#x2705;</p><p>A te válaszod és a másik játékos válasza <b>megegyeznek</b>.</p>","null","","","","feedback trial","",""
"html-button-response-esp","65","476420","0.0-11.0-0.27","3571","János imád dabozni, ezért sokat dabzik. Ti ritkán...","0","daboztok","[""daboztok"",""dabzotok""]","daboztok","esp trial","7","true"
"html-button-response","66","479936","0.0-11.0-1.27","null","<p>A másik játékos ezt választotta: <b>daboztok</b>.</p><p>&#x2705;</p><p>A te válaszod és a másik játékos válasza <b>megegyeznek</b>.</p>","null","","","","feedback trial","",""
"html-button-response-esp","67","486948","0.0-11.0-0.28","6492","János imád frakozni, ezért sokat fraklik. Mi ritkán...","1","frakozunk","[""fraklunk"",""frakozunk""]","frakozunk","esp trial","7","true"
"html-button-response","68","490469","0.0-11.0-1.28","null","<p>A másik játékos ezt választotta: <b>frakozunk</b>.</p><p>&#x2705;</p><p>A te válaszod és a másik játékos válasza <b>megegyeznek</b>.</p>","null","","","","feedback trial","",""
"html-button-response-esp","69","494869","0.0-11.0-0.29","3879","János imád virozni, ezért sokat virzik. Ők ritkán...","1","viroznak","[""virzanak"",""viroznak""]","viroznak","esp trial","7","true"
"html-button-response","70","498403","0.0-11.0-1.29","null","<p>A másik játékos ezt választotta: <b>viroznak</b>.</p><p>&#x2705;</p><p>A te válaszod és a másik játékos válasza <b>megegyeznek</b>.</p>","null","","","","feedback trial","",""
"html-button-response-esp","71","502932","0.0-11.0-0.30","4016","János imád kűdözni, ezért sokat kűdlik. Ők ritkán...","0","kűdöznek","[""kűdöznek"",""kűdlenek""]","kűdlenek","esp trial","7","false"
"html-button-response","72","506450","0.0-11.0-1.30","null","<p>A másik játékos ezt választotta: <b>kűdlenek</b>.</p><p>&#10060;</p><p>A válaszaitok <b>nem</b> egyeznek meg.</p>","null","","","","feedback trial","",""
"html-button-response-esp","73","512243","0.0-11.0-0.31","5278","János imád gyihegezni, ezért sokat gyihegzik. Ti ritkán...","0","gyihegzetek","[""gyihegzetek"",""gyihegeztek""]","gyihegeztek","esp trial","7","false"
"html-button-response","74","515753","0.0-11.0-1.31","null","<p>A másik játékos ezt választotta: <b>gyihegeztek</b>.</p><p>&#10060;</p><p>A válaszaitok <b>nem</b> egyeznek meg.</p>","null","","","","feedback trial","",""
"html-button-response-esp","75","521696","0.0-11.0-0.32","5436","János imád molodni, ezért sokat molszik. Ti ritkán...","0","molodtok","[""molodtok"",""molszotok""]","molszotok","esp trial","7","false"
"html-button-response","76","525217","0.0-11.0-1.32","null","<p>A másik játékos ezt választotta: <b>molszotok</b>.</p><p>&#10060;</p><p>A válaszaitok <b>nem</b> egyeznek meg.</p>","null","","","","feedback trial","",""
"html-button-response-esp","77","531382","0.0-11.0-0.33","5648","János imád köszözni, ezért sokat köszlik. Ti ritkán...","1","köszöztök","[""köszlötök"",""köszöztök""]","köszöztök","esp trial","7","true"
"html-button-response","78","534910","0.0-11.0-1.33","null","<p>A másik játékos ezt választotta: <b>köszöztök</b>.</p><p>&#x2705;</p><p>A te válaszod és a másik játékos válasza <b>megegyeznek</b>.</p>","null","","","","feedback trial","",""
"html-button-response-esp","79","548997","0.0-11.0-0.34","13577","János imád spiharozni, ezért sokat spiharzik. Ti ritkán...","0","spiharoztok","[""spiharoztok"",""spiharzotok""]","spiharoztok","esp trial","7","true"
"html-button-response","80","552521","0.0-11.0-1.34","null","<p>A másik játékos ezt választotta: <b>spiharoztok</b>.</p><p>&#x2705;</p><p>A te válaszod és a másik játékos válasza <b>megegyeznek</b>.</p>","null","","","","feedback trial","",""
"html-button-response-esp","81","559050","0.0-11.0-0.35","6025","János imád frálasozni, ezért sokat frálaslik. Ők ritkán...","0","frálasoznak","[""frálasoznak"",""frálaslanak""]","frálaslanak","esp trial","7","false"
"html-button-response","82","562572","0.0-11.0-1.35","null","<p>A másik játékos ezt választotta: <b>frálaslanak</b>.</p><p>&#10060;</p><p>A válaszaitok <b>nem</b> egyeznek meg.</p>","null","","","","feedback trial","",""
"html-button-response-esp","83","568921","0.0-11.0-0.36","5838","János imád sprozozni, ezért sokat sprozlik. Ők ritkán...","0","sprozlanak","[""sprozlanak"",""sprozoznak""]","sprozoznak","esp trial","7","false"
"html-button-response","84","572453","0.0-11.0-1.36","null","<p>A másik játékos ezt választotta: <b>sprozoznak</b>.</p><p>&#10060;</p><p>A válaszaitok <b>nem</b> egyeznek meg.</p>","null","","","","feedback trial","",""
"html-button-response-esp","85","578986","0.0-11.0-0.37","6015","János imád spirágozni, ezért sokat spiráglik. Ti ritkán...","1","spirágoztok","[""spiráglotok"",""spirágoztok""]","spirágoztok","esp trial","7","true"
"html-button-response","86","582513","0.0-11.0-1.37","null","<p>A másik játékos ezt választotta: <b>spirágoztok</b>.</p><p>&#x2705;</p><p>A te válaszod és a másik játékos válasza <b>megegyeznek</b>.</p>","null","","","","feedback trial","",""
"html-button-response-esp","87","588438","0.0-11.0-0.38","5419","János imád lűközni, ezért sokat lűklik. Ők ritkán...","0","lűköznek","[""lűköznek"",""lűklenek""]","lűköznek","esp trial","7","true"
"html-button-response","88","591958","0.0-11.0-1.38","null","<p>A másik játékos ezt választotta: <b>lűköznek</b>.</p><p>&#x2705;</p><p>A te válaszod és a másik játékos válasza <b>megegyeznek</b>.</p>","null","","","","feedback trial","",""
"html-button-response-esp","89","595719","0.0-11.0-0.39","2001","János imád trugokozni, ezért sokat trugoklik. Ők ritkán...","1","trugokoznak","[""trugoklanak"",""trugokoznak""]","trugokoznak","esp trial","7","true"
"html-button-response","90","599248","0.0-11.0-1.39","null","<p>A másik játékos ezt választotta: <b>trugokoznak</b>.</p><p>&#x2705;</p><p>A te válaszod és a másik játékos válasza <b>megegyeznek</b>.</p>","null","","","","feedback trial","",""
"html-button-response-esp","91","605295","0.0-11.0-0.40","5540","János imád drűrözni, ezért sokat drűrzik. Ők ritkán...","0","drűröznek","[""drűröznek"",""drűrzenek""]","drűröznek","esp trial","7","true"
"html-button-response","92","608816","0.0-11.0-1.40","null","<p>A másik játékos ezt választotta: <b>drűröznek</b>.</p><p>&#x2705;</p><p>A te válaszod és a másik játékos válasza <b>megegyeznek</b>.</p>","null","","","","feedback trial","",""
"html-button-response-esp","93","615563","0.0-11.0-0.41","6236","János imád bratározni, ezért sokat bratárzik. Ők ritkán...","0","bratároznak","[""bratároznak"",""bratárzanak""]","bratároznak","esp trial","7","true"
"html-button-response","94","619082","0.0-11.0-1.41","null","<p>A másik játékos ezt választotta: <b>bratároznak</b>.</p><p>&#x2705;</p><p>A te válaszod és a másik játékos válasza <b>megegyeznek</b>.</p>","null","","","","feedback trial","",""
"html-button-response-esp","95","625130","0.0-11.0-0.42","5534","János imád brözözni, ezért sokat brözlik. Ti ritkán...","0","brözlötök","[""brözlötök"",""brözöztök""]","brözöztök","esp trial","7","false"
"html-button-response","96","628667","0.0-11.0-1.42","null","<p>A másik játékos ezt választotta: <b>brözöztök</b>.</p><p>&#10060;</p><p>A válaszaitok <b>nem</b> egyeznek meg.</p>","null","","","","feedback trial","",""
"html-button-response-esp","97","634033","0.0-11.0-0.43","4855","János imád dilakozni, ezért sokat dilaklik. Ti ritkán...","1","dilakoztok","[""dilaklotok"",""dilakoztok""]","dilakoztok","esp trial","7","true"
"html-button-response","98","637566","0.0-11.0-1.43","null","<p>A másik játékos ezt választotta: <b>dilakoztok</b>.</p><p>&#x2705;</p><p>A te válaszod és a másik játékos válasza <b>megegyeznek</b>.</p>","null","","","","feedback trial","",""
"html-button-response-esp","99","643865","0.0-11.0-0.44","5789","János imád pilégedni, ezért sokat pilégszik. Ők ritkán...","1","pilégszenek","[""pilégednek"",""pilégszenek""]","pilégszenek","esp trial","7","true"
"html-button-response","100","647386","0.0-11.0-1.44","null","<p>A másik játékos ezt választotta: <b>pilégszenek</b>.</p><p>&#x2705;</p><p>A te válaszod és a másik játékos válasza <b>megegyeznek</b>.</p>","null","","","","feedback trial","",""
"html-button-response-esp","101","651524","0.0-11.0-0.45","3623","János imád posozni, ezért sokat poslik. Ti ritkán...","1","posoztok","[""poslotok"",""posoztok""]","poslotok","esp trial","7","false"
"html-button-response","102","655052","0.0-11.0-1.45","null","<p>A másik játékos ezt választotta: <b>poslotok</b>.</p><p>&#10060;</p><p>A válaszaitok <b>nem</b> egyeznek meg.</p>","null","","","","feedback trial","",""
"html-button-response-esp","103","663203","0.0-11.0-0.46","7633","János imád püzözni, ezért sokat püzlik. Ti ritkán...","0","püzlötök","[""püzlötök"",""püzöztök""]","püzöztök","esp trial","7","false"
"html-button-response","104","666718","0.0-11.0-1.46","null","<p>A másik játékos ezt választotta: <b>püzöztök</b>.</p><p>&#10060;</p><p>A válaszaitok <b>nem</b> egyeznek meg.</p>","null","","","","feedback trial","",""
"html-button-response-esp","105","670510","0.0-11.0-0.47","3280","János imád trugozni, ezért sokat trugzik. Ők ritkán...","1","trugoznak","[""trugzanak"",""trugoznak""]","trugoznak","esp trial","7","true"
"html-button-response","106","674043","0.0-11.0-1.47","null","<p>A másik játékos ezt választotta: <b>trugoznak</b>.</p><p>&#x2705;</p><p>A te válaszod és a másik játékos válasza <b>megegyeznek</b>.</p>","null","","","","feedback trial","",""
"html-button-response-esp","107","677817","0.0-11.0-0.48","3071","János imád nyivágozni, ezért sokat nyivágzik. Mi ritkán...","0","nyivágzunk","[""nyivágzunk"",""nyivágozunk""]","nyivágzunk","esp trial","7","true"
"html-button-response","108","681336","0.0-11.0-1.48","null","<p>A másik játékos ezt választotta: <b>nyivágzunk</b>.</p><p>&#x2705;</p><p>A te válaszod és a másik játékos válasza <b>megegyeznek</b>.</p>","null","","","","feedback trial","",""
"html-button-response-esp","109","687566","0.0-11.0-0.49","5711","János imád nyürözni, ezért sokat nyürzik. Ők ritkán...","1","nyüröznek","[""nyürzenek"",""nyüröznek""]","nyüröznek","esp trial","7","true"
"html-button-response","110","691093","0.0-11.0-1.49","null","<p>A másik játékos ezt választotta: <b>nyüröznek</b>.</p><p>&#x2705;</p><p>A te válaszod és a másik játékos válasza <b>megegyeznek</b>.</p>","null","","","","feedback trial","",""
"html-button-response-esp","111","694870","0.0-11.0-0.50","3199","János imád privékedni, ezért sokat privékszik. Ők ritkán...","0","privékednek","[""privékednek"",""privékszenek""]","privékednek","esp trial","7","true"
"html-button-response","112","698391","0.0-11.0-1.50","null","<p>A másik játékos ezt választotta: <b>privékednek</b>.</p><p>&#x2705;</p><p>A te válaszod és a másik játékos válasza <b>megegyeznek</b>.</p>","null","","","","feedback trial","",""
"html-button-response-esp","113","702167","0.0-11.0-0.51","3082","János imád trivakodni, ezért sokat trivakszik. Mi ritkán...","0","trivakodunk","[""trivakodunk"",""trivakszunk""]","trivakodunk","esp trial","7","true"
"html-button-response","114","705679","0.0-11.0-1.51","null","<p>A másik játékos ezt választotta: <b>trivakodunk</b>.</p><p>&#x2705;</p><p>A te válaszod és a másik játékos válasza <b>megegyeznek</b>.</p>","null","","","","feedback trial","",""
"html-button-response-esp","115","709449","0.0-11.0-0.52","2738","János imád spügözni, ezért sokat spügzik. Mi ritkán...","0","spügözünk","[""spügözünk"",""spügzünk""]","spügzünk","esp trial","7","false"
"html-button-response","116","712971","0.0-11.0-1.52","null","<p>A másik játékos ezt választotta: <b>spügzünk</b>.</p><p>&#10060;</p><p>A válaszaitok <b>nem</b> egyeznek meg.</p>","null","","","","feedback trial","",""
"html-button-response-esp","117","716926","0.0-11.0-0.53","3437","János imád gihejezni, ezért sokat gihejlik. Mi ritkán...","0","gihejlünk","[""gihejlünk"",""gihejezünk""]","gihejlünk","esp trial","7","true"
"html-button-response","118","720457","0.0-11.0-1.53","null","<p>A másik játékos ezt választotta: <b>gihejlünk</b>.</p><p>&#x2705;</p><p>A te válaszod és a másik játékos válasza <b>megegyeznek</b>.</p>","null","","","","feedback trial","",""
"html-button-response","119","729379","0.0-12.0","8410","<p>A közös játék most véget ért.</p><p>Mielőtt eláruljuk a végső pontszámodat, arra kérlek, játszd a szóválasztós játékot néhány percig egyedül is.</p><p>A feladatod ugyanaz lesz, választani két lehetőség közül.</p><p>Most viszont egyedül kell döntened, hogy te melyiket választanád.</p>","0","","","","","",""
"html-button-response-clever","120","734115","0.0-13.0-0.0","4215","János imád flézezni, ezért sokat flézlik. Ti ritkán...","0","flézeztek","[""flézeztek"",""flézletek""]","","posttest trial","8",""
"html-button-response-clever","121","738146","0.0-13.0-0.1","3524","János imád brálamozni, ezért sokat brálamlik. Ők ritkán...","0","brálamoznak","[""brálamoznak"",""brálamlanak""]","","posttest trial","8",""
"html-button-response-clever","122","741628","0.0-13.0-0.2","2976","János imád flubokozni, ezért sokat fluboklik. Ti ritkán...","1","flubokoztok","[""fluboklotok"",""flubokoztok""]","","posttest trial","8",""
"html-button-response-clever","123","744855","0.0-13.0-0.3","2709","János imád fröjözni, ezért sokat fröjlik. Mi ritkán...","1","fröjözünk","[""fröjlünk"",""fröjözünk""]","","posttest trial","8",""
"html-button-response-clever","124","748941","0.0-13.0-0.4","3571","János imád sztrajozni, ezért sokat sztrajlik. Ők ritkán...","0","sztrajoznak","[""sztrajoznak"",""sztrajlanak""]","","posttest trial","8",""
"html-button-response-clever","125","751153","0.0-13.0-0.5","1702","János imád sprigozni, ezért sokat sprigzik. Ti ritkán...","1","sprigoztok","[""sprigzotok"",""sprigoztok""]","","posttest trial","8",""
"html-button-response-clever","126","753616","0.0-13.0-0.6","1956","János imád gibemezni, ezért sokat gibemlik. Mi ritkán...","1","gibemezünk","[""gibemlünk"",""gibemezünk""]","","posttest trial","8",""
"html-button-response-clever","127","756758","0.0-13.0-0.7","2631","János imád tribejezni, ezért sokat tribejlik. Ti ritkán...","0","tribejeztek","[""tribejeztek"",""tribejletek""]","","posttest trial","8",""
"html-button-response-clever","128","760260","0.0-13.0-0.8","2982","János imád trírozni, ezért sokat trírzik. Mi ritkán...","1","trírozunk","[""trírzunk"",""trírozunk""]","","posttest trial","8",""
"html-button-response-clever","129","762968","0.0-13.0-0.9","2193","János imád brilegezni, ezért sokat brilegzik. Mi ritkán...","1","brilegezünk","[""brilegzünk"",""brilegezünk""]","","posttest trial","8",""
"html-button-response-clever","130","766886","0.0-13.0-0.10","3405","János imád flivegezni, ezért sokat flivegzik. Ők ritkán...","0","flivegeznek","[""flivegeznek"",""flivegzenek""]","","posttest trial","8",""
"html-button-response-clever","131","785782","0.0-13.0-0.11","18376","János imád pehégedni, ezért sokat pehégszik. Ti ritkán...","1","pehégedtek","[""pehégszetek"",""pehégedtek""]","","posttest trial","8",""
"html-button-response-clever","132","791565","0.0-13.0-0.12","5268","János imád klarágozni, ezért sokat klarágzik. Ti ritkán...","0","klarágoztok","[""klarágoztok"",""klarágzotok""]","","posttest trial","8",""
"html-button-response-clever","133","802165","0.0-13.0-0.13","10075","János imád brározni, ezért sokat brárlik. Ők ritkán...","0","brároznak","[""brároznak"",""brárlanak""]","","posttest trial","8",""
"html-button-response-clever","134","809214","0.0-13.0-0.14","6530","János imád nágapodni, ezért sokat nágapszik. Ők ritkán...","0","nágapodnak","[""nágapodnak"",""nágapszanak""]","","posttest trial","8",""
"html-button-response-clever","135","827314","0.0-13.0-0.15","17587","János imád hákodni, ezért sokat hákszik. Ők ritkán...","0","hákodnak","[""hákodnak"",""hákszanak""]","","posttest trial","8",""
"html-button-response-clever","136","829543","0.0-13.0-0.16","1720","János imád lumozni, ezért sokat lumlik. Ti ritkán...","0","lumoztok","[""lumoztok"",""lumlotok""]","","posttest trial","8",""
"html-button-response-clever","137","831273","0.0-13.0-0.17","1208","János imád sponyozni, ezért sokat sponylik. Ők ritkán...","0","sponyoznak","[""sponyoznak"",""sponylanak""]","","posttest trial","8",""
"html-button-response-clever","138","833342","0.0-13.0-0.18","1556","János imád filányozni, ezért sokat filánylik. Mi ritkán...","1","filányozunk","[""filánylunk"",""filányozunk""]","","posttest trial","8",""
"html-button-response-clever","139","835529","0.0-13.0-0.19","1665","János imád küsözni, ezért sokat küslik. Mi ritkán...","1","küsözünk","[""küslünk"",""küsözünk""]","","posttest trial","8",""
"html-button-response-clever","140","839010","0.0-13.0-0.20","2962","János imád pörözni, ezért sokat pörzik. Ti ritkán...","0","pöröztök","[""pöröztök"",""pörzötök""]","","posttest trial","8",""
"html-button-response-clever","141","841929","0.0-13.0-0.21","2408","János imád kluzozni, ezért sokat kluzlik. Ti ritkán...","0","kluzoztok","[""kluzoztok"",""kluzlotok""]","","posttest trial","8",""
"html-button-response-clever","142","844143","0.0-13.0-0.22","1692","János imád tibarozni, ezért sokat tibarzik. Ők ritkán...","1","tibaroznak","[""tibarzanak"",""tibaroznak""]","","posttest trial","8",""
"html-button-response-clever","143","846320","0.0-13.0-0.23","1662","János imád sprimozni, ezért sokat sprimlik. Mi ritkán...","1","sprimozunk","[""sprimlunk"",""sprimozunk""]","","posttest trial","8",""
"html-button-response-clever","144","849082","0.0-13.0-0.24","2241","János imád vobozni, ezért sokat vobzik. Ti ritkán...","1","voboztok","[""vobzotok"",""voboztok""]","","posttest trial","8",""
"html-button-response-clever","145","857877","0.0-13.0-0.25","8278","János imád prilepedni, ezért sokat prilepszik. Mi ritkán...","0","prilepedünk","[""prilepedünk"",""prilepszünk""]","","posttest trial","8",""
"html-button-response-clever","146","874295","0.0-13.0-0.26","15898","János imád galározni, ezért sokat galárzik. Ők ritkán...","1","galároznak","[""galárzanak"",""galároznak""]","","posttest trial","8",""
"html-button-response-clever","147","885776","0.0-13.0-0.27","10960","János imád brivágozni, ezért sokat briváglik. Ők ritkán...","0","brivágoznak","[""brivágoznak"",""briváglanak""]","","posttest trial","8",""
"html-button-response-clever","148","888769","0.0-13.0-0.28","2476","János imád trűnyözni, ezért sokat trűnylik. Ők ritkán...","1","trűnyöznek","[""trűnylenek"",""trűnyöznek""]","","posttest trial","8",""
"html-button-response-clever","149","890873","0.0-13.0-0.29","1596","János imád lírozni, ezért sokat lírlik. Ők ritkán...","0","líroznak","[""líroznak"",""lírlanak""]","","posttest trial","8",""
"html-button-response-clever","150","894451","0.0-13.0-0.30","3058","János imád gyivepedni, ezért sokat gyivepszik. Ők ritkán...","1","gyivepednek","[""gyivepszenek"",""gyivepednek""]","","posttest trial","8",""
"html-button-response-clever","151","898501","0.0-13.0-0.31","3534","János imád tágarozni, ezért sokat tágarzik. Mi ritkán...","0","tágarozunk","[""tágarozunk"",""tágarzunk""]","","posttest trial","8",""
"html-button-response-clever","152","908616","0.0-13.0-0.32","9594","János imád drivegezni, ezért sokat drivegzik. Ti ritkán...","1","drivegeztek","[""drivegzetek"",""drivegeztek""]","","posttest trial","8",""
"html-button-response-clever","153","912017","0.0-13.0-0.33","2893","János imád míjozni, ezért sokat míjzik. Mi ritkán...","1","míjozunk","[""míjzunk"",""míjozunk""]","","posttest trial","8",""
"html-button-response-clever","154","914866","0.0-13.0-0.34","2339","János imád brivepedni, ezért sokat brivepszik. Mi ritkán...","1","brivepedünk","[""brivepszünk"",""brivepedünk""]","","posttest trial","8",""
"html-button-response-clever","155","917507","0.0-13.0-0.35","2124","János imád tűgözni, ezért sokat tűgzik. Ti ritkán...","1","tűgzötök","[""tűgöztök"",""tűgzötök""]","","posttest trial","8",""
"html-button-response-clever","156","923078","0.0-13.0-0.36","5063","János imád frivamozni, ezért sokat frivamlik. Mi ritkán...","0","frivamozunk","[""frivamozunk"",""frivamlunk""]","","posttest trial","8",""
"html-button-response-clever","157","928904","0.0-13.0-0.37","5316","János imád gatágozni, ezért sokat gatáglik. Mi ritkán...","0","gatágozunk","[""gatágozunk"",""gatáglunk""]","","posttest trial","8",""
"html-button-response-clever","158","932496","0.0-13.0-0.38","3080","János imád mihágozni, ezért sokat mihágzik. Ti ritkán...","1","mihágzotok","[""mihágoztok"",""mihágzotok""]","","posttest trial","8",""
"html-button-response-clever","159","935162","0.0-13.0-0.39","2156","János imád dirányozni, ezért sokat diránylik. Ők ritkán...","1","diránylanak","[""dirányoznak"",""diránylanak""]","","posttest trial","8",""
"html-button-response-clever","160","937811","0.0-13.0-0.40","2134","János imád mísozni, ezért sokat míslik. Mi ritkán...","1","míslunk","[""mísozunk"",""míslunk""]","","posttest trial","8",""
"html-button-response-clever","161","940197","0.0-13.0-0.41","1869","János imád spöközni, ezért sokat spöklik. Mi ritkán...","0","spöközünk","[""spöközünk"",""spöklünk""]","","posttest trial","8",""
"html-button-response-clever","162","943978","0.0-13.0-0.42","3263","János imád spibamozni, ezért sokat spibamlik. Ők ritkán...","1","spibamlanak","[""spibamoznak"",""spibamlanak""]","","posttest trial","8",""
"html-button-response-clever","163","946658","0.0-13.0-0.43","2171","János imád pekedni, ezért sokat pekszik. Mi ritkán...","0","pekedünk","[""pekedünk"",""pekszünk""]","","posttest trial","8",""
"html-button-response-clever","164","949509","0.0-13.0-0.44","2341","János imád livényezni, ezért sokat livénylik. Mi ritkán...","1","livényezünk","[""livénylünk"",""livényezünk""]","","posttest trial","8",""
"html-button-response-clever","165","952622","0.0-13.0-0.45","2591","János imád sztritozni, ezért sokat sztritlik. Ők ritkán...","0","sztritoznak","[""sztritoznak"",""sztritlanak""]","","posttest trial","8",""
"html-button-response-clever","166","954893","0.0-13.0-0.46","1751","János imád drojozni, ezért sokat drojzik. Mi ritkán...","0","drojozunk","[""drojozunk"",""drojzunk""]","","posttest trial","8",""
"html-button-response-clever","167","963332","0.0-13.0-0.47","7924","János imád bregezni, ezért sokat bregzik. Mi ritkán...","1","bregezünk","[""bregzünk"",""bregezünk""]","","posttest trial","8",""
"html-button-response-clever","168","967679","0.0-13.0-0.48","3828","János imád prazozni, ezért sokat prazlik. Mi ritkán...","0","prazozunk","[""prazozunk"",""prazlunk""]","","posttest trial","8",""
"html-button-response-clever","169","970004","0.0-13.0-0.49","1806","János imád brüszözni, ezért sokat brüszlik. Ti ritkán...","0","brüszlötök","[""brüszlötök"",""brüszöztök""]","","posttest trial","8",""
"html-button-response-clever","170","971701","0.0-13.0-0.50","1187","János imád riványozni, ezért sokat riványlik. Ti ritkán...","0","riványoztok","[""riványoztok"",""riványlotok""]","","posttest trial","8",""
"html-button-response-clever","171","973599","0.0-13.0-0.51","1374","János imád frésezni, ezért sokat fréslik. Mi ritkán...","0","frésezünk","[""frésezünk"",""fréslünk""]","","posttest trial","8",""
"html-button-response-clever","172","976468","0.0-13.0-0.52","2355","János imád spalározni, ezért sokat spalárzik. Ők ritkán...","0","spalárzanak","[""spalárzanak"",""spalároznak""]","","posttest trial","8",""
"html-button-response-clever","173","980091","0.0-13.0-0.53","3103","János imád frihegezni, ezért sokat friheglik. Mi ritkán...","1","frihegezünk","[""friheglünk"",""frihegezünk""]","","posttest trial","8",""
"html-button-response","174","989100","0.0-14.0","8495","<p> Vége a játéknak. A teljes pontszámod 37/54.</p><p> Szép munka! &#128526;&#128526;&#128526;</p><p>A Befejezés gomb megnyomása után bezárhatod a böngészőablakot.</p>","0","","","","","",""
"html-keyboard-response","175","994617","0.0-15.0","null","<div class=""message"">
         <p>Egy kis türelmet kérünk, amíg elmentjük az adatokat...</p>
         </div>","null","","","","","",""
