"trial_type","trial_index","time_elapsed","internal_node_id","rt","stimulus","response","response_string","choices","esp_response","trial_kind","list_number","esp_match"
"pavlovia","0","831","0.0-0.0","","","","","","","","",""
"html-button-response","1","41803","0.0-1.0","40313","<p>Kedves Résztvevő! A Budapesti Műszaki és Gazdaságtudományi Egyetem Kognitív Tudományi Tanszékének kutatásában való részvételed kérjük. A kutatásban azt vizsgáljuk, hogy a magyar anyanyelvűek hogyan használnak bizonyos szóalakokat, és hogy milyen képük van arról, hogy mások hogyan használják, hogyan képzik a szavakat. Ez hozzásegít bennünket ahhoz, hogy jobban megértsük, hogyan dolgozza fel és tárolja a nyelvet az emberi agy, és hogyan működnek, hogyan változnak egy adott közösség nyelvi konvenciói.</p><p>A vizsgálat egy rövid számítógépes feladatból fog állni. A kutatásban való részvétel önkéntes, a részvételi szándék bármikor visszavonható. A résztvevők eredményeit név nélkül kezeljük, így nem beazonosíthatók az adatok feldolgozása során. Minden személyes adatot az EU általános adatvédelmi rendeletének (GDPR) megfelelően kezelünk és legfeljebb öt éven belül megsemmisítünk. A vizsgálat jellemzően húsz percet vesz igénybe.</p><p>Kutatásvezető:</p><p>Dr. Rácz Péter, tudományos munkatárs, BME KTT</p><p>e-mail: racz.peter.marton@ttk.bme.hu</p>","0","","","","","",""
"html-button-response","2","80406","0.0-2.0","38087","<p>A kísérletben szavakat fogsz látni. Ezek között lesznek olyanok, amelyeket ismersz, de előfordulhatnak olyanok is, amelyeket nem ismersz, sőt, vannak köztük kitalált szavak is. Minden szónál látni fogsz toldalékolt alakokat. A te feladatod az lesz, hogy minden szóhoz kiválaszd azt a toldalékolt alakot, amely a te számodra ismerősebben, természetesebben hangzik. Rossz válaszok nincsenek, mert van olyan, hogy különböző embereknek más és más szó tűnik jobb választásnak. A választ úgy tudod majd kiválasztani, ha rákattintasz.</p><p>Ebben a szóválasztós játékban egy másik játékossal együtt veszel majd részt. A másik játékos is minden esetben azok közül a lehetőségek közül válogathat, mint te. Kettőtök feladata az, hogy ugyanazt a lehetőséget válasszátok minden esetben. Ahhoz, hogy ez sikerüljön, neked figyelned kell arra, hogy a másik játékos milyen válaszokat ad, és ennek alapján meg kell tippelned, hogyan választ legközelebb. Ha eltalálod, akkor pontot kapsz.</p>","0","","","","","",""
"html-button-response","3","94157","0.0-3.0","13236","<p>Kérjük, olvasd el az alábbi nyilatkozatot, és amennyiben egyetértesz vele, nyomj a Beleegyezés gombra!</p><p>Kijelentem, hogy magyar anyanyelvű személyként önként veszek részt a BME KTT kísérletében. A kutatás céljával és folyamatával kapcsolatban elegendő tájékoztatást kaptam, lehetőségem volt kérdések feltételére, és esetleges kérdéseimre megfelelő válaszokat kaptam. A tájékoztatás alapján elegendő mennyiségű információ áll a rendelkezésemre, hogy eldönthessem, részt kívánok-e venni a kutatásban.</p><p>Tisztában vagyok vele, hogy részvételi szándékomat és adataimat bármikor, indoklás nélkül visszavonhatom.</p><p>Értem és tudomásul veszem, hogy a kutatás tudományos célokat szolgál, és az általam szolgáltatott adatokat a BME kizárólag kutatási célból használja fel. Tudomásul veszem, hogy eredményeimet a többi résztvevő eredményeivel együtt kezelik, így egyéni teljesítményemről visszajelzést, szakvéleményt nem kapok.</p><p>Megértettem, hogy adataim kezelését illetően a BME az EU általános adatvédelmi rendelete (GDPR), a hatályos adatvédelmi törvény és a nemzetközi kutatás-etikai alapelvek szerint jár el. Eredményeim anonim módon kerülnek feldolgozásra, és a kutatás résztvevői az azonosításomra alkalmas adataimat harmadik félnek nem szolgáltatják ki. Engedélyezem a BME számára a jelen kutatásban felvett adataim feldolgozását és tárolását, beleértve azok későbbi kutatásokhoz való felhasználását is. Személyes adataim kezelésével kapcsolatban tájékoztatást kérhetek a kutatás résztvevőitől, az adatkezelés ellen tiltakozhatok, kérhetem személyes adataim helyesbítését, törlését vagy zárolását, valamint jogorvoslatért a Nemzeti Adatvédelmi és Információszabadság Hatósághoz fordulhatok.</p><p>Kijelentem, hogy a kutatásban való részvételem körülményeiről részletes tájékoztatást kaptam, és a feltételeket elfogadom.</p>","0","","","","","",""
"survey-text","4","179366","0.0-4.0","84689","","{""Q0"":""AC3QCP"",""Q1"":""NŐ"",""Q2"":""1984"",""Q3"":""12""}","","","","","",""
"html-button-response","5","194741","0.0-5.0","14868","<p>Ebben a játékban szavakat kell toldalékolni.</p> <p>Minden körben mutatunk majd egy példamondatot, amiben lesz egy szó.</p> <p>Alatta jön egy második mondat, ezt a mondatot neked kell majd befejezni, ugyanezzel a szóval.</p> <p>Nem biztos, hogy a szó eleve ismerős lesz számodra!</p> <p>Minden mondathoz adunk két lehetőséget, ezeket balra és jobbra látod majd.</p> <p>A játék kb. negyedóráig-húsz percig tart.</p>","0","","","","","",""
"html-button-response","6","213365","0.0-6.0","18091","<p>Nézzünk egy példát!</p> <p>A példamondat: ""János imád fláramolni, ezért sokat fláramlik.""</p><p>Neked ezt a mondatot kell befejezned: ""Ti ritkán...""</p><p>A lehetőségek pedig ezek:</p>","0","","","","","",""
"html-button-response","7","222135","0.0-7.0","8265","<p>Nagyon jó.</p><p>Ezt a játékot nem egyedül fogod játszani, hanem egy másik játékossal.</p><p>Mielőtt továbblépünk, összekapcsolunk titeket egymással.</p><p>Ez igénybe vehet néhány másodpercet, amihez szíves türelmed kérjük.</p>","0","","","","","",""
"html-button-response","8","227880","0.0-8.0","null","<p>Csatlakozás a másik játékoshoz...</p>","null","","","","","",""
"html-button-response","9","230410","0.0-9.0","null","<p> Sikeres kapcsolódás!</p>","null","","","","","",""
"html-button-response","10","240928","0.0-10.0","null","<p>A következőkben ketten játsszátok a szóválasztós játékot.</p><p>A feladatotok az lesz, hogy minden körben <b>ugyanazt</b> a szót válasszátok.</p><p>Minden ilyen egyező válaszért pontot kaptok.</p><p>Próbáld meg kitalálni, mit választ a másik játékos!</p><p>Bármikor választhatsz, a körnek akkor van vége, ha mindketten döntöttetek.</p><p>Sok sikert!</p>","null","","","","","",""
"html-button-response-esp","11","251392","0.0-11.0-0.0","9945","János imád spuborozni, ezért sokat spuborzik. Ők ritkán...","1","spuboroznak","[""spuborzanak"",""spuboroznak""]","spuboroznak","esp trial","3","true"
"html-button-response","12","254919","0.0-11.0-1.0","null","<p>A másik játékos ezt választotta: <b>spuboroznak</b>.</p><p>&#x2705;</p><p>A te válaszod és a másik játékos válasza <b>megegyeznek</b>.</p>","null","","","","feedback trial","",""
"html-button-response-esp","13","274221","0.0-11.0-0.1","18793","János imád trálakozni, ezért sokat trálaklik. Ők ritkán...","0","trálaklanak","[""trálaklanak"",""trálakoznak""]","trálakoznak","esp trial","3","false"
"html-button-response","14","277741","0.0-11.0-1.1","null","<p>A másik játékos ezt választotta: <b>trálakoznak</b>.</p><p>&#10060;</p><p>A válaszaitok <b>nem</b> egyeznek meg.</p>","null","","","","feedback trial","",""
"html-button-response-esp","15","286310","0.0-11.0-0.2","8050","János imád prugorozni, ezért sokat prugorzik. Ti ritkán...","0","prugoroztok","[""prugoroztok"",""prugorzotok""]","prugoroztok","esp trial","3","true"
"html-button-response","16","289826","0.0-11.0-1.2","null","<p>A másik játékos ezt választotta: <b>prugoroztok</b>.</p><p>&#x2705;</p><p>A te válaszod és a másik játékos válasza <b>megegyeznek</b>.</p>","null","","","","feedback trial","",""
"html-button-response-esp","17","301422","0.0-11.0-0.3","11091","János imád brürözni, ezért sokat brürzik. Ők ritkán...","0","brüröznek","[""brüröznek"",""brürzenek""]","brüröznek","esp trial","3","true"
"html-button-response","18","304942","0.0-11.0-1.3","null","<p>A másik játékos ezt választotta: <b>brüröznek</b>.</p><p>&#x2705;</p><p>A te válaszod és a másik játékos válasza <b>megegyeznek</b>.</p>","null","","","","feedback trial","",""
"html-button-response-esp","19","317049","0.0-11.0-0.4","11586","János imád nyülöközni, ezért sokat nyülöklik. Ők ritkán...","0","nyülököznek","[""nyülököznek"",""nyülöklenek""]","nyülököznek","esp trial","3","true"
"html-button-response","20","320574","0.0-11.0-1.4","null","<p>A másik játékos ezt választotta: <b>nyülököznek</b>.</p><p>&#x2705;</p><p>A te válaszod és a másik játékos válasza <b>megegyeznek</b>.</p>","null","","","","feedback trial","",""
"html-button-response-esp","21","328427","0.0-11.0-0.5","7320","János imád flátozni, ezért sokat flátlik. Ti ritkán...","1","flátoztok","[""flátlotok"",""flátoztok""]","flátoztok","esp trial","3","true"
"html-button-response","22","331955","0.0-11.0-1.5","null","<p>A másik játékos ezt választotta: <b>flátoztok</b>.</p><p>&#x2705;</p><p>A te válaszod és a másik játékos válasza <b>megegyeznek</b>.</p>","null","","","","feedback trial","",""
"html-button-response-esp","23","339810","0.0-11.0-0.6","7337","János imád flerékedni, ezért sokat flerékszik. Mi ritkán...","1","flerékedünk","[""flerékszünk"",""flerékedünk""]","flerékedünk","esp trial","3","true"
"html-button-response","24","343323","0.0-11.0-1.6","null","<p>A másik játékos ezt választotta: <b>flerékedünk</b>.</p><p>&#x2705;</p><p>A te válaszod és a másik játékos válasza <b>megegyeznek</b>.</p>","null","","","","feedback trial","",""
"html-button-response-esp","25","357086","0.0-11.0-0.7","13245","János imád plibozni, ezért sokat plibzik. Ti ritkán...","1","pliboztok","[""plibzotok"",""pliboztok""]","pliboztok","esp trial","3","true"
"html-button-response","26","360605","0.0-11.0-1.7","null","<p>A másik játékos ezt választotta: <b>pliboztok</b>.</p><p>&#x2705;</p><p>A te válaszod és a másik játékos válasza <b>megegyeznek</b>.</p>","null","","","","feedback trial","",""
"html-button-response-esp","27","365338","0.0-11.0-0.8","3567","János imád bügözni, ezért sokat bügzik. Ők ritkán...","0","bügöznek","[""bügöznek"",""bügzenek""]","bügzenek","esp trial","3","false"
"html-button-response","28","368849","0.0-11.0-1.8","null","<p>A másik játékos ezt választotta: <b>bügzenek</b>.</p><p>&#10060;</p><p>A válaszaitok <b>nem</b> egyeznek meg.</p>","null","","","","feedback trial","",""
"html-button-response-esp","29","375729","0.0-11.0-0.9","6362","János imád klégezni, ezért sokat kléglik. Mi ritkán...","1","klégezünk","[""kléglünk"",""klégezünk""]","kléglünk","esp trial","3","false"
"html-button-response","30","379254","0.0-11.0-1.9","null","<p>A másik játékos ezt választotta: <b>kléglünk</b>.</p><p>&#10060;</p><p>A válaszaitok <b>nem</b> egyeznek meg.</p>","null","","","","feedback trial","",""
"html-button-response-esp","31","386082","0.0-11.0-0.10","6314","János imád játozni, ezért sokat játlik. Mi ritkán...","0","játlunk","[""játlunk"",""játozunk""]","játlunk","esp trial","3","true"
"html-button-response","32","389606","0.0-11.0-1.10","null","<p>A másik játékos ezt választotta: <b>játlunk</b>.</p><p>&#x2705;</p><p>A te válaszod és a másik játékos válasza <b>megegyeznek</b>.</p>","null","","","","feedback trial","",""
"html-button-response-esp","33","396205","0.0-11.0-0.11","6081","János imád bötőrözni, ezért sokat bötőrzik. Mi ritkán...","1","bötőrözünk","[""bötőrzünk"",""bötőrözünk""]","bötőrözünk","esp trial","3","true"
"html-button-response","34","399724","0.0-11.0-1.11","null","<p>A másik játékos ezt választotta: <b>bötőrözünk</b>.</p><p>&#x2705;</p><p>A te válaszod és a másik játékos válasza <b>megegyeznek</b>.</p>","null","","","","feedback trial","",""
"html-button-response-esp","35","415980","0.0-11.0-0.12","15738","János imád dibágozni, ezért sokat dibáglik. Ti ritkán...","1","dibáglotok","[""dibágoztok"",""dibáglotok""]","dibágoztok","esp trial","3","false"
"html-button-response","36","419507","0.0-11.0-1.12","null","<p>A másik játékos ezt választotta: <b>dibágoztok</b>.</p><p>&#10060;</p><p>A válaszaitok <b>nem</b> egyeznek meg.</p>","null","","","","feedback trial","",""
"html-button-response-esp","37","424800","0.0-11.0-0.13","4775","János imád hiragozni, ezért sokat hiragzik. Ők ritkán...","1","hiragoznak","[""hiragzanak"",""hiragoznak""]","hiragoznak","esp trial","3","true"
"html-button-response","38","428323","0.0-11.0-1.13","null","<p>A másik játékos ezt választotta: <b>hiragoznak</b>.</p><p>&#x2705;</p><p>A te válaszod és a másik játékos válasza <b>megegyeznek</b>.</p>","null","","","","feedback trial","",""
"html-button-response-esp","39","435987","0.0-11.0-0.14","7144","János imád klűmözni, ezért sokat klűmlik. Ti ritkán...","1","klűmöztök","[""klűmlötök"",""klűmöztök""]","klűmöztök","esp trial","3","true"
"html-button-response","40","439507","0.0-11.0-1.14","null","<p>A másik játékos ezt választotta: <b>klűmöztök</b>.</p><p>&#x2705;</p><p>A te válaszod és a másik játékos válasza <b>megegyeznek</b>.</p>","null","","","","feedback trial","",""
"html-button-response-esp","41","446905","0.0-11.0-0.15","6878","János imád klihasozni, ezért sokat klihaslik. Ti ritkán...","1","klihasoztok","[""klihaslotok"",""klihasoztok""]","klihasoztok","esp trial","3","true"
"html-button-response","42","450425","0.0-11.0-1.15","null","<p>A másik játékos ezt választotta: <b>klihasoztok</b>.</p><p>&#x2705;</p><p>A te válaszod és a másik játékos válasza <b>megegyeznek</b>.</p>","null","","","","feedback trial","",""
"html-button-response-esp","43","460452","0.0-11.0-0.16","9509","János imád ribegedni, ezért sokat ribegszik. Ti ritkán...","1","ribegedtek","[""ribegszetek"",""ribegedtek""]","ribegedtek","esp trial","3","true"
"html-button-response","44","463976","0.0-11.0-1.16","null","<p>A másik játékos ezt választotta: <b>ribegedtek</b>.</p><p>&#x2705;</p><p>A te válaszod és a másik játékos válasza <b>megegyeznek</b>.</p>","null","","","","feedback trial","",""
"html-button-response-esp","45","475854","0.0-11.0-0.17","11359","János imád frélegezni, ezért sokat frélegzik. Mi ritkán...","1","frélegzünk","[""frélegezünk"",""frélegzünk""]","frélegzünk","esp trial","3","true"
"html-button-response","46","479375","0.0-11.0-1.17","null","<p>A másik játékos ezt választotta: <b>frélegzünk</b>.</p><p>&#x2705;</p><p>A te válaszod és a másik játékos válasza <b>megegyeznek</b>.</p>","null","","","","feedback trial","",""
"html-button-response-esp","47","484099","0.0-11.0-0.18","3982","János imád frorozni, ezért sokat frorlik. Ők ritkán...","1","froroznak","[""frorlanak"",""froroznak""]","frorlanak","esp trial","3","false"
"html-button-response","48","487615","0.0-11.0-1.18","null","<p>A másik játékos ezt választotta: <b>frorlanak</b>.</p><p>&#10060;</p><p>A válaszaitok <b>nem</b> egyeznek meg.</p>","null","","","","feedback trial","",""
"html-button-response-esp","49","495995","0.0-11.0-0.19","7864","János imád trilekedni, ezért sokat trilekszik. Ti ritkán...","1","trilekedtek","[""trilekszetek"",""trilekedtek""]","trilekedtek","esp trial","3","true"
"html-button-response","50","499509","0.0-11.0-1.19","null","<p>A másik játékos ezt választotta: <b>trilekedtek</b>.</p><p>&#x2705;</p><p>A te válaszod és a másik játékos válasza <b>megegyeznek</b>.</p>","null","","","","feedback trial","",""
"html-button-response-esp","51","504979","0.0-11.0-0.20","4950","János imád trukodni, ezért sokat trukszik. Ti ritkán...","1","trukodtok","[""trukszotok"",""trukodtok""]","trukodtok","esp trial","3","true"
"html-button-response","52","508494","0.0-11.0-1.20","null","<p>A másik játékos ezt választotta: <b>trukodtok</b>.</p><p>&#x2705;</p><p>A te válaszod és a másik játékos válasza <b>megegyeznek</b>.</p>","null","","","","feedback trial","",""
"html-button-response-esp","53","514902","0.0-11.0-0.21","5889","János imád flugonyozni, ezért sokat flugonylik. Ők ritkán...","1","flugonyoznak","[""flugonylanak"",""flugonyoznak""]","flugonyoznak","esp trial","3","true"
"html-button-response","54","518427","0.0-11.0-1.21","null","<p>A másik játékos ezt választotta: <b>flugonyoznak</b>.</p><p>&#x2705;</p><p>A te válaszod és a másik játékos válasza <b>megegyeznek</b>.</p>","null","","","","feedback trial","",""
"html-button-response-esp","55","523312","0.0-11.0-0.22","4367","János imád pibegezni, ezért sokat pibegzik. Ők ritkán...","0","pibegeznek","[""pibegeznek"",""pibegzenek""]","pibegeznek","esp trial","3","true"
"html-button-response","56","526844","0.0-11.0-1.22","null","<p>A másik játékos ezt választotta: <b>pibegeznek</b>.</p><p>&#x2705;</p><p>A te válaszod és a másik játékos válasza <b>megegyeznek</b>.</p>","null","","","","feedback trial","",""
"html-button-response-esp","57","532414","0.0-11.0-0.23","5052","János imád brűközni, ezért sokat brűklik. Ti ritkán...","0","brűköztök","[""brűköztök"",""brűklötök""]","brűköztök","esp trial","3","true"
"html-button-response","58","535928","0.0-11.0-1.23","null","<p>A másik játékos ezt választotta: <b>brűköztök</b>.</p><p>&#x2705;</p><p>A te válaszod és a másik játékos válasza <b>megegyeznek</b>.</p>","null","","","","feedback trial","",""
"html-button-response-esp","59","541289","0.0-11.0-0.24","4843","János imád flodozni, ezért sokat flodlik. Ti ritkán...","1","flodoztok","[""flodlotok"",""flodoztok""]","flodoztok","esp trial","3","true"
"html-button-response","60","544810","0.0-11.0-1.24","null","<p>A másik játékos ezt választotta: <b>flodoztok</b>.</p><p>&#x2705;</p><p>A te válaszod és a másik játékos válasza <b>megegyeznek</b>.</p>","null","","","","feedback trial","",""
"html-button-response-esp","61","550110","0.0-11.0-0.25","4789","János imád nyizozni, ezért sokat nyizlik. Mi ritkán...","1","nyizozunk","[""nyizlunk"",""nyizozunk""]","nyizlunk","esp trial","3","false"
"html-button-response","62","553628","0.0-11.0-1.25","null","<p>A másik játékos ezt választotta: <b>nyizlunk</b>.</p><p>&#10060;</p><p>A válaszaitok <b>nem</b> egyeznek meg.</p>","null","","","","feedback trial","",""
"html-button-response-esp","63","561808","0.0-11.0-0.26","7662","János imád vilesezni, ezért sokat vileslik. Mi ritkán...","0","vilesezünk","[""vilesezünk"",""vileslünk""]","vilesezünk","esp trial","3","true"
"html-button-response","64","565323","0.0-11.0-1.26","null","<p>A másik játékos ezt választotta: <b>vilesezünk</b>.</p><p>&#x2705;</p><p>A te válaszod és a másik játékos válasza <b>megegyeznek</b>.</p>","null","","","","feedback trial","",""
"html-button-response-esp","65","571108","0.0-11.0-0.27","5276","János imád vehékedni, ezért sokat vehékszik. Mi ritkán...","0","vehékedünk","[""vehékedünk"",""vehékszünk""]","vehékszünk","esp trial","3","false"
"html-button-response","66","574640","0.0-11.0-1.27","null","<p>A másik játékos ezt választotta: <b>vehékszünk</b>.</p><p>&#10060;</p><p>A válaszaitok <b>nem</b> egyeznek meg.</p>","null","","","","feedback trial","",""
"html-button-response-esp","67","584506","0.0-11.0-0.28","9348","János imád dralágozni, ezért sokat dralágzik. Mi ritkán...","1","dralágozunk","[""dralágzunk"",""dralágozunk""]","dralágzunk","esp trial","3","false"
"html-button-response","68","588024","0.0-11.0-1.28","null","<p>A másik játékos ezt választotta: <b>dralágzunk</b>.</p><p>&#10060;</p><p>A válaszaitok <b>nem</b> egyeznek meg.</p>","null","","","","feedback trial","",""
"html-button-response-esp","69","597349","0.0-11.0-0.29","8807","János imád bribasozni, ezért sokat bribaslik. Ők ritkán...","0","bribasoznak","[""bribasoznak"",""bribaslanak""]","bribasoznak","esp trial","3","true"
"html-button-response","70","600874","0.0-11.0-1.29","null","<p>A másik játékos ezt választotta: <b>bribasoznak</b>.</p><p>&#x2705;</p><p>A te válaszod és a másik játékos válasza <b>megegyeznek</b>.</p>","null","","","","feedback trial","",""
"html-button-response-esp","71","614001","0.0-11.0-0.30","12608","János imád nurokozni, ezért sokat nuroklik. Mi ritkán...","1","nurokozunk","[""nuroklunk"",""nurokozunk""]","nuroklunk","esp trial","3","false"
"html-button-response","72","617508","0.0-11.0-1.30","null","<p>A másik játékos ezt választotta: <b>nuroklunk</b>.</p><p>&#10060;</p><p>A válaszaitok <b>nem</b> egyeznek meg.</p>","null","","","","feedback trial","",""
"html-button-response-esp","73","623456","0.0-11.0-0.31","5422","János imád géregezni, ezért sokat géreglik. Ti ritkán...","0","géregeztek","[""géregeztek"",""géregletek""]","géregeztek","esp trial","3","true"
"html-button-response","74","626981","0.0-11.0-1.31","null","<p>A másik játékos ezt választotta: <b>géregeztek</b>.</p><p>&#x2705;</p><p>A te válaszod és a másik játékos válasza <b>megegyeznek</b>.</p>","null","","","","feedback trial","",""
"html-button-response-esp","75","633871","0.0-11.0-0.32","6383","János imád spivejezni, ezért sokat spivejlik. Ők ritkán...","0","spivejlenek","[""spivejlenek"",""spivejeznek""]","spivejeznek","esp trial","3","false"
"html-button-response","76","637399","0.0-11.0-1.32","null","<p>A másik játékos ezt választotta: <b>spivejeznek</b>.</p><p>&#10060;</p><p>A válaszaitok <b>nem</b> egyeznek meg.</p>","null","","","","feedback trial","",""
"html-button-response-esp","77","645954","0.0-11.0-0.33","8039","János imád kláragodni, ezért sokat kláragszik. Ti ritkán...","0","kláragodtok","[""kláragodtok"",""kláragszotok""]","kláragodtok","esp trial","3","true"
"html-button-response","78","649480","0.0-11.0-1.33","null","<p>A másik játékos ezt választotta: <b>kláragodtok</b>.</p><p>&#x2705;</p><p>A te válaszod és a másik játékos válasza <b>megegyeznek</b>.</p>","null","","","","feedback trial","",""
"html-button-response-esp","79","654847","0.0-11.0-0.34","4849","János imád hubonyozni, ezért sokat hubonylik. Ti ritkán...","1","hubonyoztok","[""hubonylotok"",""hubonyoztok""]","hubonyoztok","esp trial","3","true"
"html-button-response","80","658363","0.0-11.0-1.34","null","<p>A másik játékos ezt választotta: <b>hubonyoztok</b>.</p><p>&#x2705;</p><p>A te válaszod és a másik játékos válasza <b>megegyeznek</b>.</p>","null","","","","feedback trial","",""
"html-button-response-esp","81","663618","0.0-11.0-0.35","4735","János imád nivározni, ezért sokat nivárzik. Ti ritkán...","1","nivároztok","[""nivárzotok"",""nivároztok""]","nivároztok","esp trial","3","true"
"html-button-response","82","667132","0.0-11.0-1.35","null","<p>A másik játékos ezt választotta: <b>nivároztok</b>.</p><p>&#x2705;</p><p>A te válaszod és a másik játékos válasza <b>megegyeznek</b>.</p>","null","","","","feedback trial","",""
"html-button-response-esp","83","674523","0.0-11.0-0.36","6873","János imád döjözni, ezért sokat döjlik. Ők ritkán...","0","döjöznek","[""döjöznek"",""döjlenek""]","döjlenek","esp trial","3","false"
"html-button-response","84","678048","0.0-11.0-1.36","null","<p>A másik játékos ezt választotta: <b>döjlenek</b>.</p><p>&#10060;</p><p>A válaszaitok <b>nem</b> egyeznek meg.</p>","null","","","","feedback trial","",""
"html-button-response-esp","85","685309","0.0-11.0-0.37","6744","János imád sprebezni, ezért sokat sprebzik. Ők ritkán...","0","sprebeznek","[""sprebeznek"",""sprebzenek""]","sprebeznek","esp trial","3","true"
"html-button-response","86","688830","0.0-11.0-1.37","null","<p>A másik játékos ezt választotta: <b>sprebeznek</b>.</p><p>&#x2705;</p><p>A te válaszod és a másik játékos válasza <b>megegyeznek</b>.</p>","null","","","","feedback trial","",""
"html-button-response-esp","87","698671","0.0-11.0-0.38","9323","János imád trálodni, ezért sokat trálszik. Mi ritkán...","1","trálodunk","[""trálszunk"",""trálodunk""]","trálszunk","esp trial","3","false"
"html-button-response","88","702196","0.0-11.0-1.38","null","<p>A másik játékos ezt választotta: <b>trálszunk</b>.</p><p>&#10060;</p><p>A válaszaitok <b>nem</b> egyeznek meg.</p>","null","","","","feedback trial","",""
"html-button-response-esp","89","708795","0.0-11.0-0.39","6080","János imád nyádozni, ezért sokat nyádlik. Ők ritkán...","0","nyádoznak","[""nyádoznak"",""nyádlanak""]","nyádlanak","esp trial","3","false"
"html-button-response","90","712315","0.0-11.0-1.39","null","<p>A másik játékos ezt választotta: <b>nyádlanak</b>.</p><p>&#10060;</p><p>A válaszaitok <b>nem</b> egyeznek meg.</p>","null","","","","feedback trial","",""
"html-button-response-esp","91","717987","0.0-11.0-0.40","5154","János imád vihapodni, ezért sokat vihapszik. Mi ritkán...","0","vihapodunk","[""vihapodunk"",""vihapszunk""]","vihapszunk","esp trial","3","false"
"html-button-response","92","721514","0.0-11.0-1.40","null","<p>A másik játékos ezt választotta: <b>vihapszunk</b>.</p><p>&#10060;</p><p>A válaszaitok <b>nem</b> egyeznek meg.</p>","null","","","","feedback trial","",""
"html-button-response-esp","93","729529","0.0-11.0-0.41","7497","János imád bresezni, ezért sokat breslik. Ők ritkán...","1","breslenek","[""breseznek"",""breslenek""]","breseznek","esp trial","3","false"
"html-button-response","94","733048","0.0-11.0-1.41","null","<p>A másik játékos ezt választotta: <b>breseznek</b>.</p><p>&#10060;</p><p>A válaszaitok <b>nem</b> egyeznek meg.</p>","null","","","","feedback trial","",""
"html-button-response-esp","95","744553","0.0-11.0-0.42","10983","János imád gihamozni, ezért sokat gihamlik. Ők ritkán...","1","gihamoznak","[""gihamlanak"",""gihamoznak""]","gihamoznak","esp trial","3","true"
"html-button-response","96","748095","0.0-11.0-1.42","null","<p>A másik játékos ezt választotta: <b>gihamoznak</b>.</p><p>&#x2705;</p><p>A te válaszod és a másik játékos válasza <b>megegyeznek</b>.</p>","null","","","","feedback trial","",""
"html-button-response-esp","97","753789","0.0-11.0-0.43","5186","János imád nyöbözni, ezért sokat nyöbzik. Ők ritkán...","1","nyöböznek","[""nyöbzenek"",""nyöböznek""]","nyöböznek","esp trial","3","true"
"html-button-response","98","757317","0.0-11.0-1.43","null","<p>A másik játékos ezt választotta: <b>nyöböznek</b>.</p><p>&#x2705;</p><p>A te válaszod és a másik játékos válasza <b>megegyeznek</b>.</p>","null","","","","feedback trial","",""
"html-button-response-esp","99","765601","0.0-11.0-0.44","7766","János imád frinyozni, ezért sokat frinylik. Mi ritkán...","1","frinylunk","[""frinyozunk"",""frinylunk""]","frinyozunk","esp trial","3","false"
"html-button-response","100","769118","0.0-11.0-1.44","null","<p>A másik játékos ezt választotta: <b>frinyozunk</b>.</p><p>&#10060;</p><p>A válaszaitok <b>nem</b> egyeznek meg.</p>","null","","","","feedback trial","",""
"html-button-response-esp","101","774472","0.0-11.0-0.45","4835","János imád jurozni, ezért sokat jurlik. Mi ritkán...","0","jurozunk","[""jurozunk"",""jurlunk""]","jurozunk","esp trial","3","true"
"html-button-response","102","778000","0.0-11.0-1.45","null","<p>A másik játékos ezt választotta: <b>jurozunk</b>.</p><p>&#x2705;</p><p>A te válaszod és a másik játékos válasza <b>megegyeznek</b>.</p>","null","","","","feedback trial","",""
"html-button-response-esp","103","785903","0.0-11.0-0.46","7384","János imád frirozni, ezért sokat frirzik. Mi ritkán...","0","frirozunk","[""frirozunk"",""frirzunk""]","frirozunk","esp trial","3","true"
"html-button-response","104","789435","0.0-11.0-1.46","null","<p>A másik játékos ezt választotta: <b>frirozunk</b>.</p><p>&#x2705;</p><p>A te válaszod és a másik játékos válasza <b>megegyeznek</b>.</p>","null","","","","feedback trial","",""
"html-button-response-esp","105","794918","0.0-11.0-0.47","4966","János imád metégedni, ezért sokat metégszik. Ők ritkán...","0","metégednek","[""metégednek"",""metégszenek""]","metégednek","esp trial","3","true"
"html-button-response","106","798451","0.0-11.0-1.47","null","<p>A másik játékos ezt választotta: <b>metégednek</b>.</p><p>&#x2705;</p><p>A te válaszod és a másik játékos válasza <b>megegyeznek</b>.</p>","null","","","","feedback trial","",""
"html-button-response-esp","107","805043","0.0-11.0-0.48","6072","János imád sűjözni, ezért sokat sűjlik. Mi ritkán...","1","sűjözünk","[""sűjlünk"",""sűjözünk""]","sűjlünk","esp trial","3","false"
"html-button-response","108","808569","0.0-11.0-1.48","null","<p>A másik játékos ezt választotta: <b>sűjlünk</b>.</p><p>&#10060;</p><p>A válaszaitok <b>nem</b> egyeznek meg.</p>","null","","","","feedback trial","",""
"html-button-response-esp","109","817120","0.0-11.0-0.49","8034","János imád sztredezni, ezért sokat sztredlik. Ti ritkán...","0","sztredletek","[""sztredletek"",""sztredeztek""]","sztredeztek","esp trial","3","false"
"html-button-response","110","820642","0.0-11.0-1.49","null","<p>A másik játékos ezt választotta: <b>sztredeztek</b>.</p><p>&#10060;</p><p>A válaszaitok <b>nem</b> egyeznek meg.</p>","null","","","","feedback trial","",""
"html-button-response-esp","111","825669","0.0-11.0-0.50","4521","János imád prihegedni, ezért sokat prihegszik. Ők ritkán...","0","prihegednek","[""prihegednek"",""prihegszenek""]","prihegednek","esp trial","3","true"
"html-button-response","112","829201","0.0-11.0-1.50","null","<p>A másik játékos ezt választotta: <b>prihegednek</b>.</p><p>&#x2705;</p><p>A te válaszod és a másik játékos válasza <b>megegyeznek</b>.</p>","null","","","","feedback trial","",""
"html-button-response-esp","113","834008","0.0-11.0-0.51","4288","János imád bejezni, ezért sokat bejzik. Mi ritkán...","0","bejzünk","[""bejzünk"",""bejezünk""]","bejezünk","esp trial","3","false"
"html-button-response","114","837535","0.0-11.0-1.51","null","<p>A másik játékos ezt választotta: <b>bejezünk</b>.</p><p>&#10060;</p><p>A válaszaitok <b>nem</b> egyeznek meg.</p>","null","","","","feedback trial","",""
"html-button-response-esp","115","842732","0.0-11.0-0.52","4680","János imád tögözni, ezért sokat töglik. Ők ritkán...","0","töglenek","[""töglenek"",""tögöznek""]","töglenek","esp trial","3","true"
"html-button-response","116","846252","0.0-11.0-1.52","null","<p>A másik játékos ezt választotta: <b>töglenek</b>.</p><p>&#x2705;</p><p>A te válaszod és a másik játékos válasza <b>megegyeznek</b>.</p>","null","","","","feedback trial","",""
"html-button-response-esp","117","851493","0.0-11.0-0.53","4722","János imád bribékedni, ezért sokat bribékszik. Ti ritkán...","0","bribékedtek","[""bribékedtek"",""bribékszetek""]","bribékedtek","esp trial","3","true"
"html-button-response","118","855019","0.0-11.0-1.53","null","<p>A másik játékos ezt választotta: <b>bribékedtek</b>.</p><p>&#x2705;</p><p>A te válaszod és a másik játékos válasza <b>megegyeznek</b>.</p>","null","","","","feedback trial","",""
"html-button-response","119","863565","0.0-12.0","8028","<p>A közös játék most véget ért.</p><p>Mielőtt eláruljuk a végső pontszámodat, arra kérlek, játszd a szóválasztós játékot néhány percig egyedül is.</p><p>A feladatod ugyanaz lesz, választani két lehetőség közül.</p><p>Most viszont egyedül kell döntened, hogy te melyiket választanád.</p>","0","","","","","",""
"html-button-response-clever","120","868747","0.0-13.0-0.0","4670","János imád lűközni, ezért sokat lűklik. Ők ritkán...","1","lűköznek","[""lűklenek"",""lűköznek""]","","posttest trial","4",""
"html-button-response-clever","121","877878","0.0-13.0-0.1","8620","János imád dilakozni, ezért sokat dilaklik. Ti ritkán...","0","dilakoztok","[""dilakoztok"",""dilaklotok""]","","posttest trial","4",""
"html-button-response-clever","122","884855","0.0-13.0-0.2","6462","János imád flemezni, ezért sokat flemlik. Mi ritkán...","0","flemezünk","[""flemezünk"",""flemlünk""]","","posttest trial","4",""
"html-button-response-clever","123","892814","0.0-13.0-0.3","7453","János imád brözözni, ezért sokat brözlik. Ti ritkán...","0","brözöztök","[""brözöztök"",""brözlötök""]","","posttest trial","4",""
"html-button-response-clever","124","898408","0.0-13.0-0.4","5082","János imád csubozni, ezért sokat csubzik. Mi ritkán...","0","csubozunk","[""csubozunk"",""csubzunk""]","","posttest trial","4",""
"html-button-response-clever","125","909309","0.0-13.0-0.5","10383","János imád mülőrözni, ezért sokat mülőrzik. Mi ritkán...","1","mülőrözünk","[""mülőrzünk"",""mülőrözünk""]","","posttest trial","4",""
"html-button-response-clever","126","915324","0.0-13.0-0.6","5496","János imád virozni, ezért sokat virzik. Ők ritkán...","1","viroznak","[""virzanak"",""viroznak""]","","posttest trial","4",""
"html-button-response-clever","127","920907","0.0-13.0-0.7","5064","János imád frakozni, ezért sokat fraklik. Mi ritkán...","1","frakozunk","[""fraklunk"",""frakozunk""]","","posttest trial","4",""
"html-button-response-clever","128","925632","0.0-13.0-0.8","4215","János imád nyivágozni, ezért sokat nyivágzik. Mi ritkán...","1","nyivágzunk","[""nyivágozunk"",""nyivágzunk""]","","posttest trial","4",""
"html-button-response-clever","129","931085","0.0-13.0-0.9","4939","János imád trivakodni, ezért sokat trivakszik. Mi ritkán...","1","trivakszunk","[""trivakodunk"",""trivakszunk""]","","posttest trial","4",""
"html-button-response-clever","130","937250","0.0-13.0-0.10","5653","János imád trikozni, ezért sokat triklik. Ti ritkán...","1","triklotok","[""trikoztok"",""triklotok""]","","posttest trial","4",""
"html-button-response-clever","131","944238","0.0-13.0-0.11","6476","János imád brivakozni, ezért sokat brivaklik. Ti ritkán...","1","brivaklotok","[""brivakoztok"",""brivaklotok""]","","posttest trial","4",""
"html-button-response-clever","132","950514","0.0-13.0-0.12","5767","János imád pilégedni, ezért sokat pilégszik. Ők ritkán...","1","pilégszenek","[""pilégednek"",""pilégszenek""]","","posttest trial","4",""
"html-button-response-clever","133","955086","0.0-13.0-0.13","4056","János imád gyihegezni, ezért sokat gyihegzik. Ti ritkán...","1","gyihegeztek","[""gyihegzetek"",""gyihegeztek""]","","posttest trial","4",""
"html-button-response-clever","134","967699","0.0-13.0-0.14","12100","János imád pragányozni, ezért sokat pragánylik. Ti ritkán...","1","pragányoztok","[""pragánylotok"",""pragányoztok""]","","posttest trial","4",""
"html-button-response-clever","135","973133","0.0-13.0-0.15","4920","János imád bratározni, ezért sokat bratárzik. Ők ritkán...","1","bratároznak","[""bratárzanak"",""bratároznak""]","","posttest trial","4",""
"html-button-response-clever","136","977255","0.0-13.0-0.16","3607","János imád dabozni, ezért sokat dabzik. Ti ritkán...","1","daboztok","[""dabzotok"",""daboztok""]","","posttest trial","4",""
"html-button-response-clever","137","982509","0.0-13.0-0.17","4745","János imád sprozozni, ezért sokat sprozlik. Ők ritkán...","1","sprozoznak","[""sprozlanak"",""sprozoznak""]","","posttest trial","4",""
"html-button-response-clever","138","987563","0.0-13.0-0.18","4530","János imád drűrözni, ezért sokat drűrzik. Ők ritkán...","1","drűröznek","[""drűrzenek"",""drűröznek""]","","posttest trial","4",""
"html-button-response-clever","139","994580","0.0-13.0-0.19","6500","János imád klehényezni, ezért sokat klehénylik. Ti ritkán...","0","klehényeztek","[""klehényeztek"",""klehényletek""]","","posttest trial","4",""
"html-button-response-clever","140","998441","0.0-13.0-0.20","3336","János imád posozni, ezért sokat poslik. Ti ritkán...","1","posoztok","[""poslotok"",""posoztok""]","","posttest trial","4",""
"html-button-response-clever","141","1005199","0.0-13.0-0.21","6252","János imád flüröközni, ezért sokat flüröklik. Ti ritkán...","0","flüröklötök","[""flüröklötök"",""flürököztök""]","","posttest trial","4",""
"html-button-response-clever","142","1009911","0.0-13.0-0.22","4194","János imád püzözni, ezért sokat püzlik. Ti ritkán...","1","püzöztök","[""püzlötök"",""püzöztök""]","","posttest trial","4",""
"html-button-response-clever","143","1014513","0.0-13.0-0.23","4083","János imád dujozni, ezért sokat dujzik. Ők ritkán...","1","dujoznak","[""dujzanak"",""dujoznak""]","","posttest trial","4",""
"html-button-response-clever","144","1018814","0.0-13.0-0.24","3784","János imád fröjözni, ezért sokat fröjzik. Ti ritkán...","1","fröjzötök","[""fröjöztök"",""fröjzötök""]","","posttest trial","4",""
"html-button-response-clever","145","1022172","0.0-13.0-0.25","2842","János imád flöközni, ezért sokat flöklik. Ti ritkán...","0","flököztök","[""flököztök"",""flöklötök""]","","posttest trial","4",""
"html-button-response-clever","146","1027136","0.0-13.0-0.26","4460","János imád spiharozni, ezért sokat spiharzik. Ti ritkán...","0","spiharoztok","[""spiharoztok"",""spiharzotok""]","","posttest trial","4",""
"html-button-response-clever","147","1030584","0.0-13.0-0.27","2927","János imád privékedni, ezért sokat privékszik. Ők ritkán...","1","privékednek","[""privékszenek"",""privékednek""]","","posttest trial","4",""
"html-button-response-clever","148","1034695","0.0-13.0-0.28","3591","János imád dárakodni, ezért sokat dárakszik. Mi ritkán...","0","dárakodunk","[""dárakodunk"",""dárakszunk""]","","posttest trial","4",""
"html-button-response-clever","149","1038715","0.0-13.0-0.29","3502","János imád flűgözni, ezért sokat flűgzik. Mi ritkán...","0","flűgözünk","[""flűgözünk"",""flűgzünk""]","","posttest trial","4",""
"html-button-response-clever","150","1044094","0.0-13.0-0.30","4869","János imád branyozni, ezért sokat branylik. Ők ritkán...","1","branyoznak","[""branylanak"",""branyoznak""]","","posttest trial","4",""
"html-button-response-clever","151","1047372","0.0-13.0-0.31","2774","János imád trugozni, ezért sokat trugzik. Ők ritkán...","0","trugoznak","[""trugoznak"",""trugzanak""]","","posttest trial","4",""
"html-button-response-clever","152","1052174","0.0-13.0-0.32","4292","János imád nyürözni, ezért sokat nyürzik. Ők ritkán...","0","nyüröznek","[""nyüröznek"",""nyürzenek""]","","posttest trial","4",""
"html-button-response-clever","153","1055602","0.0-13.0-0.33","2910","János imád spirágozni, ezért sokat spiráglik. Ti ritkán...","0","spirágoztok","[""spirágoztok"",""spiráglotok""]","","posttest trial","4",""
"html-button-response-clever","154","1059552","0.0-13.0-0.34","3441","János imád gihejezni, ezért sokat gihejlik. Mi ritkán...","1","gihejezünk","[""gihejlünk"",""gihejezünk""]","","posttest trial","4",""
"html-button-response-clever","155","1063813","0.0-13.0-0.35","3743","János imád köszözni, ezért sokat köszlik. Ti ritkán...","0","köszöztök","[""köszöztök"",""köszlötök""]","","posttest trial","4",""
"html-button-response-clever","156","1068214","0.0-13.0-0.36","3882","János imád lájozni, ezért sokat lájzik. Ti ritkán...","0","lájoztok","[""lájoztok"",""lájzotok""]","","posttest trial","4",""
"html-button-response-clever","157","1073136","0.0-13.0-0.37","4410","János imád kűdözni, ezért sokat kűdlik. Ők ritkán...","1","kűdöznek","[""kűdlenek"",""kűdöznek""]","","posttest trial","4",""
"html-button-response-clever","158","1077175","0.0-13.0-0.38","3523","János imád dirozni, ezért sokat dirlik. Ti ritkán...","1","diroztok","[""dirlotok"",""diroztok""]","","posttest trial","4",""
"html-button-response-clever","159","1079912","0.0-13.0-0.39","2219","János imád spibegezni, ezért sokat spibeglik. Mi ritkán...","0","spibegezünk","[""spibegezünk"",""spibeglünk""]","","posttest trial","4",""
"html-button-response-clever","160","1082799","0.0-13.0-0.40","2380","János imád mágamozni, ezért sokat mágamlik. Mi ritkán...","0","mágamozunk","[""mágamozunk"",""mágamlunk""]","","posttest trial","4",""
"html-button-response-clever","161","1086148","0.0-13.0-0.41","2834","János imád csibagozni, ezért sokat csibagzik. Ti ritkán...","0","csibagoztok","[""csibagoztok"",""csibagzotok""]","","posttest trial","4",""
"html-button-response-clever","162","1090068","0.0-13.0-0.42","3408","János imád trugokozni, ezért sokat trugoklik. Ők ritkán...","1","trugokoznak","[""trugoklanak"",""trugokoznak""]","","posttest trial","4",""
"html-button-response-clever","163","1092684","0.0-13.0-0.43","2107","János imád sprűrözni, ezért sokat sprűrlik. Ők ritkán...","1","sprűröznek","[""sprűrlenek"",""sprűröznek""]","","posttest trial","4",""
"html-button-response-clever","164","1096984","0.0-13.0-0.44","3789","János imád brülösözni, ezért sokat brülöslik. Mi ritkán...","0","brülösözünk","[""brülösözünk"",""brülöslünk""]","","posttest trial","4",""
"html-button-response-clever","165","1102539","0.0-13.0-0.45","5044","János imád prélemezni, ezért sokat prélemlik. Ők ritkán...","0","prélemeznek","[""prélemeznek"",""prélemlenek""]","","posttest trial","4",""
"html-button-response-clever","166","1105925","0.0-13.0-0.46","2865","János imád prögözni, ezért sokat prögzik. Ti ritkán...","0","prögöztök","[""prögöztök"",""prögzötök""]","","posttest trial","4",""
"html-button-response-clever","167","1109183","0.0-13.0-0.47","2748","János imád frálapodni, ezért sokat frálapszik. Ti ritkán...","1","frálapodtok","[""frálapszotok"",""frálapodtok""]","","posttest trial","4",""
"html-button-response-clever","168","1112020","0.0-13.0-0.48","2320","János imád sprudozni, ezért sokat sprudlik. Mi ritkán...","0","sprudozunk","[""sprudozunk"",""sprudlunk""]","","posttest trial","4",""
"html-button-response-clever","169","1115308","0.0-13.0-0.49","2775","János imád molodni, ezért sokat molszik. Ti ritkán...","0","molodtok","[""molodtok"",""molszotok""]","","posttest trial","4",""
"html-button-response-clever","170","1118044","0.0-13.0-0.50","2225","János imád drilarozni, ezért sokat drilarzik. Mi ritkán...","0","drilarozunk","[""drilarozunk"",""drilarzunk""]","","posttest trial","4",""
"html-button-response-clever","171","1121604","0.0-13.0-0.51","3052","János imád spügözni, ezért sokat spügzik. Mi ritkán...","0","spügözünk","[""spügözünk"",""spügzünk""]","","posttest trial","4",""
"html-button-response-clever","172","1124742","0.0-13.0-0.52","2626","János imád frálasozni, ezért sokat frálaslik. Ők ritkán...","0","frálasoznak","[""frálasoznak"",""frálaslanak""]","","posttest trial","4",""
"html-button-response-clever","173","1128592","0.0-13.0-0.53","3341","János imád föködni, ezért sokat fökszik. Ők ritkán...","0","föködnek","[""föködnek"",""fökszenek""]","","posttest trial","4",""
"html-button-response","174","1137355","0.0-14.0","8251","<p> Vége a játéknak. A teljes pontszámod 35/54.</p><p> Szép munka! &#128526;&#128526;&#128526;</p><p>A Befejezés gomb megnyomása után bezárhatod a böngészőablakot.</p>","0","","","","","",""
"html-keyboard-response","175","1142870","0.0-15.0","null","<div class=""message"">
         <p>Egy kis türelmet kérünk, amíg elmentjük az adatokat...</p>
         </div>","null","","","","","",""
