"trial_type","trial_index","time_elapsed","internal_node_id","rt","stimulus","response","response_string","choices","esp_response","trial_kind","list_number","esp_match"
"pavlovia","0","741","0.0-0.0","","","","","","","","",""
"html-button-response","1","19853","0.0-1.0","18598","<p>Kedves Résztvevő! A Budapesti Műszaki és Gazdaságtudományi Egyetem Kognitív Tudományi Tanszékének kutatásában való részvételed kérjük. A kutatásban azt vizsgáljuk, hogy a magyar anyanyelvűek hogyan használnak bizonyos szóalakokat, és hogy milyen képük van arról, hogy mások hogyan használják, hogyan képzik a szavakat. Ez hozzásegít bennünket ahhoz, hogy jobban megértsük, hogyan dolgozza fel és tárolja a nyelvet az emberi agy, és hogyan működnek, hogyan változnak egy adott közösség nyelvi konvenciói.</p><p>A vizsgálat egy rövid számítógépes feladatból fog állni. A kutatásban való részvétel önkéntes, a részvételi szándék bármikor visszavonható. A résztvevők eredményeit név nélkül kezeljük, így nem beazonosíthatók az adatok feldolgozása során. Minden személyes adatot az EU általános adatvédelmi rendeletének (GDPR) megfelelően kezelünk és legfeljebb öt éven belül megsemmisítünk. A vizsgálat jellemzően húsz percet vesz igénybe.</p><p>Kutatásvezető:</p><p>Dr. Rácz Péter, tudományos munkatárs, BME KTT</p><p>e-mail: racz.peter.marton@ttk.bme.hu</p>","0","","","","","",""
"html-button-response","2","78179","0.0-2.0","57816","<p>A kísérletben szavakat fogsz látni. Ezek között lesznek olyanok, amelyeket ismersz, de előfordulhatnak olyanok is, amelyeket nem ismersz, sőt, vannak köztük kitalált szavak is. Minden szónál látni fogsz toldalékolt alakokat. A te feladatod az lesz, hogy minden szóhoz kiválaszd azt a toldalékolt alakot, amely a te számodra ismerősebben, természetesebben hangzik. Rossz válaszok nincsenek, mert van olyan, hogy különböző embereknek más és más szó tűnik jobb választásnak. A választ úgy tudod majd kiválasztani, ha rákattintasz.</p><p>Ebben a szóválasztós játékban egy másik játékossal együtt veszel majd részt. A másik játékos is minden esetben azok közül a lehetőségek közül válogathat, mint te. Kettőtök feladata az, hogy ugyanazt a lehetőséget válasszátok minden esetben. Ahhoz, hogy ez sikerüljön, neked figyelned kell arra, hogy a másik játékos milyen válaszokat ad, és ennek alapján meg kell tippelned, hogyan választ legközelebb. Ha eltalálod, akkor pontot kapsz.</p>","0","","","","","",""
"html-button-response","3","86129","0.0-3.0","7443","<p>Kérjük, olvasd el az alábbi nyilatkozatot, és amennyiben egyetértesz vele, nyomj a Beleegyezés gombra!</p><p>Kijelentem, hogy magyar anyanyelvű személyként önként veszek részt a BME KTT kísérletében. A kutatás céljával és folyamatával kapcsolatban elegendő tájékoztatást kaptam, lehetőségem volt kérdések feltételére, és esetleges kérdéseimre megfelelő válaszokat kaptam. A tájékoztatás alapján elegendő mennyiségű információ áll a rendelkezésemre, hogy eldönthessem, részt kívánok-e venni a kutatásban.</p><p>Tisztában vagyok vele, hogy részvételi szándékomat és adataimat bármikor, indoklás nélkül visszavonhatom.</p><p>Értem és tudomásul veszem, hogy a kutatás tudományos célokat szolgál, és az általam szolgáltatott adatokat a BME kizárólag kutatási célból használja fel. Tudomásul veszem, hogy eredményeimet a többi résztvevő eredményeivel együtt kezelik, így egyéni teljesítményemről visszajelzést, szakvéleményt nem kapok.</p><p>Megértettem, hogy adataim kezelését illetően a BME az EU általános adatvédelmi rendelete (GDPR), a hatályos adatvédelmi törvény és a nemzetközi kutatás-etikai alapelvek szerint jár el. Eredményeim anonim módon kerülnek feldolgozásra, és a kutatás résztvevői az azonosításomra alkalmas adataimat harmadik félnek nem szolgáltatják ki. Engedélyezem a BME számára a jelen kutatásban felvett adataim feldolgozását és tárolását, beleértve azok későbbi kutatásokhoz való felhasználását is. Személyes adataim kezelésével kapcsolatban tájékoztatást kérhetek a kutatás résztvevőitől, az adatkezelés ellen tiltakozhatok, kérhetem személyes adataim helyesbítését, törlését vagy zárolását, valamint jogorvoslatért a Nemzeti Adatvédelmi és Információszabadság Hatósághoz fordulhatok.</p><p>Kijelentem, hogy a kutatásban való részvételem körülményeiről részletes tájékoztatást kaptam, és a feltételeket elfogadom.</p>","0","","","","","",""
"survey-text","4","121498","0.0-4.0","34844","","{""Q0"":""A3DLMW"",""Q1"":""férfi"",""Q2"":""1998"",""Q3"":""13""}","","","","","",""
"html-button-response","5","132808","0.0-5.0","10800","<p>Ebben a játékban szavakat kell toldalékolni.</p> <p>Minden körben mutatunk majd egy példamondatot, amiben lesz egy szó.</p> <p>Alatta jön egy második mondat, ezt a mondatot neked kell majd befejezni, ugyanezzel a szóval.</p> <p>Nem biztos, hogy a szó eleve ismerős lesz számodra!</p> <p>Minden mondathoz adunk két lehetőséget, ezeket balra és jobbra látod majd.</p> <p>A játék kb. negyedóráig-húsz percig tart.</p>","0","","","","","",""
"html-button-response","6","146195","0.0-6.0","12874","<p>Nézzünk egy példát!</p> <p>A példamondat: ""János imád fláramolni, ezért sokat fláramlik. Mi ritkán...""</p><p>Neked ezt a mondatot kell befejezned: ""Ti ritkán...""</p><p>A lehetőségek pedig ezek:</p>","0","","","","","",""
"html-button-response","7","152917","0.0-7.0","6203","<p>Nagyon jó.</p><p>Ezt a játékot nem egyedül fogod játszani, hanem egy másik játékossal.</p><p>Mielőtt továbblépünk, összekapcsolunk titeket egymással.</p><p>Ez igénybe vehet néhány másodpercet, amihez szíves türelmed kérjük.</p>","0","","","","","",""
"html-button-response","8","158655","0.0-8.0","null","<p>Csatlakozás a másik játékoshoz...</p>","null","","","","","",""
"html-button-response","9","161183","0.0-9.0","null","<p> Sikeres kapcsolódás!</p>","null","","","","","",""
"html-button-response","10","171699","0.0-10.0","null","<p>A következőkben ketten játsszátok a szóválasztós játékot.</p><p>A feladatotok az lesz, hogy minden körben <b>ugyanazt</b> a szót válasszátok.</p><p>Minden ilyen egyező válaszért pontot kaptok.</p><p>Próbáld meg kitalálni, mit választ a másik játékos!</p><p>Bármikor választhatsz, a körnek akkor van vége, ha mindketten döntöttetek.</p><p>Sok sikert!</p>","null","","","","","",""
"html-button-response-esp","11","180775","0.0-11.0-0.0","8567","János imád gihamozni, ezért sokat gihamlik. Ők ritkán...","1","gihamlanak","[""gihamoznak"",""gihamlanak""]","gihamoznak","esp trial","2","false"
"html-button-response","12","184306","0.0-11.0-1.0","null","<p>A másik játékos ezt választotta: <b>gihamoznak</b>.</p><p>&#10060;</p><p>A válaszaitok <b>nem</b> egyeznek meg.</p>","null","","","","feedback trial","",""
"html-button-response-esp","13","190208","0.0-11.0-0.1","5391","János imád géregezni, ezért sokat géreglik. Ti ritkán...","0","géregeztek","[""géregeztek"",""géregletek""]","géregletek","esp trial","2","false"
"html-button-response","14","193728","0.0-11.0-1.1","null","<p>A másik játékos ezt választotta: <b>géregletek</b>.</p><p>&#10060;</p><p>A válaszaitok <b>nem</b> egyeznek meg.</p>","null","","","","feedback trial","",""
"html-button-response-esp","15","200934","0.0-11.0-0.2","6689","János imád klihasozni, ezért sokat klihaslik. Ti ritkán...","1","klihasoztok","[""klihaslotok"",""klihasoztok""]","klihaslotok","esp trial","2","false"
"html-button-response","16","204450","0.0-11.0-1.2","null","<p>A másik játékos ezt választotta: <b>klihaslotok</b>.</p><p>&#10060;</p><p>A válaszaitok <b>nem</b> egyeznek meg.</p>","null","","","","feedback trial","",""
"html-button-response-esp","17","212213","0.0-11.0-0.3","7259","János imád sűjözni, ezért sokat sűjlik. Mi ritkán...","0","sűjözünk","[""sűjözünk"",""sűjlünk""]","sűjözünk","esp trial","2","true"
"html-button-response","18","215724","0.0-11.0-1.3","null","<p>A másik játékos ezt választotta: <b>sűjözünk</b>.</p><p>&#x2705;</p><p>A te válaszod és a másik játékos válasza <b>megegyeznek</b>.</p>","null","","","","feedback trial","",""
"html-button-response-esp","19","222373","0.0-11.0-0.4","6134","János imád frorozni, ezért sokat frorlik. Ők ritkán...","1","frorlanak","[""froroznak"",""frorlanak""]","froroznak","esp trial","2","false"
"html-button-response","20","225882","0.0-11.0-1.4","null","<p>A másik játékos ezt választotta: <b>froroznak</b>.</p><p>&#10060;</p><p>A válaszaitok <b>nem</b> egyeznek meg.</p>","null","","","","feedback trial","",""
"html-button-response-esp","21","231917","0.0-11.0-0.5","5529","János imád trukodni, ezért sokat trukszik. Ti ritkán...","0","trukodtok","[""trukodtok"",""trukszotok""]","trukodtok","esp trial","2","true"
"html-button-response","22","235436","0.0-11.0-1.5","null","<p>A másik játékos ezt választotta: <b>trukodtok</b>.</p><p>&#x2705;</p><p>A te válaszod és a másik játékos válasza <b>megegyeznek</b>.</p>","null","","","","feedback trial","",""
"html-button-response-esp","23","241213","0.0-11.0-0.6","5259","János imád játozni, ezért sokat játlik. Mi ritkán...","1","játlunk","[""játozunk"",""játlunk""]","játozunk","esp trial","2","false"
"html-button-response","24","244741","0.0-11.0-1.6","null","<p>A másik játékos ezt választotta: <b>játozunk</b>.</p><p>&#10060;</p><p>A válaszaitok <b>nem</b> egyeznek meg.</p>","null","","","","feedback trial","",""
"html-button-response-esp","25","251782","0.0-11.0-0.7","6533","János imád dibágozni, ezért sokat dibáglik. Ti ritkán...","1","dibágoztok","[""dibáglotok"",""dibágoztok""]","dibágoztok","esp trial","2","true"
"html-button-response","26","255303","0.0-11.0-1.7","null","<p>A másik játékos ezt választotta: <b>dibágoztok</b>.</p><p>&#x2705;</p><p>A te válaszod és a másik játékos válasza <b>megegyeznek</b>.</p>","null","","","","feedback trial","",""
"html-button-response-esp","27","263427","0.0-11.0-0.8","7611","János imád spivejezni, ezért sokat spivejlik. Ők ritkán...","1","spivejeznek","[""spivejlenek"",""spivejeznek""]","spivejlenek","esp trial","2","false"
"html-button-response","28","266939","0.0-11.0-1.8","null","<p>A másik játékos ezt választotta: <b>spivejlenek</b>.</p><p>&#10060;</p><p>A válaszaitok <b>nem</b> egyeznek meg.</p>","null","","","","feedback trial","",""
"html-button-response-esp","29","274373","0.0-11.0-0.9","6930","János imád frirozni, ezért sokat frirzik. Mi ritkán...","0","frirzunk","[""frirzunk"",""frirozunk""]","frirzunk","esp trial","2","true"
"html-button-response","30","277899","0.0-11.0-1.9","null","<p>A másik játékos ezt választotta: <b>frirzunk</b>.</p><p>&#x2705;</p><p>A te válaszod és a másik játékos válasza <b>megegyeznek</b>.</p>","null","","","","feedback trial","",""
"html-button-response-esp","31","283321","0.0-11.0-0.10","4630","János imád vihapodni, ezért sokat vihapszik. Mi ritkán...","1","vihapszunk","[""vihapodunk"",""vihapszunk""]","vihapodunk","esp trial","2","false"
"html-button-response","32","286845","0.0-11.0-1.10","null","<p>A másik játékos ezt választotta: <b>vihapodunk</b>.</p><p>&#10060;</p><p>A válaszaitok <b>nem</b> egyeznek meg.</p>","null","","","","feedback trial","",""
"html-button-response-esp","33","292274","0.0-11.0-0.11","4873","János imád tögözni, ezért sokat töglik. Ők ritkán...","1","tögöznek","[""töglenek"",""tögöznek""]","tögöznek","esp trial","2","true"
"html-button-response","34","295790","0.0-11.0-1.11","null","<p>A másik játékos ezt választotta: <b>tögöznek</b>.</p><p>&#x2705;</p><p>A te válaszod és a másik játékos válasza <b>megegyeznek</b>.</p>","null","","","","feedback trial","",""
"html-button-response-esp","35","304588","0.0-11.0-0.12","8283","János imád dralágozni, ezért sokat dralágzik. Mi ritkán...","1","dralágozunk","[""dralágzunk"",""dralágozunk""]","dralágozunk","esp trial","2","true"
"html-button-response","36","308109","0.0-11.0-1.12","null","<p>A másik játékos ezt választotta: <b>dralágozunk</b>.</p><p>&#x2705;</p><p>A te válaszod és a másik játékos válasza <b>megegyeznek</b>.</p>","null","","","","feedback trial","",""
"html-button-response-esp","37","314427","0.0-11.0-0.13","5809","János imád nyülöközni, ezért sokat nyülöklik. Ők ritkán...","0","nyülöklenek","[""nyülöklenek"",""nyülököznek""]","nyülököznek","esp trial","2","false"
"html-button-response","38","317955","0.0-11.0-1.13","null","<p>A másik játékos ezt választotta: <b>nyülököznek</b>.</p><p>&#10060;</p><p>A válaszaitok <b>nem</b> egyeznek meg.</p>","null","","","","feedback trial","",""
"html-button-response-esp","39","324308","0.0-11.0-0.14","5837","János imád sztredezni, ezért sokat sztredlik. Ti ritkán...","1","sztredletek","[""sztredeztek"",""sztredletek""]","sztredeztek","esp trial","2","false"
"html-button-response","40","327826","0.0-11.0-1.14","null","<p>A másik játékos ezt választotta: <b>sztredeztek</b>.</p><p>&#10060;</p><p>A válaszaitok <b>nem</b> egyeznek meg.</p>","null","","","","feedback trial","",""
"html-button-response-esp","41","333358","0.0-11.0-0.15","5019","János imád flátozni, ezért sokat flátlik. Ti ritkán...","0","flátlotok","[""flátlotok"",""flátoztok""]","flátlotok","esp trial","2","true"
"html-button-response","42","336874","0.0-11.0-1.15","null","<p>A másik játékos ezt választotta: <b>flátlotok</b>.</p><p>&#x2705;</p><p>A te válaszod és a másik játékos válasza <b>megegyeznek</b>.</p>","null","","","","feedback trial","",""
"html-button-response-esp","43","342924","0.0-11.0-0.16","5544","János imád nyizozni, ezért sokat nyizlik. Mi ritkán...","1","nyizozunk","[""nyizlunk"",""nyizozunk""]","nyizozunk","esp trial","2","true"
"html-button-response","44","346435","0.0-11.0-1.16","null","<p>A másik játékos ezt választotta: <b>nyizozunk</b>.</p><p>&#x2705;</p><p>A te válaszod és a másik játékos válasza <b>megegyeznek</b>.</p>","null","","","","feedback trial","",""
"html-button-response-esp","45","354157","0.0-11.0-0.17","7203","János imád plibozni, ezért sokat plibzik. Ti ritkán...","0","plibzotok","[""plibzotok"",""pliboztok""]","plibzotok","esp trial","2","true"
"html-button-response","46","357666","0.0-11.0-1.17","null","<p>A másik játékos ezt választotta: <b>plibzotok</b>.</p><p>&#x2705;</p><p>A te válaszod és a másik játékos válasza <b>megegyeznek</b>.</p>","null","","","","feedback trial","",""
"html-button-response-esp","47","367167","0.0-11.0-0.18","8991","János imád brűközni, ezért sokat brűklik. Ti ritkán...","0","brűköztök","[""brűköztök"",""brűklötök""]","brűköztök","esp trial","2","true"
"html-button-response","48","370682","0.0-11.0-1.18","null","<p>A másik játékos ezt választotta: <b>brűköztök</b>.</p><p>&#x2705;</p><p>A te válaszod és a másik játékos válasza <b>megegyeznek</b>.</p>","null","","","","feedback trial","",""
"html-button-response-esp","49","378701","0.0-11.0-0.19","7511","János imád vehékedni, ezért sokat vehékszik. Mi ritkán...","1","vehékszünk","[""vehékedünk"",""vehékszünk""]","vehékedünk","esp trial","2","false"
"html-button-response","50","382226","0.0-11.0-1.19","null","<p>A másik játékos ezt választotta: <b>vehékedünk</b>.</p><p>&#10060;</p><p>A válaszaitok <b>nem</b> egyeznek meg.</p>","null","","","","feedback trial","",""
"html-button-response-esp","51","389262","0.0-11.0-0.20","6530","János imád flodozni, ezért sokat flodlik. Ti ritkán...","0","flodoztok","[""flodoztok"",""flodlotok""]","flodlotok","esp trial","2","false"
"html-button-response","52","392779","0.0-11.0-1.20","null","<p>A másik játékos ezt választotta: <b>flodlotok</b>.</p><p>&#10060;</p><p>A válaszaitok <b>nem</b> egyeznek meg.</p>","null","","","","feedback trial","",""
"html-button-response-esp","53","399564","0.0-11.0-0.21","6274","János imád klűmözni, ezért sokat klűmlik. Ti ritkán...","1","klűmöztök","[""klűmlötök"",""klűmöztök""]","klűmlötök","esp trial","2","false"
"html-button-response","54","403090","0.0-11.0-1.21","null","<p>A másik játékos ezt választotta: <b>klűmlötök</b>.</p><p>&#10060;</p><p>A válaszaitok <b>nem</b> egyeznek meg.</p>","null","","","","feedback trial","",""
"html-button-response-esp","55","408774","0.0-11.0-0.22","5165","János imád sprebezni, ezért sokat sprebzik. Ők ritkán...","1","sprebeznek","[""sprebzenek"",""sprebeznek""]","sprebeznek","esp trial","2","true"
"html-button-response","56","412298","0.0-11.0-1.22","null","<p>A másik játékos ezt választotta: <b>sprebeznek</b>.</p><p>&#x2705;</p><p>A te válaszod és a másik játékos válasza <b>megegyeznek</b>.</p>","null","","","","feedback trial","",""
"html-button-response-esp","57","420757","0.0-11.0-0.23","7953","János imád metégedni, ezért sokat metégszik. Ők ritkán...","1","metégszenek","[""metégednek"",""metégszenek""]","metégednek","esp trial","2","false"
"html-button-response","58","424267","0.0-11.0-1.23","null","<p>A másik játékos ezt választotta: <b>metégednek</b>.</p><p>&#10060;</p><p>A válaszaitok <b>nem</b> egyeznek meg.</p>","null","","","","feedback trial","",""
"html-button-response-esp","59","429694","0.0-11.0-0.24","3841","János imád bribékedni, ezért sokat bribékszik. Ti ritkán...","1","bribékedtek","[""bribékszetek"",""bribékedtek""]","bribékedtek","esp trial","2","true"
"html-button-response","60","433218","0.0-11.0-1.24","null","<p>A másik játékos ezt választotta: <b>bribékedtek</b>.</p><p>&#x2705;</p><p>A te válaszod és a másik játékos válasza <b>megegyeznek</b>.</p>","null","","","","feedback trial","",""
"html-button-response-esp","61","442053","0.0-11.0-0.25","8324","János imád hiragozni, ezért sokat hiragzik. Ők ritkán...","1","hiragoznak","[""hiragzanak"",""hiragoznak""]","hiragoznak","esp trial","2","true"
"html-button-response","62","445572","0.0-11.0-1.25","null","<p>A másik játékos ezt választotta: <b>hiragoznak</b>.</p><p>&#x2705;</p><p>A te válaszod és a másik játékos válasza <b>megegyeznek</b>.</p>","null","","","","feedback trial","",""
"html-button-response-esp","63","457956","0.0-11.0-0.26","11876","János imád trálakozni, ezért sokat trálaklik. Ők ritkán...","1","trálaklanak","[""trálakoznak"",""trálaklanak""]","trálakoznak","esp trial","2","false"
"html-button-response","64","461475","0.0-11.0-1.26","null","<p>A másik játékos ezt választotta: <b>trálakoznak</b>.</p><p>&#10060;</p><p>A válaszaitok <b>nem</b> egyeznek meg.</p>","null","","","","feedback trial","",""
"html-button-response-esp","65","470358","0.0-11.0-0.27","8362","János imád nivározni, ezért sokat nivárzik. Ti ritkán...","0","nivároztok","[""nivároztok"",""nivárzotok""]","nivárzotok","esp trial","2","false"
"html-button-response","66","473867","0.0-11.0-1.27","null","<p>A másik játékos ezt választotta: <b>nivárzotok</b>.</p><p>&#10060;</p><p>A válaszaitok <b>nem</b> egyeznek meg.</p>","null","","","","feedback trial","",""
"html-button-response-esp","67","479996","0.0-11.0-0.28","5623","János imád trilekedni, ezért sokat trilekszik. Ti ritkán...","1","trilekszetek","[""trilekedtek"",""trilekszetek""]","trilekedtek","esp trial","2","false"
"html-button-response","68","483524","0.0-11.0-1.28","null","<p>A másik játékos ezt választotta: <b>trilekedtek</b>.</p><p>&#10060;</p><p>A válaszaitok <b>nem</b> egyeznek meg.</p>","null","","","","feedback trial","",""
"html-button-response-esp","69","492567","0.0-11.0-0.29","8526","János imád prugorozni, ezért sokat prugorzik. Ti ritkán...","1","prugoroztok","[""prugorzotok"",""prugoroztok""]","prugorzotok","esp trial","2","false"
"html-button-response","70","496105","0.0-11.0-1.29","null","<p>A másik játékos ezt választotta: <b>prugorzotok</b>.</p><p>&#10060;</p><p>A válaszaitok <b>nem</b> egyeznek meg.</p>","null","","","","feedback trial","",""
"html-button-response-esp","71","502837","0.0-11.0-0.30","6226","János imád flugonyozni, ezért sokat flugonylik. Ők ritkán...","1","flugonyoznak","[""flugonylanak"",""flugonyoznak""]","flugonyoznak","esp trial","2","true"
"html-button-response","72","506364","0.0-11.0-1.30","null","<p>A másik játékos ezt választotta: <b>flugonyoznak</b>.</p><p>&#x2705;</p><p>A te válaszod és a másik játékos válasza <b>megegyeznek</b>.</p>","null","","","","feedback trial","",""
"html-button-response-esp","73","513382","0.0-11.0-0.31","6502","János imád döjözni, ezért sokat döjlik. Ők ritkán...","1","döjöznek","[""döjlenek"",""döjöznek""]","döjöznek","esp trial","2","true"
"html-button-response","74","516898","0.0-11.0-1.31","null","<p>A másik játékos ezt választotta: <b>döjöznek</b>.</p><p>&#x2705;</p><p>A te válaszod és a másik játékos válasza <b>megegyeznek</b>.</p>","null","","","","feedback trial","",""
"html-button-response-esp","75","522319","0.0-11.0-0.32","4439","János imád nyádozni, ezért sokat nyádlik. Ők ritkán...","1","nyádoznak","[""nyádlanak"",""nyádoznak""]","nyádoznak","esp trial","2","true"
"html-button-response","76","525854","0.0-11.0-1.32","null","<p>A másik játékos ezt választotta: <b>nyádoznak</b>.</p><p>&#x2705;</p><p>A te válaszod és a másik játékos válasza <b>megegyeznek</b>.</p>","null","","","","feedback trial","",""
"html-button-response-esp","77","531274","0.0-11.0-0.33","4154","János imád ribegedni, ezért sokat ribegszik. Ti ritkán...","0","ribegedtek","[""ribegedtek"",""ribegszetek""]","ribegszetek","esp trial","2","false"
"html-button-response","78","534803","0.0-11.0-1.33","null","<p>A másik játékos ezt választotta: <b>ribegszetek</b>.</p><p>&#10060;</p><p>A válaszaitok <b>nem</b> egyeznek meg.</p>","null","","","","feedback trial","",""
"html-button-response-esp","79","545710","0.0-11.0-0.34","10403","János imád spuborozni, ezért sokat spuborzik. Ők ritkán...","0","spuborzanak","[""spuborzanak"",""spuboroznak""]","spuborzanak","esp trial","2","true"
"html-button-response","80","549222","0.0-11.0-1.34","null","<p>A másik játékos ezt választotta: <b>spuborzanak</b>.</p><p>&#x2705;</p><p>A te válaszod és a másik játékos válasza <b>megegyeznek</b>.</p>","null","","","","feedback trial","",""
"html-button-response-esp","81","558301","0.0-11.0-0.35","8563","János imád jurozni, ezért sokat jurlik. Mi ritkán...","1","jurozunk","[""jurlunk"",""jurozunk""]","jurozunk","esp trial","2","true"
"html-button-response","82","561817","0.0-11.0-1.35","null","<p>A másik játékos ezt választotta: <b>jurozunk</b>.</p><p>&#x2705;</p><p>A te válaszod és a másik játékos válasza <b>megegyeznek</b>.</p>","null","","","","feedback trial","",""
"html-button-response-esp","83","569757","0.0-11.0-0.36","7423","János imád pibegezni, ezért sokat pibegzik. Ők ritkán...","0","pibegeznek","[""pibegeznek"",""pibegzenek""]","pibegzenek","esp trial","2","false"
"html-button-response","84","573288","0.0-11.0-1.36","null","<p>A másik játékos ezt választotta: <b>pibegzenek</b>.</p><p>&#10060;</p><p>A válaszaitok <b>nem</b> egyeznek meg.</p>","null","","","","feedback trial","",""
"html-button-response-esp","85","581381","0.0-11.0-0.37","7575","János imád brürözni, ezért sokat brürzik. Ők ritkán...","1","brüröznek","[""brürzenek"",""brüröznek""]","brüröznek","esp trial","2","true"
"html-button-response","86","584898","0.0-11.0-1.37","null","<p>A másik játékos ezt választotta: <b>brüröznek</b>.</p><p>&#x2705;</p><p>A te válaszod és a másik játékos válasza <b>megegyeznek</b>.</p>","null","","","","feedback trial","",""
"html-button-response-esp","87","591285","0.0-11.0-0.38","5875","János imád bribasozni, ezért sokat bribaslik. Ők ritkán...","1","bribasoznak","[""bribaslanak"",""bribasoznak""]","bribaslanak","esp trial","2","false"
"html-button-response","88","594815","0.0-11.0-1.38","null","<p>A másik játékos ezt választotta: <b>bribaslanak</b>.</p><p>&#10060;</p><p>A válaszaitok <b>nem</b> egyeznek meg.</p>","null","","","","feedback trial","",""
"html-button-response-esp","89","600226","0.0-11.0-0.39","4807","János imád klégezni, ezért sokat kléglik. Mi ritkán...","1","klégezünk","[""kléglünk"",""klégezünk""]","klégezünk","esp trial","2","true"
"html-button-response","90","603747","0.0-11.0-1.39","null","<p>A másik játékos ezt választotta: <b>klégezünk</b>.</p><p>&#x2705;</p><p>A te válaszod és a másik játékos válasza <b>megegyeznek</b>.</p>","null","","","","feedback trial","",""
"html-button-response-esp","91","612796","0.0-11.0-0.40","8531","János imád flerékedni, ezért sokat flerékszik. Mi ritkán...","0","flerékedünk","[""flerékedünk"",""flerékszünk""]","flerékedünk","esp trial","2","true"
"html-button-response","92","616306","0.0-11.0-1.40","null","<p>A másik játékos ezt választotta: <b>flerékedünk</b>.</p><p>&#x2705;</p><p>A te válaszod és a másik játékos válasza <b>megegyeznek</b>.</p>","null","","","","feedback trial","",""
"html-button-response-esp","93","624549","0.0-11.0-0.41","7725","János imád nyöbözni, ezért sokat nyöbzik. Ők ritkán...","0","nyöböznek","[""nyöböznek"",""nyöbzenek""]","nyöböznek","esp trial","2","true"
"html-button-response","94","628072","0.0-11.0-1.41","null","<p>A másik játékos ezt választotta: <b>nyöböznek</b>.</p><p>&#x2705;</p><p>A te válaszod és a másik játékos válasza <b>megegyeznek</b>.</p>","null","","","","feedback trial","",""
"html-button-response-esp","95","633931","0.0-11.0-0.42","5343","János imád bügözni, ezért sokat bügzik. Ők ritkán...","0","bügöznek","[""bügöznek"",""bügzenek""]","bügöznek","esp trial","2","true"
"html-button-response","96","637442","0.0-11.0-1.42","null","<p>A másik játékos ezt választotta: <b>bügöznek</b>.</p><p>&#x2705;</p><p>A te válaszod és a másik játékos válasza <b>megegyeznek</b>.</p>","null","","","","feedback trial","",""
"html-button-response-esp","97","645100","0.0-11.0-0.43","7152","János imád hubonyozni, ezért sokat hubonylik. Ti ritkán...","0","hubonyoztok","[""hubonyoztok"",""hubonylotok""]","hubonylotok","esp trial","2","false"
"html-button-response","98","648628","0.0-11.0-1.43","null","<p>A másik játékos ezt választotta: <b>hubonylotok</b>.</p><p>&#10060;</p><p>A válaszaitok <b>nem</b> egyeznek meg.</p>","null","","","","feedback trial","",""
"html-button-response-esp","99","654907","0.0-11.0-0.44","5766","János imád frinyozni, ezért sokat frinylik. Mi ritkán...","1","frinyozunk","[""frinylunk"",""frinyozunk""]","frinyozunk","esp trial","2","true"
"html-button-response","100","658430","0.0-11.0-1.44","null","<p>A másik játékos ezt választotta: <b>frinyozunk</b>.</p><p>&#x2705;</p><p>A te válaszod és a másik játékos válasza <b>megegyeznek</b>.</p>","null","","","","feedback trial","",""
"html-button-response-esp","101","664686","0.0-11.0-0.45","5741","János imád prihegedni, ezért sokat prihegszik. Ők ritkán...","0","prihegednek","[""prihegednek"",""prihegszenek""]","prihegednek","esp trial","2","true"
"html-button-response","102","668223","0.0-11.0-1.45","null","<p>A másik játékos ezt választotta: <b>prihegednek</b>.</p><p>&#x2705;</p><p>A te válaszod és a másik játékos válasza <b>megegyeznek</b>.</p>","null","","","","feedback trial","",""
"html-button-response-esp","103","673641","0.0-11.0-0.46","4488","János imád bejezni, ezért sokat bejzik. Mi ritkán...","1","bejezünk","[""bejzünk"",""bejezünk""]","bejezünk","esp trial","2","true"
"html-button-response","104","677162","0.0-11.0-1.46","null","<p>A másik játékos ezt választotta: <b>bejezünk</b>.</p><p>&#x2705;</p><p>A te válaszod és a másik játékos válasza <b>megegyeznek</b>.</p>","null","","","","feedback trial","",""
"html-button-response-esp","105","683605","0.0-11.0-0.47","5929","János imád kláragodni, ezért sokat kláragszik. Ti ritkán...","0","kláragodtok","[""kláragodtok"",""kláragszotok""]","kláragodtok","esp trial","2","true"
"html-button-response","106","687114","0.0-11.0-1.47","null","<p>A másik játékos ezt választotta: <b>kláragodtok</b>.</p><p>&#x2705;</p><p>A te válaszod és a másik játékos válasza <b>megegyeznek</b>.</p>","null","","","","feedback trial","",""
"html-button-response-esp","107","693915","0.0-11.0-0.48","6292","János imád vilesezni, ezért sokat vileslik. Mi ritkán...","0","vilesezünk","[""vilesezünk"",""vileslünk""]","vilesezünk","esp trial","2","true"
"html-button-response","108","697435","0.0-11.0-1.48","null","<p>A másik játékos ezt választotta: <b>vilesezünk</b>.</p><p>&#x2705;</p><p>A te válaszod és a másik játékos válasza <b>megegyeznek</b>.</p>","null","","","","feedback trial","",""
"html-button-response-esp","109","705293","0.0-11.0-0.49","7342","János imád trálodni, ezért sokat trálszik. Mi ritkán...","0","trálodunk","[""trálodunk"",""trálszunk""]","trálodunk","esp trial","2","true"
"html-button-response","110","708805","0.0-11.0-1.49","null","<p>A másik játékos ezt választotta: <b>trálodunk</b>.</p><p>&#x2705;</p><p>A te válaszod és a másik játékos válasza <b>megegyeznek</b>.</p>","null","","","","feedback trial","",""
"html-button-response-esp","111","715571","0.0-11.0-0.50","6248","János imád frélegezni, ezért sokat frélegzik. Mi ritkán...","1","frélegezünk","[""frélegzünk"",""frélegezünk""]","frélegezünk","esp trial","2","true"
"html-button-response","112","719092","0.0-11.0-1.50","null","<p>A másik játékos ezt választotta: <b>frélegezünk</b>.</p><p>&#x2705;</p><p>A te válaszod és a másik játékos válasza <b>megegyeznek</b>.</p>","null","","","","feedback trial","",""
"html-button-response-esp","113","728029","0.0-11.0-0.51","8431","János imád bötőrözni, ezért sokat bötőrzik. Mi ritkán...","0","bötőrözünk","[""bötőrözünk"",""bötőrzünk""]","bötőrözünk","esp trial","2","true"
"html-button-response","114","731542","0.0-11.0-1.51","null","<p>A másik játékos ezt választotta: <b>bötőrözünk</b>.</p><p>&#x2705;</p><p>A te válaszod és a másik játékos válasza <b>megegyeznek</b>.</p>","null","","","","feedback trial","",""
"html-button-response-esp","115","737019","0.0-11.0-0.52","4956","János imád nurokozni, ezért sokat nuroklik. Mi ritkán...","0","nurokozunk","[""nurokozunk"",""nuroklunk""]","nurokozunk","esp trial","2","true"
"html-button-response","116","740548","0.0-11.0-1.52","null","<p>A másik játékos ezt választotta: <b>nurokozunk</b>.</p><p>&#x2705;</p><p>A te válaszod és a másik játékos válasza <b>megegyeznek</b>.</p>","null","","","","feedback trial","",""
"html-button-response-esp","117","747477","0.0-11.0-0.53","6412","János imád bresezni, ezért sokat breslik. Ők ritkán...","1","breseznek","[""breslenek"",""breseznek""]","breseznek","esp trial","2","true"
"html-button-response","118","750994","0.0-11.0-1.53","null","<p>A másik játékos ezt választotta: <b>breseznek</b>.</p><p>&#x2705;</p><p>A te válaszod és a másik játékos válasza <b>megegyeznek</b>.</p>","null","","","","feedback trial","",""
"html-button-response","119","762164","0.0-12.0","10659","<p>A közös játék most véget ért.</p><p>Mielőtt eláruljuk a végső pontszámodat, arra kérlek, játszd a szóválasztós játékot néhány percig egyedül is.</p><p>A feladatod ugyanaz lesz, választani két lehetőség közül.</p><p>Most viszont egyedül kell döntened, hogy te melyiket választanád.</p>","0","","","","","",""
"html-button-response-clever","120","770780","0.0-13.0-0.0","8111","János imád drilarozni, ezért sokat drilarzik. Mi ritkán...","1","drilarzunk","[""drilarozunk"",""drilarzunk""]","","posttest trial","4",""
"html-button-response-clever","121","776621","0.0-13.0-0.1","5338","János imád mülőrözni, ezért sokat mülőrzik. Mi ritkán...","1","mülőrözünk","[""mülőrzünk"",""mülőrözünk""]","","posttest trial","4",""
"html-button-response-clever","122","783261","0.0-13.0-0.2","6131","János imád sprűrözni, ezért sokat sprűrlik. Ők ritkán...","0","sprűrlenek","[""sprűrlenek"",""sprűröznek""]","","posttest trial","4",""
"html-button-response-clever","123","793788","0.0-13.0-0.3","10019","János imád molodni, ezért sokat molszik. Ti ritkán...","0","molodtok","[""molodtok"",""molszotok""]","","posttest trial","4",""
"html-button-response-clever","124","801702","0.0-13.0-0.4","7405","János imád sprudozni, ezért sokat sprudlik. Mi ritkán...","0","sprudlunk","[""sprudlunk"",""sprudozunk""]","","posttest trial","4",""
"html-button-response-clever","125","808588","0.0-13.0-0.5","6385","János imád branyozni, ezért sokat branylik. Ők ritkán...","0","branylanak","[""branylanak"",""branyoznak""]","","posttest trial","4",""
"html-button-response-clever","126","814252","0.0-13.0-0.6","5150","János imád klehényezni, ezért sokat klehénylik. Ti ritkán...","1","klehényletek","[""klehényeztek"",""klehényletek""]","","posttest trial","4",""
"html-button-response-clever","127","824332","0.0-13.0-0.7","9569","János imád bratározni, ezért sokat bratárzik. Ők ritkán...","1","bratároznak","[""bratárzanak"",""bratároznak""]","","posttest trial","4",""
"html-button-response-clever","128","833021","0.0-13.0-0.8","8183","János imád püzözni, ezért sokat püzlik. Ti ritkán...","0","püzöztök","[""püzöztök"",""püzlötök""]","","posttest trial","4",""
"html-button-response-clever","129","839389","0.0-13.0-0.9","5861","János imád dujozni, ezért sokat dujzik. Ők ritkán...","1","dujoznak","[""dujzanak"",""dujoznak""]","","posttest trial","4",""
"html-button-response-clever","130","846701","0.0-13.0-0.10","6804","János imád dárakodni, ezért sokat dárakszik. Mi ritkán...","0","dárakszunk","[""dárakszunk"",""dárakodunk""]","","posttest trial","4",""
"html-button-response-clever","131","852356","0.0-13.0-0.11","5145","János imád föködni, ezért sokat fökszik. Ők ritkán...","0","föködnek","[""föködnek"",""fökszenek""]","","posttest trial","4",""
"html-button-response-clever","132","859755","0.0-13.0-0.12","6895","János imád pragányozni, ezért sokat pragánylik. Ti ritkán...","1","pragányoztok","[""pragánylotok"",""pragányoztok""]","","posttest trial","4",""
"html-button-response-clever","133","865813","0.0-13.0-0.13","5555","János imád mágamozni, ezért sokat mágamlik. Mi ritkán...","1","mágamozunk","[""mágamlunk"",""mágamozunk""]","","posttest trial","4",""
"html-button-response-clever","134","874348","0.0-13.0-0.14","8022","János imád trugozni, ezért sokat trugzik. Ők ritkán...","0","trugoznak","[""trugoznak"",""trugzanak""]","","posttest trial","4",""
"html-button-response-clever","135","880565","0.0-13.0-0.15","5699","János imád brülösözni, ezért sokat brülöslik. Mi ritkán...","0","brülösözünk","[""brülösözünk"",""brülöslünk""]","","posttest trial","4",""
"html-button-response-clever","136","886434","0.0-13.0-0.16","5353","János imád lájozni, ezért sokat lájzik. Ti ritkán...","0","lájoztok","[""lájoztok"",""lájzotok""]","","posttest trial","4",""
"html-button-response-clever","137","891444","0.0-13.0-0.17","4501","János imád csibagozni, ezért sokat csibagzik. Ti ritkán...","0","csibagoztok","[""csibagoztok"",""csibagzotok""]","","posttest trial","4",""
"html-button-response-clever","138","896876","0.0-13.0-0.18","4925","János imád trivakodni, ezért sokat trivakszik. Mi ritkán...","0","trivakodunk","[""trivakodunk"",""trivakszunk""]","","posttest trial","4",""
"html-button-response-clever","139","902195","0.0-13.0-0.19","4807","János imád spiharozni, ezért sokat spiharzik. Ti ritkán...","1","spiharoztok","[""spiharzotok"",""spiharoztok""]","","posttest trial","4",""
"html-button-response-clever","140","909546","0.0-13.0-0.20","6849","János imád flűgözni, ezért sokat flűgzik. Mi ritkán...","0","flűgözünk","[""flűgözünk"",""flűgzünk""]","","posttest trial","4",""
"html-button-response-clever","141","920283","0.0-13.0-0.21","10233","János imád dilakozni, ezért sokat dilaklik. Ti ritkán...","1","dilakoztok","[""dilaklotok"",""dilakoztok""]","","posttest trial","4",""
"html-button-response-clever","142","924994","0.0-13.0-0.22","4196","János imád posozni, ezért sokat poslik. Ti ritkán...","0","posoztok","[""posoztok"",""poslotok""]","","posttest trial","4",""
"html-button-response-clever","143","929636","0.0-13.0-0.23","4135","János imád trugokozni, ezért sokat trugoklik. Ők ritkán...","0","trugokoznak","[""trugokoznak"",""trugoklanak""]","","posttest trial","4",""
"html-button-response-clever","144","933772","0.0-13.0-0.24","3628","János imád sprozozni, ezért sokat sprozlik. Ők ritkán...","1","sprozoznak","[""sprozlanak"",""sprozoznak""]","","posttest trial","4",""
"html-button-response-clever","145","939747","0.0-13.0-0.25","5467","János imád köszözni, ezért sokat köszlik. Ti ritkán...","1","köszöztök","[""köszlötök"",""köszöztök""]","","posttest trial","4",""
"html-button-response-clever","146","943515","0.0-13.0-0.26","3261","János imád gihejezni, ezért sokat gihejlik. Mi ritkán...","1","gihejezünk","[""gihejlünk"",""gihejezünk""]","","posttest trial","4",""
"html-button-response-clever","147","949331","0.0-13.0-0.27","5301","János imád lűközni, ezért sokat lűklik. Ők ritkán...","1","lűköznek","[""lűklenek"",""lűköznek""]","","posttest trial","4",""
"html-button-response-clever","148","954684","0.0-13.0-0.28","4840","János imád spirágozni, ezért sokat spiráglik. Ti ritkán...","1","spirágoztok","[""spiráglotok"",""spirágoztok""]","","posttest trial","4",""
"html-button-response-clever","149","959053","0.0-13.0-0.29","3864","János imád csubozni, ezért sokat csubzik. Mi ritkán...","1","csubozunk","[""csubzunk"",""csubozunk""]","","posttest trial","4",""
"html-button-response-clever","150","963643","0.0-13.0-0.30","4073","János imád drűrözni, ezért sokat drűrzik. Ők ritkán...","0","drűröznek","[""drűröznek"",""drűrzenek""]","","posttest trial","4",""
"html-button-response-clever","151","967179","0.0-13.0-0.31","3022","János imád dabozni, ezért sokat dabzik. Ti ritkán...","0","daboztok","[""daboztok"",""dabzotok""]","","posttest trial","4",""
"html-button-response-clever","152","971412","0.0-13.0-0.32","3725","János imád dirozni, ezért sokat dirlik. Ti ritkán...","1","diroztok","[""dirlotok"",""diroztok""]","","posttest trial","4",""
"html-button-response-clever","153","975876","0.0-13.0-0.33","3947","János imád brözözni, ezért sokat brözlik. Ti ritkán...","1","brözöztök","[""brözlötök"",""brözöztök""]","","posttest trial","4",""
"html-button-response-clever","154","982140","0.0-13.0-0.34","5758","János imád spibegezni, ezért sokat spibeglik. Mi ritkán...","1","spibegezünk","[""spibeglünk"",""spibegezünk""]","","posttest trial","4",""
"html-button-response-clever","155","987619","0.0-13.0-0.35","4964","János imád frakozni, ezért sokat fraklik. Mi ritkán...","0","frakozunk","[""frakozunk"",""fraklunk""]","","posttest trial","4",""
"html-button-response-clever","156","998341","0.0-13.0-0.36","10215","János imád pilégedni, ezért sokat pilégszik. Ők ritkán...","0","pilégednek","[""pilégednek"",""pilégszenek""]","","posttest trial","4",""
"html-button-response-clever","157","1005547","0.0-13.0-0.37","6704","János imád fröjözni, ezért sokat fröjzik. Ti ritkán...","0","fröjzötök","[""fröjzötök"",""fröjöztök""]","","posttest trial","4",""
"html-button-response-clever","158","1011157","0.0-13.0-0.38","5107","János imád kűdözni, ezért sokat kűdlik. Ők ritkán...","0","kűdöznek","[""kűdöznek"",""kűdlenek""]","","posttest trial","4",""
"html-button-response-clever","159","1026429","0.0-13.0-0.39","14768","János imád frálapodni, ezért sokat frálapszik. Ti ritkán...","1","frálapodtok","[""frálapszotok"",""frálapodtok""]","","posttest trial","4",""
"html-button-response-clever","160","1031974","0.0-13.0-0.40","5042","János imád flöközni, ezért sokat flöklik. Ti ritkán...","1","flököztök","[""flöklötök"",""flököztök""]","","posttest trial","4",""
"html-button-response-clever","161","1035597","0.0-13.0-0.41","3105","János imád brivakozni, ezért sokat brivaklik. Ti ritkán...","1","brivakoztok","[""brivaklotok"",""brivakoztok""]","","posttest trial","4",""
"html-button-response-clever","162","1040405","0.0-13.0-0.42","4291","János imád privékedni, ezért sokat privékszik. Ők ritkán...","0","privékednek","[""privékednek"",""privékszenek""]","","posttest trial","4",""
"html-button-response-clever","163","1047812","0.0-13.0-0.43","6901","János imád virozni, ezért sokat virzik. Ők ritkán...","1","viroznak","[""virzanak"",""viroznak""]","","posttest trial","4",""
"html-button-response-clever","164","1057981","0.0-13.0-0.44","9656","János imád spügözni, ezért sokat spügzik. Mi ritkán...","1","spügözünk","[""spügzünk"",""spügözünk""]","","posttest trial","4",""
"html-button-response-clever","165","1066300","0.0-13.0-0.45","7814","János imád prélemezni, ezért sokat prélemlik. Ők ritkán...","0","prélemeznek","[""prélemeznek"",""prélemlenek""]","","posttest trial","4",""
"html-button-response-clever","166","1073604","0.0-13.0-0.46","6802","János imád flüröközni, ezért sokat flüröklik. Ti ritkán...","0","flürököztök","[""flürököztök"",""flüröklötök""]","","posttest trial","4",""
"html-button-response-clever","167","1079084","0.0-13.0-0.47","4968","János imád gyihegezni, ezért sokat gyihegzik. Ti ritkán...","0","gyihegeztek","[""gyihegeztek"",""gyihegzetek""]","","posttest trial","4",""
"html-button-response-clever","168","1087500","0.0-13.0-0.48","7913","János imád flemezni, ezért sokat flemlik. Mi ritkán...","1","flemezünk","[""flemlünk"",""flemezünk""]","","posttest trial","4",""
"html-button-response-clever","169","1092548","0.0-13.0-0.49","4533","János imád trikozni, ezért sokat triklik. Ti ritkán...","1","trikoztok","[""triklotok"",""trikoztok""]","","posttest trial","4",""
"html-button-response-clever","170","1097540","0.0-13.0-0.50","4475","János imád prögözni, ezért sokat prögzik. Ti ritkán...","1","prögöztök","[""prögzötök"",""prögöztök""]","","posttest trial","4",""
"html-button-response-clever","171","1103211","0.0-13.0-0.51","5161","János imád nyivágozni, ezért sokat nyivágzik. Mi ritkán...","1","nyivágozunk","[""nyivágzunk"",""nyivágozunk""]","","posttest trial","4",""
"html-button-response-clever","172","1108068","0.0-13.0-0.52","4354","János imád frálasozni, ezért sokat frálaslik. Ők ritkán...","1","frálasoznak","[""frálaslanak"",""frálasoznak""]","","posttest trial","4",""
"html-button-response-clever","173","1115117","0.0-13.0-0.53","6539","János imád nyürözni, ezért sokat nyürzik. Ők ritkán...","1","nyüröznek","[""nyürzenek"",""nyüröznek""]","","posttest trial","4",""
"html-button-response","174","1121595","0.0-14.0","5973","<p> Vége a játéknak. A teljes pontszámod 33/54.</p><p> Szép munka! &#128526;&#128526;&#128526;</p><p>A Befejezés gomb megnyomása után bezárhatod a böngészőablakot.</p>","0","","","","","",""
"html-keyboard-response","175","1127106","0.0-15.0","null","<div class=""message"">
         <p>Egy kis türelmet kérünk, amíg elmentjük az adatokat...</p>
         </div>","null","","","","","",""
