"trial_type","trial_index","time_elapsed","internal_node_id","rt","stimulus","response","response_string","choices","esp_response","trial_kind","list_number","esp_match"
"pavlovia","0","684","0.0-0.0","","","","","","","","",""
"html-button-response","1","42428","0.0-1.0","41236","<p>Kedves Résztvevő! A Budapesti Műszaki és Gazdaságtudományi Egyetem Kognitív Tudományi Tanszékének kutatásában való részvételed kérjük. A kutatásban azt vizsgáljuk, hogy a magyar anyanyelvűek hogyan használnak bizonyos szóalakokat, és hogy milyen képük van arról, hogy mások hogyan használják, hogyan képzik a szavakat. Ez hozzásegít bennünket ahhoz, hogy jobban megértsük, hogyan dolgozza fel és tárolja a nyelvet az emberi agy, és hogyan működnek, hogyan változnak egy adott közösség nyelvi konvenciói.</p><p>A vizsgálat egy rövid számítógépes feladatból fog állni. A kutatásban való részvétel önkéntes, a részvételi szándék bármikor visszavonható. A résztvevők eredményeit név nélkül kezeljük, így nem beazonosíthatók az adatok feldolgozása során. Minden személyes adatot az EU általános adatvédelmi rendeletének (GDPR) megfelelően kezelünk és legfeljebb öt éven belül megsemmisítünk. A vizsgálat jellemzően húsz percet vesz igénybe.</p><p>Kutatásvezető:</p><p>Dr. Rácz Péter, tudományos munkatárs, BME KTT</p><p>e-mail: racz.peter.marton@ttk.bme.hu</p>","0","","","","","",""
"html-button-response","2","99634","0.0-2.0","56698","<p>A kísérletben szavakat fogsz látni. Ezek között lesznek olyanok, amelyeket ismersz, de előfordulhatnak olyanok is, amelyeket nem ismersz, sőt, vannak köztük kitalált szavak is. Minden szónál látni fogsz toldalékolt alakokat. A te feladatod az lesz, hogy minden szóhoz kiválaszd azt a toldalékolt alakot, amely a te számodra ismerősebben, természetesebben hangzik. Rossz válaszok nincsenek, mert van olyan, hogy különböző embereknek más és más szó tűnik jobb választásnak. A választ úgy tudod majd kiválasztani, ha rákattintasz.</p><p>Ebben a szóválasztós játékban egy másik játékossal együtt veszel majd részt. A másik játékos is minden esetben azok közül a lehetőségek közül válogathat, mint te. Kettőtök feladata az, hogy ugyanazt a lehetőséget válasszátok minden esetben. Ahhoz, hogy ez sikerüljön, neked figyelned kell arra, hogy a másik játékos milyen válaszokat ad, és ennek alapján meg kell tippelned, hogyan választ legközelebb. Ha eltalálod, akkor pontot kapsz.</p>","0","","","","","",""
"html-button-response","3","166179","0.0-3.0","66035","<p>Kérjük, olvasd el az alábbi nyilatkozatot, és amennyiben egyetértesz vele, nyomj a Beleegyezés gombra!</p><p>Kijelentem, hogy magyar anyanyelvű személyként önként veszek részt a BME KTT kísérletében. A kutatás céljával és folyamatával kapcsolatban elegendő tájékoztatást kaptam, lehetőségem volt kérdések feltételére, és esetleges kérdéseimre megfelelő válaszokat kaptam. A tájékoztatás alapján elegendő mennyiségű információ áll a rendelkezésemre, hogy eldönthessem, részt kívánok-e venni a kutatásban.</p><p>Tisztában vagyok vele, hogy részvételi szándékomat és adataimat bármikor, indoklás nélkül visszavonhatom.</p><p>Értem és tudomásul veszem, hogy a kutatás tudományos célokat szolgál, és az általam szolgáltatott adatokat a BME kizárólag kutatási célból használja fel. Tudomásul veszem, hogy eredményeimet a többi résztvevő eredményeivel együtt kezelik, így egyéni teljesítményemről visszajelzést, szakvéleményt nem kapok.</p><p>Megértettem, hogy adataim kezelését illetően a BME az EU általános adatvédelmi rendelete (GDPR), a hatályos adatvédelmi törvény és a nemzetközi kutatás-etikai alapelvek szerint jár el. Eredményeim anonim módon kerülnek feldolgozásra, és a kutatás résztvevői az azonosításomra alkalmas adataimat harmadik félnek nem szolgáltatják ki. Engedélyezem a BME számára a jelen kutatásban felvett adataim feldolgozását és tárolását, beleértve azok későbbi kutatásokhoz való felhasználását is. Személyes adataim kezelésével kapcsolatban tájékoztatást kérhetek a kutatás résztvevőitől, az adatkezelés ellen tiltakozhatok, kérhetem személyes adataim helyesbítését, törlését vagy zárolását, valamint jogorvoslatért a Nemzeti Adatvédelmi és Információszabadság Hatósághoz fordulhatok.</p><p>Kijelentem, hogy a kutatásban való részvételem körülményeiről részletes tájékoztatást kaptam, és a feltételeket elfogadom.</p>","0","","","","","",""
"survey-text","4","203885","0.0-4.0","37187","","{""Q0"":""szantaii"",""Q1"":""férfi"",""Q2"":""1985"",""Q3"":""18""}","","","","","",""
"html-button-response","5","219284","0.0-5.0","14895","<p>Ebben a játékban szavakat kell toldalékolni.</p> <p>Minden körben mutatunk majd egy példamondatot, amiben lesz egy szó.</p> <p>Alatta jön egy második mondat, ezt a mondatot neked kell majd befejezni, ugyanezzel a szóval.</p> <p>Nem biztos, hogy a szó eleve ismerős lesz számodra!</p> <p>Minden mondathoz adunk két lehetőséget, ezeket balra és jobbra látod majd.</p> <p>A játék kb. negyedóráig-húsz percig tart.</p>","0","","","","","",""
"html-button-response","6","236636","0.0-6.0","16847","<p>Nézzünk egy példát!</p> <p>A példamondat: ""János nagyon szeret rancsúrozni.""</p><p>Neked ezt a mondatot kell befejezned: ""Én is szívesen...""</p><p>A lehetőségek pedig ezek:</p>","1","","","","","",""
"html-button-response","7","245333","0.0-7.0","8189","<p>Nagyon jó.</p><p>Ezt a játékot nem egyedül fogod játszani, hanem egy másik játékossal.</p><p>Mielőtt továbblépünk, összekapcsolunk titeket egymással.</p><p>Ez igénybe vehet néhány másodpercet, amihez szíves türelmed kérjük.</p>","0","","","","","",""
"html-button-response","8","251062","0.0-8.0","null","<p>Csatlakozás a másik játékoshoz...</p>","null","","","","","",""
"html-button-response","9","253574","0.0-9.0","null","<p> Sikeres kapcsolódás!</p>","null","","","","","",""
"html-button-response","10","264086","0.0-10.0","null","<p>A következőkben ketten játsszátok a szóválasztós játékot.</p><p>A feladatotok az lesz, hogy minden körben <b>ugyanazt</b> a szót válasszátok.</p><p>Minden ilyen egyező válaszért pontot kaptok.</p><p>Próbáld meg kitalálni, mit választ a másik játékos!</p><p>Bármikor választhatsz, a körnek akkor van vége, ha mindketten döntöttetek.</p><p>Sok sikert!</p>","null","","","","","",""
"html-button-response-esp","11","272487","0.0-11.0-0.0","7114","Te bizony sokat préleglesz. Én is sokat...","0","préleglek","[""préleglek"",""préleglem""]","préleglem","esp trial","10","false"
"html-button-response","12","275997","0.0-11.0-1.0","null","<p>A másik játékos ezt választotta: <b>préleglem</b>.</p><p>&#10060;</p><p>A válaszaitok <b>nem</b> egyeznek meg.</p>","null","","","","feedback trial","",""
"html-button-response-esp","13","284398","0.0-11.0-0.1","3285","Te bizony sokat gilárzol. Én is sokat...","1","gilárzom","[""gilárzok"",""gilárzom""]","gilárzok","esp trial","10","false"
"html-button-response","14","287910","0.0-11.0-1.1","null","<p>A másik játékos ezt választotta: <b>gilárzok</b>.</p><p>&#10060;</p><p>A válaszaitok <b>nem</b> egyeznek meg.</p>","null","","","","feedback trial","",""
"html-button-response-esp","15","296309","0.0-11.0-0.2","4215","Te bizony sokat zödlesz. Én is sokat...","0","zödlök","[""zödlök"",""zödlöm""]","zödlöm","esp trial","10","false"
"html-button-response","16","299823","0.0-11.0-1.2","null","<p>A másik játékos ezt választotta: <b>zödlöm</b>.</p><p>&#10060;</p><p>A válaszaitok <b>nem</b> egyeznek meg.</p>","null","","","","feedback trial","",""
"html-button-response-esp","17","308223","0.0-11.0-0.3","4125","Te bizony sokat vihepszel. Én is sokat...","0","vihepszem","[""vihepszem"",""vihepszek""]","vihepszek","esp trial","10","false"
"html-button-response","18","311735","0.0-11.0-1.3","null","<p>A másik játékos ezt választotta: <b>vihepszek</b>.</p><p>&#10060;</p><p>A válaszaitok <b>nem</b> egyeznek meg.</p>","null","","","","feedback trial","",""
"html-button-response-esp","19","320135","0.0-11.0-0.4","7806","Te bizony sokat spülőrzöl. Én is sokat...","1","spülőrzöm","[""spülőrzök"",""spülőrzöm""]","spülőrzöm","esp trial","10","true"
"html-button-response","20","323647","0.0-11.0-1.4","null","<p>A másik játékos ezt választotta: <b>spülőrzöm</b>.</p><p>&#x2705;</p><p>A te válaszod és a másik játékos válasza <b>megegyeznek</b>.</p>","null","","","","feedback trial","",""
"html-button-response-esp","21","332047","0.0-11.0-0.5","3230","Te bizony sokat sprédlesz. Én is sokat...","0","sprédlem","[""sprédlem"",""sprédlek""]","sprédlem","esp trial","10","true"
"html-button-response","22","335559","0.0-11.0-1.5","null","<p>A másik játékos ezt választotta: <b>sprédlem</b>.</p><p>&#x2705;</p><p>A te válaszod és a másik játékos válasza <b>megegyeznek</b>.</p>","null","","","","feedback trial","",""
"html-button-response-esp","23","343959","0.0-11.0-0.6","3286","Te bizony sokat lihadzol. Én is sokat...","1","lihadzom","[""lihadzok"",""lihadzom""]","lihadzom","esp trial","10","true"
"html-button-response","24","347471","0.0-11.0-1.6","null","<p>A másik játékos ezt választotta: <b>lihadzom</b>.</p><p>&#x2705;</p><p>A te válaszod és a másik játékos válasza <b>megegyeznek</b>.</p>","null","","","","feedback trial","",""
"html-button-response-esp","25","355871","0.0-11.0-0.7","3934","Te bizony sokat szűslesz. Én is sokat...","1","szűslöm","[""szűslök"",""szűslöm""]","szűslöm","esp trial","10","true"
"html-button-response","26","359383","0.0-11.0-1.7","null","<p>A másik játékos ezt választotta: <b>szűslöm</b>.</p><p>&#x2705;</p><p>A te válaszod és a másik játékos válasza <b>megegyeznek</b>.</p>","null","","","","feedback trial","",""
"html-button-response-esp","27","367782","0.0-11.0-0.8","3039","Te bizony sokat ibáglasz. Én is sokat...","0","ibáglom","[""ibáglom"",""ibáglok""]","ibáglom","esp trial","10","true"
"html-button-response","28","371294","0.0-11.0-1.8","null","<p>A másik játékos ezt választotta: <b>ibáglom</b>.</p><p>&#x2705;</p><p>A te válaszod és a másik játékos válasza <b>megegyeznek</b>.</p>","null","","","","feedback trial","",""
"html-button-response-esp","29","379694","0.0-11.0-0.9","2809","Te bizony sokat gyivádzol. Én is sokat...","1","gyivádzom","[""gyivádzok"",""gyivádzom""]","gyivádzok","esp trial","10","false"
"html-button-response","30","383206","0.0-11.0-1.9","null","<p>A másik játékos ezt választotta: <b>gyivádzok</b>.</p><p>&#10060;</p><p>A válaszaitok <b>nem</b> egyeznek meg.</p>","null","","","","feedback trial","",""
"html-button-response-esp","31","391606","0.0-11.0-0.10","1847","Te bizony sokat plövőrzöl. Én is sokat...","0","plövőrzöm","[""plövőrzöm"",""plövőrzök""]","plövőrzöm","esp trial","10","true"
"html-button-response","32","395118","0.0-11.0-1.10","null","<p>A másik játékos ezt választotta: <b>plövőrzöm</b>.</p><p>&#x2705;</p><p>A te válaszod és a másik játékos válasza <b>megegyeznek</b>.</p>","null","","","","feedback trial","",""
"html-button-response-esp","33","403519","0.0-11.0-0.11","2952","Te bizony sokat flérlesz. Én is sokat...","1","flérlek","[""flérlem"",""flérlek""]","flérlem","esp trial","10","false"
"html-button-response","34","407030","0.0-11.0-1.11","null","<p>A másik játékos ezt választotta: <b>flérlem</b>.</p><p>&#10060;</p><p>A válaszaitok <b>nem</b> egyeznek meg.</p>","null","","","","feedback trial","",""
"html-button-response-esp","35","415431","0.0-11.0-0.12","2040","Te bizony sokat frágapszol. Én is sokat...","1","frágapszom","[""frágapszok"",""frágapszom""]","frágapszok","esp trial","10","false"
"html-button-response","36","418943","0.0-11.0-1.12","null","<p>A másik játékos ezt választotta: <b>frágapszok</b>.</p><p>&#10060;</p><p>A válaszaitok <b>nem</b> egyeznek meg.</p>","null","","","","feedback trial","",""
"html-button-response-esp","37","427342","0.0-11.0-0.13","1752","Te bizony sokat floglasz. Én is sokat...","1","floglom","[""floglok"",""floglom""]","floglom","esp trial","10","true"
"html-button-response","38","430854","0.0-11.0-1.13","null","<p>A másik játékos ezt választotta: <b>floglom</b>.</p><p>&#x2705;</p><p>A te válaszod és a másik játékos válasza <b>megegyeznek</b>.</p>","null","","","","feedback trial","",""
"html-button-response-esp","39","439255","0.0-11.0-0.14","2528","Te bizony sokat spülöklesz. Én is sokat...","0","spülöklöm","[""spülöklöm"",""spülöklök""]","spülöklöm","esp trial","10","true"
"html-button-response","40","442767","0.0-11.0-1.14","null","<p>A másik játékos ezt választotta: <b>spülöklöm</b>.</p><p>&#x2705;</p><p>A te válaszod és a másik játékos válasza <b>megegyeznek</b>.</p>","null","","","","feedback trial","",""
"html-button-response-esp","41","451166","0.0-11.0-0.15","2800","Te bizony sokat prohódzol. Én is sokat...","1","prohódzom","[""prohódzok"",""prohódzom""]","prohódzok","esp trial","10","false"
"html-button-response","42","454679","0.0-11.0-1.15","null","<p>A másik játékos ezt választotta: <b>prohódzok</b>.</p><p>&#10060;</p><p>A válaszaitok <b>nem</b> egyeznek meg.</p>","null","","","","feedback trial","",""
"html-button-response-esp","43","463078","0.0-11.0-0.16","3753","Te bizony sokat bivejlesz. Én is sokat...","0","bivejlek","[""bivejlek"",""bivejlem""]","bivejlem","esp trial","10","false"
"html-button-response","44","466591","0.0-11.0-1.16","null","<p>A másik játékos ezt választotta: <b>bivejlem</b>.</p><p>&#10060;</p><p>A válaszaitok <b>nem</b> egyeznek meg.</p>","null","","","","feedback trial","",""
"html-button-response-esp","45","474990","0.0-11.0-0.17","1257","Te bizony sokat sztruglasz. Én is sokat...","1","sztruglom","[""sztruglok"",""sztruglom""]","sztruglom","esp trial","10","true"
"html-button-response","46","478503","0.0-11.0-1.17","null","<p>A másik játékos ezt választotta: <b>sztruglom</b>.</p><p>&#x2705;</p><p>A te válaszod és a másik játékos válasza <b>megegyeznek</b>.</p>","null","","","","feedback trial","",""
"html-button-response-esp","47","486902","0.0-11.0-0.18","1737","Te bizony sokat gyibakszol. Én is sokat...","0","gyibakszom","[""gyibakszom"",""gyibakszok""]","gyibakszok","esp trial","10","false"
"html-button-response","48","490415","0.0-11.0-1.18","null","<p>A másik játékos ezt választotta: <b>gyibakszok</b>.</p><p>&#10060;</p><p>A válaszaitok <b>nem</b> egyeznek meg.</p>","null","","","","feedback trial","",""
"html-button-response-esp","49","498815","0.0-11.0-0.19","2953","Te bizony sokat klárzol. Én is sokat...","0","klárzom","[""klárzom"",""klárzok""]","klárzom","esp trial","10","true"
"html-button-response","50","502318","0.0-11.0-1.19","null","<p>A másik játékos ezt választotta: <b>klárzom</b>.</p><p>&#x2705;</p><p>A te válaszod és a másik játékos válasza <b>megegyeznek</b>.</p>","null","","","","feedback trial","",""
"html-button-response-esp","51","510855","0.0-11.0-0.20","4265","Te bizony sokat mékszel. Én is sokat...","0","mékszem","[""mékszem"",""mékszek""]","mékszem","esp trial","10","true"
"html-button-response","52","515784","0.0-11.0-1.20","null","<p>A másik játékos ezt választotta: <b>mékszem</b>.</p><p>&#x2705;</p><p>A te válaszod és a másik játékos válasza <b>megegyeznek</b>.</p>","null","","","","feedback trial","",""
"html-button-response-esp","53","526282","0.0-11.0-0.21","9994","Te bizony sokat táklasz. Én is sokat...","0","táklok","[""táklok"",""táklom""]","táklok","esp trial","10","true"
"html-button-response","54","529796","0.0-11.0-1.21","null","<p>A másik játékos ezt választotta: <b>táklok</b>.</p><p>&#x2705;</p><p>A te válaszod és a másik játékos válasza <b>megegyeznek</b>.</p>","null","","","","feedback trial","",""
"html-button-response-esp","55","538190","0.0-11.0-0.22","2664","Te bizony sokat flözlesz. Én is sokat...","0","flözlöm","[""flözlöm"",""flözlök""]","flözlöm","esp trial","10","true"
"html-button-response","56","541702","0.0-11.0-1.22","null","<p>A másik játékos ezt választotta: <b>flözlöm</b>.</p><p>&#x2705;</p><p>A te válaszod és a másik játékos válasza <b>megegyeznek</b>.</p>","null","","","","feedback trial","",""
"html-button-response-esp","57","550102","0.0-11.0-0.23","3154","Te bizony sokat livaklasz. Én is sokat...","1","livaklom","[""livaklok"",""livaklom""]","livaklok","esp trial","10","false"
"html-button-response","58","553614","0.0-11.0-1.23","null","<p>A másik játékos ezt választotta: <b>livaklok</b>.</p><p>&#10060;</p><p>A válaszaitok <b>nem</b> egyeznek meg.</p>","null","","","","feedback trial","",""
"html-button-response-esp","59","562009","0.0-11.0-0.24","1522","Te bizony sokat drügzöl. Én is sokat...","0","drügzöm","[""drügzöm"",""drügzök""]","drügzöm","esp trial","10","true"
"html-button-response","60","565518","0.0-11.0-1.24","null","<p>A másik játékos ezt választotta: <b>drügzöm</b>.</p><p>&#x2705;</p><p>A te válaszod és a másik játékos válasza <b>megegyeznek</b>.</p>","null","","","","feedback trial","",""
"html-button-response-esp","61","573918","0.0-11.0-0.25","2922","Te bizony sokat friszlasz. Én is sokat...","1","friszlok","[""friszlom"",""friszlok""]","friszlom","esp trial","10","false"
"html-button-response","62","577430","0.0-11.0-1.25","null","<p>A másik játékos ezt választotta: <b>friszlom</b>.</p><p>&#10060;</p><p>A válaszaitok <b>nem</b> egyeznek meg.</p>","null","","","","feedback trial","",""
"html-button-response-esp","63","585826","0.0-11.0-0.26","2771","Te bizony sokat trihagzol. Én is sokat...","0","trihagzom","[""trihagzom"",""trihagzok""]","trihagzok","esp trial","10","false"
"html-button-response","64","589334","0.0-11.0-1.26","null","<p>A másik játékos ezt választotta: <b>trihagzok</b>.</p><p>&#10060;</p><p>A válaszaitok <b>nem</b> egyeznek meg.</p>","null","","","","feedback trial","",""
"html-button-response-esp","65","597734","0.0-11.0-0.27","6891","Te bizony sokat prihekszel. Én is sokat...","0","prihekszem","[""prihekszem"",""prihekszek""]","prihekszem","esp trial","10","true"
"html-button-response","66","601246","0.0-11.0-1.27","null","<p>A másik játékos ezt választotta: <b>prihekszem</b>.</p><p>&#x2705;</p><p>A te válaszod és a másik játékos válasza <b>megegyeznek</b>.</p>","null","","","","feedback trial","",""
"html-button-response-esp","67","609646","0.0-11.0-0.28","4003","Te bizony sokat kumlasz. Én is sokat...","0","kumlok","[""kumlok"",""kumlom""]","kumlom","esp trial","10","false"
"html-button-response","68","613158","0.0-11.0-1.28","null","<p>A másik játékos ezt választotta: <b>kumlom</b>.</p><p>&#10060;</p><p>A válaszaitok <b>nem</b> egyeznek meg.</p>","null","","","","feedback trial","",""
"html-button-response-esp","69","621558","0.0-11.0-0.29","2804","Te bizony sokat pugoslasz. Én is sokat...","1","pugoslom","[""pugoslok"",""pugoslom""]","pugoslom","esp trial","10","true"
"html-button-response","70","625070","0.0-11.0-1.29","null","<p>A másik játékos ezt választotta: <b>pugoslom</b>.</p><p>&#x2705;</p><p>A te válaszod és a másik játékos válasza <b>megegyeznek</b>.</p>","null","","","","feedback trial","",""
"html-button-response-esp","71","633470","0.0-11.0-0.30","2052","Te bizony sokat aglasz. Én is sokat...","1","aglom","[""aglok"",""aglom""]","aglom","esp trial","10","true"
"html-button-response","72","636982","0.0-11.0-1.30","null","<p>A másik játékos ezt választotta: <b>aglom</b>.</p><p>&#x2705;</p><p>A te válaszod és a másik játékos válasza <b>megegyeznek</b>.</p>","null","","","","feedback trial","",""
"html-button-response-esp","73","645382","0.0-11.0-0.31","2924","Te bizony sokat spélszel. Én is sokat...","0","spélszek","[""spélszek"",""spélszem""]","spélszem","esp trial","10","false"
"html-button-response","74","648894","0.0-11.0-1.31","null","<p>A másik játékos ezt választotta: <b>spélszem</b>.</p><p>&#10060;</p><p>A válaszaitok <b>nem</b> egyeznek meg.</p>","null","","","","feedback trial","",""
"html-button-response-esp","75","657294","0.0-11.0-0.32","3604","Te bizony sokat spatszol. Én is sokat...","1","spatszom","[""spatszok"",""spatszom""]","spatszok","esp trial","10","false"
"html-button-response","76","660806","0.0-11.0-1.32","null","<p>A másik játékos ezt választotta: <b>spatszok</b>.</p><p>&#10060;</p><p>A válaszaitok <b>nem</b> egyeznek meg.</p>","null","","","","feedback trial","",""
"html-button-response-esp","77","669203","0.0-11.0-0.33","4972","Te bizony sokat huklasz. Én is sokat...","1","huklok","[""huklom"",""huklok""]","huklom","esp trial","10","false"
"html-button-response","78","672710","0.0-11.0-1.33","null","<p>A másik játékos ezt választotta: <b>huklom</b>.</p><p>&#10060;</p><p>A válaszaitok <b>nem</b> egyeznek meg.</p>","null","","","","feedback trial","",""
"html-button-response-esp","79","681110","0.0-11.0-0.34","4205","Te bizony sokat fivénylesz. Én is sokat...","0","fivénylek","[""fivénylek"",""fivénylem""]","fivénylem","esp trial","10","false"
"html-button-response","80","684622","0.0-11.0-1.34","null","<p>A másik játékos ezt választotta: <b>fivénylem</b>.</p><p>&#10060;</p><p>A válaszaitok <b>nem</b> egyeznek meg.</p>","null","","","","feedback trial","",""
"html-button-response-esp","81","693022","0.0-11.0-0.35","6653","Te bizony sokat klidlasz. Én is sokat...","1","klidlom","[""klidlok"",""klidlom""]","klidlom","esp trial","10","true"
"html-button-response","82","696534","0.0-11.0-1.35","null","<p>A másik játékos ezt választotta: <b>klidlom</b>.</p><p>&#x2705;</p><p>A te válaszod és a másik játékos válasza <b>megegyeznek</b>.</p>","null","","","","feedback trial","",""
"html-button-response-esp","83","704932","0.0-11.0-0.36","2797","Te bizony sokat fligzol. Én is sokat...","1","fligzom","[""fligzok"",""fligzom""]","fligzok","esp trial","10","false"
"html-button-response","84","708438","0.0-11.0-1.36","null","<p>A másik játékos ezt választotta: <b>fligzok</b>.</p><p>&#10060;</p><p>A válaszaitok <b>nem</b> egyeznek meg.</p>","null","","","","feedback trial","",""
"html-button-response-esp","85","717581","0.0-11.0-0.37","8638","Te bizony sokat spibádzol. Én is sokat...","1","spibádzom","[""spibádzok"",""spibádzom""]","spibádzom","esp trial","10","true"
"html-button-response","86","721094","0.0-11.0-1.37","null","<p>A másik játékos ezt választotta: <b>spibádzom</b>.</p><p>&#x2705;</p><p>A te válaszod és a másik játékos válasza <b>megegyeznek</b>.</p>","null","","","","feedback trial","",""
"html-button-response-esp","87","729494","0.0-11.0-0.38","4774","Te bizony sokat gerénylesz. Én is sokat...","1","gerénylek","[""gerénylem"",""gerénylek""]","gerénylem","esp trial","10","false"
"html-button-response","88","733006","0.0-11.0-1.38","null","<p>A másik játékos ezt választotta: <b>gerénylem</b>.</p><p>&#10060;</p><p>A válaszaitok <b>nem</b> egyeznek meg.</p>","null","","","","feedback trial","",""
"html-button-response-esp","89","741406","0.0-11.0-0.39","2550","Te bizony sokat féjzel. Én is sokat...","1","féjzem","[""féjzek"",""féjzem""]","féjzem","esp trial","10","true"
"html-button-response","90","744918","0.0-11.0-1.39","null","<p>A másik játékos ezt választotta: <b>féjzem</b>.</p><p>&#x2705;</p><p>A te válaszod és a másik játékos válasza <b>megegyeznek</b>.</p>","null","","","","feedback trial","",""
"html-button-response-esp","91","753318","0.0-11.0-0.40","4663","Te bizony sokat prezlesz. Én is sokat...","0","prezlek","[""prezlek"",""prezlem""]","prezlem","esp trial","10","false"
"html-button-response","92","756830","0.0-11.0-1.40","null","<p>A másik játékos ezt választotta: <b>prezlem</b>.</p><p>&#10060;</p><p>A válaszaitok <b>nem</b> egyeznek meg.</p>","null","","","","feedback trial","",""
"html-button-response-esp","93","765230","0.0-11.0-0.41","2942","Te bizony sokat fliraklasz. Én is sokat...","0","fliraklom","[""fliraklom"",""fliraklok""]","fliraklom","esp trial","10","true"
"html-button-response","94","768742","0.0-11.0-1.41","null","<p>A másik játékos ezt választotta: <b>fliraklom</b>.</p><p>&#x2705;</p><p>A te válaszod és a másik játékos válasza <b>megegyeznek</b>.</p>","null","","","","feedback trial","",""
"html-button-response-esp","95","777142","0.0-11.0-0.42","6831","Te bizony sokat péleslesz. Én is sokat...","0","péleslem","[""péleslem"",""péleslek""]","péleslem","esp trial","10","true"
"html-button-response","96","780654","0.0-11.0-1.42","null","<p>A másik játékos ezt választotta: <b>péleslem</b>.</p><p>&#x2705;</p><p>A te válaszod és a másik játékos válasza <b>megegyeznek</b>.</p>","null","","","","feedback trial","",""
"html-button-response-esp","97","789054","0.0-11.0-0.43","2807","Te bizony sokat spírzol. Én is sokat...","0","spírzom","[""spírzom"",""spírzok""]","spírzom","esp trial","10","true"
"html-button-response","98","792566","0.0-11.0-1.43","null","<p>A másik játékos ezt választotta: <b>spírzom</b>.</p><p>&#x2705;</p><p>A te válaszod és a másik játékos válasza <b>megegyeznek</b>.</p>","null","","","","feedback trial","",""
"html-button-response-esp","99","800966","0.0-11.0-0.44","3575","Te bizony sokat vűjlesz. Én is sokat...","0","vűjlöm","[""vűjlöm"",""vűjlök""]","vűjlöm","esp trial","10","true"
"html-button-response","100","804478","0.0-11.0-1.44","null","<p>A másik játékos ezt választotta: <b>vűjlöm</b>.</p><p>&#x2705;</p><p>A te válaszod és a másik játékos válasza <b>megegyeznek</b>.</p>","null","","","","feedback trial","",""
"html-button-response-esp","101","812878","0.0-11.0-0.45","6904","Te bizony sokat csólorzol. Én is sokat...","1","csólorzom","[""csólorzok"",""csólorzom""]","csólorzok","esp trial","10","false"
"html-button-response","102","816390","0.0-11.0-1.45","null","<p>A másik játékos ezt választotta: <b>csólorzok</b>.</p><p>&#10060;</p><p>A válaszaitok <b>nem</b> egyeznek meg.</p>","null","","","","feedback trial","",""
"html-button-response-esp","103","824790","0.0-11.0-0.46","2271","Te bizony sokat praslasz. Én is sokat...","0","praslom","[""praslom"",""praslok""]","praslom","esp trial","10","true"
"html-button-response","104","828302","0.0-11.0-1.46","null","<p>A másik játékos ezt választotta: <b>praslom</b>.</p><p>&#x2705;</p><p>A te válaszod és a másik játékos válasza <b>megegyeznek</b>.</p>","null","","","","feedback trial","",""
"html-button-response-esp","105","836702","0.0-11.0-0.47","6304","Te bizony sokat flibekszel. Én is sokat...","0","flibekszem","[""flibekszem"",""flibekszek""]","flibekszek","esp trial","10","false"
"html-button-response","106","840214","0.0-11.0-1.47","null","<p>A másik játékos ezt választotta: <b>flibekszek</b>.</p><p>&#10060;</p><p>A válaszaitok <b>nem</b> egyeznek meg.</p>","null","","","","feedback trial","",""
"html-button-response-esp","107","848614","0.0-11.0-0.48","2200","Te bizony sokat spüszlesz. Én is sokat...","0","spüszlöm","[""spüszlöm"",""spüszlök""]","spüszlöm","esp trial","10","true"
"html-button-response","108","852126","0.0-11.0-1.48","null","<p>A másik játékos ezt választotta: <b>spüszlöm</b>.</p><p>&#x2705;</p><p>A te válaszod és a másik játékos válasza <b>megegyeznek</b>.</p>","null","","","","feedback trial","",""
"html-button-response-esp","109","860526","0.0-11.0-0.49","5120","Te bizony sokat sprálszol. Én is sokat...","0","sprálszom","[""sprálszom"",""sprálszok""]","sprálszok","esp trial","10","false"
"html-button-response","110","864038","0.0-11.0-1.49","null","<p>A másik játékos ezt választotta: <b>sprálszok</b>.</p><p>&#10060;</p><p>A válaszaitok <b>nem</b> egyeznek meg.</p>","null","","","","feedback trial","",""
"html-button-response-esp","111","872438","0.0-11.0-0.50","1505","Te bizony sokat tuboklasz. Én is sokat...","0","tuboklom","[""tuboklom"",""tuboklok""]","tuboklom","esp trial","10","true"
"html-button-response","112","875950","0.0-11.0-1.50","null","<p>A másik játékos ezt választotta: <b>tuboklom</b>.</p><p>&#x2705;</p><p>A te válaszod és a másik játékos válasza <b>megegyeznek</b>.</p>","null","","","","feedback trial","",""
"html-button-response-esp","113","884350","0.0-11.0-0.51","3128","Te bizony sokat frivajlasz. Én is sokat...","1","frivajlom","[""frivajlok"",""frivajlom""]","frivajlom","esp trial","10","true"
"html-button-response","114","887862","0.0-11.0-1.51","null","<p>A másik játékos ezt választotta: <b>frivajlom</b>.</p><p>&#x2705;</p><p>A te válaszod és a másik játékos válasza <b>megegyeznek</b>.</p>","null","","","","feedback trial","",""
"html-button-response-esp","115","896262","0.0-11.0-0.52","6489","Te bizony sokat plágadzol. Én is sokat...","0","plágadzom","[""plágadzom"",""plágadzok""]","plágadzok","esp trial","10","false"
"html-button-response","116","899774","0.0-11.0-1.52","null","<p>A másik játékos ezt választotta: <b>plágadzok</b>.</p><p>&#10060;</p><p>A válaszaitok <b>nem</b> egyeznek meg.</p>","null","","","","feedback trial","",""
"html-button-response-esp","117","908174","0.0-11.0-0.53","3721","Te bizony sokat brarlasz. Én is sokat...","1","brarlom","[""brarlok"",""brarlom""]","brarlom","esp trial","10","true"
"html-button-response","118","911686","0.0-11.0-1.53","null","<p>A másik játékos ezt választotta: <b>brarlom</b>.</p><p>&#x2705;</p><p>A te válaszod és a másik játékos válasza <b>megegyeznek</b>.</p>","null","","","","feedback trial","",""
"html-button-response","119","923498","0.0-12.0","10905","<p>A közös játék most véget ért.</p><p>Mielőtt eláruljuk a végső pontszámodat, arra kérlek, játszd a szóválasztós játékot néhány percig egyedül is.</p><p>A feladatod ugyanaz lesz, választani két lehetőség közül.</p><p>Most viszont egyedül kell döntened, hogy te melyiket választanád.</p>","0","","","","","",""
"html-button-response-clever","120","939235","0.0-13.0-0.0","15233","Te bizony sokat pratánylasz. Én is sokat...","0","pratánylom","[""pratánylom"",""pratánylok""]","","posttest trial","1",""
"html-button-response-clever","121","944819","0.0-13.0-0.1","5073","Te bizony sokat ruslasz. Én is sokat...","1","ruslok","[""ruslom"",""ruslok""]","","posttest trial","1",""
"html-button-response-clever","122","950155","0.0-13.0-0.2","4826","Te bizony sokat drubódzol. Én is sokat...","0","drubódzom","[""drubódzom"",""drubódzok""]","","posttest trial","1",""
"html-button-response-clever","123","955851","0.0-13.0-0.3","5185","Te bizony sokat nyáslasz. Én is sokat...","1","nyáslok","[""nyáslom"",""nyáslok""]","","posttest trial","1",""
"html-button-response-clever","124","961147","0.0-13.0-0.4","4786","Te bizony sokat szirlasz. Én is sokat...","1","szirlok","[""szirlom"",""szirlok""]","","posttest trial","1",""
"html-button-response-clever","125","964803","0.0-13.0-0.5","3146","Te bizony sokat fretszel. Én is sokat...","0","fretszem","[""fretszem"",""fretszek""]","","posttest trial","1",""
"html-button-response-clever","126","970987","0.0-13.0-0.6","5674","Te bizony sokat spéslesz. Én is sokat...","0","spéslek","[""spéslek"",""spéslem""]","","posttest trial","1",""
"html-button-response-clever","127","977572","0.0-13.0-0.7","6079","Te bizony sokat tiregzel. Én is sokat...","0","tiregzem","[""tiregzem"",""tiregzek""]","","posttest trial","1",""
"html-button-response-clever","128","983747","0.0-13.0-0.8","5666","Te bizony sokat driládzol. Én is sokat...","1","driládzok","[""driládzom"",""driládzok""]","","posttest trial","1",""
"html-button-response-clever","129","994428","0.0-13.0-0.9","10175","Te bizony sokat klibamlasz. Én is sokat...","1","klibamlok","[""klibamlom"",""klibamlok""]","","posttest trial","1",""
"html-button-response-clever","130","1001988","0.0-13.0-0.10","7050","Te bizony sokat sprökszöl. Én is sokat...","0","sprökszök","[""sprökszök"",""sprökszöm""]","","posttest trial","1",""
"html-button-response-clever","131","1013220","0.0-13.0-0.11","10722","Te bizony sokat tínylasz. Én is sokat...","0","tínylok","[""tínylok"",""tínylom""]","","posttest trial","1",""
"html-button-response-clever","132","1019196","0.0-13.0-0.12","5469","Te bizony sokat spibaklasz. Én is sokat...","1","spibaklom","[""spibaklok"",""spibaklom""]","","posttest trial","1",""
"html-button-response-clever","133","1025084","0.0-13.0-0.13","5379","Te bizony sokat brágaklasz. Én is sokat...","0","brágaklom","[""brágaklom"",""brágaklok""]","","posttest trial","1",""
"html-button-response-clever","134","1030460","0.0-13.0-0.14","4866","Te bizony sokat ribegzel. Én is sokat...","0","ribegzek","[""ribegzek"",""ribegzem""]","","posttest trial","1",""
"html-button-response-clever","135","1036611","0.0-13.0-0.15","5642","Te bizony sokat spűmlesz. Én is sokat...","0","spűmlök","[""spűmlök"",""spűmlöm""]","","posttest trial","1",""
"html-button-response-clever","136","1040123","0.0-13.0-0.16","3002","Te bizony sokat sprogzol. Én is sokat...","1","sprogzok","[""sprogzom"",""sprogzok""]","","posttest trial","1",""
"html-button-response-clever","137","1045307","0.0-13.0-0.17","4679","Te bizony sokat sztremlesz. Én is sokat...","0","sztremlek","[""sztremlek"",""sztremlem""]","","posttest trial","1",""
"html-button-response-clever","138","1055499","0.0-13.0-0.18","9682","Te bizony sokat flagárzol. Én is sokat...","1","flagárzok","[""flagárzom"",""flagárzok""]","","posttest trial","1",""
"html-button-response-clever","139","1062219","0.0-13.0-0.19","6210","Te bizony sokat böjzöl. Én is sokat...","1","böjzök","[""böjzöm"",""böjzök""]","","posttest trial","1",""
"html-button-response-clever","140","1067948","0.0-13.0-0.20","5225","Te bizony sokat hilarzol. Én is sokat...","0","hilarzom","[""hilarzom"",""hilarzok""]","","posttest trial","1",""
"html-button-response-clever","141","1085291","0.0-13.0-0.21","16833","Te bizony sokat frilegszel. Én is sokat...","1","frilegszem","[""frilegszek"",""frilegszem""]","","posttest trial","1",""
"html-button-response-clever","142","1094188","0.0-13.0-0.22","8386","Te bizony sokat trilszol. Én is sokat...","0","trilszom","[""trilszom"",""trilszok""]","","posttest trial","1",""
"html-button-response-clever","143","1099732","0.0-13.0-0.23","5034","Te bizony sokat vilakszol. Én is sokat...","1","vilakszok","[""vilakszom"",""vilakszok""]","","posttest trial","1",""
"html-button-response-clever","144","1104428","0.0-13.0-0.24","4186","Te bizony sokat prűrlesz. Én is sokat...","1","prűrlök","[""prűrlöm"",""prűrlök""]","","posttest trial","1",""
"html-button-response-clever","145","1109028","0.0-13.0-0.25","4095","Te bizony sokat feténylesz. Én is sokat...","1","feténylek","[""feténylem"",""feténylek""]","","posttest trial","1",""
"html-button-response-clever","146","1114156","0.0-13.0-0.26","4619","Te bizony sokat siladzol. Én is sokat...","0","siladzok","[""siladzok"",""siladzom""]","","posttest trial","1",""
"html-button-response-clever","147","1119132","0.0-13.0-0.27","4466","Te bizony sokat spatárzol. Én is sokat...","1","spatárzok","[""spatárzom"",""spatárzok""]","","posttest trial","1",""
"html-button-response-clever","148","1126700","0.0-13.0-0.28","7063","Te bizony sokat herégszel. Én is sokat...","1","herégszek","[""herégszem"",""herégszek""]","","posttest trial","1",""
"html-button-response-clever","149","1130268","0.0-13.0-0.29","3058","Te bizony sokat sűzlesz. Én is sokat...","0","sűzlöm","[""sűzlöm"",""sűzlök""]","","posttest trial","1",""
"html-button-response-clever","150","1137756","0.0-13.0-0.30","6978","Te bizony sokat flűröklesz. Én is sokat...","0","flűröklök","[""flűröklök"",""flűröklöm""]","","posttest trial","1",""
"html-button-response-clever","151","1140516","0.0-13.0-0.31","2251","Te bizony sokat tomlasz. Én is sokat...","1","tomlok","[""tomlom"",""tomlok""]","","posttest trial","1",""
"html-button-response-clever","152","1144900","0.0-13.0-0.32","3875","Te bizony sokat flagánylasz. Én is sokat...","1","flagánylok","[""flagánylom"",""flagánylok""]","","posttest trial","1",""
"html-button-response-clever","153","1149796","0.0-13.0-0.33","4387","Te bizony sokat klörlesz. Én is sokat...","0","klörlöm","[""klörlöm"",""klörlök""]","","posttest trial","1",""
"html-button-response-clever","154","1159892","0.0-13.0-0.34","9586","Te bizony sokat femlesz. Én is sokat...","1","femlek","[""femlem"",""femlek""]","","posttest trial","1",""
"html-button-response-clever","155","1167108","0.0-13.0-0.35","6706","Te bizony sokat flüröslesz. Én is sokat...","0","flüröslök","[""flüröslök"",""flüröslöm""]","","posttest trial","1",""
"html-button-response-clever","156","1174084","0.0-13.0-0.36","6471","Te bizony sokat piragszol. Én is sokat...","0","piragszok","[""piragszok"",""piragszom""]","","posttest trial","1",""
"html-button-response-clever","157","1178252","0.0-13.0-0.37","3660","Te bizony sokat juszlasz. Én is sokat...","0","juszlok","[""juszlok"",""juszlom""]","","posttest trial","1",""
"html-button-response-clever","158","1182653","0.0-13.0-0.38","3891","Te bizony sokat fibamlasz. Én is sokat...","0","fibamlok","[""fibamlok"",""fibamlom""]","","posttest trial","1",""
"html-button-response-clever","159","1186204","0.0-13.0-0.39","3046","Te bizony sokat brüjlesz. Én is sokat...","1","brüjlök","[""brüjlöm"",""brüjlök""]","","posttest trial","1",""
"html-button-response-clever","160","1190268","0.0-13.0-0.40","3554","Te bizony sokat málapszol. Én is sokat...","1","málapszok","[""málapszom"",""málapszok""]","","posttest trial","1",""
"html-button-response-clever","161","1193780","0.0-13.0-0.41","3002","Te bizony sokat pebzel. Én is sokat...","1","pebzek","[""pebzem"",""pebzek""]","","posttest trial","1",""
"html-button-response-clever","162","1196412","0.0-13.0-0.42","2122","Te bizony sokat büglesz. Én is sokat...","0","büglöm","[""büglöm"",""büglök""]","","posttest trial","1",""
"html-button-response-clever","163","1203795","0.0-13.0-0.43","6874","Te bizony sokat bölszöl. Én is sokat...","0","bölszök","[""bölszök"",""bölszöm""]","","posttest trial","1",""
"html-button-response-clever","164","1207411","0.0-13.0-0.44","3107","Te bizony sokat jüslesz. Én is sokat...","1","jüslök","[""jüslöm"",""jüslök""]","","posttest trial","1",""
"html-button-response-clever","165","1218835","0.0-13.0-0.45","10915","Te bizony sokat lorjódzol. Én is sokat...","0","lorjódzok","[""lorjódzok"",""lorjódzom""]","","posttest trial","1",""
"html-button-response-clever","166","1222875","0.0-13.0-0.46","3530","Te bizony sokat prilegzel. Én is sokat...","1","prilegzek","[""prilegzem"",""prilegzek""]","","posttest trial","1",""
"html-button-response-clever","167","1231684","0.0-13.0-0.47","8298","Te bizony sokat ribzol. Én is sokat...","1","ribzok","[""ribzom"",""ribzok""]","","posttest trial","1",""
"html-button-response-clever","168","1237652","0.0-13.0-0.48","5458","Te bizony sokat marzol. Én is sokat...","1","marzom","[""marzok"",""marzom""]","","posttest trial","1",""
"html-button-response-clever","169","1241252","0.0-13.0-0.49","3090","Te bizony sokat sojzol. Én is sokat...","1","sojzok","[""sojzom"",""sojzok""]","","posttest trial","1",""
"html-button-response-clever","170","1245700","0.0-13.0-0.50","3944","Te bizony sokat narjárzol. Én is sokat...","1","narjárzok","[""narjárzom"",""narjárzok""]","","posttest trial","1",""
"html-button-response-clever","171","1249140","0.0-13.0-0.51","2931","Te bizony sokat spilágzol. Én is sokat...","0","spilágzom","[""spilágzom"",""spilágzok""]","","posttest trial","1",""
"html-button-response-clever","172","1254676","0.0-13.0-0.52","5026","Te bizony sokat csíszlasz. Én is sokat...","0","csíszlok","[""csíszlok"",""csíszlom""]","","posttest trial","1",""
"html-button-response-clever","173","1260716","0.0-13.0-0.53","5534","Te bizony sokat pivegszel. Én is sokat...","0","pivegszek","[""pivegszek"",""pivegszem""]","","posttest trial","1",""
"html-button-response","174","1271980","0.0-14.0","10754","<p> Vége a játéknak. A teljes pontszámod 29/54.</p><p> Szép munka! &#128526;&#128526;&#128526;</p><p>A Befejezés gomb megnyomása után bezárhatod a böngészőablakot.</p>","0","","","","","",""
