"trial_type","trial_index","time_elapsed","internal_node_id","rt","stimulus","response","response_string","choices","esp_response","trial_kind","list_number","esp_match"
"pavlovia","0","625","0.0-0.0","","","","","","","","",""
"html-button-response","1","48208","0.0-1.0","47077","<p>Kedves Résztvevő! A Budapesti Műszaki és Gazdaságtudományi Egyetem Kognitív Tudományi Tanszékének kutatásában való részvételed kérjük. A kutatásban azt vizsgáljuk, hogy a magyar anyanyelvűek hogyan használnak bizonyos szóalakokat, és hogy milyen képük van arról, hogy mások hogyan használják, hogyan képzik a szavakat. Ez hozzásegít bennünket ahhoz, hogy jobban megértsük, hogyan dolgozza fel és tárolja a nyelvet az emberi agy, és hogyan működnek, hogyan változnak egy adott közösség nyelvi konvenciói.</p><p>A vizsgálat egy rövid számítógépes feladatból fog állni. A kutatásban való részvétel önkéntes, a részvételi szándék bármikor visszavonható. A résztvevők eredményeit név nélkül kezeljük, így nem beazonosíthatók az adatok feldolgozása során. Minden személyes adatot az EU általános adatvédelmi rendeletének (GDPR) megfelelően kezelünk és legfeljebb öt éven belül megsemmisítünk. A vizsgálat jellemzően húsz percet vesz igénybe.</p><p>Kutatásvezető:</p><p>Dr. Rácz Péter, tudományos munkatárs, BME KTT</p><p>e-mail: racz.peter.marton@ttk.bme.hu</p>","0","","","","","",""
"html-button-response","2","111935","0.0-2.0","63216","<p>A kísérletben szavakat fogsz látni. Ezek között lesznek olyanok, amelyeket ismersz, de előfordulhatnak olyanok is, amelyeket nem ismersz, sőt, vannak köztük kitalált szavak is. Minden szónál látni fogsz toldalékolt alakokat. A te feladatod az lesz, hogy minden szóhoz kiválaszd azt a toldalékolt alakot, amely a te számodra ismerősebben, természetesebben hangzik. Rossz válaszok nincsenek, mert van olyan, hogy különböző embereknek más és más szó tűnik jobb választásnak. A választ úgy tudod majd kiválasztani, ha rákattintasz.</p><p>Ebben a szóválasztós játékban egy másik játékossal együtt veszel majd részt. A másik játékos is minden esetben azok közül a lehetőségek közül válogathat, mint te. Kettőtök feladata az, hogy ugyanazt a lehetőséget válasszátok minden esetben. Ahhoz, hogy ez sikerüljön, neked figyelned kell arra, hogy a másik játékos milyen válaszokat ad, és ennek alapján meg kell tippelned, hogyan választ legközelebb. Ha eltalálod, akkor pontot kapsz.</p>","0","","","","","",""
"html-button-response","3","202755","0.0-3.0","90314","<p>Kérjük, olvasd el az alábbi nyilatkozatot, és amennyiben egyetértesz vele, nyomj a Beleegyezés gombra!</p><p>Kijelentem, hogy magyar anyanyelvű személyként önként veszek részt a BME KTT kísérletében. A kutatás céljával és folyamatával kapcsolatban elegendő tájékoztatást kaptam, lehetőségem volt kérdések feltételére, és esetleges kérdéseimre megfelelő válaszokat kaptam. A tájékoztatás alapján elegendő mennyiségű információ áll a rendelkezésemre, hogy eldönthessem, részt kívánok-e venni a kutatásban.</p><p>Tisztában vagyok vele, hogy részvételi szándékomat és adataimat bármikor, indoklás nélkül visszavonhatom.</p><p>Értem és tudomásul veszem, hogy a kutatás tudományos célokat szolgál, és az általam szolgáltatott adatokat a BME kizárólag kutatási célból használja fel. Tudomásul veszem, hogy eredményeimet a többi résztvevő eredményeivel együtt kezelik, így egyéni teljesítményemről visszajelzést, szakvéleményt nem kapok.</p><p>Megértettem, hogy adataim kezelését illetően a BME az EU általános adatvédelmi rendelete (GDPR), a hatályos adatvédelmi törvény és a nemzetközi kutatás-etikai alapelvek szerint jár el. Eredményeim anonim módon kerülnek feldolgozásra, és a kutatás résztvevői az azonosításomra alkalmas adataimat harmadik félnek nem szolgáltatják ki. Engedélyezem a BME számára a jelen kutatásban felvett adataim feldolgozását és tárolását, beleértve azok későbbi kutatásokhoz való felhasználását is. Személyes adataim kezelésével kapcsolatban tájékoztatást kérhetek a kutatás résztvevőitől, az adatkezelés ellen tiltakozhatok, kérhetem személyes adataim helyesbítését, törlését vagy zárolását, valamint jogorvoslatért a Nemzeti Adatvédelmi és Információszabadság Hatósághoz fordulhatok.</p><p>Kijelentem, hogy a kutatásban való részvételem körülményeiről részletes tájékoztatást kaptam, és a feltételeket elfogadom.</p>","0","","","","","",""
"survey-text","4","233201","0.0-4.0","29938","","{""Q0"":""UDEF1P"",""Q1"":""férfi"",""Q2"":""2001"",""Q3"":""14""}","","","","","",""
"html-button-response","5","346779","0.0-5.0","113062","<p>Ebben a játékban szavakat kell toldalékolni.</p> <p>Minden körben mutatunk majd egy példamondatot, amiben lesz egy szó.</p> <p>Alatta jön egy második mondat, ezt a mondatot neked kell majd befejezni, ugyanezzel a szóval.</p> <p>Nem biztos, hogy a szó eleve ismerős lesz számodra!</p> <p>Minden mondathoz adunk két lehetőséget, ezeket balra és jobbra látod majd.</p> <p>A játék kb. negyedóráig-húsz percig tart.</p>","0","","","","","",""
"html-button-response","6","399000","0.0-6.0","51713","<p>Nézzünk egy példát!</p> <p>A példamondat: ""János imád fláramolni, ezért sokat fláramlik. Mi ritkán...""</p><p>Neked ezt a mondatot kell befejezned: ""Ti ritkán...""</p><p>A lehetőségek pedig ezek:</p>","1","","","","","",""
"html-button-response","7","406527","0.0-7.0","7014","<p>Nagyon jó.</p><p>Ezt a játékot nem egyedül fogod játszani, hanem egy másik játékossal.</p><p>Mielőtt továbblépünk, összekapcsolunk titeket egymással.</p><p>Ez igénybe vehet néhány másodpercet, amihez szíves türelmed kérjük.</p>","0","","","","","",""
"html-button-response","8","412283","0.0-8.0","null","<p>Csatlakozás a másik játékoshoz...</p>","null","","","","","",""
"html-button-response","9","414799","0.0-9.0","null","<p> Sikeres kapcsolódás!</p>","null","","","","","",""
"html-button-response","10","425322","0.0-10.0","null","<p>A következőkben ketten játsszátok a szóválasztós játékot.</p><p>A feladatotok az lesz, hogy minden körben <b>ugyanazt</b> a szót válasszátok.</p><p>Minden ilyen egyező válaszért pontot kaptok.</p><p>Próbáld meg kitalálni, mit választ a másik játékos!</p><p>Bármikor választhatsz, a körnek akkor van vége, ha mindketten döntöttetek.</p><p>Sok sikert!</p>","null","","","","","",""
"html-button-response-esp","11","438135","0.0-11.0-0.0","12300","János imád játozni, ezért sokat játlik. Mi ritkán...","1","játlunk","[""játozunk"",""játlunk""]","játozunk","esp trial","0","false"
"html-button-response","12","441663","0.0-11.0-1.0","null","<p>A másik játékos ezt választotta: <b>játozunk</b>.</p><p>&#10060;</p><p>A válaszaitok <b>nem</b> egyeznek meg.</p>","null","","","","feedback trial","",""
"html-button-response-esp","13","452461","0.0-11.0-0.1","10280","János imád klégezni, ezért sokat kléglik. Mi ritkán...","0","klégezünk","[""klégezünk"",""kléglünk""]","klégezünk","esp trial","0","true"
"html-button-response","14","455994","0.0-11.0-1.1","null","<p>A másik játékos ezt választotta: <b>klégezünk</b>.</p><p>&#x2705;</p><p>A te válaszod és a másik játékos válasza <b>megegyeznek</b>.</p>","null","","","","feedback trial","",""
"html-button-response-esp","15","465317","0.0-11.0-0.2","8814","János imád flodozni, ezért sokat flodlik. Ti ritkán...","1","flodoztok","[""flodlotok"",""flodoztok""]","flodlotok","esp trial","0","false"
"html-button-response","16","468849","0.0-11.0-1.2","null","<p>A másik játékos ezt választotta: <b>flodlotok</b>.</p><p>&#10060;</p><p>A válaszaitok <b>nem</b> egyeznek meg.</p>","null","","","","feedback trial","",""
"html-button-response-esp","17","493267","0.0-11.0-0.3","23905","János imád trálodni, ezért sokat trálszik. Mi ritkán...","0","trálodunk","[""trálodunk"",""trálszunk""]","trálodunk","esp trial","0","true"
"html-button-response","18","496779","0.0-11.0-1.3","null","<p>A másik játékos ezt választotta: <b>trálodunk</b>.</p><p>&#x2705;</p><p>A te válaszod és a másik játékos válasza <b>megegyeznek</b>.</p>","null","","","","feedback trial","",""
"html-button-response-esp","19","514818","0.0-11.0-0.4","17526","János imád ribegedni, ezért sokat ribegszik. Ti ritkán...","0","ribegedtek","[""ribegedtek"",""ribegszetek""]","ribegszetek","esp trial","0","false"
"html-button-response","20","518343","0.0-11.0-1.4","null","<p>A másik játékos ezt választotta: <b>ribegszetek</b>.</p><p>&#10060;</p><p>A válaszaitok <b>nem</b> egyeznek meg.</p>","null","","","","feedback trial","",""
"html-button-response-esp","21","533473","0.0-11.0-0.5","14617","János imád trálakozni, ezért sokat trálaklik. Ők ritkán...","0","trálakoznak","[""trálakoznak"",""trálaklanak""]","trálaklanak","esp trial","0","false"
"html-button-response","22","536988","0.0-11.0-1.5","null","<p>A másik játékos ezt választotta: <b>trálaklanak</b>.</p><p>&#10060;</p><p>A válaszaitok <b>nem</b> egyeznek meg.</p>","null","","","","feedback trial","",""
"html-button-response-esp","23","559288","0.0-11.0-0.6","21784","János imád jurozni, ezért sokat jurlik. Mi ritkán...","1","jurlunk","[""jurozunk"",""jurlunk""]","jurlunk","esp trial","0","true"
"html-button-response","24","562823","0.0-11.0-1.6","null","<p>A másik játékos ezt választotta: <b>jurlunk</b>.</p><p>&#x2705;</p><p>A te válaszod és a másik játékos válasza <b>megegyeznek</b>.</p>","null","","","","feedback trial","",""
"html-button-response-esp","25","574456","0.0-11.0-0.7","11120","János imád kláragodni, ezért sokat kláragszik. Ti ritkán...","0","kláragodtok","[""kláragodtok"",""kláragszotok""]","kláragszotok","esp trial","0","false"
"html-button-response","26","577992","0.0-11.0-1.7","null","<p>A másik játékos ezt választotta: <b>kláragszotok</b>.</p><p>&#10060;</p><p>A válaszaitok <b>nem</b> egyeznek meg.</p>","null","","","","feedback trial","",""
"html-button-response-esp","27","586495","0.0-11.0-0.8","7987","János imád bügözni, ezért sokat bügzik. Ők ritkán...","0","bügzenek","[""bügzenek"",""bügöznek""]","bügöznek","esp trial","0","false"
"html-button-response","28","590022","0.0-11.0-1.8","null","<p>A másik játékos ezt választotta: <b>bügöznek</b>.</p><p>&#10060;</p><p>A válaszaitok <b>nem</b> egyeznek meg.</p>","null","","","","feedback trial","",""
"html-button-response-esp","29","609799","0.0-11.0-0.9","19263","János imád vehékedni, ezért sokat vehékszik. Mi ritkán...","0","vehékszünk","[""vehékszünk"",""vehékedünk""]","vehékedünk","esp trial","0","false"
"html-button-response","30","613318","0.0-11.0-1.9","null","<p>A másik játékos ezt választotta: <b>vehékedünk</b>.</p><p>&#10060;</p><p>A válaszaitok <b>nem</b> egyeznek meg.</p>","null","","","","feedback trial","",""
"html-button-response-esp","31","648564","0.0-11.0-0.10","34732","János imád pibegezni, ezért sokat pibegzik. Ők ritkán...","1","pibegzenek","[""pibegeznek"",""pibegzenek""]","pibegzenek","esp trial","0","true"
"html-button-response","32","652101","0.0-11.0-1.10","null","<p>A másik játékos ezt választotta: <b>pibegzenek</b>.</p><p>&#x2705;</p><p>A te válaszod és a másik játékos válasza <b>megegyeznek</b>.</p>","null","","","","feedback trial","",""
"html-button-response-esp","33","662443","0.0-11.0-0.11","9823","János imád dibágozni, ezért sokat dibáglik. Ti ritkán...","0","dibágoztok","[""dibágoztok"",""dibáglotok""]","dibáglotok","esp trial","0","false"
"html-button-response","34","665962","0.0-11.0-1.11","null","<p>A másik játékos ezt választotta: <b>dibáglotok</b>.</p><p>&#10060;</p><p>A válaszaitok <b>nem</b> egyeznek meg.</p>","null","","","","feedback trial","",""
"html-button-response-esp","35","679683","0.0-11.0-0.12","13205","János imád gihamozni, ezért sokat gihamlik. Ők ritkán...","1","gihamlanak","[""gihamoznak"",""gihamlanak""]","gihamlanak","esp trial","0","true"
"html-button-response","36","683211","0.0-11.0-1.12","null","<p>A másik játékos ezt választotta: <b>gihamlanak</b>.</p><p>&#x2705;</p><p>A te válaszod és a másik játékos válasza <b>megegyeznek</b>.</p>","null","","","","feedback trial","",""
"html-button-response-esp","37","687855","0.0-11.0-0.13","3685","János imád tögözni, ezért sokat töglik. Ők ritkán...","1","töglenek","[""tögöznek"",""töglenek""]","tögöznek","esp trial","0","false"
"html-button-response","38","691378","0.0-11.0-1.13","null","<p>A másik játékos ezt választotta: <b>tögöznek</b>.</p><p>&#10060;</p><p>A válaszaitok <b>nem</b> egyeznek meg.</p>","null","","","","feedback trial","",""
"html-button-response-esp","39","702921","0.0-11.0-0.14","11031","János imád frorozni, ezért sokat frorlik. Ők ritkán...","0","froroznak","[""froroznak"",""frorlanak""]","froroznak","esp trial","0","true"
"html-button-response","40","706453","0.0-11.0-1.14","null","<p>A másik játékos ezt választotta: <b>froroznak</b>.</p><p>&#x2705;</p><p>A te válaszod és a másik játékos válasza <b>megegyeznek</b>.</p>","null","","","","feedback trial","",""
"html-button-response-esp","41","761871","0.0-11.0-0.15","54907","János imád frirozni, ezért sokat frirzik. Mi ritkán...","0","frirzunk","[""frirzunk"",""frirozunk""]","frirzunk","esp trial","0","true"
"html-button-response","42","765408","0.0-11.0-1.15","null","<p>A másik játékos ezt választotta: <b>frirzunk</b>.</p><p>&#x2705;</p><p>A te válaszod és a másik játékos válasza <b>megegyeznek</b>.</p>","null","","","","feedback trial","",""
"html-button-response-esp","43","770758","0.0-11.0-0.16","4836","János imád vihapodni, ezért sokat vihapszik. Mi ritkán...","0","vihapodunk","[""vihapodunk"",""vihapszunk""]","vihapodunk","esp trial","0","true"
"html-button-response","44","774285","0.0-11.0-1.16","null","<p>A másik játékos ezt választotta: <b>vihapodunk</b>.</p><p>&#x2705;</p><p>A te válaszod és a másik játékos válasza <b>megegyeznek</b>.</p>","null","","","","feedback trial","",""
"html-button-response-esp","45","789677","0.0-11.0-0.17","14882","János imád spivejezni, ezért sokat spivejlik. Ők ritkán...","0","spivejlenek","[""spivejlenek"",""spivejeznek""]","spivejlenek","esp trial","0","true"
"html-button-response","46","793213","0.0-11.0-1.17","null","<p>A másik játékos ezt választotta: <b>spivejlenek</b>.</p><p>&#x2705;</p><p>A te válaszod és a másik játékos válasza <b>megegyeznek</b>.</p>","null","","","","feedback trial","",""
"html-button-response-esp","47","909512","0.0-11.0-0.18","115776","János imád bejezni, ezért sokat bejzik. Mi ritkán...","0","bejezünk","[""bejezünk"",""bejzünk""]","bejzünk","esp trial","0","false"
"html-button-response","48","913030","0.0-11.0-1.18","null","<p>A másik játékos ezt választotta: <b>bejzünk</b>.</p><p>&#10060;</p><p>A válaszaitok <b>nem</b> egyeznek meg.</p>","null","","","","feedback trial","",""
"html-button-response-esp","49","934031","0.0-11.0-0.19","20484","János imád bresezni, ezért sokat breslik. Ők ritkán...","1","breseznek","[""breslenek"",""breseznek""]","breslenek","esp trial","0","false"
"html-button-response","50","937551","0.0-11.0-1.19","null","<p>A másik játékos ezt választotta: <b>breslenek</b>.</p><p>&#10060;</p><p>A válaszaitok <b>nem</b> egyeznek meg.</p>","null","","","","feedback trial","",""
"html-button-response-esp","51","963854","0.0-11.0-0.20","25788","János imád trilekedni, ezért sokat trilekszik. Ti ritkán...","1","trilekszetek","[""trilekedtek"",""trilekszetek""]","trilekszetek","esp trial","0","true"
"html-button-response","52","967369","0.0-11.0-1.20","null","<p>A másik játékos ezt választotta: <b>trilekszetek</b>.</p><p>&#x2705;</p><p>A te válaszod és a másik játékos válasza <b>megegyeznek</b>.</p>","null","","","","feedback trial","",""
"html-button-response-esp","53","978453","0.0-11.0-0.21","10571","János imád prugorozni, ezért sokat prugorzik. Ti ritkán...","0","prugorzotok","[""prugorzotok"",""prugoroztok""]","prugorzotok","esp trial","0","true"
"html-button-response","54","981984","0.0-11.0-1.21","null","<p>A másik játékos ezt választotta: <b>prugorzotok</b>.</p><p>&#x2705;</p><p>A te válaszod és a másik játékos válasza <b>megegyeznek</b>.</p>","null","","","","feedback trial","",""
"html-button-response-esp","55","990996","0.0-11.0-0.22","8497","János imád brürözni, ezért sokat brürzik. Ők ritkán...","1","brüröznek","[""brürzenek"",""brüröznek""]","brürzenek","esp trial","0","false"
"html-button-response","56","994535","0.0-11.0-1.22","null","<p>A másik játékos ezt választotta: <b>brürzenek</b>.</p><p>&#10060;</p><p>A válaszaitok <b>nem</b> egyeznek meg.</p>","null","","","","feedback trial","",""
"html-button-response-esp","57","1015300","0.0-11.0-0.23","20252","János imád nurokozni, ezért sokat nuroklik. Mi ritkán...","1","nuroklunk","[""nurokozunk"",""nuroklunk""]","nurokozunk","esp trial","0","false"
"html-button-response","58","1018822","0.0-11.0-1.23","null","<p>A másik játékos ezt választotta: <b>nurokozunk</b>.</p><p>&#10060;</p><p>A válaszaitok <b>nem</b> egyeznek meg.</p>","null","","","","feedback trial","",""
"html-button-response-esp","59","1039441","0.0-11.0-0.24","20109","János imád nyádozni, ezért sokat nyádlik. Ők ritkán...","1","nyádlanak","[""nyádoznak"",""nyádlanak""]","nyádoznak","esp trial","0","false"
"html-button-response","60","1042958","0.0-11.0-1.24","null","<p>A másik játékos ezt választotta: <b>nyádoznak</b>.</p><p>&#10060;</p><p>A válaszaitok <b>nem</b> egyeznek meg.</p>","null","","","","feedback trial","",""
"html-button-response-esp","61","1063473","0.0-11.0-0.25","19998","János imád flerékedni, ezért sokat flerékszik. Mi ritkán...","0","flerékszünk","[""flerékszünk"",""flerékedünk""]","flerékszünk","esp trial","0","true"
"html-button-response","62","1066994","0.0-11.0-1.25","null","<p>A másik játékos ezt választotta: <b>flerékszünk</b>.</p><p>&#x2705;</p><p>A te válaszod és a másik játékos válasza <b>megegyeznek</b>.</p>","null","","","","feedback trial","",""
"html-button-response-esp","63","1090966","0.0-11.0-0.26","23456","János imád klűmözni, ezért sokat klűmlik. Ti ritkán...","1","klűmöztök","[""klűmlötök"",""klűmöztök""]","klűmlötök","esp trial","0","false"
"html-button-response","64","1094497","0.0-11.0-1.26","null","<p>A másik játékos ezt választotta: <b>klűmlötök</b>.</p><p>&#10060;</p><p>A válaszaitok <b>nem</b> egyeznek meg.</p>","null","","","","feedback trial","",""
"html-button-response-esp","65","1143556","0.0-11.0-0.27","48553","János imád metégedni, ezért sokat metégszik. Ők ritkán...","1","metégednek","[""metégszenek"",""metégednek""]","metégszenek","esp trial","0","false"
"html-button-response","66","1147088","0.0-11.0-1.27","null","<p>A másik játékos ezt választotta: <b>metégszenek</b>.</p><p>&#10060;</p><p>A válaszaitok <b>nem</b> egyeznek meg.</p>","null","","","","feedback trial","",""
"html-button-response-esp","67","1182363","0.0-11.0-0.28","34763","János imád frinyozni, ezért sokat frinylik. Mi ritkán...","1","frinylunk","[""frinyozunk"",""frinylunk""]","frinylunk","esp trial","0","true"
"html-button-response","68","1185884","0.0-11.0-1.28","null","<p>A másik játékos ezt választotta: <b>frinylunk</b>.</p><p>&#x2705;</p><p>A te válaszod és a másik játékos válasza <b>megegyeznek</b>.</p>","null","","","","feedback trial","",""
"html-button-response-esp","69","1196898","0.0-11.0-0.29","10505","János imád frélegezni, ezért sokat frélegzik. Mi ritkán...","0","frélegzünk","[""frélegzünk"",""frélegezünk""]","frélegezünk","esp trial","0","false"
"html-button-response","70","1200424","0.0-11.0-1.29","null","<p>A másik játékos ezt választotta: <b>frélegezünk</b>.</p><p>&#10060;</p><p>A válaszaitok <b>nem</b> egyeznek meg.</p>","null","","","","feedback trial","",""
"html-button-response-esp","71","1208001","0.0-11.0-0.30","7062","János imád bribasozni, ezért sokat bribaslik. Ők ritkán...","0","bribaslanak","[""bribaslanak"",""bribasoznak""]","bribaslanak","esp trial","0","true"
"html-button-response","72","1211521","0.0-11.0-1.30","null","<p>A másik játékos ezt választotta: <b>bribaslanak</b>.</p><p>&#x2705;</p><p>A te válaszod és a másik játékos válasza <b>megegyeznek</b>.</p>","null","","","","feedback trial","",""
"html-button-response-esp","73","1239080","0.0-11.0-0.31","27047","János imád flugonyozni, ezért sokat flugonylik. Ők ritkán...","0","flugonyoznak","[""flugonyoznak"",""flugonylanak""]","flugonylanak","esp trial","0","false"
"html-button-response","74","1242610","0.0-11.0-1.31","null","<p>A másik játékos ezt választotta: <b>flugonylanak</b>.</p><p>&#10060;</p><p>A válaszaitok <b>nem</b> egyeznek meg.</p>","null","","","","feedback trial","",""
"html-button-response-esp","75","1290726","0.0-11.0-0.32","47599","János imád flátozni, ezért sokat flátlik. Ti ritkán...","1","flátoztok","[""flátlotok"",""flátoztok""]","flátlotok","esp trial","0","false"
"html-button-response","76","1294259","0.0-11.0-1.32","null","<p>A másik játékos ezt választotta: <b>flátlotok</b>.</p><p>&#10060;</p><p>A válaszaitok <b>nem</b> egyeznek meg.</p>","null","","","","feedback trial","",""
"html-button-response-esp","77","1395365","0.0-11.0-0.33","100594","János imád plibozni, ezért sokat plibzik. Ti ritkán...","0","pliboztok","[""pliboztok"",""plibzotok""]","plibzotok","esp trial","0","false"
"html-button-response","78","1398888","0.0-11.0-1.33","null","<p>A másik játékos ezt választotta: <b>plibzotok</b>.</p><p>&#10060;</p><p>A válaszaitok <b>nem</b> egyeznek meg.</p>","null","","","","feedback trial","",""
"html-button-response-esp","79","1406216","0.0-11.0-0.34","6824","János imád hiragozni, ezért sokat hiragzik. Ők ritkán...","1","hiragzanak","[""hiragoznak"",""hiragzanak""]","hiragzanak","esp trial","0","true"
"html-button-response","80","1409721","0.0-11.0-1.34","null","<p>A másik játékos ezt választotta: <b>hiragzanak</b>.</p><p>&#x2705;</p><p>A te válaszod és a másik játékos válasza <b>megegyeznek</b>.</p>","null","","","","feedback trial","",""
"html-button-response-esp","81","1414812","0.0-11.0-0.35","4583","János imád sprebezni, ezért sokat sprebzik. Ők ritkán...","0","sprebeznek","[""sprebeznek"",""sprebzenek""]","sprebzenek","esp trial","0","false"
"html-button-response","82","1418347","0.0-11.0-1.35","null","<p>A másik játékos ezt választotta: <b>sprebzenek</b>.</p><p>&#10060;</p><p>A válaszaitok <b>nem</b> egyeznek meg.</p>","null","","","","feedback trial","",""
"html-button-response-esp","83","1484081","0.0-11.0-0.36","65229","János imád géregezni, ezért sokat géreglik. Ti ritkán...","1","géregeztek","[""géregletek"",""géregeztek""]","géregletek","esp trial","0","false"
"html-button-response","84","1487594","0.0-11.0-1.36","null","<p>A másik játékos ezt választotta: <b>géregletek</b>.</p><p>&#10060;</p><p>A válaszaitok <b>nem</b> egyeznek meg.</p>","null","","","","feedback trial","",""
"html-button-response-esp","85","1492236","0.0-11.0-0.37","1790","János imád nyizozni, ezért sokat nyizlik. Mi ritkán...","1","nyizlunk","[""nyizozunk"",""nyizlunk""]","nyizozunk","esp trial","0","false"
"html-button-response","86","1495768","0.0-11.0-1.37","null","<p>A másik játékos ezt választotta: <b>nyizozunk</b>.</p><p>&#10060;</p><p>A válaszaitok <b>nem</b> egyeznek meg.</p>","null","","","","feedback trial","",""
"html-button-response-esp","87","1503303","0.0-11.0-0.38","7023","János imád döjözni, ezért sokat döjlik. Ők ritkán...","0","döjöznek","[""döjöznek"",""döjlenek""]","döjöznek","esp trial","0","true"
"html-button-response","88","1506831","0.0-11.0-1.38","null","<p>A másik játékos ezt választotta: <b>döjöznek</b>.</p><p>&#x2705;</p><p>A te válaszod és a másik játékos válasza <b>megegyeznek</b>.</p>","null","","","","feedback trial","",""
"html-button-response-esp","89","1513213","0.0-11.0-0.39","5870","János imád klihasozni, ezért sokat klihaslik. Ti ritkán...","0","klihasoztok","[""klihasoztok"",""klihaslotok""]","klihaslotok","esp trial","0","false"
"html-button-response","90","1516743","0.0-11.0-1.39","null","<p>A másik játékos ezt választotta: <b>klihaslotok</b>.</p><p>&#10060;</p><p>A válaszaitok <b>nem</b> egyeznek meg.</p>","null","","","","feedback trial","",""
"html-button-response-esp","91","1523833","0.0-11.0-0.40","6581","János imád nivározni, ezért sokat nivárzik. Ti ritkán...","0","nivároztok","[""nivároztok"",""nivárzotok""]","nivárzotok","esp trial","0","false"
"html-button-response","92","1527367","0.0-11.0-1.40","null","<p>A másik játékos ezt választotta: <b>nivárzotok</b>.</p><p>&#10060;</p><p>A válaszaitok <b>nem</b> egyeznek meg.</p>","null","","","","feedback trial","",""
"html-button-response-esp","93","1532904","0.0-11.0-0.41","5022","János imád vilesezni, ezért sokat vileslik. Mi ritkán...","0","vileslünk","[""vileslünk"",""vilesezünk""]","vileslünk","esp trial","0","true"
"html-button-response","94","1536432","0.0-11.0-1.41","null","<p>A másik játékos ezt választotta: <b>vileslünk</b>.</p><p>&#x2705;</p><p>A te válaszod és a másik játékos válasza <b>megegyeznek</b>.</p>","null","","","","feedback trial","",""
"html-button-response-esp","95","1608182","0.0-11.0-0.42","71239","János imád nyülöközni, ezért sokat nyülöklik. Ők ritkán...","0","nyülöklenek","[""nyülöklenek"",""nyülököznek""]","nyülöklenek","esp trial","0","true"
"html-button-response","96","1611700","0.0-11.0-1.42","null","<p>A másik játékos ezt választotta: <b>nyülöklenek</b>.</p><p>&#x2705;</p><p>A te válaszod és a másik játékos válasza <b>megegyeznek</b>.</p>","null","","","","feedback trial","",""
"html-button-response-esp","97","1629302","0.0-11.0-0.43","17088","János imád prihegedni, ezért sokat prihegszik. Ők ritkán...","0","prihegszenek","[""prihegszenek"",""prihegednek""]","prihegszenek","esp trial","0","true"
"html-button-response","98","1632808","0.0-11.0-1.43","null","<p>A másik játékos ezt választotta: <b>prihegszenek</b>.</p><p>&#x2705;</p><p>A te válaszod és a másik játékos válasza <b>megegyeznek</b>.</p>","null","","","","feedback trial","",""
"html-button-response-esp","99","1646700","0.0-11.0-0.44","13374","János imád sztredezni, ezért sokat sztredlik. Ti ritkán...","1","sztredeztek","[""sztredletek"",""sztredeztek""]","sztredletek","esp trial","0","false"
"html-button-response","100","1650230","0.0-11.0-1.44","null","<p>A másik játékos ezt választotta: <b>sztredletek</b>.</p><p>&#10060;</p><p>A válaszaitok <b>nem</b> egyeznek meg.</p>","null","","","","feedback trial","",""
"html-button-response-esp","101","1654857","0.0-11.0-0.45","2485","János imád brűközni, ezért sokat brűklik. Ti ritkán...","1","brűklötök","[""brűköztök"",""brűklötök""]","brűklötök","esp trial","0","true"
"html-button-response","102","1658369","0.0-11.0-1.45","null","<p>A másik játékos ezt választotta: <b>brűklötök</b>.</p><p>&#x2705;</p><p>A te válaszod és a másik játékos válasza <b>megegyeznek</b>.</p>","null","","","","feedback trial","",""
"html-button-response-esp","103","1668807","0.0-11.0-0.46","9929","János imád bribékedni, ezért sokat bribékszik. Ti ritkán...","1","bribékszetek","[""bribékedtek"",""bribékszetek""]","bribékszetek","esp trial","0","true"
"html-button-response","104","1672329","0.0-11.0-1.46","null","<p>A másik játékos ezt választotta: <b>bribékszetek</b>.</p><p>&#x2705;</p><p>A te válaszod és a másik játékos válasza <b>megegyeznek</b>.</p>","null","","","","feedback trial","",""
"html-button-response-esp","105","1693906","0.0-11.0-0.47","21064","János imád spuborozni, ezért sokat spuborzik. Ők ritkán...","0","spuborzanak","[""spuborzanak"",""spuboroznak""]","spuborzanak","esp trial","0","true"
"html-button-response","106","1697429","0.0-11.0-1.47","null","<p>A másik játékos ezt választotta: <b>spuborzanak</b>.</p><p>&#x2705;</p><p>A te válaszod és a másik játékos válasza <b>megegyeznek</b>.</p>","null","","","","feedback trial","",""
"html-button-response-esp","107","1710313","0.0-11.0-0.48","12370","János imád bötőrözni, ezért sokat bötőrzik. Mi ritkán...","1","bötőrzünk","[""bötőrözünk"",""bötőrzünk""]","bötőrzünk","esp trial","0","true"
"html-button-response","108","1713825","0.0-11.0-1.48","null","<p>A másik játékos ezt választotta: <b>bötőrzünk</b>.</p><p>&#x2705;</p><p>A te válaszod és a másik játékos válasza <b>megegyeznek</b>.</p>","null","","","","feedback trial","",""
"html-button-response-esp","109","1726937","0.0-11.0-0.49","12607","János imád hubonyozni, ezért sokat hubonylik. Ti ritkán...","0","hubonyoztok","[""hubonyoztok"",""hubonylotok""]","hubonylotok","esp trial","0","false"
"html-button-response","110","1730463","0.0-11.0-1.49","null","<p>A másik játékos ezt választotta: <b>hubonylotok</b>.</p><p>&#10060;</p><p>A válaszaitok <b>nem</b> egyeznek meg.</p>","null","","","","feedback trial","",""
"html-button-response-esp","111","1735101","0.0-11.0-0.50","2493","János imád sűjözni, ezért sokat sűjlik. Mi ritkán...","1","sűjlünk","[""sűjözünk"",""sűjlünk""]","sűjözünk","esp trial","0","false"
"html-button-response","112","1738617","0.0-11.0-1.50","null","<p>A másik játékos ezt választotta: <b>sűjözünk</b>.</p><p>&#10060;</p><p>A válaszaitok <b>nem</b> egyeznek meg.</p>","null","","","","feedback trial","",""
"html-button-response-esp","113","1748075","0.0-11.0-0.51","8943","János imád nyöbözni, ezért sokat nyöbzik. Ők ritkán...","1","nyöbzenek","[""nyöböznek"",""nyöbzenek""]","nyöbzenek","esp trial","0","true"
"html-button-response","114","1751592","0.0-11.0-1.51","null","<p>A másik játékos ezt választotta: <b>nyöbzenek</b>.</p><p>&#x2705;</p><p>A te válaszod és a másik játékos válasza <b>megegyeznek</b>.</p>","null","","","","feedback trial","",""
"html-button-response-esp","115","1762332","0.0-11.0-0.52","10231","János imád trukodni, ezért sokat trukszik. Ti ritkán...","1","trukszotok","[""trukodtok"",""trukszotok""]","trukszotok","esp trial","0","true"
"html-button-response","116","1765871","0.0-11.0-1.52","null","<p>A másik játékos ezt választotta: <b>trukszotok</b>.</p><p>&#x2705;</p><p>A te válaszod és a másik játékos válasza <b>megegyeznek</b>.</p>","null","","","","feedback trial","",""
"html-button-response-esp","117","1791506","0.0-11.0-0.53","25123","János imád dralágozni, ezért sokat dralágzik. Mi ritkán...","0","dralágzunk","[""dralágzunk"",""dralágozunk""]","dralágozunk","esp trial","0","false"
"html-button-response","118","1795029","0.0-11.0-1.53","null","<p>A másik játékos ezt választotta: <b>dralágozunk</b>.</p><p>&#10060;</p><p>A válaszaitok <b>nem</b> egyeznek meg.</p>","null","","","","feedback trial","",""
"html-button-response","119","1815138","0.0-12.0","19599","<p>A közös játék most véget ért.</p><p>Mielőtt eláruljuk a végső pontszámodat, arra kérlek, játszd a szóválasztós játékot néhány percig egyedül is.</p><p>A feladatod ugyanaz lesz, választani két lehetőség közül.</p><p>Most viszont egyedül kell döntened, hogy te melyiket választanád.</p>","0","","","","","",""
"html-button-response-clever","120","1833687","0.0-13.0-0.0","18044","János imád klehényezni, ezért sokat klehénylik. Ti ritkán...","1","klehényletek","[""klehényeztek"",""klehényletek""]","","posttest trial","4",""
"html-button-response-clever","121","1840574","0.0-13.0-0.1","6375","János imád prögözni, ezért sokat prögzik. Ti ritkán...","1","prögöztök","[""prögzötök"",""prögöztök""]","","posttest trial","4",""
"html-button-response-clever","122","1847663","0.0-13.0-0.2","6567","János imád dilakozni, ezért sokat dilaklik. Ti ritkán...","0","dilakoztok","[""dilakoztok"",""dilaklotok""]","","posttest trial","4",""
"html-button-response-clever","123","1857022","0.0-13.0-0.3","8842","János imád trikozni, ezért sokat triklik. Ti ritkán...","1","triklotok","[""trikoztok"",""triklotok""]","","posttest trial","4",""
"html-button-response-clever","124","1873333","0.0-13.0-0.4","15798","János imád flemezni, ezért sokat flemlik. Mi ritkán...","0","flemlünk","[""flemlünk"",""flemezünk""]","","posttest trial","4",""
"html-button-response-clever","125","1880242","0.0-13.0-0.5","6392","János imád pilégedni, ezért sokat pilégszik. Ők ritkán...","1","pilégszenek","[""pilégednek"",""pilégszenek""]","","posttest trial","4",""
"html-button-response-clever","126","1898814","0.0-13.0-0.6","18058","János imád posozni, ezért sokat poslik. Ti ritkán...","1","poslotok","[""posoztok"",""poslotok""]","","posttest trial","4",""
"html-button-response-clever","127","1901534","0.0-13.0-0.7","2205","János imád fröjözni, ezért sokat fröjzik. Ti ritkán...","1","fröjzötök","[""fröjöztök"",""fröjzötök""]","","posttest trial","4",""
"html-button-response-clever","128","1919385","0.0-13.0-0.8","17340","János imád frakozni, ezért sokat fraklik. Mi ritkán...","0","frakozunk","[""frakozunk"",""fraklunk""]","","posttest trial","4",""
"html-button-response-clever","129","1951419","0.0-13.0-0.9","31515","János imád trivakodni, ezért sokat trivakszik. Mi ritkán...","1","trivakszunk","[""trivakodunk"",""trivakszunk""]","","posttest trial","4",""
"html-button-response-clever","130","1954497","0.0-13.0-0.10","2573","János imád püzözni, ezért sokat püzlik. Ti ritkán...","1","püzlötök","[""püzöztök"",""püzlötök""]","","posttest trial","4",""
"html-button-response-clever","131","1991745","0.0-13.0-0.11","36743","János imád virozni, ezért sokat virzik. Ők ritkán...","0","virzanak","[""virzanak"",""viroznak""]","","posttest trial","4",""
"html-button-response-clever","132","1996244","0.0-13.0-0.12","3995","János imád dujozni, ezért sokat dujzik. Ők ritkán...","0","dujzanak","[""dujzanak"",""dujoznak""]","","posttest trial","4",""
"html-button-response-clever","133","1999815","0.0-13.0-0.13","3057","János imád föködni, ezért sokat fökszik. Ők ritkán...","0","fökszenek","[""fökszenek"",""föködnek""]","","posttest trial","4",""
"html-button-response-clever","134","2008219","0.0-13.0-0.14","7889","János imád brivakozni, ezért sokat brivaklik. Ti ritkán...","1","brivakoztok","[""brivaklotok"",""brivakoztok""]","","posttest trial","4",""
"html-button-response-clever","135","2013395","0.0-13.0-0.15","4672","János imád frálapodni, ezért sokat frálapszik. Ti ritkán...","1","frálapodtok","[""frálapszotok"",""frálapodtok""]","","posttest trial","4",""
"html-button-response-clever","136","2020145","0.0-13.0-0.16","6247","János imád lájozni, ezért sokat lájzik. Ti ritkán...","1","lájoztok","[""lájzotok"",""lájoztok""]","","posttest trial","4",""
"html-button-response-clever","137","2052342","0.0-13.0-0.17","31683","János imád flöközni, ezért sokat flöklik. Ti ritkán...","0","flököztök","[""flököztök"",""flöklötök""]","","posttest trial","4",""
"html-button-response-clever","138","2057205","0.0-13.0-0.18","4360","János imád csubozni, ezért sokat csubzik. Mi ritkán...","1","csubzunk","[""csubozunk"",""csubzunk""]","","posttest trial","4",""
"html-button-response-clever","139","2060479","0.0-13.0-0.19","2758","János imád flüröközni, ezért sokat flüröklik. Ti ritkán...","1","flürököztök","[""flüröklötök"",""flürököztök""]","","posttest trial","4",""
"html-button-response-clever","140","2067304","0.0-13.0-0.20","6320","János imád branyozni, ezért sokat branylik. Ők ritkán...","0","branylanak","[""branylanak"",""branyoznak""]","","posttest trial","4",""
"html-button-response-clever","141","2072616","0.0-13.0-0.21","4805","János imád pragányozni, ezért sokat pragánylik. Ti ritkán...","1","pragányoztok","[""pragánylotok"",""pragányoztok""]","","posttest trial","4",""
"html-button-response-clever","142","2076885","0.0-13.0-0.22","3763","János imád spiharozni, ezért sokat spiharzik. Ti ritkán...","1","spiharoztok","[""spiharzotok"",""spiharoztok""]","","posttest trial","4",""
"html-button-response-clever","143","2081130","0.0-13.0-0.23","3739","János imád bratározni, ezért sokat bratárzik. Ők ritkán...","1","bratárzanak","[""bratároznak"",""bratárzanak""]","","posttest trial","4",""
"html-button-response-clever","144","2157296","0.0-13.0-0.24","75660","János imád mágamozni, ezért sokat mágamlik. Mi ritkán...","0","mágamozunk","[""mágamozunk"",""mágamlunk""]","","posttest trial","4",""
"html-button-response-clever","145","2160152","0.0-13.0-0.25","2336","János imád sprozozni, ezért sokat sprozlik. Ők ritkán...","0","sprozlanak","[""sprozlanak"",""sprozoznak""]","","posttest trial","4",""
"html-button-response-clever","146","2182622","0.0-13.0-0.26","21965","János imád brözözni, ezért sokat brözlik. Ti ritkán...","1","brözöztök","[""brözlötök"",""brözöztök""]","","posttest trial","4",""
"html-button-response-clever","147","2202758","0.0-13.0-0.27","19625","János imád csibagozni, ezért sokat csibagzik. Ti ritkán...","0","csibagzotok","[""csibagzotok"",""csibagoztok""]","","posttest trial","4",""
"html-button-response-clever","148","2206308","0.0-13.0-0.28","3034","János imád dárakodni, ezért sokat dárakszik. Mi ritkán...","1","dárakszunk","[""dárakodunk"",""dárakszunk""]","","posttest trial","4",""
"html-button-response-clever","149","2208718","0.0-13.0-0.29","1902","János imád spirágozni, ezért sokat spiráglik. Ti ritkán...","0","spirágoztok","[""spirágoztok"",""spiráglotok""]","","posttest trial","4",""
"html-button-response-clever","150","2211396","0.0-13.0-0.30","2163","János imád trugozni, ezért sokat trugzik. Ők ritkán...","0","trugzanak","[""trugzanak"",""trugoznak""]","","posttest trial","4",""
"html-button-response-clever","151","2216038","0.0-13.0-0.31","4121","János imád mülőrözni, ezért sokat mülőrzik. Mi ritkán...","0","mülőrzünk","[""mülőrzünk"",""mülőrözünk""]","","posttest trial","4",""
"html-button-response-clever","152","2218938","0.0-13.0-0.32","2382","János imád drűrözni, ezért sokat drűrzik. Ők ritkán...","0","drűröznek","[""drűröznek"",""drűrzenek""]","","posttest trial","4",""
"html-button-response-clever","153","2224624","0.0-13.0-0.33","5173","János imád drilarozni, ezért sokat drilarzik. Mi ritkán...","0","drilarozunk","[""drilarozunk"",""drilarzunk""]","","posttest trial","4",""
"html-button-response-clever","154","2227224","0.0-13.0-0.34","2090","János imád lűközni, ezért sokat lűklik. Ők ritkán...","0","lűklenek","[""lűklenek"",""lűköznek""]","","posttest trial","4",""
"html-button-response-clever","155","2230576","0.0-13.0-0.35","2835","János imád nyürözni, ezért sokat nyürzik. Ők ritkán...","1","nyürzenek","[""nyüröznek"",""nyürzenek""]","","posttest trial","4",""
"html-button-response-clever","156","2239298","0.0-13.0-0.36","8205","János imád flűgözni, ezért sokat flűgzik. Mi ritkán...","1","flűgzünk","[""flűgözünk"",""flűgzünk""]","","posttest trial","4",""
"html-button-response-clever","157","2272750","0.0-13.0-0.37","32945","János imád kűdözni, ezért sokat kűdlik. Ők ritkán...","0","kűdöznek","[""kűdöznek"",""kűdlenek""]","","posttest trial","4",""
"html-button-response-clever","158","2274604","0.0-13.0-0.38","1338","János imád spügözni, ezért sokat spügzik. Mi ritkán...","0","spügözünk","[""spügözünk"",""spügzünk""]","","posttest trial","4",""
"html-button-response-clever","159","2278566","0.0-13.0-0.39","3441","János imád nyivágozni, ezért sokat nyivágzik. Mi ritkán...","0","nyivágzunk","[""nyivágzunk"",""nyivágozunk""]","","posttest trial","4",""
"html-button-response-clever","160","2281068","0.0-13.0-0.40","1995","János imád dirozni, ezért sokat dirlik. Ti ritkán...","0","dirlotok","[""dirlotok"",""diroztok""]","","posttest trial","4",""
"html-button-response-clever","161","2284644","0.0-13.0-0.41","3066","János imád brülösözni, ezért sokat brülöslik. Mi ritkán...","0","brülöslünk","[""brülöslünk"",""brülösözünk""]","","posttest trial","4",""
"html-button-response-clever","162","2286804","0.0-13.0-0.42","1641","János imád dabozni, ezért sokat dabzik. Ti ritkán...","1","dabzotok","[""daboztok"",""dabzotok""]","","posttest trial","4",""
"html-button-response-clever","163","2290360","0.0-13.0-0.43","3047","János imád gihejezni, ezért sokat gihejlik. Mi ritkán...","0","gihejlünk","[""gihejlünk"",""gihejezünk""]","","posttest trial","4",""
"html-button-response-clever","164","2355413","0.0-13.0-0.44","64533","János imád trugokozni, ezért sokat trugoklik. Ők ritkán...","1","trugoklanak","[""trugokoznak"",""trugoklanak""]","","posttest trial","4",""
"html-button-response-clever","165","2385627","0.0-13.0-0.45","29703","János imád sprűrözni, ezért sokat sprűrlik. Ők ritkán...","0","sprűrlenek","[""sprűrlenek"",""sprűröznek""]","","posttest trial","4",""
"html-button-response-clever","166","2390912","0.0-13.0-0.46","4783","János imád privékedni, ezért sokat privékszik. Ők ritkán...","1","privékszenek","[""privékednek"",""privékszenek""]","","posttest trial","4",""
"html-button-response-clever","167","2395960","0.0-13.0-0.47","4544","János imád molodni, ezért sokat molszik. Ti ritkán...","1","molszotok","[""molodtok"",""molszotok""]","","posttest trial","4",""
"html-button-response-clever","168","2399634","0.0-13.0-0.48","3163","János imád köszözni, ezért sokat köszlik. Ti ritkán...","0","köszöztök","[""köszöztök"",""köszlötök""]","","posttest trial","4",""
"html-button-response-clever","169","2406479","0.0-13.0-0.49","6335","János imád gyihegezni, ezért sokat gyihegzik. Ti ritkán...","0","gyihegeztek","[""gyihegeztek"",""gyihegzetek""]","","posttest trial","4",""
"html-button-response-clever","170","2410898","0.0-13.0-0.50","3899","János imád sprudozni, ezért sokat sprudlik. Mi ritkán...","1","sprudlunk","[""sprudozunk"",""sprudlunk""]","","posttest trial","4",""
"html-button-response-clever","171","2414399","0.0-13.0-0.51","2997","János imád spibegezni, ezért sokat spibeglik. Mi ritkán...","0","spibeglünk","[""spibeglünk"",""spibegezünk""]","","posttest trial","4",""
"html-button-response-clever","172","2419459","0.0-13.0-0.52","4538","János imád frálasozni, ezért sokat frálaslik. Ők ritkán...","1","frálaslanak","[""frálasoznak"",""frálaslanak""]","","posttest trial","4",""
"html-button-response-clever","173","2422243","0.0-13.0-0.53","2281","János imád prélemezni, ezért sokat prélemlik. Ők ritkán...","0","prélemlenek","[""prélemlenek"",""prélemeznek""]","","posttest trial","4",""
"html-button-response","174","2429848","0.0-14.0","7103","<p> Vége a játéknak. A teljes pontszámod 25/54.</p><p> Szép munka! &#128526;&#128526;&#128526;</p><p>A Befejezés gomb megnyomása után bezárhatod a böngészőablakot.</p>","0","","","","","",""
"html-keyboard-response","175","2435374","0.0-15.0","null","<div class=""message"">
         <p>Egy kis türelmet kérünk, amíg elmentjük az adatokat...</p>
         </div>","null","","","","","",""
