"trial_type","trial_index","time_elapsed","internal_node_id","rt","stimulus","response","response_string","choices","esp_response","trial_kind","list_number","esp_match"
"pavlovia","0","4111","0.0-0.0","","","","","","","","",""
"html-button-response","1","12583","0.0-1.0","7709","<p>Kedves Résztvevő! A Budapesti Műszaki és Gazdaságtudományi Egyetem Kognitív Tudományi Tanszékének kutatásában való részvételed kérjük. A kutatásban azt vizsgáljuk, hogy a magyar anyanyelvűek hogyan használnak bizonyos szóalakokat, és hogy milyen képük van arról, hogy mások hogyan használják, hogyan képzik a szavakat. Ez hozzásegít bennünket ahhoz, hogy jobban megértsük, hogyan dolgozza fel és tárolja a nyelvet az emberi agy, és hogyan működnek, hogyan változnak egy adott közösség nyelvi konvenciói.</p><p>A vizsgálat egy rövid számítógépes feladatból fog állni. A kutatásban való részvétel önkéntes, a részvételi szándék bármikor visszavonható. A résztvevők eredményeit név nélkül kezeljük, így nem beazonosíthatók az adatok feldolgozása során. Minden személyes adatot az EU általános adatvédelmi rendeletének (GDPR) megfelelően kezelünk és legfeljebb öt éven belül megsemmisítünk. A vizsgálat jellemzően húsz percet vesz igénybe.</p><p>Kutatásvezető:</p><p>Dr. Rácz Péter, tudományos munkatárs, BME KTT</p><p>e-mail: racz.peter.marton@ttk.bme.hu</p>","0","","","","","",""
"html-button-response","2","13991","0.0-2.0","903","<p>A kísérletben szavakat fogsz látni. Ezek között lesznek olyanok, amelyeket ismersz, de előfordulhatnak olyanok is, amelyeket nem ismersz, sőt, vannak köztük kitalált szavak is. Minden szónál látni fogsz toldalékolt alakokat. A te feladatod az lesz, hogy minden szóhoz kiválaszd azt a toldalékolt alakot, amely a te számodra ismerősebben, természetesebben hangzik. Rossz válaszok nincsenek, mert van olyan, hogy különböző embereknek más és más szó tűnik jobb választásnak. A választ úgy tudod majd kiválasztani, ha rákattintasz.</p><p>Ebben a szóválasztós játékban egy másik játékossal együtt veszel majd részt. A másik játékos is minden esetben azok közül a lehetőségek közül válogathat, mint te. Kettőtök feladata az, hogy ugyanazt a lehetőséget válasszátok minden esetben. Ahhoz, hogy ez sikerüljön, neked figyelned kell arra, hogy a másik játékos milyen válaszokat ad, és ennek alapján meg kell tippelned, hogyan választ legközelebb. Ha eltalálod, akkor pontot kapsz.</p>","0","","","","","",""
"html-button-response","3","15486","0.0-3.0","993","<p>Kérjük, olvasd el az alábbi nyilatkozatot, és amennyiben egyetértesz vele, nyomj a Beleegyezés gombra!</p><p>Kijelentem, hogy magyar anyanyelvű személyként önként veszek részt a BME KTT kísérletében. A kutatás céljával és folyamatával kapcsolatban elegendő tájékoztatást kaptam, lehetőségem volt kérdések feltételére, és esetleges kérdéseimre megfelelő válaszokat kaptam. A tájékoztatás alapján elegendő mennyiségű információ áll a rendelkezésemre, hogy eldönthessem, részt kívánok-e venni a kutatásban.</p><p>Tisztában vagyok vele, hogy részvételi szándékomat és adataimat bármikor, indoklás nélkül visszavonhatom.</p><p>Értem és tudomásul veszem, hogy a kutatás tudományos célokat szolgál, és az általam szolgáltatott adatokat a BME kizárólag kutatási célból használja fel. Tudomásul veszem, hogy eredményeimet a többi résztvevő eredményeivel együtt kezelik, így egyéni teljesítményemről visszajelzést, szakvéleményt nem kapok.</p><p>Megértettem, hogy adataim kezelését illetően a BME az EU általános adatvédelmi rendelete (GDPR), a hatályos adatvédelmi törvény és a nemzetközi kutatás-etikai alapelvek szerint jár el. Eredményeim anonim módon kerülnek feldolgozásra, és a kutatás résztvevői az azonosításomra alkalmas adataimat harmadik félnek nem szolgáltatják ki. Engedélyezem a BME számára a jelen kutatásban felvett adataim feldolgozását és tárolását, beleértve azok későbbi kutatásokhoz való felhasználását is. Személyes adataim kezelésével kapcsolatban tájékoztatást kérhetek a kutatás résztvevőitől, az adatkezelés ellen tiltakozhatok, kérhetem személyes adataim helyesbítését, törlését vagy zárolását, valamint jogorvoslatért a Nemzeti Adatvédelmi és Információszabadság Hatósághoz fordulhatok.</p><p>Kijelentem, hogy a kutatásban való részvételem körülményeiről részletes tájékoztatást kaptam, és a feltételeket elfogadom.</p>","0","","","","","",""
"survey-text","4","31487","0.0-4.0","15488","","{""Q0"":""ATGROI"",""Q1"":""férfi"",""Q2"":""2000"",""Q3"":""12""}","","","","","",""
"html-button-response","5","33639","0.0-5.0","1645","<p>Ebben a játékban szavakat kell toldalékolni.</p> <p>Minden körben mutatunk majd egy példamondatot, amiben lesz egy szó.</p> <p>Alatta jön egy második mondat, ezt a mondatot neked kell majd befejezni, ugyanezzel a szóval.</p> <p>Nem biztos, hogy a szó eleve ismerős lesz számodra!</p> <p>Minden mondathoz adunk két lehetőséget, ezeket balra és jobbra látod majd.</p> <p>A játék kb. negyedóráig-húsz percig tart.</p>","0","","","","","",""
"html-button-response","6","44126","0.0-6.0","9983","<p>Nézzünk egy példát!</p> <p>A példamondat: ""János nagyon szeret rancsúrozni.""</p><p>Neked ezt a mondatot kell befejezned: ""Én is szívesen...""</p><p>A lehetőségek pedig ezek:</p>","0","","","","","",""
"html-button-response","7","50043","0.0-7.0","5409","<p>Nagyon jó.</p><p>Ezt a játékot nem egyedül fogod játszani, hanem egy másik játékossal.</p><p>Mielőtt továbblépünk, összekapcsolunk titeket egymással.</p><p>Ez igénybe vehet néhány másodpercet, amihez szíves türelmed kérjük.</p>","0","","","","","",""
"html-button-response","8","55773","0.0-8.0","null","<p>Csatlakozás a másik játékoshoz...</p>","null","","","","","",""
"html-button-response","9","58293","0.0-9.0","null","<p> Sikeres kapcsolódás!</p>","null","","","","","",""
"html-button-response","10","68807","0.0-10.0","null","<p>A következőkben ketten játsszátok a szóválasztós játékot.</p><p>A feladatotok az lesz, hogy minden körben <b>ugyanazt</b> a szót válasszátok.</p><p>Minden ilyen egyező válaszért pontot kaptok.</p><p>Próbáld meg kitalálni, mit választ a másik játékos!</p><p>Bármikor választhatsz, a körnek akkor van vége, ha mindketten döntöttetek.</p><p>Sok sikert!</p>","null","","","","","",""
"html-button-response-esp","11","77213","0.0-11.0-0.0","7180","Te bizony sokat spihemlesz. Én is sokat...","0","spihemlek","[""spihemlek"",""spihemlem""]","spihemlek","esp trial","5","true"
"html-button-response","12","80743","0.0-11.0-1.0","null","<p>A másik játékos ezt választotta: <b>spihemlek</b>.</p><p>&#x2705;</p><p>A te válaszod és a másik játékos válasza <b>megegyeznek</b>.</p>","null","","","","feedback trial","",""
"html-button-response-esp","13","89153","0.0-11.0-0.1","4413","Te bizony sokat prínylasz. Én is sokat...","0","prínylok","[""prínylok"",""prínylom""]","prínylok","esp trial","5","true"
"html-button-response","14","92673","0.0-11.0-1.1","null","<p>A másik játékos ezt választotta: <b>prínylok</b>.</p><p>&#x2705;</p><p>A te válaszod és a másik játékos válasza <b>megegyeznek</b>.</p>","null","","","","feedback trial","",""
"html-button-response-esp","15","101083","0.0-11.0-0.2","5132","Te bizony sokat spihegzel. Én is sokat...","1","spihegzem","[""spihegzek"",""spihegzem""]","spihegzek","esp trial","5","false"
"html-button-response","16","104603","0.0-11.0-1.2","null","<p>A másik játékos ezt választotta: <b>spihegzek</b>.</p><p>&#10060;</p><p>A válaszaitok <b>nem</b> egyeznek meg.</p>","null","","","","feedback trial","",""
"html-button-response-esp","17","113013","0.0-11.0-0.3","4307","Te bizony sokat spubonylasz. Én is sokat...","0","spubonylok","[""spubonylok"",""spubonylom""]","spubonylok","esp trial","5","true"
"html-button-response","18","116533","0.0-11.0-1.3","null","<p>A másik játékos ezt választotta: <b>spubonylok</b>.</p><p>&#x2705;</p><p>A te válaszod és a másik játékos válasza <b>megegyeznek</b>.</p>","null","","","","feedback trial","",""
"html-button-response-esp","19","128483","0.0-11.0-0.4","11439","Te bizony sokat spröbzöl. Én is sokat...","1","spröbzök","[""spröbzöm"",""spröbzök""]","spröbzök","esp trial","5","true"
"html-button-response","20","132013","0.0-11.0-1.4","null","<p>A másik játékos ezt választotta: <b>spröbzök</b>.</p><p>&#x2705;</p><p>A te válaszod és a másik játékos válasza <b>megegyeznek</b>.</p>","null","","","","feedback trial","",""
"html-button-response-esp","21","140423","0.0-11.0-0.5","4225","Te bizony sokat filágzol. Én is sokat...","0","filágzom","[""filágzom"",""filágzok""]","filágzom","esp trial","5","true"
"html-button-response","22","143943","0.0-11.0-1.5","null","<p>A másik játékos ezt választotta: <b>filágzom</b>.</p><p>&#x2705;</p><p>A te válaszod és a másik játékos válasza <b>megegyeznek</b>.</p>","null","","","","feedback trial","",""
"html-button-response-esp","23","152353","0.0-11.0-0.6","4229","Te bizony sokat treglesz. Én is sokat...","0","treglek","[""treglek"",""treglem""]","treglek","esp trial","5","true"
"html-button-response","24","155873","0.0-11.0-1.6","null","<p>A másik játékos ezt választotta: <b>treglek</b>.</p><p>&#x2705;</p><p>A te válaszod és a másik játékos válasza <b>megegyeznek</b>.</p>","null","","","","feedback trial","",""
"html-button-response-esp","25","164283","0.0-11.0-0.7","4115","Te bizony sokat bűtszöl. Én is sokat...","0","bűtszöm","[""bűtszöm"",""bűtszök""]","bűtszök","esp trial","5","false"
"html-button-response","26","167823","0.0-11.0-1.7","null","<p>A másik játékos ezt választotta: <b>bűtszök</b>.</p><p>&#10060;</p><p>A válaszaitok <b>nem</b> egyeznek meg.</p>","null","","","","feedback trial","",""
"html-button-response-esp","27","176242","0.0-11.0-0.8","6169","Te bizony sokat tragzol. Én is sokat...","1","tragzom","[""tragzok"",""tragzom""]","tragzok","esp trial","5","false"
"html-button-response","28","179770","0.0-11.0-1.8","null","<p>A másik játékos ezt választotta: <b>tragzok</b>.</p><p>&#10060;</p><p>A válaszaitok <b>nem</b> egyeznek meg.</p>","null","","","","feedback trial","",""
"html-button-response-esp","29","188180","0.0-11.0-0.9","2531","Te bizony sokat trádlasz. Én is sokat...","1","trádlok","[""trádlom"",""trádlok""]","trádlok","esp trial","5","true"
"html-button-response","30","191700","0.0-11.0-1.9","null","<p>A másik játékos ezt választotta: <b>trádlok</b>.</p><p>&#x2705;</p><p>A te válaszod és a másik játékos válasza <b>megegyeznek</b>.</p>","null","","","","feedback trial","",""
"html-button-response-esp","31","200110","0.0-11.0-0.10","3913","Te bizony sokat flitlasz. Én is sokat...","1","flitlok","[""flitlom"",""flitlok""]","flitlok","esp trial","5","true"
"html-button-response","32","203630","0.0-11.0-1.10","null","<p>A másik játékos ezt választotta: <b>flitlok</b>.</p><p>&#x2705;</p><p>A te válaszod és a másik játékos válasza <b>megegyeznek</b>.</p>","null","","","","feedback trial","",""
"html-button-response-esp","33","212040","0.0-11.0-0.11","4192","Te bizony sokat hűgzöl. Én is sokat...","0","hűgzöm","[""hűgzöm"",""hűgzök""]","hűgzök","esp trial","5","false"
"html-button-response","34","215560","0.0-11.0-1.11","null","<p>A másik játékos ezt választotta: <b>hűgzök</b>.</p><p>&#10060;</p><p>A válaszaitok <b>nem</b> egyeznek meg.</p>","null","","","","feedback trial","",""
"html-button-response-esp","35","223970","0.0-11.0-0.12","4213","Te bizony sokat frodlasz. Én is sokat...","0","frodlok","[""frodlok"",""frodlom""]","frodlok","esp trial","5","true"
"html-button-response","36","227490","0.0-11.0-1.12","null","<p>A másik játékos ezt választotta: <b>frodlok</b>.</p><p>&#x2705;</p><p>A te válaszod és a másik játékos válasza <b>megegyeznek</b>.</p>","null","","","","feedback trial","",""
"html-button-response-esp","37","235900","0.0-11.0-0.13","5027","Te bizony sokat plugzol. Én is sokat...","1","plugzok","[""plugzom"",""plugzok""]","plugzom","esp trial","5","false"
"html-button-response","38","239420","0.0-11.0-1.13","null","<p>A másik játékos ezt választotta: <b>plugzom</b>.</p><p>&#10060;</p><p>A válaszaitok <b>nem</b> egyeznek meg.</p>","null","","","","feedback trial","",""
"html-button-response-esp","39","247830","0.0-11.0-0.14","4186","Te bizony sokat rokszol. Én is sokat...","0","rokszom","[""rokszom"",""rokszok""]","rokszom","esp trial","5","true"
"html-button-response","40","251361","0.0-11.0-1.14","null","<p>A másik játékos ezt választotta: <b>rokszom</b>.</p><p>&#x2705;</p><p>A te válaszod és a másik játékos válasza <b>megegyeznek</b>.</p>","null","","","","feedback trial","",""
"html-button-response-esp","41","259770","0.0-11.0-0.15","2453","Te bizony sokat nűröklesz. Én is sokat...","1","nűröklök","[""nűröklöm"",""nűröklök""]","nűröklök","esp trial","5","true"
"html-button-response","42","263290","0.0-11.0-1.15","null","<p>A másik játékos ezt választotta: <b>nűröklök</b>.</p><p>&#x2705;</p><p>A te válaszod és a másik játékos válasza <b>megegyeznek</b>.</p>","null","","","","feedback trial","",""
"html-button-response-esp","43","271701","0.0-11.0-0.16","2740","Te bizony sokat píjlasz. Én is sokat...","1","píjlok","[""píjlom"",""píjlok""]","píjlok","esp trial","5","true"
"html-button-response","44","275220","0.0-11.0-1.16","null","<p>A másik játékos ezt választotta: <b>píjlok</b>.</p><p>&#x2705;</p><p>A te válaszod és a másik játékos válasza <b>megegyeznek</b>.</p>","null","","","","feedback trial","",""
"html-button-response-esp","45","283631","0.0-11.0-0.17","3381","Te bizony sokat flátszol. Én is sokat...","0","flátszom","[""flátszom"",""flátszok""]","flátszom","esp trial","5","true"
"html-button-response","46","287161","0.0-11.0-1.17","null","<p>A másik játékos ezt választotta: <b>flátszom</b>.</p><p>&#x2705;</p><p>A te válaszod és a másik játékos válasza <b>megegyeznek</b>.</p>","null","","","","feedback trial","",""
"html-button-response-esp","47","295570","0.0-11.0-0.18","2897","Te bizony sokat sztrozlasz. Én is sokat...","1","sztrozlom","[""sztrozlok"",""sztrozlom""]","sztrozlok","esp trial","5","false"
"html-button-response","48","299093","0.0-11.0-1.18","null","<p>A másik játékos ezt választotta: <b>sztrozlok</b>.</p><p>&#10060;</p><p>A válaszaitok <b>nem</b> egyeznek meg.</p>","null","","","","feedback trial","",""
"html-button-response-esp","49","307503","0.0-11.0-0.19","6067","Te bizony sokat klivaslasz. Én is sokat...","1","klivaslok","[""klivaslom"",""klivaslok""]","klivaslok","esp trial","5","true"
"html-button-response","50","311023","0.0-11.0-1.19","null","<p>A másik játékos ezt választotta: <b>klivaslok</b>.</p><p>&#x2705;</p><p>A te válaszod és a másik játékos válasza <b>megegyeznek</b>.</p>","null","","","","feedback trial","",""
"html-button-response-esp","51","319433","0.0-11.0-0.20","3741","Te bizony sokat brubzol. Én is sokat...","1","brubzom","[""brubzok"",""brubzom""]","brubzok","esp trial","5","false"
"html-button-response","52","322953","0.0-11.0-1.20","null","<p>A másik játékos ezt választotta: <b>brubzok</b>.</p><p>&#10060;</p><p>A válaszaitok <b>nem</b> egyeznek meg.</p>","null","","","","feedback trial","",""
"html-button-response-esp","53","332786","0.0-11.0-0.21","9323","Te bizony sokat rájzol. Én is sokat...","0","rájzom","[""rájzom"",""rájzok""]","rájzok","esp trial","5","false"
"html-button-response","54","336293","0.0-11.0-1.21","null","<p>A másik játékos ezt választotta: <b>rájzok</b>.</p><p>&#10060;</p><p>A válaszaitok <b>nem</b> egyeznek meg.</p>","null","","","","feedback trial","",""
"html-button-response-esp","55","344703","0.0-11.0-0.22","2631","Te bizony sokat plűbzöl. Én is sokat...","1","plűbzöm","[""plűbzök"",""plűbzöm""]","plűbzök","esp trial","5","false"
"html-button-response","56","348223","0.0-11.0-1.22","null","<p>A másik játékos ezt választotta: <b>plűbzök</b>.</p><p>&#10060;</p><p>A válaszaitok <b>nem</b> egyeznek meg.</p>","null","","","","feedback trial","",""
"html-button-response-esp","57","356632","0.0-11.0-0.23","2098","Te bizony sokat brivegzel. Én is sokat...","0","brivegzek","[""brivegzek"",""brivegzem""]","brivegzem","esp trial","5","false"
"html-button-response","58","360153","0.0-11.0-1.23","null","<p>A másik játékos ezt választotta: <b>brivegzem</b>.</p><p>&#10060;</p><p>A válaszaitok <b>nem</b> egyeznek meg.</p>","null","","","","feedback trial","",""
"html-button-response-esp","59","368562","0.0-11.0-0.24","2647","Te bizony sokat ibékszel. Én is sokat...","1","ibékszek","[""ibékszem"",""ibékszek""]","ibékszem","esp trial","5","false"
"html-button-response","60","372083","0.0-11.0-1.24","null","<p>A másik játékos ezt választotta: <b>ibékszem</b>.</p><p>&#10060;</p><p>A válaszaitok <b>nem</b> egyeznek meg.</p>","null","","","","feedback trial","",""
"html-button-response-esp","61","380494","0.0-11.0-0.25","3546","Te bizony sokat szibánylasz. Én is sokat...","0","szibánylok","[""szibánylok"",""szibánylom""]","szibánylok","esp trial","5","true"
"html-button-response","62","384022","0.0-11.0-1.25","null","<p>A másik játékos ezt választotta: <b>szibánylok</b>.</p><p>&#x2705;</p><p>A te válaszod és a másik játékos válasza <b>megegyeznek</b>.</p>","null","","","","feedback trial","",""
"html-button-response-esp","63","392432","0.0-11.0-0.26","4442","Te bizony sokat düjzöl. Én is sokat...","0","düjzöm","[""düjzöm"",""düjzök""]","düjzök","esp trial","5","false"
"html-button-response","64","395952","0.0-11.0-1.26","null","<p>A másik játékos ezt választotta: <b>düjzök</b>.</p><p>&#10060;</p><p>A válaszaitok <b>nem</b> egyeznek meg.</p>","null","","","","feedback trial","",""
"html-button-response-esp","65","404372","0.0-11.0-0.27","3623","Te bizony sokat bihánylasz. Én is sokat...","0","bihánylok","[""bihánylok"",""bihánylom""]","bihánylok","esp trial","5","true"
"html-button-response","66","407892","0.0-11.0-1.27","null","<p>A másik játékos ezt választotta: <b>bihánylok</b>.</p><p>&#x2705;</p><p>A te válaszod és a másik játékos válasza <b>megegyeznek</b>.</p>","null","","","","feedback trial","",""
"html-button-response-esp","67","416292","0.0-11.0-0.28","4375","Te bizony sokat brobódzol. Én is sokat...","0","brobódzok","[""brobódzok"",""brobódzom""]","brobódzom","esp trial","5","false"
"html-button-response","68","419823","0.0-11.0-1.28","null","<p>A másik játékos ezt választotta: <b>brobódzom</b>.</p><p>&#10060;</p><p>A válaszaitok <b>nem</b> egyeznek meg.</p>","null","","","","feedback trial","",""
"html-button-response-esp","69","428232","0.0-11.0-0.29","4753","Te bizony sokat spüjzöl. Én is sokat...","1","spüjzök","[""spüjzöm"",""spüjzök""]","spüjzök","esp trial","5","true"
"html-button-response","70","431763","0.0-11.0-1.29","null","<p>A másik játékos ezt választotta: <b>spüjzök</b>.</p><p>&#x2705;</p><p>A te válaszod és a másik játékos válasza <b>megegyeznek</b>.</p>","null","","","","feedback trial","",""
"html-button-response-esp","71","440173","0.0-11.0-0.30","7846","Te bizony sokat sztrijzol. Én is sokat...","0","sztrijzom","[""sztrijzom"",""sztrijzok""]","sztrijzok","esp trial","5","false"
"html-button-response","72","443692","0.0-11.0-1.30","null","<p>A másik játékos ezt választotta: <b>sztrijzok</b>.</p><p>&#10060;</p><p>A válaszaitok <b>nem</b> egyeznek meg.</p>","null","","","","feedback trial","",""
"html-button-response-esp","73","452092","0.0-11.0-0.31","2847","Te bizony sokat lörűdzöl. Én is sokat...","1","lörűdzök","[""lörűdzöm"",""lörűdzök""]","lörűdzök","esp trial","5","true"
"html-button-response","74","455613","0.0-11.0-1.31","null","<p>A másik játékos ezt választotta: <b>lörűdzök</b>.</p><p>&#x2705;</p><p>A te válaszod és a másik játékos válasza <b>megegyeznek</b>.</p>","null","","","","feedback trial","",""
"html-button-response-esp","75","464023","0.0-11.0-0.32","3360","Te bizony sokat klaráglasz. Én is sokat...","0","klaráglok","[""klaráglok"",""klaráglom""]","klaráglok","esp trial","5","true"
"html-button-response","76","467553","0.0-11.0-1.32","null","<p>A másik játékos ezt választotta: <b>klaráglok</b>.</p><p>&#x2705;</p><p>A te válaszod és a másik játékos válasza <b>megegyeznek</b>.</p>","null","","","","feedback trial","",""
"html-button-response-esp","77","475962","0.0-11.0-0.33","4859","Te bizony sokat flehékszel. Én is sokat...","0","flehékszem","[""flehékszem"",""flehékszek""]","flehékszem","esp trial","5","true"
"html-button-response","78","479492","0.0-11.0-1.33","null","<p>A másik játékos ezt választotta: <b>flehékszem</b>.</p><p>&#x2705;</p><p>A te válaszod és a másik játékos válasza <b>megegyeznek</b>.</p>","null","","","","feedback trial","",""
"html-button-response-esp","79","487911","0.0-11.0-0.34","2981","Te bizony sokat pítszol. Én is sokat...","1","pítszom","[""pítszok"",""pítszom""]","pítszom","esp trial","5","true"
"html-button-response","80","491431","0.0-11.0-1.34","null","<p>A másik játékos ezt választotta: <b>pítszom</b>.</p><p>&#x2705;</p><p>A te válaszod és a másik játékos válasza <b>megegyeznek</b>.</p>","null","","","","feedback trial","",""
"html-button-response-esp","81","499841","0.0-11.0-0.35","5803","Te bizony sokat flűmlesz. Én is sokat...","1","flűmlök","[""flűmlöm"",""flűmlök""]","flűmlök","esp trial","5","true"
"html-button-response","82","503871","0.0-11.0-1.35","null","<p>A másik játékos ezt választotta: <b>flűmlök</b>.</p><p>&#x2705;</p><p>A te válaszod és a másik játékos válasza <b>megegyeznek</b>.</p>","null","","","","feedback trial","",""
"html-button-response-esp","83","512771","0.0-11.0-0.36","5850","Te bizony sokat spáraklasz. Én is sokat...","0","spáraklok","[""spáraklok"",""spáraklom""]","spáraklok","esp trial","5","true"
"html-button-response","84","516291","0.0-11.0-1.36","null","<p>A másik játékos ezt választotta: <b>spáraklok</b>.</p><p>&#x2705;</p><p>A te válaszod és a másik játékos válasza <b>megegyeznek</b>.</p>","null","","","","feedback trial","",""
"html-button-response-esp","85","525844","0.0-11.0-0.37","9043","Te bizony sokat flehénylesz. Én is sokat...","1","flehénylek","[""flehénylem"",""flehénylek""]","flehénylek","esp trial","5","true"
"html-button-response","86","529371","0.0-11.0-1.37","null","<p>A másik játékos ezt választotta: <b>flehénylek</b>.</p><p>&#x2705;</p><p>A te válaszod és a másik játékos válasza <b>megegyeznek</b>.</p>","null","","","","feedback trial","",""
"html-button-response-esp","87","537781","0.0-11.0-0.38","6083","Te bizony sokat jonylasz. Én is sokat...","0","jonylok","[""jonylok"",""jonylom""]","jonylok","esp trial","5","true"
"html-button-response","88","541301","0.0-11.0-1.38","null","<p>A másik játékos ezt választotta: <b>jonylok</b>.</p><p>&#x2705;</p><p>A te válaszod és a másik játékos válasza <b>megegyeznek</b>.</p>","null","","","","feedback trial","",""
"html-button-response-esp","89","549710","0.0-11.0-0.39","4634","Te bizony sokat sztrűkszöl. Én is sokat...","0","sztrűkszök","[""sztrűkszök"",""sztrűkszöm""]","sztrűkszöm","esp trial","5","false"
"html-button-response","90","553241","0.0-11.0-1.39","null","<p>A másik játékos ezt választotta: <b>sztrűkszöm</b>.</p><p>&#10060;</p><p>A válaszaitok <b>nem</b> egyeznek meg.</p>","null","","","","feedback trial","",""
"html-button-response-esp","91","561650","0.0-11.0-0.40","2133","Te bizony sokat narádzol. Én is sokat...","0","narádzom","[""narádzom"",""narádzok""]","narádzom","esp trial","5","true"
"html-button-response","92","565170","0.0-11.0-1.40","null","<p>A másik játékos ezt választotta: <b>narádzom</b>.</p><p>&#x2705;</p><p>A te válaszod és a másik játékos válasza <b>megegyeznek</b>.</p>","null","","","","feedback trial","",""
"html-button-response-esp","93","573590","0.0-11.0-0.41","4161","Te bizony sokat figlasz. Én is sokat...","0","figlok","[""figlok"",""figlom""]","figlok","esp trial","5","true"
"html-button-response","94","577110","0.0-11.0-1.41","null","<p>A másik játékos ezt választotta: <b>figlok</b>.</p><p>&#x2705;</p><p>A te válaszod és a másik játékos válasza <b>megegyeznek</b>.</p>","null","","","","feedback trial","",""
"html-button-response-esp","95","585520","0.0-11.0-0.42","3223","Te bizony sokat klétszel. Én is sokat...","0","klétszek","[""klétszek"",""klétszem""]","klétszem","esp trial","5","false"
"html-button-response","96","589040","0.0-11.0-1.42","null","<p>A másik játékos ezt választotta: <b>klétszem</b>.</p><p>&#10060;</p><p>A válaszaitok <b>nem</b> egyeznek meg.</p>","null","","","","feedback trial","",""
"html-button-response-esp","97","597450","0.0-11.0-0.43","2685","Te bizony sokat hurjorzol. Én is sokat...","1","hurjorzom","[""hurjorzok"",""hurjorzom""]","hurjorzok","esp trial","5","false"
"html-button-response","98","600970","0.0-11.0-1.43","null","<p>A másik játékos ezt választotta: <b>hurjorzok</b>.</p><p>&#10060;</p><p>A válaszaitok <b>nem</b> egyeznek meg.</p>","null","","","","feedback trial","",""
"html-button-response-esp","99","609382","0.0-11.0-0.44","3562","Te bizony sokat trehégszel. Én is sokat...","1","trehégszem","[""trehégszek"",""trehégszem""]","trehégszem","esp trial","5","true"
"html-button-response","100","612898","0.0-11.0-1.44","null","<p>A másik játékos ezt választotta: <b>trehégszem</b>.</p><p>&#x2705;</p><p>A te válaszod és a másik játékos válasza <b>megegyeznek</b>.</p>","null","","","","feedback trial","",""
"html-button-response-esp","101","621322","0.0-11.0-0.45","4285","Te bizony sokat vülődzöl. Én is sokat...","0","vülődzök","[""vülődzök"",""vülődzöm""]","vülődzök","esp trial","5","true"
"html-button-response","102","624852","0.0-11.0-1.45","null","<p>A másik játékos ezt választotta: <b>vülődzök</b>.</p><p>&#x2705;</p><p>A te válaszod és a másik játékos válasza <b>megegyeznek</b>.</p>","null","","","","feedback trial","",""
"html-button-response-esp","103","633263","0.0-11.0-0.46","3316","Te bizony sokat spülűdzöl. Én is sokat...","0","spülűdzök","[""spülűdzök"",""spülűdzöm""]","spülűdzök","esp trial","5","true"
"html-button-response","104","636782","0.0-11.0-1.46","null","<p>A másik játékos ezt választotta: <b>spülűdzök</b>.</p><p>&#x2705;</p><p>A te válaszod és a másik játékos válasza <b>megegyeznek</b>.</p>","null","","","","feedback trial","",""
"html-button-response-esp","105","645193","0.0-11.0-0.47","3738","Te bizony sokat salárzol. Én is sokat...","0","salárzom","[""salárzom"",""salárzok""]","salárzok","esp trial","5","false"
"html-button-response","106","648712","0.0-11.0-1.47","null","<p>A másik játékos ezt választotta: <b>salárzok</b>.</p><p>&#10060;</p><p>A válaszaitok <b>nem</b> egyeznek meg.</p>","null","","","","feedback trial","",""
"html-button-response-esp","107","657122","0.0-11.0-0.48","5715","Te bizony sokat huroslasz. Én is sokat...","0","huroslok","[""huroslok"",""huroslom""]","huroslok","esp trial","5","true"
"html-button-response","108","660642","0.0-11.0-1.48","null","<p>A másik játékos ezt választotta: <b>huroslok</b>.</p><p>&#x2705;</p><p>A te válaszod és a másik játékos válasza <b>megegyeznek</b>.</p>","null","","","","feedback trial","",""
"html-button-response-esp","109","669072","0.0-11.0-0.49","3824","Te bizony sokat pribagszol. Én is sokat...","1","pribagszom","[""pribagszok"",""pribagszom""]","pribagszom","esp trial","5","true"
"html-button-response","110","672592","0.0-11.0-1.49","null","<p>A másik játékos ezt választotta: <b>pribagszom</b>.</p><p>&#x2705;</p><p>A te válaszod és a másik játékos válasza <b>megegyeznek</b>.</p>","null","","","","feedback trial","",""
"html-button-response-esp","111","681013","0.0-11.0-0.50","5569","Te bizony sokat gyibeslesz. Én is sokat...","1","gyibeslek","[""gyibeslem"",""gyibeslek""]","gyibeslek","esp trial","5","true"
"html-button-response","112","684532","0.0-11.0-1.50","null","<p>A másik játékos ezt választotta: <b>gyibeslek</b>.</p><p>&#x2705;</p><p>A te válaszod és a másik játékos válasza <b>megegyeznek</b>.</p>","null","","","","feedback trial","",""
"html-button-response-esp","113","692933","0.0-11.0-0.51","7165","Te bizony sokat bivégszel. Én is sokat...","0","bivégszem","[""bivégszem"",""bivégszek""]","bivégszem","esp trial","5","true"
"html-button-response","114","696452","0.0-11.0-1.51","null","<p>A másik játékos ezt választotta: <b>bivégszem</b>.</p><p>&#x2705;</p><p>A te válaszod és a másik játékos válasza <b>megegyeznek</b>.</p>","null","","","","feedback trial","",""
"html-button-response-esp","115","704862","0.0-11.0-0.52","3391","Te bizony sokat vanylasz. Én is sokat...","0","vanylok","[""vanylok"",""vanylom""]","vanylok","esp trial","5","true"
"html-button-response","116","708382","0.0-11.0-1.52","null","<p>A másik játékos ezt választotta: <b>vanylok</b>.</p><p>&#x2705;</p><p>A te válaszod és a másik játékos válasza <b>megegyeznek</b>.</p>","null","","","","feedback trial","",""
"html-button-response-esp","117","716792","0.0-11.0-0.53","4697","Te bizony sokat pribemlesz. Én is sokat...","1","pribemlek","[""pribemlem"",""pribemlek""]","pribemlek","esp trial","5","true"
"html-button-response","118","720312","0.0-11.0-1.53","null","<p>A másik játékos ezt választotta: <b>pribemlek</b>.</p><p>&#x2705;</p><p>A te válaszod és a másik játékos válasza <b>megegyeznek</b>.</p>","null","","","","feedback trial","",""
"html-button-response","119","729941","0.0-12.0","9128","<p>A közös játék most véget ért.</p><p>Mielőtt eláruljuk a végső pontszámodat, arra kérlek, játszd a szóválasztós játékot néhány percig egyedül is.</p><p>A feladatod ugyanaz lesz, választani két lehetőség közül.</p><p>Most viszont egyedül kell döntened, hogy te melyiket választanád.</p>","0","","","","","",""
"html-button-response-clever","120","734709","0.0-13.0-0.0","4255","Te bizony sokat mékszel. Én is sokat...","0","mékszem","[""mékszem"",""mékszek""]","","posttest trial","8",""
"html-button-response-clever","121","738861","0.0-13.0-0.1","3647","Te bizony sokat flözlesz. Én is sokat...","0","flözlök","[""flözlök"",""flözlöm""]","","posttest trial","8",""
"html-button-response-clever","122","741541","0.0-13.0-0.2","2167","Te bizony sokat praslasz. Én is sokat...","1","praslok","[""praslom"",""praslok""]","","posttest trial","8",""
"html-button-response-clever","123","746837","0.0-13.0-0.3","4793","Te bizony sokat frivajlasz. Én is sokat...","1","frivajlok","[""frivajlom"",""frivajlok""]","","posttest trial","8",""
"html-button-response-clever","124","750469","0.0-13.0-0.4","3125","Te bizony sokat prihekszel. Én is sokat...","0","prihekszem","[""prihekszem"",""prihekszek""]","","posttest trial","8",""
"html-button-response-clever","125","767173","0.0-13.0-0.5","16199","Te bizony sokat spülőrzöl. Én is sokat...","0","spülőrzök","[""spülőrzök"",""spülőrzöm""]","","posttest trial","8",""
"html-button-response-clever","126","769805","0.0-13.0-0.6","2120","Te bizony sokat pugoslasz. Én is sokat...","0","pugoslok","[""pugoslok"",""pugoslom""]","","posttest trial","8",""
"html-button-response-clever","127","773774","0.0-13.0-0.7","3460","Te bizony sokat flibekszel. Én is sokat...","1","flibekszem","[""flibekszek"",""flibekszem""]","","posttest trial","8",""
"html-button-response-clever","128","776253","0.0-13.0-0.8","1969","Te bizony sokat spírzol. Én is sokat...","1","spírzom","[""spírzok"",""spírzom""]","","posttest trial","8",""
"html-button-response-clever","129","782117","0.0-13.0-0.9","5353","Te bizony sokat vihepszel. Én is sokat...","0","vihepszem","[""vihepszem"",""vihepszek""]","","posttest trial","8",""
"html-button-response-clever","130","785703","0.0-13.0-0.10","3069","Te bizony sokat spélszel. Én is sokat...","1","spélszem","[""spélszek"",""spélszem""]","","posttest trial","8",""
"html-button-response-clever","131","788513","0.0-13.0-0.11","2294","Te bizony sokat friszlasz. Én is sokat...","0","friszlok","[""friszlok"",""friszlom""]","","posttest trial","8",""
"html-button-response-clever","132","793248","0.0-13.0-0.12","4231","Te bizony sokat spibádzol. Én is sokat...","1","spibádzom","[""spibádzok"",""spibádzom""]","","posttest trial","8",""
"html-button-response-clever","133","795497","0.0-13.0-0.13","1739","Te bizony sokat fliraklasz. Én is sokat...","1","fliraklok","[""fliraklom"",""fliraklok""]","","posttest trial","8",""
"html-button-response-clever","134","812940","0.0-13.0-0.14","16932","Te bizony sokat prezlesz. Én is sokat...","0","prezlek","[""prezlek"",""prezlem""]","","posttest trial","8",""
"html-button-response-clever","135","816268","0.0-13.0-0.15","2821","Te bizony sokat gyivádzol. Én is sokat...","1","gyivádzom","[""gyivádzok"",""gyivádzom""]","","posttest trial","8",""
"html-button-response-clever","136","823540","0.0-13.0-0.16","6753","Te bizony sokat préleglesz. Én is sokat...","1","préleglek","[""préleglem"",""préleglek""]","","posttest trial","8",""
"html-button-response-clever","137","826292","0.0-13.0-0.17","2244","Te bizony sokat táklasz. Én is sokat...","1","táklok","[""táklom"",""táklok""]","","posttest trial","8",""
"html-button-response-clever","138","828397","0.0-13.0-0.18","1589","Te bizony sokat brarlasz. Én is sokat...","1","brarlok","[""brarlom"",""brarlok""]","","posttest trial","8",""
"html-button-response-clever","139","830364","0.0-13.0-0.19","1457","Te bizony sokat prohódzol. Én is sokat...","1","prohódzom","[""prohódzok"",""prohódzom""]","","posttest trial","8",""
"html-button-response-clever","140","834877","0.0-13.0-0.20","3989","Te bizony sokat aglasz. Én is sokat...","1","aglok","[""aglom"",""aglok""]","","posttest trial","8",""
"html-button-response-clever","141","840029","0.0-13.0-0.21","4641","Te bizony sokat vűjlesz. Én is sokat...","0","vűjlök","[""vűjlök"",""vűjlöm""]","","posttest trial","8",""
"html-button-response-clever","142","849092","0.0-13.0-0.22","8550","Te bizony sokat féjzel. Én is sokat...","0","féjzem","[""féjzem"",""féjzek""]","","posttest trial","8",""
"html-button-response-clever","143","851729","0.0-13.0-0.23","2127","Te bizony sokat plágadzol. Én is sokat...","1","plágadzok","[""plágadzom"",""plágadzok""]","","posttest trial","8",""
"html-button-response-clever","144","855361","0.0-13.0-0.24","3118","Te bizony sokat floglasz. Én is sokat...","0","floglok","[""floglok"",""floglom""]","","posttest trial","8",""
"html-button-response-clever","145","863140","0.0-13.0-0.25","7269","Te bizony sokat zödlesz. Én is sokat...","0","zödlök","[""zödlök"",""zödlöm""]","","posttest trial","8",""
"html-button-response-clever","146","867104","0.0-13.0-0.26","3452","Te bizony sokat klárzol. Én is sokat...","1","klárzom","[""klárzok"",""klárzom""]","","posttest trial","8",""
"html-button-response-clever","147","870168","0.0-13.0-0.27","2557","Te bizony sokat sztruglasz. Én is sokat...","0","sztruglok","[""sztruglok"",""sztruglom""]","","posttest trial","8",""
"html-button-response-clever","148","873496","0.0-13.0-0.28","2815","Te bizony sokat csólorzol. Én is sokat...","1","csólorzom","[""csólorzok"",""csólorzom""]","","posttest trial","8",""
"html-button-response-clever","149","881328","0.0-13.0-0.29","7317","Te bizony sokat livaklasz. Én is sokat...","1","livaklok","[""livaklom"",""livaklok""]","","posttest trial","8",""
"html-button-response-clever","150","886176","0.0-13.0-0.30","4335","Te bizony sokat flérlesz. Én is sokat...","1","flérlem","[""flérlek"",""flérlem""]","","posttest trial","8",""
"html-button-response-clever","151","890748","0.0-13.0-0.31","4056","Te bizony sokat bivejlesz. Én is sokat...","0","bivejlek","[""bivejlek"",""bivejlem""]","","posttest trial","8",""
"html-button-response-clever","152","894228","0.0-13.0-0.32","2977","Te bizony sokat gilárzol. Én is sokat...","0","gilárzom","[""gilárzom"",""gilárzok""]","","posttest trial","8",""
"html-button-response-clever","153","896732","0.0-13.0-0.33","1991","Te bizony sokat sprálszol. Én is sokat...","0","sprálszom","[""sprálszom"",""sprálszok""]","","posttest trial","8",""
"html-button-response-clever","154","898940","0.0-13.0-0.34","1699","Te bizony sokat sprédlesz. Én is sokat...","0","sprédlek","[""sprédlek"",""sprédlem""]","","posttest trial","8",""
"html-button-response-clever","155","900988","0.0-13.0-0.35","1537","Te bizony sokat lihadzol. Én is sokat...","1","lihadzom","[""lihadzok"",""lihadzom""]","","posttest trial","8",""
"html-button-response-clever","156","905208","0.0-13.0-0.36","3717","Te bizony sokat péleslesz. Én is sokat...","1","péleslek","[""péleslem"",""péleslek""]","","posttest trial","8",""
"html-button-response-clever","157","907780","0.0-13.0-0.37","2059","Te bizony sokat spatszol. Én is sokat...","0","spatszom","[""spatszom"",""spatszok""]","","posttest trial","8",""
"html-button-response-clever","158","910172","0.0-13.0-0.38","1890","Te bizony sokat gyibakszol. Én is sokat...","1","gyibakszom","[""gyibakszok"",""gyibakszom""]","","posttest trial","8",""
"html-button-response-clever","159","914492","0.0-13.0-0.39","3810","Te bizony sokat spüszlesz. Én is sokat...","1","spüszlök","[""spüszlöm"",""spüszlök""]","","posttest trial","8",""
"html-button-response-clever","160","917148","0.0-13.0-0.40","2147","Te bizony sokat kumlasz. Én is sokat...","0","kumlok","[""kumlok"",""kumlom""]","","posttest trial","8",""
"html-button-response-clever","161","921220","0.0-13.0-0.41","3569","Te bizony sokat fivénylesz. Én is sokat...","0","fivénylek","[""fivénylek"",""fivénylem""]","","posttest trial","8",""
"html-button-response-clever","162","926076","0.0-13.0-0.42","4345","Te bizony sokat ibáglasz. Én is sokat...","0","ibáglok","[""ibáglok"",""ibáglom""]","","posttest trial","8",""
"html-button-response-clever","163","932436","0.0-13.0-0.43","5844","Te bizony sokat trihagzol. Én is sokat...","0","trihagzom","[""trihagzom"",""trihagzok""]","","posttest trial","8",""
"html-button-response-clever","164","936900","0.0-13.0-0.44","3959","Te bizony sokat frágapszol. Én is sokat...","1","frágapszom","[""frágapszok"",""frágapszom""]","","posttest trial","8",""
"html-button-response-clever","165","940140","0.0-13.0-0.45","2729","Te bizony sokat klidlasz. Én is sokat...","1","klidlok","[""klidlom"",""klidlok""]","","posttest trial","8",""
"html-button-response-clever","166","946831","0.0-13.0-0.46","6181","Te bizony sokat gerénylesz. Én is sokat...","0","gerénylek","[""gerénylek"",""gerénylem""]","","posttest trial","8",""
"html-button-response-clever","167","951684","0.0-13.0-0.47","4344","Te bizony sokat huklasz. Én is sokat...","1","huklok","[""huklom"",""huklok""]","","posttest trial","8",""
"html-button-response-clever","168","955452","0.0-13.0-0.48","3261","Te bizony sokat drügzöl. Én is sokat...","1","drügzöm","[""drügzök"",""drügzöm""]","","posttest trial","8",""
"html-button-response-clever","169","959412","0.0-13.0-0.49","3451","Te bizony sokat plövőrzöl. Én is sokat...","1","plövőrzöm","[""plövőrzök"",""plövőrzöm""]","","posttest trial","8",""
"html-button-response-clever","170","962491","0.0-13.0-0.50","2571","Te bizony sokat tuboklasz. Én is sokat...","0","tuboklok","[""tuboklok"",""tuboklom""]","","posttest trial","8",""
"html-button-response-clever","171","965263","0.0-13.0-0.51","2268","Te bizony sokat fligzol. Én is sokat...","1","fligzom","[""fligzok"",""fligzom""]","","posttest trial","8",""
"html-button-response-clever","172","968832","0.0-13.0-0.52","3061","Te bizony sokat spülöklesz. Én is sokat...","0","spülöklök","[""spülöklök"",""spülöklöm""]","","posttest trial","8",""
"html-button-response-clever","173","972122","0.0-13.0-0.53","2779","Te bizony sokat szűslesz. Én is sokat...","0","szűslöm","[""szűslöm"",""szűslök""]","","posttest trial","8",""
"html-button-response","174","983074","0.0-14.0","10441","<p> Vége a játéknak. A teljes pontszámod 36/54.</p><p> Szép munka! &#128526;&#128526;&#128526;</p><p>A Befejezés gomb megnyomása után bezárhatod a böngészőablakot.</p>","0","","","","","",""
"html-keyboard-response","175","988592","0.0-15.0","null","<div class=""message"">
         <p>Egy kis türelmet kérünk, amíg elmentjük az adatokat...</p>
         </div>","null","","","","","",""
