"trial_type","trial_index","time_elapsed","internal_node_id","rt","stimulus","response","response_string","choices","esp_response","trial_kind","list_number","esp_match"
"pavlovia","0","785","0.0-0.0","","","","","","","","",""
"html-button-response","1","58136","0.0-1.0","56838","<p>Kedves Résztvevő! A Budapesti Műszaki és Gazdaságtudományi Egyetem Kognitív Tudományi Tanszékének kutatásában való részvételed kérjük. A kutatásban azt vizsgáljuk, hogy a magyar anyanyelvűek hogyan használnak bizonyos szóalakokat, és hogy milyen képük van arról, hogy mások hogyan használják, hogyan képzik a szavakat. Ez hozzásegít bennünket ahhoz, hogy jobban megértsük, hogyan dolgozza fel és tárolja a nyelvet az emberi agy, és hogyan működnek, hogyan változnak egy adott közösség nyelvi konvenciói.</p><p>A vizsgálat egy rövid számítógépes feladatból fog állni. A kutatásban való részvétel önkéntes, a részvételi szándék bármikor visszavonható. A résztvevők eredményeit név nélkül kezeljük, így nem beazonosíthatók az adatok feldolgozása során. Minden személyes adatot az EU általános adatvédelmi rendeletének (GDPR) megfelelően kezelünk és legfeljebb öt éven belül megsemmisítünk. A vizsgálat jellemzően húsz percet vesz igénybe.</p><p>Kutatásvezető:</p><p>Dr. Rácz Péter, tudományos munkatárs, BME KTT</p><p>e-mail: racz.peter.marton@ttk.bme.hu</p>","0","","","","","",""
"html-button-response","2","93949","0.0-2.0","35299","<p>A kísérletben szavakat fogsz látni. Ezek között lesznek olyanok, amelyeket ismersz, de előfordulhatnak olyanok is, amelyeket nem ismersz, sőt, vannak köztük kitalált szavak is. Minden szónál látni fogsz toldalékolt alakokat. A te feladatod az lesz, hogy minden szóhoz kiválaszd azt a toldalékolt alakot, amely a te számodra ismerősebben, természetesebben hangzik. Rossz válaszok nincsenek, mert van olyan, hogy különböző embereknek más és más szó tűnik jobb választásnak. A választ úgy tudod majd kiválasztani, ha rákattintasz.</p><p>Ebben a szóválasztós játékban egy másik játékossal együtt veszel majd részt. A másik játékos is minden esetben azok közül a lehetőségek közül válogathat, mint te. Kettőtök feladata az, hogy ugyanazt a lehetőséget válasszátok minden esetben. Ahhoz, hogy ez sikerüljön, neked figyelned kell arra, hogy a másik játékos milyen válaszokat ad, és ennek alapján meg kell tippelned, hogyan választ legközelebb. Ha eltalálod, akkor pontot kapsz.</p>","0","","","","","",""
"html-button-response","3","146020","0.0-3.0","51552","<p>Kérjük, olvasd el az alábbi nyilatkozatot, és amennyiben egyetértesz vele, nyomj a Beleegyezés gombra!</p><p>Kijelentem, hogy magyar anyanyelvű személyként önként veszek részt a BME KTT kísérletében. A kutatás céljával és folyamatával kapcsolatban elegendő tájékoztatást kaptam, lehetőségem volt kérdések feltételére, és esetleges kérdéseimre megfelelő válaszokat kaptam. A tájékoztatás alapján elegendő mennyiségű információ áll a rendelkezésemre, hogy eldönthessem, részt kívánok-e venni a kutatásban.</p><p>Tisztában vagyok vele, hogy részvételi szándékomat és adataimat bármikor, indoklás nélkül visszavonhatom.</p><p>Értem és tudomásul veszem, hogy a kutatás tudományos célokat szolgál, és az általam szolgáltatott adatokat a BME kizárólag kutatási célból használja fel. Tudomásul veszem, hogy eredményeimet a többi résztvevő eredményeivel együtt kezelik, így egyéni teljesítményemről visszajelzést, szakvéleményt nem kapok.</p><p>Megértettem, hogy adataim kezelését illetően a BME az EU általános adatvédelmi rendelete (GDPR), a hatályos adatvédelmi törvény és a nemzetközi kutatás-etikai alapelvek szerint jár el. Eredményeim anonim módon kerülnek feldolgozásra, és a kutatás résztvevői az azonosításomra alkalmas adataimat harmadik félnek nem szolgáltatják ki. Engedélyezem a BME számára a jelen kutatásban felvett adataim feldolgozását és tárolását, beleértve azok későbbi kutatásokhoz való felhasználását is. Személyes adataim kezelésével kapcsolatban tájékoztatást kérhetek a kutatás résztvevőitől, az adatkezelés ellen tiltakozhatok, kérhetem személyes adataim helyesbítését, törlését vagy zárolását, valamint jogorvoslatért a Nemzeti Adatvédelmi és Információszabadság Hatósághoz fordulhatok.</p><p>Kijelentem, hogy a kutatásban való részvételem körülményeiről részletes tájékoztatást kaptam, és a feltételeket elfogadom.</p>","0","","","","","",""
"survey-text","4","176112","0.0-4.0","29565","","{""Q0"":""SN205"",""Q1"":"""",""Q2"":""2001"",""Q3"":""14""}","","","","","",""
"html-button-response","5","239462","0.0-5.0","62837","<p>Ebben a játékban szavakat kell toldalékolni.</p> <p>Minden körben mutatunk majd egy példamondatot, amiben lesz egy szó.</p> <p>Alatta jön egy második mondat, ezt a mondatot neked kell majd befejezni, ugyanezzel a szóval.</p> <p>Nem biztos, hogy a szó eleve ismerős lesz számodra!</p> <p>Minden mondathoz adunk két lehetőséget, ezeket balra és jobbra látod majd.</p> <p>A játék kb. negyedóráig-húsz percig tart.</p>","0","","","","","",""
"html-button-response","6","251125","0.0-6.0","11147","<p>Nézzünk egy példát!</p> <p>A példamondat: ""János nagyon szeret rancsúrozni.""</p><p>Neked ezt a mondatot kell befejezned: ""Én is szívesen...""</p><p>A lehetőségek pedig ezek:</p>","1","","","","","",""
"html-button-response","7","258453","0.0-7.0","6820","<p>Nagyon jó.</p><p>Ezt a játékot nem egyedül fogod játszani, hanem egy másik játékossal.</p><p>Mielőtt továbblépünk, összekapcsolunk titeket egymással.</p><p>Ez igénybe vehet néhány másodpercet, amihez szíves türelmed kérjük.</p>","0","","","","","",""
"html-button-response","8","264205","0.0-8.0","null","<p>Csatlakozás a másik játékoshoz...</p>","null","","","","","",""
"html-button-response","9","266720","0.0-9.0","null","<p> Sikeres kapcsolódás!</p>","null","","","","","",""
"html-button-response","10","277243","0.0-10.0","null","<p>A következőkben ketten játsszátok a szóválasztós játékot.</p><p>A feladatotok az lesz, hogy minden körben <b>ugyanazt</b> a szót válasszátok.</p><p>Minden ilyen egyező válaszért pontot kaptok.</p><p>Próbáld meg kitalálni, mit választ a másik játékos!</p><p>Bármikor választhatsz, a körnek akkor van vége, ha mindketten döntöttetek.</p><p>Sok sikert!</p>","null","","","","","",""
"html-button-response-esp","11","286794","0.0-11.0-0.0","7931","Te bizony sokat tínylasz. Én is sokat...","1","tínylok","[""tínylom"",""tínylok""]","tínylok","esp trial","1","true"
"html-button-response","12","290313","0.0-11.0-1.0","null","<p>A másik játékos ezt választotta: <b>tínylok</b>.</p><p>&#x2705;</p><p>A te válaszod és a másik játékos válasza <b>megegyeznek</b>.</p>","null","","","","feedback trial","",""
"html-button-response-esp","13","299881","0.0-11.0-0.1","6638","Te bizony sokat frilegszel. Én is sokat...","0","frilegszem","[""frilegszem"",""frilegszek""]","frilegszem","esp trial","1","true"
"html-button-response","14","303418","0.0-11.0-1.1","null","<p>A másik játékos ezt választotta: <b>frilegszem</b>.</p><p>&#x2705;</p><p>A te válaszod és a másik játékos válasza <b>megegyeznek</b>.</p>","null","","","","feedback trial","",""
"html-button-response-esp","15","312977","0.0-11.0-0.2","6583","Te bizony sokat spűmlesz. Én is sokat...","0","spűmlök","[""spűmlök"",""spűmlöm""]","spűmlök","esp trial","1","true"
"html-button-response","16","316502","0.0-11.0-1.2","null","<p>A másik játékos ezt választotta: <b>spűmlök</b>.</p><p>&#x2705;</p><p>A te válaszod és a másik játékos válasza <b>megegyeznek</b>.</p>","null","","","","feedback trial","",""
"html-button-response-esp","17","326058","0.0-11.0-0.3","4066","Te bizony sokat büglesz. Én is sokat...","1","büglök","[""büglöm"",""büglök""]","büglök","esp trial","1","true"
"html-button-response","18","329580","0.0-11.0-1.3","null","<p>A másik játékos ezt választotta: <b>büglök</b>.</p><p>&#x2705;</p><p>A te válaszod és a másik játékos válasza <b>megegyeznek</b>.</p>","null","","","","feedback trial","",""
"html-button-response-esp","19","339143","0.0-11.0-0.4","4429","Te bizony sokat marzol. Én is sokat...","1","marzok","[""marzom"",""marzok""]","marzok","esp trial","1","true"
"html-button-response","20","342660","0.0-11.0-1.4","null","<p>A másik játékos ezt választotta: <b>marzok</b>.</p><p>&#x2705;</p><p>A te válaszod és a másik játékos válasza <b>megegyeznek</b>.</p>","null","","","","feedback trial","",""
"html-button-response-esp","21","352212","0.0-11.0-0.5","3729","Te bizony sokat böjzöl. Én is sokat...","1","böjzök","[""böjzöm"",""böjzök""]","böjzök","esp trial","1","true"
"html-button-response","22","355725","0.0-11.0-1.5","null","<p>A másik játékos ezt választotta: <b>böjzök</b>.</p><p>&#x2705;</p><p>A te válaszod és a másik játékos válasza <b>megegyeznek</b>.</p>","null","","","","feedback trial","",""
"html-button-response-esp","23","365277","0.0-11.0-0.6","5372","Te bizony sokat drubódzol. Én is sokat...","1","drubódzok","[""drubódzom"",""drubódzok""]","drubódzom","esp trial","1","false"
"html-button-response","24","368810","0.0-11.0-1.6","null","<p>A másik játékos ezt választotta: <b>drubódzom</b>.</p><p>&#10060;</p><p>A válaszaitok <b>nem</b> egyeznek meg.</p>","null","","","","feedback trial","",""
"html-button-response-esp","25","378364","0.0-11.0-0.7","5229","Te bizony sokat flagánylasz. Én is sokat...","1","flagánylok","[""flagánylom"",""flagánylok""]","flagánylok","esp trial","1","true"
"html-button-response","26","381889","0.0-11.0-1.7","null","<p>A másik játékos ezt választotta: <b>flagánylok</b>.</p><p>&#x2705;</p><p>A te válaszod és a másik játékos válasza <b>megegyeznek</b>.</p>","null","","","","feedback trial","",""
"html-button-response-esp","27","391436","0.0-11.0-0.8","3850","Te bizony sokat tomlasz. Én is sokat...","0","tomlok","[""tomlok"",""tomlom""]","tomlok","esp trial","1","true"
"html-button-response","28","394965","0.0-11.0-1.8","null","<p>A másik játékos ezt választotta: <b>tomlok</b>.</p><p>&#x2705;</p><p>A te válaszod és a másik játékos válasza <b>megegyeznek</b>.</p>","null","","","","feedback trial","",""
"html-button-response-esp","29","404527","0.0-11.0-0.9","3814","Te bizony sokat ruslasz. Én is sokat...","0","ruslok","[""ruslok"",""ruslom""]","ruslok","esp trial","1","true"
"html-button-response","30","408066","0.0-11.0-1.9","null","<p>A másik játékos ezt választotta: <b>ruslok</b>.</p><p>&#x2705;</p><p>A te válaszod és a másik játékos válasza <b>megegyeznek</b>.</p>","null","","","","feedback trial","",""
"html-button-response-esp","31","417634","0.0-11.0-0.10","3653","Te bizony sokat jüslesz. Én is sokat...","1","jüslök","[""jüslöm"",""jüslök""]","jüslök","esp trial","1","true"
"html-button-response","32","421148","0.0-11.0-1.10","null","<p>A másik játékos ezt választotta: <b>jüslök</b>.</p><p>&#x2705;</p><p>A te válaszod és a másik játékos válasza <b>megegyeznek</b>.</p>","null","","","","feedback trial","",""
"html-button-response-esp","33","430691","0.0-11.0-0.11","5744","Te bizony sokat spatárzol. Én is sokat...","1","spatárzok","[""spatárzom"",""spatárzok""]","spatárzok","esp trial","1","true"
"html-button-response","34","434212","0.0-11.0-1.11","null","<p>A másik játékos ezt választotta: <b>spatárzok</b>.</p><p>&#x2705;</p><p>A te válaszod és a másik játékos válasza <b>megegyeznek</b>.</p>","null","","","","feedback trial","",""
"html-button-response-esp","35","443772","0.0-11.0-0.12","3384","Te bizony sokat ribzol. Én is sokat...","0","ribzok","[""ribzok"",""ribzom""]","ribzom","esp trial","1","false"
"html-button-response","36","447298","0.0-11.0-1.12","null","<p>A másik játékos ezt választotta: <b>ribzom</b>.</p><p>&#10060;</p><p>A válaszaitok <b>nem</b> egyeznek meg.</p>","null","","","","feedback trial","",""
"html-button-response-esp","37","456858","0.0-11.0-0.13","5254","Te bizony sokat driládzol. Én is sokat...","0","driládzok","[""driládzok"",""driládzom""]","driládzom","esp trial","1","false"
"html-button-response","38","460386","0.0-11.0-1.13","null","<p>A másik játékos ezt választotta: <b>driládzom</b>.</p><p>&#10060;</p><p>A válaszaitok <b>nem</b> egyeznek meg.</p>","null","","","","feedback trial","",""
"html-button-response-esp","39","469946","0.0-11.0-0.14","5392","Te bizony sokat lorjódzol. Én is sokat...","0","lorjódzom","[""lorjódzom"",""lorjódzok""]","lorjódzok","esp trial","1","false"
"html-button-response","40","473474","0.0-11.0-1.14","null","<p>A másik játékos ezt választotta: <b>lorjódzok</b>.</p><p>&#10060;</p><p>A válaszaitok <b>nem</b> egyeznek meg.</p>","null","","","","feedback trial","",""
"html-button-response-esp","41","483033","0.0-11.0-0.15","4830","Te bizony sokat brágaklasz. Én is sokat...","1","brágaklok","[""brágaklom"",""brágaklok""]","brágaklom","esp trial","1","false"
"html-button-response","42","486562","0.0-11.0-1.15","null","<p>A másik játékos ezt választotta: <b>brágaklom</b>.</p><p>&#10060;</p><p>A válaszaitok <b>nem</b> egyeznek meg.</p>","null","","","","feedback trial","",""
"html-button-response-esp","43","496127","0.0-11.0-0.16","5049","Te bizony sokat spilágzol. Én is sokat...","1","spilágzom","[""spilágzok"",""spilágzom""]","spilágzom","esp trial","1","true"
"html-button-response","44","499675","0.0-11.0-1.16","null","<p>A másik játékos ezt választotta: <b>spilágzom</b>.</p><p>&#x2705;</p><p>A te válaszod és a másik játékos válasza <b>megegyeznek</b>.</p>","null","","","","feedback trial","",""
"html-button-response-esp","45","509221","0.0-11.0-0.17","5522","Te bizony sokat klörlesz. Én is sokat...","1","klörlök","[""klörlöm"",""klörlök""]","klörlök","esp trial","1","true"
"html-button-response","46","512754","0.0-11.0-1.17","null","<p>A másik játékos ezt választotta: <b>klörlök</b>.</p><p>&#x2705;</p><p>A te válaszod és a másik játékos válasza <b>megegyeznek</b>.</p>","null","","","","feedback trial","",""
"html-button-response-esp","47","522327","0.0-11.0-0.18","3618","Te bizony sokat málapszol. Én is sokat...","1","málapszom","[""málapszok"",""málapszom""]","málapszok","esp trial","1","false"
"html-button-response","48","525857","0.0-11.0-1.18","null","<p>A másik játékos ezt választotta: <b>málapszok</b>.</p><p>&#10060;</p><p>A válaszaitok <b>nem</b> egyeznek meg.</p>","null","","","","feedback trial","",""
"html-button-response-esp","49","535411","0.0-11.0-0.19","5921","Te bizony sokat siladzol. Én is sokat...","0","siladzom","[""siladzom"",""siladzok""]","siladzom","esp trial","1","true"
"html-button-response","50","538942","0.0-11.0-1.19","null","<p>A másik játékos ezt választotta: <b>siladzom</b>.</p><p>&#x2705;</p><p>A te válaszod és a másik játékos válasza <b>megegyeznek</b>.</p>","null","","","","feedback trial","",""
"html-button-response-esp","51","548504","0.0-11.0-0.20","7137","Te bizony sokat nyáslasz. Én is sokat...","0","nyáslok","[""nyáslok"",""nyáslom""]","nyáslok","esp trial","1","true"
"html-button-response","52","552039","0.0-11.0-1.20","null","<p>A másik játékos ezt választotta: <b>nyáslok</b>.</p><p>&#x2705;</p><p>A te válaszod és a másik játékos válasza <b>megegyeznek</b>.</p>","null","","","","feedback trial","",""
"html-button-response-esp","53","562317","0.0-11.0-0.21","9761","Te bizony sokat flűröklesz. Én is sokat...","0","flűröklöm","[""flűröklöm"",""flűröklök""]","flűröklök","esp trial","1","false"
"html-button-response","54","565847","0.0-11.0-1.21","null","<p>A másik játékos ezt választotta: <b>flűröklök</b>.</p><p>&#10060;</p><p>A válaszaitok <b>nem</b> egyeznek meg.</p>","null","","","","feedback trial","",""
"html-button-response-esp","55","575406","0.0-11.0-0.22","3940","Te bizony sokat femlesz. Én is sokat...","1","femlek","[""femlem"",""femlek""]","femlek","esp trial","1","true"
"html-button-response","56","578932","0.0-11.0-1.22","null","<p>A másik játékos ezt választotta: <b>femlek</b>.</p><p>&#x2705;</p><p>A te válaszod és a másik játékos válasza <b>megegyeznek</b>.</p>","null","","","","feedback trial","",""
"html-button-response-esp","57","593267","0.0-11.0-0.23","13824","Te bizony sokat prűrlesz. Én is sokat...","0","prűrlök","[""prűrlök"",""prűrlöm""]","prűrlök","esp trial","1","true"
"html-button-response","58","596791","0.0-11.0-1.23","null","<p>A másik játékos ezt választotta: <b>prűrlök</b>.</p><p>&#x2705;</p><p>A te válaszod és a másik játékos válasza <b>megegyeznek</b>.</p>","null","","","","feedback trial","",""
"html-button-response-esp","59","606352","0.0-11.0-0.24","4349","Te bizony sokat brüjlesz. Én is sokat...","0","brüjlök","[""brüjlök"",""brüjlöm""]","brüjlök","esp trial","1","true"
"html-button-response","60","609884","0.0-11.0-1.24","null","<p>A másik játékos ezt választotta: <b>brüjlök</b>.</p><p>&#x2705;</p><p>A te válaszod és a másik játékos válasza <b>megegyeznek</b>.</p>","null","","","","feedback trial","",""
"html-button-response-esp","61","619436","0.0-11.0-0.25","5848","Te bizony sokat sűzlesz. Én is sokat...","0","sűzlöm","[""sűzlöm"",""sűzlök""]","sűzlök","esp trial","1","false"
"html-button-response","62","622963","0.0-11.0-1.25","null","<p>A másik játékos ezt választotta: <b>sűzlök</b>.</p><p>&#10060;</p><p>A válaszaitok <b>nem</b> egyeznek meg.</p>","null","","","","feedback trial","",""
"html-button-response-esp","63","632506","0.0-11.0-0.26","3351","Te bizony sokat feténylesz. Én is sokat...","0","feténylek","[""feténylek"",""feténylem""]","feténylek","esp trial","1","true"
"html-button-response","64","636038","0.0-11.0-1.26","null","<p>A másik játékos ezt választotta: <b>feténylek</b>.</p><p>&#x2705;</p><p>A te válaszod és a másik játékos válasza <b>megegyeznek</b>.</p>","null","","","","feedback trial","",""
"html-button-response-esp","65","645601","0.0-11.0-0.27","5921","Te bizony sokat sprogzol. Én is sokat...","1","sprogzom","[""sprogzok"",""sprogzom""]","sprogzom","esp trial","1","true"
"html-button-response","66","649128","0.0-11.0-1.27","null","<p>A másik játékos ezt választotta: <b>sprogzom</b>.</p><p>&#x2705;</p><p>A te válaszod és a másik játékos válasza <b>megegyeznek</b>.</p>","null","","","","feedback trial","",""
"html-button-response-esp","67","658691","0.0-11.0-0.28","4014","Te bizony sokat sprökszöl. Én is sokat...","0","sprökszöm","[""sprökszöm"",""sprökszök""]","sprökszöm","esp trial","1","true"
"html-button-response","68","662211","0.0-11.0-1.28","null","<p>A másik játékos ezt választotta: <b>sprökszöm</b>.</p><p>&#x2705;</p><p>A te válaszod és a másik játékos válasza <b>megegyeznek</b>.</p>","null","","","","feedback trial","",""
"html-button-response-esp","69","671767","0.0-11.0-0.29","4581","Te bizony sokat prilegzel. Én is sokat...","0","prilegzem","[""prilegzem"",""prilegzek""]","prilegzem","esp trial","1","true"
"html-button-response","70","675305","0.0-11.0-1.29","null","<p>A másik játékos ezt választotta: <b>prilegzem</b>.</p><p>&#x2705;</p><p>A te válaszod és a másik játékos válasza <b>megegyeznek</b>.</p>","null","","","","feedback trial","",""
"html-button-response-esp","71","684867","0.0-11.0-0.30","5015","Te bizony sokat trilszol. Én is sokat...","1","trilszom","[""trilszok"",""trilszom""]","trilszok","esp trial","1","false"
"html-button-response","72","688402","0.0-11.0-1.30","null","<p>A másik játékos ezt választotta: <b>trilszok</b>.</p><p>&#10060;</p><p>A válaszaitok <b>nem</b> egyeznek meg.</p>","null","","","","feedback trial","",""
"html-button-response-esp","73","702212","0.0-11.0-0.31","13296","Te bizony sokat fretszel. Én is sokat...","0","fretszem","[""fretszem"",""fretszek""]","fretszek","esp trial","1","false"
"html-button-response","74","705735","0.0-11.0-1.31","null","<p>A másik játékos ezt választotta: <b>fretszek</b>.</p><p>&#10060;</p><p>A válaszaitok <b>nem</b> egyeznek meg.</p>","null","","","","feedback trial","",""
"html-button-response-esp","75","715292","0.0-11.0-0.32","4946","Te bizony sokat sojzol. Én is sokat...","1","sojzok","[""sojzom"",""sojzok""]","sojzom","esp trial","1","false"
"html-button-response","76","718819","0.0-11.0-1.32","null","<p>A másik játékos ezt választotta: <b>sojzom</b>.</p><p>&#10060;</p><p>A válaszaitok <b>nem</b> egyeznek meg.</p>","null","","","","feedback trial","",""
"html-button-response-esp","77","728377","0.0-11.0-0.33","5266","Te bizony sokat klibamlasz. Én is sokat...","1","klibamlok","[""klibamlom"",""klibamlok""]","klibamlok","esp trial","1","true"
"html-button-response","78","731891","0.0-11.0-1.33","null","<p>A másik játékos ezt választotta: <b>klibamlok</b>.</p><p>&#x2705;</p><p>A te válaszod és a másik játékos válasza <b>megegyeznek</b>.</p>","null","","","","feedback trial","",""
"html-button-response-esp","79","750415","0.0-11.0-0.34","18005","Te bizony sokat bölszöl. Én is sokat...","1","bölszök","[""bölszöm"",""bölszök""]","bölszök","esp trial","1","true"
"html-button-response","80","753946","0.0-11.0-1.34","null","<p>A másik játékos ezt választotta: <b>bölszök</b>.</p><p>&#x2705;</p><p>A te válaszod és a másik játékos válasza <b>megegyeznek</b>.</p>","null","","","","feedback trial","",""
"html-button-response-esp","81","763495","0.0-11.0-0.35","5766","Te bizony sokat flagárzol. Én is sokat...","1","flagárzok","[""flagárzom"",""flagárzok""]","flagárzok","esp trial","1","true"
"html-button-response","82","767020","0.0-11.0-1.35","null","<p>A másik játékos ezt választotta: <b>flagárzok</b>.</p><p>&#x2705;</p><p>A te válaszod és a másik játékos válasza <b>megegyeznek</b>.</p>","null","","","","feedback trial","",""
"html-button-response-esp","83","776573","0.0-11.0-0.36","5550","Te bizony sokat flüröslesz. Én is sokat...","0","flüröslöm","[""flüröslöm"",""flüröslök""]","flüröslök","esp trial","1","false"
"html-button-response","84","780109","0.0-11.0-1.36","null","<p>A másik játékos ezt választotta: <b>flüröslök</b>.</p><p>&#10060;</p><p>A válaszaitok <b>nem</b> egyeznek meg.</p>","null","","","","feedback trial","",""
"html-button-response-esp","85","789672","0.0-11.0-0.37","2783","Te bizony sokat juszlasz. Én is sokat...","0","juszlok","[""juszlok"",""juszlom""]","juszlok","esp trial","1","true"
"html-button-response","86","793207","0.0-11.0-1.37","null","<p>A másik játékos ezt választotta: <b>juszlok</b>.</p><p>&#x2705;</p><p>A te válaszod és a másik játékos válasza <b>megegyeznek</b>.</p>","null","","","","feedback trial","",""
"html-button-response-esp","87","802756","0.0-11.0-0.38","5482","Te bizony sokat fibamlasz. Én is sokat...","1","fibamlok","[""fibamlom"",""fibamlok""]","fibamlok","esp trial","1","true"
"html-button-response","88","806275","0.0-11.0-1.38","null","<p>A másik játékos ezt választotta: <b>fibamlok</b>.</p><p>&#x2705;</p><p>A te válaszod és a másik játékos válasza <b>megegyeznek</b>.</p>","null","","","","feedback trial","",""
"html-button-response-esp","89","816138","0.0-11.0-0.39","9356","Te bizony sokat csíszlasz. Én is sokat...","0","csíszlok","[""csíszlok"",""csíszlom""]","csíszlok","esp trial","1","true"
"html-button-response","90","819661","0.0-11.0-1.39","null","<p>A másik játékos ezt választotta: <b>csíszlok</b>.</p><p>&#x2705;</p><p>A te válaszod és a másik játékos válasza <b>megegyeznek</b>.</p>","null","","","","feedback trial","",""
"html-button-response-esp","91","829215","0.0-11.0-0.40","5274","Te bizony sokat spibaklasz. Én is sokat...","0","spibaklok","[""spibaklok"",""spibaklom""]","spibaklok","esp trial","1","true"
"html-button-response","92","832748","0.0-11.0-1.40","null","<p>A másik játékos ezt választotta: <b>spibaklok</b>.</p><p>&#x2705;</p><p>A te válaszod és a másik játékos válasza <b>megegyeznek</b>.</p>","null","","","","feedback trial","",""
"html-button-response-esp","93","842314","0.0-11.0-0.41","5780","Te bizony sokat spéslesz. Én is sokat...","0","spéslek","[""spéslek"",""spéslem""]","spéslek","esp trial","1","true"
"html-button-response","94","845839","0.0-11.0-1.41","null","<p>A másik játékos ezt választotta: <b>spéslek</b>.</p><p>&#x2705;</p><p>A te válaszod és a másik játékos válasza <b>megegyeznek</b>.</p>","null","","","","feedback trial","",""
"html-button-response-esp","95","855405","0.0-11.0-0.42","5245","Te bizony sokat pebzel. Én is sokat...","0","pebzek","[""pebzek"",""pebzem""]","pebzek","esp trial","1","true"
"html-button-response","96","858938","0.0-11.0-1.42","null","<p>A másik játékos ezt választotta: <b>pebzek</b>.</p><p>&#x2705;</p><p>A te válaszod és a másik játékos válasza <b>megegyeznek</b>.</p>","null","","","","feedback trial","",""
"html-button-response-esp","97","868501","0.0-11.0-0.43","5116","Te bizony sokat sztremlesz. Én is sokat...","0","sztremlek","[""sztremlek"",""sztremlem""]","sztremlek","esp trial","1","true"
"html-button-response","98","872019","0.0-11.0-1.43","null","<p>A másik játékos ezt választotta: <b>sztremlek</b>.</p><p>&#x2705;</p><p>A te válaszod és a másik játékos válasza <b>megegyeznek</b>.</p>","null","","","","feedback trial","",""
"html-button-response-esp","99","881568","0.0-11.0-0.44","4482","Te bizony sokat narjárzol. Én is sokat...","0","narjárzok","[""narjárzok"",""narjárzom""]","narjárzok","esp trial","1","true"
"html-button-response","100","885098","0.0-11.0-1.44","null","<p>A másik játékos ezt választotta: <b>narjárzok</b>.</p><p>&#x2705;</p><p>A te válaszod és a másik játékos válasza <b>megegyeznek</b>.</p>","null","","","","feedback trial","",""
"html-button-response-esp","101","894642","0.0-11.0-0.45","4098","Te bizony sokat tiregzel. Én is sokat...","0","tiregzek","[""tiregzek"",""tiregzem""]","tiregzek","esp trial","1","true"
"html-button-response","102","898187","0.0-11.0-1.45","null","<p>A másik játékos ezt választotta: <b>tiregzek</b>.</p><p>&#x2705;</p><p>A te válaszod és a másik játékos válasza <b>megegyeznek</b>.</p>","null","","","","feedback trial","",""
"html-button-response-esp","103","907743","0.0-11.0-0.46","6273","Te bizony sokat piragszol. Én is sokat...","1","piragszom","[""piragszok"",""piragszom""]","piragszom","esp trial","1","true"
"html-button-response","104","911269","0.0-11.0-1.46","null","<p>A másik játékos ezt választotta: <b>piragszom</b>.</p><p>&#x2705;</p><p>A te válaszod és a másik játékos válasza <b>megegyeznek</b>.</p>","null","","","","feedback trial","",""
"html-button-response-esp","105","920818","0.0-11.0-0.47","3802","Te bizony sokat hilarzol. Én is sokat...","0","hilarzom","[""hilarzom"",""hilarzok""]","hilarzok","esp trial","1","false"
"html-button-response","106","924346","0.0-11.0-1.47","null","<p>A másik játékos ezt választotta: <b>hilarzok</b>.</p><p>&#10060;</p><p>A válaszaitok <b>nem</b> egyeznek meg.</p>","null","","","","feedback trial","",""
"html-button-response-esp","107","933893","0.0-11.0-0.48","5237","Te bizony sokat pivegszel. Én is sokat...","1","pivegszem","[""pivegszek"",""pivegszem""]","pivegszem","esp trial","1","true"
"html-button-response","108","937413","0.0-11.0-1.48","null","<p>A másik játékos ezt választotta: <b>pivegszem</b>.</p><p>&#x2705;</p><p>A te válaszod és a másik játékos válasza <b>megegyeznek</b>.</p>","null","","","","feedback trial","",""
"html-button-response-esp","109","946975","0.0-11.0-0.49","5643","Te bizony sokat herégszel. Én is sokat...","0","herégszem","[""herégszem"",""herégszek""]","herégszem","esp trial","1","true"
"html-button-response","110","950484","0.0-11.0-1.49","null","<p>A másik játékos ezt választotta: <b>herégszem</b>.</p><p>&#x2705;</p><p>A te válaszod és a másik játékos válasza <b>megegyeznek</b>.</p>","null","","","","feedback trial","",""
"html-button-response-esp","111","960051","0.0-11.0-0.50","4569","Te bizony sokat ribegzel. Én is sokat...","0","ribegzek","[""ribegzek"",""ribegzem""]","ribegzek","esp trial","1","true"
"html-button-response","112","963588","0.0-11.0-1.50","null","<p>A másik játékos ezt választotta: <b>ribegzek</b>.</p><p>&#x2705;</p><p>A te válaszod és a másik játékos válasza <b>megegyeznek</b>.</p>","null","","","","feedback trial","",""
"html-button-response-esp","113","973156","0.0-11.0-0.51","3665","Te bizony sokat vilakszol. Én is sokat...","0","vilakszom","[""vilakszom"",""vilakszok""]","vilakszom","esp trial","1","true"
"html-button-response","114","976681","0.0-11.0-1.51","null","<p>A másik játékos ezt választotta: <b>vilakszom</b>.</p><p>&#x2705;</p><p>A te válaszod és a másik játékos válasza <b>megegyeznek</b>.</p>","null","","","","feedback trial","",""
"html-button-response-esp","115","986247","0.0-11.0-0.52","3648","Te bizony sokat pratánylasz. Én is sokat...","0","pratánylok","[""pratánylok"",""pratánylom""]","pratánylok","esp trial","1","true"
"html-button-response","116","989764","0.0-11.0-1.52","null","<p>A másik játékos ezt választotta: <b>pratánylok</b>.</p><p>&#x2705;</p><p>A te válaszod és a másik játékos válasza <b>megegyeznek</b>.</p>","null","","","","feedback trial","",""
"html-button-response-esp","117","999322","0.0-11.0-0.53","5894","Te bizony sokat szirlasz. Én is sokat...","1","szirlok","[""szirlom"",""szirlok""]","szirlok","esp trial","1","true"
"html-button-response","118","1002846","0.0-11.0-1.53","null","<p>A másik játékos ezt választotta: <b>szirlok</b>.</p><p>&#x2705;</p><p>A te válaszod és a másik játékos válasza <b>megegyeznek</b>.</p>","null","","","","feedback trial","",""
"html-button-response","119","1014631","0.0-12.0","11276","<p>A közös játék most véget ért.</p><p>Mielőtt eláruljuk a végső pontszámodat, arra kérlek, játszd a szóválasztós játékot néhány percig egyedül is.</p><p>A feladatod ugyanaz lesz, választani két lehetőség közül.</p><p>Most viszont egyedül kell döntened, hogy te melyiket választanád.</p>","0","","","","","",""
"html-button-response-clever","120","1019404","0.0-13.0-0.0","4256","Te bizony sokat brobódzol. Én is sokat...","0","brobódzok","[""brobódzok"",""brobódzom""]","","posttest trial","4",""
"html-button-response-clever","121","1024134","0.0-13.0-0.1","4222","Te bizony sokat spröbzöl. Én is sokat...","1","spröbzöm","[""spröbzök"",""spröbzöm""]","","posttest trial","4",""
"html-button-response-clever","122","1027900","0.0-13.0-0.2","3253","Te bizony sokat ibékszel. Én is sokat...","1","ibékszem","[""ibékszek"",""ibékszem""]","","posttest trial","4",""
"html-button-response-clever","123","1032864","0.0-13.0-0.3","4445","Te bizony sokat salárzol. Én is sokat...","0","salárzok","[""salárzok"",""salárzom""]","","posttest trial","4",""
"html-button-response-clever","124","1037913","0.0-13.0-0.4","4535","Te bizony sokat spubonylasz. Én is sokat...","0","spubonylok","[""spubonylok"",""spubonylom""]","","posttest trial","4",""
"html-button-response-clever","125","1041060","0.0-13.0-0.5","2639","Te bizony sokat narádzol. Én is sokat...","0","narádzom","[""narádzom"",""narádzok""]","","posttest trial","4",""
"html-button-response-clever","126","1044426","0.0-13.0-0.6","2858","Te bizony sokat brivegzel. Én is sokat...","0","brivegzem","[""brivegzem"",""brivegzek""]","","posttest trial","4",""
"html-button-response-clever","127","1053246","0.0-13.0-0.7","8306","Te bizony sokat spüjzöl. Én is sokat...","0","spüjzök","[""spüjzök"",""spüjzöm""]","","posttest trial","4",""
"html-button-response-clever","128","1057329","0.0-13.0-0.8","3558","Te bizony sokat vülődzöl. Én is sokat...","1","vülődzök","[""vülődzöm"",""vülődzök""]","","posttest trial","4",""
"html-button-response-clever","129","1061202","0.0-13.0-0.9","3364","Te bizony sokat sztrijzol. Én is sokat...","0","sztrijzok","[""sztrijzok"",""sztrijzom""]","","posttest trial","4",""
"html-button-response-clever","130","1064851","0.0-13.0-0.10","3128","Te bizony sokat pribemlesz. Én is sokat...","1","pribemlek","[""pribemlem"",""pribemlek""]","","posttest trial","4",""
"html-button-response-clever","131","1068822","0.0-13.0-0.11","3457","Te bizony sokat rokszol. Én is sokat...","0","rokszok","[""rokszok"",""rokszom""]","","posttest trial","4",""
"html-button-response-clever","132","1072353","0.0-13.0-0.12","3007","Te bizony sokat píjlasz. Én is sokat...","0","píjlok","[""píjlok"",""píjlom""]","","posttest trial","4",""
"html-button-response-clever","133","1076694","0.0-13.0-0.13","3832","Te bizony sokat hurjorzol. Én is sokat...","0","hurjorzok","[""hurjorzok"",""hurjorzom""]","","posttest trial","4",""
"html-button-response-clever","134","1080133","0.0-13.0-0.14","2926","Te bizony sokat hűgzöl. Én is sokat...","1","hűgzök","[""hűgzöm"",""hűgzök""]","","posttest trial","4",""
"html-button-response-clever","135","1085456","0.0-13.0-0.15","4813","Te bizony sokat klétszel. Én is sokat...","1","klétszek","[""klétszem"",""klétszek""]","","posttest trial","4",""
"html-button-response-clever","136","1089536","0.0-13.0-0.16","3566","Te bizony sokat flehékszel. Én is sokat...","0","flehékszem","[""flehékszem"",""flehékszek""]","","posttest trial","4",""
"html-button-response-clever","137","1095287","0.0-13.0-0.17","5227","Te bizony sokat gyibeslesz. Én is sokat...","0","gyibeslek","[""gyibeslek"",""gyibeslem""]","","posttest trial","4",""
"html-button-response-clever","138","1099184","0.0-13.0-0.18","3382","Te bizony sokat prínylasz. Én is sokat...","0","prínylok","[""prínylok"",""prínylom""]","","posttest trial","4",""
"html-button-response-clever","139","1103114","0.0-13.0-0.19","3407","Te bizony sokat klaráglasz. Én is sokat...","1","klaráglok","[""klaráglom"",""klaráglok""]","","posttest trial","4",""
"html-button-response-clever","140","1107028","0.0-13.0-0.20","3394","Te bizony sokat pítszol. Én is sokat...","0","pítszok","[""pítszok"",""pítszom""]","","posttest trial","4",""
"html-button-response-clever","141","1111784","0.0-13.0-0.21","4245","Te bizony sokat bivégszel. Én is sokat...","1","bivégszem","[""bivégszek"",""bivégszem""]","","posttest trial","4",""
"html-button-response-clever","142","1115872","0.0-13.0-0.22","3580","Te bizony sokat spáraklasz. Én is sokat...","1","spáraklok","[""spáraklom"",""spáraklok""]","","posttest trial","4",""
"html-button-response-clever","143","1118873","0.0-13.0-0.23","2479","Te bizony sokat treglesz. Én is sokat...","0","treglek","[""treglek"",""treglem""]","","posttest trial","4",""
"html-button-response-clever","144","1124178","0.0-13.0-0.24","4795","Te bizony sokat trehégszel. Én is sokat...","1","trehégszem","[""trehégszek"",""trehégszem""]","","posttest trial","4",""
"html-button-response-clever","145","1128647","0.0-13.0-0.25","3952","Te bizony sokat nűröklesz. Én is sokat...","0","nűröklöm","[""nűröklöm"",""nűröklök""]","","posttest trial","4",""
"html-button-response-clever","146","1132277","0.0-13.0-0.26","3115","Te bizony sokat frodlasz. Én is sokat...","0","frodlok","[""frodlok"",""frodlom""]","","posttest trial","4",""
"html-button-response-clever","147","1137117","0.0-13.0-0.27","4319","Te bizony sokat klivaslasz. Én is sokat...","0","klivaslok","[""klivaslok"",""klivaslom""]","","posttest trial","4",""
"html-button-response-clever","148","1140726","0.0-13.0-0.28","3097","Te bizony sokat bihánylasz. Én is sokat...","1","bihánylok","[""bihánylom"",""bihánylok""]","","posttest trial","4",""
"html-button-response-clever","149","1147374","0.0-13.0-0.29","6130","Te bizony sokat rájzol. Én is sokat...","0","rájzom","[""rájzom"",""rájzok""]","","posttest trial","4",""
"html-button-response-clever","150","1150710","0.0-13.0-0.30","2834","Te bizony sokat plűbzöl. Én is sokat...","1","plűbzök","[""plűbzöm"",""plűbzök""]","","posttest trial","4",""
"html-button-response-clever","151","1155621","0.0-13.0-0.31","4394","Te bizony sokat düjzöl. Én is sokat...","1","düjzök","[""düjzöm"",""düjzök""]","","posttest trial","4",""
"html-button-response-clever","152","1161188","0.0-13.0-0.32","5047","Te bizony sokat flehénylesz. Én is sokat...","1","flehénylek","[""flehénylem"",""flehénylek""]","","posttest trial","4",""
"html-button-response-clever","153","1165722","0.0-13.0-0.33","4022","Te bizony sokat figlasz. Én is sokat...","0","figlok","[""figlok"",""figlom""]","","posttest trial","4",""
"html-button-response-clever","154","1172710","0.0-13.0-0.34","6468","Te bizony sokat brubzol. Én is sokat...","1","brubzok","[""brubzom"",""brubzok""]","","posttest trial","4",""
"html-button-response-clever","155","1175980","0.0-13.0-0.35","2758","Te bizony sokat lörűdzöl. Én is sokat...","0","lörűdzök","[""lörűdzök"",""lörűdzöm""]","","posttest trial","4",""
"html-button-response-clever","156","1179069","0.0-13.0-0.36","2578","Te bizony sokat spihegzel. Én is sokat...","0","spihegzek","[""spihegzek"",""spihegzem""]","","posttest trial","4",""
"html-button-response-clever","157","1181976","0.0-13.0-0.37","2395","Te bizony sokat vanylasz. Én is sokat...","0","vanylok","[""vanylok"",""vanylom""]","","posttest trial","4",""
"html-button-response-clever","158","1185828","0.0-13.0-0.38","3349","Te bizony sokat szibánylasz. Én is sokat...","1","szibánylok","[""szibánylom"",""szibánylok""]","","posttest trial","4",""
"html-button-response-clever","159","1189342","0.0-13.0-0.39","2994","Te bizony sokat pribagszol. Én is sokat...","1","pribagszom","[""pribagszok"",""pribagszom""]","","posttest trial","4",""
"html-button-response-clever","160","1191636","0.0-13.0-0.40","1787","Te bizony sokat plugzol. Én is sokat...","1","plugzok","[""plugzom"",""plugzok""]","","posttest trial","4",""
"html-button-response-clever","161","1195097","0.0-13.0-0.41","2949","Te bizony sokat bűtszöl. Én is sokat...","0","bűtszök","[""bűtszök"",""bűtszöm""]","","posttest trial","4",""
"html-button-response-clever","162","1202522","0.0-13.0-0.42","6900","Te bizony sokat sztrűkszöl. Én is sokat...","0","sztrűkszök","[""sztrűkszök"",""sztrűkszöm""]","","posttest trial","4",""
"html-button-response-clever","163","1206134","0.0-13.0-0.43","3093","Te bizony sokat huroslasz. Én is sokat...","1","huroslok","[""huroslom"",""huroslok""]","","posttest trial","4",""
"html-button-response-clever","164","1211522","0.0-13.0-0.44","4879","Te bizony sokat spülűdzöl. Én is sokat...","0","spülűdzök","[""spülűdzök"",""spülűdzöm""]","","posttest trial","4",""
"html-button-response-clever","165","1215893","0.0-13.0-0.45","3869","Te bizony sokat flitlasz. Én is sokat...","0","flitlom","[""flitlom"",""flitlok""]","","posttest trial","4",""
"html-button-response-clever","166","1220220","0.0-13.0-0.46","3815","Te bizony sokat filágzol. Én is sokat...","1","filágzok","[""filágzom"",""filágzok""]","","posttest trial","4",""
"html-button-response-clever","167","1224077","0.0-13.0-0.47","3337","Te bizony sokat flátszol. Én is sokat...","1","flátszok","[""flátszom"",""flátszok""]","","posttest trial","4",""
"html-button-response-clever","168","1227765","0.0-13.0-0.48","3171","Te bizony sokat sztrozlasz. Én is sokat...","0","sztrozlok","[""sztrozlok"",""sztrozlom""]","","posttest trial","4",""
"html-button-response-clever","169","1231216","0.0-13.0-0.49","2939","Te bizony sokat spihemlesz. Én is sokat...","0","spihemlek","[""spihemlek"",""spihemlem""]","","posttest trial","4",""
"html-button-response-clever","170","1235709","0.0-13.0-0.50","3978","Te bizony sokat tragzol. Én is sokat...","1","tragzok","[""tragzom"",""tragzok""]","","posttest trial","4",""
"html-button-response-clever","171","1239860","0.0-13.0-0.51","3644","Te bizony sokat flűmlesz. Én is sokat...","1","flűmlök","[""flűmlöm"",""flűmlök""]","","posttest trial","4",""
"html-button-response-clever","172","1242730","0.0-13.0-0.52","2366","Te bizony sokat trádlasz. Én is sokat...","1","trádlok","[""trádlom"",""trádlok""]","","posttest trial","4",""
"html-button-response-clever","173","1246932","0.0-13.0-0.53","3699","Te bizony sokat jonylasz. Én is sokat...","1","jonylok","[""jonylom"",""jonylok""]","","posttest trial","4",""
"html-button-response","174","1253647","0.0-14.0","6198","<p> Vége a játéknak. A teljes pontszámod 41/54.</p><p> Szép munka! &#128526;&#128526;&#128526;</p><p>A Befejezés gomb megnyomása után bezárhatod a böngészőablakot.</p>","0","","","","","",""
"html-keyboard-response","175","1259169","0.0-15.0","null","<div class=""message"">
         <p>Egy kis türelmet kérünk, amíg elmentjük az adatokat...</p>
         </div>","null","","","","","",""
