"trial_type","trial_index","time_elapsed","internal_node_id","rt","stimulus","response","response_string","choices","esp_response","trial_kind","list_number","esp_match"
"pavlovia","0","668","0.0-0.0","","","","","","","","",""
"html-button-response","1","34960","0.0-1.0","33767","<p>Kedves Résztvevő! A Budapesti Műszaki és Gazdaságtudományi Egyetem Kognitív Tudományi Tanszékének kutatásában való részvételed kérjük. A kutatásban azt vizsgáljuk, hogy a magyar anyanyelvűek hogyan használnak bizonyos szóalakokat, és hogy milyen képük van arról, hogy mások hogyan használják, hogyan képzik a szavakat. Ez hozzásegít bennünket ahhoz, hogy jobban megértsük, hogyan dolgozza fel és tárolja a nyelvet az emberi agy, és hogyan működnek, hogyan változnak egy adott közösség nyelvi konvenciói.</p><p>A vizsgálat egy rövid számítógépes feladatból fog állni. A kutatásban való részvétel önkéntes, a részvételi szándék bármikor visszavonható. A résztvevők eredményeit név nélkül kezeljük, így nem beazonosíthatók az adatok feldolgozása során. Minden személyes adatot az EU általános adatvédelmi rendeletének (GDPR) megfelelően kezelünk és legfeljebb öt éven belül megsemmisítünk. A vizsgálat jellemzően húsz percet vesz igénybe.</p><p>Kutatásvezető:</p><p>Dr. Rácz Péter, tudományos munkatárs, BME KTT</p><p>e-mail: racz.peter.marton@ttk.bme.hu</p>","0","","","","","",""
"html-button-response","2","78542","0.0-2.0","43080","<p>A kísérletben szavakat fogsz látni. Ezek között lesznek olyanok, amelyeket ismersz, de előfordulhatnak olyanok is, amelyeket nem ismersz, sőt, vannak köztük kitalált szavak is. Minden szónál látni fogsz toldalékolt alakokat. A te feladatod az lesz, hogy minden szóhoz kiválaszd azt a toldalékolt alakot, amely a te számodra ismerősebben, természetesebben hangzik. Rossz válaszok nincsenek, mert van olyan, hogy különböző embereknek más és más szó tűnik jobb választásnak. A választ úgy tudod majd kiválasztani, ha rákattintasz.</p><p>Ebben a szóválasztós játékban egy másik játékossal együtt veszel majd részt. A másik játékos is minden esetben azok közül a lehetőségek közül válogathat, mint te. Kettőtök feladata az, hogy ugyanazt a lehetőséget válasszátok minden esetben. Ahhoz, hogy ez sikerüljön, neked figyelned kell arra, hogy a másik játékos milyen válaszokat ad, és ennek alapján meg kell tippelned, hogyan választ legközelebb. Ha eltalálod, akkor pontot kapsz.</p>","0","","","","","",""
"html-button-response","3","91217","0.0-3.0","12154","<p>Kérjük, olvasd el az alábbi nyilatkozatot, és amennyiben egyetértesz vele, nyomj a Beleegyezés gombra!</p><p>Kijelentem, hogy magyar anyanyelvű személyként önként veszek részt a BME KTT kísérletében. A kutatás céljával és folyamatával kapcsolatban elegendő tájékoztatást kaptam, lehetőségem volt kérdések feltételére, és esetleges kérdéseimre megfelelő válaszokat kaptam. A tájékoztatás alapján elegendő mennyiségű információ áll a rendelkezésemre, hogy eldönthessem, részt kívánok-e venni a kutatásban.</p><p>Tisztában vagyok vele, hogy részvételi szándékomat és adataimat bármikor, indoklás nélkül visszavonhatom.</p><p>Értem és tudomásul veszem, hogy a kutatás tudományos célokat szolgál, és az általam szolgáltatott adatokat a BME kizárólag kutatási célból használja fel. Tudomásul veszem, hogy eredményeimet a többi résztvevő eredményeivel együtt kezelik, így egyéni teljesítményemről visszajelzést, szakvéleményt nem kapok.</p><p>Megértettem, hogy adataim kezelését illetően a BME az EU általános adatvédelmi rendelete (GDPR), a hatályos adatvédelmi törvény és a nemzetközi kutatás-etikai alapelvek szerint jár el. Eredményeim anonim módon kerülnek feldolgozásra, és a kutatás résztvevői az azonosításomra alkalmas adataimat harmadik félnek nem szolgáltatják ki. Engedélyezem a BME számára a jelen kutatásban felvett adataim feldolgozását és tárolását, beleértve azok későbbi kutatásokhoz való felhasználását is. Személyes adataim kezelésével kapcsolatban tájékoztatást kérhetek a kutatás résztvevőitől, az adatkezelés ellen tiltakozhatok, kérhetem személyes adataim helyesbítését, törlését vagy zárolását, valamint jogorvoslatért a Nemzeti Adatvédelmi és Információszabadság Hatósághoz fordulhatok.</p><p>Kijelentem, hogy a kutatásban való részvételem körülményeiről részletes tájékoztatást kaptam, és a feltételeket elfogadom.</p>","0","","","","","",""
"survey-text","4","163218","0.0-4.0","71482","","{""Q0"":""LW0EUN"",""Q1"":""nő"",""Q2"":""1996"",""Q3"":""18""}","","","","","",""
"html-button-response","5","174475","0.0-5.0","10740","<p>Ebben a játékban szavakat kell toldalékolni.</p> <p>Minden körben mutatunk majd egy példamondatot, amiben lesz egy szó.</p> <p>Alatta jön egy második mondat, ezt a mondatot neked kell majd befejezni, ugyanezzel a szóval.</p> <p>Nem biztos, hogy a szó eleve ismerős lesz számodra!</p> <p>Minden mondathoz adunk két lehetőséget, ezeket balra és jobbra látod majd.</p> <p>A játék kb. negyedóráig-húsz percig tart.</p>","0","","","","","",""
"html-button-response","6","198438","0.0-6.0","23452","<p>Nézzünk egy példát!</p> <p>A példamondat: ""János nagyon szeret rancsúrozni.""</p><p>Neked ezt a mondatot kell befejezned: ""Én is szívesen...""</p><p>A lehetőségek pedig ezek:</p>","0","","","","","",""
"html-button-response","7","204802","0.0-7.0","5846","<p>Nagyon jó.</p><p>Ezt a játékot nem egyedül fogod játszani, hanem egy másik játékossal.</p><p>Mielőtt továbblépünk, összekapcsolunk titeket egymással.</p><p>Ez igénybe vehet néhány másodpercet, amihez szíves türelmed kérjük.</p>","0","","","","","",""
"html-button-response","8","210544","0.0-8.0","null","<p>Csatlakozás a másik játékoshoz...</p>","null","","","","","",""
"html-button-response","9","213084","0.0-9.0","null","<p> Sikeres kapcsolódás!</p>","null","","","","","",""
"html-button-response","10","223280","0.0-10.0","9676","<p>A következőkben ketten játsszátok a szóválasztós játékot.</p><p>A feladatotok az lesz, hogy minden körben <b>ugyanazt</b> a szót válasszátok.</p><p>Minden ilyen egyező válaszért pontot kaptok.</p><p>Próbáld meg kitalálni, mit választ a másik játékos!</p><p>Bármikor választhatsz, a körnek akkor van vége, ha mindketten döntöttetek.</p><p>Sok sikert!</p>","0","","","","","",""
"html-button-response-esp","11","233241","0.0-11.0-0.0","9445","Te bizony sokat flűmlesz. Én is sokat...","0","flűmlök","[""flűmlök"",""flűmlöm""]","flűmlök","esp trial","7","true"
"html-button-response","12","236750","0.0-11.0-1.0","null","<p>A másik játékos ezt választotta: <b>flűmlök</b>.</p><p>&#x2705;</p><p>A te válaszod és a másik játékos válasza <b>megegyeznek</b>.</p>","null","","","","feedback trial","",""
"html-button-response-esp","13","243170","0.0-11.0-0.1","5915","Te bizony sokat plűbzöl. Én is sokat...","0","plűbzöm","[""plűbzöm"",""plűbzök""]","plűbzöm","esp trial","7","true"
"html-button-response","14","246684","0.0-11.0-1.1","null","<p>A másik játékos ezt választotta: <b>plűbzöm</b>.</p><p>&#x2705;</p><p>A te válaszod és a másik játékos válasza <b>megegyeznek</b>.</p>","null","","","","feedback trial","",""
"html-button-response-esp","15","252414","0.0-11.0-0.2","5210","Te bizony sokat flátszol. Én is sokat...","0","flátszok","[""flátszok"",""flátszom""]","flátszom","esp trial","7","false"
"html-button-response","16","255921","0.0-11.0-1.2","null","<p>A másik játékos ezt választotta: <b>flátszom</b>.</p><p>&#10060;</p><p>A válaszaitok <b>nem</b> egyeznek meg.</p>","null","","","","feedback trial","",""
"html-button-response-esp","17","267248","0.0-11.0-0.3","10826","Te bizony sokat lörűdzöl. Én is sokat...","0","lörűdzök","[""lörűdzök"",""lörűdzöm""]","lörűdzöm","esp trial","7","false"
"html-button-response","18","270758","0.0-11.0-1.3","null","<p>A másik játékos ezt választotta: <b>lörűdzöm</b>.</p><p>&#10060;</p><p>A válaszaitok <b>nem</b> egyeznek meg.</p>","null","","","","feedback trial","",""
"html-button-response-esp","19","281228","0.0-11.0-0.4","9957","Te bizony sokat treglesz. Én is sokat...","0","treglek","[""treglek"",""treglem""]","treglek","esp trial","7","true"
"html-button-response","20","284758","0.0-11.0-1.4","null","<p>A másik játékos ezt választotta: <b>treglek</b>.</p><p>&#x2705;</p><p>A te válaszod és a másik játékos válasza <b>megegyeznek</b>.</p>","null","","","","feedback trial","",""
"html-button-response-esp","21","291063","0.0-11.0-0.5","5784","Te bizony sokat spüjzöl. Én is sokat...","1","spüjzöm","[""spüjzök"",""spüjzöm""]","spüjzök","esp trial","7","false"
"html-button-response","22","294575","0.0-11.0-1.5","null","<p>A másik játékos ezt választotta: <b>spüjzök</b>.</p><p>&#10060;</p><p>A válaszaitok <b>nem</b> egyeznek meg.</p>","null","","","","feedback trial","",""
"html-button-response-esp","23","308524","0.0-11.0-0.6","13445","Te bizony sokat huroslasz. Én is sokat...","1","huroslok","[""huroslom"",""huroslok""]","huroslok","esp trial","7","true"
"html-button-response","24","312058","0.0-11.0-1.6","null","<p>A másik játékos ezt választotta: <b>huroslok</b>.</p><p>&#x2705;</p><p>A te válaszod és a másik játékos válasza <b>megegyeznek</b>.</p>","null","","","","feedback trial","",""
"html-button-response-esp","25","318202","0.0-11.0-0.7","5625","Te bizony sokat salárzol. Én is sokat...","0","salárzom","[""salárzom"",""salárzok""]","salárzom","esp trial","7","true"
"html-button-response","26","321718","0.0-11.0-1.7","null","<p>A másik játékos ezt választotta: <b>salárzom</b>.</p><p>&#x2705;</p><p>A te válaszod és a másik játékos válasza <b>megegyeznek</b>.</p>","null","","","","feedback trial","",""
"html-button-response-esp","27","327098","0.0-11.0-0.8","4867","Te bizony sokat ibékszel. Én is sokat...","0","ibékszem","[""ibékszem"",""ibékszek""]","ibékszem","esp trial","7","true"
"html-button-response","28","330620","0.0-11.0-1.8","null","<p>A másik játékos ezt választotta: <b>ibékszem</b>.</p><p>&#x2705;</p><p>A te válaszod és a másik játékos válasza <b>megegyeznek</b>.</p>","null","","","","feedback trial","",""
"html-button-response-esp","29","337028","0.0-11.0-0.9","5889","Te bizony sokat klivaslasz. Én is sokat...","1","klivaslok","[""klivaslom"",""klivaslok""]","klivaslok","esp trial","7","true"
"html-button-response","30","340550","0.0-11.0-1.9","null","<p>A másik játékos ezt választotta: <b>klivaslok</b>.</p><p>&#x2705;</p><p>A te válaszod és a másik játékos válasza <b>megegyeznek</b>.</p>","null","","","","feedback trial","",""
"html-button-response-esp","31","345702","0.0-11.0-0.10","4636","Te bizony sokat klétszel. Én is sokat...","1","klétszek","[""klétszem"",""klétszek""]","klétszem","esp trial","7","false"
"html-button-response","32","349217","0.0-11.0-1.10","null","<p>A másik játékos ezt választotta: <b>klétszem</b>.</p><p>&#10060;</p><p>A válaszaitok <b>nem</b> egyeznek meg.</p>","null","","","","feedback trial","",""
"html-button-response-esp","33","354528","0.0-11.0-0.11","4794","Te bizony sokat brivegzel. Én is sokat...","0","brivegzek","[""brivegzek"",""brivegzem""]","brivegzem","esp trial","7","false"
"html-button-response","34","358052","0.0-11.0-1.11","null","<p>A másik játékos ezt választotta: <b>brivegzem</b>.</p><p>&#10060;</p><p>A válaszaitok <b>nem</b> egyeznek meg.</p>","null","","","","feedback trial","",""
"html-button-response-esp","35","364072","0.0-11.0-0.12","5500","Te bizony sokat brobódzol. Én is sokat...","0","brobódzom","[""brobódzom"",""brobódzok""]","brobódzom","esp trial","7","true"
"html-button-response","36","367589","0.0-11.0-1.12","null","<p>A másik játékos ezt választotta: <b>brobódzom</b>.</p><p>&#x2705;</p><p>A te válaszod és a másik játékos válasza <b>megegyeznek</b>.</p>","null","","","","feedback trial","",""
"html-button-response-esp","37","372523","0.0-11.0-0.13","4415","Te bizony sokat narádzol. Én is sokat...","0","narádzok","[""narádzok"",""narádzom""]","narádzom","esp trial","7","false"
"html-button-response","38","376049","0.0-11.0-1.13","null","<p>A másik játékos ezt választotta: <b>narádzom</b>.</p><p>&#10060;</p><p>A válaszaitok <b>nem</b> egyeznek meg.</p>","null","","","","feedback trial","",""
"html-button-response-esp","39","381476","0.0-11.0-0.14","4906","Te bizony sokat píjlasz. Én is sokat...","1","píjlok","[""píjlom"",""píjlok""]","píjlom","esp trial","7","false"
"html-button-response","40","384993","0.0-11.0-1.14","null","<p>A másik játékos ezt választotta: <b>píjlom</b>.</p><p>&#10060;</p><p>A válaszaitok <b>nem</b> egyeznek meg.</p>","null","","","","feedback trial","",""
"html-button-response-esp","41","388772","0.0-11.0-0.15","2811","Te bizony sokat gyibeslesz. Én is sokat...","0","gyibeslem","[""gyibeslem"",""gyibeslek""]","gyibeslem","esp trial","7","true"
"html-button-response","42","392308","0.0-11.0-1.15","null","<p>A másik játékos ezt választotta: <b>gyibeslem</b>.</p><p>&#x2705;</p><p>A te válaszod és a másik játékos válasza <b>megegyeznek</b>.</p>","null","","","","feedback trial","",""
"html-button-response-esp","43","397492","0.0-11.0-0.16","4675","Te bizony sokat vülődzöl. Én is sokat...","1","vülődzök","[""vülődzöm"",""vülődzök""]","vülődzöm","esp trial","7","false"
"html-button-response","44","401018","0.0-11.0-1.16","null","<p>A másik játékos ezt választotta: <b>vülődzöm</b>.</p><p>&#10060;</p><p>A válaszaitok <b>nem</b> egyeznek meg.</p>","null","","","","feedback trial","",""
"html-button-response-esp","45","406435","0.0-11.0-0.17","4896","Te bizony sokat sztrijzol. Én is sokat...","0","sztrijzok","[""sztrijzok"",""sztrijzom""]","sztrijzom","esp trial","7","false"
"html-button-response","46","409963","0.0-11.0-1.17","null","<p>A másik játékos ezt választotta: <b>sztrijzom</b>.</p><p>&#10060;</p><p>A válaszaitok <b>nem</b> egyeznek meg.</p>","null","","","","feedback trial","",""
"html-button-response-esp","47","413728","0.0-11.0-0.18","1547","Te bizony sokat flitlasz. Én is sokat...","1","flitlom","[""flitlok"",""flitlom""]","flitlok","esp trial","7","false"
"html-button-response","48","417242","0.0-11.0-1.18","null","<p>A másik játékos ezt választotta: <b>flitlok</b>.</p><p>&#10060;</p><p>A válaszaitok <b>nem</b> egyeznek meg.</p>","null","","","","feedback trial","",""
"html-button-response-esp","49","423357","0.0-11.0-0.19","5602","Te bizony sokat spáraklasz. Én is sokat...","1","spáraklom","[""spáraklok"",""spáraklom""]","spáraklom","esp trial","7","true"
"html-button-response","50","426875","0.0-11.0-1.19","null","<p>A másik játékos ezt választotta: <b>spáraklom</b>.</p><p>&#x2705;</p><p>A te válaszod és a másik játékos válasza <b>megegyeznek</b>.</p>","null","","","","feedback trial","",""
"html-button-response-esp","51","433525","0.0-11.0-0.20","6127","Te bizony sokat spülűdzöl. Én is sokat...","1","spülűdzök","[""spülűdzöm"",""spülűdzök""]","spülűdzöm","esp trial","7","false"
"html-button-response","52","437049","0.0-11.0-1.20","null","<p>A másik játékos ezt választotta: <b>spülűdzöm</b>.</p><p>&#10060;</p><p>A válaszaitok <b>nem</b> egyeznek meg.</p>","null","","","","feedback trial","",""
"html-button-response-esp","53","442365","0.0-11.0-0.21","4796","Te bizony sokat spubonylasz. Én is sokat...","0","spubonylok","[""spubonylok"",""spubonylom""]","spubonylok","esp trial","7","true"
"html-button-response","54","445893","0.0-11.0-1.21","null","<p>A másik játékos ezt választotta: <b>spubonylok</b>.</p><p>&#x2705;</p><p>A te válaszod és a másik játékos válasza <b>megegyeznek</b>.</p>","null","","","","feedback trial","",""
"html-button-response-esp","55","451588","0.0-11.0-0.22","5179","Te bizony sokat sztrűkszöl. Én is sokat...","1","sztrűkszöm","[""sztrűkszök"",""sztrűkszöm""]","sztrűkszöm","esp trial","7","true"
"html-button-response","56","455120","0.0-11.0-1.22","null","<p>A másik játékos ezt választotta: <b>sztrűkszöm</b>.</p><p>&#x2705;</p><p>A te válaszod és a másik játékos válasza <b>megegyeznek</b>.</p>","null","","","","feedback trial","",""
"html-button-response-esp","57","459885","0.0-11.0-0.23","4247","Te bizony sokat tragzol. Én is sokat...","0","tragzom","[""tragzom"",""tragzok""]","tragzom","esp trial","7","true"
"html-button-response","58","463409","0.0-11.0-1.23","null","<p>A másik játékos ezt választotta: <b>tragzom</b>.</p><p>&#x2705;</p><p>A te válaszod és a másik játékos válasza <b>megegyeznek</b>.</p>","null","","","","feedback trial","",""
"html-button-response-esp","59","469755","0.0-11.0-0.24","5823","Te bizony sokat pítszol. Én is sokat...","0","pítszok","[""pítszok"",""pítszom""]","pítszom","esp trial","7","false"
"html-button-response","60","473282","0.0-11.0-1.24","null","<p>A másik játékos ezt választotta: <b>pítszom</b>.</p><p>&#10060;</p><p>A válaszaitok <b>nem</b> egyeznek meg.</p>","null","","","","feedback trial","",""
"html-button-response-esp","61","497779","0.0-11.0-0.25","23983","Te bizony sokat sztrozlasz. Én is sokat...","1","sztrozlom","[""sztrozlok"",""sztrozlom""]","sztrozlom","esp trial","7","true"
"html-button-response","62","501297","0.0-11.0-1.25","null","<p>A másik játékos ezt választotta: <b>sztrozlom</b>.</p><p>&#x2705;</p><p>A te válaszod és a másik játékos válasza <b>megegyeznek</b>.</p>","null","","","","feedback trial","",""
"html-button-response-esp","63","515571","0.0-11.0-0.26","13758","Te bizony sokat pribagszol. Én is sokat...","0","pribagszom","[""pribagszom"",""pribagszok""]","pribagszom","esp trial","7","true"
"html-button-response","64","519090","0.0-11.0-1.26","null","<p>A másik játékos ezt választotta: <b>pribagszom</b>.</p><p>&#x2705;</p><p>A te válaszod és a másik játékos válasza <b>megegyeznek</b>.</p>","null","","","","feedback trial","",""
"html-button-response-esp","65","523536","0.0-11.0-0.27","3928","Te bizony sokat rokszol. Én is sokat...","0","rokszom","[""rokszom"",""rokszok""]","rokszom","esp trial","7","true"
"html-button-response","66","527062","0.0-11.0-1.27","null","<p>A másik játékos ezt választotta: <b>rokszom</b>.</p><p>&#x2705;</p><p>A te válaszod és a másik játékos válasza <b>megegyeznek</b>.</p>","null","","","","feedback trial","",""
"html-button-response-esp","67","532750","0.0-11.0-0.28","5172","Te bizony sokat nűröklesz. Én is sokat...","1","nűröklök","[""nűröklöm"",""nűröklök""]","nűröklöm","esp trial","7","false"
"html-button-response","68","536262","0.0-11.0-1.28","null","<p>A másik játékos ezt választotta: <b>nűröklöm</b>.</p><p>&#10060;</p><p>A válaszaitok <b>nem</b> egyeznek meg.</p>","null","","","","feedback trial","",""
"html-button-response-esp","69","540029","0.0-11.0-0.29","3177","Te bizony sokat düjzöl. Én is sokat...","1","düjzök","[""düjzöm"",""düjzök""]","düjzöm","esp trial","7","false"
"html-button-response","70","543557","0.0-11.0-1.29","null","<p>A másik játékos ezt választotta: <b>düjzöm</b>.</p><p>&#10060;</p><p>A válaszaitok <b>nem</b> egyeznek meg.</p>","null","","","","feedback trial","",""
"html-button-response-esp","71","549274","0.0-11.0-0.30","5210","Te bizony sokat prínylasz. Én is sokat...","1","prínylom","[""prínylok"",""prínylom""]","prínylom","esp trial","7","true"
"html-button-response","72","552796","0.0-11.0-1.30","null","<p>A másik játékos ezt választotta: <b>prínylom</b>.</p><p>&#x2705;</p><p>A te válaszod és a másik játékos válasza <b>megegyeznek</b>.</p>","null","","","","feedback trial","",""
"html-button-response-esp","73","558535","0.0-11.0-0.31","5220","Te bizony sokat szibánylasz. Én is sokat...","1","szibánylok","[""szibánylom"",""szibánylok""]","szibánylok","esp trial","7","true"
"html-button-response","74","562049","0.0-11.0-1.31","null","<p>A másik játékos ezt választotta: <b>szibánylok</b>.</p><p>&#x2705;</p><p>A te válaszod és a másik játékos válasza <b>megegyeznek</b>.</p>","null","","","","feedback trial","",""
"html-button-response-esp","75","566704","0.0-11.0-0.32","4139","Te bizony sokat vanylasz. Én is sokat...","0","vanylok","[""vanylok"",""vanylom""]","vanylok","esp trial","7","true"
"html-button-response","76","570220","0.0-11.0-1.32","null","<p>A másik játékos ezt választotta: <b>vanylok</b>.</p><p>&#x2705;</p><p>A te válaszod és a másik játékos válasza <b>megegyeznek</b>.</p>","null","","","","feedback trial","",""
"html-button-response-esp","77","574381","0.0-11.0-0.33","3641","Te bizony sokat bihánylasz. Én is sokat...","0","bihánylom","[""bihánylom"",""bihánylok""]","bihánylok","esp trial","7","false"
"html-button-response","78","577903","0.0-11.0-1.33","null","<p>A másik játékos ezt választotta: <b>bihánylok</b>.</p><p>&#10060;</p><p>A válaszaitok <b>nem</b> egyeznek meg.</p>","null","","","","feedback trial","",""
"html-button-response-esp","79","583450","0.0-11.0-0.34","5029","Te bizony sokat spröbzöl. Én is sokat...","0","spröbzöm","[""spröbzöm"",""spröbzök""]","spröbzöm","esp trial","7","true"
"html-button-response","80","586992","0.0-11.0-1.34","null","<p>A másik játékos ezt választotta: <b>spröbzöm</b>.</p><p>&#x2705;</p><p>A te válaszod és a másik játékos válasza <b>megegyeznek</b>.</p>","null","","","","feedback trial","",""
"html-button-response-esp","81","591483","0.0-11.0-0.35","3974","Te bizony sokat pribemlesz. Én is sokat...","1","pribemlek","[""pribemlem"",""pribemlek""]","pribemlek","esp trial","7","true"
"html-button-response","82","595020","0.0-11.0-1.35","null","<p>A másik játékos ezt választotta: <b>pribemlek</b>.</p><p>&#x2705;</p><p>A te válaszod és a másik játékos válasza <b>megegyeznek</b>.</p>","null","","","","feedback trial","",""
"html-button-response-esp","83","602396","0.0-11.0-0.36","6859","Te bizony sokat rájzol. Én is sokat...","1","rájzok","[""rájzom"",""rájzok""]","rájzom","esp trial","7","false"
"html-button-response","84","605925","0.0-11.0-1.36","null","<p>A másik játékos ezt választotta: <b>rájzom</b>.</p><p>&#10060;</p><p>A válaszaitok <b>nem</b> egyeznek meg.</p>","null","","","","feedback trial","",""
"html-button-response-esp","85","609782","0.0-11.0-0.37","3355","Te bizony sokat plugzol. Én is sokat...","1","plugzok","[""plugzom"",""plugzok""]","plugzom","esp trial","7","false"
"html-button-response","86","613301","0.0-11.0-1.37","null","<p>A másik játékos ezt választotta: <b>plugzom</b>.</p><p>&#10060;</p><p>A válaszaitok <b>nem</b> egyeznek meg.</p>","null","","","","feedback trial","",""
"html-button-response-esp","87","617962","0.0-11.0-0.38","4140","Te bizony sokat flehékszel. Én is sokat...","0","flehékszek","[""flehékszek"",""flehékszem""]","flehékszem","esp trial","7","false"
"html-button-response","88","621481","0.0-11.0-1.38","null","<p>A másik játékos ezt választotta: <b>flehékszem</b>.</p><p>&#10060;</p><p>A válaszaitok <b>nem</b> egyeznek meg.</p>","null","","","","feedback trial","",""
"html-button-response-esp","89","627133","0.0-11.0-0.39","5135","Te bizony sokat hűgzöl. Én is sokat...","1","hűgzöm","[""hűgzök"",""hűgzöm""]","hűgzöm","esp trial","7","true"
"html-button-response","90","630667","0.0-11.0-1.39","null","<p>A másik játékos ezt választotta: <b>hűgzöm</b>.</p><p>&#x2705;</p><p>A te válaszod és a másik játékos válasza <b>megegyeznek</b>.</p>","null","","","","feedback trial","",""
"html-button-response-esp","91","635932","0.0-11.0-0.40","4748","Te bizony sokat spihemlesz. Én is sokat...","0","spihemlek","[""spihemlek"",""spihemlem""]","spihemlek","esp trial","7","true"
"html-button-response","92","639459","0.0-11.0-1.40","null","<p>A másik játékos ezt választotta: <b>spihemlek</b>.</p><p>&#x2705;</p><p>A te válaszod és a másik játékos válasza <b>megegyeznek</b>.</p>","null","","","","feedback trial","",""
"html-button-response-esp","93","644167","0.0-11.0-0.41","4189","Te bizony sokat frodlasz. Én is sokat...","0","frodlom","[""frodlom"",""frodlok""]","frodlom","esp trial","7","true"
"html-button-response","94","647702","0.0-11.0-1.41","null","<p>A másik játékos ezt választotta: <b>frodlom</b>.</p><p>&#x2705;</p><p>A te válaszod és a másik játékos válasza <b>megegyeznek</b>.</p>","null","","","","feedback trial","",""
"html-button-response-esp","95","652220","0.0-11.0-0.42","4012","Te bizony sokat hurjorzol. Én is sokat...","1","hurjorzom","[""hurjorzok"",""hurjorzom""]","hurjorzom","esp trial","7","true"
"html-button-response","96","655737","0.0-11.0-1.42","null","<p>A másik játékos ezt választotta: <b>hurjorzom</b>.</p><p>&#x2705;</p><p>A te válaszod és a másik játékos válasza <b>megegyeznek</b>.</p>","null","","","","feedback trial","",""
"html-button-response-esp","97","660127","0.0-11.0-0.43","3870","Te bizony sokat jonylasz. Én is sokat...","1","jonylom","[""jonylok"",""jonylom""]","jonylok","esp trial","7","false"
"html-button-response","98","663660","0.0-11.0-1.43","null","<p>A másik játékos ezt választotta: <b>jonylok</b>.</p><p>&#10060;</p><p>A válaszaitok <b>nem</b> egyeznek meg.</p>","null","","","","feedback trial","",""
"html-button-response-esp","99","667910","0.0-11.0-0.44","3730","Te bizony sokat figlasz. Én is sokat...","1","figlom","[""figlok"",""figlom""]","figlom","esp trial","7","true"
"html-button-response","100","671430","0.0-11.0-1.44","null","<p>A másik játékos ezt választotta: <b>figlom</b>.</p><p>&#x2705;</p><p>A te válaszod és a másik játékos válasza <b>megegyeznek</b>.</p>","null","","","","feedback trial","",""
"html-button-response-esp","101","677467","0.0-11.0-0.45","5524","Te bizony sokat klaráglasz. Én is sokat...","1","klaráglom","[""klaráglok"",""klaráglom""]","klaráglok","esp trial","7","false"
"html-button-response","102","680976","0.0-11.0-1.45","null","<p>A másik játékos ezt választotta: <b>klaráglok</b>.</p><p>&#10060;</p><p>A válaszaitok <b>nem</b> egyeznek meg.</p>","null","","","","feedback trial","",""
"html-button-response-esp","103","686670","0.0-11.0-0.46","5190","Te bizony sokat flehénylesz. Én is sokat...","0","flehénylek","[""flehénylek"",""flehénylem""]","flehénylek","esp trial","7","true"
"html-button-response","104","690182","0.0-11.0-1.46","null","<p>A másik játékos ezt választotta: <b>flehénylek</b>.</p><p>&#x2705;</p><p>A te válaszod és a másik játékos válasza <b>megegyeznek</b>.</p>","null","","","","feedback trial","",""
"html-button-response-esp","105","694287","0.0-11.0-0.47","3599","Te bizony sokat bűtszöl. Én is sokat...","1","bűtszöm","[""bűtszök"",""bűtszöm""]","bűtszöm","esp trial","7","true"
"html-button-response","106","697802","0.0-11.0-1.47","null","<p>A másik játékos ezt választotta: <b>bűtszöm</b>.</p><p>&#x2705;</p><p>A te válaszod és a másik játékos válasza <b>megegyeznek</b>.</p>","null","","","","feedback trial","",""
"html-button-response-esp","107","703499","0.0-11.0-0.48","5181","Te bizony sokat spihegzel. Én is sokat...","0","spihegzek","[""spihegzek"",""spihegzem""]","spihegzem","esp trial","7","false"
"html-button-response","108","707024","0.0-11.0-1.48","null","<p>A másik játékos ezt választotta: <b>spihegzem</b>.</p><p>&#10060;</p><p>A válaszaitok <b>nem</b> egyeznek meg.</p>","null","","","","feedback trial","",""
"html-button-response-esp","109","716573","0.0-11.0-0.49","9033","Te bizony sokat bivégszel. Én is sokat...","0","bivégszek","[""bivégszek"",""bivégszem""]","bivégszem","esp trial","7","false"
"html-button-response","110","720094","0.0-11.0-1.49","null","<p>A másik játékos ezt választotta: <b>bivégszem</b>.</p><p>&#10060;</p><p>A válaszaitok <b>nem</b> egyeznek meg.</p>","null","","","","feedback trial","",""
"html-button-response-esp","111","725302","0.0-11.0-0.50","4691","Te bizony sokat trehégszel. Én is sokat...","1","trehégszem","[""trehégszek"",""trehégszem""]","trehégszem","esp trial","7","true"
"html-button-response","112","728822","0.0-11.0-1.50","null","<p>A másik játékos ezt választotta: <b>trehégszem</b>.</p><p>&#x2705;</p><p>A te válaszod és a másik játékos válasza <b>megegyeznek</b>.</p>","null","","","","feedback trial","",""
"html-button-response-esp","113","732578","0.0-11.0-0.51","2346","Te bizony sokat brubzol. Én is sokat...","0","brubzok","[""brubzok"",""brubzom""]","brubzom","esp trial","7","false"
"html-button-response","114","736107","0.0-11.0-1.51","null","<p>A másik játékos ezt választotta: <b>brubzom</b>.</p><p>&#10060;</p><p>A válaszaitok <b>nem</b> egyeznek meg.</p>","null","","","","feedback trial","",""
"html-button-response-esp","115","740991","0.0-11.0-0.52","4362","Te bizony sokat filágzol. Én is sokat...","0","filágzok","[""filágzok"",""filágzom""]","filágzom","esp trial","7","false"
"html-button-response","116","744520","0.0-11.0-1.52","null","<p>A másik játékos ezt választotta: <b>filágzom</b>.</p><p>&#10060;</p><p>A válaszaitok <b>nem</b> egyeznek meg.</p>","null","","","","feedback trial","",""
"html-button-response-esp","117","748286","0.0-11.0-0.53","3031","Te bizony sokat trádlasz. Én is sokat...","1","trádlok","[""trádlom"",""trádlok""]","trádlom","esp trial","7","false"
"html-button-response","118","751807","0.0-11.0-1.53","null","<p>A másik játékos ezt választotta: <b>trádlom</b>.</p><p>&#10060;</p><p>A válaszaitok <b>nem</b> egyeznek meg.</p>","null","","","","feedback trial","",""
"html-button-response","119","760556","0.0-12.0","8242","<p>A közös játék most véget ért.</p><p>Mielőtt eláruljuk a végső pontszámodat, arra kérlek, játszd a szóválasztós játékot néhány percig egyedül is.</p><p>A feladatod ugyanaz lesz, választani két lehetőség közül.</p><p>Most viszont egyedül kell döntened, hogy te melyiket választanád.</p>","0","","","","","",""
"html-button-response-clever","120","767063","0.0-13.0-0.0","5988","Te bizony sokat spibádzol. Én is sokat...","1","spibádzom","[""spibádzok"",""spibádzom""]","","posttest trial","8",""
"html-button-response-clever","121","774913","0.0-13.0-0.1","7340","Te bizony sokat fivénylesz. Én is sokat...","0","fivénylek","[""fivénylek"",""fivénylem""]","","posttest trial","8",""
"html-button-response-clever","122","784512","0.0-13.0-0.2","9092","Te bizony sokat táklasz. Én is sokat...","0","táklok","[""táklok"",""táklom""]","","posttest trial","8",""
"html-button-response-clever","123","789406","0.0-13.0-0.3","4389","Te bizony sokat flibekszel. Én is sokat...","0","flibekszem","[""flibekszem"",""flibekszek""]","","posttest trial","8",""
"html-button-response-clever","124","792612","0.0-13.0-0.4","2692","Te bizony sokat fligzol. Én is sokat...","1","fligzok","[""fligzom"",""fligzok""]","","posttest trial","8",""
"html-button-response-clever","125","795343","0.0-13.0-0.5","2228","Te bizony sokat trihagzol. Én is sokat...","0","trihagzom","[""trihagzom"",""trihagzok""]","","posttest trial","8",""
"html-button-response-clever","126","809875","0.0-13.0-0.6","14026","Te bizony sokat plágadzol. Én is sokat...","0","plágadzom","[""plágadzom"",""plágadzok""]","","posttest trial","8",""
"html-button-response-clever","127","816681","0.0-13.0-0.7","6304","Te bizony sokat gerénylesz. Én is sokat...","0","gerénylek","[""gerénylek"",""gerénylem""]","","posttest trial","8",""
"html-button-response-clever","128","821586","0.0-13.0-0.8","4402","Te bizony sokat tuboklasz. Én is sokat...","1","tuboklom","[""tuboklok"",""tuboklom""]","","posttest trial","8",""
"html-button-response-clever","129","826308","0.0-13.0-0.9","4213","Te bizony sokat frágapszol. Én is sokat...","1","frágapszom","[""frágapszok"",""frágapszom""]","","posttest trial","8",""
"html-button-response-clever","130","831677","0.0-13.0-0.10","4862","Te bizony sokat brarlasz. Én is sokat...","1","brarlok","[""brarlom"",""brarlok""]","","posttest trial","8",""
"html-button-response-clever","131","840597","0.0-13.0-0.11","8413","Te bizony sokat drügzöl. Én is sokat...","1","drügzöm","[""drügzök"",""drügzöm""]","","posttest trial","8",""
"html-button-response-clever","132","846053","0.0-13.0-0.12","4945","Te bizony sokat prohódzol. Én is sokat...","1","prohódzom","[""prohódzok"",""prohódzom""]","","posttest trial","8",""
"html-button-response-clever","133","858440","0.0-13.0-0.13","11874","Te bizony sokat sprálszol. Én is sokat...","1","sprálszom","[""sprálszok"",""sprálszom""]","","posttest trial","8",""
"html-button-response-clever","134","864824","0.0-13.0-0.14","5876","Te bizony sokat livaklasz. Én is sokat...","1","livaklom","[""livaklok"",""livaklom""]","","posttest trial","8",""
"html-button-response-clever","135","887337","0.0-13.0-0.15","22007","Te bizony sokat flözlesz. Én is sokat...","1","flözlök","[""flözlöm"",""flözlök""]","","posttest trial","8",""
"html-button-response-clever","136","893345","0.0-13.0-0.16","5494","Te bizony sokat préleglesz. Én is sokat...","1","préleglem","[""préleglek"",""préleglem""]","","posttest trial","8",""
"html-button-response-clever","137","898365","0.0-13.0-0.17","4514","Te bizony sokat zödlesz. Én is sokat...","0","zödlök","[""zödlök"",""zödlöm""]","","posttest trial","8",""
"html-button-response-clever","138","902536","0.0-13.0-0.18","3665","Te bizony sokat friszlasz. Én is sokat...","1","friszlom","[""friszlok"",""friszlom""]","","posttest trial","8",""
"html-button-response-clever","139","906979","0.0-13.0-0.19","3939","Te bizony sokat pugoslasz. Én is sokat...","0","pugoslom","[""pugoslom"",""pugoslok""]","","posttest trial","8",""
"html-button-response-clever","140","911902","0.0-13.0-0.20","4407","Te bizony sokat mékszel. Én is sokat...","0","mékszem","[""mékszem"",""mékszek""]","","posttest trial","8",""
"html-button-response-clever","141","915513","0.0-13.0-0.21","3099","Te bizony sokat huklasz. Én is sokat...","1","huklok","[""huklom"",""huklok""]","","posttest trial","8",""
"html-button-response-clever","142","921954","0.0-13.0-0.22","5931","Te bizony sokat szűslesz. Én is sokat...","0","szűslök","[""szűslök"",""szűslöm""]","","posttest trial","8",""
"html-button-response-clever","143","927506","0.0-13.0-0.23","5038","Te bizony sokat flérlesz. Én is sokat...","1","flérlek","[""flérlem"",""flérlek""]","","posttest trial","8",""
"html-button-response-clever","144","931995","0.0-13.0-0.24","3986","Te bizony sokat prezlesz. Én is sokat...","0","prezlek","[""prezlek"",""prezlem""]","","posttest trial","8",""
"html-button-response-clever","145","935470","0.0-13.0-0.25","2959","Te bizony sokat sprédlesz. Én is sokat...","0","sprédlem","[""sprédlem"",""sprédlek""]","","posttest trial","8",""
"html-button-response-clever","146","940511","0.0-13.0-0.26","4524","Te bizony sokat gilárzol. Én is sokat...","1","gilárzom","[""gilárzok"",""gilárzom""]","","posttest trial","8",""
"html-button-response-clever","147","945175","0.0-13.0-0.27","4147","Te bizony sokat kumlasz. Én is sokat...","0","kumlok","[""kumlok"",""kumlom""]","","posttest trial","8",""
"html-button-response-clever","148","950620","0.0-13.0-0.28","4928","Te bizony sokat klidlasz. Én is sokat...","1","klidlok","[""klidlom"",""klidlok""]","","posttest trial","8",""
"html-button-response-clever","149","957224","0.0-13.0-0.29","6099","Te bizony sokat spülöklesz. Én is sokat...","1","spülöklök","[""spülöklöm"",""spülöklök""]","","posttest trial","8",""
"html-button-response-clever","150","967015","0.0-13.0-0.30","9286","Te bizony sokat fliraklasz. Én is sokat...","0","fliraklom","[""fliraklom"",""fliraklok""]","","posttest trial","8",""
"html-button-response-clever","151","972634","0.0-13.0-0.31","5115","Te bizony sokat bivejlesz. Én is sokat...","1","bivejlek","[""bivejlem"",""bivejlek""]","","posttest trial","8",""
"html-button-response-clever","152","979751","0.0-13.0-0.32","6614","Te bizony sokat plövőrzöl. Én is sokat...","1","plövőrzök","[""plövőrzöm"",""plövőrzök""]","","posttest trial","8",""
"html-button-response-clever","153","984084","0.0-13.0-0.33","3817","Te bizony sokat lihadzol. Én is sokat...","1","lihadzok","[""lihadzom"",""lihadzok""]","","posttest trial","8",""
"html-button-response-clever","154","987677","0.0-13.0-0.34","3079","Te bizony sokat vihepszel. Én is sokat...","0","vihepszem","[""vihepszem"",""vihepszek""]","","posttest trial","8",""
"html-button-response-clever","155","993305","0.0-13.0-0.35","5117","Te bizony sokat gyivádzol. Én is sokat...","0","gyivádzom","[""gyivádzom"",""gyivádzok""]","","posttest trial","8",""
"html-button-response-clever","156","1004660","0.0-13.0-0.36","10841","Te bizony sokat gyibakszol. Én is sokat...","0","gyibakszom","[""gyibakszom"",""gyibakszok""]","","posttest trial","8",""
"html-button-response-clever","157","1012210","0.0-13.0-0.37","7033","Te bizony sokat féjzel. Én is sokat...","0","féjzek","[""féjzek"",""féjzem""]","","posttest trial","8",""
"html-button-response-clever","158","1017223","0.0-13.0-0.38","4484","Te bizony sokat spüszlesz. Én is sokat...","0","spüszlök","[""spüszlök"",""spüszlöm""]","","posttest trial","8",""
"html-button-response-clever","159","1024628","0.0-13.0-0.39","6887","Te bizony sokat ibáglasz. Én is sokat...","1","ibáglok","[""ibáglom"",""ibáglok""]","","posttest trial","8",""
"html-button-response-clever","160","1031501","0.0-13.0-0.40","6353","Te bizony sokat floglasz. Én is sokat...","1","floglom","[""floglok"",""floglom""]","","posttest trial","8",""
"html-button-response-clever","161","1036175","0.0-13.0-0.41","4161","Te bizony sokat péleslesz. Én is sokat...","1","péleslek","[""péleslem"",""péleslek""]","","posttest trial","8",""
"html-button-response-clever","162","1040163","0.0-13.0-0.42","3469","Te bizony sokat vűjlesz. Én is sokat...","0","vűjlök","[""vűjlök"",""vűjlöm""]","","posttest trial","8",""
"html-button-response-clever","163","1044770","0.0-13.0-0.43","4097","Te bizony sokat spélszel. Én is sokat...","0","spélszem","[""spélszem"",""spélszek""]","","posttest trial","8",""
"html-button-response-clever","164","1049191","0.0-13.0-0.44","3909","Te bizony sokat praslasz. Én is sokat...","0","praslok","[""praslok"",""praslom""]","","posttest trial","8",""
"html-button-response-clever","165","1054135","0.0-13.0-0.45","4440","Te bizony sokat spülőrzöl. Én is sokat...","0","spülőrzöm","[""spülőrzöm"",""spülőrzök""]","","posttest trial","8",""
"html-button-response-clever","166","1058123","0.0-13.0-0.46","3481","Te bizony sokat sztruglasz. Én is sokat...","1","sztruglok","[""sztruglom"",""sztruglok""]","","posttest trial","8",""
"html-button-response-clever","167","1063732","0.0-13.0-0.47","5101","Te bizony sokat aglasz. Én is sokat...","1","aglok","[""aglom"",""aglok""]","","posttest trial","8",""
"html-button-response-clever","168","1068520","0.0-13.0-0.48","4274","Te bizony sokat klárzol. Én is sokat...","1","klárzom","[""klárzok"",""klárzom""]","","posttest trial","8",""
"html-button-response-clever","169","1075019","0.0-13.0-0.49","5985","Te bizony sokat prihekszel. Én is sokat...","1","prihekszem","[""prihekszek"",""prihekszem""]","","posttest trial","8",""
"html-button-response-clever","170","1080263","0.0-13.0-0.50","4736","Te bizony sokat spatszol. Én is sokat...","1","spatszok","[""spatszom"",""spatszok""]","","posttest trial","8",""
"html-button-response-clever","171","1084523","0.0-13.0-0.51","3740","Te bizony sokat frivajlasz. Én is sokat...","1","frivajlok","[""frivajlom"",""frivajlok""]","","posttest trial","8",""
"html-button-response-clever","172","1089474","0.0-13.0-0.52","4443","Te bizony sokat spírzol. Én is sokat...","0","spírzom","[""spírzom"",""spírzok""]","","posttest trial","8",""
"html-button-response-clever","173","1095674","0.0-13.0-0.53","5676","Te bizony sokat csólorzol. Én is sokat...","1","csólorzom","[""csólorzok"",""csólorzom""]","","posttest trial","8",""
"html-button-response","174","1100579","0.0-14.0","4387","<p> Vége a játéknak. A teljes pontszámod 29/54.</p><p> Szép munka! &#128526;&#128526;&#128526;</p><p>A Befejezés gomb megnyomása után bezárhatod a böngészőablakot.</p>","0","","","","","",""
"html-keyboard-response","175","1106110","0.0-15.0","null","<div class=""message"">
         <p>Egy kis türelmet kérünk, amíg elmentjük az adatokat...</p>
         </div>","null","","","","","",""
