"trial_type","trial_index","time_elapsed","internal_node_id","rt","stimulus","response","response_string","choices","esp_response","trial_kind","list_number","esp_match"
"pavlovia","0","1059","0.0-0.0","","","","","","","","",""
"html-button-response","1","37225","0.0-1.0","35652","<p>Kedves Résztvevő! A Budapesti Műszaki és Gazdaságtudományi Egyetem Kognitív Tudományi Tanszékének kutatásában való részvételed kérjük. A kutatásban azt vizsgáljuk, hogy a magyar anyanyelvűek hogyan használnak bizonyos szóalakokat, és hogy milyen képük van arról, hogy mások hogyan használják, hogyan képzik a szavakat. Ez hozzásegít bennünket ahhoz, hogy jobban megértsük, hogyan dolgozza fel és tárolja a nyelvet az emberi agy, és hogyan működnek, hogyan változnak egy adott közösség nyelvi konvenciói.</p><p>A vizsgálat egy rövid számítógépes feladatból fog állni. A kutatásban való részvétel önkéntes, a részvételi szándék bármikor visszavonható. A résztvevők eredményeit név nélkül kezeljük, így nem beazonosíthatók az adatok feldolgozása során. Minden személyes adatot az EU általános adatvédelmi rendeletének (GDPR) megfelelően kezelünk és legfeljebb öt éven belül megsemmisítünk. A vizsgálat jellemzően húsz percet vesz igénybe.</p><p>Kutatásvezető:</p><p>Dr. Rácz Péter, tudományos munkatárs, BME KTT</p><p>e-mail: racz.peter.marton@ttk.bme.hu</p>","0","","","","","",""
"html-button-response","2","373567","0.0-2.0","335835","<p>A kísérletben szavakat fogsz látni. Ezek között lesznek olyanok, amelyeket ismersz, de előfordulhatnak olyanok is, amelyeket nem ismersz, sőt, vannak köztük kitalált szavak is. Minden szónál látni fogsz toldalékolt alakokat. A te feladatod az lesz, hogy minden szóhoz kiválaszd azt a toldalékolt alakot, amely a te számodra ismerősebben, természetesebben hangzik. Rossz válaszok nincsenek, mert van olyan, hogy különböző embereknek más és más szó tűnik jobb választásnak. A választ úgy tudod majd kiválasztani, ha rákattintasz.</p><p>Ebben a szóválasztós játékban egy másik játékossal együtt veszel majd részt. A másik játékos is minden esetben azok közül a lehetőségek közül válogathat, mint te. Kettőtök feladata az, hogy ugyanazt a lehetőséget válasszátok minden esetben. Ahhoz, hogy ez sikerüljön, neked figyelned kell arra, hogy a másik játékos milyen válaszokat ad, és ennek alapján meg kell tippelned, hogyan választ legközelebb. Ha eltalálod, akkor pontot kapsz.</p>","0","","","","","",""
"html-button-response","3","426047","0.0-3.0","51961","<p>Kérjük, olvasd el az alábbi nyilatkozatot, és amennyiben egyetértesz vele, nyomj a Beleegyezés gombra!</p><p>Kijelentem, hogy magyar anyanyelvű személyként önként veszek részt a BME KTT kísérletében. A kutatás céljával és folyamatával kapcsolatban elegendő tájékoztatást kaptam, lehetőségem volt kérdések feltételére, és esetleges kérdéseimre megfelelő válaszokat kaptam. A tájékoztatás alapján elegendő mennyiségű információ áll a rendelkezésemre, hogy eldönthessem, részt kívánok-e venni a kutatásban.</p><p>Tisztában vagyok vele, hogy részvételi szándékomat és adataimat bármikor, indoklás nélkül visszavonhatom.</p><p>Értem és tudomásul veszem, hogy a kutatás tudományos célokat szolgál, és az általam szolgáltatott adatokat a BME kizárólag kutatási célból használja fel. Tudomásul veszem, hogy eredményeimet a többi résztvevő eredményeivel együtt kezelik, így egyéni teljesítményemről visszajelzést, szakvéleményt nem kapok.</p><p>Megértettem, hogy adataim kezelését illetően a BME az EU általános adatvédelmi rendelete (GDPR), a hatályos adatvédelmi törvény és a nemzetközi kutatás-etikai alapelvek szerint jár el. Eredményeim anonim módon kerülnek feldolgozásra, és a kutatás résztvevői az azonosításomra alkalmas adataimat harmadik félnek nem szolgáltatják ki. Engedélyezem a BME számára a jelen kutatásban felvett adataim feldolgozását és tárolását, beleértve azok későbbi kutatásokhoz való felhasználását is. Személyes adataim kezelésével kapcsolatban tájékoztatást kérhetek a kutatás résztvevőitől, az adatkezelés ellen tiltakozhatok, kérhetem személyes adataim helyesbítését, törlését vagy zárolását, valamint jogorvoslatért a Nemzeti Adatvédelmi és Információszabadság Hatósághoz fordulhatok.</p><p>Kijelentem, hogy a kutatásban való részvételem körülményeiről részletes tájékoztatást kaptam, és a feltételeket elfogadom.</p>","0","","","","","",""
"survey-text","4","478697","0.0-4.0","52121","","{""Q0"":""PRR9PJ"",""Q1"":""Nő"",""Q2"":""2000"",""Q3"":""15""}","","","","","",""
"html-button-response","5","622583","0.0-5.0","143377","<p>Ebben a játékban szavakat kell toldalékolni.</p> <p>Minden körben mutatunk majd egy példamondatot, amiben lesz egy szó.</p> <p>Alatta jön egy második mondat, ezt a mondatot neked kell majd befejezni, ugyanezzel a szóval.</p> <p>Nem biztos, hogy a szó eleve ismerős lesz számodra!</p> <p>Minden mondathoz adunk két lehetőséget, ezeket balra és jobbra látod majd.</p> <p>A játék kb. negyedóráig-húsz percig tart.</p>","0","","","","","",""
"html-button-response","6","639748","0.0-6.0","16638","<p>Nézzünk egy példát!</p> <p>A példamondat: ""János imád fláramolni, ezért sokat fláramlik. Mi ritkán...""</p><p>Neked ezt a mondatot kell befejezned: ""Ti ritkán...""</p><p>A lehetőségek pedig ezek:</p>","0","","","","","",""
"html-button-response","7","650028","0.0-7.0","9753","<p>Nagyon jó.</p><p>Ezt a játékot nem egyedül fogod játszani, hanem egy másik játékossal.</p><p>Mielőtt továbblépünk, összekapcsolunk titeket egymással.</p><p>Ez igénybe vehet néhány másodpercet, amihez szíves türelmed kérjük.</p>","0","","","","","",""
"html-button-response","8","655771","0.0-8.0","null","<p>Csatlakozás a másik játékoshoz...</p>","null","","","","","",""
"html-button-response","9","658289","0.0-9.0","null","<p> Sikeres kapcsolódás!</p>","null","","","","","",""
"html-button-response","10","667623","0.0-10.0","8813","<p>A következőkben ketten játsszátok a szóválasztós játékot.</p><p>A feladatotok az lesz, hogy minden körben <b>ugyanazt</b> a szót válasszátok.</p><p>Minden ilyen egyező válaszért pontot kaptok.</p><p>Próbáld meg kitalálni, mit választ a másik játékos!</p><p>Bármikor választhatsz, a körnek akkor van vége, ha mindketten döntöttetek.</p><p>Sok sikert!</p>","0","","","","","",""
"html-button-response-esp","11","688231","0.0-11.0-0.0","20093","János imád prélemezni, ezért sokat prélemlik. Ők ritkán...","1","prélemeznek","[""prélemlenek"",""prélemeznek""]","prélemlenek","esp trial","5","false"
"html-button-response","12","691755","0.0-11.0-1.0","null","<p>A másik játékos ezt választotta: <b>prélemlenek</b>.</p><p>&#10060;</p><p>A válaszaitok <b>nem</b> egyeznek meg.</p>","null","","","","feedback trial","",""
"html-button-response-esp","13","697213","0.0-11.0-0.1","4940","János imád dilakozni, ezért sokat dilaklik. Ti ritkán...","0","dilakoztok","[""dilakoztok"",""dilaklotok""]","dilakoztok","esp trial","5","true"
"html-button-response","14","700732","0.0-11.0-1.1","null","<p>A másik játékos ezt választotta: <b>dilakoztok</b>.</p><p>&#x2705;</p><p>A te válaszod és a másik játékos válasza <b>megegyeznek</b>.</p>","null","","","","feedback trial","",""
"html-button-response-esp","15","718506","0.0-11.0-0.2","17267","János imád trivakodni, ezért sokat trivakszik. Mi ritkán...","0","trivakodunk","[""trivakodunk"",""trivakszunk""]","trivakszunk","esp trial","5","false"
"html-button-response","16","722034","0.0-11.0-1.2","null","<p>A másik játékos ezt választotta: <b>trivakszunk</b>.</p><p>&#10060;</p><p>A válaszaitok <b>nem</b> egyeznek meg.</p>","null","","","","feedback trial","",""
"html-button-response-esp","17","726870","0.0-11.0-0.3","4314","János imád spibegezni, ezért sokat spibeglik. Mi ritkán...","1","spibeglünk","[""spibegezünk"",""spibeglünk""]","spibeglünk","esp trial","5","true"
"html-button-response","18","730391","0.0-11.0-1.3","null","<p>A másik játékos ezt választotta: <b>spibeglünk</b>.</p><p>&#x2705;</p><p>A te válaszod és a másik játékos válasza <b>megegyeznek</b>.</p>","null","","","","feedback trial","",""
"html-button-response-esp","19","734917","0.0-11.0-0.4","4008","János imád frakozni, ezért sokat fraklik. Mi ritkán...","0","fraklunk","[""fraklunk"",""frakozunk""]","fraklunk","esp trial","5","true"
"html-button-response","20","738443","0.0-11.0-1.4","null","<p>A másik játékos ezt választotta: <b>fraklunk</b>.</p><p>&#x2705;</p><p>A te válaszod és a másik játékos válasza <b>megegyeznek</b>.</p>","null","","","","feedback trial","",""
"html-button-response-esp","21","742502","0.0-11.0-0.5","3544","János imád prögözni, ezért sokat prögzik. Ti ritkán...","0","prögzötök","[""prögzötök"",""prögöztök""]","prögöztök","esp trial","5","false"
"html-button-response","22","746025","0.0-11.0-1.5","null","<p>A másik játékos ezt választotta: <b>prögöztök</b>.</p><p>&#10060;</p><p>A válaszaitok <b>nem</b> egyeznek meg.</p>","null","","","","feedback trial","",""
"html-button-response-esp","23","753080","0.0-11.0-0.6","6532","János imád pilégedni, ezért sokat pilégszik. Ők ritkán...","0","pilégednek","[""pilégednek"",""pilégszenek""]","pilégszenek","esp trial","5","false"
"html-button-response","24","756611","0.0-11.0-1.6","null","<p>A másik játékos ezt választotta: <b>pilégszenek</b>.</p><p>&#10060;</p><p>A válaszaitok <b>nem</b> egyeznek meg.</p>","null","","","","feedback trial","",""
"html-button-response-esp","25","760674","0.0-11.0-0.7","3545","János imád fröjözni, ezért sokat fröjzik. Ti ritkán...","0","fröjöztök","[""fröjöztök"",""fröjzötök""]","fröjöztök","esp trial","5","true"
"html-button-response","26","764199","0.0-11.0-1.7","null","<p>A másik játékos ezt választotta: <b>fröjöztök</b>.</p><p>&#x2705;</p><p>A te válaszod és a másik játékos válasza <b>megegyeznek</b>.</p>","null","","","","feedback trial","",""
"html-button-response-esp","27","767968","0.0-11.0-0.8","2661","János imád föködni, ezért sokat fökszik. Ők ritkán...","0","fökszenek","[""fökszenek"",""föködnek""]","fökszenek","esp trial","5","true"
"html-button-response","28","771502","0.0-11.0-1.8","null","<p>A másik játékos ezt választotta: <b>fökszenek</b>.</p><p>&#x2705;</p><p>A te válaszod és a másik játékos válasza <b>megegyeznek</b>.</p>","null","","","","feedback trial","",""
"html-button-response-esp","29","775269","0.0-11.0-0.9","2724","János imád drilarozni, ezért sokat drilarzik. Mi ritkán...","0","drilarzunk","[""drilarzunk"",""drilarozunk""]","drilarozunk","esp trial","5","false"
"html-button-response","30","778808","0.0-11.0-1.9","null","<p>A másik játékos ezt választotta: <b>drilarozunk</b>.</p><p>&#10060;</p><p>A válaszaitok <b>nem</b> egyeznek meg.</p>","null","","","","feedback trial","",""
"html-button-response-esp","31","782948","0.0-11.0-0.10","3623","János imád spügözni, ezért sokat spügzik. Mi ritkán...","1","spügzünk","[""spügözünk"",""spügzünk""]","spügzünk","esp trial","5","true"
"html-button-response","32","786464","0.0-11.0-1.10","null","<p>A másik játékos ezt választotta: <b>spügzünk</b>.</p><p>&#x2705;</p><p>A te válaszod és a másik játékos válasza <b>megegyeznek</b>.</p>","null","","","","feedback trial","",""
"html-button-response-esp","33","790231","0.0-11.0-0.11","3249","János imád frálapodni, ezért sokat frálapszik. Ti ritkán...","0","frálapszotok","[""frálapszotok"",""frálapodtok""]","frálapszotok","esp trial","5","true"
"html-button-response","34","793753","0.0-11.0-1.11","null","<p>A másik játékos ezt választotta: <b>frálapszotok</b>.</p><p>&#x2705;</p><p>A te válaszod és a másik játékos válasza <b>megegyeznek</b>.</p>","null","","","","feedback trial","",""
"html-button-response-esp","35","798961","0.0-11.0-0.12","4701","János imád köszözni, ezért sokat köszlik. Ti ritkán...","0","köszlötök","[""köszlötök"",""köszöztök""]","köszöztök","esp trial","5","false"
"html-button-response","36","802482","0.0-11.0-1.12","null","<p>A másik játékos ezt választotta: <b>köszöztök</b>.</p><p>&#10060;</p><p>A válaszaitok <b>nem</b> egyeznek meg.</p>","null","","","","feedback trial","",""
"html-button-response-esp","37","806712","0.0-11.0-0.13","3713","János imád molodni, ezért sokat molszik. Ti ritkán...","1","molodtok","[""molszotok"",""molodtok""]","molszotok","esp trial","5","false"
"html-button-response","38","810237","0.0-11.0-1.13","null","<p>A másik játékos ezt választotta: <b>molszotok</b>.</p><p>&#10060;</p><p>A válaszaitok <b>nem</b> egyeznek meg.</p>","null","","","","feedback trial","",""
"html-button-response-esp","39","814939","0.0-11.0-0.14","4190","János imád privékedni, ezért sokat privékszik. Ők ritkán...","0","privékszenek","[""privékszenek"",""privékednek""]","privékszenek","esp trial","5","true"
"html-button-response","40","818460","0.0-11.0-1.14","null","<p>A másik játékos ezt választotta: <b>privékszenek</b>.</p><p>&#x2705;</p><p>A te válaszod és a másik játékos válasza <b>megegyeznek</b>.</p>","null","","","","feedback trial","",""
"html-button-response-esp","41","822222","0.0-11.0-0.15","2483","János imád spiharozni, ezért sokat spiharzik. Ti ritkán...","0","spiharoztok","[""spiharoztok"",""spiharzotok""]","spiharoztok","esp trial","5","true"
"html-button-response","42","825747","0.0-11.0-1.15","null","<p>A másik játékos ezt választotta: <b>spiharoztok</b>.</p><p>&#x2705;</p><p>A te válaszod és a másik játékos válasza <b>megegyeznek</b>.</p>","null","","","","feedback trial","",""
"html-button-response-esp","43","829513","0.0-11.0-0.16","2791","János imád flöközni, ezért sokat flöklik. Ti ritkán...","0","flöklötök","[""flöklötök"",""flököztök""]","flöklötök","esp trial","5","true"
"html-button-response","44","833042","0.0-11.0-1.16","null","<p>A másik játékos ezt választotta: <b>flöklötök</b>.</p><p>&#x2705;</p><p>A te válaszod és a másik játékos válasza <b>megegyeznek</b>.</p>","null","","","","feedback trial","",""
"html-button-response-esp","45","838886","0.0-11.0-0.17","5336","János imád flüröközni, ezért sokat flüröklik. Ti ritkán...","0","flüröklötök","[""flüröklötök"",""flürököztök""]","flüröklötök","esp trial","5","true"
"html-button-response","46","842407","0.0-11.0-1.17","null","<p>A másik játékos ezt választotta: <b>flüröklötök</b>.</p><p>&#x2705;</p><p>A te válaszod és a másik játékos válasza <b>megegyeznek</b>.</p>","null","","","","feedback trial","",""
"html-button-response-esp","47","846180","0.0-11.0-0.18","2922","János imád trugozni, ezért sokat trugzik. Ők ritkán...","0","trugoznak","[""trugoznak"",""trugzanak""]","trugoznak","esp trial","5","true"
"html-button-response","48","849707","0.0-11.0-1.18","null","<p>A másik játékos ezt választotta: <b>trugoznak</b>.</p><p>&#x2705;</p><p>A te válaszod és a másik játékos válasza <b>megegyeznek</b>.</p>","null","","","","feedback trial","",""
"html-button-response-esp","49","854363","0.0-11.0-0.19","4147","János imád dujozni, ezért sokat dujzik. Ők ritkán...","1","dujoznak","[""dujzanak"",""dujoznak""]","dujzanak","esp trial","5","false"
"html-button-response","50","857881","0.0-11.0-1.19","null","<p>A másik játékos ezt választotta: <b>dujzanak</b>.</p><p>&#10060;</p><p>A válaszaitok <b>nem</b> egyeznek meg.</p>","null","","","","feedback trial","",""
"html-button-response-esp","51","863451","0.0-11.0-0.20","5063","János imád frálasozni, ezért sokat frálaslik. Ők ritkán...","1","frálaslanak","[""frálasoznak"",""frálaslanak""]","frálaslanak","esp trial","5","true"
"html-button-response","52","866983","0.0-11.0-1.20","null","<p>A másik játékos ezt választotta: <b>frálaslanak</b>.</p><p>&#x2705;</p><p>A te válaszod és a másik játékos válasza <b>megegyeznek</b>.</p>","null","","","","feedback trial","",""
"html-button-response-esp","53","871458","0.0-11.0-0.21","3955","János imád posozni, ezért sokat poslik. Ti ritkán...","0","poslotok","[""poslotok"",""posoztok""]","poslotok","esp trial","5","true"
"html-button-response","54","874994","0.0-11.0-1.21","null","<p>A másik játékos ezt választotta: <b>poslotok</b>.</p><p>&#x2705;</p><p>A te válaszod és a másik játékos válasza <b>megegyeznek</b>.</p>","null","","","","feedback trial","",""
"html-button-response-esp","55","880746","0.0-11.0-0.22","5235","János imád sprűrözni, ezért sokat sprűrlik. Ők ritkán...","0","sprűröznek","[""sprűröznek"",""sprűrlenek""]","sprűrlenek","esp trial","5","false"
"html-button-response","56","884274","0.0-11.0-1.22","null","<p>A másik játékos ezt választotta: <b>sprűrlenek</b>.</p><p>&#10060;</p><p>A válaszaitok <b>nem</b> egyeznek meg.</p>","null","","","","feedback trial","",""
"html-button-response-esp","57","888263","0.0-11.0-0.23","3474","János imád drűrözni, ezért sokat drűrzik. Ők ritkán...","1","drűröznek","[""drűrzenek"",""drűröznek""]","drűröznek","esp trial","5","true"
"html-button-response","58","891808","0.0-11.0-1.23","null","<p>A másik játékos ezt választotta: <b>drűröznek</b>.</p><p>&#x2705;</p><p>A te válaszod és a másik játékos válasza <b>megegyeznek</b>.</p>","null","","","","feedback trial","",""
"html-button-response-esp","59","896015","0.0-11.0-0.24","3700","János imád mülőrözni, ezért sokat mülőrzik. Mi ritkán...","1","mülőrözünk","[""mülőrzünk"",""mülőrözünk""]","mülőrzünk","esp trial","5","false"
"html-button-response","60","899546","0.0-11.0-1.24","null","<p>A másik játékos ezt választotta: <b>mülőrzünk</b>.</p><p>&#10060;</p><p>A válaszaitok <b>nem</b> egyeznek meg.</p>","null","","","","feedback trial","",""
"html-button-response-esp","61","903936","0.0-11.0-0.25","3872","János imád csibagozni, ezért sokat csibagzik. Ti ritkán...","0","csibagzotok","[""csibagzotok"",""csibagoztok""]","csibagoztok","esp trial","5","false"
"html-button-response","62","907475","0.0-11.0-1.25","null","<p>A másik játékos ezt választotta: <b>csibagoztok</b>.</p><p>&#10060;</p><p>A válaszaitok <b>nem</b> egyeznek meg.</p>","null","","","","feedback trial","",""
"html-button-response-esp","63","912749","0.0-11.0-0.26","4756","János imád spirágozni, ezért sokat spiráglik. Ti ritkán...","0","spiráglotok","[""spiráglotok"",""spirágoztok""]","spirágoztok","esp trial","5","false"
"html-button-response","64","916282","0.0-11.0-1.26","null","<p>A másik játékos ezt választotta: <b>spirágoztok</b>.</p><p>&#10060;</p><p>A válaszaitok <b>nem</b> egyeznek meg.</p>","null","","","","feedback trial","",""
"html-button-response-esp","65","921072","0.0-11.0-0.27","4282","János imád mágamozni, ezért sokat mágamlik. Mi ritkán...","1","mágamlunk","[""mágamozunk"",""mágamlunk""]","mágamlunk","esp trial","5","true"
"html-button-response","66","924593","0.0-11.0-1.27","null","<p>A másik játékos ezt választotta: <b>mágamlunk</b>.</p><p>&#x2705;</p><p>A te válaszod és a másik játékos válasza <b>megegyeznek</b>.</p>","null","","","","feedback trial","",""
"html-button-response-esp","67","928375","0.0-11.0-0.28","3263","János imád flemezni, ezért sokat flemlik. Mi ritkán...","1","flemlünk","[""flemezünk"",""flemlünk""]","flemezünk","esp trial","5","false"
"html-button-response","68","931899","0.0-11.0-1.28","null","<p>A másik játékos ezt választotta: <b>flemezünk</b>.</p><p>&#10060;</p><p>A válaszaitok <b>nem</b> egyeznek meg.</p>","null","","","","feedback trial","",""
"html-button-response-esp","69","936206","0.0-11.0-0.29","3790","János imád trugokozni, ezért sokat trugoklik. Ők ritkán...","0","trugokoznak","[""trugokoznak"",""trugoklanak""]","trugoklanak","esp trial","5","false"
"html-button-response","70","939734","0.0-11.0-1.29","null","<p>A másik játékos ezt választotta: <b>trugoklanak</b>.</p><p>&#10060;</p><p>A válaszaitok <b>nem</b> egyeznek meg.</p>","null","","","","feedback trial","",""
"html-button-response-esp","71","944715","0.0-11.0-0.30","4468","János imád klehényezni, ezért sokat klehénylik. Ti ritkán...","0","klehényeztek","[""klehényeztek"",""klehényletek""]","klehényletek","esp trial","5","false"
"html-button-response","72","948236","0.0-11.0-1.30","null","<p>A másik játékos ezt választotta: <b>klehényletek</b>.</p><p>&#10060;</p><p>A válaszaitok <b>nem</b> egyeznek meg.</p>","null","","","","feedback trial","",""
"html-button-response-esp","73","951998","0.0-11.0-0.31","2616","János imád lájozni, ezért sokat lájzik. Ti ritkán...","0","lájzotok","[""lájzotok"",""lájoztok""]","lájzotok","esp trial","5","true"
"html-button-response","74","955532","0.0-11.0-1.31","null","<p>A másik játékos ezt választotta: <b>lájzotok</b>.</p><p>&#x2705;</p><p>A te válaszod és a másik játékos válasza <b>megegyeznek</b>.</p>","null","","","","feedback trial","",""
"html-button-response-esp","75","959290","0.0-11.0-0.32","2696","János imád dirozni, ezért sokat dirlik. Ti ritkán...","0","dirlotok","[""dirlotok"",""diroztok""]","dirlotok","esp trial","5","true"
"html-button-response","76","962812","0.0-11.0-1.32","null","<p>A másik játékos ezt választotta: <b>dirlotok</b>.</p><p>&#x2705;</p><p>A te válaszod és a másik játékos válasza <b>megegyeznek</b>.</p>","null","","","","feedback trial","",""
"html-button-response-esp","77","966575","0.0-11.0-0.33","2626","János imád pragányozni, ezért sokat pragánylik. Ti ritkán...","0","pragánylotok","[""pragánylotok"",""pragányoztok""]","pragánylotok","esp trial","5","true"
"html-button-response","78","970108","0.0-11.0-1.33","null","<p>A másik játékos ezt választotta: <b>pragánylotok</b>.</p><p>&#x2705;</p><p>A te válaszod és a másik játékos válasza <b>megegyeznek</b>.</p>","null","","","","feedback trial","",""
"html-button-response-esp","79","975601","0.0-11.0-0.34","4983","János imád gihejezni, ezért sokat gihejlik. Mi ritkán...","0","gihejezünk","[""gihejezünk"",""gihejlünk""]","gihejlünk","esp trial","5","false"
"html-button-response","80","979139","0.0-11.0-1.34","null","<p>A másik játékos ezt választotta: <b>gihejlünk</b>.</p><p>&#10060;</p><p>A válaszaitok <b>nem</b> egyeznek meg.</p>","null","","","","feedback trial","",""
"html-button-response-esp","81","983808","0.0-11.0-0.35","4154","János imád dabozni, ezért sokat dabzik. Ti ritkán...","1","dabzotok","[""daboztok"",""dabzotok""]","dabzotok","esp trial","5","true"
"html-button-response","82","987340","0.0-11.0-1.35","null","<p>A másik játékos ezt választotta: <b>dabzotok</b>.</p><p>&#x2705;</p><p>A te válaszod és a másik játékos válasza <b>megegyeznek</b>.</p>","null","","","","feedback trial","",""
"html-button-response-esp","83","993509","0.0-11.0-0.36","5648","János imád sprudozni, ezért sokat sprudlik. Mi ritkán...","1","sprudlunk","[""sprudozunk"",""sprudlunk""]","sprudozunk","esp trial","5","false"
"html-button-response","84","997025","0.0-11.0-1.36","null","<p>A másik játékos ezt választotta: <b>sprudozunk</b>.</p><p>&#10060;</p><p>A válaszaitok <b>nem</b> egyeznek meg.</p>","null","","","","feedback trial","",""
"html-button-response-esp","85","1002131","0.0-11.0-0.37","4587","János imád brözözni, ezért sokat brözlik. Ti ritkán...","1","brözlötök","[""brözöztök"",""brözlötök""]","brözlötök","esp trial","5","true"
"html-button-response","86","1005654","0.0-11.0-1.37","null","<p>A másik játékos ezt választotta: <b>brözlötök</b>.</p><p>&#x2705;</p><p>A te válaszod és a másik játékos válasza <b>megegyeznek</b>.</p>","null","","","","feedback trial","",""
"html-button-response-esp","87","1009445","0.0-11.0-0.38","3273","János imád püzözni, ezért sokat püzlik. Ti ritkán...","0","püzlötök","[""püzlötök"",""püzöztök""]","püzlötök","esp trial","5","true"
"html-button-response","88","1012971","0.0-11.0-1.38","null","<p>A másik játékos ezt választotta: <b>püzlötök</b>.</p><p>&#x2705;</p><p>A te válaszod és a másik játékos válasza <b>megegyeznek</b>.</p>","null","","","","feedback trial","",""
"html-button-response-esp","89","1018370","0.0-11.0-0.39","4875","János imád sprozozni, ezért sokat sprozlik. Ők ritkán...","0","sprozoznak","[""sprozoznak"",""sprozlanak""]","sprozlanak","esp trial","5","false"
"html-button-response","90","1021899","0.0-11.0-1.39","null","<p>A másik játékos ezt választotta: <b>sprozlanak</b>.</p><p>&#10060;</p><p>A válaszaitok <b>nem</b> egyeznek meg.</p>","null","","","","feedback trial","",""
"html-button-response-esp","91","1025653","0.0-11.0-0.40","2750","János imád branyozni, ezért sokat branylik. Ők ritkán...","0","branyoznak","[""branyoznak"",""branylanak""]","branylanak","esp trial","5","false"
"html-button-response","92","1029172","0.0-11.0-1.40","null","<p>A másik játékos ezt választotta: <b>branylanak</b>.</p><p>&#10060;</p><p>A válaszaitok <b>nem</b> egyeznek meg.</p>","null","","","","feedback trial","",""
"html-button-response-esp","93","1033628","0.0-11.0-0.41","3953","János imád trikozni, ezért sokat triklik. Ti ritkán...","1","triklotok","[""trikoztok"",""triklotok""]","triklotok","esp trial","5","true"
"html-button-response","94","1037148","0.0-11.0-1.41","null","<p>A másik játékos ezt választotta: <b>triklotok</b>.</p><p>&#x2705;</p><p>A te válaszod és a másik játékos válasza <b>megegyeznek</b>.</p>","null","","","","feedback trial","",""
"html-button-response-esp","95","1041542","0.0-11.0-0.42","3890","János imád gyihegezni, ezért sokat gyihegzik. Ti ritkán...","1","gyihegeztek","[""gyihegzetek"",""gyihegeztek""]","gyihegeztek","esp trial","5","true"
"html-button-response","96","1045062","0.0-11.0-1.42","null","<p>A másik játékos ezt választotta: <b>gyihegeztek</b>.</p><p>&#x2705;</p><p>A te válaszod és a másik játékos válasza <b>megegyeznek</b>.</p>","null","","","","feedback trial","",""
"html-button-response-esp","97","1049434","0.0-11.0-0.43","3853","János imád brivakozni, ezért sokat brivaklik. Ti ritkán...","0","brivakoztok","[""brivakoztok"",""brivaklotok""]","brivaklotok","esp trial","5","false"
"html-button-response","98","1052955","0.0-11.0-1.43","null","<p>A másik játékos ezt választotta: <b>brivaklotok</b>.</p><p>&#10060;</p><p>A válaszaitok <b>nem</b> egyeznek meg.</p>","null","","","","feedback trial","",""
"html-button-response-esp","99","1056709","0.0-11.0-0.44","2382","János imád lűközni, ezért sokat lűklik. Ők ritkán...","1","lűklenek","[""lűköznek"",""lűklenek""]","lűköznek","esp trial","5","false"
"html-button-response","100","1060236","0.0-11.0-1.44","null","<p>A másik játékos ezt választotta: <b>lűköznek</b>.</p><p>&#10060;</p><p>A válaszaitok <b>nem</b> egyeznek meg.</p>","null","","","","feedback trial","",""
"html-button-response-esp","101","1067741","0.0-11.0-0.45","6996","János imád bratározni, ezért sokat bratárzik. Ők ritkán...","1","bratároznak","[""bratárzanak"",""bratároznak""]","bratároznak","esp trial","5","true"
"html-button-response","102","1071273","0.0-11.0-1.45","null","<p>A másik játékos ezt választotta: <b>bratároznak</b>.</p><p>&#x2705;</p><p>A te válaszod és a másik játékos válasza <b>megegyeznek</b>.</p>","null","","","","feedback trial","",""
"html-button-response-esp","103","1076912","0.0-11.0-0.46","5119","János imád csubozni, ezért sokat csubzik. Mi ritkán...","0","csubzunk","[""csubzunk"",""csubozunk""]","csubzunk","esp trial","5","true"
"html-button-response","104","1080442","0.0-11.0-1.46","null","<p>A másik játékos ezt választotta: <b>csubzunk</b>.</p><p>&#x2705;</p><p>A te válaszod és a másik játékos válasza <b>megegyeznek</b>.</p>","null","","","","feedback trial","",""
"html-button-response-esp","105","1084207","0.0-11.0-0.47","2572","János imád kűdözni, ezért sokat kűdlik. Ők ritkán...","1","kűdöznek","[""kűdlenek"",""kűdöznek""]","kűdlenek","esp trial","5","false"
"html-button-response","106","1087728","0.0-11.0-1.47","null","<p>A másik játékos ezt választotta: <b>kűdlenek</b>.</p><p>&#10060;</p><p>A válaszaitok <b>nem</b> egyeznek meg.</p>","null","","","","feedback trial","",""
"html-button-response-esp","107","1091495","0.0-11.0-0.48","2814","János imád nyivágozni, ezért sokat nyivágzik. Mi ritkán...","1","nyivágzunk","[""nyivágozunk"",""nyivágzunk""]","nyivágzunk","esp trial","5","true"
"html-button-response","108","1095029","0.0-11.0-1.48","null","<p>A másik játékos ezt választotta: <b>nyivágzunk</b>.</p><p>&#x2705;</p><p>A te válaszod és a másik játékos válasza <b>megegyeznek</b>.</p>","null","","","","feedback trial","",""
"html-button-response-esp","109","1099691","0.0-11.0-0.49","4159","János imád dárakodni, ezért sokat dárakszik. Mi ritkán...","0","dárakodunk","[""dárakodunk"",""dárakszunk""]","dárakszunk","esp trial","5","false"
"html-button-response","110","1103215","0.0-11.0-1.49","null","<p>A másik játékos ezt választotta: <b>dárakszunk</b>.</p><p>&#10060;</p><p>A válaszaitok <b>nem</b> egyeznek meg.</p>","null","","","","feedback trial","",""
"html-button-response-esp","111","1107725","0.0-11.0-0.50","3989","János imád nyürözni, ezért sokat nyürzik. Ők ritkán...","0","nyürzenek","[""nyürzenek"",""nyüröznek""]","nyürzenek","esp trial","5","true"
"html-button-response","112","1111249","0.0-11.0-1.50","null","<p>A másik játékos ezt választotta: <b>nyürzenek</b>.</p><p>&#x2705;</p><p>A te válaszod és a másik játékos válasza <b>megegyeznek</b>.</p>","null","","","","feedback trial","",""
"html-button-response-esp","113","1115006","0.0-11.0-0.51","2795","János imád virozni, ezért sokat virzik. Ők ritkán...","1","virzanak","[""viroznak"",""virzanak""]","virzanak","esp trial","5","true"
"html-button-response","114","1118538","0.0-11.0-1.51","null","<p>A másik játékos ezt választotta: <b>virzanak</b>.</p><p>&#x2705;</p><p>A te válaszod és a másik játékos válasza <b>megegyeznek</b>.</p>","null","","","","feedback trial","",""
"html-button-response-esp","115","1122309","0.0-11.0-0.52","2587","János imád brülösözni, ezért sokat brülöslik. Mi ritkán...","1","brülöslünk","[""brülösözünk"",""brülöslünk""]","brülöslünk","esp trial","5","true"
"html-button-response","116","1125842","0.0-11.0-1.52","null","<p>A másik játékos ezt választotta: <b>brülöslünk</b>.</p><p>&#x2705;</p><p>A te válaszod és a másik játékos válasza <b>megegyeznek</b>.</p>","null","","","","feedback trial","",""
"html-button-response-esp","117","1129612","0.0-11.0-0.53","3098","János imád flűgözni, ezért sokat flűgzik. Mi ritkán...","0","flűgzünk","[""flűgzünk"",""flűgözünk""]","flűgzünk","esp trial","5","true"
"html-button-response","118","1133143","0.0-11.0-1.53","null","<p>A másik játékos ezt választotta: <b>flűgzünk</b>.</p><p>&#x2705;</p><p>A te válaszod és a másik játékos válasza <b>megegyeznek</b>.</p>","null","","","","feedback trial","",""
"html-button-response","119","1139435","0.0-12.0","5775","<p>A közös játék most véget ért.</p><p>Mielőtt eláruljuk a végső pontszámodat, arra kérlek, játszd a szóválasztós játékot néhány percig egyedül is.</p><p>A feladatod ugyanaz lesz, választani két lehetőség közül.</p><p>Most viszont egyedül kell döntened, hogy te melyiket választanád.</p>","0","","","","","",""
"html-button-response-clever","120","1144422","0.0-13.0-0.0","4477","János imád spibamozni, ezért sokat spibamlik. Ők ritkán...","1","spibamlanak","[""spibamoznak"",""spibamlanak""]","","posttest trial","8",""
"html-button-response-clever","121","1147610","0.0-13.0-0.1","2680","János imád frivamozni, ezért sokat frivamlik. Mi ritkán...","0","frivamlunk","[""frivamlunk"",""frivamozunk""]","","posttest trial","8",""
"html-button-response-clever","122","1152186","0.0-13.0-0.2","4060","János imád sprimozni, ezért sokat sprimlik. Mi ritkán...","1","sprimlunk","[""sprimozunk"",""sprimlunk""]","","posttest trial","8",""
"html-button-response-clever","123","1157866","0.0-13.0-0.3","5167","János imád filányozni, ezért sokat filánylik. Mi ritkán...","1","filányozunk","[""filánylunk"",""filányozunk""]","","posttest trial","8",""
"html-button-response-clever","124","1162387","0.0-13.0-0.4","3998","János imád tágarozni, ezért sokat tágarzik. Mi ritkán...","0","tágarozunk","[""tágarozunk"",""tágarzunk""]","","posttest trial","8",""
"html-button-response-clever","125","1167029","0.0-13.0-0.5","4137","János imád brározni, ezért sokat brárlik. Ők ritkán...","0","brároznak","[""brároznak"",""brárlanak""]","","posttest trial","8",""
"html-button-response-clever","126","1171199","0.0-13.0-0.6","3656","János imád spöközni, ezért sokat spöklik. Mi ritkán...","1","spöklünk","[""spöközünk"",""spöklünk""]","","posttest trial","8",""
"html-button-response-clever","127","1175151","0.0-13.0-0.7","3441","János imád gibemezni, ezért sokat gibemlik. Mi ritkán...","1","gibemlünk","[""gibemezünk"",""gibemlünk""]","","posttest trial","8",""
"html-button-response-clever","128","1179358","0.0-13.0-0.8","3683","János imád tribejezni, ezért sokat tribejlik. Ti ritkán...","1","tribejeztek","[""tribejletek"",""tribejeztek""]","","posttest trial","8",""
"html-button-response-clever","129","1183455","0.0-13.0-0.9","3595","János imád frésezni, ezért sokat fréslik. Mi ritkán...","1","fréslünk","[""frésezünk"",""fréslünk""]","","posttest trial","8",""
"html-button-response-clever","130","1187531","0.0-13.0-0.10","3556","János imád lírozni, ezért sokat lírlik. Ők ritkán...","0","líroznak","[""líroznak"",""lírlanak""]","","posttest trial","8",""
"html-button-response-clever","131","1191502","0.0-13.0-0.11","3456","János imád gatágozni, ezért sokat gatáglik. Mi ritkán...","0","gatágozunk","[""gatágozunk"",""gatáglunk""]","","posttest trial","8",""
"html-button-response-clever","132","1195271","0.0-13.0-0.12","3257","János imád flézezni, ezért sokat flézlik. Ti ritkán...","1","flézletek","[""flézeztek"",""flézletek""]","","posttest trial","8",""
"html-button-response-clever","133","1199814","0.0-13.0-0.13","4018","János imád tibarozni, ezért sokat tibarzik. Ők ritkán...","0","tibaroznak","[""tibaroznak"",""tibarzanak""]","","posttest trial","8",""
"html-button-response-clever","134","1205091","0.0-13.0-0.14","4773","János imád flubokozni, ezért sokat fluboklik. Ti ritkán...","0","fluboklotok","[""fluboklotok"",""flubokoztok""]","","posttest trial","8",""
"html-button-response-clever","135","1208478","0.0-13.0-0.15","2878","János imád bregezni, ezért sokat bregzik. Mi ritkán...","1","bregezünk","[""bregzünk"",""bregezünk""]","","posttest trial","8",""
"html-button-response-clever","136","1211845","0.0-13.0-0.16","2854","János imád míjozni, ezért sokat míjzik. Mi ritkán...","0","míjozunk","[""míjozunk"",""míjzunk""]","","posttest trial","8",""
"html-button-response-clever","137","1215513","0.0-13.0-0.17","3159","János imád brivepedni, ezért sokat brivepszik. Mi ritkán...","1","brivepszünk","[""brivepedünk"",""brivepszünk""]","","posttest trial","8",""
"html-button-response-clever","138","1218847","0.0-13.0-0.18","2817","János imád vobozni, ezért sokat vobzik. Ti ritkán...","1","vobzotok","[""voboztok"",""vobzotok""]","","posttest trial","8",""
"html-button-response-clever","139","1222258","0.0-13.0-0.19","2894","János imád trűnyözni, ezért sokat trűnylik. Ők ritkán...","0","trűnyöznek","[""trűnyöznek"",""trűnylenek""]","","posttest trial","8",""
"html-button-response-clever","140","1225755","0.0-13.0-0.20","2976","János imád brálamozni, ezért sokat brálamlik. Ők ritkán...","1","brálamlanak","[""brálamoznak"",""brálamlanak""]","","posttest trial","8",""
"html-button-response-clever","141","1228827","0.0-13.0-0.21","2567","János imád sponyozni, ezért sokat sponylik. Ők ritkán...","0","sponyoznak","[""sponyoznak"",""sponylanak""]","","posttest trial","8",""
"html-button-response-clever","142","1231777","0.0-13.0-0.22","2437","János imád nágapodni, ezért sokat nágapszik. Ők ritkán...","1","nágapszanak","[""nágapodnak"",""nágapszanak""]","","posttest trial","8",""
"html-button-response-clever","143","1236519","0.0-13.0-0.23","4234","János imád prilepedni, ezért sokat prilepszik. Mi ritkán...","1","prilepedünk","[""prilepszünk"",""prilepedünk""]","","posttest trial","8",""
"html-button-response-clever","144","1239618","0.0-13.0-0.24","2584","János imád galározni, ezért sokat galárzik. Ők ritkán...","0","galárzanak","[""galárzanak"",""galároznak""]","","posttest trial","8",""
"html-button-response-clever","145","1242974","0.0-13.0-0.25","2841","János imád kluzozni, ezért sokat kluzlik. Ti ritkán...","1","kluzoztok","[""kluzlotok"",""kluzoztok""]","","posttest trial","8",""
"html-button-response-clever","146","1246047","0.0-13.0-0.26","2565","János imád riványozni, ezért sokat riványlik. Ti ritkán...","1","riványoztok","[""riványlotok"",""riványoztok""]","","posttest trial","8",""
"html-button-response-clever","147","1249847","0.0-13.0-0.27","3290","János imád frihegezni, ezért sokat friheglik. Mi ritkán...","1","friheglünk","[""frihegezünk"",""friheglünk""]","","posttest trial","8",""
"html-button-response-clever","148","1253843","0.0-13.0-0.28","3482","János imád livényezni, ezért sokat livénylik. Mi ritkán...","1","livényezünk","[""livénylünk"",""livényezünk""]","","posttest trial","8",""
"html-button-response-clever","149","1257666","0.0-13.0-0.29","3306","János imád sprigozni, ezért sokat sprigzik. Ti ritkán...","0","sprigoztok","[""sprigoztok"",""sprigzotok""]","","posttest trial","8",""
"html-button-response-clever","150","1261842","0.0-13.0-0.30","3674","János imád flivegezni, ezért sokat flivegzik. Ők ritkán...","0","flivegeznek","[""flivegeznek"",""flivegzenek""]","","posttest trial","8",""
"html-button-response-clever","151","1265472","0.0-13.0-0.31","3119","János imád sztrajozni, ezért sokat sztrajlik. Ők ritkán...","0","sztrajlanak","[""sztrajlanak"",""sztrajoznak""]","","posttest trial","8",""
"html-button-response-clever","152","1268584","0.0-13.0-0.32","2610","János imád klarágozni, ezért sokat klarágzik. Ti ritkán...","0","klarágzotok","[""klarágzotok"",""klarágoztok""]","","posttest trial","8",""
"html-button-response-clever","153","1272371","0.0-13.0-0.33","3273","János imád prazozni, ezért sokat prazlik. Mi ritkán...","1","prazlunk","[""prazozunk"",""prazlunk""]","","posttest trial","8",""
"html-button-response-clever","154","1275578","0.0-13.0-0.34","2700","János imád gyivepedni, ezért sokat gyivepszik. Ők ritkán...","0","gyivepednek","[""gyivepednek"",""gyivepszenek""]","","posttest trial","8",""
"html-button-response-clever","155","1278262","0.0-13.0-0.35","2174","János imád pörözni, ezért sokat pörzik. Ti ritkán...","1","pöröztök","[""pörzötök"",""pöröztök""]","","posttest trial","8",""
"html-button-response-clever","156","1282371","0.0-13.0-0.36","3593","János imád trírozni, ezért sokat trírzik. Mi ritkán...","1","trírzunk","[""trírozunk"",""trírzunk""]","","posttest trial","8",""
"html-button-response-clever","157","1286105","0.0-13.0-0.37","3219","János imád küsözni, ezért sokat küslik. Mi ritkán...","0","küslünk","[""küslünk"",""küsözünk""]","","posttest trial","8",""
"html-button-response-clever","158","1290665","0.0-13.0-0.38","4046","János imád sztritozni, ezért sokat sztritlik. Ők ritkán...","0","sztritoznak","[""sztritoznak"",""sztritlanak""]","","posttest trial","8",""
"html-button-response-clever","159","1294135","0.0-13.0-0.39","2963","János imád brilegezni, ezért sokat brilegzik. Mi ritkán...","0","brilegzünk","[""brilegzünk"",""brilegezünk""]","","posttest trial","8",""
"html-button-response-clever","160","1297669","0.0-13.0-0.40","3016","János imád brivágozni, ezért sokat briváglik. Ők ritkán...","0","briváglanak","[""briváglanak"",""brivágoznak""]","","posttest trial","8",""
"html-button-response-clever","161","1301276","0.0-13.0-0.41","3092","János imád dirányozni, ezért sokat diránylik. Ők ritkán...","0","diránylanak","[""diránylanak"",""dirányoznak""]","","posttest trial","8",""
"html-button-response-clever","162","1304791","0.0-13.0-0.42","3007","János imád tűgözni, ezért sokat tűgzik. Ti ritkán...","0","tűgöztök","[""tűgöztök"",""tűgzötök""]","","posttest trial","8",""
"html-button-response-clever","163","1308105","0.0-13.0-0.43","2805","János imád mihágozni, ezért sokat mihágzik. Ti ritkán...","0","mihágoztok","[""mihágoztok"",""mihágzotok""]","","posttest trial","8",""
"html-button-response-clever","164","1348046","0.0-13.0-0.44","39420","János imád mísozni, ezért sokat míslik. Mi ritkán...","1","míslunk","[""mísozunk"",""míslunk""]","","posttest trial","8",""
"html-button-response-clever","165","1355872","0.0-13.0-0.45","7312","János imád hákodni, ezért sokat hákszik. Ők ritkán...","0","hákszanak","[""hákszanak"",""hákodnak""]","","posttest trial","8",""
"html-button-response-clever","166","1358956","0.0-13.0-0.46","2564","János imád pekedni, ezért sokat pekszik. Mi ritkán...","0","pekszünk","[""pekszünk"",""pekedünk""]","","posttest trial","8",""
"html-button-response-clever","167","1362840","0.0-13.0-0.47","3373","János imád spalározni, ezért sokat spalárzik. Ők ritkán...","1","spalároznak","[""spalárzanak"",""spalároznak""]","","posttest trial","8",""
"html-button-response-clever","168","1365473","0.0-13.0-0.48","2107","János imád fröjözni, ezért sokat fröjlik. Mi ritkán...","0","fröjözünk","[""fröjözünk"",""fröjlünk""]","","posttest trial","8",""
"html-button-response-clever","169","1368658","0.0-13.0-0.49","2676","János imád pehégedni, ezért sokat pehégszik. Ti ritkán...","0","pehégedtek","[""pehégedtek"",""pehégszetek""]","","posttest trial","8",""
"html-button-response-clever","170","1371387","0.0-13.0-0.50","2202","János imád brüszözni, ezért sokat brüszlik. Ti ritkán...","0","brüszöztök","[""brüszöztök"",""brüszlötök""]","","posttest trial","8",""
"html-button-response-clever","171","1374264","0.0-13.0-0.51","2362","János imád drojozni, ezért sokat drojzik. Mi ritkán...","0","drojzunk","[""drojzunk"",""drojozunk""]","","posttest trial","8",""
"html-button-response-clever","172","1377416","0.0-13.0-0.52","2634","János imád lumozni, ezért sokat lumlik. Ti ritkán...","0","lumlotok","[""lumlotok"",""lumoztok""]","","posttest trial","8",""
"html-button-response-clever","173","1380214","0.0-13.0-0.53","2277","János imád drivegezni, ezért sokat drivegzik. Ti ritkán...","0","drivegzetek","[""drivegzetek"",""drivegeztek""]","","posttest trial","8",""
"html-button-response","174","1384926","0.0-14.0","4194","<p> Vége a játéknak. A teljes pontszámod 31/54.</p><p> Szép munka! &#128526;&#128526;&#128526;</p><p>A Befejezés gomb megnyomása után bezárhatod a böngészőablakot.</p>","0","","","","","",""
"html-keyboard-response","175","1390458","0.0-15.0","null","<div class=""message"">
         <p>Egy kis türelmet kérünk, amíg elmentjük az adatokat...</p>
         </div>","null","","","","","",""
