"trial_type","trial_index","time_elapsed","internal_node_id","rt","stimulus","response","response_string","choices","esp_response","trial_kind","list_number","esp_match"
"pavlovia","0","659","0.0-0.0","","","","","","","","",""
"html-button-response","1","40218","0.0-1.0","38854","<p>Kedves Résztvevő! A Budapesti Műszaki és Gazdaságtudományi Egyetem Kognitív Tudományi Tanszékének kutatásában való részvételed kérjük. A kutatásban azt vizsgáljuk, hogy a magyar anyanyelvűek hogyan használnak bizonyos szóalakokat, és hogy milyen képük van arról, hogy mások hogyan használják, hogyan képzik a szavakat. Ez hozzásegít bennünket ahhoz, hogy jobban megértsük, hogyan dolgozza fel és tárolja a nyelvet az emberi agy, és hogyan működnek, hogyan változnak egy adott közösség nyelvi konvenciói.</p><p>A vizsgálat egy rövid számítógépes feladatból fog állni. A kutatásban való részvétel önkéntes, a részvételi szándék bármikor visszavonható. A résztvevők eredményeit név nélkül kezeljük, így nem beazonosíthatók az adatok feldolgozása során. Minden személyes adatot az EU általános adatvédelmi rendeletének (GDPR) megfelelően kezelünk és legfeljebb öt éven belül megsemmisítünk. A vizsgálat jellemzően húsz percet vesz igénybe.</p><p>Kutatásvezető:</p><p>Dr. Rácz Péter, tudományos munkatárs, BME KTT</p><p>e-mail: racz.peter.marton@ttk.bme.hu</p>","0","","","","","",""
"html-button-response","2","69522","0.0-2.0","28801","<p>A kísérletben szavakat fogsz látni. Ezek között lesznek olyanok, amelyeket ismersz, de előfordulhatnak olyanok is, amelyeket nem ismersz, sőt, vannak köztük kitalált szavak is. Minden szónál látni fogsz toldalékolt alakokat. A te feladatod az lesz, hogy minden szóhoz kiválaszd azt a toldalékolt alakot, amely a te számodra ismerősebben, természetesebben hangzik. Rossz válaszok nincsenek, mert van olyan, hogy különböző embereknek más és más szó tűnik jobb választásnak. A választ úgy tudod majd kiválasztani, ha rákattintasz.</p><p>Ebben a szóválasztós játékban egy másik játékossal együtt veszel majd részt. A másik játékos is minden esetben azok közül a lehetőségek közül válogathat, mint te. Kettőtök feladata az, hogy ugyanazt a lehetőséget válasszátok minden esetben. Ahhoz, hogy ez sikerüljön, neked figyelned kell arra, hogy a másik játékos milyen válaszokat ad, és ennek alapján meg kell tippelned, hogyan választ legközelebb. Ha eltalálod, akkor pontot kapsz.</p>","0","","","","","",""
"html-button-response","3","88506","0.0-3.0","18480","<p>Kérjük, olvasd el az alábbi nyilatkozatot, és amennyiben egyetértesz vele, nyomj a Beleegyezés gombra!</p><p>Kijelentem, hogy magyar anyanyelvű személyként önként veszek részt a BME KTT kísérletében. A kutatás céljával és folyamatával kapcsolatban elegendő tájékoztatást kaptam, lehetőségem volt kérdések feltételére, és esetleges kérdéseimre megfelelő válaszokat kaptam. A tájékoztatás alapján elegendő mennyiségű információ áll a rendelkezésemre, hogy eldönthessem, részt kívánok-e venni a kutatásban.</p><p>Tisztában vagyok vele, hogy részvételi szándékomat és adataimat bármikor, indoklás nélkül visszavonhatom.</p><p>Értem és tudomásul veszem, hogy a kutatás tudományos célokat szolgál, és az általam szolgáltatott adatokat a BME kizárólag kutatási célból használja fel. Tudomásul veszem, hogy eredményeimet a többi résztvevő eredményeivel együtt kezelik, így egyéni teljesítményemről visszajelzést, szakvéleményt nem kapok.</p><p>Megértettem, hogy adataim kezelését illetően a BME az EU általános adatvédelmi rendelete (GDPR), a hatályos adatvédelmi törvény és a nemzetközi kutatás-etikai alapelvek szerint jár el. Eredményeim anonim módon kerülnek feldolgozásra, és a kutatás résztvevői az azonosításomra alkalmas adataimat harmadik félnek nem szolgáltatják ki. Engedélyezem a BME számára a jelen kutatásban felvett adataim feldolgozását és tárolását, beleértve azok későbbi kutatásokhoz való felhasználását is. Személyes adataim kezelésével kapcsolatban tájékoztatást kérhetek a kutatás résztvevőitől, az adatkezelés ellen tiltakozhatok, kérhetem személyes adataim helyesbítését, törlését vagy zárolását, valamint jogorvoslatért a Nemzeti Adatvédelmi és Információszabadság Hatósághoz fordulhatok.</p><p>Kijelentem, hogy a kutatásban való részvételem körülményeiről részletes tájékoztatást kaptam, és a feltételeket elfogadom.</p>","0","","","","","",""
"survey-text","4","120770","0.0-4.0","31750","","{""Q0"":""ETB702"",""Q1"":"""",""Q2"":""2000"",""Q3"":""16""}","","","","","",""
"html-button-response","5","129682","0.0-5.0","8402","<p>Ebben a játékban szavakat kell toldalékolni.</p> <p>Minden körben mutatunk majd egy példamondatot, amiben lesz egy szó.</p> <p>Alatta jön egy második mondat, ezt a mondatot neked kell majd befejezni, ugyanezzel a szóval.</p> <p>Nem biztos, hogy a szó eleve ismerős lesz számodra!</p> <p>Minden mondathoz adunk két lehetőséget, ezeket balra és jobbra látod majd.</p> <p>A játék kb. negyedóráig-húsz percig tart.</p>","0","","","","","",""
"html-button-response","6","150298","0.0-6.0","20111","<p>Nézzünk egy példát!</p> <p>A példamondat: ""János imád fláramolni, ezért sokat fláramlik. Mi ritkán...""</p><p>Neked ezt a mondatot kell befejezned: ""Ti ritkán...""</p><p>A lehetőségek pedig ezek:</p>","0","","","","","",""
"html-button-response","7","155650","0.0-7.0","4850","<p>Nagyon jó.</p><p>Ezt a játékot nem egyedül fogod játszani, hanem egy másik játékossal.</p><p>Mielőtt továbblépünk, összekapcsolunk titeket egymással.</p><p>Ez igénybe vehet néhány másodpercet, amihez szíves türelmed kérjük.</p>","0","","","","","",""
"html-button-response","8","161386","0.0-8.0","null","<p>Csatlakozás a másik játékoshoz...</p>","null","","","","","",""
"html-button-response","9","163897","0.0-9.0","null","<p> Sikeres kapcsolódás!</p>","null","","","","","",""
"html-button-response","10","172546","0.0-10.0","8139","<p>A következőkben ketten játsszátok a szóválasztós játékot.</p><p>A feladatotok az lesz, hogy minden körben <b>ugyanazt</b> a szót válasszátok.</p><p>Minden ilyen egyező válaszért pontot kaptok.</p><p>Próbáld meg kitalálni, mit választ a másik játékos!</p><p>Bármikor választhatsz, a körnek akkor van vége, ha mindketten döntöttetek.</p><p>Sok sikert!</p>","0","","","","","",""
"html-button-response-esp","11","183970","0.0-11.0-0.0","10921","János imád ribegedni, ezért sokat ribegszik. Ti ritkán...","1","ribegszetek","[""ribegedtek"",""ribegszetek""]","ribegedtek","esp trial","1","false"
"html-button-response","12","187474","0.0-11.0-1.0","null","<p>A másik játékos ezt választotta: <b>ribegedtek</b>.</p><p>&#10060;</p><p>A válaszaitok <b>nem</b> egyeznek meg.</p>","null","","","","feedback trial","",""
"html-button-response-esp","13","194842","0.0-11.0-0.1","6854","János imád hubonyozni, ezért sokat hubonylik. Ti ritkán...","0","hubonyoztok","[""hubonyoztok"",""hubonylotok""]","hubonyoztok","esp trial","1","true"
"html-button-response","14","198354","0.0-11.0-1.1","null","<p>A másik játékos ezt választotta: <b>hubonyoztok</b>.</p><p>&#x2705;</p><p>A te válaszod és a másik játékos válasza <b>megegyeznek</b>.</p>","null","","","","feedback trial","",""
"html-button-response-esp","15","204818","0.0-11.0-0.2","5962","János imád bribasozni, ezért sokat bribaslik. Ők ritkán...","1","bribasoznak","[""bribaslanak"",""bribasoznak""]","bribasoznak","esp trial","1","true"
"html-button-response","16","208325","0.0-11.0-1.2","null","<p>A másik játékos ezt választotta: <b>bribasoznak</b>.</p><p>&#x2705;</p><p>A te válaszod és a másik játékos válasza <b>megegyeznek</b>.</p>","null","","","","feedback trial","",""
"html-button-response-esp","17","213489","0.0-11.0-0.3","4662","János imád gihamozni, ezért sokat gihamlik. Ők ritkán...","0","gihamlanak","[""gihamlanak"",""gihamoznak""]","gihamlanak","esp trial","1","true"
"html-button-response","18","217008","0.0-11.0-1.3","null","<p>A másik játékos ezt választotta: <b>gihamlanak</b>.</p><p>&#x2705;</p><p>A te válaszod és a másik játékos válasza <b>megegyeznek</b>.</p>","null","","","","feedback trial","",""
"html-button-response-esp","19","222538","0.0-11.0-0.4","5023","János imád bötőrözni, ezért sokat bötőrzik. Mi ritkán...","1","bötőrzünk","[""bötőrözünk"",""bötőrzünk""]","bötőrzünk","esp trial","1","true"
"html-button-response","20","226047","0.0-11.0-1.4","null","<p>A másik játékos ezt választotta: <b>bötőrzünk</b>.</p><p>&#x2705;</p><p>A te válaszod és a másik játékos válasza <b>megegyeznek</b>.</p>","null","","","","feedback trial","",""
"html-button-response-esp","21","231937","0.0-11.0-0.5","5375","János imád plibozni, ezért sokat plibzik. Ti ritkán...","1","pliboztok","[""plibzotok"",""pliboztok""]","pliboztok","esp trial","1","true"
"html-button-response","22","235447","0.0-11.0-1.5","null","<p>A másik játékos ezt választotta: <b>pliboztok</b>.</p><p>&#x2705;</p><p>A te válaszod és a másik játékos válasza <b>megegyeznek</b>.</p>","null","","","","feedback trial","",""
"html-button-response-esp","23","241266","0.0-11.0-0.6","5317","János imád nyülöközni, ezért sokat nyülöklik. Ők ritkán...","0","nyülököznek","[""nyülököznek"",""nyülöklenek""]","nyülöklenek","esp trial","1","false"
"html-button-response","24","244778","0.0-11.0-1.6","null","<p>A másik játékos ezt választotta: <b>nyülöklenek</b>.</p><p>&#10060;</p><p>A válaszaitok <b>nem</b> egyeznek meg.</p>","null","","","","feedback trial","",""
"html-button-response-esp","25","250954","0.0-11.0-0.7","5664","János imád spuborozni, ezért sokat spuborzik. Ők ritkán...","0","spuboroznak","[""spuboroznak"",""spuborzanak""]","spuboroznak","esp trial","1","true"
"html-button-response","26","254457","0.0-11.0-1.7","null","<p>A másik játékos ezt választotta: <b>spuboroznak</b>.</p><p>&#x2705;</p><p>A te válaszod és a másik játékos válasza <b>megegyeznek</b>.</p>","null","","","","feedback trial","",""
"html-button-response-esp","27","260338","0.0-11.0-0.8","5380","János imád prugorozni, ezért sokat prugorzik. Ti ritkán...","1","prugoroztok","[""prugorzotok"",""prugoroztok""]","prugoroztok","esp trial","1","true"
"html-button-response","28","263840","0.0-11.0-1.8","null","<p>A másik játékos ezt választotta: <b>prugoroztok</b>.</p><p>&#x2705;</p><p>A te válaszod és a másik játékos válasza <b>megegyeznek</b>.</p>","null","","","","feedback trial","",""
"html-button-response-esp","29","269794","0.0-11.0-0.9","5441","János imád flátozni, ezért sokat flátlik. Ti ritkán...","1","flátoztok","[""flátlotok"",""flátoztok""]","flátoztok","esp trial","1","true"
"html-button-response","30","273311","0.0-11.0-1.9","null","<p>A másik játékos ezt választotta: <b>flátoztok</b>.</p><p>&#x2705;</p><p>A te válaszod és a másik játékos válasza <b>megegyeznek</b>.</p>","null","","","","feedback trial","",""
"html-button-response-esp","31","279241","0.0-11.0-0.10","5420","János imád metégedni, ezért sokat metégszik. Ők ritkán...","1","metégszenek","[""metégednek"",""metégszenek""]","metégszenek","esp trial","1","true"
"html-button-response","32","282751","0.0-11.0-1.10","null","<p>A másik játékos ezt választotta: <b>metégszenek</b>.</p><p>&#x2705;</p><p>A te válaszod és a másik játékos válasza <b>megegyeznek</b>.</p>","null","","","","feedback trial","",""
"html-button-response-esp","33","288562","0.0-11.0-0.11","5305","János imád bribékedni, ezért sokat bribékszik. Ti ritkán...","1","bribékedtek","[""bribékszetek"",""bribékedtek""]","bribékszetek","esp trial","1","false"
"html-button-response","34","292090","0.0-11.0-1.11","null","<p>A másik játékos ezt választotta: <b>bribékszetek</b>.</p><p>&#10060;</p><p>A válaszaitok <b>nem</b> egyeznek meg.</p>","null","","","","feedback trial","",""
"html-button-response-esp","35","296753","0.0-11.0-0.12","4163","János imád bresezni, ezért sokat breslik. Ők ritkán...","1","breseznek","[""breslenek"",""breseznek""]","breslenek","esp trial","1","false"
"html-button-response","36","300283","0.0-11.0-1.12","null","<p>A másik játékos ezt választotta: <b>breslenek</b>.</p><p>&#10060;</p><p>A válaszaitok <b>nem</b> egyeznek meg.</p>","null","","","","feedback trial","",""
"html-button-response-esp","37","306793","0.0-11.0-0.13","5999","János imád frirozni, ezért sokat frirzik. Mi ritkán...","0","frirozunk","[""frirozunk"",""frirzunk""]","frirozunk","esp trial","1","true"
"html-button-response","38","310296","0.0-11.0-1.13","null","<p>A másik játékos ezt választotta: <b>frirozunk</b>.</p><p>&#x2705;</p><p>A te válaszod és a másik játékos válasza <b>megegyeznek</b>.</p>","null","","","","feedback trial","",""
"html-button-response-esp","39","315185","0.0-11.0-0.14","4383","János imád kláragodni, ezért sokat kláragszik. Ti ritkán...","1","kláragszotok","[""kláragodtok"",""kláragszotok""]","kláragszotok","esp trial","1","true"
"html-button-response","40","318707","0.0-11.0-1.14","null","<p>A másik játékos ezt választotta: <b>kláragszotok</b>.</p><p>&#x2705;</p><p>A te válaszod és a másik játékos válasza <b>megegyeznek</b>.</p>","null","","","","feedback trial","",""
"html-button-response-esp","41","322460","0.0-11.0-0.15","2920","János imád jurozni, ezért sokat jurlik. Mi ritkán...","1","jurozunk","[""jurlunk"",""jurozunk""]","jurlunk","esp trial","1","false"
"html-button-response","42","325981","0.0-11.0-1.15","null","<p>A másik játékos ezt választotta: <b>jurlunk</b>.</p><p>&#10060;</p><p>A válaszaitok <b>nem</b> egyeznek meg.</p>","null","","","","feedback trial","",""
"html-button-response-esp","43","330185","0.0-11.0-0.16","3704","János imád spivejezni, ezért sokat spivejlik. Ők ritkán...","0","spivejeznek","[""spivejeznek"",""spivejlenek""]","spivejeznek","esp trial","1","true"
"html-button-response","44","333689","0.0-11.0-1.16","null","<p>A másik játékos ezt választotta: <b>spivejeznek</b>.</p><p>&#x2705;</p><p>A te válaszod és a másik játékos válasza <b>megegyeznek</b>.</p>","null","","","","feedback trial","",""
"html-button-response-esp","45","338226","0.0-11.0-0.17","4020","János imád döjözni, ezért sokat döjlik. Ők ritkán...","1","döjöznek","[""döjlenek"",""döjöznek""]","döjlenek","esp trial","1","false"
"html-button-response","46","341729","0.0-11.0-1.17","null","<p>A másik játékos ezt választotta: <b>döjlenek</b>.</p><p>&#10060;</p><p>A válaszaitok <b>nem</b> egyeznek meg.</p>","null","","","","feedback trial","",""
"html-button-response-esp","47","345761","0.0-11.0-0.18","3518","János imád flodozni, ezért sokat flodlik. Ti ritkán...","0","flodoztok","[""flodoztok"",""flodlotok""]","flodoztok","esp trial","1","true"
"html-button-response","48","349273","0.0-11.0-1.18","null","<p>A másik játékos ezt választotta: <b>flodoztok</b>.</p><p>&#x2705;</p><p>A te válaszod és a másik játékos válasza <b>megegyeznek</b>.</p>","null","","","","feedback trial","",""
"html-button-response-esp","49","353409","0.0-11.0-0.19","3634","János imád prihegedni, ezért sokat prihegszik. Ők ritkán...","0","prihegszenek","[""prihegszenek"",""prihegednek""]","prihegszenek","esp trial","1","true"
"html-button-response","50","356926","0.0-11.0-1.19","null","<p>A másik játékos ezt választotta: <b>prihegszenek</b>.</p><p>&#x2705;</p><p>A te válaszod és a másik játékos válasza <b>megegyeznek</b>.</p>","null","","","","feedback trial","",""
"html-button-response-esp","51","361129","0.0-11.0-0.20","3702","János imád trálakozni, ezért sokat trálaklik. Ők ritkán...","0","trálakoznak","[""trálakoznak"",""trálaklanak""]","trálaklanak","esp trial","1","false"
"html-button-response","52","364634","0.0-11.0-1.20","null","<p>A másik játékos ezt választotta: <b>trálaklanak</b>.</p><p>&#10060;</p><p>A válaszaitok <b>nem</b> egyeznek meg.</p>","null","","","","feedback trial","",""
"html-button-response-esp","53","369393","0.0-11.0-0.21","4250","János imád nurokozni, ezért sokat nuroklik. Mi ritkán...","0","nurokozunk","[""nurokozunk"",""nuroklunk""]","nuroklunk","esp trial","1","false"
"html-button-response","54","372895","0.0-11.0-1.21","null","<p>A másik játékos ezt választotta: <b>nuroklunk</b>.</p><p>&#10060;</p><p>A válaszaitok <b>nem</b> egyeznek meg.</p>","null","","","","feedback trial","",""
"html-button-response-esp","55","377401","0.0-11.0-0.22","3992","János imád tögözni, ezért sokat töglik. Ők ritkán...","0","töglenek","[""töglenek"",""tögöznek""]","töglenek","esp trial","1","true"
"html-button-response","56","380913","0.0-11.0-1.22","null","<p>A másik játékos ezt választotta: <b>töglenek</b>.</p><p>&#x2705;</p><p>A te válaszod és a másik játékos válasza <b>megegyeznek</b>.</p>","null","","","","feedback trial","",""
"html-button-response-esp","57","387393","0.0-11.0-0.23","5964","János imád sprebezni, ezért sokat sprebzik. Ők ritkán...","1","sprebeznek","[""sprebzenek"",""sprebeznek""]","sprebzenek","esp trial","1","false"
"html-button-response","58","390903","0.0-11.0-1.23","null","<p>A másik játékos ezt választotta: <b>sprebzenek</b>.</p><p>&#10060;</p><p>A válaszaitok <b>nem</b> egyeznek meg.</p>","null","","","","feedback trial","",""
"html-button-response-esp","59","396953","0.0-11.0-0.24","5549","János imád nivározni, ezért sokat nivárzik. Ti ritkán...","1","nivároztok","[""nivárzotok"",""nivároztok""]","nivároztok","esp trial","1","true"
"html-button-response","60","400868","0.0-11.0-1.24","null","<p>A másik játékos ezt választotta: <b>nivároztok</b>.</p><p>&#x2705;</p><p>A te válaszod és a másik játékos válasza <b>megegyeznek</b>.</p>","null","","","","feedback trial","",""
"html-button-response-esp","61","404633","0.0-11.0-0.25","3264","János imád pibegezni, ezért sokat pibegzik. Ők ritkán...","1","pibegzenek","[""pibegeznek"",""pibegzenek""]","pibegeznek","esp trial","1","false"
"html-button-response","62","408145","0.0-11.0-1.25","null","<p>A másik játékos ezt választotta: <b>pibegeznek</b>.</p><p>&#10060;</p><p>A válaszaitok <b>nem</b> egyeznek meg.</p>","null","","","","feedback trial","",""
"html-button-response-esp","63","415489","0.0-11.0-0.26","6832","János imád frélegezni, ezért sokat frélegzik. Mi ritkán...","0","frélegzünk","[""frélegzünk"",""frélegezünk""]","frélegzünk","esp trial","1","true"
"html-button-response","64","418992","0.0-11.0-1.26","null","<p>A másik játékos ezt választotta: <b>frélegzünk</b>.</p><p>&#x2705;</p><p>A te válaszod és a másik játékos válasza <b>megegyeznek</b>.</p>","null","","","","feedback trial","",""
"html-button-response-esp","65","423561","0.0-11.0-0.27","4057","János imád géregezni, ezért sokat géreglik. Ti ritkán...","0","géregeztek","[""géregeztek"",""géregletek""]","géregeztek","esp trial","1","true"
"html-button-response","66","427080","0.0-11.0-1.27","null","<p>A másik játékos ezt választotta: <b>géregeztek</b>.</p><p>&#x2705;</p><p>A te válaszod és a másik játékos válasza <b>megegyeznek</b>.</p>","null","","","","feedback trial","",""
"html-button-response-esp","67","432233","0.0-11.0-0.28","4646","János imád vihapodni, ezért sokat vihapszik. Mi ritkán...","1","vihapszunk","[""vihapodunk"",""vihapszunk""]","vihapszunk","esp trial","1","true"
"html-button-response","68","435748","0.0-11.0-1.28","null","<p>A másik játékos ezt választotta: <b>vihapszunk</b>.</p><p>&#x2705;</p><p>A te válaszod és a másik játékos válasza <b>megegyeznek</b>.</p>","null","","","","feedback trial","",""
"html-button-response-esp","69","439649","0.0-11.0-0.29","3388","János imád klűmözni, ezért sokat klűmlik. Ti ritkán...","1","klűmöztök","[""klűmlötök"",""klűmöztök""]","klűmöztök","esp trial","1","true"
"html-button-response","70","443155","0.0-11.0-1.29","null","<p>A másik játékos ezt választotta: <b>klűmöztök</b>.</p><p>&#x2705;</p><p>A te válaszod és a másik játékos válasza <b>megegyeznek</b>.</p>","null","","","","feedback trial","",""
"html-button-response-esp","71","447121","0.0-11.0-0.30","3464","János imád vehékedni, ezért sokat vehékszik. Mi ritkán...","1","vehékedünk","[""vehékszünk"",""vehékedünk""]","vehékszünk","esp trial","1","false"
"html-button-response","72","450637","0.0-11.0-1.30","null","<p>A másik játékos ezt választotta: <b>vehékszünk</b>.</p><p>&#10060;</p><p>A válaszaitok <b>nem</b> egyeznek meg.</p>","null","","","","feedback trial","",""
"html-button-response-esp","73","454945","0.0-11.0-0.31","3795","János imád brürözni, ezért sokat brürzik. Ők ritkán...","0","brüröznek","[""brüröznek"",""brürzenek""]","brürzenek","esp trial","1","false"
"html-button-response","74","458467","0.0-11.0-1.31","null","<p>A másik játékos ezt választotta: <b>brürzenek</b>.</p><p>&#10060;</p><p>A válaszaitok <b>nem</b> egyeznek meg.</p>","null","","","","feedback trial","",""
"html-button-response-esp","75","464641","0.0-11.0-0.32","5663","János imád brűközni, ezért sokat brűklik. Ti ritkán...","0","brűköztök","[""brűköztök"",""brűklötök""]","brűklötök","esp trial","1","false"
"html-button-response","76","468145","0.0-11.0-1.32","null","<p>A másik játékos ezt választotta: <b>brűklötök</b>.</p><p>&#10060;</p><p>A válaszaitok <b>nem</b> egyeznek meg.</p>","null","","","","feedback trial","",""
"html-button-response-esp","77","472969","0.0-11.0-0.33","4314","János imád vilesezni, ezért sokat vileslik. Mi ritkán...","0","vileslünk","[""vileslünk"",""vilesezünk""]","vileslünk","esp trial","1","true"
"html-button-response","78","476495","0.0-11.0-1.33","null","<p>A másik játékos ezt választotta: <b>vileslünk</b>.</p><p>&#x2705;</p><p>A te válaszod és a másik játékos válasza <b>megegyeznek</b>.</p>","null","","","","feedback trial","",""
"html-button-response-esp","79","480377","0.0-11.0-0.34","3381","János imád hiragozni, ezért sokat hiragzik. Ők ritkán...","0","hiragoznak","[""hiragoznak"",""hiragzanak""]","hiragzanak","esp trial","1","false"
"html-button-response","80","483890","0.0-11.0-1.34","null","<p>A másik játékos ezt választotta: <b>hiragzanak</b>.</p><p>&#10060;</p><p>A válaszaitok <b>nem</b> egyeznek meg.</p>","null","","","","feedback trial","",""
"html-button-response-esp","81","488033","0.0-11.0-0.35","3633","János imád bügözni, ezért sokat bügzik. Ők ritkán...","1","bügzenek","[""bügöznek"",""bügzenek""]","bügzenek","esp trial","1","true"
"html-button-response","82","491546","0.0-11.0-1.35","null","<p>A másik játékos ezt választotta: <b>bügzenek</b>.</p><p>&#x2705;</p><p>A te válaszod és a másik játékos válasza <b>megegyeznek</b>.</p>","null","","","","feedback trial","",""
"html-button-response-esp","83","496073","0.0-11.0-0.36","4019","János imád nyádozni, ezért sokat nyádlik. Ők ritkán...","1","nyádlanak","[""nyádoznak"",""nyádlanak""]","nyádlanak","esp trial","1","true"
"html-button-response","84","499579","0.0-11.0-1.36","null","<p>A másik játékos ezt választotta: <b>nyádlanak</b>.</p><p>&#x2705;</p><p>A te válaszod és a másik játékos válasza <b>megegyeznek</b>.</p>","null","","","","feedback trial","",""
"html-button-response-esp","85","504097","0.0-11.0-0.37","4010","János imád játozni, ezért sokat játlik. Mi ritkán...","0","játlunk","[""játlunk"",""játozunk""]","játlunk","esp trial","1","true"
"html-button-response","86","507618","0.0-11.0-1.37","null","<p>A másik játékos ezt választotta: <b>játlunk</b>.</p><p>&#x2705;</p><p>A te válaszod és a másik játékos válasza <b>megegyeznek</b>.</p>","null","","","","feedback trial","",""
"html-button-response-esp","87","511801","0.0-11.0-0.38","3681","János imád frorozni, ezért sokat frorlik. Ők ritkán...","0","froroznak","[""froroznak"",""frorlanak""]","frorlanak","esp trial","1","false"
"html-button-response","88","515305","0.0-11.0-1.38","null","<p>A másik játékos ezt választotta: <b>frorlanak</b>.</p><p>&#10060;</p><p>A válaszaitok <b>nem</b> egyeznek meg.</p>","null","","","","feedback trial","",""
"html-button-response-esp","89","520393","0.0-11.0-0.39","4572","János imád klihasozni, ezért sokat klihaslik. Ti ritkán...","1","klihasoztok","[""klihaslotok"",""klihasoztok""]","klihasoztok","esp trial","1","true"
"html-button-response","90","523915","0.0-11.0-1.39","null","<p>A másik játékos ezt választotta: <b>klihasoztok</b>.</p><p>&#x2705;</p><p>A te válaszod és a másik játékos válasza <b>megegyeznek</b>.</p>","null","","","","feedback trial","",""
"html-button-response-esp","91","529625","0.0-11.0-0.40","5198","János imád klégezni, ezért sokat kléglik. Mi ritkán...","0","kléglünk","[""kléglünk"",""klégezünk""]","kléglünk","esp trial","1","true"
"html-button-response","92","533143","0.0-11.0-1.40","null","<p>A másik játékos ezt választotta: <b>kléglünk</b>.</p><p>&#x2705;</p><p>A te válaszod és a másik játékos válasza <b>megegyeznek</b>.</p>","null","","","","feedback trial","",""
"html-button-response-esp","93","538769","0.0-11.0-0.41","5113","János imád trukodni, ezért sokat trukszik. Ti ritkán...","0","trukszotok","[""trukszotok"",""trukodtok""]","trukszotok","esp trial","1","true"
"html-button-response","94","542277","0.0-11.0-1.41","null","<p>A másik játékos ezt választotta: <b>trukszotok</b>.</p><p>&#x2705;</p><p>A te válaszod és a másik játékos válasza <b>megegyeznek</b>.</p>","null","","","","feedback trial","",""
"html-button-response-esp","95","547032","0.0-11.0-0.42","4255","János imád bejezni, ezért sokat bejzik. Mi ritkán...","1","bejzünk","[""bejezünk"",""bejzünk""]","bejzünk","esp trial","1","true"
"html-button-response","96","550547","0.0-11.0-1.42","null","<p>A másik játékos ezt választotta: <b>bejzünk</b>.</p><p>&#x2705;</p><p>A te válaszod és a másik játékos válasza <b>megegyeznek</b>.</p>","null","","","","feedback trial","",""
"html-button-response-esp","97","556760","0.0-11.0-0.43","5701","János imád flugonyozni, ezért sokat flugonylik. Ők ritkán...","1","flugonylanak","[""flugonyoznak"",""flugonylanak""]","flugonylanak","esp trial","1","true"
"html-button-response","98","560279","0.0-11.0-1.43","null","<p>A másik játékos ezt választotta: <b>flugonylanak</b>.</p><p>&#x2705;</p><p>A te válaszod és a másik játékos válasza <b>megegyeznek</b>.</p>","null","","","","feedback trial","",""
"html-button-response-esp","99","568512","0.0-11.0-0.44","7732","János imád sűjözni, ezért sokat sűjlik. Mi ritkán...","1","sűjlünk","[""sűjözünk"",""sűjlünk""]","sűjlünk","esp trial","1","true"
"html-button-response","100","572020","0.0-11.0-1.44","null","<p>A másik játékos ezt választotta: <b>sűjlünk</b>.</p><p>&#x2705;</p><p>A te válaszod és a másik játékos válasza <b>megegyeznek</b>.</p>","null","","","","feedback trial","",""
"html-button-response-esp","101","575976","0.0-11.0-0.45","3455","János imád dibágozni, ezért sokat dibáglik. Ti ritkán...","1","dibágoztok","[""dibáglotok"",""dibágoztok""]","dibáglotok","esp trial","1","false"
"html-button-response","102","579488","0.0-11.0-1.45","null","<p>A másik játékos ezt választotta: <b>dibáglotok</b>.</p><p>&#10060;</p><p>A válaszaitok <b>nem</b> egyeznek meg.</p>","null","","","","feedback trial","",""
"html-button-response-esp","103","583231","0.0-11.0-0.46","2627","János imád nyizozni, ezért sokat nyizlik. Mi ritkán...","1","nyizlunk","[""nyizozunk"",""nyizlunk""]","nyizlunk","esp trial","1","true"
"html-button-response","104","586747","0.0-11.0-1.46","null","<p>A másik játékos ezt választotta: <b>nyizlunk</b>.</p><p>&#x2705;</p><p>A te válaszod és a másik játékos válasza <b>megegyeznek</b>.</p>","null","","","","feedback trial","",""
"html-button-response-esp","105","590560","0.0-11.0-0.47","3302","János imád trálodni, ezért sokat trálszik. Mi ritkán...","1","trálszunk","[""trálodunk"",""trálszunk""]","trálszunk","esp trial","1","true"
"html-button-response","106","594072","0.0-11.0-1.47","null","<p>A másik játékos ezt választotta: <b>trálszunk</b>.</p><p>&#x2705;</p><p>A te válaszod és a másik játékos válasza <b>megegyeznek</b>.</p>","null","","","","feedback trial","",""
"html-button-response-esp","107","599128","0.0-11.0-0.48","4555","János imád sztredezni, ezért sokat sztredlik. Ti ritkán...","1","sztredletek","[""sztredeztek"",""sztredletek""]","sztredletek","esp trial","1","true"
"html-button-response","108","602642","0.0-11.0-1.48","null","<p>A másik játékos ezt választotta: <b>sztredletek</b>.</p><p>&#x2705;</p><p>A te válaszod és a másik játékos válasza <b>megegyeznek</b>.</p>","null","","","","feedback trial","",""
"html-button-response-esp","109","606841","0.0-11.0-0.49","3687","János imád frinyozni, ezért sokat frinylik. Mi ritkán...","1","frinylunk","[""frinyozunk"",""frinylunk""]","frinylunk","esp trial","1","true"
"html-button-response","110","610356","0.0-11.0-1.49","null","<p>A másik játékos ezt választotta: <b>frinylunk</b>.</p><p>&#x2705;</p><p>A te válaszod és a másik játékos válasza <b>megegyeznek</b>.</p>","null","","","","feedback trial","",""
"html-button-response-esp","111","615393","0.0-11.0-0.50","4533","János imád dralágozni, ezért sokat dralágzik. Mi ritkán...","1","dralágzunk","[""dralágozunk"",""dralágzunk""]","dralágzunk","esp trial","1","true"
"html-button-response","112","618895","0.0-11.0-1.50","null","<p>A másik játékos ezt választotta: <b>dralágzunk</b>.</p><p>&#x2705;</p><p>A te válaszod és a másik játékos válasza <b>megegyeznek</b>.</p>","null","","","","feedback trial","",""
"html-button-response-esp","113","623361","0.0-11.0-0.51","3964","János imád flerékedni, ezért sokat flerékszik. Mi ritkán...","0","flerékszünk","[""flerékszünk"",""flerékedünk""]","flerékszünk","esp trial","1","true"
"html-button-response","114","626863","0.0-11.0-1.51","null","<p>A másik játékos ezt választotta: <b>flerékszünk</b>.</p><p>&#x2705;</p><p>A te válaszod és a másik játékos válasza <b>megegyeznek</b>.</p>","null","","","","feedback trial","",""
"html-button-response-esp","115","631481","0.0-11.0-0.52","4103","János imád trilekedni, ezért sokat trilekszik. Ti ritkán...","0","trilekedtek","[""trilekedtek"",""trilekszetek""]","trilekszetek","esp trial","1","false"
"html-button-response","116","634990","0.0-11.0-1.52","null","<p>A másik játékos ezt választotta: <b>trilekszetek</b>.</p><p>&#10060;</p><p>A válaszaitok <b>nem</b> egyeznek meg.</p>","null","","","","feedback trial","",""
"html-button-response-esp","117","640065","0.0-11.0-0.53","4563","János imád nyöbözni, ezért sokat nyöbzik. Ők ritkán...","1","nyöböznek","[""nyöbzenek"",""nyöböznek""]","nyöbzenek","esp trial","1","false"
"html-button-response","118","643569","0.0-11.0-1.53","null","<p>A másik játékos ezt választotta: <b>nyöbzenek</b>.</p><p>&#10060;</p><p>A válaszaitok <b>nem</b> egyeznek meg.</p>","null","","","","feedback trial","",""
"html-button-response","119","651593","0.0-12.0","7523","<p>A közös játék most véget ért.</p><p>Mielőtt eláruljuk a végső pontszámodat, arra kérlek, játszd a szóválasztós játékot néhány percig egyedül is.</p><p>A feladatod ugyanaz lesz, választani két lehetőség közül.</p><p>Most viszont egyedül kell döntened, hogy te melyiket választanád.</p>","0","","","","","",""
"html-button-response-clever","120","657073","0.0-13.0-0.0","4964","János imád pilégedni, ezért sokat pilégszik. Ők ritkán...","1","pilégszenek","[""pilégednek"",""pilégszenek""]","","posttest trial","4",""
"html-button-response-clever","121","661601","0.0-13.0-0.1","4025","János imád dabozni, ezért sokat dabzik. Ti ritkán...","0","daboztok","[""daboztok"",""dabzotok""]","","posttest trial","4",""
"html-button-response-clever","122","666761","0.0-13.0-0.2","4647","János imád branyozni, ezért sokat branylik. Ők ritkán...","0","branyoznak","[""branyoznak"",""branylanak""]","","posttest trial","4",""
"html-button-response-clever","123","672137","0.0-13.0-0.3","4863","János imád frálasozni, ezért sokat frálaslik. Ők ritkán...","1","frálasoznak","[""frálaslanak"",""frálasoznak""]","","posttest trial","4",""
"html-button-response-clever","124","677433","0.0-13.0-0.4","4788","János imád klehényezni, ezért sokat klehénylik. Ti ritkán...","1","klehényeztek","[""klehényletek"",""klehényeztek""]","","posttest trial","4",""
"html-button-response-clever","125","681801","0.0-13.0-0.5","3866","János imád prélemezni, ezért sokat prélemlik. Ők ritkán...","0","prélemeznek","[""prélemeznek"",""prélemlenek""]","","posttest trial","4",""
"html-button-response-clever","126","687873","0.0-13.0-0.6","5564","János imád drűrözni, ezért sokat drűrzik. Ők ritkán...","1","drűröznek","[""drűrzenek"",""drűröznek""]","","posttest trial","4",""
"html-button-response-clever","127","693953","0.0-13.0-0.7","5577","János imád sprozozni, ezért sokat sprozlik. Ők ritkán...","0","sprozoznak","[""sprozoznak"",""sprozlanak""]","","posttest trial","4",""
"html-button-response-clever","128","698161","0.0-13.0-0.8","3696","János imád trugokozni, ezért sokat trugoklik. Ők ritkán...","1","trugokoznak","[""trugoklanak"",""trugokoznak""]","","posttest trial","4",""
"html-button-response-clever","129","703593","0.0-13.0-0.9","4931","János imád nyürözni, ezért sokat nyürzik. Ők ritkán...","1","nyürzenek","[""nyüröznek"",""nyürzenek""]","","posttest trial","4",""
"html-button-response-clever","130","708345","0.0-13.0-0.10","4250","János imád lűközni, ezért sokat lűklik. Ők ritkán...","1","lűköznek","[""lűklenek"",""lűköznek""]","","posttest trial","4",""
"html-button-response-clever","131","713441","0.0-13.0-0.11","4594","János imád spügözni, ezért sokat spügzik. Mi ritkán...","0","spügzünk","[""spügzünk"",""spügözünk""]","","posttest trial","4",""
"html-button-response-clever","132","717705","0.0-13.0-0.12","3758","János imád virozni, ezért sokat virzik. Ők ritkán...","1","virzanak","[""viroznak"",""virzanak""]","","posttest trial","4",""
"html-button-response-clever","133","722705","0.0-13.0-0.13","4498","János imád privékedni, ezért sokat privékszik. Ők ritkán...","0","privékszenek","[""privékszenek"",""privékednek""]","","posttest trial","4",""
"html-button-response-clever","134","727057","0.0-13.0-0.14","3845","János imád föködni, ezért sokat fökszik. Ők ritkán...","0","fökszenek","[""fökszenek"",""föködnek""]","","posttest trial","4",""
"html-button-response-clever","135","731073","0.0-13.0-0.15","3514","János imád prögözni, ezért sokat prögzik. Ti ritkán...","1","prögöztök","[""prögzötök"",""prögöztök""]","","posttest trial","4",""
"html-button-response-clever","136","735225","0.0-13.0-0.16","3645","János imád kűdözni, ezért sokat kűdlik. Ők ritkán...","0","kűdöznek","[""kűdöznek"",""kűdlenek""]","","posttest trial","4",""
"html-button-response-clever","137","740097","0.0-13.0-0.17","4369","János imád flemezni, ezért sokat flemlik. Mi ritkán...","1","flemezünk","[""flemlünk"",""flemezünk""]","","posttest trial","4",""
"html-button-response-clever","138","745489","0.0-13.0-0.18","4884","János imád spiharozni, ezért sokat spiharzik. Ti ritkán...","0","spiharoztok","[""spiharoztok"",""spiharzotok""]","","posttest trial","4",""
"html-button-response-clever","139","749737","0.0-13.0-0.19","3736","János imád frakozni, ezért sokat fraklik. Mi ritkán...","1","frakozunk","[""fraklunk"",""frakozunk""]","","posttest trial","4",""
"html-button-response-clever","140","753433","0.0-13.0-0.20","3194","János imád posozni, ezért sokat poslik. Ti ritkán...","0","posoztok","[""posoztok"",""poslotok""]","","posttest trial","4",""
"html-button-response-clever","141","756705","0.0-13.0-0.21","2762","János imád sprűrözni, ezért sokat sprűrlik. Ők ritkán...","0","sprűröznek","[""sprűröznek"",""sprűrlenek""]","","posttest trial","4",""
"html-button-response-clever","142","760137","0.0-13.0-0.22","2921","János imád flöközni, ezért sokat flöklik. Ti ritkán...","1","flököztök","[""flöklötök"",""flököztök""]","","posttest trial","4",""
"html-button-response-clever","143","766097","0.0-13.0-0.23","5445","János imád pragányozni, ezért sokat pragánylik. Ti ritkán...","0","pragányoztok","[""pragányoztok"",""pragánylotok""]","","posttest trial","4",""
"html-button-response-clever","144","769601","0.0-13.0-0.24","3002","János imád sprudozni, ezért sokat sprudlik. Mi ritkán...","1","sprudozunk","[""sprudlunk"",""sprudozunk""]","","posttest trial","4",""
"html-button-response-clever","145","773305","0.0-13.0-0.25","3190","János imád csubozni, ezért sokat csubzik. Mi ritkán...","1","csubzunk","[""csubozunk"",""csubzunk""]","","posttest trial","4",""
"html-button-response-clever","146","778105","0.0-13.0-0.26","4298","János imád frálapodni, ezért sokat frálapszik. Ti ritkán...","1","frálapszotok","[""frálapodtok"",""frálapszotok""]","","posttest trial","4",""
"html-button-response-clever","147","782280","0.0-13.0-0.27","3674","János imád püzözni, ezért sokat püzlik. Ti ritkán...","0","püzlötök","[""püzlötök"",""püzöztök""]","","posttest trial","4",""
"html-button-response-clever","148","786240","0.0-13.0-0.28","3452","János imád dilakozni, ezért sokat dilaklik. Ti ritkán...","1","dilakoztok","[""dilaklotok"",""dilakoztok""]","","posttest trial","4",""
"html-button-response-clever","149","790488","0.0-13.0-0.29","3745","János imád trugozni, ezért sokat trugzik. Ők ritkán...","1","trugzanak","[""trugoznak"",""trugzanak""]","","posttest trial","4",""
"html-button-response-clever","150","794536","0.0-13.0-0.30","3545","János imád spibegezni, ezért sokat spibeglik. Mi ritkán...","0","spibegezünk","[""spibegezünk"",""spibeglünk""]","","posttest trial","4",""
"html-button-response-clever","151","797664","0.0-13.0-0.31","2621","János imád brivakozni, ezért sokat brivaklik. Ti ritkán...","0","brivakoztok","[""brivakoztok"",""brivaklotok""]","","posttest trial","4",""
"html-button-response-clever","152","801560","0.0-13.0-0.32","3384","János imád dárakodni, ezért sokat dárakszik. Mi ritkán...","1","dárakszunk","[""dárakodunk"",""dárakszunk""]","","posttest trial","4",""
"html-button-response-clever","153","807456","0.0-13.0-0.33","5393","János imád köszözni, ezért sokat köszlik. Ti ritkán...","1","köszöztök","[""köszlötök"",""köszöztök""]","","posttest trial","4",""
"html-button-response-clever","154","811088","0.0-13.0-0.34","3127","János imád trivakodni, ezért sokat trivakszik. Mi ritkán...","0","trivakszunk","[""trivakszunk"",""trivakodunk""]","","posttest trial","4",""
"html-button-response-clever","155","814288","0.0-13.0-0.35","2697","János imád drilarozni, ezért sokat drilarzik. Mi ritkán...","1","drilarozunk","[""drilarzunk"",""drilarozunk""]","","posttest trial","4",""
"html-button-response-clever","156","816952","0.0-13.0-0.36","2159","János imád trikozni, ezért sokat triklik. Ti ritkán...","1","trikoztok","[""triklotok"",""trikoztok""]","","posttest trial","4",""
"html-button-response-clever","157","820080","0.0-13.0-0.37","2615","János imád spirágozni, ezért sokat spiráglik. Ti ritkán...","1","spirágoztok","[""spiráglotok"",""spirágoztok""]","","posttest trial","4",""
"html-button-response-clever","158","954568","0.0-13.0-0.38","133976","János imád bratározni, ezért sokat bratárzik. Ők ritkán...","1","bratároznak","[""bratárzanak"",""bratároznak""]","","posttest trial","4",""
"html-button-response-clever","159","958160","0.0-13.0-0.39","3087","János imád gyihegezni, ezért sokat gyihegzik. Ti ritkán...","1","gyihegzetek","[""gyihegeztek"",""gyihegzetek""]","","posttest trial","4",""
"html-button-response-clever","160","961960","0.0-13.0-0.40","3285","János imád lájozni, ezért sokat lájzik. Ti ritkán...","0","lájzotok","[""lájzotok"",""lájoztok""]","","posttest trial","4",""
"html-button-response-clever","161","965888","0.0-13.0-0.41","3417","János imád nyivágozni, ezért sokat nyivágzik. Mi ritkán...","1","nyivágzunk","[""nyivágozunk"",""nyivágzunk""]","","posttest trial","4",""
"html-button-response-clever","162","972728","0.0-13.0-0.42","6339","János imád flüröközni, ezért sokat flüröklik. Ti ritkán...","1","flürököztök","[""flüröklötök"",""flürököztök""]","","posttest trial","4",""
"html-button-response-clever","163","977328","0.0-13.0-0.43","4084","János imád dujozni, ezért sokat dujzik. Ők ritkán...","0","dujoznak","[""dujoznak"",""dujzanak""]","","posttest trial","4",""
"html-button-response-clever","164","979720","0.0-13.0-0.44","1887","János imád molodni, ezért sokat molszik. Ti ritkán...","0","molszotok","[""molszotok"",""molodtok""]","","posttest trial","4",""
"html-button-response-clever","165","1034752","0.0-13.0-0.45","54531","János imád dirozni, ezért sokat dirlik. Ti ritkán...","0","diroztok","[""diroztok"",""dirlotok""]","","posttest trial","4",""
"html-button-response-clever","166","1038912","0.0-13.0-0.46","3653","János imád csibagozni, ezért sokat csibagzik. Ti ritkán...","0","csibagoztok","[""csibagoztok"",""csibagzotok""]","","posttest trial","4",""
"html-button-response-clever","167","1041152","0.0-13.0-0.47","1737","János imád gihejezni, ezért sokat gihejlik. Mi ritkán...","1","gihejezünk","[""gihejlünk"",""gihejezünk""]","","posttest trial","4",""
"html-button-response-clever","168","1045008","0.0-13.0-0.48","3347","János imád fröjözni, ezért sokat fröjzik. Ti ritkán...","0","fröjzötök","[""fröjzötök"",""fröjöztök""]","","posttest trial","4",""
"html-button-response-clever","169","1049032","0.0-13.0-0.49","3510","János imád mülőrözni, ezért sokat mülőrzik. Mi ritkán...","1","mülőrzünk","[""mülőrözünk"",""mülőrzünk""]","","posttest trial","4",""
"html-button-response-clever","170","1051688","0.0-13.0-0.50","2152","János imád flűgözni, ezért sokat flűgzik. Mi ritkán...","0","flűgözünk","[""flűgözünk"",""flűgzünk""]","","posttest trial","4",""
"html-button-response-clever","171","1055624","0.0-13.0-0.51","3423","János imád mágamozni, ezért sokat mágamlik. Mi ritkán...","1","mágamlunk","[""mágamozunk"",""mágamlunk""]","","posttest trial","4",""
"html-button-response-clever","172","1059065","0.0-13.0-0.52","2931","János imád brülösözni, ezért sokat brülöslik. Mi ritkán...","1","brülösözünk","[""brülöslünk"",""brülösözünk""]","","posttest trial","4",""
"html-button-response-clever","173","1062152","0.0-13.0-0.53","2574","János imád brözözni, ezért sokat brözlik. Ti ritkán...","1","brözlötök","[""brözöztök"",""brözlötök""]","","posttest trial","4",""
"html-button-response","174","1068448","0.0-14.0","5790","<p> Vége a játéknak. A teljes pontszámod 36/54.</p><p> Szép munka! &#128526;&#128526;&#128526;</p><p>A Befejezés gomb megnyomása után bezárhatod a böngészőablakot.</p>","0","","","","","",""
"html-keyboard-response","175","1073965","0.0-15.0","null","<div class=""message"">
         <p>Egy kis türelmet kérünk, amíg elmentjük az adatokat...</p>
         </div>","null","","","","","",""
