"trial_type","trial_index","time_elapsed","internal_node_id","rt","stimulus","response","response_string","choices","esp_response","trial_kind","list_number","esp_match"
"pavlovia","0","569","0.0-0.0","","","","","","","","",""
"html-button-response","1","31311","0.0-1.0","30233","<p>Kedves Résztvevő! A Budapesti Műszaki és Gazdaságtudományi Egyetem Kognitív Tudományi Tanszékének kutatásában való részvételed kérjük. A kutatásban azt vizsgáljuk, hogy a magyar anyanyelvűek hogyan használnak bizonyos szóalakokat, és hogy milyen képük van arról, hogy mások hogyan használják, hogyan képzik a szavakat. Ez hozzásegít bennünket ahhoz, hogy jobban megértsük, hogyan dolgozza fel és tárolja a nyelvet az emberi agy, és hogyan működnek, hogyan változnak egy adott közösség nyelvi konvenciói.</p><p>A vizsgálat egy rövid számítógépes feladatból fog állni. A kutatásban való részvétel önkéntes, a részvételi szándék bármikor visszavonható. A résztvevők eredményeit név nélkül kezeljük, így nem beazonosíthatók az adatok feldolgozása során. Minden személyes adatot az EU általános adatvédelmi rendeletének (GDPR) megfelelően kezelünk és legfeljebb öt éven belül megsemmisítünk. A vizsgálat jellemzően húsz percet vesz igénybe.</p><p>Kutatásvezető:</p><p>Dr. Rácz Péter, tudományos munkatárs, BME KTT</p><p>e-mail: racz.peter.marton@ttk.bme.hu</p>","0","","","","","",""
"html-button-response","2","87092","0.0-2.0","55276","<p>A kísérletben szavakat fogsz látni. Ezek között lesznek olyanok, amelyeket ismersz, de előfordulhatnak olyanok is, amelyeket nem ismersz, sőt, vannak köztük kitalált szavak is. Minden szónál látni fogsz toldalékolt alakokat. A te feladatod az lesz, hogy minden szóhoz kiválaszd azt a toldalékolt alakot, amely a te számodra ismerősebben, természetesebben hangzik. Rossz válaszok nincsenek, mert van olyan, hogy különböző embereknek más és más szó tűnik jobb választásnak. A választ úgy tudod majd kiválasztani, ha rákattintasz.</p><p>Ebben a szóválasztós játékban egy másik játékossal együtt veszel majd részt. A másik játékos is minden esetben azok közül a lehetőségek közül válogathat, mint te. Kettőtök feladata az, hogy ugyanazt a lehetőséget válasszátok minden esetben. Ahhoz, hogy ez sikerüljön, neked figyelned kell arra, hogy a másik játékos milyen válaszokat ad, és ennek alapján meg kell tippelned, hogyan választ legközelebb. Ha eltalálod, akkor pontot kapsz.</p>","0","","","","","",""
"html-button-response","3","95762","0.0-3.0","8162","<p>Kérjük, olvasd el az alábbi nyilatkozatot, és amennyiben egyetértesz vele, nyomj a Beleegyezés gombra!</p><p>Kijelentem, hogy magyar anyanyelvű személyként önként veszek részt a BME KTT kísérletében. A kutatás céljával és folyamatával kapcsolatban elegendő tájékoztatást kaptam, lehetőségem volt kérdések feltételére, és esetleges kérdéseimre megfelelő válaszokat kaptam. A tájékoztatás alapján elegendő mennyiségű információ áll a rendelkezésemre, hogy eldönthessem, részt kívánok-e venni a kutatásban.</p><p>Tisztában vagyok vele, hogy részvételi szándékomat és adataimat bármikor, indoklás nélkül visszavonhatom.</p><p>Értem és tudomásul veszem, hogy a kutatás tudományos célokat szolgál, és az általam szolgáltatott adatokat a BME kizárólag kutatási célból használja fel. Tudomásul veszem, hogy eredményeimet a többi résztvevő eredményeivel együtt kezelik, így egyéni teljesítményemről visszajelzést, szakvéleményt nem kapok.</p><p>Megértettem, hogy adataim kezelését illetően a BME az EU általános adatvédelmi rendelete (GDPR), a hatályos adatvédelmi törvény és a nemzetközi kutatás-etikai alapelvek szerint jár el. Eredményeim anonim módon kerülnek feldolgozásra, és a kutatás résztvevői az azonosításomra alkalmas adataimat harmadik félnek nem szolgáltatják ki. Engedélyezem a BME számára a jelen kutatásban felvett adataim feldolgozását és tárolását, beleértve azok későbbi kutatásokhoz való felhasználását is. Személyes adataim kezelésével kapcsolatban tájékoztatást kérhetek a kutatás résztvevőitől, az adatkezelés ellen tiltakozhatok, kérhetem személyes adataim helyesbítését, törlését vagy zárolását, valamint jogorvoslatért a Nemzeti Adatvédelmi és Információszabadság Hatósághoz fordulhatok.</p><p>Kijelentem, hogy a kutatásban való részvételem körülményeiről részletes tájékoztatást kaptam, és a feltételeket elfogadom.</p>","0","","","","","",""
"survey-text","4","134636","0.0-4.0","38370","","{""Q0"":""STQJVW"",""Q1"":""férfi"",""Q2"":""1996"",""Q3"":""17""}","","","","","",""
"html-button-response","5","161962","0.0-5.0","26816","<p>Ebben a játékban szavakat kell toldalékolni.</p> <p>Minden körben mutatunk majd egy példamondatot, amiben lesz egy szó.</p> <p>Alatta jön egy második mondat, ezt a mondatot neked kell majd befejezni, ugyanezzel a szóval.</p> <p>Nem biztos, hogy a szó eleve ismerős lesz számodra!</p> <p>Minden mondathoz adunk két lehetőséget, ezeket balra és jobbra látod majd.</p> <p>A játék kb. negyedóráig-húsz percig tart.</p>","0","","","","","",""
"html-button-response","6","181263","0.0-6.0","18797","<p>Nézzünk egy példát!</p> <p>A példamondat: ""János nagyon szeret rancsúrozni.""</p><p>Neked ezt a mondatot kell befejezned: ""Én is szívesen...""</p><p>A lehetőségek pedig ezek:</p>","0","","","","","",""
"html-button-response","7","189040","0.0-7.0","7269","<p>Nagyon jó.</p><p>Ezt a játékot nem egyedül fogod játszani, hanem egy másik játékossal.</p><p>Mielőtt továbblépünk, összekapcsolunk titeket egymással.</p><p>Ez igénybe vehet néhány másodpercet, amihez szíves türelmed kérjük.</p>","0","","","","","",""
"html-button-response","8","194770","0.0-8.0","null","<p>Csatlakozás a másik játékoshoz...</p>","null","","","","","",""
"html-button-response","9","197282","0.0-9.0","null","<p> Sikeres kapcsolódás!</p>","null","","","","","",""
"html-button-response","10","207793","0.0-10.0","null","<p>A következőkben ketten játsszátok a szóválasztós játékot.</p><p>A feladatotok az lesz, hogy minden körben <b>ugyanazt</b> a szót válasszátok.</p><p>Minden ilyen egyező válaszért pontot kaptok.</p><p>Próbáld meg kitalálni, mit választ a másik játékos!</p><p>Bármikor választhatsz, a körnek akkor van vége, ha mindketten döntöttetek.</p><p>Sok sikert!</p>","null","","","","","",""
"html-button-response-esp","11","215954","0.0-11.0-0.0","7655","Te bizony sokat zödlesz. Én is sokat...","0","zödlöm","[""zödlöm"",""zödlök""]","zödlök","esp trial","9","false"
"html-button-response","12","219466","0.0-11.0-1.0","null","<p>A másik játékos ezt választotta: <b>zödlök</b>.</p><p>&#10060;</p><p>A válaszaitok <b>nem</b> egyeznek meg.</p>","null","","","","feedback trial","",""
"html-button-response-esp","13","225380","0.0-11.0-0.1","5408","Te bizony sokat fivénylesz. Én is sokat...","0","fivénylek","[""fivénylek"",""fivénylem""]","fivénylek","esp trial","9","true"
"html-button-response","14","228892","0.0-11.0-1.1","null","<p>A másik játékos ezt választotta: <b>fivénylek</b>.</p><p>&#x2705;</p><p>A te válaszod és a másik játékos válasza <b>megegyeznek</b>.</p>","null","","","","feedback trial","",""
"html-button-response-esp","15","234300","0.0-11.0-0.2","3885","Te bizony sokat vűjlesz. Én is sokat...","1","vűjlök","[""vűjlöm"",""vűjlök""]","vűjlök","esp trial","9","true"
"html-button-response","16","237804","0.0-11.0-1.2","null","<p>A másik játékos ezt választotta: <b>vűjlök</b>.</p><p>&#x2705;</p><p>A te válaszod és a másik játékos válasza <b>megegyeznek</b>.</p>","null","","","","feedback trial","",""
"html-button-response-esp","17","243211","0.0-11.0-0.3","4340","Te bizony sokat klidlasz. Én is sokat...","0","klidlok","[""klidlok"",""klidlom""]","klidlok","esp trial","9","true"
"html-button-response","18","246723","0.0-11.0-1.3","null","<p>A másik játékos ezt választotta: <b>klidlok</b>.</p><p>&#x2705;</p><p>A te válaszod és a másik játékos válasza <b>megegyeznek</b>.</p>","null","","","","feedback trial","",""
"html-button-response-esp","19","252132","0.0-11.0-0.4","4399","Te bizony sokat gyibakszol. Én is sokat...","0","gyibakszom","[""gyibakszom"",""gyibakszok""]","gyibakszom","esp trial","9","true"
"html-button-response","20","255644","0.0-11.0-1.4","null","<p>A másik játékos ezt választotta: <b>gyibakszom</b>.</p><p>&#x2705;</p><p>A te válaszod és a másik játékos válasza <b>megegyeznek</b>.</p>","null","","","","feedback trial","",""
"html-button-response-esp","21","262364","0.0-11.0-0.5","6215","Te bizony sokat frivajlasz. Én is sokat...","1","frivajlok","[""frivajlom"",""frivajlok""]","frivajlok","esp trial","9","true"
"html-button-response","22","265876","0.0-11.0-1.5","null","<p>A másik játékos ezt választotta: <b>frivajlok</b>.</p><p>&#x2705;</p><p>A te válaszod és a másik játékos válasza <b>megegyeznek</b>.</p>","null","","","","feedback trial","",""
"html-button-response-esp","23","271284","0.0-11.0-0.6","3732","Te bizony sokat klárzol. Én is sokat...","1","klárzok","[""klárzom"",""klárzok""]","klárzok","esp trial","9","true"
"html-button-response","24","274796","0.0-11.0-1.6","null","<p>A másik játékos ezt választotta: <b>klárzok</b>.</p><p>&#x2705;</p><p>A te válaszod és a másik játékos válasza <b>megegyeznek</b>.</p>","null","","","","feedback trial","",""
"html-button-response-esp","25","280205","0.0-11.0-0.7","4720","Te bizony sokat prezlesz. Én is sokat...","0","prezlek","[""prezlek"",""prezlem""]","prezlek","esp trial","9","true"
"html-button-response","26","283717","0.0-11.0-1.7","null","<p>A másik játékos ezt választotta: <b>prezlek</b>.</p><p>&#x2705;</p><p>A te válaszod és a másik játékos válasza <b>megegyeznek</b>.</p>","null","","","","feedback trial","",""
"html-button-response-esp","27","289337","0.0-11.0-0.8","5116","Te bizony sokat frágapszol. Én is sokat...","1","frágapszom","[""frágapszok"",""frágapszom""]","frágapszom","esp trial","9","true"
"html-button-response","28","292853","0.0-11.0-1.8","null","<p>A másik játékos ezt választotta: <b>frágapszom</b>.</p><p>&#x2705;</p><p>A te válaszod és a másik játékos válasza <b>megegyeznek</b>.</p>","null","","","","feedback trial","",""
"html-button-response-esp","29","298262","0.0-11.0-0.9","4454","Te bizony sokat spülöklesz. Én is sokat...","0","spülöklök","[""spülöklök"",""spülöklöm""]","spülöklök","esp trial","9","true"
"html-button-response","30","301774","0.0-11.0-1.9","null","<p>A másik játékos ezt választotta: <b>spülöklök</b>.</p><p>&#x2705;</p><p>A te válaszod és a másik játékos válasza <b>megegyeznek</b>.</p>","null","","","","feedback trial","",""
"html-button-response-esp","31","307182","0.0-11.0-0.10","4468","Te bizony sokat ibáglasz. Én is sokat...","0","ibáglok","[""ibáglok"",""ibáglom""]","ibáglok","esp trial","9","true"
"html-button-response","32","310694","0.0-11.0-1.10","null","<p>A másik játékos ezt választotta: <b>ibáglok</b>.</p><p>&#x2705;</p><p>A te válaszod és a másik játékos válasza <b>megegyeznek</b>.</p>","null","","","","feedback trial","",""
"html-button-response-esp","33","316101","0.0-11.0-0.11","3823","Te bizony sokat floglasz. Én is sokat...","0","floglok","[""floglok"",""floglom""]","floglok","esp trial","9","true"
"html-button-response","34","319613","0.0-11.0-1.11","null","<p>A másik játékos ezt választotta: <b>floglok</b>.</p><p>&#x2705;</p><p>A te válaszod és a másik játékos válasza <b>megegyeznek</b>.</p>","null","","","","feedback trial","",""
"html-button-response-esp","35","325021","0.0-11.0-0.12","4206","Te bizony sokat mékszel. Én is sokat...","1","mékszem","[""mékszek"",""mékszem""]","mékszek","esp trial","9","false"
"html-button-response","36","328533","0.0-11.0-1.12","null","<p>A másik játékos ezt választotta: <b>mékszek</b>.</p><p>&#10060;</p><p>A válaszaitok <b>nem</b> egyeznek meg.</p>","null","","","","feedback trial","",""
"html-button-response-esp","37","334298","0.0-11.0-0.13","5260","Te bizony sokat préleglesz. Én is sokat...","1","préleglek","[""préleglem"",""préleglek""]","préleglek","esp trial","9","true"
"html-button-response","38","337814","0.0-11.0-1.13","null","<p>A másik játékos ezt választotta: <b>préleglek</b>.</p><p>&#x2705;</p><p>A te válaszod és a másik játékos válasza <b>megegyeznek</b>.</p>","null","","","","feedback trial","",""
"html-button-response-esp","39","343277","0.0-11.0-0.14","4957","Te bizony sokat gyivádzol. Én is sokat...","1","gyivádzom","[""gyivádzok"",""gyivádzom""]","gyivádzom","esp trial","9","true"
"html-button-response","40","346791","0.0-11.0-1.14","null","<p>A másik játékos ezt választotta: <b>gyivádzom</b>.</p><p>&#x2705;</p><p>A te válaszod és a másik játékos válasza <b>megegyeznek</b>.</p>","null","","","","feedback trial","",""
"html-button-response-esp","41","354481","0.0-11.0-0.15","7185","Te bizony sokat spírzol. Én is sokat...","0","spírzok","[""spírzok"",""spírzom""]","spírzok","esp trial","9","true"
"html-button-response","42","357991","0.0-11.0-1.15","null","<p>A másik játékos ezt választotta: <b>spírzok</b>.</p><p>&#x2705;</p><p>A te válaszod és a másik játékos válasza <b>megegyeznek</b>.</p>","null","","","","feedback trial","",""
"html-button-response-esp","43","363399","0.0-11.0-0.16","3685","Te bizony sokat sprédlesz. Én is sokat...","0","sprédlek","[""sprédlek"",""sprédlem""]","sprédlek","esp trial","9","true"
"html-button-response","44","366911","0.0-11.0-1.16","null","<p>A másik játékos ezt választotta: <b>sprédlek</b>.</p><p>&#x2705;</p><p>A te válaszod és a másik játékos válasza <b>megegyeznek</b>.</p>","null","","","","feedback trial","",""
"html-button-response-esp","45","372319","0.0-11.0-0.17","3838","Te bizony sokat aglasz. Én is sokat...","1","aglok","[""aglom"",""aglok""]","aglok","esp trial","9","true"
"html-button-response","46","375831","0.0-11.0-1.17","null","<p>A másik játékos ezt választotta: <b>aglok</b>.</p><p>&#x2705;</p><p>A te válaszod és a másik játékos válasza <b>megegyeznek</b>.</p>","null","","","","feedback trial","",""
"html-button-response-esp","47","381239","0.0-11.0-0.18","4676","Te bizony sokat gerénylesz. Én is sokat...","1","gerénylek","[""gerénylem"",""gerénylek""]","gerénylek","esp trial","9","true"
"html-button-response","48","384751","0.0-11.0-1.18","null","<p>A másik játékos ezt választotta: <b>gerénylek</b>.</p><p>&#x2705;</p><p>A te válaszod és a másik játékos válasza <b>megegyeznek</b>.</p>","null","","","","feedback trial","",""
"html-button-response-esp","49","390160","0.0-11.0-0.19","4879","Te bizony sokat szűslesz. Én is sokat...","0","szűslöm","[""szűslöm"",""szűslök""]","szűslök","esp trial","9","false"
"html-button-response","50","393671","0.0-11.0-1.19","null","<p>A másik játékos ezt választotta: <b>szűslök</b>.</p><p>&#10060;</p><p>A válaszaitok <b>nem</b> egyeznek meg.</p>","null","","","","feedback trial","",""
"html-button-response-esp","51","400244","0.0-11.0-0.20","6069","Te bizony sokat sprálszol. Én is sokat...","1","sprálszok","[""sprálszom"",""sprálszok""]","sprálszom","esp trial","9","false"
"html-button-response","52","403761","0.0-11.0-1.20","null","<p>A másik játékos ezt választotta: <b>sprálszom</b>.</p><p>&#10060;</p><p>A válaszaitok <b>nem</b> egyeznek meg.</p>","null","","","","feedback trial","",""
"html-button-response-esp","53","409169","0.0-11.0-0.21","4143","Te bizony sokat tuboklasz. Én is sokat...","0","tuboklok","[""tuboklok"",""tuboklom""]","tuboklok","esp trial","9","true"
"html-button-response","54","412681","0.0-11.0-1.21","null","<p>A másik játékos ezt választotta: <b>tuboklok</b>.</p><p>&#x2705;</p><p>A te válaszod és a másik játékos válasza <b>megegyeznek</b>.</p>","null","","","","feedback trial","",""
"html-button-response-esp","55","421961","0.0-11.0-0.22","8775","Te bizony sokat féjzel. Én is sokat...","1","féjzek","[""féjzem"",""féjzek""]","féjzek","esp trial","9","true"
"html-button-response","56","425474","0.0-11.0-1.22","null","<p>A másik játékos ezt választotta: <b>féjzek</b>.</p><p>&#x2705;</p><p>A te válaszod és a másik játékos válasza <b>megegyeznek</b>.</p>","null","","","","feedback trial","",""
"html-button-response-esp","57","430881","0.0-11.0-0.23","4629","Te bizony sokat flérlesz. Én is sokat...","0","flérlek","[""flérlek"",""flérlem""]","flérlek","esp trial","9","true"
"html-button-response","58","434393","0.0-11.0-1.23","null","<p>A másik játékos ezt választotta: <b>flérlek</b>.</p><p>&#x2705;</p><p>A te válaszod és a másik játékos válasza <b>megegyeznek</b>.</p>","null","","","","feedback trial","",""
"html-button-response-esp","59","439801","0.0-11.0-0.24","4874","Te bizony sokat prohódzol. Én is sokat...","1","prohódzom","[""prohódzok"",""prohódzom""]","prohódzom","esp trial","9","true"
"html-button-response","60","443305","0.0-11.0-1.24","null","<p>A másik játékos ezt választotta: <b>prohódzom</b>.</p><p>&#x2705;</p><p>A te válaszod és a másik játékos válasza <b>megegyeznek</b>.</p>","null","","","","feedback trial","",""
"html-button-response-esp","61","448713","0.0-11.0-0.25","3724","Te bizony sokat vihepszel. Én is sokat...","1","vihepszek","[""vihepszem"",""vihepszek""]","vihepszem","esp trial","9","false"
"html-button-response","62","452225","0.0-11.0-1.25","null","<p>A másik játékos ezt választotta: <b>vihepszem</b>.</p><p>&#10060;</p><p>A válaszaitok <b>nem</b> egyeznek meg.</p>","null","","","","feedback trial","",""
"html-button-response-esp","63","457732","0.0-11.0-0.26","5002","Te bizony sokat péleslesz. Én is sokat...","1","péleslek","[""péleslem"",""péleslek""]","péleslek","esp trial","9","true"
"html-button-response","64","461242","0.0-11.0-1.26","null","<p>A másik játékos ezt választotta: <b>péleslek</b>.</p><p>&#x2705;</p><p>A te válaszod és a másik játékos válasza <b>megegyeznek</b>.</p>","null","","","","feedback trial","",""
"html-button-response-esp","65","466651","0.0-11.0-0.27","4119","Te bizony sokat bivejlesz. Én is sokat...","1","bivejlek","[""bivejlem"",""bivejlek""]","bivejlek","esp trial","9","true"
"html-button-response","66","470162","0.0-11.0-1.27","null","<p>A másik játékos ezt választotta: <b>bivejlek</b>.</p><p>&#x2705;</p><p>A te válaszod és a másik játékos válasza <b>megegyeznek</b>.</p>","null","","","","feedback trial","",""
"html-button-response-esp","67","475571","0.0-11.0-0.28","4480","Te bizony sokat fligzol. Én is sokat...","1","fligzok","[""fligzom"",""fligzok""]","fligzom","esp trial","9","false"
"html-button-response","68","479075","0.0-11.0-1.28","null","<p>A másik játékos ezt választotta: <b>fligzom</b>.</p><p>&#10060;</p><p>A válaszaitok <b>nem</b> egyeznek meg.</p>","null","","","","feedback trial","",""
"html-button-response-esp","69","486177","0.0-11.0-0.29","6598","Te bizony sokat praslasz. Én is sokat...","1","praslok","[""praslom"",""praslok""]","praslok","esp trial","9","true"
"html-button-response","70","489691","0.0-11.0-1.29","null","<p>A másik játékos ezt választotta: <b>praslok</b>.</p><p>&#x2705;</p><p>A te válaszod és a másik játékos válasza <b>megegyeznek</b>.</p>","null","","","","feedback trial","",""
"html-button-response-esp","71","498385","0.0-11.0-0.30","8190","Te bizony sokat plövőrzöl. Én is sokat...","1","plövőrzök","[""plövőrzöm"",""plövőrzök""]","plövőrzök","esp trial","9","true"
"html-button-response","72","501899","0.0-11.0-1.30","null","<p>A másik játékos ezt választotta: <b>plövőrzök</b>.</p><p>&#x2705;</p><p>A te válaszod és a másik játékos válasza <b>megegyeznek</b>.</p>","null","","","","feedback trial","",""
"html-button-response-esp","73","507306","0.0-11.0-0.31","4518","Te bizony sokat gilárzol. Én is sokat...","0","gilárzok","[""gilárzok"",""gilárzom""]","gilárzom","esp trial","9","false"
"html-button-response","74","510819","0.0-11.0-1.31","null","<p>A másik játékos ezt választotta: <b>gilárzom</b>.</p><p>&#10060;</p><p>A válaszaitok <b>nem</b> egyeznek meg.</p>","null","","","","feedback trial","",""
"html-button-response-esp","75","516227","0.0-11.0-0.32","4349","Te bizony sokat fliraklasz. Én is sokat...","0","fliraklok","[""fliraklok"",""fliraklom""]","fliraklok","esp trial","9","true"
"html-button-response","76","519739","0.0-11.0-1.32","null","<p>A másik játékos ezt választotta: <b>fliraklok</b>.</p><p>&#x2705;</p><p>A te válaszod és a másik játékos válasza <b>megegyeznek</b>.</p>","null","","","","feedback trial","",""
"html-button-response-esp","77","525149","0.0-11.0-0.33","3750","Te bizony sokat kumlasz. Én is sokat...","0","kumlok","[""kumlok"",""kumlom""]","kumlok","esp trial","9","true"
"html-button-response","78","528661","0.0-11.0-1.33","null","<p>A másik játékos ezt választotta: <b>kumlok</b>.</p><p>&#x2705;</p><p>A te válaszod és a másik játékos válasza <b>megegyeznek</b>.</p>","null","","","","feedback trial","",""
"html-button-response-esp","79","534069","0.0-11.0-0.34","3992","Te bizony sokat spibádzol. Én is sokat...","0","spibádzom","[""spibádzom"",""spibádzok""]","spibádzok","esp trial","9","false"
"html-button-response","80","537581","0.0-11.0-1.34","null","<p>A másik játékos ezt választotta: <b>spibádzok</b>.</p><p>&#10060;</p><p>A válaszaitok <b>nem</b> egyeznek meg.</p>","null","","","","feedback trial","",""
"html-button-response-esp","81","542989","0.0-11.0-0.35","3313","Te bizony sokat táklasz. Én is sokat...","0","táklok","[""táklok"",""táklom""]","táklom","esp trial","9","false"
"html-button-response","82","546500","0.0-11.0-1.35","null","<p>A másik játékos ezt választotta: <b>táklom</b>.</p><p>&#10060;</p><p>A válaszaitok <b>nem</b> egyeznek meg.</p>","null","","","","feedback trial","",""
"html-button-response-esp","83","551909","0.0-11.0-0.36","3661","Te bizony sokat huklasz. Én is sokat...","1","huklom","[""huklok"",""huklom""]","huklok","esp trial","9","false"
"html-button-response","84","555421","0.0-11.0-1.36","null","<p>A másik játékos ezt választotta: <b>huklok</b>.</p><p>&#10060;</p><p>A válaszaitok <b>nem</b> egyeznek meg.</p>","null","","","","feedback trial","",""
"html-button-response-esp","85","563883","0.0-11.0-0.37","7958","Te bizony sokat prihekszel. Én is sokat...","0","prihekszem","[""prihekszem"",""prihekszek""]","prihekszek","esp trial","9","false"
"html-button-response","86","567397","0.0-11.0-1.37","null","<p>A másik játékos ezt választotta: <b>prihekszek</b>.</p><p>&#10060;</p><p>A válaszaitok <b>nem</b> egyeznek meg.</p>","null","","","","feedback trial","",""
"html-button-response-esp","87","573093","0.0-11.0-0.38","5192","Te bizony sokat trihagzol. Én is sokat...","0","trihagzok","[""trihagzok"",""trihagzom""]","trihagzom","esp trial","9","false"
"html-button-response","88","576605","0.0-11.0-1.38","null","<p>A másik játékos ezt választotta: <b>trihagzom</b>.</p><p>&#10060;</p><p>A válaszaitok <b>nem</b> egyeznek meg.</p>","null","","","","feedback trial","",""
"html-button-response-esp","89","584384","0.0-11.0-0.39","7272","Te bizony sokat spatszol. Én is sokat...","1","spatszok","[""spatszom"",""spatszok""]","spatszom","esp trial","9","false"
"html-button-response","90","587894","0.0-11.0-1.39","null","<p>A másik játékos ezt választotta: <b>spatszom</b>.</p><p>&#10060;</p><p>A válaszaitok <b>nem</b> egyeznek meg.</p>","null","","","","feedback trial","",""
"html-button-response-esp","91","594807","0.0-11.0-0.40","6408","Te bizony sokat csólorzol. Én is sokat...","1","csólorzom","[""csólorzok"",""csólorzom""]","csólorzom","esp trial","9","true"
"html-button-response","92","598319","0.0-11.0-1.40","null","<p>A másik játékos ezt választotta: <b>csólorzom</b>.</p><p>&#x2705;</p><p>A te válaszod és a másik játékos válasza <b>megegyeznek</b>.</p>","null","","","","feedback trial","",""
"html-button-response-esp","93","603726","0.0-11.0-0.41","3981","Te bizony sokat friszlasz. Én is sokat...","0","friszlom","[""friszlom"",""friszlok""]","friszlok","esp trial","9","false"
"html-button-response","94","607239","0.0-11.0-1.41","null","<p>A másik játékos ezt választotta: <b>friszlok</b>.</p><p>&#10060;</p><p>A válaszaitok <b>nem</b> egyeznek meg.</p>","null","","","","feedback trial","",""
"html-button-response-esp","95","614469","0.0-11.0-0.42","6726","Te bizony sokat brarlasz. Én is sokat...","0","brarlok","[""brarlok"",""brarlom""]","brarlok","esp trial","9","true"
"html-button-response","96","617983","0.0-11.0-1.42","null","<p>A másik játékos ezt választotta: <b>brarlok</b>.</p><p>&#x2705;</p><p>A te válaszod és a másik játékos válasza <b>megegyeznek</b>.</p>","null","","","","feedback trial","",""
"html-button-response-esp","97","623390","0.0-11.0-0.43","3746","Te bizony sokat pugoslasz. Én is sokat...","0","pugoslok","[""pugoslok"",""pugoslom""]","pugoslok","esp trial","9","true"
"html-button-response","98","626902","0.0-11.0-1.43","null","<p>A másik játékos ezt választotta: <b>pugoslok</b>.</p><p>&#x2705;</p><p>A te válaszod és a másik játékos válasza <b>megegyeznek</b>.</p>","null","","","","feedback trial","",""
"html-button-response-esp","99","632310","0.0-11.0-0.44","4789","Te bizony sokat spüszlesz. Én is sokat...","1","spüszlök","[""spüszlöm"",""spüszlök""]","spüszlök","esp trial","9","true"
"html-button-response","100","635822","0.0-11.0-1.44","null","<p>A másik játékos ezt választotta: <b>spüszlök</b>.</p><p>&#x2705;</p><p>A te válaszod és a másik játékos válasza <b>megegyeznek</b>.</p>","null","","","","feedback trial","",""
"html-button-response-esp","101","641230","0.0-11.0-0.45","3348","Te bizony sokat lihadzol. Én is sokat...","0","lihadzom","[""lihadzom"",""lihadzok""]","lihadzok","esp trial","9","false"
"html-button-response","102","644745","0.0-11.0-1.45","null","<p>A másik játékos ezt választotta: <b>lihadzok</b>.</p><p>&#10060;</p><p>A válaszaitok <b>nem</b> egyeznek meg.</p>","null","","","","feedback trial","",""
"html-button-response-esp","103","650153","0.0-11.0-0.46","4396","Te bizony sokat plágadzol. Én is sokat...","1","plágadzom","[""plágadzok"",""plágadzom""]","plágadzom","esp trial","9","true"
"html-button-response","104","653665","0.0-11.0-1.46","null","<p>A másik játékos ezt választotta: <b>plágadzom</b>.</p><p>&#x2705;</p><p>A te válaszod és a másik játékos válasza <b>megegyeznek</b>.</p>","null","","","","feedback trial","",""
"html-button-response-esp","105","659073","0.0-11.0-0.47","4256","Te bizony sokat spélszel. Én is sokat...","0","spélszek","[""spélszek"",""spélszem""]","spélszek","esp trial","9","true"
"html-button-response","106","662585","0.0-11.0-1.47","null","<p>A másik játékos ezt választotta: <b>spélszek</b>.</p><p>&#x2705;</p><p>A te válaszod és a másik játékos válasza <b>megegyeznek</b>.</p>","null","","","","feedback trial","",""
"html-button-response-esp","107","668049","0.0-11.0-0.48","4959","Te bizony sokat spülőrzöl. Én is sokat...","1","spülőrzök","[""spülőrzöm"",""spülőrzök""]","spülőrzök","esp trial","9","true"
"html-button-response","108","671561","0.0-11.0-1.48","null","<p>A másik játékos ezt választotta: <b>spülőrzök</b>.</p><p>&#x2705;</p><p>A te válaszod és a másik játékos válasza <b>megegyeznek</b>.</p>","null","","","","feedback trial","",""
"html-button-response-esp","109","676969","0.0-11.0-0.49","4334","Te bizony sokat flözlesz. Én is sokat...","0","flözlök","[""flözlök"",""flözlöm""]","flözlök","esp trial","9","true"
"html-button-response","110","680481","0.0-11.0-1.49","null","<p>A másik játékos ezt választotta: <b>flözlök</b>.</p><p>&#x2705;</p><p>A te válaszod és a másik játékos válasza <b>megegyeznek</b>.</p>","null","","","","feedback trial","",""
"html-button-response-esp","111","685889","0.0-11.0-0.50","3898","Te bizony sokat flibekszel. Én is sokat...","0","flibekszem","[""flibekszem"",""flibekszek""]","flibekszem","esp trial","9","true"
"html-button-response","112","689401","0.0-11.0-1.50","null","<p>A másik játékos ezt választotta: <b>flibekszem</b>.</p><p>&#x2705;</p><p>A te válaszod és a másik játékos válasza <b>megegyeznek</b>.</p>","null","","","","feedback trial","",""
"html-button-response-esp","113","696528","0.0-11.0-0.51","6623","Te bizony sokat livaklasz. Én is sokat...","1","livaklok","[""livaklom"",""livaklok""]","livaklom","esp trial","9","false"
"html-button-response","114","700041","0.0-11.0-1.51","null","<p>A másik játékos ezt választotta: <b>livaklom</b>.</p><p>&#10060;</p><p>A válaszaitok <b>nem</b> egyeznek meg.</p>","null","","","","feedback trial","",""
"html-button-response-esp","115","710786","0.0-11.0-0.52","10239","Te bizony sokat drügzöl. Én is sokat...","1","drügzök","[""drügzöm"",""drügzök""]","drügzök","esp trial","9","true"
"html-button-response","116","714299","0.0-11.0-1.52","null","<p>A másik játékos ezt választotta: <b>drügzök</b>.</p><p>&#x2705;</p><p>A te válaszod és a másik játékos válasza <b>megegyeznek</b>.</p>","null","","","","feedback trial","",""
"html-button-response-esp","117","719707","0.0-11.0-0.53","4667","Te bizony sokat sztruglasz. Én is sokat...","0","sztruglok","[""sztruglok"",""sztruglom""]","sztruglok","esp trial","9","true"
"html-button-response","118","723219","0.0-11.0-1.53","null","<p>A másik játékos ezt választotta: <b>sztruglok</b>.</p><p>&#x2705;</p><p>A te válaszod és a másik játékos válasza <b>megegyeznek</b>.</p>","null","","","","feedback trial","",""
"html-button-response","119","734455","0.0-12.0","10731","<p>A közös játék most véget ért.</p><p>Mielőtt eláruljuk a végső pontszámodat, arra kérlek, játszd a szóválasztós játékot néhány percig egyedül is.</p><p>A feladatod ugyanaz lesz, választani két lehetőség közül.</p><p>Most viszont egyedül kell döntened, hogy te melyiket választanád.</p>","0","","","","","",""
"html-button-response-clever","120","739887","0.0-13.0-0.0","4931","Te bizony sokat pratánylasz. Én is sokat...","1","pratánylok","[""pratánylom"",""pratánylok""]","","posttest trial","1",""
"html-button-response-clever","121","746053","0.0-13.0-0.1","5657","Te bizony sokat szirlasz. Én is sokat...","1","szirlok","[""szirlom"",""szirlok""]","","posttest trial","1",""
"html-button-response-clever","122","751321","0.0-13.0-0.2","4765","Te bizony sokat spibaklasz. Én is sokat...","0","spibaklom","[""spibaklom"",""spibaklok""]","","posttest trial","1",""
"html-button-response-clever","123","755897","0.0-13.0-0.3","4069","Te bizony sokat sztremlesz. Én is sokat...","0","sztremlek","[""sztremlek"",""sztremlem""]","","posttest trial","1",""
"html-button-response-clever","124","761554","0.0-13.0-0.4","5150","Te bizony sokat brüjlesz. Én is sokat...","1","brüjlöm","[""brüjlök"",""brüjlöm""]","","posttest trial","1",""
"html-button-response-clever","125","765115","0.0-13.0-0.5","3055","Te bizony sokat juszlasz. Én is sokat...","1","juszlok","[""juszlom"",""juszlok""]","","posttest trial","1",""
"html-button-response-clever","126","772925","0.0-13.0-0.6","7304","Te bizony sokat fretszel. Én is sokat...","1","fretszem","[""fretszek"",""fretszem""]","","posttest trial","1",""
"html-button-response-clever","127","778040","0.0-13.0-0.7","4611","Te bizony sokat pebzel. Én is sokat...","1","pebzek","[""pebzem"",""pebzek""]","","posttest trial","1",""
"html-button-response-clever","128","782891","0.0-13.0-0.8","4343","Te bizony sokat böjzöl. Én is sokat...","0","böjzöm","[""böjzöm"",""böjzök""]","","posttest trial","1",""
"html-button-response-clever","129","788955","0.0-13.0-0.9","5558","Te bizony sokat sprökszöl. Én is sokat...","0","sprökszök","[""sprökszök"",""sprökszöm""]","","posttest trial","1",""
"html-button-response-clever","130","794196","0.0-13.0-0.10","4735","Te bizony sokat nyáslasz. Én is sokat...","1","nyáslok","[""nyáslom"",""nyáslok""]","","posttest trial","1",""
"html-button-response-clever","131","799733","0.0-13.0-0.11","5032","Te bizony sokat feténylesz. Én is sokat...","1","feténylek","[""feténylem"",""feténylek""]","","posttest trial","1",""
"html-button-response-clever","132","805707","0.0-13.0-0.12","5470","Te bizony sokat tínylasz. Én is sokat...","0","tínylom","[""tínylom"",""tínylok""]","","posttest trial","1",""
"html-button-response-clever","133","811832","0.0-13.0-0.13","5618","Te bizony sokat frilegszel. Én is sokat...","0","frilegszek","[""frilegszek"",""frilegszem""]","","posttest trial","1",""
"html-button-response-clever","134","817733","0.0-13.0-0.14","5399","Te bizony sokat pivegszel. Én is sokat...","0","pivegszem","[""pivegszem"",""pivegszek""]","","posttest trial","1",""
"html-button-response-clever","135","824670","0.0-13.0-0.15","6434","Te bizony sokat lorjódzol. Én is sokat...","1","lorjódzom","[""lorjódzok"",""lorjódzom""]","","posttest trial","1",""
"html-button-response-clever","136","829252","0.0-13.0-0.16","4077","Te bizony sokat fibamlasz. Én is sokat...","1","fibamlok","[""fibamlom"",""fibamlok""]","","posttest trial","1",""
"html-button-response-clever","137","833643","0.0-13.0-0.17","3884","Te bizony sokat klörlesz. Én is sokat...","1","klörlök","[""klörlöm"",""klörlök""]","","posttest trial","1",""
"html-button-response-clever","138","839849","0.0-13.0-0.18","5698","Te bizony sokat klibamlasz. Én is sokat...","0","klibamlok","[""klibamlok"",""klibamlom""]","","posttest trial","1",""
"html-button-response-clever","139","846478","0.0-13.0-0.19","6126","Te bizony sokat flűröklesz. Én is sokat...","0","flűröklöm","[""flűröklöm"",""flűröklök""]","","posttest trial","1",""
"html-button-response-clever","140","850993","0.0-13.0-0.20","4009","Te bizony sokat siladzol. Én is sokat...","0","siladzok","[""siladzok"",""siladzom""]","","posttest trial","1",""
"html-button-response-clever","141","859784","0.0-13.0-0.21","8290","Te bizony sokat vilakszol. Én is sokat...","1","vilakszom","[""vilakszok"",""vilakszom""]","","posttest trial","1",""
"html-button-response-clever","142","864442","0.0-13.0-0.22","4156","Te bizony sokat spilágzol. Én is sokat...","0","spilágzok","[""spilágzok"",""spilágzom""]","","posttest trial","1",""
"html-button-response-clever","143","869266","0.0-13.0-0.23","4315","Te bizony sokat herégszel. Én is sokat...","1","herégszek","[""herégszem"",""herégszek""]","","posttest trial","1",""
"html-button-response-clever","144","872830","0.0-13.0-0.24","3063","Te bizony sokat büglesz. Én is sokat...","0","büglök","[""büglök"",""büglöm""]","","posttest trial","1",""
"html-button-response-clever","145","876628","0.0-13.0-0.25","3293","Te bizony sokat femlesz. Én is sokat...","0","femlek","[""femlek"",""femlem""]","","posttest trial","1",""
"html-button-response-clever","146","880528","0.0-13.0-0.26","3393","Te bizony sokat bölszöl. Én is sokat...","1","bölszöm","[""bölszök"",""bölszöm""]","","posttest trial","1",""
"html-button-response-clever","147","884784","0.0-13.0-0.27","3752","Te bizony sokat marzol. Én is sokat...","1","marzok","[""marzom"",""marzok""]","","posttest trial","1",""
"html-button-response-clever","148","889394","0.0-13.0-0.28","4105","Te bizony sokat prilegzel. Én is sokat...","1","prilegzek","[""prilegzem"",""prilegzek""]","","posttest trial","1",""
"html-button-response-clever","149","893271","0.0-13.0-0.29","3374","Te bizony sokat málapszol. Én is sokat...","0","málapszom","[""málapszom"",""málapszok""]","","posttest trial","1",""
"html-button-response-clever","150","898089","0.0-13.0-0.30","4313","Te bizony sokat tiregzel. Én is sokat...","1","tiregzem","[""tiregzek"",""tiregzem""]","","posttest trial","1",""
"html-button-response-clever","151","902666","0.0-13.0-0.31","4072","Te bizony sokat sűzlesz. Én is sokat...","1","sűzlök","[""sűzlöm"",""sűzlök""]","","posttest trial","1",""
"html-button-response-clever","152","909880","0.0-13.0-0.32","6711","Te bizony sokat flagánylasz. Én is sokat...","1","flagánylok","[""flagánylom"",""flagánylok""]","","posttest trial","1",""
"html-button-response-clever","153","914852","0.0-13.0-0.33","4467","Te bizony sokat spéslesz. Én is sokat...","1","spéslek","[""spéslem"",""spéslek""]","","posttest trial","1",""
"html-button-response-clever","154","919488","0.0-13.0-0.34","4126","Te bizony sokat piragszol. Én is sokat...","0","piragszom","[""piragszom"",""piragszok""]","","posttest trial","1",""
"html-button-response-clever","155","923233","0.0-13.0-0.35","3240","Te bizony sokat jüslesz. Én is sokat...","1","jüslök","[""jüslöm"",""jüslök""]","","posttest trial","1",""
"html-button-response-clever","156","928282","0.0-13.0-0.36","4544","Te bizony sokat flagárzol. Én is sokat...","1","flagárzok","[""flagárzom"",""flagárzok""]","","posttest trial","1",""
"html-button-response-clever","157","933380","0.0-13.0-0.37","4595","Te bizony sokat driládzol. Én is sokat...","1","driládzok","[""driládzom"",""driládzok""]","","posttest trial","1",""
"html-button-response-clever","158","938676","0.0-13.0-0.38","4787","Te bizony sokat flüröslesz. Én is sokat...","1","flüröslök","[""flüröslöm"",""flüröslök""]","","posttest trial","1",""
"html-button-response-clever","159","943970","0.0-13.0-0.39","4784","Te bizony sokat sojzol. Én is sokat...","0","sojzom","[""sojzom"",""sojzok""]","","posttest trial","1",""
"html-button-response-clever","160","948710","0.0-13.0-0.40","4235","Te bizony sokat sprogzol. Én is sokat...","1","sprogzok","[""sprogzom"",""sprogzok""]","","posttest trial","1",""
"html-button-response-clever","161","953164","0.0-13.0-0.41","3945","Te bizony sokat spűmlesz. Én is sokat...","1","spűmlök","[""spűmlöm"",""spűmlök""]","","posttest trial","1",""
"html-button-response-clever","162","958148","0.0-13.0-0.42","4480","Te bizony sokat ribegzel. Én is sokat...","1","ribegzek","[""ribegzem"",""ribegzek""]","","posttest trial","1",""
"html-button-response-clever","163","964122","0.0-13.0-0.43","5470","Te bizony sokat prűrlesz. Én is sokat...","1","prűrlök","[""prűrlöm"",""prűrlök""]","","posttest trial","1",""
"html-button-response-clever","164","968710","0.0-13.0-0.44","4082","Te bizony sokat trilszol. Én is sokat...","1","trilszom","[""trilszok"",""trilszom""]","","posttest trial","1",""
"html-button-response-clever","165","974058","0.0-13.0-0.45","4847","Te bizony sokat spatárzol. Én is sokat...","1","spatárzok","[""spatárzom"",""spatárzok""]","","posttest trial","1",""
"html-button-response-clever","166","979496","0.0-13.0-0.46","4933","Te bizony sokat narjárzol. Én is sokat...","0","narjárzom","[""narjárzom"",""narjárzok""]","","posttest trial","1",""
"html-button-response-clever","167","987906","0.0-13.0-0.47","7903","Te bizony sokat brágaklasz. Én is sokat...","0","brágaklok","[""brágaklok"",""brágaklom""]","","posttest trial","1",""
"html-button-response-clever","168","992227","0.0-13.0-0.48","3815","Te bizony sokat csíszlasz. Én is sokat...","1","csíszlok","[""csíszlom"",""csíszlok""]","","posttest trial","1",""
"html-button-response-clever","169","996019","0.0-13.0-0.49","3288","Te bizony sokat ruslasz. Én is sokat...","1","ruslok","[""ruslom"",""ruslok""]","","posttest trial","1",""
"html-button-response-clever","170","1000179","0.0-13.0-0.50","3655","Te bizony sokat ribzol. Én is sokat...","1","ribzok","[""ribzom"",""ribzok""]","","posttest trial","1",""
"html-button-response-clever","171","1004609","0.0-13.0-0.51","3925","Te bizony sokat hilarzol. Én is sokat...","1","hilarzok","[""hilarzom"",""hilarzok""]","","posttest trial","1",""
"html-button-response-clever","172","1008907","0.0-13.0-0.52","3790","Te bizony sokat tomlasz. Én is sokat...","1","tomlok","[""tomlom"",""tomlok""]","","posttest trial","1",""
"html-button-response-clever","173","1013802","0.0-13.0-0.53","4389","Te bizony sokat drubódzol. Én is sokat...","1","drubódzom","[""drubódzok"",""drubódzom""]","","posttest trial","1",""
"html-button-response","174","1023040","0.0-14.0","8731","<p> Vége a játéknak. A teljes pontszámod 38/54.</p><p> Szép munka! &#128526;&#128526;&#128526;</p><p>A Befejezés gomb megnyomása után bezárhatod a böngészőablakot.</p>","0","","","","","",""
"html-keyboard-response","175","1028557","0.0-15.0","null","<div class=""message"">
         <p>Egy kis türelmet kérünk, amíg elmentjük az adatokat...</p>
         </div>","null","","","","","",""
