"trial_type","trial_index","time_elapsed","internal_node_id","rt","stimulus","response","response_string","choices","esp_response","trial_kind","list_number","esp_match"
"pavlovia","0","3967","0.0-0.0","","","","","","","","",""
"html-button-response","1","32866","0.0-1.0","28373","<p>Kedves Résztvevő! A Budapesti Műszaki és Gazdaságtudományi Egyetem Kognitív Tudományi Tanszékének kutatásában való részvételed kérjük. A kutatásban azt vizsgáljuk, hogy a magyar anyanyelvűek hogyan használnak bizonyos szóalakokat, és hogy milyen képük van arról, hogy mások hogyan használják, hogyan képzik a szavakat. Ez hozzásegít bennünket ahhoz, hogy jobban megértsük, hogyan dolgozza fel és tárolja a nyelvet az emberi agy, és hogyan működnek, hogyan változnak egy adott közösség nyelvi konvenciói.</p><p>A vizsgálat egy rövid számítógépes feladatból fog állni. A kutatásban való részvétel önkéntes, a részvételi szándék bármikor visszavonható. A résztvevők eredményeit név nélkül kezeljük, így nem beazonosíthatók az adatok feldolgozása során. Minden személyes adatot az EU általános adatvédelmi rendeletének (GDPR) megfelelően kezelünk és legfeljebb öt éven belül megsemmisítünk. A vizsgálat jellemzően húsz percet vesz igénybe.</p><p>Kutatásvezető:</p><p>Dr. Rácz Péter, tudományos munkatárs, BME KTT</p><p>e-mail: racz.peter.marton@ttk.bme.hu</p>","0","","","","","",""
"html-button-response","2","77522","0.0-2.0","44144","<p>A kísérletben szavakat fogsz látni. Ezek között lesznek olyanok, amelyeket ismersz, de előfordulhatnak olyanok is, amelyeket nem ismersz, sőt, vannak köztük kitalált szavak is. Minden szónál látni fogsz toldalékolt alakokat. A te feladatod az lesz, hogy minden szóhoz kiválaszd azt a toldalékolt alakot, amely a te számodra ismerősebben, természetesebben hangzik. Rossz válaszok nincsenek, mert van olyan, hogy különböző embereknek más és más szó tűnik jobb választásnak. A választ úgy tudod majd kiválasztani, ha rákattintasz.</p><p>Ebben a szóválasztós játékban egy másik játékossal együtt veszel majd részt. A másik játékos is minden esetben azok közül a lehetőségek közül válogathat, mint te. Kettőtök feladata az, hogy ugyanazt a lehetőséget válasszátok minden esetben. Ahhoz, hogy ez sikerüljön, neked figyelned kell arra, hogy a másik játékos milyen válaszokat ad, és ennek alapján meg kell tippelned, hogyan választ legközelebb. Ha eltalálod, akkor pontot kapsz.</p>","0","","","","","",""
"html-button-response","3","86735","0.0-3.0","8701","<p>Kérjük, olvasd el az alábbi nyilatkozatot, és amennyiben egyetértesz vele, nyomj a Beleegyezés gombra!</p><p>Kijelentem, hogy magyar anyanyelvű személyként önként veszek részt a BME KTT kísérletében. A kutatás céljával és folyamatával kapcsolatban elegendő tájékoztatást kaptam, lehetőségem volt kérdések feltételére, és esetleges kérdéseimre megfelelő válaszokat kaptam. A tájékoztatás alapján elegendő mennyiségű információ áll a rendelkezésemre, hogy eldönthessem, részt kívánok-e venni a kutatásban.</p><p>Tisztában vagyok vele, hogy részvételi szándékomat és adataimat bármikor, indoklás nélkül visszavonhatom.</p><p>Értem és tudomásul veszem, hogy a kutatás tudományos célokat szolgál, és az általam szolgáltatott adatokat a BME kizárólag kutatási célból használja fel. Tudomásul veszem, hogy eredményeimet a többi résztvevő eredményeivel együtt kezelik, így egyéni teljesítményemről visszajelzést, szakvéleményt nem kapok.</p><p>Megértettem, hogy adataim kezelését illetően a BME az EU általános adatvédelmi rendelete (GDPR), a hatályos adatvédelmi törvény és a nemzetközi kutatás-etikai alapelvek szerint jár el. Eredményeim anonim módon kerülnek feldolgozásra, és a kutatás résztvevői az azonosításomra alkalmas adataimat harmadik félnek nem szolgáltatják ki. Engedélyezem a BME számára a jelen kutatásban felvett adataim feldolgozását és tárolását, beleértve azok későbbi kutatásokhoz való felhasználását is. Személyes adataim kezelésével kapcsolatban tájékoztatást kérhetek a kutatás résztvevőitől, az adatkezelés ellen tiltakozhatok, kérhetem személyes adataim helyesbítését, törlését vagy zárolását, valamint jogorvoslatért a Nemzeti Adatvédelmi és Információszabadság Hatósághoz fordulhatok.</p><p>Kijelentem, hogy a kutatásban való részvételem körülményeiről részletes tájékoztatást kaptam, és a feltételeket elfogadom.</p>","0","","","","","",""
"survey-text","4","114429","0.0-4.0","27146","","{""Q0"":""SN215"",""Q1"":""nő"",""Q2"":""2003"",""Q3"":""13""}","","","","","",""
"html-button-response","5","127840","0.0-5.0","12902","<p>Ebben a játékban szavakat kell toldalékolni.</p> <p>Minden körben mutatunk majd egy példamondatot, amiben lesz egy szó.</p> <p>Alatta jön egy második mondat, ezt a mondatot neked kell majd befejezni, ugyanezzel a szóval.</p> <p>Nem biztos, hogy a szó eleve ismerős lesz számodra!</p> <p>Minden mondathoz adunk két lehetőséget, ezeket balra és jobbra látod majd.</p> <p>A játék kb. negyedóráig-húsz percig tart.</p>","0","","","","","",""
"html-button-response","6","145215","0.0-6.0","16860","<p>Nézzünk egy példát!</p> <p>A példamondat: ""János imád fláramolni, ezért sokat fláramlik. Mi ritkán...""</p><p>Neked ezt a mondatot kell befejezned: ""Ti ritkán...""</p><p>A lehetőségek pedig ezek:</p>","0","","","","","",""
"html-button-response","7","151691","0.0-7.0","5953","<p>Nagyon jó.</p><p>Ezt a játékot nem egyedül fogod játszani, hanem egy másik játékossal.</p><p>Mielőtt továbblépünk, összekapcsolunk titeket egymással.</p><p>Ez igénybe vehet néhány másodpercet, amihez szíves türelmed kérjük.</p>","0","","","","","",""
"html-button-response","8","157437","0.0-8.0","null","<p>Csatlakozás a másik játékoshoz...</p>","null","","","","","",""
"html-button-response","9","159957","0.0-9.0","null","<p> Sikeres kapcsolódás!</p>","null","","","","","",""
"html-button-response","10","168931","0.0-10.0","8460","<p>A következőkben ketten játsszátok a szóválasztós játékot.</p><p>A feladatotok az lesz, hogy minden körben <b>ugyanazt</b> a szót válasszátok.</p><p>Minden ilyen egyező válaszért pontot kaptok.</p><p>Próbáld meg kitalálni, mit választ a másik játékos!</p><p>Bármikor választhatsz, a körnek akkor van vége, ha mindketten döntöttetek.</p><p>Sok sikert!</p>","0","","","","","",""
"html-button-response-esp","11","176480","0.0-11.0-0.0","7033","János imád föködni, ezért sokat fökszik. Ők ritkán...","0","föködnek","[""föködnek"",""fökszenek""]","fökszenek","esp trial","7","false"
"html-button-response","12","180010","0.0-11.0-1.0","null","<p>A másik játékos ezt választotta: <b>fökszenek</b>.</p><p>&#10060;</p><p>A válaszaitok <b>nem</b> egyeznek meg.</p>","null","","","","feedback trial","",""
"html-button-response-esp","13","186875","0.0-11.0-0.1","6344","János imád brözözni, ezért sokat brözlik. Ti ritkán...","1","brözlötök","[""brözöztök"",""brözlötök""]","brözöztök","esp trial","7","false"
"html-button-response","14","190389","0.0-11.0-1.1","null","<p>A másik játékos ezt választotta: <b>brözöztök</b>.</p><p>&#10060;</p><p>A válaszaitok <b>nem</b> egyeznek meg.</p>","null","","","","feedback trial","",""
"html-button-response-esp","15","198761","0.0-11.0-0.2","7860","János imád trikozni, ezért sokat triklik. Ti ritkán...","1","triklotok","[""trikoztok"",""triklotok""]","triklotok","esp trial","7","true"
"html-button-response","16","202291","0.0-11.0-1.2","null","<p>A másik játékos ezt választotta: <b>triklotok</b>.</p><p>&#x2705;</p><p>A te válaszod és a másik játékos válasza <b>megegyeznek</b>.</p>","null","","","","feedback trial","",""
"html-button-response-esp","17","211803","0.0-11.0-0.3","9001","János imád dilakozni, ezért sokat dilaklik. Ti ritkán...","0","dilakoztok","[""dilakoztok"",""dilaklotok""]","dilakoztok","esp trial","7","true"
"html-button-response","18","215324","0.0-11.0-1.3","null","<p>A másik játékos ezt választotta: <b>dilakoztok</b>.</p><p>&#x2705;</p><p>A te válaszod és a másik játékos válasza <b>megegyeznek</b>.</p>","null","","","","feedback trial","",""
"html-button-response-esp","19","223972","0.0-11.0-0.4","8141","János imád frálasozni, ezért sokat frálaslik. Ők ritkán...","1","frálasoznak","[""frálaslanak"",""frálasoznak""]","frálaslanak","esp trial","7","false"
"html-button-response","20","227489","0.0-11.0-1.4","null","<p>A másik játékos ezt választotta: <b>frálaslanak</b>.</p><p>&#10060;</p><p>A válaszaitok <b>nem</b> egyeznek meg.</p>","null","","","","feedback trial","",""
"html-button-response-esp","21","240241","0.0-11.0-0.5","12239","János imád csibagozni, ezért sokat csibagzik. Ti ritkán...","0","csibagoztok","[""csibagoztok"",""csibagzotok""]","csibagoztok","esp trial","7","true"
"html-button-response","22","243766","0.0-11.0-1.5","null","<p>A másik játékos ezt választotta: <b>csibagoztok</b>.</p><p>&#x2705;</p><p>A te válaszod és a másik játékos válasza <b>megegyeznek</b>.</p>","null","","","","feedback trial","",""
"html-button-response-esp","23","251049","0.0-11.0-0.6","6766","János imád lűközni, ezért sokat lűklik. Ők ritkán...","0","lűklenek","[""lűklenek"",""lűköznek""]","lűköznek","esp trial","7","false"
"html-button-response","24","254573","0.0-11.0-1.6","null","<p>A másik játékos ezt választotta: <b>lűköznek</b>.</p><p>&#10060;</p><p>A válaszaitok <b>nem</b> egyeznek meg.</p>","null","","","","feedback trial","",""
"html-button-response-esp","25","262558","0.0-11.0-0.7","7470","János imád fröjözni, ezért sokat fröjzik. Ti ritkán...","1","fröjöztök","[""fröjzötök"",""fröjöztök""]","fröjöztök","esp trial","7","true"
"html-button-response","26","266090","0.0-11.0-1.7","null","<p>A másik játékos ezt választotta: <b>fröjöztök</b>.</p><p>&#x2705;</p><p>A te válaszod és a másik játékos válasza <b>megegyeznek</b>.</p>","null","","","","feedback trial","",""
"html-button-response-esp","27","272035","0.0-11.0-0.8","5441","János imád posozni, ezért sokat poslik. Ti ritkán...","1","posoztok","[""poslotok"",""posoztok""]","poslotok","esp trial","7","false"
"html-button-response","28","275567","0.0-11.0-1.8","null","<p>A másik játékos ezt választotta: <b>poslotok</b>.</p><p>&#10060;</p><p>A válaszaitok <b>nem</b> egyeznek meg.</p>","null","","","","feedback trial","",""
"html-button-response-esp","29","282344","0.0-11.0-0.9","6262","János imád spügözni, ezért sokat spügzik. Mi ritkán...","0","spügzünk","[""spügzünk"",""spügözünk""]","spügzünk","esp trial","7","true"
"html-button-response","30","285868","0.0-11.0-1.9","null","<p>A másik játékos ezt választotta: <b>spügzünk</b>.</p><p>&#x2705;</p><p>A te válaszod és a másik játékos válasza <b>megegyeznek</b>.</p>","null","","","","feedback trial","",""
"html-button-response-esp","31","294436","0.0-11.0-0.10","8055","János imád nyürözni, ezért sokat nyürzik. Ők ritkán...","0","nyürzenek","[""nyürzenek"",""nyüröznek""]","nyüröznek","esp trial","7","false"
"html-button-response","32","297954","0.0-11.0-1.10","null","<p>A másik játékos ezt választotta: <b>nyüröznek</b>.</p><p>&#10060;</p><p>A válaszaitok <b>nem</b> egyeznek meg.</p>","null","","","","feedback trial","",""
"html-button-response-esp","33","304211","0.0-11.0-0.11","5743","János imád privékedni, ezért sokat privékszik. Ők ritkán...","1","privékszenek","[""privékednek"",""privékszenek""]","privékednek","esp trial","7","false"
"html-button-response","34","307732","0.0-11.0-1.11","null","<p>A másik játékos ezt választotta: <b>privékednek</b>.</p><p>&#10060;</p><p>A válaszaitok <b>nem</b> egyeznek meg.</p>","null","","","","feedback trial","",""
"html-button-response-esp","35","314429","0.0-11.0-0.12","6186","János imád pilégedni, ezért sokat pilégszik. Ők ritkán...","0","pilégszenek","[""pilégszenek"",""pilégednek""]","pilégszenek","esp trial","7","true"
"html-button-response","36","317963","0.0-11.0-1.12","null","<p>A másik játékos ezt választotta: <b>pilégszenek</b>.</p><p>&#x2705;</p><p>A te válaszod és a másik játékos válasza <b>megegyeznek</b>.</p>","null","","","","feedback trial","",""
"html-button-response-esp","37","328730","0.0-11.0-0.13","10253","János imád mülőrözni, ezért sokat mülőrzik. Mi ritkán...","1","mülőrözünk","[""mülőrzünk"",""mülőrözünk""]","mülőrözünk","esp trial","7","true"
"html-button-response","38","332252","0.0-11.0-1.13","null","<p>A másik játékos ezt választotta: <b>mülőrözünk</b>.</p><p>&#x2705;</p><p>A te válaszod és a másik játékos válasza <b>megegyeznek</b>.</p>","null","","","","feedback trial","",""
"html-button-response-esp","39","337414","0.0-11.0-0.14","4657","János imád frakozni, ezért sokat fraklik. Mi ritkán...","1","frakozunk","[""fraklunk"",""frakozunk""]","frakozunk","esp trial","7","true"
"html-button-response","40","340942","0.0-11.0-1.14","null","<p>A másik játékos ezt választotta: <b>frakozunk</b>.</p><p>&#x2705;</p><p>A te válaszod és a másik játékos válasza <b>megegyeznek</b>.</p>","null","","","","feedback trial","",""
"html-button-response-esp","41","351540","0.0-11.0-0.15","10087","János imád drilarozni, ezért sokat drilarzik. Mi ritkán...","0","drilarozunk","[""drilarozunk"",""drilarzunk""]","drilarozunk","esp trial","7","true"
"html-button-response","42","355068","0.0-11.0-1.15","null","<p>A másik játékos ezt választotta: <b>drilarozunk</b>.</p><p>&#x2705;</p><p>A te válaszod és a másik játékos válasza <b>megegyeznek</b>.</p>","null","","","","feedback trial","",""
"html-button-response-esp","43","359953","0.0-11.0-0.16","4367","János imád dabozni, ezért sokat dabzik. Ti ritkán...","1","daboztok","[""dabzotok"",""daboztok""]","daboztok","esp trial","7","true"
"html-button-response","44","363487","0.0-11.0-1.16","null","<p>A másik játékos ezt választotta: <b>daboztok</b>.</p><p>&#x2705;</p><p>A te válaszod és a másik játékos válasza <b>megegyeznek</b>.</p>","null","","","","feedback trial","",""
"html-button-response-esp","45","373285","0.0-11.0-0.17","9284","János imád spibegezni, ezért sokat spibeglik. Mi ritkán...","1","spibegezünk","[""spibeglünk"",""spibegezünk""]","spibeglünk","esp trial","7","false"
"html-button-response","46","376819","0.0-11.0-1.17","null","<p>A másik játékos ezt választotta: <b>spibeglünk</b>.</p><p>&#10060;</p><p>A válaszaitok <b>nem</b> egyeznek meg.</p>","null","","","","feedback trial","",""
"html-button-response-esp","47","382775","0.0-11.0-0.18","5441","János imád trugozni, ezért sokat trugzik. Ők ritkán...","1","trugzanak","[""trugoznak"",""trugzanak""]","trugoznak","esp trial","7","false"
"html-button-response","48","386302","0.0-11.0-1.18","null","<p>A másik játékos ezt választotta: <b>trugoznak</b>.</p><p>&#10060;</p><p>A válaszaitok <b>nem</b> egyeznek meg.</p>","null","","","","feedback trial","",""
"html-button-response-esp","49","393331","0.0-11.0-0.19","6516","János imád flüröközni, ezért sokat flüröklik. Ti ritkán...","0","flürököztök","[""flürököztök"",""flüröklötök""]","flürököztök","esp trial","7","true"
"html-button-response","50","396862","0.0-11.0-1.19","null","<p>A másik játékos ezt választotta: <b>flürököztök</b>.</p><p>&#x2705;</p><p>A te válaszod és a másik játékos válasza <b>megegyeznek</b>.</p>","null","","","","feedback trial","",""
"html-button-response-esp","51","407041","0.0-11.0-0.20","9667","János imád brülösözni, ezért sokat brülöslik. Mi ritkán...","0","brülösözünk","[""brülösözünk"",""brülöslünk""]","brülösözünk","esp trial","7","true"
"html-button-response","52","410551","0.0-11.0-1.20","null","<p>A másik játékos ezt választotta: <b>brülösözünk</b>.</p><p>&#x2705;</p><p>A te válaszod és a másik játékos válasza <b>megegyeznek</b>.</p>","null","","","","feedback trial","",""
"html-button-response-esp","53","416263","0.0-11.0-0.21","5195","János imád flűgözni, ezért sokat flűgzik. Mi ritkán...","1","flűgözünk","[""flűgzünk"",""flűgözünk""]","flűgözünk","esp trial","7","true"
"html-button-response","54","419791","0.0-11.0-1.21","null","<p>A másik játékos ezt választotta: <b>flűgözünk</b>.</p><p>&#x2705;</p><p>A te válaszod és a másik játékos válasza <b>megegyeznek</b>.</p>","null","","","","feedback trial","",""
"html-button-response-esp","55","429864","0.0-11.0-0.22","9569","János imád sprűrözni, ezért sokat sprűrlik. Ők ritkán...","0","sprűröznek","[""sprűröznek"",""sprűrlenek""]","sprűröznek","esp trial","7","true"
"html-button-response","56","433392","0.0-11.0-1.22","null","<p>A másik játékos ezt választotta: <b>sprűröznek</b>.</p><p>&#x2705;</p><p>A te válaszod és a másik játékos válasza <b>megegyeznek</b>.</p>","null","","","","feedback trial","",""
"html-button-response-esp","57","440176","0.0-11.0-0.23","6279","János imád püzözni, ezért sokat püzlik. Ti ritkán...","0","püzöztök","[""püzöztök"",""püzlötök""]","püzöztök","esp trial","7","true"
"html-button-response","58","443701","0.0-11.0-1.23","null","<p>A másik játékos ezt választotta: <b>püzöztök</b>.</p><p>&#x2705;</p><p>A te válaszod és a másik játékos válasza <b>megegyeznek</b>.</p>","null","","","","feedback trial","",""
"html-button-response-esp","59","456298","0.0-11.0-0.24","12082","János imád flemezni, ezért sokat flemlik. Mi ritkán...","0","flemezünk","[""flemezünk"",""flemlünk""]","flemezünk","esp trial","7","true"
"html-button-response","60","459821","0.0-11.0-1.24","null","<p>A másik játékos ezt választotta: <b>flemezünk</b>.</p><p>&#x2705;</p><p>A te válaszod és a másik játékos válasza <b>megegyeznek</b>.</p>","null","","","","feedback trial","",""
"html-button-response-esp","61","472790","0.0-11.0-0.25","12451","János imád frálapodni, ezért sokat frálapszik. Ti ritkán...","0","frálapodtok","[""frálapodtok"",""frálapszotok""]","frálapszotok","esp trial","7","false"
"html-button-response","62","476313","0.0-11.0-1.25","null","<p>A másik játékos ezt választotta: <b>frálapszotok</b>.</p><p>&#10060;</p><p>A válaszaitok <b>nem</b> egyeznek meg.</p>","null","","","","feedback trial","",""
"html-button-response-esp","63","487017","0.0-11.0-0.26","10183","János imád mágamozni, ezért sokat mágamlik. Mi ritkán...","1","mágamlunk","[""mágamozunk"",""mágamlunk""]","mágamlunk","esp trial","7","true"
"html-button-response","64","490531","0.0-11.0-1.26","null","<p>A másik játékos ezt választotta: <b>mágamlunk</b>.</p><p>&#x2705;</p><p>A te válaszod és a másik játékos válasza <b>megegyeznek</b>.</p>","null","","","","feedback trial","",""
"html-button-response-esp","65","499684","0.0-11.0-0.27","8644","János imád virozni, ezért sokat virzik. Ők ritkán...","1","viroznak","[""virzanak"",""viroznak""]","viroznak","esp trial","7","true"
"html-button-response","66","503210","0.0-11.0-1.27","null","<p>A másik játékos ezt választotta: <b>viroznak</b>.</p><p>&#x2705;</p><p>A te válaszod és a másik játékos válasza <b>megegyeznek</b>.</p>","null","","","","feedback trial","",""
"html-button-response-esp","67","508883","0.0-11.0-0.28","5159","János imád dujozni, ezért sokat dujzik. Ők ritkán...","1","dujzanak","[""dujoznak"",""dujzanak""]","dujoznak","esp trial","7","false"
"html-button-response","68","512411","0.0-11.0-1.28","null","<p>A másik játékos ezt választotta: <b>dujoznak</b>.</p><p>&#10060;</p><p>A válaszaitok <b>nem</b> egyeznek meg.</p>","null","","","","feedback trial","",""
"html-button-response-esp","69","523492","0.0-11.0-0.29","10568","János imád dirozni, ezért sokat dirlik. Ti ritkán...","0","dirlotok","[""dirlotok"",""diroztok""]","diroztok","esp trial","7","false"
"html-button-response","70","527015","0.0-11.0-1.29","null","<p>A másik játékos ezt választotta: <b>diroztok</b>.</p><p>&#10060;</p><p>A válaszaitok <b>nem</b> egyeznek meg.</p>","null","","","","feedback trial","",""
"html-button-response-esp","71","531778","0.0-11.0-0.30","4243","János imád gyihegezni, ezért sokat gyihegzik. Ti ritkán...","0","gyihegeztek","[""gyihegeztek"",""gyihegzetek""]","gyihegeztek","esp trial","7","true"
"html-button-response","72","535311","0.0-11.0-1.30","null","<p>A másik játékos ezt választotta: <b>gyihegeztek</b>.</p><p>&#x2705;</p><p>A te válaszod és a másik játékos válasza <b>megegyeznek</b>.</p>","null","","","","feedback trial","",""
"html-button-response-esp","73","542162","0.0-11.0-0.31","6337","János imád sprozozni, ezért sokat sprozlik. Ők ritkán...","1","sprozoznak","[""sprozlanak"",""sprozoznak""]","sprozoznak","esp trial","7","true"
"html-button-response","74","545678","0.0-11.0-1.31","null","<p>A másik játékos ezt választotta: <b>sprozoznak</b>.</p><p>&#x2705;</p><p>A te válaszod és a másik játékos válasza <b>megegyeznek</b>.</p>","null","","","","feedback trial","",""
"html-button-response-esp","75","552539","0.0-11.0-0.32","6348","János imád pragányozni, ezért sokat pragánylik. Ti ritkán...","1","pragányoztok","[""pragánylotok"",""pragányoztok""]","pragányoztok","esp trial","7","true"
"html-button-response","76","556058","0.0-11.0-1.32","null","<p>A másik játékos ezt választotta: <b>pragányoztok</b>.</p><p>&#x2705;</p><p>A te válaszod és a másik játékos válasza <b>megegyeznek</b>.</p>","null","","","","feedback trial","",""
"html-button-response-esp","77","563648","0.0-11.0-0.33","7069","János imád branyozni, ezért sokat branylik. Ők ritkán...","1","branyoznak","[""branylanak"",""branyoznak""]","branyoznak","esp trial","7","true"
"html-button-response","78","567172","0.0-11.0-1.33","null","<p>A másik játékos ezt választotta: <b>branyoznak</b>.</p><p>&#x2705;</p><p>A te válaszod és a másik játékos válasza <b>megegyeznek</b>.</p>","null","","","","feedback trial","",""
"html-button-response-esp","79","572982","0.0-11.0-0.34","5289","János imád köszözni, ezért sokat köszlik. Ti ritkán...","1","köszöztök","[""köszlötök"",""köszöztök""]","köszöztök","esp trial","7","true"
"html-button-response","80","576502","0.0-11.0-1.34","null","<p>A másik játékos ezt választotta: <b>köszöztök</b>.</p><p>&#x2705;</p><p>A te válaszod és a másik játékos válasza <b>megegyeznek</b>.</p>","null","","","","feedback trial","",""
"html-button-response-esp","81","583140","0.0-11.0-0.35","6131","János imád molodni, ezért sokat molszik. Ti ritkán...","1","molodtok","[""molszotok"",""molodtok""]","molszotok","esp trial","7","false"
"html-button-response","82","586658","0.0-11.0-1.35","null","<p>A másik játékos ezt választotta: <b>molszotok</b>.</p><p>&#10060;</p><p>A válaszaitok <b>nem</b> egyeznek meg.</p>","null","","","","feedback trial","",""
"html-button-response-esp","83","593453","0.0-11.0-0.36","6282","János imád spiharozni, ezért sokat spiharzik. Ti ritkán...","0","spiharoztok","[""spiharoztok"",""spiharzotok""]","spiharoztok","esp trial","7","true"
"html-button-response","84","596981","0.0-11.0-1.36","null","<p>A másik játékos ezt választotta: <b>spiharoztok</b>.</p><p>&#x2705;</p><p>A te válaszod és a másik játékos válasza <b>megegyeznek</b>.</p>","null","","","","feedback trial","",""
"html-button-response-esp","85","602391","0.0-11.0-0.37","4895","János imád prögözni, ezért sokat prögzik. Ti ritkán...","0","prögöztök","[""prögöztök"",""prögzötök""]","prögöztök","esp trial","7","true"
"html-button-response","86","605923","0.0-11.0-1.37","null","<p>A másik játékos ezt választotta: <b>prögöztök</b>.</p><p>&#x2705;</p><p>A te válaszod és a másik játékos válasza <b>megegyeznek</b>.</p>","null","","","","feedback trial","",""
"html-button-response-esp","87","612692","0.0-11.0-0.38","6256","János imád sprudozni, ezért sokat sprudlik. Mi ritkán...","0","sprudlunk","[""sprudlunk"",""sprudozunk""]","sprudozunk","esp trial","7","false"
"html-button-response","88","616235","0.0-11.0-1.38","null","<p>A másik játékos ezt választotta: <b>sprudozunk</b>.</p><p>&#10060;</p><p>A válaszaitok <b>nem</b> egyeznek meg.</p>","null","","","","feedback trial","",""
"html-button-response-esp","89","623737","0.0-11.0-0.39","6989","János imád gihejezni, ezért sokat gihejlik. Mi ritkán...","1","gihejezünk","[""gihejlünk"",""gihejezünk""]","gihejlünk","esp trial","7","false"
"html-button-response","90","627255","0.0-11.0-1.39","null","<p>A másik játékos ezt választotta: <b>gihejlünk</b>.</p><p>&#10060;</p><p>A válaszaitok <b>nem</b> egyeznek meg.</p>","null","","","","feedback trial","",""
"html-button-response-esp","91","633216","0.0-11.0-0.40","5446","János imád lájozni, ezért sokat lájzik. Ti ritkán...","1","lájzotok","[""lájoztok"",""lájzotok""]","lájzotok","esp trial","7","true"
"html-button-response","92","636746","0.0-11.0-1.40","null","<p>A másik játékos ezt választotta: <b>lájzotok</b>.</p><p>&#x2705;</p><p>A te válaszod és a másik játékos válasza <b>megegyeznek</b>.</p>","null","","","","feedback trial","",""
"html-button-response-esp","93","643299","0.0-11.0-0.41","6042","János imád brivakozni, ezért sokat brivaklik. Ti ritkán...","0","brivakoztok","[""brivakoztok"",""brivaklotok""]","brivakoztok","esp trial","7","true"
"html-button-response","94","646815","0.0-11.0-1.41","null","<p>A másik játékos ezt választotta: <b>brivakoztok</b>.</p><p>&#x2705;</p><p>A te válaszod és a másik játékos válasza <b>megegyeznek</b>.</p>","null","","","","feedback trial","",""
"html-button-response-esp","95","654366","0.0-11.0-0.42","7045","János imád trugokozni, ezért sokat trugoklik. Ők ritkán...","1","trugokoznak","[""trugoklanak"",""trugokoznak""]","trugokoznak","esp trial","7","true"
"html-button-response","96","657887","0.0-11.0-1.42","null","<p>A másik játékos ezt választotta: <b>trugokoznak</b>.</p><p>&#x2705;</p><p>A te válaszod és a másik játékos válasza <b>megegyeznek</b>.</p>","null","","","","feedback trial","",""
"html-button-response-esp","97","666170","0.0-11.0-0.43","7770","János imád csubozni, ezért sokat csubzik. Mi ritkán...","1","csubozunk","[""csubzunk"",""csubozunk""]","csubzunk","esp trial","7","false"
"html-button-response","98","669689","0.0-11.0-1.43","null","<p>A másik játékos ezt választotta: <b>csubzunk</b>.</p><p>&#10060;</p><p>A válaszaitok <b>nem</b> egyeznek meg.</p>","null","","","","feedback trial","",""
"html-button-response-esp","99","676271","0.0-11.0-0.44","6060","János imád drűrözni, ezért sokat drűrzik. Ők ritkán...","1","drűröznek","[""drűrzenek"",""drűröznek""]","drűröznek","esp trial","7","true"
"html-button-response","100","679791","0.0-11.0-1.44","null","<p>A másik játékos ezt választotta: <b>drűröznek</b>.</p><p>&#x2705;</p><p>A te válaszod és a másik játékos válasza <b>megegyeznek</b>.</p>","null","","","","feedback trial","",""
"html-button-response-esp","101","686489","0.0-11.0-0.45","6185","János imád spirágozni, ezért sokat spiráglik. Ti ritkán...","0","spiráglotok","[""spiráglotok"",""spirágoztok""]","spirágoztok","esp trial","7","false"
"html-button-response","102","690009","0.0-11.0-1.45","null","<p>A másik játékos ezt választotta: <b>spirágoztok</b>.</p><p>&#10060;</p><p>A válaszaitok <b>nem</b> egyeznek meg.</p>","null","","","","feedback trial","",""
"html-button-response-esp","103","697800","0.0-11.0-0.46","7278","János imád klehényezni, ezért sokat klehénylik. Ti ritkán...","0","klehényeztek","[""klehényeztek"",""klehényletek""]","klehényeztek","esp trial","7","true"
"html-button-response","104","701321","0.0-11.0-1.46","null","<p>A másik játékos ezt választotta: <b>klehényeztek</b>.</p><p>&#x2705;</p><p>A te válaszod és a másik játékos válasza <b>megegyeznek</b>.</p>","null","","","","feedback trial","",""
"html-button-response-esp","105","709168","0.0-11.0-0.47","7319","János imád nyivágozni, ezért sokat nyivágzik. Mi ritkán...","0","nyivágzunk","[""nyivágzunk"",""nyivágozunk""]","nyivágzunk","esp trial","7","true"
"html-button-response","106","712690","0.0-11.0-1.47","null","<p>A másik játékos ezt választotta: <b>nyivágzunk</b>.</p><p>&#x2705;</p><p>A te válaszod és a másik játékos válasza <b>megegyeznek</b>.</p>","null","","","","feedback trial","",""
"html-button-response-esp","107","723407","0.0-11.0-0.48","10204","János imád bratározni, ezért sokat bratárzik. Ők ritkán...","1","bratároznak","[""bratárzanak"",""bratároznak""]","bratároznak","esp trial","7","true"
"html-button-response","108","726934","0.0-11.0-1.48","null","<p>A másik játékos ezt választotta: <b>bratároznak</b>.</p><p>&#x2705;</p><p>A te válaszod és a másik játékos válasza <b>megegyeznek</b>.</p>","null","","","","feedback trial","",""
"html-button-response-esp","109","737618","0.0-11.0-0.49","10163","János imád prélemezni, ezért sokat prélemlik. Ők ritkán...","0","prélemlenek","[""prélemlenek"",""prélemeznek""]","prélemeznek","esp trial","7","false"
"html-button-response","110","741152","0.0-11.0-1.49","null","<p>A másik játékos ezt választotta: <b>prélemeznek</b>.</p><p>&#10060;</p><p>A válaszaitok <b>nem</b> egyeznek meg.</p>","null","","","","feedback trial","",""
"html-button-response-esp","111","752456","0.0-11.0-0.50","10790","János imád kűdözni, ezért sokat kűdlik. Ők ritkán...","1","kűdöznek","[""kűdlenek"",""kűdöznek""]","kűdlenek","esp trial","7","false"
"html-button-response","112","755985","0.0-11.0-1.50","null","<p>A másik játékos ezt választotta: <b>kűdlenek</b>.</p><p>&#10060;</p><p>A válaszaitok <b>nem</b> egyeznek meg.</p>","null","","","","feedback trial","",""
"html-button-response-esp","113","760727","0.0-11.0-0.51","4225","János imád trivakodni, ezért sokat trivakszik. Mi ritkán...","1","trivakszunk","[""trivakodunk"",""trivakszunk""]","trivakodunk","esp trial","7","false"
"html-button-response","114","764250","0.0-11.0-1.51","null","<p>A másik játékos ezt választotta: <b>trivakodunk</b>.</p><p>&#10060;</p><p>A válaszaitok <b>nem</b> egyeznek meg.</p>","null","","","","feedback trial","",""
"html-button-response-esp","115","768854","0.0-11.0-0.52","4084","János imád flöközni, ezért sokat flöklik. Ti ritkán...","0","flöklötök","[""flöklötök"",""flököztök""]","flököztök","esp trial","7","false"
"html-button-response","116","772388","0.0-11.0-1.52","null","<p>A másik játékos ezt választotta: <b>flököztök</b>.</p><p>&#10060;</p><p>A válaszaitok <b>nem</b> egyeznek meg.</p>","null","","","","feedback trial","",""
"html-button-response-esp","117","777506","0.0-11.0-0.53","4594","János imád dárakodni, ezért sokat dárakszik. Mi ritkán...","1","dárakszunk","[""dárakodunk"",""dárakszunk""]","dárakodunk","esp trial","7","false"
"html-button-response","118","781036","0.0-11.0-1.53","null","<p>A másik játékos ezt választotta: <b>dárakodunk</b>.</p><p>&#10060;</p><p>A válaszaitok <b>nem</b> egyeznek meg.</p>","null","","","","feedback trial","",""
"html-button-response","119","789355","0.0-12.0","7805","<p>A közös játék most véget ért.</p><p>Mielőtt eláruljuk a végső pontszámodat, arra kérlek, játszd a szóválasztós játékot néhány percig egyedül is.</p><p>A feladatod ugyanaz lesz, választani két lehetőség közül.</p><p>Most viszont egyedül kell döntened, hogy te melyiket választanád.</p>","0","","","","","",""
"html-button-response-clever","120","795114","0.0-13.0-0.0","5248","János imád gibemezni, ezért sokat gibemlik. Mi ritkán...","0","gibemlünk","[""gibemlünk"",""gibemezünk""]","","posttest trial","8",""
"html-button-response-clever","121","800346","0.0-13.0-0.1","4713","János imád frésezni, ezért sokat fréslik. Mi ritkán...","0","fréslünk","[""fréslünk"",""frésezünk""]","","posttest trial","8",""
"html-button-response-clever","122","805838","0.0-13.0-0.2","4981","János imád brivágozni, ezért sokat briváglik. Ők ritkán...","1","briváglanak","[""brivágoznak"",""briváglanak""]","","posttest trial","8",""
"html-button-response-clever","123","812665","0.0-13.0-0.3","6318","János imád fröjözni, ezért sokat fröjlik. Mi ritkán...","0","fröjözünk","[""fröjözünk"",""fröjlünk""]","","posttest trial","8",""
"html-button-response-clever","124","819305","0.0-13.0-0.4","6129","János imád brivepedni, ezért sokat brivepszik. Mi ritkán...","0","brivepszünk","[""brivepszünk"",""brivepedünk""]","","posttest trial","8",""
"html-button-response-clever","125","825714","0.0-13.0-0.5","5900","János imád bregezni, ezért sokat bregzik. Mi ritkán...","1","bregzünk","[""bregezünk"",""bregzünk""]","","posttest trial","8",""
"html-button-response-clever","126","834943","0.0-13.0-0.6","8717","János imád galározni, ezért sokat galárzik. Ők ritkán...","1","galároznak","[""galárzanak"",""galároznak""]","","posttest trial","8",""
"html-button-response-clever","127","844336","0.0-13.0-0.7","8876","János imád klarágozni, ezért sokat klarágzik. Ti ritkán...","0","klarágzotok","[""klarágzotok"",""klarágoztok""]","","posttest trial","8",""
"html-button-response-clever","128","851520","0.0-13.0-0.8","6672","János imád frihegezni, ezért sokat friheglik. Mi ritkán...","1","friheglünk","[""frihegezünk"",""friheglünk""]","","posttest trial","8",""
"html-button-response-clever","129","859687","0.0-13.0-0.9","7645","János imád sponyozni, ezért sokat sponylik. Ők ritkán...","1","sponyoznak","[""sponylanak"",""sponyoznak""]","","posttest trial","8",""
"html-button-response-clever","130","866537","0.0-13.0-0.10","6345","János imád filányozni, ezért sokat filánylik. Mi ritkán...","0","filánylunk","[""filánylunk"",""filányozunk""]","","posttest trial","8",""
"html-button-response-clever","131","871422","0.0-13.0-0.11","4366","János imád küsözni, ezért sokat küslik. Mi ritkán...","1","küslünk","[""küsözünk"",""küslünk""]","","posttest trial","8",""
"html-button-response-clever","132","880722","0.0-13.0-0.12","8789","János imád prazozni, ezért sokat prazlik. Mi ritkán...","1","prazlunk","[""prazozunk"",""prazlunk""]","","posttest trial","8",""
"html-button-response-clever","133","892315","0.0-13.0-0.13","11082","János imád pehégedni, ezért sokat pehégszik. Ti ritkán...","1","pehégszetek","[""pehégedtek"",""pehégszetek""]","","posttest trial","8",""
"html-button-response-clever","134","897906","0.0-13.0-0.14","5072","János imád spalározni, ezért sokat spalárzik. Ők ritkán...","0","spalároznak","[""spalároznak"",""spalárzanak""]","","posttest trial","8",""
"html-button-response-clever","135","903394","0.0-13.0-0.15","4976","János imád lumozni, ezért sokat lumlik. Ti ritkán...","0","lumlotok","[""lumlotok"",""lumoztok""]","","posttest trial","8",""
"html-button-response-clever","136","910422","0.0-13.0-0.16","6510","János imád brározni, ezért sokat brárlik. Ők ritkán...","1","brároznak","[""brárlanak"",""brároznak""]","","posttest trial","8",""
"html-button-response-clever","137","919704","0.0-13.0-0.17","8761","János imád brilegezni, ezért sokat brilegzik. Mi ritkán...","0","brilegzünk","[""brilegzünk"",""brilegezünk""]","","posttest trial","8",""
"html-button-response-clever","138","925658","0.0-13.0-0.18","5427","János imád trírozni, ezért sokat trírzik. Mi ritkán...","0","trírzunk","[""trírzunk"",""trírozunk""]","","posttest trial","8",""
"html-button-response-clever","139","930861","0.0-13.0-0.19","4684","János imád vobozni, ezért sokat vobzik. Ti ritkán...","0","voboztok","[""voboztok"",""vobzotok""]","","posttest trial","8",""
"html-button-response-clever","140","937710","0.0-13.0-0.20","6328","János imád mísozni, ezért sokat míslik. Mi ritkán...","1","míslunk","[""mísozunk"",""míslunk""]","","posttest trial","8",""
"html-button-response-clever","141","944463","0.0-13.0-0.21","6234","János imád sztritozni, ezért sokat sztritlik. Ők ritkán...","0","sztritlanak","[""sztritlanak"",""sztritoznak""]","","posttest trial","8",""
"html-button-response-clever","142","951190","0.0-13.0-0.22","6216","János imád sztrajozni, ezért sokat sztrajlik. Ők ritkán...","1","sztrajlanak","[""sztrajoznak"",""sztrajlanak""]","","posttest trial","8",""
"html-button-response-clever","143","958012","0.0-13.0-0.23","6304","János imád prilepedni, ezért sokat prilepszik. Mi ritkán...","1","prilepszünk","[""prilepedünk"",""prilepszünk""]","","posttest trial","8",""
"html-button-response-clever","144","969457","0.0-13.0-0.24","10926","János imád mihágozni, ezért sokat mihágzik. Ti ritkán...","1","mihágoztok","[""mihágzotok"",""mihágoztok""]","","posttest trial","8",""
"html-button-response-clever","145","976572","0.0-13.0-0.25","6595","János imád livényezni, ezért sokat livénylik. Mi ritkán...","0","livénylünk","[""livénylünk"",""livényezünk""]","","posttest trial","8",""
"html-button-response-clever","146","985519","0.0-13.0-0.26","8426","János imád nágapodni, ezért sokat nágapszik. Ők ritkán...","1","nágapszanak","[""nágapodnak"",""nágapszanak""]","","posttest trial","8",""
"html-button-response-clever","147","993074","0.0-13.0-0.27","7035","János imád drivegezni, ezért sokat drivegzik. Ti ritkán...","1","drivegeztek","[""drivegzetek"",""drivegeztek""]","","posttest trial","8",""
"html-button-response-clever","148","997213","0.0-13.0-0.28","3628","János imád flivegezni, ezért sokat flivegzik. Ők ritkán...","1","flivegeznek","[""flivegzenek"",""flivegeznek""]","","posttest trial","8",""
"html-button-response-clever","149","998689","0.0-13.0-0.29","970","János imád dirányozni, ezért sokat diránylik. Ők ritkán...","0","diránylanak","[""diránylanak"",""dirányoznak""]","","posttest trial","8",""
"html-button-response-clever","150","1003209","0.0-13.0-0.30","4010","János imád drojozni, ezért sokat drojzik. Mi ritkán...","1","drojzunk","[""drojozunk"",""drojzunk""]","","posttest trial","8",""
"html-button-response-clever","151","1006753","0.0-13.0-0.31","3029","János imád hákodni, ezért sokat hákszik. Ők ritkán...","1","hákszanak","[""hákodnak"",""hákszanak""]","","posttest trial","8",""
"html-button-response-clever","152","1009920","0.0-13.0-0.32","2647","János imád sprigozni, ezért sokat sprigzik. Ti ritkán...","0","sprigoztok","[""sprigoztok"",""sprigzotok""]","","posttest trial","8",""
"html-button-response-clever","153","1011949","0.0-13.0-0.33","1517","János imád flézezni, ezért sokat flézlik. Ti ritkán...","0","flézletek","[""flézletek"",""flézeztek""]","","posttest trial","8",""
"html-button-response-clever","154","1014508","0.0-13.0-0.34","2045","János imád tibarozni, ezért sokat tibarzik. Ők ritkán...","1","tibaroznak","[""tibarzanak"",""tibaroznak""]","","posttest trial","8",""
"html-button-response-clever","155","1016534","0.0-13.0-0.35","1516","János imád tágarozni, ezért sokat tágarzik. Mi ritkán...","0","tágarzunk","[""tágarzunk"",""tágarozunk""]","","posttest trial","8",""
"html-button-response-clever","156","1018405","0.0-13.0-0.36","1356","János imád spibamozni, ezért sokat spibamlik. Ők ritkán...","0","spibamoznak","[""spibamoznak"",""spibamlanak""]","","posttest trial","8",""
"html-button-response-clever","157","1020423","0.0-13.0-0.37","1506","János imád frivamozni, ezért sokat frivamlik. Mi ritkán...","0","frivamozunk","[""frivamozunk"",""frivamlunk""]","","posttest trial","8",""
"html-button-response-clever","158","1021774","0.0-13.0-0.38","839","János imád lírozni, ezért sokat lírlik. Ők ritkán...","0","lírlanak","[""lírlanak"",""líroznak""]","","posttest trial","8",""
"html-button-response-clever","159","1022709","0.0-13.0-0.39","423","János imád pekedni, ezért sokat pekszik. Mi ritkán...","0","pekszünk","[""pekszünk"",""pekedünk""]","","posttest trial","8",""
"html-button-response-clever","160","1026471","0.0-13.0-0.40","3255","János imád pörözni, ezért sokat pörzik. Ti ritkán...","1","pörzötök","[""pöröztök"",""pörzötök""]","","posttest trial","8",""
"html-button-response-clever","161","1029363","0.0-13.0-0.41","2370","János imád sprimozni, ezért sokat sprimlik. Mi ritkán...","1","sprimozunk","[""sprimlunk"",""sprimozunk""]","","posttest trial","8",""
"html-button-response-clever","162","1031243","0.0-13.0-0.42","1369","János imád flubokozni, ezért sokat fluboklik. Ti ritkán...","1","fluboklotok","[""flubokoztok"",""fluboklotok""]","","posttest trial","8",""
"html-button-response-clever","163","1033619","0.0-13.0-0.43","1848","János imád spöközni, ezért sokat spöklik. Mi ritkán...","0","spöklünk","[""spöklünk"",""spöközünk""]","","posttest trial","8",""
"html-button-response-clever","164","1035111","0.0-13.0-0.44","980","János imád kluzozni, ezért sokat kluzlik. Ti ritkán...","0","kluzoztok","[""kluzoztok"",""kluzlotok""]","","posttest trial","8",""
"html-button-response-clever","165","1036453","0.0-13.0-0.45","821","János imád gatágozni, ezért sokat gatáglik. Mi ritkán...","1","gatágozunk","[""gatáglunk"",""gatágozunk""]","","posttest trial","8",""
"html-button-response-clever","166","1037916","0.0-13.0-0.46","943","János imád tűgözni, ezért sokat tűgzik. Ti ritkán...","0","tűgöztök","[""tűgöztök"",""tűgzötök""]","","posttest trial","8",""
"html-button-response-clever","167","1039599","0.0-13.0-0.47","1171","János imád tribejezni, ezért sokat tribejlik. Ti ritkán...","1","tribejletek","[""tribejeztek"",""tribejletek""]","","posttest trial","8",""
"html-button-response-clever","168","1041969","0.0-13.0-0.48","1856","János imád trűnyözni, ezért sokat trűnylik. Ők ritkán...","0","trűnyöznek","[""trűnyöznek"",""trűnylenek""]","","posttest trial","8",""
"html-button-response-clever","169","1043865","0.0-13.0-0.49","1377","János imád míjozni, ezért sokat míjzik. Mi ritkán...","1","míjozunk","[""míjzunk"",""míjozunk""]","","posttest trial","8",""
"html-button-response-clever","170","1045320","0.0-13.0-0.50","943","János imád gyivepedni, ezért sokat gyivepszik. Ők ritkán...","0","gyivepednek","[""gyivepednek"",""gyivepszenek""]","","posttest trial","8",""
"html-button-response-clever","171","1046495","0.0-13.0-0.51","664","János imád brálamozni, ezért sokat brálamlik. Ők ritkán...","0","brálamlanak","[""brálamlanak"",""brálamoznak""]","","posttest trial","8",""
"html-button-response-clever","172","1048737","0.0-13.0-0.52","1731","János imád riványozni, ezért sokat riványlik. Ti ritkán...","0","riványlotok","[""riványlotok"",""riványoztok""]","","posttest trial","8",""
"html-button-response-clever","173","1050448","0.0-13.0-0.53","1191","János imád brüszözni, ezért sokat brüszlik. Ti ritkán...","1","brüszöztök","[""brüszlötök"",""brüszöztök""]","","posttest trial","8",""
"html-button-response","174","1056266","0.0-14.0","5306","<p> Vége a játéknak. A teljes pontszámod 32/54.</p><p> Szép munka! &#128526;&#128526;&#128526;</p><p>A Befejezés gomb megnyomása után bezárhatod a böngészőablakot.</p>","0","","","","","",""
"html-keyboard-response","175","1061778","0.0-15.0","null","<div class=""message"">
         <p>Egy kis türelmet kérünk, amíg elmentjük az adatokat...</p>
         </div>","null","","","","","",""
