"trial_type","trial_index","time_elapsed","internal_node_id","rt","stimulus","response","response_string","choices","esp_response","trial_kind","list_number","esp_match"
"pavlovia","0","665","0.0-0.0","","","","","","","","",""
"html-button-response","1","59012","0.0-1.0","57846","<p>Kedves Résztvevő! A Budapesti Műszaki és Gazdaságtudományi Egyetem Kognitív Tudományi Tanszékének kutatásában való részvételed kérjük. A kutatásban azt vizsgáljuk, hogy a magyar anyanyelvűek hogyan használnak bizonyos szóalakokat, és hogy milyen képük van arról, hogy mások hogyan használják, hogyan képzik a szavakat. Ez hozzásegít bennünket ahhoz, hogy jobban megértsük, hogyan dolgozza fel és tárolja a nyelvet az emberi agy, és hogyan működnek, hogyan változnak egy adott közösség nyelvi konvenciói.</p><p>A vizsgálat egy rövid számítógépes feladatból fog állni. A kutatásban való részvétel önkéntes, a részvételi szándék bármikor visszavonható. A résztvevők eredményeit név nélkül kezeljük, így nem beazonosíthatók az adatok feldolgozása során. Minden személyes adatot az EU általános adatvédelmi rendeletének (GDPR) megfelelően kezelünk és legfeljebb öt éven belül megsemmisítünk. A vizsgálat jellemzően húsz percet vesz igénybe.</p><p>Kutatásvezető:</p><p>Dr. Rácz Péter, tudományos munkatárs, BME KTT</p><p>e-mail: racz.peter.marton@ttk.bme.hu</p>","0","","","","","",""
"html-button-response","2","87601","0.0-2.0","28081","<p>A kísérletben szavakat fogsz látni. Ezek között lesznek olyanok, amelyeket ismersz, de előfordulhatnak olyanok is, amelyeket nem ismersz, sőt, vannak köztük kitalált szavak is. Minden szónál látni fogsz toldalékolt alakokat. A te feladatod az lesz, hogy minden szóhoz kiválaszd azt a toldalékolt alakot, amely a te számodra ismerősebben, természetesebben hangzik. Rossz válaszok nincsenek, mert van olyan, hogy különböző embereknek más és más szó tűnik jobb választásnak. A választ úgy tudod majd kiválasztani, ha rákattintasz.</p><p>Ebben a szóválasztós játékban egy másik játékossal együtt veszel majd részt. A másik játékos is minden esetben azok közül a lehetőségek közül válogathat, mint te. Kettőtök feladata az, hogy ugyanazt a lehetőséget válasszátok minden esetben. Ahhoz, hogy ez sikerüljön, neked figyelned kell arra, hogy a másik játékos milyen válaszokat ad, és ennek alapján meg kell tippelned, hogyan választ legközelebb. Ha eltalálod, akkor pontot kapsz.</p>","0","","","","","",""
"html-button-response","3","111168","0.0-3.0","23052","<p>Kérjük, olvasd el az alábbi nyilatkozatot, és amennyiben egyetértesz vele, nyomj a Beleegyezés gombra!</p><p>Kijelentem, hogy magyar anyanyelvű személyként önként veszek részt a BME KTT kísérletében. A kutatás céljával és folyamatával kapcsolatban elegendő tájékoztatást kaptam, lehetőségem volt kérdések feltételére, és esetleges kérdéseimre megfelelő válaszokat kaptam. A tájékoztatás alapján elegendő mennyiségű információ áll a rendelkezésemre, hogy eldönthessem, részt kívánok-e venni a kutatásban.</p><p>Tisztában vagyok vele, hogy részvételi szándékomat és adataimat bármikor, indoklás nélkül visszavonhatom.</p><p>Értem és tudomásul veszem, hogy a kutatás tudományos célokat szolgál, és az általam szolgáltatott adatokat a BME kizárólag kutatási célból használja fel. Tudomásul veszem, hogy eredményeimet a többi résztvevő eredményeivel együtt kezelik, így egyéni teljesítményemről visszajelzést, szakvéleményt nem kapok.</p><p>Megértettem, hogy adataim kezelését illetően a BME az EU általános adatvédelmi rendelete (GDPR), a hatályos adatvédelmi törvény és a nemzetközi kutatás-etikai alapelvek szerint jár el. Eredményeim anonim módon kerülnek feldolgozásra, és a kutatás résztvevői az azonosításomra alkalmas adataimat harmadik félnek nem szolgáltatják ki. Engedélyezem a BME számára a jelen kutatásban felvett adataim feldolgozását és tárolását, beleértve azok későbbi kutatásokhoz való felhasználását is. Személyes adataim kezelésével kapcsolatban tájékoztatást kérhetek a kutatás résztvevőitől, az adatkezelés ellen tiltakozhatok, kérhetem személyes adataim helyesbítését, törlését vagy zárolását, valamint jogorvoslatért a Nemzeti Adatvédelmi és Információszabadság Hatósághoz fordulhatok.</p><p>Kijelentem, hogy a kutatásban való részvételem körülményeiről részletes tájékoztatást kaptam, és a feltételeket elfogadom.</p>","0","","","","","",""
"survey-text","4","151657","0.0-4.0","39983","","{""Q0"":""GHCFI1"",""Q1"":""férfi"",""Q2"":""2001"",""Q3"":""14""}","","","","","",""
"html-button-response","5","167000","0.0-5.0","14829","<p>Ebben a játékban szavakat kell toldalékolni.</p> <p>Minden körben mutatunk majd egy példamondatot, amiben lesz egy szó.</p> <p>Alatta jön egy második mondat, ezt a mondatot neked kell majd befejezni, ugyanezzel a szóval.</p> <p>Nem biztos, hogy a szó eleve ismerős lesz számodra!</p> <p>Minden mondathoz adunk két lehetőséget, ezeket balra és jobbra látod majd.</p> <p>A játék kb. negyedóráig-húsz percig tart.</p>","0","","","","","",""
"html-button-response","6","177225","0.0-6.0","9710","<p>Nézzünk egy példát!</p> <p>A példamondat: ""János nagyon szeret rancsúrozni.""</p><p>Neked ezt a mondatot kell befejezned: ""Én is szívesen...""</p><p>A lehetőségek pedig ezek:</p>","0","","","","","",""
"html-button-response","7","185088","0.0-7.0","7346","<p>Nagyon jó.</p><p>Ezt a játékot nem egyedül fogod játszani, hanem egy másik játékossal.</p><p>Mielőtt továbblépünk, összekapcsolunk titeket egymással.</p><p>Ez igénybe vehet néhány másodpercet, amihez szíves türelmed kérjük.</p>","0","","","","","",""
"html-button-response","8","190823","0.0-8.0","null","<p>Csatlakozás a másik játékoshoz...</p>","null","","","","","",""
"html-button-response","9","193339","0.0-9.0","null","<p> Sikeres kapcsolódás!</p>","null","","","","","",""
"html-button-response","10","203861","0.0-10.0","null","<p>A következőkben ketten játsszátok a szóválasztós játékot.</p><p>A feladatotok az lesz, hogy minden körben <b>ugyanazt</b> a szót válasszátok.</p><p>Minden ilyen egyező válaszért pontot kaptok.</p><p>Próbáld meg kitalálni, mit választ a másik játékos!</p><p>Bármikor választhatsz, a körnek akkor van vége, ha mindketten döntöttetek.</p><p>Sok sikert!</p>","null","","","","","",""
"html-button-response-esp","11","212720","0.0-11.0-0.0","8343","Te bizony sokat drügzöl. Én is sokat...","0","drügzök","[""drügzök"",""drügzöm""]","drügzöm","esp trial","11","false"
"html-button-response","12","216223","0.0-11.0-1.0","null","<p>A másik játékos ezt választotta: <b>drügzöm</b>.</p><p>&#10060;</p><p>A válaszaitok <b>nem</b> egyeznek meg.</p>","null","","","","feedback trial","",""
"html-button-response-esp","13","223376","0.0-11.0-0.1","6649","Te bizony sokat brarlasz. Én is sokat...","1","brarlom","[""brarlok"",""brarlom""]","brarlok","esp trial","11","false"
"html-button-response","14","226884","0.0-11.0-1.1","null","<p>A másik játékos ezt választotta: <b>brarlok</b>.</p><p>&#10060;</p><p>A válaszaitok <b>nem</b> egyeznek meg.</p>","null","","","","feedback trial","",""
"html-button-response-esp","15","232352","0.0-11.0-0.2","4953","Te bizony sokat spibádzol. Én is sokat...","1","spibádzom","[""spibádzok"",""spibádzom""]","spibádzom","esp trial","11","true"
"html-button-response","16","235862","0.0-11.0-1.2","null","<p>A másik játékos ezt választotta: <b>spibádzom</b>.</p><p>&#x2705;</p><p>A te válaszod és a másik játékos válasza <b>megegyeznek</b>.</p>","null","","","","feedback trial","",""
"html-button-response-esp","17","241904","0.0-11.0-0.3","5526","Te bizony sokat péleslesz. Én is sokat...","0","péleslem","[""péleslem"",""péleslek""]","péleslem","esp trial","11","true"
"html-button-response","18","245409","0.0-11.0-1.3","null","<p>A másik játékos ezt választotta: <b>péleslem</b>.</p><p>&#x2705;</p><p>A te válaszod és a másik játékos válasza <b>megegyeznek</b>.</p>","null","","","","feedback trial","",""
"html-button-response-esp","19","250680","0.0-11.0-0.4","4758","Te bizony sokat gilárzol. Én is sokat...","1","gilárzom","[""gilárzok"",""gilárzom""]","gilárzom","esp trial","11","true"
"html-button-response","20","254188","0.0-11.0-1.4","null","<p>A másik játékos ezt választotta: <b>gilárzom</b>.</p><p>&#x2705;</p><p>A te válaszod és a másik játékos válasza <b>megegyeznek</b>.</p>","null","","","","feedback trial","",""
"html-button-response-esp","21","258936","0.0-11.0-0.5","4234","Te bizony sokat spülöklesz. Én is sokat...","0","spülöklöm","[""spülöklöm"",""spülöklök""]","spülöklöm","esp trial","11","true"
"html-button-response","22","262440","0.0-11.0-1.5","null","<p>A másik játékos ezt választotta: <b>spülöklöm</b>.</p><p>&#x2705;</p><p>A te válaszod és a másik játékos válasza <b>megegyeznek</b>.</p>","null","","","","feedback trial","",""
"html-button-response-esp","23","267583","0.0-11.0-0.6","4630","Te bizony sokat floglasz. Én is sokat...","0","floglom","[""floglom"",""floglok""]","floglom","esp trial","11","true"
"html-button-response","24","271100","0.0-11.0-1.6","null","<p>A másik játékos ezt választotta: <b>floglom</b>.</p><p>&#x2705;</p><p>A te válaszod és a másik játékos válasza <b>megegyeznek</b>.</p>","null","","","","feedback trial","",""
"html-button-response-esp","25","276071","0.0-11.0-0.7","4456","Te bizony sokat pugoslasz. Én is sokat...","0","pugoslom","[""pugoslom"",""pugoslok""]","pugoslok","esp trial","11","false"
"html-button-response","26","279573","0.0-11.0-1.7","null","<p>A másik játékos ezt választotta: <b>pugoslok</b>.</p><p>&#10060;</p><p>A válaszaitok <b>nem</b> egyeznek meg.</p>","null","","","","feedback trial","",""
"html-button-response-esp","27","285087","0.0-11.0-0.8","5003","Te bizony sokat prihekszel. Én is sokat...","0","prihekszem","[""prihekszem"",""prihekszek""]","prihekszem","esp trial","11","true"
"html-button-response","28","288590","0.0-11.0-1.8","null","<p>A másik játékos ezt választotta: <b>prihekszem</b>.</p><p>&#x2705;</p><p>A te válaszod és a másik játékos válasza <b>megegyeznek</b>.</p>","null","","","","feedback trial","",""
"html-button-response-esp","29","293215","0.0-11.0-0.9","3343","Te bizony sokat klárzol. Én is sokat...","1","klárzok","[""klárzom"",""klárzok""]","klárzom","esp trial","11","false"
"html-button-response","30","296720","0.0-11.0-1.9","null","<p>A másik játékos ezt választotta: <b>klárzom</b>.</p><p>&#10060;</p><p>A válaszaitok <b>nem</b> egyeznek meg.</p>","null","","","","feedback trial","",""
"html-button-response-esp","31","301344","0.0-11.0-0.10","3030","Te bizony sokat táklasz. Én is sokat...","0","táklom","[""táklom"",""táklok""]","táklom","esp trial","11","true"
"html-button-response","32","304864","0.0-11.0-1.10","null","<p>A másik játékos ezt választotta: <b>táklom</b>.</p><p>&#x2705;</p><p>A te válaszod és a másik játékos válasza <b>megegyeznek</b>.</p>","null","","","","feedback trial","",""
"html-button-response-esp","33","309760","0.0-11.0-0.11","4393","Te bizony sokat lihadzol. Én is sokat...","0","lihadzom","[""lihadzom"",""lihadzok""]","lihadzom","esp trial","11","true"
"html-button-response","34","313273","0.0-11.0-1.11","null","<p>A másik játékos ezt választotta: <b>lihadzom</b>.</p><p>&#x2705;</p><p>A te válaszod és a másik játékos válasza <b>megegyeznek</b>.</p>","null","","","","feedback trial","",""
"html-button-response-esp","35","317909","0.0-11.0-0.12","3669","Te bizony sokat féjzel. Én is sokat...","1","féjzem","[""féjzek"",""féjzem""]","féjzem","esp trial","11","true"
"html-button-response","36","321414","0.0-11.0-1.12","null","<p>A másik játékos ezt választotta: <b>féjzem</b>.</p><p>&#x2705;</p><p>A te válaszod és a másik játékos válasza <b>megegyeznek</b>.</p>","null","","","","feedback trial","",""
"html-button-response-esp","37","326054","0.0-11.0-0.13","3005","Te bizony sokat huklasz. Én is sokat...","0","huklom","[""huklom"",""huklok""]","huklom","esp trial","11","true"
"html-button-response","38","329572","0.0-11.0-1.13","null","<p>A másik játékos ezt választotta: <b>huklom</b>.</p><p>&#x2705;</p><p>A te válaszod és a másik játékos válasza <b>megegyeznek</b>.</p>","null","","","","feedback trial","",""
"html-button-response-esp","39","334205","0.0-11.0-0.14","2443","Te bizony sokat aglasz. Én is sokat...","0","aglom","[""aglom"",""aglok""]","aglom","esp trial","11","true"
"html-button-response","40","337736","0.0-11.0-1.14","null","<p>A másik játékos ezt választotta: <b>aglom</b>.</p><p>&#x2705;</p><p>A te válaszod és a másik játékos válasza <b>megegyeznek</b>.</p>","null","","","","feedback trial","",""
"html-button-response-esp","41","342361","0.0-11.0-0.15","3954","Te bizony sokat fliraklasz. Én is sokat...","1","fliraklom","[""fliraklok"",""fliraklom""]","fliraklom","esp trial","11","true"
"html-button-response","42","345871","0.0-11.0-1.15","null","<p>A másik játékos ezt választotta: <b>fliraklom</b>.</p><p>&#x2705;</p><p>A te válaszod és a másik játékos válasza <b>megegyeznek</b>.</p>","null","","","","feedback trial","",""
"html-button-response-esp","43","350501","0.0-11.0-0.16","2549","Te bizony sokat frivajlasz. Én is sokat...","0","frivajlom","[""frivajlom"",""frivajlok""]","frivajlok","esp trial","11","false"
"html-button-response","44","354021","0.0-11.0-1.16","null","<p>A másik játékos ezt választotta: <b>frivajlok</b>.</p><p>&#10060;</p><p>A válaszaitok <b>nem</b> egyeznek meg.</p>","null","","","","feedback trial","",""
"html-button-response-esp","45","358799","0.0-11.0-0.17","4262","Te bizony sokat livaklasz. Én is sokat...","0","livaklok","[""livaklok"",""livaklom""]","livaklom","esp trial","11","false"
"html-button-response","46","362321","0.0-11.0-1.17","null","<p>A másik játékos ezt választotta: <b>livaklom</b>.</p><p>&#10060;</p><p>A válaszaitok <b>nem</b> egyeznek meg.</p>","null","","","","feedback trial","",""
"html-button-response-esp","47","367646","0.0-11.0-0.18","4812","Te bizony sokat bivejlesz. Én is sokat...","1","bivejlek","[""bivejlem"",""bivejlek""]","bivejlek","esp trial","11","true"
"html-button-response","48","371162","0.0-11.0-1.18","null","<p>A másik játékos ezt választotta: <b>bivejlek</b>.</p><p>&#x2705;</p><p>A te válaszod és a másik játékos válasza <b>megegyeznek</b>.</p>","null","","","","feedback trial","",""
"html-button-response-esp","49","377015","0.0-11.0-0.19","5339","Te bizony sokat sprédlesz. Én is sokat...","0","sprédlek","[""sprédlek"",""sprédlem""]","sprédlek","esp trial","11","true"
"html-button-response","50","380533","0.0-11.0-1.19","null","<p>A másik játékos ezt választotta: <b>sprédlek</b>.</p><p>&#x2705;</p><p>A te válaszod és a másik játékos válasza <b>megegyeznek</b>.</p>","null","","","","feedback trial","",""
"html-button-response-esp","51","385807","0.0-11.0-0.20","4771","Te bizony sokat frágapszol. Én is sokat...","0","frágapszom","[""frágapszom"",""frágapszok""]","frágapszom","esp trial","11","true"
"html-button-response","52","389324","0.0-11.0-1.20","null","<p>A másik játékos ezt választotta: <b>frágapszom</b>.</p><p>&#x2705;</p><p>A te válaszod és a másik játékos válasza <b>megegyeznek</b>.</p>","null","","","","feedback trial","",""
"html-button-response-esp","53","393957","0.0-11.0-0.21","3490","Te bizony sokat sztruglasz. Én is sokat...","0","sztruglok","[""sztruglok"",""sztruglom""]","sztruglom","esp trial","11","false"
"html-button-response","54","397477","0.0-11.0-1.21","null","<p>A másik játékos ezt választotta: <b>sztruglom</b>.</p><p>&#10060;</p><p>A válaszaitok <b>nem</b> egyeznek meg.</p>","null","","","","feedback trial","",""
"html-button-response-esp","55","403126","0.0-11.0-0.22","5139","Te bizony sokat plövőrzöl. Én is sokat...","1","plövőrzöm","[""plövőrzök"",""plövőrzöm""]","plövőrzöm","esp trial","11","true"
"html-button-response","56","406635","0.0-11.0-1.22","null","<p>A másik játékos ezt választotta: <b>plövőrzöm</b>.</p><p>&#x2705;</p><p>A te válaszod és a másik játékos válasza <b>megegyeznek</b>.</p>","null","","","","feedback trial","",""
"html-button-response-esp","57","412286","0.0-11.0-0.23","5141","Te bizony sokat sprálszol. Én is sokat...","1","sprálszok","[""sprálszom"",""sprálszok""]","sprálszom","esp trial","11","false"
"html-button-response","58","415805","0.0-11.0-1.23","null","<p>A másik játékos ezt választotta: <b>sprálszom</b>.</p><p>&#10060;</p><p>A válaszaitok <b>nem</b> egyeznek meg.</p>","null","","","","feedback trial","",""
"html-button-response-esp","59","420443","0.0-11.0-0.24","4055","Te bizony sokat prohódzol. Én is sokat...","0","prohódzom","[""prohódzom"",""prohódzok""]","prohódzom","esp trial","11","true"
"html-button-response","60","423962","0.0-11.0-1.24","null","<p>A másik játékos ezt választotta: <b>prohódzom</b>.</p><p>&#x2705;</p><p>A te válaszod és a másik játékos válasza <b>megegyeznek</b>.</p>","null","","","","feedback trial","",""
"html-button-response-esp","61","429414","0.0-11.0-0.25","4939","Te bizony sokat friszlasz. Én is sokat...","1","friszlom","[""friszlok"",""friszlom""]","friszlom","esp trial","11","true"
"html-button-response","62","432937","0.0-11.0-1.25","null","<p>A másik játékos ezt választotta: <b>friszlom</b>.</p><p>&#x2705;</p><p>A te válaszod és a másik játékos válasza <b>megegyeznek</b>.</p>","null","","","","feedback trial","",""
"html-button-response-esp","63","437678","0.0-11.0-0.26","4240","Te bizony sokat spüszlesz. Én is sokat...","0","spüszlök","[""spüszlök"",""spüszlöm""]","spüszlöm","esp trial","11","false"
"html-button-response","64","441195","0.0-11.0-1.26","null","<p>A másik játékos ezt választotta: <b>spüszlöm</b>.</p><p>&#10060;</p><p>A válaszaitok <b>nem</b> egyeznek meg.</p>","null","","","","feedback trial","",""
"html-button-response-esp","65","445943","0.0-11.0-0.27","4232","Te bizony sokat flérlesz. Én is sokat...","0","flérlek","[""flérlek"",""flérlem""]","flérlek","esp trial","11","true"
"html-button-response","66","449474","0.0-11.0-1.27","null","<p>A másik játékos ezt választotta: <b>flérlek</b>.</p><p>&#x2705;</p><p>A te válaszod és a másik játékos válasza <b>megegyeznek</b>.</p>","null","","","","feedback trial","",""
"html-button-response-esp","67","454112","0.0-11.0-0.28","4018","Te bizony sokat préleglesz. Én is sokat...","0","préleglem","[""préleglem"",""préleglek""]","préleglem","esp trial","11","true"
"html-button-response","68","457633","0.0-11.0-1.28","null","<p>A másik játékos ezt választotta: <b>préleglem</b>.</p><p>&#x2705;</p><p>A te válaszod és a másik játékos válasza <b>megegyeznek</b>.</p>","null","","","","feedback trial","",""
"html-button-response-esp","69","462782","0.0-11.0-0.29","4635","Te bizony sokat gyivádzol. Én is sokat...","0","gyivádzok","[""gyivádzok"",""gyivádzom""]","gyivádzom","esp trial","11","false"
"html-button-response","70","466297","0.0-11.0-1.29","null","<p>A másik játékos ezt választotta: <b>gyivádzom</b>.</p><p>&#10060;</p><p>A válaszaitok <b>nem</b> egyeznek meg.</p>","null","","","","feedback trial","",""
"html-button-response-esp","71","470923","0.0-11.0-0.30","3921","Te bizony sokat vűjlesz. Én is sokat...","0","vűjlök","[""vűjlök"",""vűjlöm""]","vűjlök","esp trial","11","true"
"html-button-response","72","474442","0.0-11.0-1.30","null","<p>A másik játékos ezt választotta: <b>vűjlök</b>.</p><p>&#x2705;</p><p>A te válaszod és a másik játékos válasza <b>megegyeznek</b>.</p>","null","","","","feedback trial","",""
"html-button-response-esp","73","480382","0.0-11.0-0.31","5427","Te bizony sokat fivénylesz. Én is sokat...","0","fivénylek","[""fivénylek"",""fivénylem""]","fivénylem","esp trial","11","false"
"html-button-response","74","483884","0.0-11.0-1.31","null","<p>A másik játékos ezt választotta: <b>fivénylem</b>.</p><p>&#10060;</p><p>A válaszaitok <b>nem</b> egyeznek meg.</p>","null","","","","feedback trial","",""
"html-button-response-esp","75","488514","0.0-11.0-0.32","3062","Te bizony sokat trihagzol. Én is sokat...","1","trihagzom","[""trihagzok"",""trihagzom""]","trihagzom","esp trial","11","true"
"html-button-response","76","492026","0.0-11.0-1.32","null","<p>A másik játékos ezt választotta: <b>trihagzom</b>.</p><p>&#x2705;</p><p>A te válaszod és a másik játékos válasza <b>megegyeznek</b>.</p>","null","","","","feedback trial","",""
"html-button-response-esp","77","496653","0.0-11.0-0.33","3509","Te bizony sokat mékszel. Én is sokat...","0","mékszek","[""mékszek"",""mékszem""]","mékszem","esp trial","11","false"
"html-button-response","78","500160","0.0-11.0-1.33","null","<p>A másik játékos ezt választotta: <b>mékszem</b>.</p><p>&#10060;</p><p>A válaszaitok <b>nem</b> egyeznek meg.</p>","null","","","","feedback trial","",""
"html-button-response-esp","79","505614","0.0-11.0-0.34","4941","Te bizony sokat spélszel. Én is sokat...","0","spélszem","[""spélszem"",""spélszek""]","spélszem","esp trial","11","true"
"html-button-response","80","509128","0.0-11.0-1.34","null","<p>A másik játékos ezt választotta: <b>spélszem</b>.</p><p>&#x2705;</p><p>A te válaszod és a másik játékos válasza <b>megegyeznek</b>.</p>","null","","","","feedback trial","",""
"html-button-response-esp","81","514318","0.0-11.0-0.35","4677","Te bizony sokat szűslesz. Én is sokat...","0","szűslöm","[""szűslöm"",""szűslök""]","szűslök","esp trial","11","false"
"html-button-response","82","517826","0.0-11.0-1.35","null","<p>A másik játékos ezt választotta: <b>szűslök</b>.</p><p>&#10060;</p><p>A válaszaitok <b>nem</b> egyeznek meg.</p>","null","","","","feedback trial","",""
"html-button-response-esp","83","523086","0.0-11.0-0.36","4747","Te bizony sokat csólorzol. Én is sokat...","1","csólorzok","[""csólorzom"",""csólorzok""]","csólorzom","esp trial","11","false"
"html-button-response","84","526608","0.0-11.0-1.36","null","<p>A másik játékos ezt választotta: <b>csólorzom</b>.</p><p>&#10060;</p><p>A válaszaitok <b>nem</b> egyeznek meg.</p>","null","","","","feedback trial","",""
"html-button-response-esp","85","531244","0.0-11.0-0.37","3587","Te bizony sokat plágadzol. Én is sokat...","1","plágadzom","[""plágadzok"",""plágadzom""]","plágadzom","esp trial","11","true"
"html-button-response","86","534765","0.0-11.0-1.37","null","<p>A másik játékos ezt választotta: <b>plágadzom</b>.</p><p>&#x2705;</p><p>A te válaszod és a másik játékos válasza <b>megegyeznek</b>.</p>","null","","","","feedback trial","",""
"html-button-response-esp","87","539391","0.0-11.0-0.38","3822","Te bizony sokat zödlesz. Én is sokat...","1","zödlök","[""zödlöm"",""zödlök""]","zödlök","esp trial","11","true"
"html-button-response","88","542906","0.0-11.0-1.38","null","<p>A másik játékos ezt választotta: <b>zödlök</b>.</p><p>&#x2705;</p><p>A te válaszod és a másik játékos válasza <b>megegyeznek</b>.</p>","null","","","","feedback trial","",""
"html-button-response-esp","89","547528","0.0-11.0-0.39","3580","Te bizony sokat gyibakszol. Én is sokat...","0","gyibakszom","[""gyibakszom"",""gyibakszok""]","gyibakszom","esp trial","11","true"
"html-button-response","90","551045","0.0-11.0-1.39","null","<p>A másik játékos ezt választotta: <b>gyibakszom</b>.</p><p>&#x2705;</p><p>A te válaszod és a másik játékos válasza <b>megegyeznek</b>.</p>","null","","","","feedback trial","",""
"html-button-response-esp","91","555678","0.0-11.0-0.40","3954","Te bizony sokat fligzol. Én is sokat...","0","fligzok","[""fligzok"",""fligzom""]","fligzom","esp trial","11","false"
"html-button-response","92","559198","0.0-11.0-1.40","null","<p>A másik játékos ezt választotta: <b>fligzom</b>.</p><p>&#10060;</p><p>A válaszaitok <b>nem</b> egyeznek meg.</p>","null","","","","feedback trial","",""
"html-button-response-esp","93","563819","0.0-11.0-0.41","3582","Te bizony sokat flözlesz. Én is sokat...","0","flözlök","[""flözlök"",""flözlöm""]","flözlök","esp trial","11","true"
"html-button-response","94","567344","0.0-11.0-1.41","null","<p>A másik játékos ezt választotta: <b>flözlök</b>.</p><p>&#x2705;</p><p>A te válaszod és a másik játékos válasza <b>megegyeznek</b>.</p>","null","","","","feedback trial","",""
"html-button-response-esp","95","573973","0.0-11.0-0.42","6113","Te bizony sokat klidlasz. Én is sokat...","1","klidlom","[""klidlok"",""klidlom""]","klidlok","esp trial","11","false"
"html-button-response","96","577488","0.0-11.0-1.42","null","<p>A másik játékos ezt választotta: <b>klidlok</b>.</p><p>&#10060;</p><p>A válaszaitok <b>nem</b> egyeznek meg.</p>","null","","","","feedback trial","",""
"html-button-response-esp","97","582701","0.0-11.0-0.43","4696","Te bizony sokat spatszol. Én is sokat...","1","spatszok","[""spatszom"",""spatszok""]","spatszom","esp trial","11","false"
"html-button-response","98","586204","0.0-11.0-1.43","null","<p>A másik játékos ezt választotta: <b>spatszom</b>.</p><p>&#10060;</p><p>A válaszaitok <b>nem</b> egyeznek meg.</p>","null","","","","feedback trial","",""
"html-button-response-esp","99","590831","0.0-11.0-0.44","3781","Te bizony sokat spülőrzöl. Én is sokat...","0","spülőrzök","[""spülőrzök"",""spülőrzöm""]","spülőrzöm","esp trial","11","false"
"html-button-response","100","594346","0.0-11.0-1.44","null","<p>A másik játékos ezt választotta: <b>spülőrzöm</b>.</p><p>&#10060;</p><p>A válaszaitok <b>nem</b> egyeznek meg.</p>","null","","","","feedback trial","",""
"html-button-response-esp","101","598985","0.0-11.0-0.45","3224","Te bizony sokat vihepszel. Én is sokat...","1","vihepszem","[""vihepszek"",""vihepszem""]","vihepszem","esp trial","11","true"
"html-button-response","102","602511","0.0-11.0-1.45","null","<p>A másik játékos ezt választotta: <b>vihepszem</b>.</p><p>&#x2705;</p><p>A te válaszod és a másik játékos válasza <b>megegyeznek</b>.</p>","null","","","","feedback trial","",""
"html-button-response-esp","103","607133","0.0-11.0-0.46","3464","Te bizony sokat ibáglasz. Én is sokat...","1","ibáglok","[""ibáglom"",""ibáglok""]","ibáglom","esp trial","11","false"
"html-button-response","104","610664","0.0-11.0-1.46","null","<p>A másik játékos ezt választotta: <b>ibáglom</b>.</p><p>&#10060;</p><p>A válaszaitok <b>nem</b> egyeznek meg.</p>","null","","","","feedback trial","",""
"html-button-response-esp","105","615298","0.0-11.0-0.47","3604","Te bizony sokat gerénylesz. Én is sokat...","0","gerénylek","[""gerénylek"",""gerénylem""]","gerénylek","esp trial","11","true"
"html-button-response","106","618826","0.0-11.0-1.47","null","<p>A másik játékos ezt választotta: <b>gerénylek</b>.</p><p>&#x2705;</p><p>A te válaszod és a másik játékos válasza <b>megegyeznek</b>.</p>","null","","","","feedback trial","",""
"html-button-response-esp","107","623460","0.0-11.0-0.48","3394","Te bizony sokat praslasz. Én is sokat...","0","praslom","[""praslom"",""praslok""]","praslok","esp trial","11","false"
"html-button-response","108","626983","0.0-11.0-1.48","null","<p>A másik játékos ezt választotta: <b>praslok</b>.</p><p>&#10060;</p><p>A válaszaitok <b>nem</b> egyeznek meg.</p>","null","","","","feedback trial","",""
"html-button-response-esp","109","633164","0.0-11.0-0.49","5667","Te bizony sokat flibekszel. Én is sokat...","0","flibekszem","[""flibekszem"",""flibekszek""]","flibekszem","esp trial","11","true"
"html-button-response","110","636670","0.0-11.0-1.49","null","<p>A másik játékos ezt választotta: <b>flibekszem</b>.</p><p>&#x2705;</p><p>A te válaszod és a másik játékos válasza <b>megegyeznek</b>.</p>","null","","","","feedback trial","",""
"html-button-response-esp","111","642188","0.0-11.0-0.50","5010","Te bizony sokat spírzol. Én is sokat...","1","spírzok","[""spírzom"",""spírzok""]","spírzom","esp trial","11","false"
"html-button-response","112","645707","0.0-11.0-1.50","null","<p>A másik játékos ezt választotta: <b>spírzom</b>.</p><p>&#10060;</p><p>A válaszaitok <b>nem</b> egyeznek meg.</p>","null","","","","feedback trial","",""
"html-button-response-esp","113","650333","0.0-11.0-0.51","3798","Te bizony sokat kumlasz. Én is sokat...","1","kumlok","[""kumlom"",""kumlok""]","kumlok","esp trial","11","true"
"html-button-response","114","653851","0.0-11.0-1.51","null","<p>A másik játékos ezt választotta: <b>kumlok</b>.</p><p>&#x2705;</p><p>A te válaszod és a másik játékos válasza <b>megegyeznek</b>.</p>","null","","","","feedback trial","",""
"html-button-response-esp","115","658477","0.0-11.0-0.52","3902","Te bizony sokat tuboklasz. Én is sokat...","1","tuboklom","[""tuboklok"",""tuboklom""]","tuboklom","esp trial","11","true"
"html-button-response","116","661982","0.0-11.0-1.52","null","<p>A másik játékos ezt választotta: <b>tuboklom</b>.</p><p>&#x2705;</p><p>A te válaszod és a másik játékos válasza <b>megegyeznek</b>.</p>","null","","","","feedback trial","",""
"html-button-response-esp","117","666611","0.0-11.0-0.53","2750","Te bizony sokat prezlesz. Én is sokat...","1","prezlek","[""prezlem"",""prezlek""]","prezlek","esp trial","11","true"
"html-button-response","118","670140","0.0-11.0-1.53","null","<p>A másik játékos ezt választotta: <b>prezlek</b>.</p><p>&#x2705;</p><p>A te válaszod és a másik játékos válasza <b>megegyeznek</b>.</p>","null","","","","feedback trial","",""
"html-button-response","119","683061","0.0-12.0","12419","<p>A közös játék most véget ért.</p><p>Mielőtt eláruljuk a végső pontszámodat, arra kérlek, játszd a szóválasztós játékot néhány percig egyedül is.</p><p>A feladatod ugyanaz lesz, választani két lehetőség közül.</p><p>Most viszont egyedül kell döntened, hogy te melyiket választanád.</p>","0","","","","","",""
"html-button-response-clever","120","689292","0.0-13.0-0.0","5730","Te bizony sokat klörlesz. Én is sokat...","0","klörlök","[""klörlök"",""klörlöm""]","","posttest trial","1",""
"html-button-response-clever","121","694468","0.0-13.0-0.1","4661","Te bizony sokat sűzlesz. Én is sokat...","1","sűzlök","[""sűzlöm"",""sűzlök""]","","posttest trial","1",""
"html-button-response-clever","122","699900","0.0-13.0-0.2","4930","Te bizony sokat brágaklasz. Én is sokat...","0","brágaklok","[""brágaklok"",""brágaklom""]","","posttest trial","1",""
"html-button-response-clever","123","704956","0.0-13.0-0.3","4551","Te bizony sokat flagánylasz. Én is sokat...","0","flagánylok","[""flagánylok"",""flagánylom""]","","posttest trial","1",""
"html-button-response-clever","124","708772","0.0-13.0-0.4","3315","Te bizony sokat csíszlasz. Én is sokat...","0","csíszlom","[""csíszlom"",""csíszlok""]","","posttest trial","1",""
"html-button-response-clever","125","711980","0.0-13.0-0.5","2697","Te bizony sokat flagárzol. Én is sokat...","0","flagárzok","[""flagárzok"",""flagárzom""]","","posttest trial","1",""
"html-button-response-clever","126","715396","0.0-13.0-0.6","2900","Te bizony sokat siladzol. Én is sokat...","0","siladzom","[""siladzom"",""siladzok""]","","posttest trial","1",""
"html-button-response-clever","127","719068","0.0-13.0-0.7","3162","Te bizony sokat fibamlasz. Én is sokat...","1","fibamlok","[""fibamlom"",""fibamlok""]","","posttest trial","1",""
"html-button-response-clever","128","722796","0.0-13.0-0.8","3214","Te bizony sokat vilakszol. Én is sokat...","0","vilakszom","[""vilakszom"",""vilakszok""]","","posttest trial","1",""
"html-button-response-clever","129","728836","0.0-13.0-0.9","5539","Te bizony sokat drubódzol. Én is sokat...","1","drubódzok","[""drubódzom"",""drubódzok""]","","posttest trial","1",""
"html-button-response-clever","130","731484","0.0-13.0-0.10","2135","Te bizony sokat tomlasz. Én is sokat...","0","tomlok","[""tomlok"",""tomlom""]","","posttest trial","1",""
"html-button-response-clever","131","736076","0.0-13.0-0.11","4091","Te bizony sokat sprogzol. Én is sokat...","1","sprogzom","[""sprogzok"",""sprogzom""]","","posttest trial","1",""
"html-button-response-clever","132","740668","0.0-13.0-0.12","4085","Te bizony sokat trilszol. Én is sokat...","1","trilszok","[""trilszom"",""trilszok""]","","posttest trial","1",""
"html-button-response-clever","133","743268","0.0-13.0-0.13","2090","Te bizony sokat ribzol. Én is sokat...","0","ribzok","[""ribzok"",""ribzom""]","","posttest trial","1",""
"html-button-response-clever","134","748676","0.0-13.0-0.14","4902","Te bizony sokat jüslesz. Én is sokat...","0","jüslöm","[""jüslöm"",""jüslök""]","","posttest trial","1",""
"html-button-response-clever","135","755036","0.0-13.0-0.15","5848","Te bizony sokat prűrlesz. Én is sokat...","0","prűrlök","[""prűrlök"",""prűrlöm""]","","posttest trial","1",""
"html-button-response-clever","136","758740","0.0-13.0-0.16","3197","Te bizony sokat ribegzel. Én is sokat...","0","ribegzek","[""ribegzek"",""ribegzem""]","","posttest trial","1",""
"html-button-response-clever","137","762996","0.0-13.0-0.17","3747","Te bizony sokat pebzel. Én is sokat...","0","pebzek","[""pebzek"",""pebzem""]","","posttest trial","1",""
"html-button-response-clever","138","769268","0.0-13.0-0.18","5764","Te bizony sokat sztremlesz. Én is sokat...","1","sztremlek","[""sztremlem"",""sztremlek""]","","posttest trial","1",""
"html-button-response-clever","139","774300","0.0-13.0-0.19","4520","Te bizony sokat sprökszöl. Én is sokat...","0","sprökszök","[""sprökszök"",""sprökszöm""]","","posttest trial","1",""
"html-button-response-clever","140","778844","0.0-13.0-0.20","4043","Te bizony sokat spűmlesz. Én is sokat...","1","spűmlöm","[""spűmlök"",""spűmlöm""]","","posttest trial","1",""
"html-button-response-clever","141","782692","0.0-13.0-0.21","3346","Te bizony sokat flűröklesz. Én is sokat...","1","flűröklök","[""flűröklöm"",""flűröklök""]","","posttest trial","1",""
"html-button-response-clever","142","786476","0.0-13.0-0.22","3268","Te bizony sokat feténylesz. Én is sokat...","0","feténylek","[""feténylek"",""feténylem""]","","posttest trial","1",""
"html-button-response-clever","143","789763","0.0-13.0-0.23","2786","Te bizony sokat büglesz. Én is sokat...","1","büglök","[""büglöm"",""büglök""]","","posttest trial","1",""
"html-button-response-clever","144","795195","0.0-13.0-0.24","4922","Te bizony sokat pratánylasz. Én is sokat...","0","pratánylok","[""pratánylok"",""pratánylom""]","","posttest trial","1",""
"html-button-response-clever","145","799499","0.0-13.0-0.25","3802","Te bizony sokat klibamlasz. Én is sokat...","1","klibamlok","[""klibamlom"",""klibamlok""]","","posttest trial","1",""
"html-button-response-clever","146","802723","0.0-13.0-0.26","2723","Te bizony sokat sojzol. Én is sokat...","1","sojzom","[""sojzok"",""sojzom""]","","posttest trial","1",""
"html-button-response-clever","147","808667","0.0-13.0-0.27","5441","Te bizony sokat marzol. Én is sokat...","1","marzok","[""marzom"",""marzok""]","","posttest trial","1",""
"html-button-response-clever","148","814699","0.0-13.0-0.28","5528","Te bizony sokat hilarzol. Én is sokat...","1","hilarzom","[""hilarzok"",""hilarzom""]","","posttest trial","1",""
"html-button-response-clever","149","818547","0.0-13.0-0.29","3340","Te bizony sokat bölszöl. Én is sokat...","1","bölszök","[""bölszöm"",""bölszök""]","","posttest trial","1",""
"html-button-response-clever","150","822947","0.0-13.0-0.30","3893","Te bizony sokat juszlasz. Én is sokat...","0","juszlok","[""juszlok"",""juszlom""]","","posttest trial","1",""
"html-button-response-clever","151","827499","0.0-13.0-0.31","4049","Te bizony sokat szirlasz. Én is sokat...","1","szirlok","[""szirlom"",""szirlok""]","","posttest trial","1",""
"html-button-response-clever","152","831507","0.0-13.0-0.32","3506","Te bizony sokat prilegzel. Én is sokat...","0","prilegzem","[""prilegzem"",""prilegzek""]","","posttest trial","1",""
"html-button-response-clever","153","836323","0.0-13.0-0.33","4306","Te bizony sokat ruslasz. Én is sokat...","1","ruslok","[""ruslom"",""ruslok""]","","posttest trial","1",""
"html-button-response-clever","154","841683","0.0-13.0-0.34","4858","Te bizony sokat spatárzol. Én is sokat...","0","spatárzok","[""spatárzok"",""spatárzom""]","","posttest trial","1",""
"html-button-response-clever","155","848163","0.0-13.0-0.35","5967","Te bizony sokat flüröslesz. Én is sokat...","1","flüröslöm","[""flüröslök"",""flüröslöm""]","","posttest trial","1",""
"html-button-response-clever","156","852363","0.0-13.0-0.36","3698","Te bizony sokat spibaklasz. Én is sokat...","0","spibaklom","[""spibaklom"",""spibaklok""]","","posttest trial","1",""
"html-button-response-clever","157","856603","0.0-13.0-0.37","3725","Te bizony sokat spilágzol. Én is sokat...","1","spilágzom","[""spilágzok"",""spilágzom""]","","posttest trial","1",""
"html-button-response-clever","158","859611","0.0-13.0-0.38","2492","Te bizony sokat frilegszel. Én is sokat...","1","frilegszek","[""frilegszem"",""frilegszek""]","","posttest trial","1",""
"html-button-response-clever","159","863075","0.0-13.0-0.39","2952","Te bizony sokat böjzöl. Én is sokat...","0","böjzök","[""böjzök"",""böjzöm""]","","posttest trial","1",""
"html-button-response-clever","160","866907","0.0-13.0-0.40","3328","Te bizony sokat málapszol. Én is sokat...","0","málapszom","[""málapszom"",""málapszok""]","","posttest trial","1",""
"html-button-response-clever","161","870538","0.0-13.0-0.41","3123","Te bizony sokat narjárzol. Én is sokat...","1","narjárzok","[""narjárzom"",""narjárzok""]","","posttest trial","1",""
"html-button-response-clever","162","873051","0.0-13.0-0.42","1997","Te bizony sokat fretszel. Én is sokat...","1","fretszem","[""fretszek"",""fretszem""]","","posttest trial","1",""
"html-button-response-clever","163","876386","0.0-13.0-0.43","2832","Te bizony sokat lorjódzol. Én is sokat...","1","lorjódzom","[""lorjódzok"",""lorjódzom""]","","posttest trial","1",""
"html-button-response-clever","164","880834","0.0-13.0-0.44","3933","Te bizony sokat piragszol. Én is sokat...","0","piragszok","[""piragszok"",""piragszom""]","","posttest trial","1",""
"html-button-response-clever","165","885283","0.0-13.0-0.45","3932","Te bizony sokat herégszel. Én is sokat...","1","herégszem","[""herégszek"",""herégszem""]","","posttest trial","1",""
"html-button-response-clever","166","887635","0.0-13.0-0.46","1843","Te bizony sokat tínylasz. Én is sokat...","1","tínylok","[""tínylom"",""tínylok""]","","posttest trial","1",""
"html-button-response-clever","167","892698","0.0-13.0-0.47","4562","Te bizony sokat pivegszel. Én is sokat...","1","pivegszem","[""pivegszek"",""pivegszem""]","","posttest trial","1",""
"html-button-response-clever","168","895491","0.0-13.0-0.48","2283","Te bizony sokat spéslesz. Én is sokat...","1","spéslek","[""spéslem"",""spéslek""]","","posttest trial","1",""
"html-button-response-clever","169","899411","0.0-13.0-0.49","3409","Te bizony sokat driládzol. Én is sokat...","0","driládzok","[""driládzok"",""driládzom""]","","posttest trial","1",""
"html-button-response-clever","170","902850","0.0-13.0-0.50","2924","Te bizony sokat brüjlesz. Én is sokat...","0","brüjlök","[""brüjlök"",""brüjlöm""]","","posttest trial","1",""
"html-button-response-clever","171","906690","0.0-13.0-0.51","3338","Te bizony sokat femlesz. Én is sokat...","0","femlek","[""femlek"",""femlem""]","","posttest trial","1",""
"html-button-response-clever","172","908979","0.0-13.0-0.52","1787","Te bizony sokat nyáslasz. Én is sokat...","0","nyáslok","[""nyáslok"",""nyáslom""]","","posttest trial","1",""
"html-button-response-clever","173","912035","0.0-13.0-0.53","2555","Te bizony sokat tiregzel. Én is sokat...","0","tiregzem","[""tiregzem"",""tiregzek""]","","posttest trial","1",""
"html-button-response","174","967906","0.0-14.0","55366","<p> Vége a játéknak. A teljes pontszámod 33/54.</p><p> Szép munka! &#128526;&#128526;&#128526;</p><p>A Befejezés gomb megnyomása után bezárhatod a böngészőablakot.</p>","0","","","","","",""
"html-keyboard-response","175","973409","0.0-15.0","null","<div class=""message"">
         <p>Egy kis türelmet kérünk, amíg elmentjük az adatokat...</p>
         </div>","null","","","","","",""
