"trial_type","trial_index","time_elapsed","internal_node_id","rt","stimulus","response","response_string","choices","esp_response","trial_kind","list_number","esp_match"
"pavlovia","0","739","0.0-0.0","","","","","","","","",""
"html-button-response","1","33719","0.0-1.0","32472","<p>Kedves Résztvevő! A Budapesti Műszaki és Gazdaságtudományi Egyetem Kognitív Tudományi Tanszékének kutatásában való részvételed kérjük. A kutatásban azt vizsgáljuk, hogy a magyar anyanyelvűek hogyan használnak bizonyos szóalakokat, és hogy milyen képük van arról, hogy mások hogyan használják, hogyan képzik a szavakat. Ez hozzásegít bennünket ahhoz, hogy jobban megértsük, hogyan dolgozza fel és tárolja a nyelvet az emberi agy, és hogyan működnek, hogyan változnak egy adott közösség nyelvi konvenciói.</p><p>A vizsgálat egy rövid számítógépes feladatból fog állni. A kutatásban való részvétel önkéntes, a részvételi szándék bármikor visszavonható. A résztvevők eredményeit név nélkül kezeljük, így nem beazonosíthatók az adatok feldolgozása során. Minden személyes adatot az EU általános adatvédelmi rendeletének (GDPR) megfelelően kezelünk és legfeljebb öt éven belül megsemmisítünk. A vizsgálat jellemzően húsz percet vesz igénybe.</p><p>Kutatásvezető:</p><p>Dr. Rácz Péter, tudományos munkatárs, BME KTT</p><p>e-mail: racz.peter.marton@ttk.bme.hu</p>","0","","","","","",""
"html-button-response","2","94516","0.0-2.0","60280","<p>A kísérletben szavakat fogsz látni. Ezek között lesznek olyanok, amelyeket ismersz, de előfordulhatnak olyanok is, amelyeket nem ismersz, sőt, vannak köztük kitalált szavak is. Minden szónál látni fogsz toldalékolt alakokat. A te feladatod az lesz, hogy minden szóhoz kiválaszd azt a toldalékolt alakot, amely a te számodra ismerősebben, természetesebben hangzik. Rossz válaszok nincsenek, mert van olyan, hogy különböző embereknek más és más szó tűnik jobb választásnak. A választ úgy tudod majd kiválasztani, ha rákattintasz.</p><p>Ebben a szóválasztós játékban egy másik játékossal együtt veszel majd részt. A másik játékos is minden esetben azok közül a lehetőségek közül válogathat, mint te. Kettőtök feladata az, hogy ugyanazt a lehetőséget válasszátok minden esetben. Ahhoz, hogy ez sikerüljön, neked figyelned kell arra, hogy a másik játékos milyen válaszokat ad, és ennek alapján meg kell tippelned, hogyan választ legközelebb. Ha eltalálod, akkor pontot kapsz.</p>","0","","","","","",""
"html-button-response","3","114470","0.0-3.0","19449","<p>Kérjük, olvasd el az alábbi nyilatkozatot, és amennyiben egyetértesz vele, nyomj a Beleegyezés gombra!</p><p>Kijelentem, hogy magyar anyanyelvű személyként önként veszek részt a BME KTT kísérletében. A kutatás céljával és folyamatával kapcsolatban elegendő tájékoztatást kaptam, lehetőségem volt kérdések feltételére, és esetleges kérdéseimre megfelelő válaszokat kaptam. A tájékoztatás alapján elegendő mennyiségű információ áll a rendelkezésemre, hogy eldönthessem, részt kívánok-e venni a kutatásban.</p><p>Tisztában vagyok vele, hogy részvételi szándékomat és adataimat bármikor, indoklás nélkül visszavonhatom.</p><p>Értem és tudomásul veszem, hogy a kutatás tudományos célokat szolgál, és az általam szolgáltatott adatokat a BME kizárólag kutatási célból használja fel. Tudomásul veszem, hogy eredményeimet a többi résztvevő eredményeivel együtt kezelik, így egyéni teljesítményemről visszajelzést, szakvéleményt nem kapok.</p><p>Megértettem, hogy adataim kezelését illetően a BME az EU általános adatvédelmi rendelete (GDPR), a hatályos adatvédelmi törvény és a nemzetközi kutatás-etikai alapelvek szerint jár el. Eredményeim anonim módon kerülnek feldolgozásra, és a kutatás résztvevői az azonosításomra alkalmas adataimat harmadik félnek nem szolgáltatják ki. Engedélyezem a BME számára a jelen kutatásban felvett adataim feldolgozását és tárolását, beleértve azok későbbi kutatásokhoz való felhasználását is. Személyes adataim kezelésével kapcsolatban tájékoztatást kérhetek a kutatás résztvevőitől, az adatkezelés ellen tiltakozhatok, kérhetem személyes adataim helyesbítését, törlését vagy zárolását, valamint jogorvoslatért a Nemzeti Adatvédelmi és Információszabadság Hatósághoz fordulhatok.</p><p>Kijelentem, hogy a kutatásban való részvételem körülményeiről részletes tájékoztatást kaptam, és a feltételeket elfogadom.</p>","0","","","","","",""
"survey-text","4","138169","0.0-4.0","23176","","{""Q0"":""CF9BSM"",""Q1"":""nő"",""Q2"":""2002"",""Q3"":""14""}","","","","","",""
"html-button-response","5","157799","0.0-5.0","19122","<p>Ebben a játékban szavakat kell toldalékolni.</p> <p>Minden körben mutatunk majd egy példamondatot, amiben lesz egy szó.</p> <p>Alatta jön egy második mondat, ezt a mondatot neked kell majd befejezni, ugyanezzel a szóval.</p> <p>Nem biztos, hogy a szó eleve ismerős lesz számodra!</p> <p>Minden mondathoz adunk két lehetőséget, ezeket balra és jobbra látod majd.</p> <p>A játék kb. negyedóráig-húsz percig tart.</p>","0","","","","","",""
"html-button-response","6","184035","0.0-6.0","25729","<p>Nézzünk egy példát!</p> <p>A példamondat: ""János imád fláramolni, ezért sokat fláramlik. Mi ritkán...""</p><p>Neked ezt a mondatot kell befejezned: ""Ti ritkán...""</p><p>A lehetőségek pedig ezek:</p>","1","","","","","",""
"html-button-response","7","192644","0.0-7.0","8104","<p>Nagyon jó.</p><p>Ezt a játékot nem egyedül fogod játszani, hanem egy másik játékossal.</p><p>Mielőtt továbblépünk, összekapcsolunk titeket egymással.</p><p>Ez igénybe vehet néhány másodpercet, amihez szíves türelmed kérjük.</p>","0","","","","","",""
"html-button-response","8","198368","0.0-8.0","null","<p>Csatlakozás a másik játékoshoz...</p>","null","","","","","",""
"html-button-response","9","200887","0.0-9.0","null","<p> Sikeres kapcsolódás!</p>","null","","","","","",""
"html-button-response","10","211395","0.0-10.0","null","<p>A következőkben ketten játsszátok a szóválasztós játékot.</p><p>A feladatotok az lesz, hogy minden körben <b>ugyanazt</b> a szót válasszátok.</p><p>Minden ilyen egyező válaszért pontot kaptok.</p><p>Próbáld meg kitalálni, mit választ a másik játékos!</p><p>Bármikor választhatsz, a körnek akkor van vége, ha mindketten döntöttetek.</p><p>Sok sikert!</p>","null","","","","","",""
"html-button-response-esp","11","221859","0.0-11.0-0.0","9958","János imád kluzozni, ezért sokat kluzlik. Ti ritkán...","0","kluzlotok","[""kluzlotok"",""kluzoztok""]","kluzlotok","esp trial","10","true"
"html-button-response","12","225380","0.0-11.0-1.0","null","<p>A másik játékos ezt választotta: <b>kluzlotok</b>.</p><p>&#x2705;</p><p>A te válaszod és a másik játékos válasza <b>megegyeznek</b>.</p>","null","","","","feedback trial","",""
"html-button-response-esp","13","232792","0.0-11.0-0.1","6896","János imád spöközni, ezért sokat spöklik. Mi ritkán...","1","spöklünk","[""spöközünk"",""spöklünk""]","spöközünk","esp trial","10","false"
"html-button-response","14","236302","0.0-11.0-1.1","null","<p>A másik játékos ezt választotta: <b>spöközünk</b>.</p><p>&#10060;</p><p>A válaszaitok <b>nem</b> egyeznek meg.</p>","null","","","","feedback trial","",""
"html-button-response-esp","15","245085","0.0-11.0-0.2","8273","János imád riványozni, ezért sokat riványlik. Ti ritkán...","1","riványlotok","[""riványoztok"",""riványlotok""]","riványoztok","esp trial","10","false"
"html-button-response","16","248610","0.0-11.0-1.2","null","<p>A másik játékos ezt választotta: <b>riványoztok</b>.</p><p>&#10060;</p><p>A válaszaitok <b>nem</b> egyeznek meg.</p>","null","","","","feedback trial","",""
"html-button-response-esp","17","253294","0.0-11.0-0.3","4171","János imád bregezni, ezért sokat bregzik. Mi ritkán...","1","bregezünk","[""bregzünk"",""bregezünk""]","bregezünk","esp trial","10","true"
"html-button-response","18","256804","0.0-11.0-1.3","null","<p>A másik játékos ezt választotta: <b>bregezünk</b>.</p><p>&#x2705;</p><p>A te válaszod és a másik játékos válasza <b>megegyeznek</b>.</p>","null","","","","feedback trial","",""
"html-button-response-esp","19","262640","0.0-11.0-0.4","5329","János imád sztrajozni, ezért sokat sztrajlik. Ők ritkán...","0","sztrajoznak","[""sztrajoznak"",""sztrajlanak""]","sztrajoznak","esp trial","10","true"
"html-button-response","20","266149","0.0-11.0-1.4","null","<p>A másik játékos ezt választotta: <b>sztrajoznak</b>.</p><p>&#x2705;</p><p>A te válaszod és a másik játékos válasza <b>megegyeznek</b>.</p>","null","","","","feedback trial","",""
"html-button-response-esp","21","271756","0.0-11.0-0.5","5096","János imád brivágozni, ezért sokat briváglik. Ők ritkán...","1","brivágoznak","[""briváglanak"",""brivágoznak""]","briváglanak","esp trial","10","false"
"html-button-response","22","275276","0.0-11.0-1.5","null","<p>A másik játékos ezt választotta: <b>briváglanak</b>.</p><p>&#10060;</p><p>A válaszaitok <b>nem</b> egyeznek meg.</p>","null","","","","feedback trial","",""
"html-button-response-esp","23","281277","0.0-11.0-0.6","5484","János imád frivamozni, ezért sokat frivamlik. Mi ritkán...","1","frivamlunk","[""frivamozunk"",""frivamlunk""]","frivamozunk","esp trial","10","false"
"html-button-response","24","284805","0.0-11.0-1.6","null","<p>A másik játékos ezt választotta: <b>frivamozunk</b>.</p><p>&#10060;</p><p>A válaszaitok <b>nem</b> egyeznek meg.</p>","null","","","","feedback trial","",""
"html-button-response-esp","25","290639","0.0-11.0-0.7","5327","János imád tibarozni, ezért sokat tibarzik. Ők ritkán...","0","tibaroznak","[""tibaroznak"",""tibarzanak""]","tibaroznak","esp trial","10","true"
"html-button-response","26","294147","0.0-11.0-1.7","null","<p>A másik játékos ezt választotta: <b>tibaroznak</b>.</p><p>&#x2705;</p><p>A te válaszod és a másik játékos válasza <b>megegyeznek</b>.</p>","null","","","","feedback trial","",""
"html-button-response-esp","27","301006","0.0-11.0-0.8","6344","János imád klarágozni, ezért sokat klarágzik. Ti ritkán...","0","klarágzotok","[""klarágzotok"",""klarágoztok""]","klarágzotok","esp trial","10","true"
"html-button-response","28","304523","0.0-11.0-1.8","null","<p>A másik játékos ezt választotta: <b>klarágzotok</b>.</p><p>&#x2705;</p><p>A te válaszod és a másik játékos válasza <b>megegyeznek</b>.</p>","null","","","","feedback trial","",""
"html-button-response-esp","29","309140","0.0-11.0-0.9","4109","János imád küsözni, ezért sokat küslik. Mi ritkán...","0","küsözünk","[""küsözünk"",""küslünk""]","küsözünk","esp trial","10","true"
"html-button-response","30","312659","0.0-11.0-1.9","null","<p>A másik játékos ezt választotta: <b>küsözünk</b>.</p><p>&#x2705;</p><p>A te válaszod és a másik játékos válasza <b>megegyeznek</b>.</p>","null","","","","feedback trial","",""
"html-button-response-esp","31","317282","0.0-11.0-0.10","3440","János imád brivepedni, ezért sokat brivepszik. Mi ritkán...","0","brivepedünk","[""brivepedünk"",""brivepszünk""]","brivepedünk","esp trial","10","true"
"html-button-response","32","320797","0.0-11.0-1.10","null","<p>A másik játékos ezt választotta: <b>brivepedünk</b>.</p><p>&#x2705;</p><p>A te válaszod és a másik játékos válasza <b>megegyeznek</b>.</p>","null","","","","feedback trial","",""
"html-button-response-esp","33","326750","0.0-11.0-0.11","5449","János imád brározni, ezért sokat brárlik. Ők ritkán...","1","brároznak","[""brárlanak"",""brároznak""]","brároznak","esp trial","10","true"
"html-button-response","34","330254","0.0-11.0-1.11","null","<p>A másik játékos ezt választotta: <b>brároznak</b>.</p><p>&#x2705;</p><p>A te válaszod és a másik játékos válasza <b>megegyeznek</b>.</p>","null","","","","feedback trial","",""
"html-button-response-esp","35","334884","0.0-11.0-0.12","3529","János imád frésezni, ezért sokat fréslik. Mi ritkán...","1","frésezünk","[""fréslünk"",""frésezünk""]","frésezünk","esp trial","10","true"
"html-button-response","36","338395","0.0-11.0-1.12","null","<p>A másik játékos ezt választotta: <b>frésezünk</b>.</p><p>&#x2705;</p><p>A te válaszod és a másik játékos válasza <b>megegyeznek</b>.</p>","null","","","","feedback trial","",""
"html-button-response-esp","37","343782","0.0-11.0-0.13","4880","János imád brálamozni, ezért sokat brálamlik. Ők ritkán...","0","brálamoznak","[""brálamoznak"",""brálamlanak""]","brálamoznak","esp trial","10","true"
"html-button-response","38","347298","0.0-11.0-1.13","null","<p>A másik játékos ezt választotta: <b>brálamoznak</b>.</p><p>&#x2705;</p><p>A te válaszod és a másik játékos válasza <b>megegyeznek</b>.</p>","null","","","","feedback trial","",""
"html-button-response-esp","39","351921","0.0-11.0-0.14","3015","János imád brüszözni, ezért sokat brüszlik. Ti ritkán...","1","brüszlötök","[""brüszöztök"",""brüszlötök""]","brüszöztök","esp trial","10","false"
"html-button-response","40","355435","0.0-11.0-1.14","null","<p>A másik játékos ezt választotta: <b>brüszöztök</b>.</p><p>&#10060;</p><p>A válaszaitok <b>nem</b> egyeznek meg.</p>","null","","","","feedback trial","",""
"html-button-response-esp","41","361621","0.0-11.0-0.15","5670","János imád pehégedni, ezért sokat pehégszik. Ti ritkán...","1","pehégszetek","[""pehégedtek"",""pehégszetek""]","pehégedtek","esp trial","10","false"
"html-button-response","42","365139","0.0-11.0-1.15","null","<p>A másik játékos ezt választotta: <b>pehégedtek</b>.</p><p>&#10060;</p><p>A válaszaitok <b>nem</b> egyeznek meg.</p>","null","","","","feedback trial","",""
"html-button-response-esp","43","371069","0.0-11.0-0.16","5425","János imád livényezni, ezért sokat livénylik. Mi ritkán...","0","livénylünk","[""livénylünk"",""livényezünk""]","livényezünk","esp trial","10","false"
"html-button-response","44","374576","0.0-11.0-1.16","null","<p>A másik játékos ezt választotta: <b>livényezünk</b>.</p><p>&#10060;</p><p>A válaszaitok <b>nem</b> egyeznek meg.</p>","null","","","","feedback trial","",""
"html-button-response-esp","45","379623","0.0-11.0-0.17","4535","János imád trűnyözni, ezért sokat trűnylik. Ők ritkán...","0","trűnyöznek","[""trűnyöznek"",""trűnylenek""]","trűnyöznek","esp trial","10","true"
"html-button-response","46","383130","0.0-11.0-1.17","null","<p>A másik játékos ezt választotta: <b>trűnyöznek</b>.</p><p>&#x2705;</p><p>A te válaszod és a másik játékos válasza <b>megegyeznek</b>.</p>","null","","","","feedback trial","",""
"html-button-response-esp","47","389658","0.0-11.0-0.18","6017","János imád prilepedni, ezért sokat prilepszik. Mi ritkán...","0","prilepedünk","[""prilepedünk"",""prilepszünk""]","prilepedünk","esp trial","10","true"
"html-button-response","48","393184","0.0-11.0-1.18","null","<p>A másik játékos ezt választotta: <b>prilepedünk</b>.</p><p>&#x2705;</p><p>A te válaszod és a másik játékos válasza <b>megegyeznek</b>.</p>","null","","","","feedback trial","",""
"html-button-response-esp","49","399301","0.0-11.0-0.19","5613","János imád frihegezni, ezért sokat friheglik. Mi ritkán...","0","friheglünk","[""friheglünk"",""frihegezünk""]","frihegezünk","esp trial","10","false"
"html-button-response","50","402817","0.0-11.0-1.19","null","<p>A másik játékos ezt választotta: <b>frihegezünk</b>.</p><p>&#10060;</p><p>A válaszaitok <b>nem</b> egyeznek meg.</p>","null","","","","feedback trial","",""
"html-button-response-esp","51","409136","0.0-11.0-0.20","5804","János imád dirányozni, ezért sokat diránylik. Ők ritkán...","0","dirányoznak","[""dirányoznak"",""diránylanak""]","dirányoznak","esp trial","10","true"
"html-button-response","52","412657","0.0-11.0-1.20","null","<p>A másik játékos ezt választotta: <b>dirányoznak</b>.</p><p>&#x2705;</p><p>A te válaszod és a másik játékos válasza <b>megegyeznek</b>.</p>","null","","","","feedback trial","",""
"html-button-response-esp","53","420611","0.0-11.0-0.21","7439","János imád filányozni, ezért sokat filánylik. Mi ritkán...","1","filányozunk","[""filánylunk"",""filányozunk""]","filányozunk","esp trial","10","true"
"html-button-response","54","424121","0.0-11.0-1.21","null","<p>A másik játékos ezt választotta: <b>filányozunk</b>.</p><p>&#x2705;</p><p>A te válaszod és a másik játékos válasza <b>megegyeznek</b>.</p>","null","","","","feedback trial","",""
"html-button-response-esp","55","431380","0.0-11.0-0.22","6745","János imád flivegezni, ezért sokat flivegzik. Ők ritkán...","0","flivegzenek","[""flivegzenek"",""flivegeznek""]","flivegzenek","esp trial","10","true"
"html-button-response","56","434900","0.0-11.0-1.22","null","<p>A másik játékos ezt választotta: <b>flivegzenek</b>.</p><p>&#x2705;</p><p>A te válaszod és a másik játékos válasza <b>megegyeznek</b>.</p>","null","","","","feedback trial","",""
"html-button-response-esp","57","439526","0.0-11.0-0.23","4043","János imád lumozni, ezért sokat lumlik. Ti ritkán...","1","lumlotok","[""lumoztok"",""lumlotok""]","lumlotok","esp trial","10","true"
"html-button-response","58","443037","0.0-11.0-1.23","null","<p>A másik játékos ezt választotta: <b>lumlotok</b>.</p><p>&#x2705;</p><p>A te válaszod és a másik játékos válasza <b>megegyeznek</b>.</p>","null","","","","feedback trial","",""
"html-button-response-esp","59","450701","0.0-11.0-0.24","7153","János imád mísozni, ezért sokat míslik. Mi ritkán...","1","míslunk","[""mísozunk"",""míslunk""]","mísozunk","esp trial","10","false"
"html-button-response","60","454235","0.0-11.0-1.24","null","<p>A másik játékos ezt választotta: <b>mísozunk</b>.</p><p>&#10060;</p><p>A válaszaitok <b>nem</b> egyeznek meg.</p>","null","","","","feedback trial","",""
"html-button-response-esp","61","461194","0.0-11.0-0.25","6450","János imád sprigozni, ezért sokat sprigzik. Ti ritkán...","0","sprigoztok","[""sprigoztok"",""sprigzotok""]","sprigzotok","esp trial","10","false"
"html-button-response","62","464719","0.0-11.0-1.25","null","<p>A másik játékos ezt választotta: <b>sprigzotok</b>.</p><p>&#10060;</p><p>A válaszaitok <b>nem</b> egyeznek meg.</p>","null","","","","feedback trial","",""
"html-button-response-esp","63","472113","0.0-11.0-0.26","6891","János imád spalározni, ezért sokat spalárzik. Ők ritkán...","0","spalároznak","[""spalároznak"",""spalárzanak""]","spalároznak","esp trial","10","true"
"html-button-response","64","475636","0.0-11.0-1.26","null","<p>A másik játékos ezt választotta: <b>spalároznak</b>.</p><p>&#x2705;</p><p>A te válaszod és a másik játékos válasza <b>megegyeznek</b>.</p>","null","","","","feedback trial","",""
"html-button-response-esp","65","480267","0.0-11.0-0.27","2826","János imád tribejezni, ezért sokat tribejlik. Ti ritkán...","0","tribejletek","[""tribejletek"",""tribejeztek""]","tribejletek","esp trial","10","true"
"html-button-response","66","483790","0.0-11.0-1.27","null","<p>A másik játékos ezt választotta: <b>tribejletek</b>.</p><p>&#x2705;</p><p>A te válaszod és a másik játékos válasza <b>megegyeznek</b>.</p>","null","","","","feedback trial","",""
"html-button-response-esp","67","489657","0.0-11.0-0.28","5365","János imád galározni, ezért sokat galárzik. Ők ritkán...","1","galároznak","[""galárzanak"",""galároznak""]","galárzanak","esp trial","10","false"
"html-button-response","68","493180","0.0-11.0-1.28","null","<p>A másik játékos ezt választotta: <b>galárzanak</b>.</p><p>&#10060;</p><p>A válaszaitok <b>nem</b> egyeznek meg.</p>","null","","","","feedback trial","",""
"html-button-response-esp","69","497804","0.0-11.0-0.29","3860","János imád sponyozni, ezért sokat sponylik. Ők ritkán...","0","sponylanak","[""sponylanak"",""sponyoznak""]","sponyoznak","esp trial","10","false"
"html-button-response","70","501326","0.0-11.0-1.29","null","<p>A másik játékos ezt választotta: <b>sponyoznak</b>.</p><p>&#10060;</p><p>A válaszaitok <b>nem</b> egyeznek meg.</p>","null","","","","feedback trial","",""
"html-button-response-esp","71","508021","0.0-11.0-0.30","6191","János imád prazozni, ezért sokat prazlik. Mi ritkán...","1","prazlunk","[""prazozunk"",""prazlunk""]","prazozunk","esp trial","10","false"
"html-button-response","72","511538","0.0-11.0-1.30","null","<p>A másik játékos ezt választotta: <b>prazozunk</b>.</p><p>&#10060;</p><p>A válaszaitok <b>nem</b> egyeznek meg.</p>","null","","","","feedback trial","",""
"html-button-response-esp","73","517103","0.0-11.0-0.31","5049","János imád flubokozni, ezért sokat fluboklik. Ti ritkán...","1","fluboklotok","[""flubokoztok"",""fluboklotok""]","fluboklotok","esp trial","10","true"
"html-button-response","74","520614","0.0-11.0-1.31","null","<p>A másik játékos ezt választotta: <b>fluboklotok</b>.</p><p>&#x2705;</p><p>A te válaszod és a másik játékos válasza <b>megegyeznek</b>.</p>","null","","","","feedback trial","",""
"html-button-response-esp","75","526866","0.0-11.0-0.32","5742","János imád lírozni, ezért sokat lírlik. Ők ritkán...","1","lírlanak","[""líroznak"",""lírlanak""]","líroznak","esp trial","10","false"
"html-button-response","76","530386","0.0-11.0-1.32","null","<p>A másik játékos ezt választotta: <b>líroznak</b>.</p><p>&#10060;</p><p>A válaszaitok <b>nem</b> egyeznek meg.</p>","null","","","","feedback trial","",""
"html-button-response-esp","77","535530","0.0-11.0-0.33","4639","János imád sztritozni, ezért sokat sztritlik. Ők ritkán...","0","sztritlanak","[""sztritlanak"",""sztritoznak""]","sztritoznak","esp trial","10","false"
"html-button-response","78","539047","0.0-11.0-1.33","null","<p>A másik játékos ezt választotta: <b>sztritoznak</b>.</p><p>&#10060;</p><p>A válaszaitok <b>nem</b> egyeznek meg.</p>","null","","","","feedback trial","",""
"html-button-response-esp","79","543935","0.0-11.0-0.34","4383","János imád brilegezni, ezért sokat brilegzik. Mi ritkán...","0","brilegzünk","[""brilegzünk"",""brilegezünk""]","brilegezünk","esp trial","10","false"
"html-button-response","80","547447","0.0-11.0-1.34","null","<p>A másik játékos ezt választotta: <b>brilegezünk</b>.</p><p>&#10060;</p><p>A válaszaitok <b>nem</b> egyeznek meg.</p>","null","","","","feedback trial","",""
"html-button-response-esp","81","553665","0.0-11.0-0.35","5711","János imád pekedni, ezért sokat pekszik. Mi ritkán...","0","pekszünk","[""pekszünk"",""pekedünk""]","pekedünk","esp trial","10","false"
"html-button-response","82","557179","0.0-11.0-1.35","null","<p>A másik játékos ezt választotta: <b>pekedünk</b>.</p><p>&#10060;</p><p>A válaszaitok <b>nem</b> egyeznek meg.</p>","null","","","","feedback trial","",""
"html-button-response-esp","83","562346","0.0-11.0-0.36","4657","János imád nágapodni, ezért sokat nágapszik. Ők ritkán...","1","nágapszanak","[""nágapodnak"",""nágapszanak""]","nágapodnak","esp trial","10","false"
"html-button-response","84","565863","0.0-11.0-1.36","null","<p>A másik játékos ezt választotta: <b>nágapodnak</b>.</p><p>&#10060;</p><p>A válaszaitok <b>nem</b> egyeznek meg.</p>","null","","","","feedback trial","",""
"html-button-response-esp","85","572693","0.0-11.0-0.37","6321","János imád hákodni, ezért sokat hákszik. Ők ritkán...","0","hákodnak","[""hákodnak"",""hákszanak""]","hákodnak","esp trial","10","true"
"html-button-response","86","576209","0.0-11.0-1.37","null","<p>A másik játékos ezt választotta: <b>hákodnak</b>.</p><p>&#x2705;</p><p>A te válaszod és a másik játékos válasza <b>megegyeznek</b>.</p>","null","","","","feedback trial","",""
"html-button-response-esp","87","582754","0.0-11.0-0.38","6035","János imád gyivepedni, ezért sokat gyivepszik. Ők ritkán...","0","gyivepednek","[""gyivepednek"",""gyivepszenek""]","gyivepednek","esp trial","10","true"
"html-button-response","88","586277","0.0-11.0-1.38","null","<p>A másik játékos ezt választotta: <b>gyivepednek</b>.</p><p>&#x2705;</p><p>A te válaszod és a másik játékos válasza <b>megegyeznek</b>.</p>","null","","","","feedback trial","",""
"html-button-response-esp","89","592596","0.0-11.0-0.39","5810","János imád sprimozni, ezért sokat sprimlik. Mi ritkán...","1","sprimozunk","[""sprimlunk"",""sprimozunk""]","sprimozunk","esp trial","10","true"
"html-button-response","90","596118","0.0-11.0-1.39","null","<p>A másik játékos ezt választotta: <b>sprimozunk</b>.</p><p>&#x2705;</p><p>A te válaszod és a másik játékos válasza <b>megegyeznek</b>.</p>","null","","","","feedback trial","",""
"html-button-response-esp","91","601018","0.0-11.0-0.40","4389","János imád trírozni, ezért sokat trírzik. Mi ritkán...","1","trírozunk","[""trírzunk"",""trírozunk""]","trírozunk","esp trial","10","true"
"html-button-response","92","604545","0.0-11.0-1.40","null","<p>A másik játékos ezt választotta: <b>trírozunk</b>.</p><p>&#x2705;</p><p>A te válaszod és a másik játékos válasza <b>megegyeznek</b>.</p>","null","","","","feedback trial","",""
"html-button-response-esp","93","609179","0.0-11.0-0.41","3725","János imád gibemezni, ezért sokat gibemlik. Mi ritkán...","1","gibemezünk","[""gibemlünk"",""gibemezünk""]","gibemezünk","esp trial","10","true"
"html-button-response","94","612692","0.0-11.0-1.41","null","<p>A másik játékos ezt választotta: <b>gibemezünk</b>.</p><p>&#x2705;</p><p>A te válaszod és a másik játékos válasza <b>megegyeznek</b>.</p>","null","","","","feedback trial","",""
"html-button-response-esp","95","617847","0.0-11.0-0.42","4654","János imád vobozni, ezért sokat vobzik. Ti ritkán...","1","voboztok","[""vobzotok"",""voboztok""]","vobzotok","esp trial","10","false"
"html-button-response","96","621361","0.0-11.0-1.42","null","<p>A másik játékos ezt választotta: <b>vobzotok</b>.</p><p>&#10060;</p><p>A válaszaitok <b>nem</b> egyeznek meg.</p>","null","","","","feedback trial","",""
"html-button-response-esp","97","626900","0.0-11.0-0.43","5034","János imád míjozni, ezért sokat míjzik. Mi ritkán...","0","míjozunk","[""míjozunk"",""míjzunk""]","míjozunk","esp trial","10","true"
"html-button-response","98","630413","0.0-11.0-1.43","null","<p>A másik játékos ezt választotta: <b>míjozunk</b>.</p><p>&#x2705;</p><p>A te válaszod és a másik játékos válasza <b>megegyeznek</b>.</p>","null","","","","feedback trial","",""
"html-button-response-esp","99","635576","0.0-11.0-0.44","4659","János imád fröjözni, ezért sokat fröjlik. Mi ritkán...","0","fröjözünk","[""fröjözünk"",""fröjlünk""]","fröjözünk","esp trial","10","true"
"html-button-response","100","639102","0.0-11.0-1.44","null","<p>A másik játékos ezt választotta: <b>fröjözünk</b>.</p><p>&#x2705;</p><p>A te válaszod és a másik játékos válasza <b>megegyeznek</b>.</p>","null","","","","feedback trial","",""
"html-button-response-esp","101","643735","0.0-11.0-0.45","3541","János imád mihágozni, ezért sokat mihágzik. Ti ritkán...","1","mihágzotok","[""mihágoztok"",""mihágzotok""]","mihágzotok","esp trial","10","true"
"html-button-response","102","647258","0.0-11.0-1.45","null","<p>A másik játékos ezt választotta: <b>mihágzotok</b>.</p><p>&#x2705;</p><p>A te válaszod és a másik játékos válasza <b>megegyeznek</b>.</p>","null","","","","feedback trial","",""
"html-button-response-esp","103","651895","0.0-11.0-0.46","3667","János imád pörözni, ezért sokat pörzik. Ti ritkán...","1","pöröztök","[""pörzötök"",""pöröztök""]","pörzötök","esp trial","10","false"
"html-button-response","104","655422","0.0-11.0-1.46","null","<p>A másik játékos ezt választotta: <b>pörzötök</b>.</p><p>&#10060;</p><p>A válaszaitok <b>nem</b> egyeznek meg.</p>","null","","","","feedback trial","",""
"html-button-response-esp","105","661142","0.0-11.0-0.47","5215","János imád flézezni, ezért sokat flézlik. Ti ritkán...","0","flézeztek","[""flézeztek"",""flézletek""]","flézletek","esp trial","10","false"
"html-button-response","106","664657","0.0-11.0-1.47","null","<p>A másik játékos ezt választotta: <b>flézletek</b>.</p><p>&#10060;</p><p>A válaszaitok <b>nem</b> egyeznek meg.</p>","null","","","","feedback trial","",""
"html-button-response-esp","107","670574","0.0-11.0-0.48","5406","János imád tágarozni, ezért sokat tágarzik. Mi ritkán...","0","tágarzunk","[""tágarzunk"",""tágarozunk""]","tágarozunk","esp trial","10","false"
"html-button-response","108","674094","0.0-11.0-1.48","null","<p>A másik játékos ezt választotta: <b>tágarozunk</b>.</p><p>&#10060;</p><p>A válaszaitok <b>nem</b> egyeznek meg.</p>","null","","","","feedback trial","",""
"html-button-response-esp","109","680471","0.0-11.0-0.49","5861","János imád gatágozni, ezért sokat gatáglik. Mi ritkán...","0","gatágozunk","[""gatágozunk"",""gatáglunk""]","gatáglunk","esp trial","10","false"
"html-button-response","110","683995","0.0-11.0-1.49","null","<p>A másik játékos ezt választotta: <b>gatáglunk</b>.</p><p>&#10060;</p><p>A válaszaitok <b>nem</b> egyeznek meg.</p>","null","","","","feedback trial","",""
"html-button-response-esp","111","689834","0.0-11.0-0.50","5334","János imád spibamozni, ezért sokat spibamlik. Ők ritkán...","0","spibamlanak","[""spibamlanak"",""spibamoznak""]","spibamoznak","esp trial","10","false"
"html-button-response","112","693345","0.0-11.0-1.50","null","<p>A másik játékos ezt választotta: <b>spibamoznak</b>.</p><p>&#10060;</p><p>A válaszaitok <b>nem</b> egyeznek meg.</p>","null","","","","feedback trial","",""
"html-button-response-esp","113","697958","0.0-11.0-0.51","3611","János imád tűgözni, ezért sokat tűgzik. Ti ritkán...","0","tűgzötök","[""tűgzötök"",""tűgöztök""]","tűgöztök","esp trial","10","false"
"html-button-response","114","701470","0.0-11.0-1.51","null","<p>A másik játékos ezt választotta: <b>tűgöztök</b>.</p><p>&#10060;</p><p>A válaszaitok <b>nem</b> egyeznek meg.</p>","null","","","","feedback trial","",""
"html-button-response-esp","115","707421","0.0-11.0-0.52","5435","János imád drojozni, ezért sokat drojzik. Mi ritkán...","1","drojozunk","[""drojzunk"",""drojozunk""]","drojozunk","esp trial","10","true"
"html-button-response","116","710945","0.0-11.0-1.52","null","<p>A másik játékos ezt választotta: <b>drojozunk</b>.</p><p>&#x2705;</p><p>A te válaszod és a másik játékos válasza <b>megegyeznek</b>.</p>","null","","","","feedback trial","",""
"html-button-response-esp","117","717027","0.0-11.0-0.53","5569","János imád drivegezni, ezért sokat drivegzik. Ti ritkán...","0","drivegzetek","[""drivegzetek"",""drivegeztek""]","drivegzetek","esp trial","10","true"
"html-button-response","118","720544","0.0-11.0-1.53","null","<p>A másik játékos ezt választotta: <b>drivegzetek</b>.</p><p>&#x2705;</p><p>A te válaszod és a másik játékos válasza <b>megegyeznek</b>.</p>","null","","","","feedback trial","",""
"html-button-response","119","730919","0.0-12.0","9864","<p>A közös játék most véget ért.</p><p>Mielőtt eláruljuk a végső pontszámodat, arra kérlek, játszd a szóválasztós játékot néhány percig egyedül is.</p><p>A feladatod ugyanaz lesz, választani két lehetőség közül.</p><p>Most viszont egyedül kell döntened, hogy te melyiket választanád.</p>","0","","","","","",""
"html-button-response-clever","120","768627","0.0-13.0-0.0","37206","János imád prugorozni, ezért sokat prugorzik. Ti ritkán...","1","prugoroztok","[""prugorzotok"",""prugoroztok""]","","posttest trial","1",""
"html-button-response-clever","121","775103","0.0-13.0-0.1","5974","János imád bügözni, ezért sokat bügzik. Ők ritkán...","0","bügzenek","[""bügzenek"",""bügöznek""]","","posttest trial","1",""
"html-button-response-clever","122","780505","0.0-13.0-0.2","4898","János imád gihamozni, ezért sokat gihamlik. Ők ritkán...","0","gihamlanak","[""gihamlanak"",""gihamoznak""]","","posttest trial","1",""
"html-button-response-clever","123","786233","0.0-13.0-0.3","5211","János imád nyöbözni, ezért sokat nyöbzik. Ők ritkán...","1","nyöböznek","[""nyöbzenek"",""nyöböznek""]","","posttest trial","1",""
"html-button-response-clever","124","793568","0.0-13.0-0.4","6825","János imád kláragodni, ezért sokat kláragszik. Ti ritkán...","0","kláragodtok","[""kláragodtok"",""kláragszotok""]","","posttest trial","1",""
"html-button-response-clever","125","800939","0.0-13.0-0.5","6861","János imád flátozni, ezért sokat flátlik. Ti ritkán...","0","flátoztok","[""flátoztok"",""flátlotok""]","","posttest trial","1",""
"html-button-response-clever","126","806223","0.0-13.0-0.6","4767","János imád metégedni, ezért sokat metégszik. Ők ritkán...","0","metégszenek","[""metégszenek"",""metégednek""]","","posttest trial","1",""
"html-button-response-clever","127","811822","0.0-13.0-0.7","5084","János imád bribékedni, ezért sokat bribékszik. Ti ritkán...","1","bribékszetek","[""bribékedtek"",""bribékszetek""]","","posttest trial","1",""
"html-button-response-clever","128","817403","0.0-13.0-0.8","5077","János imád hiragozni, ezért sokat hiragzik. Ők ritkán...","0","hiragzanak","[""hiragzanak"",""hiragoznak""]","","posttest trial","1",""
"html-button-response-clever","129","823250","0.0-13.0-0.9","5348","János imád flugonyozni, ezért sokat flugonylik. Ők ritkán...","0","flugonylanak","[""flugonylanak"",""flugonyoznak""]","","posttest trial","1",""
"html-button-response-clever","130","828835","0.0-13.0-0.10","5081","János imád prihegedni, ezért sokat prihegszik. Ők ritkán...","0","prihegednek","[""prihegednek"",""prihegszenek""]","","posttest trial","1",""
"html-button-response-clever","131","834335","0.0-13.0-0.11","4995","János imád frélegezni, ezért sokat frélegzik. Mi ritkán...","1","frélegzünk","[""frélegezünk"",""frélegzünk""]","","posttest trial","1",""
"html-button-response-clever","132","845731","0.0-13.0-0.12","10892","János imád pibegezni, ezért sokat pibegzik. Ők ritkán...","0","pibegzenek","[""pibegzenek"",""pibegeznek""]","","posttest trial","1",""
"html-button-response-clever","133","871337","0.0-13.0-0.13","25089","János imád ribegedni, ezért sokat ribegszik. Ti ritkán...","0","ribegszetek","[""ribegszetek"",""ribegedtek""]","","posttest trial","1",""
"html-button-response-clever","134","875207","0.0-13.0-0.14","3361","János imád bresezni, ezért sokat breslik. Ők ritkán...","0","breslenek","[""breslenek"",""breseznek""]","","posttest trial","1",""
"html-button-response-clever","135","879084","0.0-13.0-0.15","3366","János imád jurozni, ezért sokat jurlik. Mi ritkán...","1","jurlunk","[""jurozunk"",""jurlunk""]","","posttest trial","1",""
"html-button-response-clever","136","884766","0.0-13.0-0.16","5163","János imád nivározni, ezért sokat nivárzik. Ti ritkán...","1","nivárzotok","[""nivároztok"",""nivárzotok""]","","posttest trial","1",""
"html-button-response-clever","137","899808","0.0-13.0-0.17","14534","János imád nyülöközni, ezért sokat nyülöklik. Ők ritkán...","1","nyülöklenek","[""nyülököznek"",""nyülöklenek""]","","posttest trial","1",""
"html-button-response-clever","138","904675","0.0-13.0-0.18","4362","János imád klihasozni, ezért sokat klihaslik. Ti ritkán...","0","klihaslotok","[""klihaslotok"",""klihasoztok""]","","posttest trial","1",""
"html-button-response-clever","139","916468","0.0-13.0-0.19","11290","János imád klégezni, ezért sokat kléglik. Mi ritkán...","0","kléglünk","[""kléglünk"",""klégezünk""]","","posttest trial","1",""
"html-button-response-clever","140","923220","0.0-13.0-0.20","6247","János imád sűjözni, ezért sokat sűjlik. Mi ritkán...","0","sűjlünk","[""sűjlünk"",""sűjözünk""]","","posttest trial","1",""
"html-button-response-clever","141","928653","0.0-13.0-0.21","4917","János imád tögözni, ezért sokat töglik. Ők ritkán...","0","töglenek","[""töglenek"",""tögöznek""]","","posttest trial","1",""
"html-button-response-clever","142","934687","0.0-13.0-0.22","5531","János imád trálakozni, ezért sokat trálaklik. Ők ritkán...","0","trálaklanak","[""trálaklanak"",""trálakoznak""]","","posttest trial","1",""
"html-button-response-clever","143","940877","0.0-13.0-0.23","5688","János imád trálodni, ezért sokat trálszik. Mi ritkán...","1","trálszunk","[""trálodunk"",""trálszunk""]","","posttest trial","1",""
"html-button-response-clever","144","947295","0.0-13.0-0.24","5908","János imád brürözni, ezért sokat brürzik. Ők ritkán...","0","brürzenek","[""brürzenek"",""brüröznek""]","","posttest trial","1",""
"html-button-response-clever","145","950342","0.0-13.0-0.25","2538","János imád vihapodni, ezért sokat vihapszik. Mi ritkán...","0","vihapszunk","[""vihapszunk"",""vihapodunk""]","","posttest trial","1",""
"html-button-response-clever","146","953886","0.0-13.0-0.26","3039","János imád vehékedni, ezért sokat vehékszik. Mi ritkán...","1","vehékszünk","[""vehékedünk"",""vehékszünk""]","","posttest trial","1",""
"html-button-response-clever","147","958290","0.0-13.0-0.27","3895","János imád frinyozni, ezért sokat frinylik. Mi ritkán...","1","frinylunk","[""frinyozunk"",""frinylunk""]","","posttest trial","1",""
"html-button-response-clever","148","961861","0.0-13.0-0.28","3062","János imád bötőrözni, ezért sokat bötőrzik. Mi ritkán...","0","bötőrzünk","[""bötőrzünk"",""bötőrözünk""]","","posttest trial","1",""
"html-button-response-clever","149","964314","0.0-13.0-0.29","1946","János imád trukodni, ezért sokat trukszik. Ti ritkán...","0","trukszotok","[""trukszotok"",""trukodtok""]","","posttest trial","1",""
"html-button-response-clever","150","967946","0.0-13.0-0.30","3123","János imád bribasozni, ezért sokat bribaslik. Ők ritkán...","0","bribaslanak","[""bribaslanak"",""bribasoznak""]","","posttest trial","1",""
"html-button-response-clever","151","997070","0.0-13.0-0.31","28614","János imád bejezni, ezért sokat bejzik. Mi ritkán...","0","bejzünk","[""bejzünk"",""bejezünk""]","","posttest trial","1",""
"html-button-response-clever","152","1000273","0.0-13.0-0.32","2700","János imád klűmözni, ezért sokat klűmlik. Ti ritkán...","0","klűmlötök","[""klűmlötök"",""klűmöztök""]","","posttest trial","1",""
"html-button-response-clever","153","1004047","0.0-13.0-0.33","3271","János imád nyizozni, ezért sokat nyizlik. Mi ritkán...","0","nyizlunk","[""nyizlunk"",""nyizozunk""]","","posttest trial","1",""
"html-button-response-clever","154","1008502","0.0-13.0-0.34","3944","János imád dibágozni, ezért sokat dibáglik. Ti ritkán...","1","dibáglotok","[""dibágoztok"",""dibáglotok""]","","posttest trial","1",""
"html-button-response-clever","155","1011553","0.0-13.0-0.35","2540","János imád flerékedni, ezért sokat flerékszik. Mi ritkán...","0","flerékszünk","[""flerékszünk"",""flerékedünk""]","","posttest trial","1",""
"html-button-response-clever","156","1023252","0.0-13.0-0.36","11182","János imád brűközni, ezért sokat brűklik. Ti ritkán...","0","brűklötök","[""brűklötök"",""brűköztök""]","","posttest trial","1",""
"html-button-response-clever","157","1031382","0.0-13.0-0.37","7621","János imád frirozni, ezért sokat frirzik. Mi ritkán...","0","frirozunk","[""frirozunk"",""frirzunk""]","","posttest trial","1",""
"html-button-response-clever","158","1036243","0.0-13.0-0.38","4344","János imád dralágozni, ezért sokat dralágzik. Mi ritkán...","0","dralágzunk","[""dralágzunk"",""dralágozunk""]","","posttest trial","1",""
"html-button-response-clever","159","1043478","0.0-13.0-0.39","6726","János imád nyádozni, ezért sokat nyádlik. Ők ritkán...","1","nyádlanak","[""nyádoznak"",""nyádlanak""]","","posttest trial","1",""
"html-button-response-clever","160","1051030","0.0-13.0-0.40","7050","János imád sprebezni, ezért sokat sprebzik. Ők ritkán...","0","sprebzenek","[""sprebzenek"",""sprebeznek""]","","posttest trial","1",""
"html-button-response-clever","161","1056430","0.0-13.0-0.41","4896","János imád plibozni, ezért sokat plibzik. Ti ritkán...","1","plibzotok","[""pliboztok"",""plibzotok""]","","posttest trial","1",""
"html-button-response-clever","162","1065429","0.0-13.0-0.42","8488","János imád hubonyozni, ezért sokat hubonylik. Ti ritkán...","0","hubonyoztok","[""hubonyoztok"",""hubonylotok""]","","posttest trial","1",""
"html-button-response-clever","163","1074893","0.0-13.0-0.43","8958","János imád játozni, ezért sokat játlik. Mi ritkán...","1","játlunk","[""játozunk"",""játlunk""]","","posttest trial","1",""
"html-button-response-clever","164","1078746","0.0-13.0-0.44","3342","János imád döjözni, ezért sokat döjlik. Ők ritkán...","0","döjlenek","[""döjlenek"",""döjöznek""]","","posttest trial","1",""
"html-button-response-clever","165","1083685","0.0-13.0-0.45","4437","János imád vilesezni, ezért sokat vileslik. Mi ritkán...","0","vileslünk","[""vileslünk"",""vilesezünk""]","","posttest trial","1",""
"html-button-response-clever","166","1086233","0.0-13.0-0.46","2034","János imád géregezni, ezért sokat géreglik. Ti ritkán...","0","géregletek","[""géregletek"",""géregeztek""]","","posttest trial","1",""
"html-button-response-clever","167","1088716","0.0-13.0-0.47","1974","János imád trilekedni, ezért sokat trilekszik. Ti ritkán...","0","trilekszetek","[""trilekszetek"",""trilekedtek""]","","posttest trial","1",""
"html-button-response-clever","168","1092352","0.0-13.0-0.48","3128","János imád spuborozni, ezért sokat spuborzik. Ők ritkán...","1","spuborzanak","[""spuboroznak"",""spuborzanak""]","","posttest trial","1",""
"html-button-response-clever","169","1096109","0.0-13.0-0.49","3245","János imád spivejezni, ezért sokat spivejlik. Ők ritkán...","1","spivejlenek","[""spivejeznek"",""spivejlenek""]","","posttest trial","1",""
"html-button-response-clever","170","1098612","0.0-13.0-0.50","2000","János imád frorozni, ezért sokat frorlik. Ők ritkán...","1","frorlanak","[""froroznak"",""frorlanak""]","","posttest trial","1",""
"html-button-response-clever","171","1101095","0.0-13.0-0.51","1970","János imád sztredezni, ezért sokat sztredlik. Ti ritkán...","0","sztredletek","[""sztredletek"",""sztredeztek""]","","posttest trial","1",""
"html-button-response-clever","172","1103648","0.0-13.0-0.52","2045","János imád nurokozni, ezért sokat nuroklik. Mi ritkán...","0","nuroklunk","[""nuroklunk"",""nurokozunk""]","","posttest trial","1",""
"html-button-response-clever","173","1105707","0.0-13.0-0.53","1549","János imád flodozni, ezért sokat flodlik. Ti ritkán...","0","flodlotok","[""flodlotok"",""flodoztok""]","","posttest trial","1",""
"html-button-response","174","1111091","0.0-14.0","4873","<p> Vége a játéknak. A teljes pontszámod 29/54.</p><p> Szép munka! &#128526;&#128526;&#128526;</p><p>A Befejezés gomb megnyomása után bezárhatod a böngészőablakot.</p>","0","","","","","",""
"html-keyboard-response","175","1116608","0.0-15.0","null","<div class=""message"">
         <p>Egy kis türelmet kérünk, amíg elmentjük az adatokat...</p>
         </div>","null","","","","","",""
