"trial_type","trial_index","time_elapsed","internal_node_id","rt","stimulus","response","response_string","choices","esp_response","trial_kind","list_number","esp_match"
"pavlovia","0","704","0.0-0.0","","","","","","","","",""
"html-button-response","1","54573","0.0-1.0","53365","<p>Kedves Résztvevő! A Budapesti Műszaki és Gazdaságtudományi Egyetem Kognitív Tudományi Tanszékének kutatásában való részvételed kérjük. A kutatásban azt vizsgáljuk, hogy a magyar anyanyelvűek hogyan használnak bizonyos szóalakokat, és hogy milyen képük van arról, hogy mások hogyan használják, hogyan képzik a szavakat. Ez hozzásegít bennünket ahhoz, hogy jobban megértsük, hogyan dolgozza fel és tárolja a nyelvet az emberi agy, és hogyan működnek, hogyan változnak egy adott közösség nyelvi konvenciói.</p><p>A vizsgálat egy rövid számítógépes feladatból fog állni. A kutatásban való részvétel önkéntes, a részvételi szándék bármikor visszavonható. A résztvevők eredményeit név nélkül kezeljük, így nem beazonosíthatók az adatok feldolgozása során. Minden személyes adatot az EU általános adatvédelmi rendeletének (GDPR) megfelelően kezelünk és legfeljebb öt éven belül megsemmisítünk. A vizsgálat jellemzően húsz percet vesz igénybe.</p><p>Kutatásvezető:</p><p>Dr. Rácz Péter, tudományos munkatárs, BME KTT</p><p>e-mail: racz.peter.marton@ttk.bme.hu</p>","0","","","","","",""
"html-button-response","2","111129","0.0-2.0","56051","<p>A kísérletben szavakat fogsz látni. Ezek között lesznek olyanok, amelyeket ismersz, de előfordulhatnak olyanok is, amelyeket nem ismersz, sőt, vannak köztük kitalált szavak is. Minden szónál látni fogsz toldalékolt alakokat. A te feladatod az lesz, hogy minden szóhoz kiválaszd azt a toldalékolt alakot, amely a te számodra ismerősebben, természetesebben hangzik. Rossz válaszok nincsenek, mert van olyan, hogy különböző embereknek más és más szó tűnik jobb választásnak. A választ úgy tudod majd kiválasztani, ha rákattintasz.</p><p>Ebben a szóválasztós játékban egy másik játékossal együtt veszel majd részt. A másik játékos is minden esetben azok közül a lehetőségek közül válogathat, mint te. Kettőtök feladata az, hogy ugyanazt a lehetőséget válasszátok minden esetben. Ahhoz, hogy ez sikerüljön, neked figyelned kell arra, hogy a másik játékos milyen válaszokat ad, és ennek alapján meg kell tippelned, hogyan választ legközelebb. Ha eltalálod, akkor pontot kapsz.</p>","0","","","","","",""
"html-button-response","3","190695","0.0-3.0","79052","<p>Kérjük, olvasd el az alábbi nyilatkozatot, és amennyiben egyetértesz vele, nyomj a Beleegyezés gombra!</p><p>Kijelentem, hogy magyar anyanyelvű személyként önként veszek részt a BME KTT kísérletében. A kutatás céljával és folyamatával kapcsolatban elegendő tájékoztatást kaptam, lehetőségem volt kérdések feltételére, és esetleges kérdéseimre megfelelő válaszokat kaptam. A tájékoztatás alapján elegendő mennyiségű információ áll a rendelkezésemre, hogy eldönthessem, részt kívánok-e venni a kutatásban.</p><p>Tisztában vagyok vele, hogy részvételi szándékomat és adataimat bármikor, indoklás nélkül visszavonhatom.</p><p>Értem és tudomásul veszem, hogy a kutatás tudományos célokat szolgál, és az általam szolgáltatott adatokat a BME kizárólag kutatási célból használja fel. Tudomásul veszem, hogy eredményeimet a többi résztvevő eredményeivel együtt kezelik, így egyéni teljesítményemről visszajelzést, szakvéleményt nem kapok.</p><p>Megértettem, hogy adataim kezelését illetően a BME az EU általános adatvédelmi rendelete (GDPR), a hatályos adatvédelmi törvény és a nemzetközi kutatás-etikai alapelvek szerint jár el. Eredményeim anonim módon kerülnek feldolgozásra, és a kutatás résztvevői az azonosításomra alkalmas adataimat harmadik félnek nem szolgáltatják ki. Engedélyezem a BME számára a jelen kutatásban felvett adataim feldolgozását és tárolását, beleértve azok későbbi kutatásokhoz való felhasználását is. Személyes adataim kezelésével kapcsolatban tájékoztatást kérhetek a kutatás résztvevőitől, az adatkezelés ellen tiltakozhatok, kérhetem személyes adataim helyesbítését, törlését vagy zárolását, valamint jogorvoslatért a Nemzeti Adatvédelmi és Információszabadság Hatósághoz fordulhatok.</p><p>Kijelentem, hogy a kutatásban való részvételem körülményeiről részletes tájékoztatást kaptam, és a feltételeket elfogadom.</p>","0","","","","","",""
"survey-text","4","248027","0.0-4.0","56819","","{""Q0"":""waqmq9"",""Q1"":""férfi"",""Q2"":""2001"",""Q3"":""14,5 ""}","","","","","",""
"html-button-response","5","274956","0.0-5.0","26416","<p>Ebben a játékban szavakat kell toldalékolni.</p> <p>Minden körben mutatunk majd egy példamondatot, amiben lesz egy szó.</p> <p>Alatta jön egy második mondat, ezt a mondatot neked kell majd befejezni, ugyanezzel a szóval.</p> <p>Nem biztos, hogy a szó eleve ismerős lesz számodra!</p> <p>Minden mondathoz adunk két lehetőséget, ezeket balra és jobbra látod majd.</p> <p>A játék kb. negyedóráig-húsz percig tart.</p>","0","","","","","",""
"html-button-response","6","310642","0.0-6.0","35179","<p>Nézzünk egy példát!</p> <p>A példamondat: ""János imád fláramolni, ezért sokat fláramlik. Mi ritkán...""</p><p>Neked ezt a mondatot kell befejezned: ""Ti ritkán...""</p><p>A lehetőségek pedig ezek:</p>","0","","","","","",""
"html-button-response","7","320794","0.0-7.0","9641","<p>Nagyon jó.</p><p>Ezt a játékot nem egyedül fogod játszani, hanem egy másik játékossal.</p><p>Mielőtt továbblépünk, összekapcsolunk titeket egymással.</p><p>Ez igénybe vehet néhány másodpercet, amihez szíves türelmed kérjük.</p>","0","","","","","",""
"html-button-response","8","326530","0.0-8.0","null","<p>Csatlakozás a másik játékoshoz...</p>","null","","","","","",""
"html-button-response","9","329045","0.0-9.0","null","<p> Sikeres kapcsolódás!</p>","null","","","","","",""
"html-button-response","10","339566","0.0-10.0","null","<p>A következőkben ketten játsszátok a szóválasztós játékot.</p><p>A feladatotok az lesz, hogy minden körben <b>ugyanazt</b> a szót válasszátok.</p><p>Minden ilyen egyező válaszért pontot kaptok.</p><p>Próbáld meg kitalálni, mit választ a másik játékos!</p><p>Bármikor választhatsz, a körnek akkor van vége, ha mindketten döntöttetek.</p><p>Sok sikert!</p>","null","","","","","",""
"html-button-response-esp","11","351970","0.0-11.0-0.0","11889","János imád brözözni, ezért sokat brözlik. Ti ritkán...","0","brözöztök","[""brözöztök"",""brözlötök""]","brözöztök","esp trial","6","true"
"html-button-response","12","355496","0.0-11.0-1.0","null","<p>A másik játékos ezt választotta: <b>brözöztök</b>.</p><p>&#x2705;</p><p>A te válaszod és a másik játékos válasza <b>megegyeznek</b>.</p>","null","","","","feedback trial","",""
"html-button-response-esp","13","365053","0.0-11.0-0.1","9045","János imád dabozni, ezért sokat dabzik. Ti ritkán...","1","dabzotok","[""daboztok"",""dabzotok""]","daboztok","esp trial","6","false"
"html-button-response","14","368566","0.0-11.0-1.1","null","<p>A másik játékos ezt választotta: <b>daboztok</b>.</p><p>&#10060;</p><p>A válaszaitok <b>nem</b> egyeznek meg.</p>","null","","","","feedback trial","",""
"html-button-response-esp","15","379953","0.0-11.0-0.2","10876","János imád frálasozni, ezért sokat frálaslik. Ők ritkán...","0","frálasoznak","[""frálasoznak"",""frálaslanak""]","frálasoznak","esp trial","6","true"
"html-button-response","16","383475","0.0-11.0-1.2","null","<p>A másik játékos ezt választotta: <b>frálasoznak</b>.</p><p>&#x2705;</p><p>A te válaszod és a másik játékos válasza <b>megegyeznek</b>.</p>","null","","","","feedback trial","",""
"html-button-response-esp","17","391821","0.0-11.0-0.3","7830","János imád privékedni, ezért sokat privékszik. Ők ritkán...","1","privékszenek","[""privékednek"",""privékszenek""]","privékednek","esp trial","6","false"
"html-button-response","18","395336","0.0-11.0-1.3","null","<p>A másik játékos ezt választotta: <b>privékednek</b>.</p><p>&#10060;</p><p>A válaszaitok <b>nem</b> egyeznek meg.</p>","null","","","","feedback trial","",""
"html-button-response-esp","19","414615","0.0-11.0-0.4","18765","János imád prélemezni, ezért sokat prélemlik. Ők ritkán...","1","prélemlenek","[""prélemeznek"",""prélemlenek""]","prélemeznek","esp trial","6","false"
"html-button-response","20","418142","0.0-11.0-1.4","null","<p>A másik játékos ezt választotta: <b>prélemeznek</b>.</p><p>&#10060;</p><p>A válaszaitok <b>nem</b> egyeznek meg.</p>","null","","","","feedback trial","",""
"html-button-response-esp","21","424549","0.0-11.0-0.5","5903","János imád csubozni, ezért sokat csubzik. Mi ritkán...","1","csubzunk","[""csubozunk"",""csubzunk""]","csubozunk","esp trial","6","false"
"html-button-response","22","428070","0.0-11.0-1.5","null","<p>A másik játékos ezt választotta: <b>csubozunk</b>.</p><p>&#10060;</p><p>A válaszaitok <b>nem</b> egyeznek meg.</p>","null","","","","feedback trial","",""
"html-button-response-esp","23","434567","0.0-11.0-0.6","5988","János imád kűdözni, ezért sokat kűdlik. Ők ritkán...","0","kűdöznek","[""kűdöznek"",""kűdlenek""]","kűdöznek","esp trial","6","true"
"html-button-response","24","438085","0.0-11.0-1.6","null","<p>A másik játékos ezt választotta: <b>kűdöznek</b>.</p><p>&#x2705;</p><p>A te válaszod és a másik játékos válasza <b>megegyeznek</b>.</p>","null","","","","feedback trial","",""
"html-button-response-esp","25","443509","0.0-11.0-0.7","4907","János imád dilakozni, ezért sokat dilaklik. Ti ritkán...","0","dilaklotok","[""dilaklotok"",""dilakoztok""]","dilaklotok","esp trial","6","true"
"html-button-response","26","447017","0.0-11.0-1.7","null","<p>A másik játékos ezt választotta: <b>dilaklotok</b>.</p><p>&#x2705;</p><p>A te válaszod és a másik játékos válasza <b>megegyeznek</b>.</p>","null","","","","feedback trial","",""
"html-button-response-esp","27","452487","0.0-11.0-0.8","4956","János imád gihejezni, ezért sokat gihejlik. Mi ritkán...","0","gihejlünk","[""gihejlünk"",""gihejezünk""]","gihejezünk","esp trial","6","false"
"html-button-response","28","456012","0.0-11.0-1.8","null","<p>A másik játékos ezt választotta: <b>gihejezünk</b>.</p><p>&#10060;</p><p>A válaszaitok <b>nem</b> egyeznek meg.</p>","null","","","","feedback trial","",""
"html-button-response-esp","29","465138","0.0-11.0-0.9","8610","János imád sprudozni, ezért sokat sprudlik. Mi ritkán...","0","sprudlunk","[""sprudlunk"",""sprudozunk""]","sprudlunk","esp trial","6","true"
"html-button-response","30","468661","0.0-11.0-1.9","null","<p>A másik játékos ezt választotta: <b>sprudlunk</b>.</p><p>&#x2705;</p><p>A te válaszod és a másik játékos válasza <b>megegyeznek</b>.</p>","null","","","","feedback trial","",""
"html-button-response-esp","31","476438","0.0-11.0-0.10","7265","János imád virozni, ezért sokat virzik. Ők ritkán...","1","virzanak","[""viroznak"",""virzanak""]","viroznak","esp trial","6","false"
"html-button-response","32","479963","0.0-11.0-1.10","null","<p>A másik játékos ezt választotta: <b>viroznak</b>.</p><p>&#10060;</p><p>A válaszaitok <b>nem</b> egyeznek meg.</p>","null","","","","feedback trial","",""
"html-button-response-esp","33","489775","0.0-11.0-0.11","9302","János imád trugokozni, ezért sokat trugoklik. Ők ritkán...","1","trugoklanak","[""trugokoznak"",""trugoklanak""]","trugokoznak","esp trial","6","false"
"html-button-response","34","493290","0.0-11.0-1.11","null","<p>A másik játékos ezt választotta: <b>trugokoznak</b>.</p><p>&#10060;</p><p>A válaszaitok <b>nem</b> egyeznek meg.</p>","null","","","","feedback trial","",""
"html-button-response-esp","35","502259","0.0-11.0-0.12","8466","János imád spibegezni, ezért sokat spibeglik. Mi ritkán...","1","spibeglünk","[""spibegezünk"",""spibeglünk""]","spibegezünk","esp trial","6","false"
"html-button-response","36","505786","0.0-11.0-1.12","null","<p>A másik játékos ezt választotta: <b>spibegezünk</b>.</p><p>&#10060;</p><p>A válaszaitok <b>nem</b> egyeznek meg.</p>","null","","","","feedback trial","",""
"html-button-response-esp","37","514044","0.0-11.0-0.13","7755","János imád pragányozni, ezért sokat pragánylik. Ti ritkán...","1","pragánylotok","[""pragányoztok"",""pragánylotok""]","pragányoztok","esp trial","6","false"
"html-button-response","38","517562","0.0-11.0-1.13","null","<p>A másik játékos ezt választotta: <b>pragányoztok</b>.</p><p>&#10060;</p><p>A válaszaitok <b>nem</b> egyeznek meg.</p>","null","","","","feedback trial","",""
"html-button-response-esp","39","523734","0.0-11.0-0.14","5671","János imád dárakodni, ezért sokat dárakszik. Mi ritkán...","0","dárakodunk","[""dárakodunk"",""dárakszunk""]","dárakodunk","esp trial","6","true"
"html-button-response","40","527259","0.0-11.0-1.14","null","<p>A másik játékos ezt választotta: <b>dárakodunk</b>.</p><p>&#x2705;</p><p>A te válaszod és a másik játékos válasza <b>megegyeznek</b>.</p>","null","","","","feedback trial","",""
"html-button-response-esp","41","533598","0.0-11.0-0.15","5836","János imád gyihegezni, ezért sokat gyihegzik. Ti ritkán...","0","gyihegzetek","[""gyihegzetek"",""gyihegeztek""]","gyihegzetek","esp trial","6","true"
"html-button-response","42","537127","0.0-11.0-1.15","null","<p>A másik játékos ezt választotta: <b>gyihegzetek</b>.</p><p>&#x2705;</p><p>A te válaszod és a másik játékos válasza <b>megegyeznek</b>.</p>","null","","","","feedback trial","",""
"html-button-response-esp","43","541836","0.0-11.0-0.16","1951","János imád klehényezni, ezért sokat klehénylik. Ti ritkán...","0","klehényeztek","[""klehényeztek"",""klehényletek""]","klehényeztek","esp trial","6","true"
"html-button-response","44","545344","0.0-11.0-1.16","null","<p>A másik játékos ezt választotta: <b>klehényeztek</b>.</p><p>&#x2705;</p><p>A te válaszod és a másik játékos válasza <b>megegyeznek</b>.</p>","null","","","","feedback trial","",""
"html-button-response-esp","45","552367","0.0-11.0-0.17","6515","János imád brivakozni, ezért sokat brivaklik. Ti ritkán...","0","brivakoztok","[""brivakoztok"",""brivaklotok""]","brivakoztok","esp trial","6","true"
"html-button-response","46","555879","0.0-11.0-1.17","null","<p>A másik játékos ezt választotta: <b>brivakoztok</b>.</p><p>&#x2705;</p><p>A te válaszod és a másik játékos válasza <b>megegyeznek</b>.</p>","null","","","","feedback trial","",""
"html-button-response-esp","47","561361","0.0-11.0-0.18","4979","János imád branyozni, ezért sokat branylik. Ők ritkán...","0","branylanak","[""branylanak"",""branyoznak""]","branyoznak","esp trial","6","false"
"html-button-response","48","564881","0.0-11.0-1.18","null","<p>A másik játékos ezt választotta: <b>branyoznak</b>.</p><p>&#10060;</p><p>A válaszaitok <b>nem</b> egyeznek meg.</p>","null","","","","feedback trial","",""
"html-button-response-esp","49","570321","0.0-11.0-0.19","4926","János imád spügözni, ezért sokat spügzik. Mi ritkán...","0","spügzünk","[""spügzünk"",""spügözünk""]","spügözünk","esp trial","6","false"
"html-button-response","50","573840","0.0-11.0-1.19","null","<p>A másik játékos ezt választotta: <b>spügözünk</b>.</p><p>&#10060;</p><p>A válaszaitok <b>nem</b> egyeznek meg.</p>","null","","","","feedback trial","",""
"html-button-response-esp","51","579991","0.0-11.0-0.20","5635","János imád mülőrözni, ezért sokat mülőrzik. Mi ritkán...","0","mülőrözünk","[""mülőrözünk"",""mülőrzünk""]","mülőrözünk","esp trial","6","true"
"html-button-response","52","583518","0.0-11.0-1.20","null","<p>A másik játékos ezt választotta: <b>mülőrözünk</b>.</p><p>&#x2705;</p><p>A te válaszod és a másik játékos válasza <b>megegyeznek</b>.</p>","null","","","","feedback trial","",""
"html-button-response-esp","53","589637","0.0-11.0-0.21","5614","János imád trugozni, ezért sokat trugzik. Ők ritkán...","0","trugoznak","[""trugoznak"",""trugzanak""]","trugzanak","esp trial","6","false"
"html-button-response","54","593156","0.0-11.0-1.21","null","<p>A másik játékos ezt választotta: <b>trugzanak</b>.</p><p>&#10060;</p><p>A válaszaitok <b>nem</b> egyeznek meg.</p>","null","","","","feedback trial","",""
"html-button-response-esp","55","597882","0.0-11.0-0.22","1775","János imád dirozni, ezért sokat dirlik. Ti ritkán...","0","dirlotok","[""dirlotok"",""diroztok""]","diroztok","esp trial","6","false"
"html-button-response","56","601400","0.0-11.0-1.22","null","<p>A másik játékos ezt választotta: <b>diroztok</b>.</p><p>&#10060;</p><p>A válaszaitok <b>nem</b> egyeznek meg.</p>","null","","","","feedback trial","",""
"html-button-response-esp","57","608927","0.0-11.0-0.23","7014","János imád bratározni, ezért sokat bratárzik. Ők ritkán...","0","bratároznak","[""bratároznak"",""bratárzanak""]","bratárzanak","esp trial","6","false"
"html-button-response","58","612444","0.0-11.0-1.23","null","<p>A másik játékos ezt választotta: <b>bratárzanak</b>.</p><p>&#10060;</p><p>A válaszaitok <b>nem</b> egyeznek meg.</p>","null","","","","feedback trial","",""
"html-button-response-esp","59","617161","0.0-11.0-0.24","1256","János imád köszözni, ezért sokat köszlik. Ti ritkán...","1","köszlötök","[""köszöztök"",""köszlötök""]","köszlötök","esp trial","6","true"
"html-button-response","60","620691","0.0-11.0-1.24","null","<p>A másik játékos ezt választotta: <b>köszlötök</b>.</p><p>&#x2705;</p><p>A te válaszod és a másik játékos válasza <b>megegyeznek</b>.</p>","null","","","","feedback trial","",""
"html-button-response-esp","61","627255","0.0-11.0-0.25","6053","János imád pilégedni, ezért sokat pilégszik. Ők ritkán...","1","pilégednek","[""pilégszenek"",""pilégednek""]","pilégednek","esp trial","6","true"
"html-button-response","62","630770","0.0-11.0-1.25","null","<p>A másik játékos ezt választotta: <b>pilégednek</b>.</p><p>&#x2705;</p><p>A te válaszod és a másik játékos válasza <b>megegyeznek</b>.</p>","null","","","","feedback trial","",""
"html-button-response-esp","63","639001","0.0-11.0-0.26","7720","János imád spirágozni, ezért sokat spiráglik. Ti ritkán...","0","spiráglotok","[""spiráglotok"",""spirágoztok""]","spiráglotok","esp trial","6","true"
"html-button-response","64","642524","0.0-11.0-1.26","null","<p>A másik játékos ezt választotta: <b>spiráglotok</b>.</p><p>&#x2705;</p><p>A te válaszod és a másik játékos válasza <b>megegyeznek</b>.</p>","null","","","","feedback trial","",""
"html-button-response-esp","65","647443","0.0-11.0-0.27","4409","János imád lájozni, ezért sokat lájzik. Ti ritkán...","0","lájzotok","[""lájzotok"",""lájoztok""]","lájoztok","esp trial","6","false"
"html-button-response","66","650954","0.0-11.0-1.27","null","<p>A másik játékos ezt választotta: <b>lájoztok</b>.</p><p>&#10060;</p><p>A válaszaitok <b>nem</b> egyeznek meg.</p>","null","","","","feedback trial","",""
"html-button-response-esp","67","655668","0.0-11.0-0.28","1643","János imád flűgözni, ezért sokat flűgzik. Mi ritkán...","0","flűgzünk","[""flűgzünk"",""flűgözünk""]","flűgözünk","esp trial","6","false"
"html-button-response","68","659185","0.0-11.0-1.28","null","<p>A másik játékos ezt választotta: <b>flűgözünk</b>.</p><p>&#10060;</p><p>A válaszaitok <b>nem</b> egyeznek meg.</p>","null","","","","feedback trial","",""
"html-button-response-esp","69","663896","0.0-11.0-0.29","1371","János imád flöközni, ezért sokat flöklik. Ti ritkán...","0","flöklötök","[""flöklötök"",""flököztök""]","flököztök","esp trial","6","false"
"html-button-response","70","667410","0.0-11.0-1.29","null","<p>A másik játékos ezt választotta: <b>flököztök</b>.</p><p>&#10060;</p><p>A válaszaitok <b>nem</b> egyeznek meg.</p>","null","","","","feedback trial","",""
"html-button-response-esp","71","672740","0.0-11.0-0.30","4817","János imád drűrözni, ezért sokat drűrzik. Ők ritkán...","1","drűrzenek","[""drűröznek"",""drűrzenek""]","drűrzenek","esp trial","6","true"
"html-button-response","72","676246","0.0-11.0-1.30","null","<p>A másik játékos ezt választotta: <b>drűrzenek</b>.</p><p>&#x2705;</p><p>A te válaszod és a másik játékos válasza <b>megegyeznek</b>.</p>","null","","","","feedback trial","",""
"html-button-response-esp","73","684600","0.0-11.0-0.31","7839","János imád dujozni, ezért sokat dujzik. Ők ritkán...","1","dujzanak","[""dujoznak"",""dujzanak""]","dujoznak","esp trial","6","false"
"html-button-response","74","688123","0.0-11.0-1.31","null","<p>A másik játékos ezt választotta: <b>dujoznak</b>.</p><p>&#10060;</p><p>A válaszaitok <b>nem</b> egyeznek meg.</p>","null","","","","feedback trial","",""
"html-button-response-esp","75","693219","0.0-11.0-0.32","4580","János imád brülösözni, ezért sokat brülöslik. Mi ritkán...","1","brülöslünk","[""brülösözünk"",""brülöslünk""]","brülösözünk","esp trial","6","false"
"html-button-response","76","696736","0.0-11.0-1.32","null","<p>A másik játékos ezt választotta: <b>brülösözünk</b>.</p><p>&#10060;</p><p>A válaszaitok <b>nem</b> egyeznek meg.</p>","null","","","","feedback trial","",""
"html-button-response-esp","77","706622","0.0-11.0-0.33","9381","János imád prögözni, ezért sokat prögzik. Ti ritkán...","0","prögöztök","[""prögöztök"",""prögzötök""]","prögzötök","esp trial","6","false"
"html-button-response","78","710140","0.0-11.0-1.33","null","<p>A másik játékos ezt választotta: <b>prögzötök</b>.</p><p>&#10060;</p><p>A válaszaitok <b>nem</b> egyeznek meg.</p>","null","","","","feedback trial","",""
"html-button-response-esp","79","715415","0.0-11.0-0.34","4769","János imád flüröközni, ezért sokat flüröklik. Ti ritkán...","0","flüröklötök","[""flüröklötök"",""flürököztök""]","flürököztök","esp trial","6","false"
"html-button-response","80","718931","0.0-11.0-1.34","null","<p>A másik játékos ezt választotta: <b>flürököztök</b>.</p><p>&#10060;</p><p>A válaszaitok <b>nem</b> egyeznek meg.</p>","null","","","","feedback trial","",""
"html-button-response-esp","81","724500","0.0-11.0-0.35","5060","János imád csibagozni, ezért sokat csibagzik. Ti ritkán...","0","csibagzotok","[""csibagzotok"",""csibagoztok""]","csibagzotok","esp trial","6","true"
"html-button-response","82","728023","0.0-11.0-1.35","null","<p>A másik játékos ezt választotta: <b>csibagzotok</b>.</p><p>&#x2705;</p><p>A te válaszod és a másik játékos válasza <b>megegyeznek</b>.</p>","null","","","","feedback trial","",""
"html-button-response-esp","83","734214","0.0-11.0-0.36","5675","János imád posozni, ezért sokat poslik. Ti ritkán...","0","poslotok","[""poslotok"",""posoztok""]","posoztok","esp trial","6","false"
"html-button-response","84","737717","0.0-11.0-1.36","null","<p>A másik játékos ezt választotta: <b>posoztok</b>.</p><p>&#10060;</p><p>A válaszaitok <b>nem</b> egyeznek meg.</p>","null","","","","feedback trial","",""
"html-button-response-esp","85","742440","0.0-11.0-0.37","4086","János imád sprozozni, ezért sokat sprozlik. Ők ritkán...","1","sprozlanak","[""sprozoznak"",""sprozlanak""]","sprozoznak","esp trial","6","false"
"html-button-response","86","745950","0.0-11.0-1.37","null","<p>A másik játékos ezt választotta: <b>sprozoznak</b>.</p><p>&#10060;</p><p>A válaszaitok <b>nem</b> egyeznek meg.</p>","null","","","","feedback trial","",""
"html-button-response-esp","87","750667","0.0-11.0-0.38","3031","János imád nyivágozni, ezért sokat nyivágzik. Mi ritkán...","0","nyivágzunk","[""nyivágzunk"",""nyivágozunk""]","nyivágozunk","esp trial","6","false"
"html-button-response","88","754187","0.0-11.0-1.38","null","<p>A másik játékos ezt választotta: <b>nyivágozunk</b>.</p><p>&#10060;</p><p>A válaszaitok <b>nem</b> egyeznek meg.</p>","null","","","","feedback trial","",""
"html-button-response-esp","89","758987","0.0-11.0-0.39","4295","János imád föködni, ezért sokat fökszik. Ők ritkán...","0","fökszenek","[""fökszenek"",""föködnek""]","föködnek","esp trial","6","false"
"html-button-response","90","762518","0.0-11.0-1.39","null","<p>A másik játékos ezt választotta: <b>föködnek</b>.</p><p>&#10060;</p><p>A válaszaitok <b>nem</b> egyeznek meg.</p>","null","","","","feedback trial","",""
"html-button-response-esp","91","767230","0.0-11.0-0.40","4086","János imád lűközni, ezért sokat lűklik. Ők ritkán...","1","lűklenek","[""lűköznek"",""lűklenek""]","lűklenek","esp trial","6","true"
"html-button-response","92","770751","0.0-11.0-1.40","null","<p>A másik játékos ezt választotta: <b>lűklenek</b>.</p><p>&#x2705;</p><p>A te válaszod és a másik játékos válasza <b>megegyeznek</b>.</p>","null","","","","feedback trial","",""
"html-button-response-esp","93","775455","0.0-11.0-0.41","3795","János imád trivakodni, ezért sokat trivakszik. Mi ritkán...","1","trivakszunk","[""trivakodunk"",""trivakszunk""]","trivakodunk","esp trial","6","false"
"html-button-response","94","778967","0.0-11.0-1.41","null","<p>A másik játékos ezt választotta: <b>trivakodunk</b>.</p><p>&#10060;</p><p>A válaszaitok <b>nem</b> egyeznek meg.</p>","null","","","","feedback trial","",""
"html-button-response-esp","95","784268","0.0-11.0-0.42","4796","János imád mágamozni, ezért sokat mágamlik. Mi ritkán...","0","mágamlunk","[""mágamlunk"",""mágamozunk""]","mágamozunk","esp trial","6","false"
"html-button-response","96","787788","0.0-11.0-1.42","null","<p>A másik játékos ezt választotta: <b>mágamozunk</b>.</p><p>&#10060;</p><p>A válaszaitok <b>nem</b> egyeznek meg.</p>","null","","","","feedback trial","",""
"html-button-response-esp","97","794020","0.0-11.0-0.43","5722","János imád drilarozni, ezért sokat drilarzik. Mi ritkán...","0","drilarzunk","[""drilarzunk"",""drilarozunk""]","drilarzunk","esp trial","6","true"
"html-button-response","98","797539","0.0-11.0-1.43","null","<p>A másik játékos ezt választotta: <b>drilarzunk</b>.</p><p>&#x2705;</p><p>A te válaszod és a másik játékos válasza <b>megegyeznek</b>.</p>","null","","","","feedback trial","",""
"html-button-response-esp","99","802243","0.0-11.0-0.44","3774","János imád flemezni, ezért sokat flemlik. Mi ritkán...","0","flemlünk","[""flemlünk"",""flemezünk""]","flemlünk","esp trial","6","true"
"html-button-response","100","805765","0.0-11.0-1.44","null","<p>A másik játékos ezt választotta: <b>flemlünk</b>.</p><p>&#x2705;</p><p>A te válaszod és a másik játékos válasza <b>megegyeznek</b>.</p>","null","","","","feedback trial","",""
"html-button-response-esp","101","810598","0.0-11.0-0.45","4327","János imád sprűrözni, ezért sokat sprűrlik. Ők ritkán...","0","sprűrlenek","[""sprűrlenek"",""sprűröznek""]","sprűröznek","esp trial","6","false"
"html-button-response","102","814103","0.0-11.0-1.45","null","<p>A másik játékos ezt választotta: <b>sprűröznek</b>.</p><p>&#10060;</p><p>A válaszaitok <b>nem</b> egyeznek meg.</p>","null","","","","feedback trial","",""
"html-button-response-esp","103","819956","0.0-11.0-0.46","5340","János imád trikozni, ezért sokat triklik. Ti ritkán...","1","triklotok","[""trikoztok"",""triklotok""]","trikoztok","esp trial","6","false"
"html-button-response","104","823481","0.0-11.0-1.46","null","<p>A másik játékos ezt választotta: <b>trikoztok</b>.</p><p>&#10060;</p><p>A válaszaitok <b>nem</b> egyeznek meg.</p>","null","","","","feedback trial","",""
"html-button-response-esp","105","828623","0.0-11.0-0.47","4627","János imád frakozni, ezért sokat fraklik. Mi ritkán...","0","fraklunk","[""fraklunk"",""frakozunk""]","frakozunk","esp trial","6","false"
"html-button-response","106","832133","0.0-11.0-1.47","null","<p>A másik játékos ezt választotta: <b>frakozunk</b>.</p><p>&#10060;</p><p>A válaszaitok <b>nem</b> egyeznek meg.</p>","null","","","","feedback trial","",""
"html-button-response-esp","107","836841","0.0-11.0-0.48","3972","János imád molodni, ezért sokat molszik. Ti ritkán...","1","molszotok","[""molodtok"",""molszotok""]","molodtok","esp trial","6","false"
"html-button-response","108","840372","0.0-11.0-1.48","null","<p>A másik játékos ezt választotta: <b>molodtok</b>.</p><p>&#10060;</p><p>A válaszaitok <b>nem</b> egyeznek meg.</p>","null","","","","feedback trial","",""
"html-button-response-esp","109","848006","0.0-11.0-0.49","7119","János imád frálapodni, ezért sokat frálapszik. Ti ritkán...","0","frálapszotok","[""frálapszotok"",""frálapodtok""]","frálapodtok","esp trial","6","false"
"html-button-response","110","851521","0.0-11.0-1.49","null","<p>A másik játékos ezt választotta: <b>frálapodtok</b>.</p><p>&#10060;</p><p>A válaszaitok <b>nem</b> egyeznek meg.</p>","null","","","","feedback trial","",""
"html-button-response-esp","111","861212","0.0-11.0-0.50","9175","János imád fröjözni, ezért sokat fröjzik. Ti ritkán...","1","fröjzötök","[""fröjöztök"",""fröjzötök""]","fröjzötök","esp trial","6","true"
"html-button-response","112","864727","0.0-11.0-1.50","null","<p>A másik játékos ezt választotta: <b>fröjzötök</b>.</p><p>&#x2705;</p><p>A te válaszod és a másik játékos válasza <b>megegyeznek</b>.</p>","null","","","","feedback trial","",""
"html-button-response-esp","113","869441","0.0-11.0-0.51","3692","János imád püzözni, ezért sokat püzlik. Ti ritkán...","0","püzlötök","[""püzlötök"",""püzöztök""]","püzöztök","esp trial","6","false"
"html-button-response","114","872945","0.0-11.0-1.51","null","<p>A másik játékos ezt választotta: <b>püzöztök</b>.</p><p>&#10060;</p><p>A válaszaitok <b>nem</b> egyeznek meg.</p>","null","","","","feedback trial","",""
"html-button-response-esp","115","884984","0.0-11.0-0.52","11529","János imád spiharozni, ezért sokat spiharzik. Ti ritkán...","0","spiharzotok","[""spiharzotok"",""spiharoztok""]","spiharzotok","esp trial","6","true"
"html-button-response","116","888502","0.0-11.0-1.52","null","<p>A másik játékos ezt választotta: <b>spiharzotok</b>.</p><p>&#x2705;</p><p>A te válaszod és a másik játékos válasza <b>megegyeznek</b>.</p>","null","","","","feedback trial","",""
"html-button-response-esp","117","895960","0.0-11.0-0.53","6943","János imád nyürözni, ezért sokat nyürzik. Ők ritkán...","1","nyürzenek","[""nyüröznek"",""nyürzenek""]","nyüröznek","esp trial","6","false"
"html-button-response","118","899475","0.0-11.0-1.53","null","<p>A másik játékos ezt választotta: <b>nyüröznek</b>.</p><p>&#10060;</p><p>A válaszaitok <b>nem</b> egyeznek meg.</p>","null","","","","feedback trial","",""
"html-button-response","119","914832","0.0-12.0","14853","<p>A közös játék most véget ért.</p><p>Mielőtt eláruljuk a végső pontszámodat, arra kérlek, játszd a szóválasztós játékot néhány percig egyedül is.</p><p>A feladatod ugyanaz lesz, választani két lehetőség közül.</p><p>Most viszont egyedül kell döntened, hogy te melyiket választanád.</p>","0","","","","","",""
"html-button-response-clever","120","923295","0.0-13.0-0.0","7957","János imád tűgözni, ezért sokat tűgzik. Ti ritkán...","1","tűgzötök","[""tűgöztök"",""tűgzötök""]","","posttest trial","8",""
"html-button-response-clever","121","927456","0.0-13.0-0.1","3654","János imád pehégedni, ezért sokat pehégszik. Ti ritkán...","0","pehégszetek","[""pehégszetek"",""pehégedtek""]","","posttest trial","8",""
"html-button-response-clever","122","930987","0.0-13.0-0.2","3020","János imád flézezni, ezért sokat flézlik. Ti ritkán...","1","flézletek","[""flézeztek"",""flézletek""]","","posttest trial","8",""
"html-button-response-clever","123","934886","0.0-13.0-0.3","3388","János imád drojozni, ezért sokat drojzik. Mi ritkán...","0","drojzunk","[""drojzunk"",""drojozunk""]","","posttest trial","8",""
"html-button-response-clever","124","938206","0.0-13.0-0.4","2807","János imád drivegezni, ezért sokat drivegzik. Ti ritkán...","1","drivegzetek","[""drivegeztek"",""drivegzetek""]","","posttest trial","8",""
"html-button-response-clever","125","941261","0.0-13.0-0.5","2552","János imád gatágozni, ezért sokat gatáglik. Mi ritkán...","1","gatáglunk","[""gatágozunk"",""gatáglunk""]","","posttest trial","8",""
"html-button-response-clever","126","944025","0.0-13.0-0.6","2246","János imád frésezni, ezért sokat fréslik. Mi ritkán...","0","fréslünk","[""fréslünk"",""frésezünk""]","","posttest trial","8",""
"html-button-response-clever","127","946993","0.0-13.0-0.7","2455","János imád brivágozni, ezért sokat briváglik. Ők ritkán...","0","briváglanak","[""briváglanak"",""brivágoznak""]","","posttest trial","8",""
"html-button-response-clever","128","951775","0.0-13.0-0.8","4277","János imád tribejezni, ezért sokat tribejlik. Ti ritkán...","1","tribejletek","[""tribejeztek"",""tribejletek""]","","posttest trial","8",""
"html-button-response-clever","129","954684","0.0-13.0-0.9","2403","János imád flivegezni, ezért sokat flivegzik. Ők ritkán...","0","flivegzenek","[""flivegzenek"",""flivegeznek""]","","posttest trial","8",""
"html-button-response-clever","130","957031","0.0-13.0-0.10","1830","János imád bregezni, ezért sokat bregzik. Mi ritkán...","0","bregzünk","[""bregzünk"",""bregezünk""]","","posttest trial","8",""
"html-button-response-clever","131","959641","0.0-13.0-0.11","2103","János imád prilepedni, ezért sokat prilepszik. Mi ritkán...","1","prilepszünk","[""prilepedünk"",""prilepszünk""]","","posttest trial","8",""
"html-button-response-clever","132","963880","0.0-13.0-0.12","3730","János imád spalározni, ezért sokat spalárzik. Ők ritkán...","1","spalárzanak","[""spalároznak"",""spalárzanak""]","","posttest trial","8",""
"html-button-response-clever","133","966780","0.0-13.0-0.13","2395","János imád brivepedni, ezért sokat brivepszik. Mi ritkán...","1","brivepszünk","[""brivepedünk"",""brivepszünk""]","","posttest trial","8",""
"html-button-response-clever","134","969631","0.0-13.0-0.14","2349","János imád küsözni, ezért sokat küslik. Mi ritkán...","0","küslünk","[""küslünk"",""küsözünk""]","","posttest trial","8",""
"html-button-response-clever","135","972781","0.0-13.0-0.15","2636","János imád vobozni, ezért sokat vobzik. Ti ritkán...","0","vobzotok","[""vobzotok"",""voboztok""]","","posttest trial","8",""
"html-button-response-clever","136","977466","0.0-13.0-0.16","4171","János imád frivamozni, ezért sokat frivamlik. Mi ritkán...","0","frivamlunk","[""frivamlunk"",""frivamozunk""]","","posttest trial","8",""
"html-button-response-clever","137","981520","0.0-13.0-0.17","3545","János imád brüszözni, ezért sokat brüszlik. Ti ritkán...","1","brüszlötök","[""brüszöztök"",""brüszlötök""]","","posttest trial","8",""
"html-button-response-clever","138","985623","0.0-13.0-0.18","3588","János imád sprigozni, ezért sokat sprigzik. Ti ritkán...","1","sprigzotok","[""sprigoztok"",""sprigzotok""]","","posttest trial","8",""
"html-button-response-clever","139","988465","0.0-13.0-0.19","2327","János imád gyivepedni, ezért sokat gyivepszik. Ők ritkán...","1","gyivepszenek","[""gyivepednek"",""gyivepszenek""]","","posttest trial","8",""
"html-button-response-clever","140","992432","0.0-13.0-0.20","3462","János imád mísozni, ezért sokat míslik. Mi ritkán...","1","míslunk","[""mísozunk"",""míslunk""]","","posttest trial","8",""
"html-button-response-clever","141","996360","0.0-13.0-0.21","3414","János imád míjozni, ezért sokat míjzik. Mi ritkán...","1","míjzunk","[""míjozunk"",""míjzunk""]","","posttest trial","8",""
"html-button-response-clever","142","999320","0.0-13.0-0.22","2454","János imád brározni, ezért sokat brárlik. Ők ritkán...","1","brárlanak","[""brároznak"",""brárlanak""]","","posttest trial","8",""
"html-button-response-clever","143","1002297","0.0-13.0-0.23","2461","János imád klarágozni, ezért sokat klarágzik. Ti ritkán...","0","klarágzotok","[""klarágzotok"",""klarágoztok""]","","posttest trial","8",""
"html-button-response-clever","144","1007700","0.0-13.0-0.24","4899","János imád sztritozni, ezért sokat sztritlik. Ők ritkán...","1","sztritlanak","[""sztritoznak"",""sztritlanak""]","","posttest trial","8",""
"html-button-response-clever","145","1010998","0.0-13.0-0.25","2786","János imád lírozni, ezért sokat lírlik. Ők ritkán...","1","lírlanak","[""líroznak"",""lírlanak""]","","posttest trial","8",""
"html-button-response-clever","146","1014820","0.0-13.0-0.26","3312","János imád fröjözni, ezért sokat fröjlik. Mi ritkán...","1","fröjlünk","[""fröjözünk"",""fröjlünk""]","","posttest trial","8",""
"html-button-response-clever","147","1020358","0.0-13.0-0.27","5031","János imád flubokozni, ezért sokat fluboklik. Ti ritkán...","0","fluboklotok","[""fluboklotok"",""flubokoztok""]","","posttest trial","8",""
"html-button-response-clever","148","1024190","0.0-13.0-0.28","3316","János imád kluzozni, ezért sokat kluzlik. Ti ritkán...","1","kluzlotok","[""kluzoztok"",""kluzlotok""]","","posttest trial","8",""
"html-button-response-clever","149","1027962","0.0-13.0-0.29","3257","János imád filányozni, ezért sokat filánylik. Mi ritkán...","0","filánylunk","[""filánylunk"",""filányozunk""]","","posttest trial","8",""
"html-button-response-clever","150","1031008","0.0-13.0-0.30","2539","János imád dirányozni, ezért sokat diránylik. Ők ritkán...","0","diránylanak","[""diránylanak"",""dirányoznak""]","","posttest trial","8",""
"html-button-response-clever","151","1035138","0.0-13.0-0.31","3618","János imád tibarozni, ezért sokat tibarzik. Ők ritkán...","1","tibarzanak","[""tibaroznak"",""tibarzanak""]","","posttest trial","8",""
"html-button-response-clever","152","1037854","0.0-13.0-0.32","2206","János imád sponyozni, ezért sokat sponylik. Ők ritkán...","0","sponylanak","[""sponylanak"",""sponyoznak""]","","posttest trial","8",""
"html-button-response-clever","153","1040928","0.0-13.0-0.33","2564","János imád spöközni, ezért sokat spöklik. Mi ritkán...","0","spöklünk","[""spöklünk"",""spöközünk""]","","posttest trial","8",""
"html-button-response-clever","154","1044458","0.0-13.0-0.34","3029","János imád pekedni, ezért sokat pekszik. Mi ritkán...","1","pekszünk","[""pekedünk"",""pekszünk""]","","posttest trial","8",""
"html-button-response-clever","155","1047290","0.0-13.0-0.35","2328","János imád livényezni, ezért sokat livénylik. Mi ritkán...","0","livénylünk","[""livénylünk"",""livényezünk""]","","posttest trial","8",""
"html-button-response-clever","156","1051442","0.0-13.0-0.36","3647","János imád galározni, ezért sokat galárzik. Ők ritkán...","1","galárzanak","[""galároznak"",""galárzanak""]","","posttest trial","8",""
"html-button-response-clever","157","1054691","0.0-13.0-0.37","2748","János imád trírozni, ezért sokat trírzik. Mi ritkán...","0","trírzunk","[""trírzunk"",""trírozunk""]","","posttest trial","8",""
"html-button-response-clever","158","1057292","0.0-13.0-0.38","2085","János imád gibemezni, ezért sokat gibemlik. Mi ritkán...","0","gibemlünk","[""gibemlünk"",""gibemezünk""]","","posttest trial","8",""
"html-button-response-clever","159","1060056","0.0-13.0-0.39","2254","János imád prazozni, ezért sokat prazlik. Mi ritkán...","1","prazlunk","[""prazozunk"",""prazlunk""]","","posttest trial","8",""
"html-button-response-clever","160","1062704","0.0-13.0-0.40","2131","János imád sztrajozni, ezért sokat sztrajlik. Ők ritkán...","1","sztrajlanak","[""sztrajoznak"",""sztrajlanak""]","","posttest trial","8",""
"html-button-response-clever","161","1065196","0.0-13.0-0.41","1988","János imád mihágozni, ezért sokat mihágzik. Ti ritkán...","1","mihágzotok","[""mihágoztok"",""mihágzotok""]","","posttest trial","8",""
"html-button-response-clever","162","1067718","0.0-13.0-0.42","2017","János imád pörözni, ezért sokat pörzik. Ti ritkán...","1","pörzötök","[""pöröztök"",""pörzötök""]","","posttest trial","8",""
"html-button-response-clever","163","1070336","0.0-13.0-0.43","2118","János imád lumozni, ezért sokat lumlik. Ti ritkán...","1","lumlotok","[""lumoztok"",""lumlotok""]","","posttest trial","8",""
"html-button-response-clever","164","1073750","0.0-13.0-0.44","2898","János imád spibamozni, ezért sokat spibamlik. Ők ritkán...","0","spibamoznak","[""spibamoznak"",""spibamlanak""]","","posttest trial","8",""
"html-button-response-clever","165","1077960","0.0-13.0-0.45","3693","János imád riványozni, ezért sokat riványlik. Ti ritkán...","0","riványlotok","[""riványlotok"",""riványoztok""]","","posttest trial","8",""
"html-button-response-clever","166","1080986","0.0-13.0-0.46","2520","János imád brálamozni, ezért sokat brálamlik. Ők ritkán...","1","brálamlanak","[""brálamoznak"",""brálamlanak""]","","posttest trial","8",""
"html-button-response-clever","167","1083633","0.0-13.0-0.47","2136","János imád trűnyözni, ezért sokat trűnylik. Ők ritkán...","1","trűnylenek","[""trűnyöznek"",""trűnylenek""]","","posttest trial","8",""
"html-button-response-clever","168","1086415","0.0-13.0-0.48","2268","János imád nágapodni, ezért sokat nágapszik. Ők ritkán...","1","nágapszanak","[""nágapodnak"",""nágapszanak""]","","posttest trial","8",""
"html-button-response-clever","169","1088764","0.0-13.0-0.49","1838","János imád brilegezni, ezért sokat brilegzik. Mi ritkán...","1","brilegzünk","[""brilegezünk"",""brilegzünk""]","","posttest trial","8",""
"html-button-response-clever","170","1091101","0.0-13.0-0.50","1824","János imád frihegezni, ezért sokat friheglik. Mi ritkán...","1","friheglünk","[""frihegezünk"",""friheglünk""]","","posttest trial","8",""
"html-button-response-clever","171","1093611","0.0-13.0-0.51","2003","János imád sprimozni, ezért sokat sprimlik. Mi ritkán...","0","sprimlunk","[""sprimlunk"",""sprimozunk""]","","posttest trial","8",""
"html-button-response-clever","172","1097034","0.0-13.0-0.52","2911","János imád hákodni, ezért sokat hákszik. Ők ritkán...","0","hákszanak","[""hákszanak"",""hákodnak""]","","posttest trial","8",""
"html-button-response-clever","173","1099953","0.0-13.0-0.53","2415","János imád tágarozni, ezért sokat tágarzik. Mi ritkán...","0","tágarzunk","[""tágarzunk"",""tágarozunk""]","","posttest trial","8",""
"html-button-response","174","1107033","0.0-14.0","6564","<p> Vége a játéknak. A teljes pontszámod 20/54.</p><p> Szép munka! &#128526;&#128526;&#128526;</p><p>A Befejezés gomb megnyomása után bezárhatod a böngészőablakot.</p>","0","","","","","",""
"html-keyboard-response","175","1112536","0.0-15.0","null","<div class=""message"">
         <p>Egy kis türelmet kérünk, amíg elmentjük az adatokat...</p>
         </div>","null","","","","","",""
