"trial_type","trial_index","time_elapsed","internal_node_id","rt","stimulus","response","response_string","choices","esp_response","trial_kind","list_number","esp_match"
"pavlovia","0","755","0.0-0.0","","","","","","","","",""
"html-button-response","1","36658","0.0-1.0","35385","<p>Kedves Résztvevő! A Budapesti Műszaki és Gazdaságtudományi Egyetem Kognitív Tudományi Tanszékének kutatásában való részvételed kérjük. A kutatásban azt vizsgáljuk, hogy a magyar anyanyelvűek hogyan használnak bizonyos szóalakokat, és hogy milyen képük van arról, hogy mások hogyan használják, hogyan képzik a szavakat. Ez hozzásegít bennünket ahhoz, hogy jobban megértsük, hogyan dolgozza fel és tárolja a nyelvet az emberi agy, és hogyan működnek, hogyan változnak egy adott közösség nyelvi konvenciói.</p><p>A vizsgálat egy rövid számítógépes feladatból fog állni. A kutatásban való részvétel önkéntes, a részvételi szándék bármikor visszavonható. A résztvevők eredményeit név nélkül kezeljük, így nem beazonosíthatók az adatok feldolgozása során. Minden személyes adatot az EU általános adatvédelmi rendeletének (GDPR) megfelelően kezelünk és legfeljebb öt éven belül megsemmisítünk. A vizsgálat jellemzően húsz percet vesz igénybe.</p><p>Kutatásvezető:</p><p>Dr. Rácz Péter, tudományos munkatárs, BME KTT</p><p>e-mail: racz.peter.marton@ttk.bme.hu</p>","0","","","","","",""
"html-button-response","2","83239","0.0-2.0","46070","<p>A kísérletben szavakat fogsz látni. Ezek között lesznek olyanok, amelyeket ismersz, de előfordulhatnak olyanok is, amelyeket nem ismersz, sőt, vannak köztük kitalált szavak is. Minden szónál látni fogsz toldalékolt alakokat. A te feladatod az lesz, hogy minden szóhoz kiválaszd azt a toldalékolt alakot, amely a te számodra ismerősebben, természetesebben hangzik. Rossz válaszok nincsenek, mert van olyan, hogy különböző embereknek más és más szó tűnik jobb választásnak. A választ úgy tudod majd kiválasztani, ha rákattintasz.</p><p>Ebben a szóválasztós játékban egy másik játékossal együtt veszel majd részt. A másik játékos is minden esetben azok közül a lehetőségek közül válogathat, mint te. Kettőtök feladata az, hogy ugyanazt a lehetőséget válasszátok minden esetben. Ahhoz, hogy ez sikerüljön, neked figyelned kell arra, hogy a másik játékos milyen válaszokat ad, és ennek alapján meg kell tippelned, hogyan választ legközelebb. Ha eltalálod, akkor pontot kapsz.</p>","0","","","","","",""
"html-button-response","3","92914","0.0-3.0","9165","<p>Kérjük, olvasd el az alábbi nyilatkozatot, és amennyiben egyetértesz vele, nyomj a Beleegyezés gombra!</p><p>Kijelentem, hogy magyar anyanyelvű személyként önként veszek részt a BME KTT kísérletében. A kutatás céljával és folyamatával kapcsolatban elegendő tájékoztatást kaptam, lehetőségem volt kérdések feltételére, és esetleges kérdéseimre megfelelő válaszokat kaptam. A tájékoztatás alapján elegendő mennyiségű információ áll a rendelkezésemre, hogy eldönthessem, részt kívánok-e venni a kutatásban.</p><p>Tisztában vagyok vele, hogy részvételi szándékomat és adataimat bármikor, indoklás nélkül visszavonhatom.</p><p>Értem és tudomásul veszem, hogy a kutatás tudományos célokat szolgál, és az általam szolgáltatott adatokat a BME kizárólag kutatási célból használja fel. Tudomásul veszem, hogy eredményeimet a többi résztvevő eredményeivel együtt kezelik, így egyéni teljesítményemről visszajelzést, szakvéleményt nem kapok.</p><p>Megértettem, hogy adataim kezelését illetően a BME az EU általános adatvédelmi rendelete (GDPR), a hatályos adatvédelmi törvény és a nemzetközi kutatás-etikai alapelvek szerint jár el. Eredményeim anonim módon kerülnek feldolgozásra, és a kutatás résztvevői az azonosításomra alkalmas adataimat harmadik félnek nem szolgáltatják ki. Engedélyezem a BME számára a jelen kutatásban felvett adataim feldolgozását és tárolását, beleértve azok későbbi kutatásokhoz való felhasználását is. Személyes adataim kezelésével kapcsolatban tájékoztatást kérhetek a kutatás résztvevőitől, az adatkezelés ellen tiltakozhatok, kérhetem személyes adataim helyesbítését, törlését vagy zárolását, valamint jogorvoslatért a Nemzeti Adatvédelmi és Információszabadság Hatósághoz fordulhatok.</p><p>Kijelentem, hogy a kutatásban való részvételem körülményeiről részletes tájékoztatást kaptam, és a feltételeket elfogadom.</p>","0","","","","","",""
"survey-text","4","117612","0.0-4.0","24172","","{""Q0"":""CEPFPW"",""Q1"":""nő"",""Q2"":""1991"",""Q3"":""18""}","","","","","",""
"html-button-response","5","148063","0.0-5.0","29933","<p>Ebben a játékban szavakat kell toldalékolni.</p> <p>Minden körben mutatunk majd egy példamondatot, amiben lesz egy szó.</p> <p>Alatta jön egy második mondat, ezt a mondatot neked kell majd befejezni, ugyanezzel a szóval.</p> <p>Nem biztos, hogy a szó eleve ismerős lesz számodra!</p> <p>Minden mondathoz adunk két lehetőséget, ezeket balra és jobbra látod majd.</p> <p>A játék kb. negyedóráig-húsz percig tart.</p>","0","","","","","",""
"html-button-response","6","171208","0.0-6.0","22642","<p>Nézzünk egy példát!</p> <p>A példamondat: ""János nagyon szeret rancsúrozni.""</p><p>Neked ezt a mondatot kell befejezned: ""Én is szívesen...""</p><p>A lehetőségek pedig ezek:</p>","1","","","","","",""
"html-button-response","7","179228","0.0-7.0","7503","<p>Nagyon jó.</p><p>Ezt a játékot nem egyedül fogod játszani, hanem egy másik játékossal.</p><p>Mielőtt továbblépünk, összekapcsolunk titeket egymással.</p><p>Ez igénybe vehet néhány másodpercet, amihez szíves türelmed kérjük.</p>","0","","","","","",""
"html-button-response","8","184965","0.0-8.0","null","<p>Csatlakozás a másik játékoshoz...</p>","null","","","","","",""
"html-button-response","9","187489","0.0-9.0","null","<p> Sikeres kapcsolódás!</p>","null","","","","","",""
"html-button-response","10","198024","0.0-10.0","null","<p>A következőkben ketten játsszátok a szóválasztós játékot.</p><p>A feladatotok az lesz, hogy minden körben <b>ugyanazt</b> a szót válasszátok.</p><p>Minden ilyen egyező válaszért pontot kaptok.</p><p>Próbáld meg kitalálni, mit választ a másik játékos!</p><p>Bármikor választhatsz, a körnek akkor van vége, ha mindketten döntöttetek.</p><p>Sok sikert!</p>","null","","","","","",""
"html-button-response-esp","11","206107","0.0-11.0-0.0","7567","Te bizony sokat pivegszel. Én is sokat...","1","pivegszem","[""pivegszek"",""pivegszem""]","pivegszek","esp trial","2","false"
"html-button-response","12","209648","0.0-11.0-1.0","null","<p>A másik játékos ezt választotta: <b>pivegszek</b>.</p><p>&#10060;</p><p>A válaszaitok <b>nem</b> egyeznek meg.</p>","null","","","","feedback trial","",""
"html-button-response-esp","13","217497","0.0-11.0-0.1","7332","Te bizony sokat spéslesz. Én is sokat...","0","spéslek","[""spéslek"",""spéslem""]","spéslem","esp trial","2","false"
"html-button-response","14","221038","0.0-11.0-1.1","null","<p>A másik játékos ezt választotta: <b>spéslem</b>.</p><p>&#10060;</p><p>A válaszaitok <b>nem</b> egyeznek meg.</p>","null","","","","feedback trial","",""
"html-button-response-esp","15","228020","0.0-11.0-0.2","6468","Te bizony sokat trilszol. Én is sokat...","0","trilszok","[""trilszok"",""trilszom""]","trilszom","esp trial","2","false"
"html-button-response","16","231543","0.0-11.0-1.2","null","<p>A másik játékos ezt választotta: <b>trilszom</b>.</p><p>&#10060;</p><p>A válaszaitok <b>nem</b> egyeznek meg.</p>","null","","","","feedback trial","",""
"html-button-response-esp","17","238412","0.0-11.0-0.3","3118","Te bizony sokat hilarzol. Én is sokat...","1","hilarzok","[""hilarzom"",""hilarzok""]","hilarzom","esp trial","2","false"
"html-button-response","18","241934","0.0-11.0-1.3","null","<p>A másik játékos ezt választotta: <b>hilarzom</b>.</p><p>&#10060;</p><p>A válaszaitok <b>nem</b> egyeznek meg.</p>","null","","","","feedback trial","",""
"html-button-response-esp","19","248808","0.0-11.0-0.4","6177","Te bizony sokat fretszel. Én is sokat...","1","fretszem","[""fretszek"",""fretszem""]","fretszem","esp trial","2","true"
"html-button-response","20","252326","0.0-11.0-1.4","null","<p>A másik játékos ezt választotta: <b>fretszem</b>.</p><p>&#x2705;</p><p>A te válaszod és a másik játékos válasza <b>megegyeznek</b>.</p>","null","","","","feedback trial","",""
"html-button-response-esp","21","259197","0.0-11.0-0.5","4861","Te bizony sokat tínylasz. Én is sokat...","0","tínylom","[""tínylom"",""tínylok""]","tínylom","esp trial","2","true"
"html-button-response","22","262728","0.0-11.0-1.5","null","<p>A másik játékos ezt választotta: <b>tínylom</b>.</p><p>&#x2705;</p><p>A te válaszod és a másik játékos válasza <b>megegyeznek</b>.</p>","null","","","","feedback trial","",""
"html-button-response-esp","23","269605","0.0-11.0-0.6","5619","Te bizony sokat juszlasz. Én is sokat...","1","juszlom","[""juszlok"",""juszlom""]","juszlom","esp trial","2","true"
"html-button-response","24","273138","0.0-11.0-1.6","null","<p>A másik játékos ezt választotta: <b>juszlom</b>.</p><p>&#x2705;</p><p>A te válaszod és a másik játékos válasza <b>megegyeznek</b>.</p>","null","","","","feedback trial","",""
"html-button-response-esp","25","280009","0.0-11.0-0.7","4183","Te bizony sokat ruslasz. Én is sokat...","0","ruslok","[""ruslok"",""ruslom""]","ruslom","esp trial","2","false"
"html-button-response","26","283537","0.0-11.0-1.7","null","<p>A másik játékos ezt választotta: <b>ruslom</b>.</p><p>&#10060;</p><p>A válaszaitok <b>nem</b> egyeznek meg.</p>","null","","","","feedback trial","",""
"html-button-response-esp","27","290415","0.0-11.0-0.8","4955","Te bizony sokat prűrlesz. Én is sokat...","0","prűrlöm","[""prűrlöm"",""prűrlök""]","prűrlöm","esp trial","2","true"
"html-button-response","28","293940","0.0-11.0-1.8","null","<p>A másik játékos ezt választotta: <b>prűrlöm</b>.</p><p>&#x2705;</p><p>A te válaszod és a másik játékos válasza <b>megegyeznek</b>.</p>","null","","","","feedback trial","",""
"html-button-response-esp","29","300828","0.0-11.0-0.9","4764","Te bizony sokat marzol. Én is sokat...","1","marzom","[""marzok"",""marzom""]","marzom","esp trial","2","true"
"html-button-response","30","304355","0.0-11.0-1.9","null","<p>A másik játékos ezt választotta: <b>marzom</b>.</p><p>&#x2705;</p><p>A te válaszod és a másik játékos válasza <b>megegyeznek</b>.</p>","null","","","","feedback trial","",""
"html-button-response-esp","31","311242","0.0-11.0-0.10","4666","Te bizony sokat feténylesz. Én is sokat...","0","feténylek","[""feténylek"",""feténylem""]","feténylem","esp trial","2","false"
"html-button-response","32","314769","0.0-11.0-1.10","null","<p>A másik játékos ezt választotta: <b>feténylem</b>.</p><p>&#10060;</p><p>A válaszaitok <b>nem</b> egyeznek meg.</p>","null","","","","feedback trial","",""
"html-button-response-esp","33","321651","0.0-11.0-0.11","4924","Te bizony sokat fibamlasz. Én is sokat...","1","fibamlom","[""fibamlok"",""fibamlom""]","fibamlom","esp trial","2","true"
"html-button-response","34","325188","0.0-11.0-1.11","null","<p>A másik játékos ezt választotta: <b>fibamlom</b>.</p><p>&#x2705;</p><p>A te válaszod és a másik játékos válasza <b>megegyeznek</b>.</p>","null","","","","feedback trial","",""
"html-button-response-esp","35","332066","0.0-11.0-0.12","6217","Te bizony sokat klibamlasz. Én is sokat...","1","klibamlok","[""klibamlom"",""klibamlok""]","klibamlom","esp trial","2","false"
"html-button-response","36","335591","0.0-11.0-1.12","null","<p>A másik játékos ezt választotta: <b>klibamlom</b>.</p><p>&#10060;</p><p>A válaszaitok <b>nem</b> egyeznek meg.</p>","null","","","","feedback trial","",""
"html-button-response-esp","37","342473","0.0-11.0-0.13","4348","Te bizony sokat bölszöl. Én is sokat...","1","bölszök","[""bölszöm"",""bölszök""]","bölszöm","esp trial","2","false"
"html-button-response","38","345994","0.0-11.0-1.13","null","<p>A másik játékos ezt választotta: <b>bölszöm</b>.</p><p>&#10060;</p><p>A válaszaitok <b>nem</b> egyeznek meg.</p>","null","","","","feedback trial","",""
"html-button-response-esp","39","352869","0.0-11.0-0.14","6068","Te bizony sokat pratánylasz. Én is sokat...","1","pratánylok","[""pratánylom"",""pratánylok""]","pratánylom","esp trial","2","false"
"html-button-response","40","356389","0.0-11.0-1.14","null","<p>A másik játékos ezt választotta: <b>pratánylom</b>.</p><p>&#10060;</p><p>A válaszaitok <b>nem</b> egyeznek meg.</p>","null","","","","feedback trial","",""
"html-button-response-esp","41","363245","0.0-11.0-0.15","3621","Te bizony sokat nyáslasz. Én is sokat...","1","nyáslom","[""nyáslok"",""nyáslom""]","nyáslom","esp trial","2","true"
"html-button-response","42","366779","0.0-11.0-1.15","null","<p>A másik játékos ezt választotta: <b>nyáslom</b>.</p><p>&#x2705;</p><p>A te válaszod és a másik játékos válasza <b>megegyeznek</b>.</p>","null","","","","feedback trial","",""
"html-button-response-esp","43","373654","0.0-11.0-0.16","4693","Te bizony sokat prilegzel. Én is sokat...","0","prilegzem","[""prilegzem"",""prilegzek""]","prilegzek","esp trial","2","false"
"html-button-response","44","377188","0.0-11.0-1.16","null","<p>A másik játékos ezt választotta: <b>prilegzek</b>.</p><p>&#10060;</p><p>A válaszaitok <b>nem</b> egyeznek meg.</p>","null","","","","feedback trial","",""
"html-button-response-esp","45","384073","0.0-11.0-0.17","4319","Te bizony sokat csíszlasz. Én is sokat...","0","csíszlom","[""csíszlom"",""csíszlok""]","csíszlom","esp trial","2","true"
"html-button-response","46","387603","0.0-11.0-1.17","null","<p>A másik játékos ezt választotta: <b>csíszlom</b>.</p><p>&#x2705;</p><p>A te válaszod és a másik játékos válasza <b>megegyeznek</b>.</p>","null","","","","feedback trial","",""
"html-button-response-esp","47","394472","0.0-11.0-0.18","5291","Te bizony sokat drubódzol. Én is sokat...","0","drubódzom","[""drubódzom"",""drubódzok""]","drubódzok","esp trial","2","false"
"html-button-response","48","398002","0.0-11.0-1.18","null","<p>A másik játékos ezt választotta: <b>drubódzok</b>.</p><p>&#10060;</p><p>A válaszaitok <b>nem</b> egyeznek meg.</p>","null","","","","feedback trial","",""
"html-button-response-esp","49","404878","0.0-11.0-0.19","3697","Te bizony sokat szirlasz. Én is sokat...","0","szirlom","[""szirlom"",""szirlok""]","szirlom","esp trial","2","true"
"html-button-response","50","408410","0.0-11.0-1.19","null","<p>A másik játékos ezt választotta: <b>szirlom</b>.</p><p>&#x2705;</p><p>A te válaszod és a másik játékos válasza <b>megegyeznek</b>.</p>","null","","","","feedback trial","",""
"html-button-response-esp","51","434922","0.0-11.0-0.20","25996","Te bizony sokat spibaklasz. Én is sokat...","1","spibaklom","[""spibaklok"",""spibaklom""]","spibaklom","esp trial","2","true"
"html-button-response","52","438446","0.0-11.0-1.20","null","<p>A másik játékos ezt választotta: <b>spibaklom</b>.</p><p>&#x2705;</p><p>A te válaszod és a másik játékos válasza <b>megegyeznek</b>.</p>","null","","","","feedback trial","",""
"html-button-response-esp","53","445325","0.0-11.0-0.21","4798","Te bizony sokat spűmlesz. Én is sokat...","1","spűmlöm","[""spűmlök"",""spűmlöm""]","spűmlöm","esp trial","2","true"
"html-button-response","54","448858","0.0-11.0-1.21","null","<p>A másik játékos ezt választotta: <b>spűmlöm</b>.</p><p>&#x2705;</p><p>A te válaszod és a másik játékos válasza <b>megegyeznek</b>.</p>","null","","","","feedback trial","",""
"html-button-response-esp","55","455730","0.0-11.0-0.22","5972","Te bizony sokat tiregzel. Én is sokat...","0","tiregzek","[""tiregzek"",""tiregzem""]","tiregzem","esp trial","2","false"
"html-button-response","56","459259","0.0-11.0-1.22","null","<p>A másik játékos ezt választotta: <b>tiregzem</b>.</p><p>&#10060;</p><p>A válaszaitok <b>nem</b> egyeznek meg.</p>","null","","","","feedback trial","",""
"html-button-response-esp","57","466136","0.0-11.0-0.23","4578","Te bizony sokat ribzol. Én is sokat...","0","ribzom","[""ribzom"",""ribzok""]","ribzok","esp trial","2","false"
"html-button-response","58","469664","0.0-11.0-1.23","null","<p>A másik játékos ezt választotta: <b>ribzok</b>.</p><p>&#10060;</p><p>A válaszaitok <b>nem</b> egyeznek meg.</p>","null","","","","feedback trial","",""
"html-button-response-esp","59","476528","0.0-11.0-0.24","5393","Te bizony sokat vilakszol. Én is sokat...","1","vilakszok","[""vilakszom"",""vilakszok""]","vilakszok","esp trial","2","true"
"html-button-response","60","480051","0.0-11.0-1.24","null","<p>A másik játékos ezt választotta: <b>vilakszok</b>.</p><p>&#x2705;</p><p>A te válaszod és a másik játékos válasza <b>megegyeznek</b>.</p>","null","","","","feedback trial","",""
"html-button-response-esp","61","488107","0.0-11.0-0.25","7539","Te bizony sokat spatárzol. Én is sokat...","0","spatárzom","[""spatárzom"",""spatárzok""]","spatárzom","esp trial","2","true"
"html-button-response","62","491621","0.0-11.0-1.25","null","<p>A másik játékos ezt választotta: <b>spatárzom</b>.</p><p>&#x2705;</p><p>A te válaszod és a másik játékos válasza <b>megegyeznek</b>.</p>","null","","","","feedback trial","",""
"html-button-response-esp","63","498503","0.0-11.0-0.26","4228","Te bizony sokat narjárzol. Én is sokat...","0","narjárzok","[""narjárzok"",""narjárzom""]","narjárzom","esp trial","2","false"
"html-button-response","64","502022","0.0-11.0-1.26","null","<p>A másik játékos ezt választotta: <b>narjárzom</b>.</p><p>&#10060;</p><p>A válaszaitok <b>nem</b> egyeznek meg.</p>","null","","","","feedback trial","",""
"html-button-response-esp","65","508907","0.0-11.0-0.27","4157","Te bizony sokat sprökszöl. Én is sokat...","0","sprökszök","[""sprökszök"",""sprökszöm""]","sprökszök","esp trial","2","true"
"html-button-response","66","512421","0.0-11.0-1.27","null","<p>A másik játékos ezt választotta: <b>sprökszök</b>.</p><p>&#x2705;</p><p>A te válaszod és a másik játékos válasza <b>megegyeznek</b>.</p>","null","","","","feedback trial","",""
"html-button-response-esp","67","519301","0.0-11.0-0.28","3986","Te bizony sokat driládzol. Én is sokat...","0","driládzom","[""driládzom"",""driládzok""]","driládzok","esp trial","2","false"
"html-button-response","68","522825","0.0-11.0-1.28","null","<p>A másik játékos ezt választotta: <b>driládzok</b>.</p><p>&#10060;</p><p>A válaszaitok <b>nem</b> egyeznek meg.</p>","null","","","","feedback trial","",""
"html-button-response-esp","69","529699","0.0-11.0-0.29","2569","Te bizony sokat spilágzol. Én is sokat...","1","spilágzom","[""spilágzok"",""spilágzom""]","spilágzok","esp trial","2","false"
"html-button-response","70","533225","0.0-11.0-1.29","null","<p>A másik játékos ezt választotta: <b>spilágzok</b>.</p><p>&#10060;</p><p>A válaszaitok <b>nem</b> egyeznek meg.</p>","null","","","","feedback trial","",""
"html-button-response-esp","71","540402","0.0-11.0-0.30","6663","Te bizony sokat jüslesz. Én is sokat...","1","jüslök","[""jüslöm"",""jüslök""]","jüslöm","esp trial","2","false"
"html-button-response","72","543928","0.0-11.0-1.30","null","<p>A másik játékos ezt választotta: <b>jüslöm</b>.</p><p>&#10060;</p><p>A válaszaitok <b>nem</b> egyeznek meg.</p>","null","","","","feedback trial","",""
"html-button-response-esp","73","550806","0.0-11.0-0.31","4527","Te bizony sokat piragszol. Én is sokat...","0","piragszok","[""piragszok"",""piragszom""]","piragszok","esp trial","2","true"
"html-button-response","74","554338","0.0-11.0-1.31","null","<p>A másik játékos ezt választotta: <b>piragszok</b>.</p><p>&#x2705;</p><p>A te válaszod és a másik játékos válasza <b>megegyeznek</b>.</p>","null","","","","feedback trial","",""
"html-button-response-esp","75","561210","0.0-11.0-0.32","5086","Te bizony sokat frilegszel. Én is sokat...","1","frilegszek","[""frilegszem"",""frilegszek""]","frilegszek","esp trial","2","true"
"html-button-response","76","564731","0.0-11.0-1.32","null","<p>A másik játékos ezt választotta: <b>frilegszek</b>.</p><p>&#x2705;</p><p>A te válaszod és a másik játékos válasza <b>megegyeznek</b>.</p>","null","","","","feedback trial","",""
"html-button-response-esp","77","571597","0.0-11.0-0.33","3907","Te bizony sokat flüröslesz. Én is sokat...","1","flüröslöm","[""flüröslök"",""flüröslöm""]","flüröslöm","esp trial","2","true"
"html-button-response","78","575123","0.0-11.0-1.33","null","<p>A másik játékos ezt választotta: <b>flüröslöm</b>.</p><p>&#x2705;</p><p>A te válaszod és a másik játékos válasza <b>megegyeznek</b>.</p>","null","","","","feedback trial","",""
"html-button-response-esp","79","582006","0.0-11.0-0.34","3033","Te bizony sokat flagánylasz. Én is sokat...","1","flagánylok","[""flagánylom"",""flagánylok""]","flagánylom","esp trial","2","false"
"html-button-response","80","585527","0.0-11.0-1.34","null","<p>A másik játékos ezt választotta: <b>flagánylom</b>.</p><p>&#10060;</p><p>A válaszaitok <b>nem</b> egyeznek meg.</p>","null","","","","feedback trial","",""
"html-button-response-esp","81","592400","0.0-11.0-0.35","2613","Te bizony sokat herégszel. Én is sokat...","0","herégszek","[""herégszek"",""herégszem""]","herégszek","esp trial","2","true"
"html-button-response","82","595929","0.0-11.0-1.35","null","<p>A másik játékos ezt választotta: <b>herégszek</b>.</p><p>&#x2705;</p><p>A te válaszod és a másik játékos válasza <b>megegyeznek</b>.</p>","null","","","","feedback trial","",""
"html-button-response-esp","83","602799","0.0-11.0-0.36","3574","Te bizony sokat ribegzel. Én is sokat...","1","ribegzem","[""ribegzek"",""ribegzem""]","ribegzem","esp trial","2","true"
"html-button-response","84","606327","0.0-11.0-1.36","null","<p>A másik játékos ezt választotta: <b>ribegzem</b>.</p><p>&#x2705;</p><p>A te válaszod és a másik játékos válasza <b>megegyeznek</b>.</p>","null","","","","feedback trial","",""
"html-button-response-esp","85","613192","0.0-11.0-0.37","4548","Te bizony sokat flűröklesz. Én is sokat...","0","flűröklök","[""flűröklök"",""flűröklöm""]","flűröklöm","esp trial","2","false"
"html-button-response","86","616725","0.0-11.0-1.37","null","<p>A másik játékos ezt választotta: <b>flűröklöm</b>.</p><p>&#10060;</p><p>A válaszaitok <b>nem</b> egyeznek meg.</p>","null","","","","feedback trial","",""
"html-button-response-esp","87","623609","0.0-11.0-0.38","5405","Te bizony sokat sűzlesz. Én is sokat...","1","sűzlöm","[""sűzlök"",""sűzlöm""]","sűzlöm","esp trial","2","true"
"html-button-response","88","627139","0.0-11.0-1.38","null","<p>A másik játékos ezt választotta: <b>sűzlöm</b>.</p><p>&#x2705;</p><p>A te válaszod és a másik játékos válasza <b>megegyeznek</b>.</p>","null","","","","feedback trial","",""
"html-button-response-esp","89","634010","0.0-11.0-0.39","5087","Te bizony sokat brüjlesz. Én is sokat...","1","brüjlöm","[""brüjlök"",""brüjlöm""]","brüjlöm","esp trial","2","true"
"html-button-response","90","637532","0.0-11.0-1.39","null","<p>A másik játékos ezt választotta: <b>brüjlöm</b>.</p><p>&#x2705;</p><p>A te válaszod és a másik játékos válasza <b>megegyeznek</b>.</p>","null","","","","feedback trial","",""
"html-button-response-esp","91","644407","0.0-11.0-0.40","4262","Te bizony sokat sztremlesz. Én is sokat...","0","sztremlek","[""sztremlek"",""sztremlem""]","sztremlem","esp trial","2","false"
"html-button-response","92","647940","0.0-11.0-1.40","null","<p>A másik játékos ezt választotta: <b>sztremlem</b>.</p><p>&#10060;</p><p>A válaszaitok <b>nem</b> egyeznek meg.</p>","null","","","","feedback trial","",""
"html-button-response-esp","93","654817","0.0-11.0-0.41","3522","Te bizony sokat büglesz. Én is sokat...","1","büglöm","[""büglök"",""büglöm""]","büglöm","esp trial","2","true"
"html-button-response","94","658337","0.0-11.0-1.41","null","<p>A másik játékos ezt választotta: <b>büglöm</b>.</p><p>&#x2705;</p><p>A te válaszod és a másik játékos válasza <b>megegyeznek</b>.</p>","null","","","","feedback trial","",""
"html-button-response-esp","95","665211","0.0-11.0-0.42","4745","Te bizony sokat pebzel. Én is sokat...","0","pebzek","[""pebzek"",""pebzem""]","pebzem","esp trial","2","false"
"html-button-response","96","668726","0.0-11.0-1.42","null","<p>A másik játékos ezt választotta: <b>pebzem</b>.</p><p>&#10060;</p><p>A válaszaitok <b>nem</b> egyeznek meg.</p>","null","","","","feedback trial","",""
"html-button-response-esp","97","675604","0.0-11.0-0.43","5288","Te bizony sokat böjzöl. Én is sokat...","1","böjzök","[""böjzöm"",""böjzök""]","böjzöm","esp trial","2","false"
"html-button-response","98","679128","0.0-11.0-1.43","null","<p>A másik játékos ezt választotta: <b>böjzöm</b>.</p><p>&#10060;</p><p>A válaszaitok <b>nem</b> egyeznek meg.</p>","null","","","","feedback trial","",""
"html-button-response-esp","99","686005","0.0-11.0-0.44","4173","Te bizony sokat málapszol. Én is sokat...","0","málapszom","[""málapszom"",""málapszok""]","málapszom","esp trial","2","true"
"html-button-response","100","689535","0.0-11.0-1.44","null","<p>A másik játékos ezt választotta: <b>málapszom</b>.</p><p>&#x2705;</p><p>A te válaszod és a másik játékos válasza <b>megegyeznek</b>.</p>","null","","","","feedback trial","",""
"html-button-response-esp","101","696419","0.0-11.0-0.45","4006","Te bizony sokat femlesz. Én is sokat...","1","femlek","[""femlem"",""femlek""]","femlem","esp trial","2","false"
"html-button-response","102","699950","0.0-11.0-1.45","null","<p>A másik játékos ezt választotta: <b>femlem</b>.</p><p>&#10060;</p><p>A válaszaitok <b>nem</b> egyeznek meg.</p>","null","","","","feedback trial","",""
"html-button-response-esp","103","706826","0.0-11.0-0.46","2054","Te bizony sokat brágaklasz. Én is sokat...","1","brágaklom","[""brágaklok"",""brágaklom""]","brágaklok","esp trial","2","false"
"html-button-response","104","710352","0.0-11.0-1.46","null","<p>A másik játékos ezt választotta: <b>brágaklok</b>.</p><p>&#10060;</p><p>A válaszaitok <b>nem</b> egyeznek meg.</p>","null","","","","feedback trial","",""
"html-button-response-esp","105","717234","0.0-11.0-0.47","3563","Te bizony sokat tomlasz. Én is sokat...","1","tomlom","[""tomlok"",""tomlom""]","tomlom","esp trial","2","true"
"html-button-response","106","720758","0.0-11.0-1.47","null","<p>A másik játékos ezt választotta: <b>tomlom</b>.</p><p>&#x2705;</p><p>A te válaszod és a másik játékos válasza <b>megegyeznek</b>.</p>","null","","","","feedback trial","",""
"html-button-response-esp","107","727638","0.0-11.0-0.48","3361","Te bizony sokat klörlesz. Én is sokat...","0","klörlöm","[""klörlöm"",""klörlök""]","klörlöm","esp trial","2","true"
"html-button-response","108","731165","0.0-11.0-1.48","null","<p>A másik játékos ezt választotta: <b>klörlöm</b>.</p><p>&#x2705;</p><p>A te válaszod és a másik játékos válasza <b>megegyeznek</b>.</p>","null","","","","feedback trial","",""
"html-button-response-esp","109","738050","0.0-11.0-0.49","3459","Te bizony sokat lorjódzol. Én is sokat...","0","lorjódzom","[""lorjódzom"",""lorjódzok""]","lorjódzom","esp trial","2","true"
"html-button-response","110","741582","0.0-11.0-1.49","null","<p>A másik játékos ezt választotta: <b>lorjódzom</b>.</p><p>&#x2705;</p><p>A te válaszod és a másik játékos válasza <b>megegyeznek</b>.</p>","null","","","","feedback trial","",""
"html-button-response-esp","111","748467","0.0-11.0-0.50","4052","Te bizony sokat sprogzol. Én is sokat...","1","sprogzom","[""sprogzok"",""sprogzom""]","sprogzok","esp trial","2","false"
"html-button-response","112","751990","0.0-11.0-1.50","null","<p>A másik játékos ezt választotta: <b>sprogzok</b>.</p><p>&#10060;</p><p>A válaszaitok <b>nem</b> egyeznek meg.</p>","null","","","","feedback trial","",""
"html-button-response-esp","113","758873","0.0-11.0-0.51","5034","Te bizony sokat flagárzol. Én is sokat...","0","flagárzok","[""flagárzok"",""flagárzom""]","flagárzom","esp trial","2","false"
"html-button-response","114","762403","0.0-11.0-1.51","null","<p>A másik játékos ezt választotta: <b>flagárzom</b>.</p><p>&#10060;</p><p>A válaszaitok <b>nem</b> egyeznek meg.</p>","null","","","","feedback trial","",""
"html-button-response-esp","115","769843","0.0-11.0-0.52","6925","Te bizony sokat sojzol. Én is sokat...","0","sojzok","[""sojzok"",""sojzom""]","sojzok","esp trial","2","true"
"html-button-response","116","773374","0.0-11.0-1.52","null","<p>A másik játékos ezt választotta: <b>sojzok</b>.</p><p>&#x2705;</p><p>A te válaszod és a másik játékos válasza <b>megegyeznek</b>.</p>","null","","","","feedback trial","",""
"html-button-response-esp","117","780254","0.0-11.0-0.53","2968","Te bizony sokat siladzol. Én is sokat...","1","siladzok","[""siladzom"",""siladzok""]","siladzok","esp trial","2","true"
"html-button-response","118","783784","0.0-11.0-1.53","null","<p>A másik játékos ezt választotta: <b>siladzok</b>.</p><p>&#x2705;</p><p>A te válaszod és a másik játékos válasza <b>megegyeznek</b>.</p>","null","","","","feedback trial","",""
"html-button-response","119","795138","0.0-12.0","10851","<p>A közös játék most véget ért.</p><p>Mielőtt eláruljuk a végső pontszámodat, arra kérlek, játszd a szóválasztós játékot néhány percig egyedül is.</p><p>A feladatod ugyanaz lesz, választani két lehetőség közül.</p><p>Most viszont egyedül kell döntened, hogy te melyiket választanád.</p>","0","","","","","",""
"html-button-response-clever","120","801973","0.0-13.0-0.0","6325","Te bizony sokat spáraklasz. Én is sokat...","1","spáraklok","[""spáraklom"",""spáraklok""]","","posttest trial","4",""
"html-button-response-clever","121","805451","0.0-13.0-0.1","2969","Te bizony sokat pribagszol. Én is sokat...","0","pribagszom","[""pribagszom"",""pribagszok""]","","posttest trial","4",""
"html-button-response-clever","122","808545","0.0-13.0-0.2","2581","Te bizony sokat bűtszöl. Én is sokat...","0","bűtszöm","[""bűtszöm"",""bűtszök""]","","posttest trial","4",""
"html-button-response-clever","123","811598","0.0-13.0-0.3","2536","Te bizony sokat spülűdzöl. Én is sokat...","0","spülűdzöm","[""spülűdzöm"",""spülűdzök""]","","posttest trial","4",""
"html-button-response-clever","124","817632","0.0-13.0-0.4","5521","Te bizony sokat spüjzöl. Én is sokat...","1","spüjzök","[""spüjzöm"",""spüjzök""]","","posttest trial","4",""
"html-button-response-clever","125","823840","0.0-13.0-0.5","5700","Te bizony sokat tragzol. Én is sokat...","0","tragzok","[""tragzok"",""tragzom""]","","posttest trial","4",""
"html-button-response-clever","126","829599","0.0-13.0-0.6","5247","Te bizony sokat flehékszel. Én is sokat...","1","flehékszem","[""flehékszek"",""flehékszem""]","","posttest trial","4",""
"html-button-response-clever","127","834461","0.0-13.0-0.7","4351","Te bizony sokat bihánylasz. Én is sokat...","0","bihánylok","[""bihánylok"",""bihánylom""]","","posttest trial","4",""
"html-button-response-clever","128","839784","0.0-13.0-0.8","4809","Te bizony sokat figlasz. Én is sokat...","0","figlok","[""figlok"",""figlom""]","","posttest trial","4",""
"html-button-response-clever","129","845400","0.0-13.0-0.9","5112","Te bizony sokat spihegzel. Én is sokat...","1","spihegzem","[""spihegzek"",""spihegzem""]","","posttest trial","4",""
"html-button-response-clever","130","851249","0.0-13.0-0.10","5337","Te bizony sokat frodlasz. Én is sokat...","1","frodlom","[""frodlok"",""frodlom""]","","posttest trial","4",""
"html-button-response-clever","131","855249","0.0-13.0-0.11","3489","Te bizony sokat flűmlesz. Én is sokat...","0","flűmlök","[""flűmlök"",""flűmlöm""]","","posttest trial","4",""
"html-button-response-clever","132","861400","0.0-13.0-0.12","5635","Te bizony sokat narádzol. Én is sokat...","0","narádzom","[""narádzom"",""narádzok""]","","posttest trial","4",""
"html-button-response-clever","133","865013","0.0-13.0-0.13","3101","Te bizony sokat treglesz. Én is sokat...","0","treglem","[""treglem"",""treglek""]","","posttest trial","4",""
"html-button-response-clever","134","869898","0.0-13.0-0.14","4373","Te bizony sokat flátszol. Én is sokat...","1","flátszom","[""flátszok"",""flátszom""]","","posttest trial","4",""
"html-button-response-clever","135","874270","0.0-13.0-0.15","3862","Te bizony sokat hurjorzol. Én is sokat...","1","hurjorzom","[""hurjorzok"",""hurjorzom""]","","posttest trial","4",""
"html-button-response-clever","136","879354","0.0-13.0-0.16","4571","Te bizony sokat sztrijzol. Én is sokat...","1","sztrijzok","[""sztrijzom"",""sztrijzok""]","","posttest trial","4",""
"html-button-response-clever","137","883893","0.0-13.0-0.17","4027","Te bizony sokat trádlasz. Én is sokat...","0","trádlok","[""trádlok"",""trádlom""]","","posttest trial","4",""
"html-button-response-clever","138","888608","0.0-13.0-0.18","4203","Te bizony sokat prínylasz. Én is sokat...","0","prínylok","[""prínylok"",""prínylom""]","","posttest trial","4",""
"html-button-response-clever","139","891517","0.0-13.0-0.19","2401","Te bizony sokat brobódzol. Én is sokat...","1","brobódzok","[""brobódzom"",""brobódzok""]","","posttest trial","4",""
"html-button-response-clever","140","909667","0.0-13.0-0.20","17641","Te bizony sokat klétszel. Én is sokat...","1","klétszek","[""klétszem"",""klétszek""]","","posttest trial","4",""
"html-button-response-clever","141","914609","0.0-13.0-0.21","4431","Te bizony sokat klivaslasz. Én is sokat...","0","klivaslok","[""klivaslok"",""klivaslom""]","","posttest trial","4",""
"html-button-response-clever","142","919623","0.0-13.0-0.22","4498","Te bizony sokat plűbzöl. Én is sokat...","1","plűbzök","[""plűbzöm"",""plűbzök""]","","posttest trial","4",""
"html-button-response-clever","143","923229","0.0-13.0-0.23","3087","Te bizony sokat brivegzel. Én is sokat...","0","brivegzek","[""brivegzek"",""brivegzem""]","","posttest trial","4",""
"html-button-response-clever","144","926007","0.0-13.0-0.24","2263","Te bizony sokat bivégszel. Én is sokat...","1","bivégszem","[""bivégszek"",""bivégszem""]","","posttest trial","4",""
"html-button-response-clever","145","929925","0.0-13.0-0.25","3402","Te bizony sokat vülődzöl. Én is sokat...","1","vülődzök","[""vülődzöm"",""vülődzök""]","","posttest trial","4",""
"html-button-response-clever","146","933349","0.0-13.0-0.26","2911","Te bizony sokat vanylasz. Én is sokat...","0","vanylok","[""vanylok"",""vanylom""]","","posttest trial","4",""
"html-button-response-clever","147","939040","0.0-13.0-0.27","5183","Te bizony sokat klaráglasz. Én is sokat...","0","klaráglok","[""klaráglok"",""klaráglom""]","","posttest trial","4",""
"html-button-response-clever","148","945147","0.0-13.0-0.28","5595","Te bizony sokat huroslasz. Én is sokat...","1","huroslom","[""huroslok"",""huroslom""]","","posttest trial","4",""
"html-button-response-clever","149","947854","0.0-13.0-0.29","2197","Te bizony sokat spihemlesz. Én is sokat...","1","spihemlek","[""spihemlem"",""spihemlek""]","","posttest trial","4",""
"html-button-response-clever","150","951793","0.0-13.0-0.30","3429","Te bizony sokat pribemlesz. Én is sokat...","0","pribemlek","[""pribemlek"",""pribemlem""]","","posttest trial","4",""
"html-button-response-clever","151","957879","0.0-13.0-0.31","5581","Te bizony sokat trehégszel. Én is sokat...","0","trehégszem","[""trehégszem"",""trehégszek""]","","posttest trial","4",""
"html-button-response-clever","152","966594","0.0-13.0-0.32","8209","Te bizony sokat rájzol. Én is sokat...","0","rájzom","[""rájzom"",""rájzok""]","","posttest trial","4",""
"html-button-response-clever","153","969791","0.0-13.0-0.33","2682","Te bizony sokat hűgzöl. Én is sokat...","0","hűgzöm","[""hűgzöm"",""hűgzök""]","","posttest trial","4",""
"html-button-response-clever","154","974086","0.0-13.0-0.34","3787","Te bizony sokat filágzol. Én is sokat...","0","filágzom","[""filágzom"",""filágzok""]","","posttest trial","4",""
"html-button-response-clever","155","977415","0.0-13.0-0.35","2823","Te bizony sokat lörűdzöl. Én is sokat...","0","lörűdzöm","[""lörűdzöm"",""lörűdzök""]","","posttest trial","4",""
"html-button-response-clever","156","980359","0.0-13.0-0.36","2439","Te bizony sokat spröbzöl. Én is sokat...","0","spröbzöm","[""spröbzöm"",""spröbzök""]","","posttest trial","4",""
"html-button-response-clever","157","983491","0.0-13.0-0.37","2617","Te bizony sokat jonylasz. Én is sokat...","0","jonylok","[""jonylok"",""jonylom""]","","posttest trial","4",""
"html-button-response-clever","158","987220","0.0-13.0-0.38","3208","Te bizony sokat plugzol. Én is sokat...","0","plugzok","[""plugzok"",""plugzom""]","","posttest trial","4",""
"html-button-response-clever","159","991986","0.0-13.0-0.39","4253","Te bizony sokat gyibeslesz. Én is sokat...","1","gyibeslek","[""gyibeslem"",""gyibeslek""]","","posttest trial","4",""
"html-button-response-clever","160","995530","0.0-13.0-0.40","3022","Te bizony sokat brubzol. Én is sokat...","1","brubzom","[""brubzok"",""brubzom""]","","posttest trial","4",""
"html-button-response-clever","161","998156","0.0-13.0-0.41","2117","Te bizony sokat flehénylesz. Én is sokat...","0","flehénylek","[""flehénylek"",""flehénylem""]","","posttest trial","4",""
"html-button-response-clever","162","1002918","0.0-13.0-0.42","4253","Te bizony sokat rokszol. Én is sokat...","0","rokszom","[""rokszom"",""rokszok""]","","posttest trial","4",""
"html-button-response-clever","163","1005236","0.0-13.0-0.43","1803","Te bizony sokat düjzöl. Én is sokat...","0","düjzök","[""düjzök"",""düjzöm""]","","posttest trial","4",""
"html-button-response-clever","164","1007977","0.0-13.0-0.44","2224","Te bizony sokat szibánylasz. Én is sokat...","0","szibánylok","[""szibánylok"",""szibánylom""]","","posttest trial","4",""
"html-button-response-clever","165","1013662","0.0-13.0-0.45","5173","Te bizony sokat sztrűkszöl. Én is sokat...","1","sztrűkszöm","[""sztrűkszök"",""sztrűkszöm""]","","posttest trial","4",""
"html-button-response-clever","166","1020307","0.0-13.0-0.46","6131","Te bizony sokat sztrozlasz. Én is sokat...","0","sztrozlok","[""sztrozlok"",""sztrozlom""]","","posttest trial","4",""
"html-button-response-clever","167","1023592","0.0-13.0-0.47","2778","Te bizony sokat ibékszel. Én is sokat...","1","ibékszem","[""ibékszek"",""ibékszem""]","","posttest trial","4",""
"html-button-response-clever","168","1027525","0.0-13.0-0.48","3431","Te bizony sokat salárzol. Én is sokat...","0","salárzom","[""salárzom"",""salárzok""]","","posttest trial","4",""
"html-button-response-clever","169","1030655","0.0-13.0-0.49","2618","Te bizony sokat nűröklesz. Én is sokat...","1","nűröklök","[""nűröklöm"",""nűröklök""]","","posttest trial","4",""
"html-button-response-clever","170","1035797","0.0-13.0-0.50","4631","Te bizony sokat spubonylasz. Én is sokat...","0","spubonylok","[""spubonylok"",""spubonylom""]","","posttest trial","4",""
"html-button-response-clever","171","1041538","0.0-13.0-0.51","5231","Te bizony sokat pítszol. Én is sokat...","0","pítszok","[""pítszok"",""pítszom""]","","posttest trial","4",""
"html-button-response-clever","172","1044733","0.0-13.0-0.52","2683","Te bizony sokat píjlasz. Én is sokat...","1","píjlok","[""píjlom"",""píjlok""]","","posttest trial","4",""
"html-button-response-clever","173","1048468","0.0-13.0-0.53","3224","Te bizony sokat flitlasz. Én is sokat...","1","flitlom","[""flitlok"",""flitlom""]","","posttest trial","4",""
"html-button-response","174","1058365","0.0-14.0","9383","<p> Vége a játéknak. A teljes pontszámod 28/54.</p><p> Szép munka! &#128526;&#128526;&#128526;</p><p>A Befejezés gomb megnyomása után bezárhatod a böngészőablakot.</p>","0","","","","","",""
"html-keyboard-response","175","1063890","0.0-15.0","null","<div class=""message"">
         <p>Egy kis türelmet kérünk, amíg elmentjük az adatokat...</p>
         </div>","null","","","","","",""
