"trial_type","trial_index","time_elapsed","internal_node_id","rt","stimulus","response","response_string","choices","esp_response","trial_kind","list_number","esp_match"
"pavlovia","0","1111","0.0-0.0","","","","","","","","",""
"html-button-response","1","5096","0.0-1.0","3458","<p>Kedves Résztvevő! A Budapesti Műszaki és Gazdaságtudományi Egyetem Kognitív Tudományi Tanszékének kutatásában való részvételed kérjük. A kutatásban azt vizsgáljuk, hogy a magyar anyanyelvűek hogyan használnak bizonyos szóalakokat, és hogy milyen képük van arról, hogy mások hogyan használják, hogyan képzik a szavakat. Ez hozzásegít bennünket ahhoz, hogy jobban megértsük, hogyan dolgozza fel és tárolja a nyelvet az emberi agy, és hogyan működnek, hogyan változnak egy adott közösség nyelvi konvenciói.</p><p>A vizsgálat egy rövid számítógépes feladatból fog állni. A kutatásban való részvétel önkéntes, a részvételi szándék bármikor visszavonható. A résztvevők eredményeit név nélkül kezeljük, így nem beazonosíthatók az adatok feldolgozása során. Minden személyes adatot az EU általános adatvédelmi rendeletének (GDPR) megfelelően kezelünk és legfeljebb öt éven belül megsemmisítünk. A vizsgálat jellemzően húsz percet vesz igénybe.</p><p>Kutatásvezető:</p><p>Dr. Rácz Péter, tudományos munkatárs, BME KTT</p><p>e-mail: racz.peter.marton@ttk.bme.hu</p>","0","","","","","",""
"html-button-response","2","7712","0.0-2.0","2102","<p>A kísérletben szavakat fogsz látni. Ezek között lesznek olyanok, amelyeket ismersz, de előfordulhatnak olyanok is, amelyeket nem ismersz, sőt, vannak köztük kitalált szavak is. Minden szónál látni fogsz toldalékolt alakokat. A te feladatod az lesz, hogy minden szóhoz kiválaszd azt a toldalékolt alakot, amely a te számodra ismerősebben, természetesebben hangzik. Rossz válaszok nincsenek, mert van olyan, hogy különböző embereknek más és más szó tűnik jobb választásnak. A választ úgy tudod majd kiválasztani, ha rákattintasz.</p><p>Ebben a szóválasztós játékban egy másik játékossal együtt veszel majd részt. A másik játékos is minden esetben azok közül a lehetőségek közül válogathat, mint te. Kettőtök feladata az, hogy ugyanazt a lehetőséget válasszátok minden esetben. Ahhoz, hogy ez sikerüljön, neked figyelned kell arra, hogy a másik játékos milyen válaszokat ad, és ennek alapján meg kell tippelned, hogyan választ legközelebb. Ha eltalálod, akkor pontot kapsz.</p>","0","","","","","",""
"html-button-response","3","11391","0.0-3.0","3162","<p>Kérjük, olvasd el az alábbi nyilatkozatot, és amennyiben egyetértesz vele, nyomj a Beleegyezés gombra!</p><p>Kijelentem, hogy magyar anyanyelvű személyként önként veszek részt a BME KTT kísérletében. A kutatás céljával és folyamatával kapcsolatban elegendő tájékoztatást kaptam, lehetőségem volt kérdések feltételére, és esetleges kérdéseimre megfelelő válaszokat kaptam. A tájékoztatás alapján elegendő mennyiségű információ áll a rendelkezésemre, hogy eldönthessem, részt kívánok-e venni a kutatásban.</p><p>Tisztában vagyok vele, hogy részvételi szándékomat és adataimat bármikor, indoklás nélkül visszavonhatom.</p><p>Értem és tudomásul veszem, hogy a kutatás tudományos célokat szolgál, és az általam szolgáltatott adatokat a BME kizárólag kutatási célból használja fel. Tudomásul veszem, hogy eredményeimet a többi résztvevő eredményeivel együtt kezelik, így egyéni teljesítményemről visszajelzést, szakvéleményt nem kapok.</p><p>Megértettem, hogy adataim kezelését illetően a BME az EU általános adatvédelmi rendelete (GDPR), a hatályos adatvédelmi törvény és a nemzetközi kutatás-etikai alapelvek szerint jár el. Eredményeim anonim módon kerülnek feldolgozásra, és a kutatás résztvevői az azonosításomra alkalmas adataimat harmadik félnek nem szolgáltatják ki. Engedélyezem a BME számára a jelen kutatásban felvett adataim feldolgozását és tárolását, beleértve azok későbbi kutatásokhoz való felhasználását is. Személyes adataim kezelésével kapcsolatban tájékoztatást kérhetek a kutatás résztvevőitől, az adatkezelés ellen tiltakozhatok, kérhetem személyes adataim helyesbítését, törlését vagy zárolását, valamint jogorvoslatért a Nemzeti Adatvédelmi és Információszabadság Hatósághoz fordulhatok.</p><p>Kijelentem, hogy a kutatásban való részvételem körülményeiről részletes tájékoztatást kaptam, és a feltételeket elfogadom.</p>","0","","","","","",""
"survey-text","4","47821","0.0-4.0","35845","","{""Q0"":""CsM"",""Q1"":""Ffi"",""Q2"":""1986"",""Q3"":""17""}","","","","","",""
"html-button-response","5","53288","0.0-5.0","4946","<p>Ebben a játékban szavakat kell toldalékolni.</p> <p>Minden körben mutatunk majd egy példamondatot, amiben lesz egy szó.</p> <p>Alatta jön egy második mondat, ezt a mondatot neked kell majd befejezni, ugyanezzel a szóval.</p> <p>Nem biztos, hogy a szó eleve ismerős lesz számodra!</p> <p>Minden mondathoz adunk két lehetőséget, ezeket balra és jobbra látod majd.</p> <p>A játék kb. negyedóráig-húsz percig tart.</p>","0","","","","","",""
"html-button-response","6","68398","0.0-6.0","14593","<p>Nézzünk egy példát!</p> <p>A példamondat: ""János imád fláramolni, ezért sokat fláramlik. Mi ritkán...""</p><p>Neked ezt a mondatot kell befejezned: ""Ti ritkán...""</p><p>A lehetőségek pedig ezek:</p>","0","","","","","",""
"html-button-response","7","71324","0.0-7.0","2408","<p>Nagyon jó.</p><p>Ezt a játékot nem egyedül fogod játszani, hanem egy másik játékossal.</p><p>Mielőtt továbblépünk, összekapcsolunk titeket egymással.</p><p>Ez igénybe vehet néhány másodpercet, amihez szíves türelmed kérjük.</p>","0","","","","","",""
"html-button-response","8","77066","0.0-8.0","null","<p>Csatlakozás a másik játékoshoz...</p>","null","","","","","",""
"html-button-response","9","79576","0.0-9.0","null","<p> Sikeres kapcsolódás!</p>","null","","","","","",""
"html-button-response","10","90090","0.0-10.0","null","<p>A következőkben ketten játsszátok a szóválasztós játékot.</p><p>A feladatotok az lesz, hogy minden körben <b>ugyanazt</b> a szót válasszátok.</p><p>Minden ilyen egyező válaszért pontot kaptok.</p><p>Próbáld meg kitalálni, mit választ a másik játékos!</p><p>Bármikor választhatsz, a körnek akkor van vége, ha mindketten döntöttetek.</p><p>Sok sikert!</p>","null","","","","","",""
"html-button-response-esp","11","106816","0.0-11.0-0.0","16194","János imád frakozni, ezért sokat fraklik. Mi ritkán...","1","frakozunk","[""fraklunk"",""frakozunk""]","frakozunk","esp trial","7","true"
"html-button-response","12","110344","0.0-11.0-1.0","null","<p>A másik játékos ezt választotta: <b>frakozunk</b>.</p><p>&#x2705;</p><p>A te válaszod és a másik játékos válasza <b>megegyeznek</b>.</p>","null","","","","feedback trial","",""
"html-button-response-esp","13","124977","0.0-11.0-0.1","14119","János imád privékedni, ezért sokat privékszik. Ők ritkán...","0","privékszenek","[""privékszenek"",""privékednek""]","privékednek","esp trial","7","false"
"html-button-response","14","128488","0.0-11.0-1.1","null","<p>A másik játékos ezt választotta: <b>privékednek</b>.</p><p>&#10060;</p><p>A válaszaitok <b>nem</b> egyeznek meg.</p>","null","","","","feedback trial","",""
"html-button-response-esp","15","145634","0.0-11.0-0.2","16633","János imád lájozni, ezért sokat lájzik. Ti ritkán...","0","lájoztok","[""lájoztok"",""lájzotok""]","lájzotok","esp trial","7","false"
"html-button-response","16","149162","0.0-11.0-1.2","null","<p>A másik játékos ezt választotta: <b>lájzotok</b>.</p><p>&#10060;</p><p>A válaszaitok <b>nem</b> egyeznek meg.</p>","null","","","","feedback trial","",""
"html-button-response-esp","17","174889","0.0-11.0-0.3","25216","János imád trivakodni, ezért sokat trivakszik. Mi ritkán...","0","trivakszunk","[""trivakszunk"",""trivakodunk""]","trivakodunk","esp trial","7","false"
"html-button-response","18","178411","0.0-11.0-1.3","null","<p>A másik játékos ezt választotta: <b>trivakodunk</b>.</p><p>&#10060;</p><p>A válaszaitok <b>nem</b> egyeznek meg.</p>","null","","","","feedback trial","",""
"html-button-response-esp","19","190278","0.0-11.0-0.4","11350","János imád trugozni, ezért sokat trugzik. Ők ritkán...","0","trugoznak","[""trugoznak"",""trugzanak""]","trugoznak","esp trial","7","true"
"html-button-response","20","193792","0.0-11.0-1.4","null","<p>A másik játékos ezt választotta: <b>trugoznak</b>.</p><p>&#x2705;</p><p>A te válaszod és a másik játékos válasza <b>megegyeznek</b>.</p>","null","","","","feedback trial","",""
"html-button-response-esp","21","203044","0.0-11.0-0.5","8738","János imád sprudozni, ezért sokat sprudlik. Mi ritkán...","1","sprudozunk","[""sprudlunk"",""sprudozunk""]","sprudozunk","esp trial","7","true"
"html-button-response","22","206570","0.0-11.0-1.5","null","<p>A másik játékos ezt választotta: <b>sprudozunk</b>.</p><p>&#x2705;</p><p>A te válaszod és a másik játékos válasza <b>megegyeznek</b>.</p>","null","","","","feedback trial","",""
"html-button-response-esp","23","214986","0.0-11.0-0.6","7344","János imád trugokozni, ezért sokat trugoklik. Ők ritkán...","0","trugokoznak","[""trugokoznak"",""trugoklanak""]","trugokoznak","esp trial","7","true"
"html-button-response","24","218514","0.0-11.0-1.6","null","<p>A másik játékos ezt választotta: <b>trugokoznak</b>.</p><p>&#x2705;</p><p>A te válaszod és a másik játékos válasza <b>megegyeznek</b>.</p>","null","","","","feedback trial","",""
"html-button-response-esp","25","226920","0.0-11.0-0.7","5571","János imád nyivágozni, ezért sokat nyivágzik. Mi ritkán...","0","nyivágozunk","[""nyivágozunk"",""nyivágzunk""]","nyivágzunk","esp trial","7","false"
"html-button-response","26","230440","0.0-11.0-1.7","null","<p>A másik játékos ezt választotta: <b>nyivágzunk</b>.</p><p>&#10060;</p><p>A válaszaitok <b>nem</b> egyeznek meg.</p>","null","","","","feedback trial","",""
"html-button-response-esp","27","238842","0.0-11.0-0.8","7309","János imád flöközni, ezért sokat flöklik. Ti ritkán...","0","flököztök","[""flököztök"",""flöklötök""]","flököztök","esp trial","7","true"
"html-button-response","28","242362","0.0-11.0-1.8","null","<p>A másik játékos ezt választotta: <b>flököztök</b>.</p><p>&#x2705;</p><p>A te válaszod és a másik játékos válasza <b>megegyeznek</b>.</p>","null","","","","feedback trial","",""
"html-button-response-esp","29","252451","0.0-11.0-0.9","9577","János imád gyihegezni, ezért sokat gyihegzik. Ti ritkán...","0","gyihegeztek","[""gyihegeztek"",""gyihegzetek""]","gyihegeztek","esp trial","7","true"
"html-button-response","30","255979","0.0-11.0-1.9","null","<p>A másik játékos ezt választotta: <b>gyihegeztek</b>.</p><p>&#x2705;</p><p>A te válaszod és a másik játékos válasza <b>megegyeznek</b>.</p>","null","","","","feedback trial","",""
"html-button-response-esp","31","264384","0.0-11.0-0.10","5370","János imád dabozni, ezért sokat dabzik. Ti ritkán...","1","daboztok","[""dabzotok"",""daboztok""]","daboztok","esp trial","7","true"
"html-button-response","32","267898","0.0-11.0-1.10","null","<p>A másik játékos ezt választotta: <b>daboztok</b>.</p><p>&#x2705;</p><p>A te válaszod és a másik játékos válasza <b>megegyeznek</b>.</p>","null","","","","feedback trial","",""
"html-button-response-esp","33","276611","0.0-11.0-0.11","8195","János imád drűrözni, ezért sokat drűrzik. Ők ritkán...","1","drűröznek","[""drűrzenek"",""drűröznek""]","drűröznek","esp trial","7","true"
"html-button-response","34","280129","0.0-11.0-1.11","null","<p>A másik játékos ezt választotta: <b>drűröznek</b>.</p><p>&#x2705;</p><p>A te válaszod és a másik játékos válasza <b>megegyeznek</b>.</p>","null","","","","feedback trial","",""
"html-button-response-esp","35","288528","0.0-11.0-0.12","6929","János imád dujozni, ezért sokat dujzik. Ők ritkán...","1","dujoznak","[""dujzanak"",""dujoznak""]","dujoznak","esp trial","7","true"
"html-button-response","36","292049","0.0-11.0-1.12","null","<p>A másik játékos ezt választotta: <b>dujoznak</b>.</p><p>&#x2705;</p><p>A te válaszod és a másik játékos válasza <b>megegyeznek</b>.</p>","null","","","","feedback trial","",""
"html-button-response-esp","37","301700","0.0-11.0-0.13","9140","János imád molodni, ezért sokat molszik. Ti ritkán...","0","molodtok","[""molodtok"",""molszotok""]","molszotok","esp trial","7","false"
"html-button-response","38","305225","0.0-11.0-1.13","null","<p>A másik játékos ezt választotta: <b>molszotok</b>.</p><p>&#10060;</p><p>A válaszaitok <b>nem</b> egyeznek meg.</p>","null","","","","feedback trial","",""
"html-button-response-esp","39","314348","0.0-11.0-0.14","8611","János imád dilakozni, ezért sokat dilaklik. Ti ritkán...","1","dilakoztok","[""dilaklotok"",""dilakoztok""]","dilakoztok","esp trial","7","true"
"html-button-response","40","317872","0.0-11.0-1.14","null","<p>A másik játékos ezt választotta: <b>dilakoztok</b>.</p><p>&#x2705;</p><p>A te válaszod és a másik játékos válasza <b>megegyeznek</b>.</p>","null","","","","feedback trial","",""
"html-button-response-esp","41","330817","0.0-11.0-0.15","12434","János imád sprozozni, ezért sokat sprozlik. Ők ritkán...","0","sprozoznak","[""sprozoznak"",""sprozlanak""]","sprozoznak","esp trial","7","true"
"html-button-response","42","334338","0.0-11.0-1.15","null","<p>A másik játékos ezt választotta: <b>sprozoznak</b>.</p><p>&#x2705;</p><p>A te válaszod és a másik játékos válasza <b>megegyeznek</b>.</p>","null","","","","feedback trial","",""
"html-button-response-esp","43","342744","0.0-11.0-0.16","6297","János imád csubozni, ezért sokat csubzik. Mi ritkán...","0","csubozunk","[""csubozunk"",""csubzunk""]","csubzunk","esp trial","7","false"
"html-button-response","44","346265","0.0-11.0-1.16","null","<p>A másik játékos ezt választotta: <b>csubzunk</b>.</p><p>&#10060;</p><p>A válaszaitok <b>nem</b> egyeznek meg.</p>","null","","","","feedback trial","",""
"html-button-response-esp","45","356065","0.0-11.0-0.17","9256","János imád spügözni, ezért sokat spügzik. Mi ritkán...","0","spügözünk","[""spügözünk"",""spügzünk""]","spügzünk","esp trial","7","false"
"html-button-response","46","359649","0.0-11.0-1.17","null","<p>A másik játékos ezt választotta: <b>spügzünk</b>.</p><p>&#10060;</p><p>A válaszaitok <b>nem</b> egyeznek meg.</p>","null","","","","feedback trial","",""
"html-button-response-esp","47","369514","0.0-11.0-0.18","9353","János imád spibegezni, ezért sokat spibeglik. Mi ritkán...","0","spibegezünk","[""spibegezünk"",""spibeglünk""]","spibeglünk","esp trial","7","false"
"html-button-response","48","373033","0.0-11.0-1.18","null","<p>A másik játékos ezt választotta: <b>spibeglünk</b>.</p><p>&#10060;</p><p>A válaszaitok <b>nem</b> egyeznek meg.</p>","null","","","","feedback trial","",""
"html-button-response-esp","49","382746","0.0-11.0-0.19","9201","János imád brivakozni, ezért sokat brivaklik. Ti ritkán...","1","brivakoztok","[""brivaklotok"",""brivakoztok""]","brivakoztok","esp trial","7","true"
"html-button-response","50","386272","0.0-11.0-1.19","null","<p>A másik játékos ezt választotta: <b>brivakoztok</b>.</p><p>&#x2705;</p><p>A te válaszod és a másik játékos válasza <b>megegyeznek</b>.</p>","null","","","","feedback trial","",""
"html-button-response-esp","51","397744","0.0-11.0-0.20","10961","János imád mágamozni, ezért sokat mágamlik. Mi ritkán...","1","mágamozunk","[""mágamlunk"",""mágamozunk""]","mágamlunk","esp trial","7","false"
"html-button-response","52","401264","0.0-11.0-1.20","null","<p>A másik játékos ezt választotta: <b>mágamlunk</b>.</p><p>&#10060;</p><p>A válaszaitok <b>nem</b> egyeznek meg.</p>","null","","","","feedback trial","",""
"html-button-response-esp","53","412250","0.0-11.0-0.21","10476","János imád brözözni, ezért sokat brözlik. Ti ritkán...","0","brözöztök","[""brözöztök"",""brözlötök""]","brözöztök","esp trial","7","true"
"html-button-response","54","415779","0.0-11.0-1.21","null","<p>A másik játékos ezt választotta: <b>brözöztök</b>.</p><p>&#x2705;</p><p>A te válaszod és a másik játékos válasza <b>megegyeznek</b>.</p>","null","","","","feedback trial","",""
"html-button-response-esp","55","427193","0.0-11.0-0.22","10898","János imád virozni, ezért sokat virzik. Ők ritkán...","1","virzanak","[""viroznak"",""virzanak""]","viroznak","esp trial","7","false"
"html-button-response","56","430715","0.0-11.0-1.22","null","<p>A másik játékos ezt választotta: <b>viroznak</b>.</p><p>&#10060;</p><p>A válaszaitok <b>nem</b> egyeznek meg.</p>","null","","","","feedback trial","",""
"html-button-response-esp","57","439114","0.0-11.0-0.23","6445","János imád spirágozni, ezért sokat spiráglik. Ti ritkán...","0","spirágoztok","[""spirágoztok"",""spiráglotok""]","spirágoztok","esp trial","7","true"
"html-button-response","58","442641","0.0-11.0-1.23","null","<p>A másik játékos ezt választotta: <b>spirágoztok</b>.</p><p>&#x2705;</p><p>A te válaszod és a másik játékos válasza <b>megegyeznek</b>.</p>","null","","","","feedback trial","",""
"html-button-response-esp","59","456472","0.0-11.0-0.24","13317","János imád bratározni, ezért sokat bratárzik. Ők ritkán...","0","bratároznak","[""bratároznak"",""bratárzanak""]","bratároznak","esp trial","7","true"
"html-button-response","60","459994","0.0-11.0-1.24","null","<p>A másik játékos ezt választotta: <b>bratároznak</b>.</p><p>&#x2705;</p><p>A te válaszod és a másik játékos válasza <b>megegyeznek</b>.</p>","null","","","","feedback trial","",""
"html-button-response-esp","61","468402","0.0-11.0-0.25","7274","János imád flűgözni, ezért sokat flűgzik. Mi ritkán...","0","flűgözünk","[""flűgözünk"",""flűgzünk""]","flűgözünk","esp trial","7","true"
"html-button-response","62","471929","0.0-11.0-1.25","null","<p>A másik játékos ezt választotta: <b>flűgözünk</b>.</p><p>&#x2705;</p><p>A te válaszod és a másik játékos válasza <b>megegyeznek</b>.</p>","null","","","","feedback trial","",""
"html-button-response-esp","63","489978","0.0-11.0-0.26","17527","János imád posozni, ezért sokat poslik. Ti ritkán...","0","posoztok","[""posoztok"",""poslotok""]","poslotok","esp trial","7","false"
"html-button-response","64","493505","0.0-11.0-1.26","null","<p>A másik játékos ezt választotta: <b>poslotok</b>.</p><p>&#10060;</p><p>A válaszaitok <b>nem</b> egyeznek meg.</p>","null","","","","feedback trial","",""
"html-button-response-esp","65","503882","0.0-11.0-0.27","9864","János imád branyozni, ezért sokat branylik. Ők ritkán...","1","branyoznak","[""branylanak"",""branyoznak""]","branyoznak","esp trial","7","true"
"html-button-response","66","507401","0.0-11.0-1.27","null","<p>A másik játékos ezt választotta: <b>branyoznak</b>.</p><p>&#x2705;</p><p>A te válaszod és a másik játékos válasza <b>megegyeznek</b>.</p>","null","","","","feedback trial","",""
"html-button-response-esp","67","515913","0.0-11.0-0.28","8002","János imád püzözni, ezért sokat püzlik. Ti ritkán...","0","püzlötök","[""püzlötök"",""püzöztök""]","püzöztök","esp trial","7","false"
"html-button-response","68","519432","0.0-11.0-1.28","null","<p>A másik játékos ezt választotta: <b>püzöztök</b>.</p><p>&#10060;</p><p>A válaszaitok <b>nem</b> egyeznek meg.</p>","null","","","","feedback trial","",""
"html-button-response-esp","69","527833","0.0-11.0-0.29","5491","János imád föködni, ezért sokat fökszik. Ők ritkán...","1","föködnek","[""fökszenek"",""föködnek""]","fökszenek","esp trial","7","false"
"html-button-response","70","531352","0.0-11.0-1.29","null","<p>A másik játékos ezt választotta: <b>fökszenek</b>.</p><p>&#10060;</p><p>A válaszaitok <b>nem</b> egyeznek meg.</p>","null","","","","feedback trial","",""
"html-button-response-esp","71","546463","0.0-11.0-0.30","14599","János imád spiharozni, ezért sokat spiharzik. Ti ritkán...","0","spiharoztok","[""spiharoztok"",""spiharzotok""]","spiharoztok","esp trial","7","true"
"html-button-response","72","549976","0.0-11.0-1.30","null","<p>A másik játékos ezt választotta: <b>spiharoztok</b>.</p><p>&#x2705;</p><p>A te válaszod és a másik játékos válasza <b>megegyeznek</b>.</p>","null","","","","feedback trial","",""
"html-button-response-esp","73","558592","0.0-11.0-0.31","8103","János imád flüröközni, ezért sokat flüröklik. Ti ritkán...","1","flürököztök","[""flüröklötök"",""flürököztök""]","flürököztök","esp trial","7","true"
"html-button-response","74","562112","0.0-11.0-1.31","null","<p>A másik játékos ezt választotta: <b>flürököztök</b>.</p><p>&#x2705;</p><p>A te válaszod és a másik játékos válasza <b>megegyeznek</b>.</p>","null","","","","feedback trial","",""
"html-button-response-esp","75","576396","0.0-11.0-0.32","13771","János imád sprűrözni, ezért sokat sprűrlik. Ők ritkán...","0","sprűröznek","[""sprűröznek"",""sprűrlenek""]","sprűröznek","esp trial","7","true"
"html-button-response","76","579920","0.0-11.0-1.32","null","<p>A másik játékos ezt választotta: <b>sprűröznek</b>.</p><p>&#x2705;</p><p>A te válaszod és a másik játékos válasza <b>megegyeznek</b>.</p>","null","","","","feedback trial","",""
"html-button-response-esp","77","588801","0.0-11.0-0.33","8371","János imád frálapodni, ezért sokat frálapszik. Ti ritkán...","0","frálapodtok","[""frálapodtok"",""frálapszotok""]","frálapszotok","esp trial","7","false"
"html-button-response","78","592321","0.0-11.0-1.33","null","<p>A másik játékos ezt választotta: <b>frálapszotok</b>.</p><p>&#10060;</p><p>A válaszaitok <b>nem</b> egyeznek meg.</p>","null","","","","feedback trial","",""
"html-button-response-esp","79","612042","0.0-11.0-0.34","19210","János imád prögözni, ezért sokat prögzik. Ti ritkán...","0","prögöztök","[""prögöztök"",""prögzötök""]","prögöztök","esp trial","7","true"
"html-button-response","80","615563","0.0-11.0-1.34","null","<p>A másik játékos ezt választotta: <b>prögöztök</b>.</p><p>&#x2705;</p><p>A te válaszod és a másik játékos válasza <b>megegyeznek</b>.</p>","null","","","","feedback trial","",""
"html-button-response-esp","81","624719","0.0-11.0-0.35","8639","János imád lűközni, ezért sokat lűklik. Ők ritkán...","1","lűköznek","[""lűklenek"",""lűköznek""]","lűköznek","esp trial","7","true"
"html-button-response","82","628242","0.0-11.0-1.35","null","<p>A másik játékos ezt választotta: <b>lűköznek</b>.</p><p>&#x2705;</p><p>A te válaszod és a másik játékos válasza <b>megegyeznek</b>.</p>","null","","","","feedback trial","",""
"html-button-response-esp","83","636648","0.0-11.0-0.36","7753","János imád trikozni, ezért sokat triklik. Ti ritkán...","0","trikoztok","[""trikoztok"",""triklotok""]","triklotok","esp trial","7","false"
"html-button-response","84","640168","0.0-11.0-1.36","null","<p>A másik játékos ezt választotta: <b>triklotok</b>.</p><p>&#10060;</p><p>A válaszaitok <b>nem</b> egyeznek meg.</p>","null","","","","feedback trial","",""
"html-button-response-esp","85","652821","0.0-11.0-0.37","12141","János imád csibagozni, ezért sokat csibagzik. Ti ritkán...","0","csibagoztok","[""csibagoztok"",""csibagzotok""]","csibagoztok","esp trial","7","true"
"html-button-response","86","656344","0.0-11.0-1.37","null","<p>A másik játékos ezt választotta: <b>csibagoztok</b>.</p><p>&#x2705;</p><p>A te válaszod és a másik játékos válasza <b>megegyeznek</b>.</p>","null","","","","feedback trial","",""
"html-button-response-esp","87","666178","0.0-11.0-0.38","9320","János imád kűdözni, ezért sokat kűdlik. Ők ritkán...","0","kűdöznek","[""kűdöznek"",""kűdlenek""]","kűdlenek","esp trial","7","false"
"html-button-response","88","669697","0.0-11.0-1.38","null","<p>A másik játékos ezt választotta: <b>kűdlenek</b>.</p><p>&#10060;</p><p>A válaszaitok <b>nem</b> egyeznek meg.</p>","null","","","","feedback trial","",""
"html-button-response-esp","89","679633","0.0-11.0-0.39","9426","János imád brülösözni, ezért sokat brülöslik. Mi ritkán...","1","brülösözünk","[""brülöslünk"",""brülösözünk""]","brülösözünk","esp trial","7","true"
"html-button-response","90","683152","0.0-11.0-1.39","null","<p>A másik játékos ezt választotta: <b>brülösözünk</b>.</p><p>&#x2705;</p><p>A te válaszod és a másik játékos válasza <b>megegyeznek</b>.</p>","null","","","","feedback trial","",""
"html-button-response-esp","91","699436","0.0-11.0-0.40","15773","János imád klehényezni, ezért sokat klehénylik. Ti ritkán...","0","klehényletek","[""klehényletek"",""klehényeztek""]","klehényeztek","esp trial","7","false"
"html-button-response","92","702952","0.0-11.0-1.40","null","<p>A másik játékos ezt választotta: <b>klehényeztek</b>.</p><p>&#10060;</p><p>A válaszaitok <b>nem</b> egyeznek meg.</p>","null","","","","feedback trial","",""
"html-button-response-esp","93","714233","0.0-11.0-0.41","10768","János imád drilarozni, ezért sokat drilarzik. Mi ritkán...","0","drilarozunk","[""drilarozunk"",""drilarzunk""]","drilarozunk","esp trial","7","true"
"html-button-response","94","717754","0.0-11.0-1.41","null","<p>A másik játékos ezt választotta: <b>drilarozunk</b>.</p><p>&#x2705;</p><p>A te válaszod és a másik játékos válasza <b>megegyeznek</b>.</p>","null","","","","feedback trial","",""
"html-button-response-esp","95","730553","0.0-11.0-0.42","12280","János imád flemezni, ezért sokat flemlik. Mi ritkán...","1","flemezünk","[""flemlünk"",""flemezünk""]","flemezünk","esp trial","7","true"
"html-button-response","96","734072","0.0-11.0-1.42","null","<p>A másik játékos ezt választotta: <b>flemezünk</b>.</p><p>&#x2705;</p><p>A te válaszod és a másik játékos válasza <b>megegyeznek</b>.</p>","null","","","","feedback trial","",""
"html-button-response-esp","97","742472","0.0-11.0-0.43","6638","János imád gihejezni, ezért sokat gihejlik. Mi ritkán...","1","gihejezünk","[""gihejlünk"",""gihejezünk""]","gihejlünk","esp trial","7","false"
"html-button-response","98","745985","0.0-11.0-1.43","null","<p>A másik játékos ezt választotta: <b>gihejlünk</b>.</p><p>&#10060;</p><p>A válaszaitok <b>nem</b> egyeznek meg.</p>","null","","","","feedback trial","",""
"html-button-response-esp","99","755673","0.0-11.0-0.44","9177","János imád dirozni, ezért sokat dirlik. Ti ritkán...","0","diroztok","[""diroztok"",""dirlotok""]","diroztok","esp trial","7","true"
"html-button-response","100","759184","0.0-11.0-1.44","null","<p>A másik játékos ezt választotta: <b>diroztok</b>.</p><p>&#x2705;</p><p>A te válaszod és a másik játékos válasza <b>megegyeznek</b>.</p>","null","","","","feedback trial","",""
"html-button-response-esp","101","768549","0.0-11.0-0.45","8852","János imád frálasozni, ezért sokat frálaslik. Ők ritkán...","0","frálasoznak","[""frálasoznak"",""frálaslanak""]","frálaslanak","esp trial","7","false"
"html-button-response","102","772072","0.0-11.0-1.45","null","<p>A másik játékos ezt választotta: <b>frálaslanak</b>.</p><p>&#10060;</p><p>A válaszaitok <b>nem</b> egyeznek meg.</p>","null","","","","feedback trial","",""
"html-button-response-esp","103","780476","0.0-11.0-0.46","7672","János imád nyürözni, ezért sokat nyürzik. Ők ritkán...","0","nyüröznek","[""nyüröznek"",""nyürzenek""]","nyüröznek","esp trial","7","true"
"html-button-response","104","783992","0.0-11.0-1.46","null","<p>A másik játékos ezt választotta: <b>nyüröznek</b>.</p><p>&#x2705;</p><p>A te válaszod és a másik játékos válasza <b>megegyeznek</b>.</p>","null","","","","feedback trial","",""
"html-button-response-esp","105","801081","0.0-11.0-0.47","16577","János imád dárakodni, ezért sokat dárakszik. Mi ritkán...","1","dárakodunk","[""dárakszunk"",""dárakodunk""]","dárakodunk","esp trial","7","true"
"html-button-response","106","804600","0.0-11.0-1.47","null","<p>A másik játékos ezt választotta: <b>dárakodunk</b>.</p><p>&#x2705;</p><p>A te válaszod és a másik játékos válasza <b>megegyeznek</b>.</p>","null","","","","feedback trial","",""
"html-button-response-esp","107","815633","0.0-11.0-0.48","10521","János imád mülőrözni, ezért sokat mülőrzik. Mi ritkán...","0","mülőrzünk","[""mülőrzünk"",""mülőrözünk""]","mülőrözünk","esp trial","7","false"
"html-button-response","108","819152","0.0-11.0-1.48","null","<p>A másik játékos ezt választotta: <b>mülőrözünk</b>.</p><p>&#10060;</p><p>A válaszaitok <b>nem</b> egyeznek meg.</p>","null","","","","feedback trial","",""
"html-button-response-esp","109","832419","0.0-11.0-0.49","12757","János imád köszözni, ezért sokat köszlik. Ti ritkán...","1","köszöztök","[""köszlötök"",""köszöztök""]","köszöztök","esp trial","7","true"
"html-button-response","110","835936","0.0-11.0-1.49","null","<p>A másik játékos ezt választotta: <b>köszöztök</b>.</p><p>&#x2705;</p><p>A te válaszod és a másik játékos válasza <b>megegyeznek</b>.</p>","null","","","","feedback trial","",""
"html-button-response-esp","111","852777","0.0-11.0-0.50","16330","János imád prélemezni, ezért sokat prélemlik. Ők ritkán...","0","prélemeznek","[""prélemeznek"",""prélemlenek""]","prélemeznek","esp trial","7","true"
"html-button-response","112","856296","0.0-11.0-1.50","null","<p>A másik játékos ezt választotta: <b>prélemeznek</b>.</p><p>&#x2705;</p><p>A te válaszod és a másik játékos válasza <b>megegyeznek</b>.</p>","null","","","","feedback trial","",""
"html-button-response-esp","113","872026","0.0-11.0-0.51","15220","János imád fröjözni, ezért sokat fröjzik. Ti ritkán...","0","fröjöztök","[""fröjöztök"",""fröjzötök""]","fröjöztök","esp trial","7","true"
"html-button-response","114","875545","0.0-11.0-1.51","null","<p>A másik játékos ezt választotta: <b>fröjöztök</b>.</p><p>&#x2705;</p><p>A te válaszod és a másik játékos válasza <b>megegyeznek</b>.</p>","null","","","","feedback trial","",""
"html-button-response-esp","115","884879","0.0-11.0-0.52","8822","János imád pilégedni, ezért sokat pilégszik. Ők ritkán...","1","pilégednek","[""pilégszenek"",""pilégednek""]","pilégszenek","esp trial","7","false"
"html-button-response","116","888392","0.0-11.0-1.52","null","<p>A másik játékos ezt választotta: <b>pilégszenek</b>.</p><p>&#10060;</p><p>A válaszaitok <b>nem</b> egyeznek meg.</p>","null","","","","feedback trial","",""
"html-button-response-esp","117","902369","0.0-11.0-0.53","13464","János imád pragányozni, ezért sokat pragánylik. Ti ritkán...","1","pragányoztok","[""pragánylotok"",""pragányoztok""]","pragányoztok","esp trial","7","true"
"html-button-response","118","905889","0.0-11.0-1.53","null","<p>A másik játékos ezt választotta: <b>pragányoztok</b>.</p><p>&#x2705;</p><p>A te válaszod és a másik játékos válasza <b>megegyeznek</b>.</p>","null","","","","feedback trial","",""
"html-button-response","119","920120","0.0-12.0","13721","<p>A közös játék most véget ért.</p><p>Mielőtt eláruljuk a végső pontszámodat, arra kérlek, játszd a szóválasztós játékot néhány percig egyedül is.</p><p>A feladatod ugyanaz lesz, választani két lehetőség közül.</p><p>Most viszont egyedül kell döntened, hogy te melyiket választanád.</p>","0","","","","","",""
"html-button-response-clever","120","955397","0.0-13.0-0.0","34757","János imád sztritozni, ezért sokat sztritlik. Ők ritkán...","1","sztritlanak","[""sztritoznak"",""sztritlanak""]","","posttest trial","8",""
"html-button-response-clever","121","968345","0.0-13.0-0.1","12431","János imád sprimozni, ezért sokat sprimlik. Mi ritkán...","0","sprimozunk","[""sprimozunk"",""sprimlunk""]","","posttest trial","8",""
"html-button-response-clever","122","974513","0.0-13.0-0.2","5656","János imád kluzozni, ezért sokat kluzlik. Ti ritkán...","0","kluzoztok","[""kluzoztok"",""kluzlotok""]","","posttest trial","8",""
"html-button-response-clever","123","1002329","0.0-13.0-0.3","27299","János imád brálamozni, ezért sokat brálamlik. Ők ritkán...","1","brálamlanak","[""brálamoznak"",""brálamlanak""]","","posttest trial","8",""
"html-button-response-clever","124","1020393","0.0-13.0-0.4","17552","János imád sztrajozni, ezért sokat sztrajlik. Ők ritkán...","1","sztrajoznak","[""sztrajlanak"",""sztrajoznak""]","","posttest trial","8",""
"html-button-response-clever","125","1029259","0.0-13.0-0.5","8349","János imád pekedni, ezért sokat pekszik. Mi ritkán...","1","pekszünk","[""pekedünk"",""pekszünk""]","","posttest trial","8",""
"html-button-response-clever","126","1034592","0.0-13.0-0.6","4808","János imád filányozni, ezért sokat filánylik. Mi ritkán...","0","filányozunk","[""filányozunk"",""filánylunk""]","","posttest trial","8",""
"html-button-response-clever","127","1040569","0.0-13.0-0.7","5464","János imád drojozni, ezért sokat drojzik. Mi ritkán...","0","drojzunk","[""drojzunk"",""drojozunk""]","","posttest trial","8",""
"html-button-response-clever","128","1047137","0.0-13.0-0.8","6053","János imád gyivepedni, ezért sokat gyivepszik. Ők ritkán...","0","gyivepednek","[""gyivepednek"",""gyivepszenek""]","","posttest trial","8",""
"html-button-response-clever","129","1054132","0.0-13.0-0.9","6477","János imád dirányozni, ezért sokat diránylik. Ők ritkán...","0","dirányoznak","[""dirányoznak"",""diránylanak""]","","posttest trial","8",""
"html-button-response-clever","130","1072537","0.0-13.0-0.10","17888","János imád flivegezni, ezért sokat flivegzik. Ők ritkán...","0","flivegeznek","[""flivegeznek"",""flivegzenek""]","","posttest trial","8",""
"html-button-response-clever","131","1081100","0.0-13.0-0.11","8045","János imád tágarozni, ezért sokat tágarzik. Mi ritkán...","0","tágarzunk","[""tágarzunk"",""tágarozunk""]","","posttest trial","8",""
"html-button-response-clever","132","1091152","0.0-13.0-0.12","9529","János imád riványozni, ezért sokat riványlik. Ti ritkán...","0","riványoztok","[""riványoztok"",""riványlotok""]","","posttest trial","8",""
"html-button-response-clever","133","1100573","0.0-13.0-0.13","8907","János imád drivegezni, ezért sokat drivegzik. Ti ritkán...","0","drivegeztek","[""drivegeztek"",""drivegzetek""]","","posttest trial","8",""
"html-button-response-clever","134","1109432","0.0-13.0-0.14","8343","János imád gibemezni, ezért sokat gibemlik. Mi ritkán...","0","gibemezünk","[""gibemezünk"",""gibemlünk""]","","posttest trial","8",""
"html-button-response-clever","135","1123953","0.0-13.0-0.15","14008","János imád spalározni, ezért sokat spalárzik. Ők ritkán...","1","spalároznak","[""spalárzanak"",""spalároznak""]","","posttest trial","8",""
"html-button-response-clever","136","1160721","0.0-13.0-0.16","36256","János imád nágapodni, ezért sokat nágapszik. Ők ritkán...","1","nágapszanak","[""nágapodnak"",""nágapszanak""]","","posttest trial","8",""
"html-button-response-clever","137","1168292","0.0-13.0-0.17","7055","János imád lírozni, ezért sokat lírlik. Ők ritkán...","1","líroznak","[""lírlanak"",""líroznak""]","","posttest trial","8",""
"html-button-response-clever","138","1177722","0.0-13.0-0.18","8909","János imád trírozni, ezért sokat trírzik. Mi ritkán...","0","trírzunk","[""trírzunk"",""trírozunk""]","","posttest trial","8",""
"html-button-response-clever","139","1183701","0.0-13.0-0.19","5457","János imád vobozni, ezért sokat vobzik. Ti ritkán...","1","voboztok","[""vobzotok"",""voboztok""]","","posttest trial","8",""
"html-button-response-clever","140","1193281","0.0-13.0-0.20","9064","János imád brivepedni, ezért sokat brivepszik. Mi ritkán...","0","brivepszünk","[""brivepszünk"",""brivepedünk""]","","posttest trial","8",""
"html-button-response-clever","141","1200208","0.0-13.0-0.21","6411","János imád gatágozni, ezért sokat gatáglik. Mi ritkán...","1","gatáglunk","[""gatágozunk"",""gatáglunk""]","","posttest trial","8",""
"html-button-response-clever","142","1208321","0.0-13.0-0.22","7596","János imád flubokozni, ezért sokat fluboklik. Ti ritkán...","0","flubokoztok","[""flubokoztok"",""fluboklotok""]","","posttest trial","8",""
"html-button-response-clever","143","1249146","0.0-13.0-0.23","40310","János imád tűgözni, ezért sokat tűgzik. Ti ritkán...","1","tűgöztök","[""tűgzötök"",""tűgöztök""]","","posttest trial","8",""
"html-button-response-clever","144","1258183","0.0-13.0-0.24","8517","János imád prilepedni, ezért sokat prilepszik. Mi ritkán...","0","prilepszünk","[""prilepszünk"",""prilepedünk""]","","posttest trial","8",""
"html-button-response-clever","145","1264325","0.0-13.0-0.25","5625","János imád pörözni, ezért sokat pörzik. Ti ritkán...","1","pöröztök","[""pörzötök"",""pöröztök""]","","posttest trial","8",""
"html-button-response-clever","146","1274193","0.0-13.0-0.26","9348","János imád flézezni, ezért sokat flézlik. Ti ritkán...","1","flézeztek","[""flézletek"",""flézeztek""]","","posttest trial","8",""
"html-button-response-clever","147","1318321","0.0-13.0-0.27","43612","János imád livényezni, ezért sokat livénylik. Mi ritkán...","0","livényezünk","[""livényezünk"",""livénylünk""]","","posttest trial","8",""
"html-button-response-clever","148","1334011","0.0-13.0-0.28","15173","János imád tribejezni, ezért sokat tribejlik. Ti ritkán...","1","tribejeztek","[""tribejletek"",""tribejeztek""]","","posttest trial","8",""
"html-button-response-clever","149","1341545","0.0-13.0-0.29","7013","János imád sponyozni, ezért sokat sponylik. Ők ritkán...","1","sponylanak","[""sponyoznak"",""sponylanak""]","","posttest trial","8",""
"html-button-response-clever","150","1348358","0.0-13.0-0.30","6299","János imád míjozni, ezért sokat míjzik. Mi ritkán...","0","míjzunk","[""míjzunk"",""míjozunk""]","","posttest trial","8",""
"html-button-response-clever","151","1355637","0.0-13.0-0.31","6764","János imád mísozni, ezért sokat míslik. Mi ritkán...","0","míslunk","[""míslunk"",""mísozunk""]","","posttest trial","8",""
"html-button-response-clever","152","1363794","0.0-13.0-0.32","7635","János imád frihegezni, ezért sokat friheglik. Mi ritkán...","0","frihegezünk","[""frihegezünk"",""friheglünk""]","","posttest trial","8",""
"html-button-response-clever","153","1377972","0.0-13.0-0.33","13656","János imád pehégedni, ezért sokat pehégszik. Ti ritkán...","0","pehégedtek","[""pehégedtek"",""pehégszetek""]","","posttest trial","8",""
"html-button-response-clever","154","1385472","0.0-13.0-0.34","6979","János imád galározni, ezért sokat galárzik. Ők ritkán...","0","galároznak","[""galároznak"",""galárzanak""]","","posttest trial","8",""
"html-button-response-clever","155","1392137","0.0-13.0-0.35","6149","János imád prazozni, ezért sokat prazlik. Mi ritkán...","1","prazlunk","[""prazozunk"",""prazlunk""]","","posttest trial","8",""
"html-button-response-clever","156","1398685","0.0-13.0-0.36","6033","János imád brüszözni, ezért sokat brüszlik. Ti ritkán...","1","brüszöztök","[""brüszlötök"",""brüszöztök""]","","posttest trial","8",""
"html-button-response-clever","157","1404337","0.0-13.0-0.37","5133","János imád fröjözni, ezért sokat fröjlik. Mi ritkán...","0","fröjözünk","[""fröjözünk"",""fröjlünk""]","","posttest trial","8",""
"html-button-response-clever","158","1413121","0.0-13.0-0.38","8273","János imád mihágozni, ezért sokat mihágzik. Ti ritkán...","0","mihágzotok","[""mihágzotok"",""mihágoztok""]","","posttest trial","8",""
"html-button-response-clever","159","1421993","0.0-13.0-0.39","8355","János imád klarágozni, ezért sokat klarágzik. Ti ritkán...","0","klarágoztok","[""klarágoztok"",""klarágzotok""]","","posttest trial","8",""
"html-button-response-clever","160","1431633","0.0-13.0-0.40","9126","János imád lumozni, ezért sokat lumlik. Ti ritkán...","1","lumoztok","[""lumlotok"",""lumoztok""]","","posttest trial","8",""
"html-button-response-clever","161","1438785","0.0-13.0-0.41","6637","János imád frésezni, ezért sokat fréslik. Mi ritkán...","0","frésezünk","[""frésezünk"",""fréslünk""]","","posttest trial","8",""
"html-button-response-clever","162","1445862","0.0-13.0-0.42","6559","János imád bregezni, ezért sokat bregzik. Mi ritkán...","0","bregzünk","[""bregzünk"",""bregezünk""]","","posttest trial","8",""
"html-button-response-clever","163","1457489","0.0-13.0-0.43","11108","János imád küsözni, ezért sokat küslik. Mi ritkán...","0","küslünk","[""küslünk"",""küsözünk""]","","posttest trial","8",""
"html-button-response-clever","164","1470524","0.0-13.0-0.44","12520","János imád sprigozni, ezért sokat sprigzik. Ti ritkán...","1","sprigoztok","[""sprigzotok"",""sprigoztok""]","","posttest trial","8",""
"html-button-response-clever","165","1477844","0.0-13.0-0.45","6800","János imád hákodni, ezért sokat hákszik. Ők ritkán...","1","hákodnak","[""hákszanak"",""hákodnak""]","","posttest trial","8",""
"html-button-response-clever","166","1484216","0.0-13.0-0.46","5850","János imád brilegezni, ezért sokat brilegzik. Mi ritkán...","1","brilegzünk","[""brilegezünk"",""brilegzünk""]","","posttest trial","8",""
"html-button-response-clever","167","1489933","0.0-13.0-0.47","5199","János imád tibarozni, ezért sokat tibarzik. Ők ritkán...","1","tibaroznak","[""tibarzanak"",""tibaroznak""]","","posttest trial","8",""
"html-button-response-clever","168","1500921","0.0-13.0-0.48","10471","János imád frivamozni, ezért sokat frivamlik. Mi ritkán...","0","frivamozunk","[""frivamozunk"",""frivamlunk""]","","posttest trial","8",""
"html-button-response-clever","169","1508922","0.0-13.0-0.49","7485","János imád spöközni, ezért sokat spöklik. Mi ritkán...","1","spöközünk","[""spöklünk"",""spöközünk""]","","posttest trial","8",""
"html-button-response-clever","170","1516096","0.0-13.0-0.50","6650","János imád trűnyözni, ezért sokat trűnylik. Ők ritkán...","0","trűnyöznek","[""trűnyöznek"",""trűnylenek""]","","posttest trial","8",""
"html-button-response-clever","171","1525969","0.0-13.0-0.51","9359","János imád spibamozni, ezért sokat spibamlik. Ők ritkán...","1","spibamoznak","[""spibamlanak"",""spibamoznak""]","","posttest trial","8",""
"html-button-response-clever","172","1536891","0.0-13.0-0.52","10407","János imád brivágozni, ezért sokat briváglik. Ők ritkán...","1","brivágoznak","[""briváglanak"",""brivágoznak""]","","posttest trial","8",""
"html-button-response-clever","173","1543377","0.0-13.0-0.53","5966","János imád brározni, ezért sokat brárlik. Ők ritkán...","1","brárlanak","[""brároznak"",""brárlanak""]","","posttest trial","8",""
"html-button-response","174","1553305","0.0-14.0","9410","<p> Vége a játéknak. A teljes pontszámod 33/54.</p><p> Szép munka! &#128526;&#128526;&#128526;</p><p>A Befejezés gomb megnyomása után bezárhatod a böngészőablakot.</p>","0","","","","","",""
"html-keyboard-response","175","1558827","0.0-15.0","null","<div class=""message"">
         <p>Egy kis türelmet kérünk, amíg elmentjük az adatokat...</p>
         </div>","null","","","","","",""
