"trial_type","trial_index","time_elapsed","internal_node_id","rt","stimulus","response","response_string","choices","esp_response","trial_kind","list_number","esp_match"
"pavlovia","0","809","0.0-0.0","","","","","","","","",""
"html-button-response","1","26672","0.0-1.0","25359","<p>Kedves Résztvevő! A Budapesti Műszaki és Gazdaságtudományi Egyetem Kognitív Tudományi Tanszékének kutatásában való részvételed kérjük. A kutatásban azt vizsgáljuk, hogy a magyar anyanyelvűek hogyan használnak bizonyos szóalakokat, és hogy milyen képük van arról, hogy mások hogyan használják, hogyan képzik a szavakat. Ez hozzásegít bennünket ahhoz, hogy jobban megértsük, hogyan dolgozza fel és tárolja a nyelvet az emberi agy, és hogyan működnek, hogyan változnak egy adott közösség nyelvi konvenciói.</p><p>A vizsgálat egy rövid számítógépes feladatból fog állni. A kutatásban való részvétel önkéntes, a részvételi szándék bármikor visszavonható. A résztvevők eredményeit név nélkül kezeljük, így nem beazonosíthatók az adatok feldolgozása során. Minden személyes adatot az EU általános adatvédelmi rendeletének (GDPR) megfelelően kezelünk és legfeljebb öt éven belül megsemmisítünk. A vizsgálat jellemzően húsz percet vesz igénybe.</p><p>Kutatásvezető:</p><p>Dr. Rácz Péter, tudományos munkatárs, BME KTT</p><p>e-mail: racz.peter.marton@ttk.bme.hu</p>","0","","","","","",""
"html-button-response","2","130826","0.0-2.0","103640","<p>A kísérletben szavakat fogsz látni. Ezek között lesznek olyanok, amelyeket ismersz, de előfordulhatnak olyanok is, amelyeket nem ismersz, sőt, vannak köztük kitalált szavak is. Minden szónál látni fogsz toldalékolt alakokat. A te feladatod az lesz, hogy minden szóhoz kiválaszd azt a toldalékolt alakot, amely a te számodra ismerősebben, természetesebben hangzik. Rossz válaszok nincsenek, mert van olyan, hogy különböző embereknek más és más szó tűnik jobb választásnak. A választ úgy tudod majd kiválasztani, ha rákattintasz.</p><p>Ebben a szóválasztós játékban egy másik játékossal együtt veszel majd részt. A másik játékos is minden esetben azok közül a lehetőségek közül válogathat, mint te. Kettőtök feladata az, hogy ugyanazt a lehetőséget válasszátok minden esetben. Ahhoz, hogy ez sikerüljön, neked figyelned kell arra, hogy a másik játékos milyen válaszokat ad, és ennek alapján meg kell tippelned, hogyan választ legközelebb. Ha eltalálod, akkor pontot kapsz.</p>","0","","","","","",""
"html-button-response","3","148322","0.0-3.0","16980","<p>Kérjük, olvasd el az alábbi nyilatkozatot, és amennyiben egyetértesz vele, nyomj a Beleegyezés gombra!</p><p>Kijelentem, hogy magyar anyanyelvű személyként önként veszek részt a BME KTT kísérletében. A kutatás céljával és folyamatával kapcsolatban elegendő tájékoztatást kaptam, lehetőségem volt kérdések feltételére, és esetleges kérdéseimre megfelelő válaszokat kaptam. A tájékoztatás alapján elegendő mennyiségű információ áll a rendelkezésemre, hogy eldönthessem, részt kívánok-e venni a kutatásban.</p><p>Tisztában vagyok vele, hogy részvételi szándékomat és adataimat bármikor, indoklás nélkül visszavonhatom.</p><p>Értem és tudomásul veszem, hogy a kutatás tudományos célokat szolgál, és az általam szolgáltatott adatokat a BME kizárólag kutatási célból használja fel. Tudomásul veszem, hogy eredményeimet a többi résztvevő eredményeivel együtt kezelik, így egyéni teljesítményemről visszajelzést, szakvéleményt nem kapok.</p><p>Megértettem, hogy adataim kezelését illetően a BME az EU általános adatvédelmi rendelete (GDPR), a hatályos adatvédelmi törvény és a nemzetközi kutatás-etikai alapelvek szerint jár el. Eredményeim anonim módon kerülnek feldolgozásra, és a kutatás résztvevői az azonosításomra alkalmas adataimat harmadik félnek nem szolgáltatják ki. Engedélyezem a BME számára a jelen kutatásban felvett adataim feldolgozását és tárolását, beleértve azok későbbi kutatásokhoz való felhasználását is. Személyes adataim kezelésével kapcsolatban tájékoztatást kérhetek a kutatás résztvevőitől, az adatkezelés ellen tiltakozhatok, kérhetem személyes adataim helyesbítését, törlését vagy zárolását, valamint jogorvoslatért a Nemzeti Adatvédelmi és Információszabadság Hatósághoz fordulhatok.</p><p>Kijelentem, hogy a kutatásban való részvételem körülményeiről részletes tájékoztatást kaptam, és a feltételeket elfogadom.</p>","0","","","","","",""
"survey-text","4","182576","0.0-4.0","33725","","{""Q0"":""ZX6LA1"",""Q1"":"""",""Q2"":""1976"",""Q3"":""20""}","","","","","",""
"html-button-response","5","203238","0.0-5.0","20152","<p>Ebben a játékban szavakat kell toldalékolni.</p> <p>Minden körben mutatunk majd egy példamondatot, amiben lesz egy szó.</p> <p>Alatta jön egy második mondat, ezt a mondatot neked kell majd befejezni, ugyanezzel a szóval.</p> <p>Nem biztos, hogy a szó eleve ismerős lesz számodra!</p> <p>Minden mondathoz adunk két lehetőséget, ezeket balra és jobbra látod majd.</p> <p>A játék kb. negyedóráig-húsz percig tart.</p>","0","","","","","",""
"html-button-response","6","220750","0.0-6.0","17006","<p>Nézzünk egy példát!</p> <p>A példamondat: ""János nagyon szeret rancsúrozni.""</p><p>Neked ezt a mondatot kell befejezned: ""Én is szívesen...""</p><p>A lehetőségek pedig ezek:</p>","1","","","","","",""
"html-button-response","7","232838","0.0-7.0","11577","<p>Nagyon jó.</p><p>Ezt a játékot nem egyedül fogod játszani, hanem egy másik játékossal.</p><p>Mielőtt továbblépünk, összekapcsolunk titeket egymással.</p><p>Ez igénybe vehet néhány másodpercet, amihez szíves türelmed kérjük.</p>","0","","","","","",""
"html-button-response","8","238579","0.0-8.0","null","<p>Csatlakozás a másik játékoshoz...</p>","null","","","","","",""
"html-button-response","9","241099","0.0-9.0","null","<p> Sikeres kapcsolódás!</p>","null","","","","","",""
"html-button-response","10","251620","0.0-10.0","null","<p>A következőkben ketten játsszátok a szóválasztós játékot.</p><p>A feladatotok az lesz, hogy minden körben <b>ugyanazt</b> a szót válasszátok.</p><p>Minden ilyen egyező válaszért pontot kaptok.</p><p>Próbáld meg kitalálni, mit választ a másik játékos!</p><p>Bármikor választhatsz, a körnek akkor van vége, ha mindketten döntöttetek.</p><p>Sok sikert!</p>","null","","","","","",""
"html-button-response-esp","11","258814","0.0-11.0-0.0","6685","Te bizony sokat csólorzol. Én is sokat...","0","csólorzok","[""csólorzok"",""csólorzom""]","csólorzok","esp trial","10","true"
"html-button-response","12","262335","0.0-11.0-1.0","null","<p>A másik játékos ezt választotta: <b>csólorzok</b>.</p><p>&#x2705;</p><p>A te válaszod és a másik játékos válasza <b>megegyeznek</b>.</p>","null","","","","feedback trial","",""
"html-button-response-esp","13","267973","0.0-11.0-0.1","5124","Te bizony sokat gerénylesz. Én is sokat...","0","gerénylek","[""gerénylek"",""gerénylem""]","gerénylem","esp trial","10","false"
"html-button-response","14","271488","0.0-11.0-1.1","null","<p>A másik játékos ezt választotta: <b>gerénylem</b>.</p><p>&#10060;</p><p>A válaszaitok <b>nem</b> egyeznek meg.</p>","null","","","","feedback trial","",""
"html-button-response-esp","15","281889","0.0-11.0-0.2","9885","Te bizony sokat sprálszol. Én is sokat...","1","sprálszom","[""sprálszok"",""sprálszom""]","sprálszok","esp trial","10","false"
"html-button-response","16","285400","0.0-11.0-1.2","null","<p>A másik játékos ezt választotta: <b>sprálszok</b>.</p><p>&#10060;</p><p>A válaszaitok <b>nem</b> egyeznek meg.</p>","null","","","","feedback trial","",""
"html-button-response-esp","17","290833","0.0-11.0-0.3","4636","Te bizony sokat spélszel. Én is sokat...","1","spélszek","[""spélszem"",""spélszek""]","spélszem","esp trial","10","false"
"html-button-response","18","294353","0.0-11.0-1.3","null","<p>A másik játékos ezt választotta: <b>spélszem</b>.</p><p>&#10060;</p><p>A válaszaitok <b>nem</b> egyeznek meg.</p>","null","","","","feedback trial","",""
"html-button-response-esp","19","299771","0.0-11.0-0.4","4054","Te bizony sokat aglasz. Én is sokat...","1","aglom","[""aglok"",""aglom""]","aglom","esp trial","10","true"
"html-button-response","20","303289","0.0-11.0-1.4","null","<p>A másik játékos ezt választotta: <b>aglom</b>.</p><p>&#x2705;</p><p>A te válaszod és a másik játékos válasza <b>megegyeznek</b>.</p>","null","","","","feedback trial","",""
"html-button-response-esp","21","308719","0.0-11.0-0.5","4186","Te bizony sokat livaklasz. Én is sokat...","1","livaklom","[""livaklok"",""livaklom""]","livaklok","esp trial","10","false"
"html-button-response","22","312247","0.0-11.0-1.5","null","<p>A másik játékos ezt választotta: <b>livaklok</b>.</p><p>&#10060;</p><p>A válaszaitok <b>nem</b> egyeznek meg.</p>","null","","","","feedback trial","",""
"html-button-response-esp","23","317653","0.0-11.0-0.6","3835","Te bizony sokat fliraklasz. Én is sokat...","0","fliraklom","[""fliraklom"",""fliraklok""]","fliraklom","esp trial","10","true"
"html-button-response","24","321164","0.0-11.0-1.6","null","<p>A másik játékos ezt választotta: <b>fliraklom</b>.</p><p>&#x2705;</p><p>A te válaszod és a másik játékos válasza <b>megegyeznek</b>.</p>","null","","","","feedback trial","",""
"html-button-response-esp","25","326890","0.0-11.0-0.7","5218","Te bizony sokat spibádzol. Én is sokat...","0","spibádzok","[""spibádzok"",""spibádzom""]","spibádzom","esp trial","10","false"
"html-button-response","26","330400","0.0-11.0-1.7","null","<p>A másik játékos ezt választotta: <b>spibádzom</b>.</p><p>&#10060;</p><p>A válaszaitok <b>nem</b> egyeznek meg.</p>","null","","","","feedback trial","",""
"html-button-response-esp","27","335805","0.0-11.0-0.8","4098","Te bizony sokat flérlesz. Én is sokat...","1","flérlek","[""flérlem"",""flérlek""]","flérlem","esp trial","10","false"
"html-button-response","28","339330","0.0-11.0-1.8","null","<p>A másik játékos ezt választotta: <b>flérlem</b>.</p><p>&#10060;</p><p>A válaszaitok <b>nem</b> egyeznek meg.</p>","null","","","","feedback trial","",""
"html-button-response-esp","29","344734","0.0-11.0-0.9","3277","Te bizony sokat fligzol. Én is sokat...","0","fligzok","[""fligzok"",""fligzom""]","fligzok","esp trial","10","true"
"html-button-response","30","348268","0.0-11.0-1.9","null","<p>A másik játékos ezt választotta: <b>fligzok</b>.</p><p>&#x2705;</p><p>A te válaszod és a másik játékos válasza <b>megegyeznek</b>.</p>","null","","","","feedback trial","",""
"html-button-response-esp","31","353699","0.0-11.0-0.10","3790","Te bizony sokat préleglesz. Én is sokat...","0","préleglek","[""préleglek"",""préleglem""]","préleglem","esp trial","10","false"
"html-button-response","32","357225","0.0-11.0-1.10","null","<p>A másik játékos ezt választotta: <b>préleglem</b>.</p><p>&#10060;</p><p>A válaszaitok <b>nem</b> egyeznek meg.</p>","null","","","","feedback trial","",""
"html-button-response-esp","33","362660","0.0-11.0-0.11","2733","Te bizony sokat ibáglasz. Én is sokat...","1","ibáglom","[""ibáglok"",""ibáglom""]","ibáglom","esp trial","10","true"
"html-button-response","34","366171","0.0-11.0-1.11","null","<p>A másik játékos ezt választotta: <b>ibáglom</b>.</p><p>&#x2705;</p><p>A te válaszod és a másik játékos válasza <b>megegyeznek</b>.</p>","null","","","","feedback trial","",""
"html-button-response-esp","35","371599","0.0-11.0-0.12","3453","Te bizony sokat floglasz. Én is sokat...","1","floglom","[""floglok"",""floglom""]","floglom","esp trial","10","true"
"html-button-response","36","375107","0.0-11.0-1.12","null","<p>A másik játékos ezt választotta: <b>floglom</b>.</p><p>&#x2705;</p><p>A te válaszod és a másik játékos válasza <b>megegyeznek</b>.</p>","null","","","","feedback trial","",""
"html-button-response-esp","37","380528","0.0-11.0-0.13","4066","Te bizony sokat spüszlesz. Én is sokat...","0","spüszlöm","[""spüszlöm"",""spüszlök""]","spüszlöm","esp trial","10","true"
"html-button-response","38","384037","0.0-11.0-1.13","null","<p>A másik játékos ezt választotta: <b>spüszlöm</b>.</p><p>&#x2705;</p><p>A te válaszod és a másik játékos válasza <b>megegyeznek</b>.</p>","null","","","","feedback trial","",""
"html-button-response-esp","39","389646","0.0-11.0-0.14","5093","Te bizony sokat tuboklasz. Én is sokat...","1","tuboklok","[""tuboklom"",""tuboklok""]","tuboklom","esp trial","10","false"
"html-button-response","40","393153","0.0-11.0-1.14","null","<p>A másik játékos ezt választotta: <b>tuboklom</b>.</p><p>&#10060;</p><p>A válaszaitok <b>nem</b> egyeznek meg.</p>","null","","","","feedback trial","",""
"html-button-response-esp","41","398562","0.0-11.0-0.15","3473","Te bizony sokat klárzol. Én is sokat...","0","klárzok","[""klárzok"",""klárzom""]","klárzom","esp trial","10","false"
"html-button-response","42","402085","0.0-11.0-1.15","null","<p>A másik játékos ezt választotta: <b>klárzom</b>.</p><p>&#10060;</p><p>A válaszaitok <b>nem</b> egyeznek meg.</p>","null","","","","feedback trial","",""
"html-button-response-esp","43","407518","0.0-11.0-0.16","4098","Te bizony sokat péleslesz. Én is sokat...","0","péleslem","[""péleslem"",""péleslek""]","péleslem","esp trial","10","true"
"html-button-response","44","411028","0.0-11.0-1.16","null","<p>A másik játékos ezt választotta: <b>péleslem</b>.</p><p>&#x2705;</p><p>A te válaszod és a másik játékos válasza <b>megegyeznek</b>.</p>","null","","","","feedback trial","",""
"html-button-response-esp","45","416446","0.0-11.0-0.17","4263","Te bizony sokat spatszol. Én is sokat...","0","spatszom","[""spatszom"",""spatszok""]","spatszok","esp trial","10","false"
"html-button-response","46","419972","0.0-11.0-1.17","null","<p>A másik játékos ezt választotta: <b>spatszok</b>.</p><p>&#10060;</p><p>A válaszaitok <b>nem</b> egyeznek meg.</p>","null","","","","feedback trial","",""
"html-button-response-esp","47","425405","0.0-11.0-0.18","3986","Te bizony sokat féjzel. Én is sokat...","1","féjzek","[""féjzem"",""féjzek""]","féjzem","esp trial","10","false"
"html-button-response","48","428924","0.0-11.0-1.18","null","<p>A másik játékos ezt választotta: <b>féjzem</b>.</p><p>&#10060;</p><p>A válaszaitok <b>nem</b> egyeznek meg.</p>","null","","","","feedback trial","",""
"html-button-response-esp","49","434337","0.0-11.0-0.19","4753","Te bizony sokat brarlasz. Én is sokat...","0","brarlok","[""brarlok"",""brarlom""]","brarlom","esp trial","10","false"
"html-button-response","50","437868","0.0-11.0-1.19","null","<p>A másik játékos ezt választotta: <b>brarlom</b>.</p><p>&#10060;</p><p>A válaszaitok <b>nem</b> egyeznek meg.</p>","null","","","","feedback trial","",""
"html-button-response-esp","51","443301","0.0-11.0-0.20","4455","Te bizony sokat gyivádzol. Én is sokat...","1","gyivádzom","[""gyivádzok"",""gyivádzom""]","gyivádzok","esp trial","10","false"
"html-button-response","52","446824","0.0-11.0-1.20","null","<p>A másik játékos ezt választotta: <b>gyivádzok</b>.</p><p>&#10060;</p><p>A válaszaitok <b>nem</b> egyeznek meg.</p>","null","","","","feedback trial","",""
"html-button-response-esp","53","452265","0.0-11.0-0.21","3742","Te bizony sokat lihadzol. Én is sokat...","0","lihadzok","[""lihadzok"",""lihadzom""]","lihadzom","esp trial","10","false"
"html-button-response","54","455779","0.0-11.0-1.21","null","<p>A másik játékos ezt választotta: <b>lihadzom</b>.</p><p>&#10060;</p><p>A válaszaitok <b>nem</b> egyeznek meg.</p>","null","","","","feedback trial","",""
"html-button-response-esp","55","461197","0.0-11.0-0.22","4295","Te bizony sokat prohódzol. Én is sokat...","1","prohódzom","[""prohódzok"",""prohódzom""]","prohódzok","esp trial","10","false"
"html-button-response","56","464717","0.0-11.0-1.22","null","<p>A másik játékos ezt választotta: <b>prohódzok</b>.</p><p>&#10060;</p><p>A válaszaitok <b>nem</b> egyeznek meg.</p>","null","","","","feedback trial","",""
"html-button-response-esp","57","470123","0.0-11.0-0.23","2842","Te bizony sokat flibekszel. Én is sokat...","0","flibekszem","[""flibekszem"",""flibekszek""]","flibekszek","esp trial","10","false"
"html-button-response","58","473629","0.0-11.0-1.23","null","<p>A másik játékos ezt választotta: <b>flibekszek</b>.</p><p>&#10060;</p><p>A válaszaitok <b>nem</b> egyeznek meg.</p>","null","","","","feedback trial","",""
"html-button-response-esp","59","479045","0.0-11.0-0.24","4360","Te bizony sokat frágapszol. Én is sokat...","1","frágapszom","[""frágapszok"",""frágapszom""]","frágapszok","esp trial","10","false"
"html-button-response","60","482578","0.0-11.0-1.24","null","<p>A másik játékos ezt választotta: <b>frágapszok</b>.</p><p>&#10060;</p><p>A válaszaitok <b>nem</b> egyeznek meg.</p>","null","","","","feedback trial","",""
"html-button-response-esp","61","487993","0.0-11.0-0.25","3732","Te bizony sokat friszlasz. Én is sokat...","1","friszlok","[""friszlom"",""friszlok""]","friszlom","esp trial","10","false"
"html-button-response","62","491506","0.0-11.0-1.25","null","<p>A másik játékos ezt választotta: <b>friszlom</b>.</p><p>&#10060;</p><p>A válaszaitok <b>nem</b> egyeznek meg.</p>","null","","","","feedback trial","",""
"html-button-response-esp","63","496909","0.0-11.0-0.26","2914","Te bizony sokat prezlesz. Én is sokat...","0","prezlek","[""prezlek"",""prezlem""]","prezlem","esp trial","10","false"
"html-button-response","64","500430","0.0-11.0-1.26","null","<p>A másik játékos ezt választotta: <b>prezlem</b>.</p><p>&#10060;</p><p>A válaszaitok <b>nem</b> egyeznek meg.</p>","null","","","","feedback trial","",""
"html-button-response-esp","65","505851","0.0-11.0-0.27","4344","Te bizony sokat gilárzol. Én is sokat...","0","gilárzom","[""gilárzom"",""gilárzok""]","gilárzok","esp trial","10","false"
"html-button-response","66","509380","0.0-11.0-1.27","null","<p>A másik játékos ezt választotta: <b>gilárzok</b>.</p><p>&#10060;</p><p>A válaszaitok <b>nem</b> egyeznek meg.</p>","null","","","","feedback trial","",""
"html-button-response-esp","67","514810","0.0-11.0-0.28","4473","Te bizony sokat vűjlesz. Én is sokat...","1","vűjlöm","[""vűjlök"",""vűjlöm""]","vűjlöm","esp trial","10","true"
"html-button-response","68","518321","0.0-11.0-1.28","null","<p>A másik játékos ezt választotta: <b>vűjlöm</b>.</p><p>&#x2705;</p><p>A te válaszod és a másik játékos válasza <b>megegyeznek</b>.</p>","null","","","","feedback trial","",""
"html-button-response-esp","69","524450","0.0-11.0-0.29","5623","Te bizony sokat táklasz. Én is sokat...","1","táklok","[""táklom"",""táklok""]","táklok","esp trial","10","true"
"html-button-response","70","527972","0.0-11.0-1.29","null","<p>A másik játékos ezt választotta: <b>táklok</b>.</p><p>&#x2705;</p><p>A te válaszod és a másik játékos válasza <b>megegyeznek</b>.</p>","null","","","","feedback trial","",""
"html-button-response-esp","71","533394","0.0-11.0-0.30","4919","Te bizony sokat bivejlesz. Én is sokat...","1","bivejlek","[""bivejlem"",""bivejlek""]","bivejlem","esp trial","10","false"
"html-button-response","72","536902","0.0-11.0-1.30","null","<p>A másik játékos ezt választotta: <b>bivejlem</b>.</p><p>&#10060;</p><p>A válaszaitok <b>nem</b> egyeznek meg.</p>","null","","","","feedback trial","",""
"html-button-response-esp","73","542326","0.0-11.0-0.31","4199","Te bizony sokat fivénylesz. Én is sokat...","1","fivénylem","[""fivénylek"",""fivénylem""]","fivénylem","esp trial","10","true"
"html-button-response","74","545860","0.0-11.0-1.31","null","<p>A másik játékos ezt választotta: <b>fivénylem</b>.</p><p>&#x2705;</p><p>A te válaszod és a másik játékos válasza <b>megegyeznek</b>.</p>","null","","","","feedback trial","",""
"html-button-response-esp","75","551286","0.0-11.0-0.32","2977","Te bizony sokat sprédlesz. Én is sokat...","0","sprédlem","[""sprédlem"",""sprédlek""]","sprédlem","esp trial","10","true"
"html-button-response","76","554809","0.0-11.0-1.32","null","<p>A másik játékos ezt választotta: <b>sprédlem</b>.</p><p>&#x2705;</p><p>A te válaszod és a másik játékos válasza <b>megegyeznek</b>.</p>","null","","","","feedback trial","",""
"html-button-response-esp","77","560232","0.0-11.0-0.33","4760","Te bizony sokat spülöklesz. Én is sokat...","0","spülöklöm","[""spülöklöm"",""spülöklök""]","spülöklöm","esp trial","10","true"
"html-button-response","78","563744","0.0-11.0-1.33","null","<p>A másik játékos ezt választotta: <b>spülöklöm</b>.</p><p>&#x2705;</p><p>A te válaszod és a másik játékos válasza <b>megegyeznek</b>.</p>","null","","","","feedback trial","",""
"html-button-response-esp","79","569161","0.0-11.0-0.34","2293","Te bizony sokat klidlasz. Én is sokat...","1","klidlom","[""klidlok"",""klidlom""]","klidlom","esp trial","10","true"
"html-button-response","80","572668","0.0-11.0-1.34","null","<p>A másik játékos ezt választotta: <b>klidlom</b>.</p><p>&#x2705;</p><p>A te válaszod és a másik játékos válasza <b>megegyeznek</b>.</p>","null","","","","feedback trial","",""
"html-button-response-esp","81","578094","0.0-11.0-0.35","2638","Te bizony sokat prihekszel. Én is sokat...","0","prihekszem","[""prihekszem"",""prihekszek""]","prihekszem","esp trial","10","true"
"html-button-response","82","581625","0.0-11.0-1.35","null","<p>A másik játékos ezt választotta: <b>prihekszem</b>.</p><p>&#x2705;</p><p>A te válaszod és a másik játékos válasza <b>megegyeznek</b>.</p>","null","","","","feedback trial","",""
"html-button-response-esp","83","587043","0.0-11.0-0.36","2669","Te bizony sokat zödlesz. Én is sokat...","0","zödlöm","[""zödlöm"",""zödlök""]","zödlöm","esp trial","10","true"
"html-button-response","84","590563","0.0-11.0-1.36","null","<p>A másik játékos ezt választotta: <b>zödlöm</b>.</p><p>&#x2705;</p><p>A te válaszod és a másik játékos válasza <b>megegyeznek</b>.</p>","null","","","","feedback trial","",""
"html-button-response-esp","85","595991","0.0-11.0-0.37","2348","Te bizony sokat huklasz. Én is sokat...","0","huklom","[""huklom"",""huklok""]","huklom","esp trial","10","true"
"html-button-response","86","599500","0.0-11.0-1.37","null","<p>A másik játékos ezt választotta: <b>huklom</b>.</p><p>&#x2705;</p><p>A te válaszod és a másik játékos válasza <b>megegyeznek</b>.</p>","null","","","","feedback trial","",""
"html-button-response-esp","87","604911","0.0-11.0-0.38","2148","Te bizony sokat szűslesz. Én is sokat...","1","szűslöm","[""szűslök"",""szűslöm""]","szűslöm","esp trial","10","true"
"html-button-response","88","608442","0.0-11.0-1.38","null","<p>A másik játékos ezt választotta: <b>szűslöm</b>.</p><p>&#x2705;</p><p>A te válaszod és a másik játékos válasza <b>megegyeznek</b>.</p>","null","","","","feedback trial","",""
"html-button-response-esp","89","613844","0.0-11.0-0.39","2571","Te bizony sokat drügzöl. Én is sokat...","1","drügzöm","[""drügzök"",""drügzöm""]","drügzöm","esp trial","10","true"
"html-button-response","90","617359","0.0-11.0-1.39","null","<p>A másik játékos ezt választotta: <b>drügzöm</b>.</p><p>&#x2705;</p><p>A te válaszod és a másik játékos válasza <b>megegyeznek</b>.</p>","null","","","","feedback trial","",""
"html-button-response-esp","91","622788","0.0-11.0-0.40","3194","Te bizony sokat flözlesz. Én is sokat...","1","flözlöm","[""flözlök"",""flözlöm""]","flözlöm","esp trial","10","true"
"html-button-response","92","626305","0.0-11.0-1.40","null","<p>A másik játékos ezt választotta: <b>flözlöm</b>.</p><p>&#x2705;</p><p>A te válaszod és a másik játékos válasza <b>megegyeznek</b>.</p>","null","","","","feedback trial","",""
"html-button-response-esp","93","631717","0.0-11.0-0.41","2102","Te bizony sokat plövőrzöl. Én is sokat...","0","plövőrzöm","[""plövőrzöm"",""plövőrzök""]","plövőrzöm","esp trial","10","true"
"html-button-response","94","635242","0.0-11.0-1.41","null","<p>A másik játékos ezt választotta: <b>plövőrzöm</b>.</p><p>&#x2705;</p><p>A te válaszod és a másik játékos válasza <b>megegyeznek</b>.</p>","null","","","","feedback trial","",""
"html-button-response-esp","95","640668","0.0-11.0-0.42","3226","Te bizony sokat plágadzol. Én is sokat...","1","plágadzom","[""plágadzok"",""plágadzom""]","plágadzok","esp trial","10","false"
"html-button-response","96","644182","0.0-11.0-1.42","null","<p>A másik játékos ezt választotta: <b>plágadzok</b>.</p><p>&#10060;</p><p>A válaszaitok <b>nem</b> egyeznek meg.</p>","null","","","","feedback trial","",""
"html-button-response-esp","97","649612","0.0-11.0-0.43","2425","Te bizony sokat gyibakszol. Én is sokat...","1","gyibakszok","[""gyibakszom"",""gyibakszok""]","gyibakszok","esp trial","10","true"
"html-button-response","98","653133","0.0-11.0-1.43","null","<p>A másik játékos ezt választotta: <b>gyibakszok</b>.</p><p>&#x2705;</p><p>A te válaszod és a másik játékos válasza <b>megegyeznek</b>.</p>","null","","","","feedback trial","",""
"html-button-response-esp","99","658539","0.0-11.0-0.44","1714","Te bizony sokat praslasz. Én is sokat...","1","praslok","[""praslom"",""praslok""]","praslom","esp trial","10","false"
"html-button-response","100","662055","0.0-11.0-1.44","null","<p>A másik játékos ezt választotta: <b>praslom</b>.</p><p>&#10060;</p><p>A válaszaitok <b>nem</b> egyeznek meg.</p>","null","","","","feedback trial","",""
"html-button-response-esp","101","667463","0.0-11.0-0.45","1860","Te bizony sokat spülőrzöl. Én is sokat...","0","spülőrzök","[""spülőrzök"",""spülőrzöm""]","spülőrzöm","esp trial","10","false"
"html-button-response","102","670972","0.0-11.0-1.45","null","<p>A másik játékos ezt választotta: <b>spülőrzöm</b>.</p><p>&#10060;</p><p>A válaszaitok <b>nem</b> egyeznek meg.</p>","null","","","","feedback trial","",""
"html-button-response-esp","103","676391","0.0-11.0-0.46","1470","Te bizony sokat trihagzol. Én is sokat...","1","trihagzom","[""trihagzok"",""trihagzom""]","trihagzok","esp trial","10","false"
"html-button-response","104","679910","0.0-11.0-1.46","null","<p>A másik játékos ezt választotta: <b>trihagzok</b>.</p><p>&#10060;</p><p>A válaszaitok <b>nem</b> egyeznek meg.</p>","null","","","","feedback trial","",""
"html-button-response-esp","105","685335","0.0-11.0-0.47","1330","Te bizony sokat mékszel. Én is sokat...","1","mékszem","[""mékszek"",""mékszem""]","mékszem","esp trial","10","true"
"html-button-response","106","688853","0.0-11.0-1.47","null","<p>A másik játékos ezt választotta: <b>mékszem</b>.</p><p>&#x2705;</p><p>A te válaszod és a másik játékos válasza <b>megegyeznek</b>.</p>","null","","","","feedback trial","",""
"html-button-response-esp","107","694266","0.0-11.0-0.48","1813","Te bizony sokat vihepszel. Én is sokat...","1","vihepszem","[""vihepszek"",""vihepszem""]","vihepszek","esp trial","10","false"
"html-button-response","108","697778","0.0-11.0-1.48","null","<p>A másik játékos ezt választotta: <b>vihepszek</b>.</p><p>&#10060;</p><p>A válaszaitok <b>nem</b> egyeznek meg.</p>","null","","","","feedback trial","",""
"html-button-response-esp","109","703196","0.0-11.0-0.49","1128","Te bizony sokat kumlasz. Én is sokat...","1","kumlom","[""kumlok"",""kumlom""]","kumlom","esp trial","10","true"
"html-button-response","110","706728","0.0-11.0-1.49","null","<p>A másik játékos ezt választotta: <b>kumlom</b>.</p><p>&#x2705;</p><p>A te válaszod és a másik játékos válasza <b>megegyeznek</b>.</p>","null","","","","feedback trial","",""
"html-button-response-esp","111","712157","0.0-11.0-0.50","1611","Te bizony sokat frivajlasz. Én is sokat...","0","frivajlok","[""frivajlok"",""frivajlom""]","frivajlom","esp trial","10","false"
"html-button-response","112","715671","0.0-11.0-1.50","null","<p>A másik játékos ezt választotta: <b>frivajlom</b>.</p><p>&#10060;</p><p>A válaszaitok <b>nem</b> egyeznek meg.</p>","null","","","","feedback trial","",""
"html-button-response-esp","113","721084","0.0-11.0-0.51","2175","Te bizony sokat sztruglasz. Én is sokat...","0","sztruglok","[""sztruglok"",""sztruglom""]","sztruglom","esp trial","10","false"
"html-button-response","114","724606","0.0-11.0-1.51","null","<p>A másik játékos ezt választotta: <b>sztruglom</b>.</p><p>&#10060;</p><p>A válaszaitok <b>nem</b> egyeznek meg.</p>","null","","","","feedback trial","",""
"html-button-response-esp","115","730028","0.0-11.0-0.52","1725","Te bizony sokat spírzol. Én is sokat...","0","spírzom","[""spírzom"",""spírzok""]","spírzom","esp trial","10","true"
"html-button-response","116","733555","0.0-11.0-1.52","null","<p>A másik játékos ezt választotta: <b>spírzom</b>.</p><p>&#x2705;</p><p>A te válaszod és a másik játékos válasza <b>megegyeznek</b>.</p>","null","","","","feedback trial","",""
"html-button-response-esp","117","738975","0.0-11.0-0.53","1807","Te bizony sokat pugoslasz. Én is sokat...","0","pugoslom","[""pugoslom"",""pugoslok""]","pugoslom","esp trial","10","true"
"html-button-response","118","742492","0.0-11.0-1.53","null","<p>A másik játékos ezt választotta: <b>pugoslom</b>.</p><p>&#x2705;</p><p>A te válaszod és a másik játékos válasza <b>megegyeznek</b>.</p>","null","","","","feedback trial","",""
"html-button-response","119","755450","0.0-12.0","12456","<p>A közös játék most véget ért.</p><p>Mielőtt eláruljuk a végső pontszámodat, arra kérlek, játszd a szóválasztós játékot néhány percig egyedül is.</p><p>A feladatod ugyanaz lesz, választani két lehetőség közül.</p><p>Most viszont egyedül kell döntened, hogy te melyiket választanád.</p>","0","","","","","",""
"html-button-response-clever","120","759118","0.0-13.0-0.0","3160","Te bizony sokat spatárzol. Én is sokat...","1","spatárzom","[""spatárzok"",""spatárzom""]","","posttest trial","1",""
"html-button-response-clever","121","766194","0.0-13.0-0.1","6568","Te bizony sokat ribegzel. Én is sokat...","1","ribegzek","[""ribegzem"",""ribegzek""]","","posttest trial","1",""
"html-button-response-clever","122","773234","0.0-13.0-0.2","6538","Te bizony sokat fibamlasz. Én is sokat...","0","fibamlok","[""fibamlok"",""fibamlom""]","","posttest trial","1",""
"html-button-response-clever","123","778874","0.0-13.0-0.3","5129","Te bizony sokat femlesz. Én is sokat...","0","femlek","[""femlek"",""femlem""]","","posttest trial","1",""
"html-button-response-clever","124","783394","0.0-13.0-0.4","4002","Te bizony sokat tínylasz. Én is sokat...","0","tínylok","[""tínylok"",""tínylom""]","","posttest trial","1",""
"html-button-response-clever","125","788114","0.0-13.0-0.5","4208","Te bizony sokat málapszol. Én is sokat...","1","málapszom","[""málapszok"",""málapszom""]","","posttest trial","1",""
"html-button-response-clever","126","793202","0.0-13.0-0.6","4585","Te bizony sokat lorjódzol. Én is sokat...","1","lorjódzom","[""lorjódzok"",""lorjódzom""]","","posttest trial","1",""
"html-button-response-clever","127","798019","0.0-13.0-0.7","4313","Te bizony sokat hilarzol. Én is sokat...","0","hilarzom","[""hilarzom"",""hilarzok""]","","posttest trial","1",""
"html-button-response-clever","128","803730","0.0-13.0-0.8","5197","Te bizony sokat klibamlasz. Én is sokat...","1","klibamlok","[""klibamlom"",""klibamlok""]","","posttest trial","1",""
"html-button-response-clever","129","808450","0.0-13.0-0.9","4202","Te bizony sokat ribzol. Én is sokat...","0","ribzom","[""ribzom"",""ribzok""]","","posttest trial","1",""
"html-button-response-clever","130","814454","0.0-13.0-0.10","5498","Te bizony sokat drubódzol. Én is sokat...","0","drubódzok","[""drubódzok"",""drubódzom""]","","posttest trial","1",""
"html-button-response-clever","131","820994","0.0-13.0-0.11","6034","Te bizony sokat spűmlesz. Én is sokat...","1","spűmlök","[""spűmlöm"",""spűmlök""]","","posttest trial","1",""
"html-button-response-clever","132","825878","0.0-13.0-0.12","4365","Te bizony sokat vilakszol. Én is sokat...","1","vilakszom","[""vilakszok"",""vilakszom""]","","posttest trial","1",""
"html-button-response-clever","133","828386","0.0-13.0-0.13","1994","Te bizony sokat flagánylasz. Én is sokat...","1","flagánylom","[""flagánylok"",""flagánylom""]","","posttest trial","1",""
"html-button-response-clever","134","831622","0.0-13.0-0.14","2724","Te bizony sokat böjzöl. Én is sokat...","0","böjzök","[""böjzök"",""böjzöm""]","","posttest trial","1",""
"html-button-response-clever","135","834570","0.0-13.0-0.15","2446","Te bizony sokat juszlasz. Én is sokat...","0","juszlok","[""juszlok"",""juszlom""]","","posttest trial","1",""
"html-button-response-clever","136","837266","0.0-13.0-0.16","2189","Te bizony sokat tiregzel. Én is sokat...","1","tiregzem","[""tiregzek"",""tiregzem""]","","posttest trial","1",""
"html-button-response-clever","137","840210","0.0-13.0-0.17","2441","Te bizony sokat marzol. Én is sokat...","0","marzok","[""marzok"",""marzom""]","","posttest trial","1",""
"html-button-response-clever","138","844494","0.0-13.0-0.18","3778","Te bizony sokat brágaklasz. Én is sokat...","0","brágaklok","[""brágaklok"",""brágaklom""]","","posttest trial","1",""
"html-button-response-clever","139","848586","0.0-13.0-0.19","3589","Te bizony sokat siladzol. Én is sokat...","1","siladzom","[""siladzok"",""siladzom""]","","posttest trial","1",""
"html-button-response-clever","140","852102","0.0-13.0-0.20","3012","Te bizony sokat szirlasz. Én is sokat...","1","szirlom","[""szirlok"",""szirlom""]","","posttest trial","1",""
"html-button-response-clever","141","856834","0.0-13.0-0.21","4221","Te bizony sokat flagárzol. Én is sokat...","0","flagárzom","[""flagárzom"",""flagárzok""]","","posttest trial","1",""
"html-button-response-clever","142","860874","0.0-13.0-0.22","3525","Te bizony sokat sűzlesz. Én is sokat...","1","sűzlök","[""sűzlöm"",""sűzlök""]","","posttest trial","1",""
"html-button-response-clever","143","865190","0.0-13.0-0.23","3806","Te bizony sokat herégszel. Én is sokat...","0","herégszem","[""herégszem"",""herégszek""]","","posttest trial","1",""
"html-button-response-clever","144","871142","0.0-13.0-0.24","5435","Te bizony sokat ruslasz. Én is sokat...","1","ruslom","[""ruslok"",""ruslom""]","","posttest trial","1",""
"html-button-response-clever","145","874638","0.0-13.0-0.25","2990","Te bizony sokat driládzol. Én is sokat...","1","driládzom","[""driládzok"",""driládzom""]","","posttest trial","1",""
"html-button-response-clever","146","878102","0.0-13.0-0.26","2946","Te bizony sokat prűrlesz. Én is sokat...","0","prűrlök","[""prűrlök"",""prűrlöm""]","","posttest trial","1",""
"html-button-response-clever","147","880894","0.0-13.0-0.27","2283","Te bizony sokat sojzol. Én is sokat...","1","sojzom","[""sojzok"",""sojzom""]","","posttest trial","1",""
"html-button-response-clever","148","885830","0.0-13.0-0.28","4425","Te bizony sokat feténylesz. Én is sokat...","1","feténylem","[""feténylek"",""feténylem""]","","posttest trial","1",""
"html-button-response-clever","149","888950","0.0-13.0-0.29","2602","Te bizony sokat bölszöl. Én is sokat...","1","bölszöm","[""bölszök"",""bölszöm""]","","posttest trial","1",""
"html-button-response-clever","150","891654","0.0-13.0-0.30","2188","Te bizony sokat pebzel. Én is sokat...","0","pebzem","[""pebzem"",""pebzek""]","","posttest trial","1",""
"html-button-response-clever","151","899214","0.0-13.0-0.31","7052","Te bizony sokat jüslesz. Én is sokat...","1","jüslök","[""jüslöm"",""jüslök""]","","posttest trial","1",""
"html-button-response-clever","152","905166","0.0-13.0-0.32","5440","Te bizony sokat piragszol. Én is sokat...","1","piragszom","[""piragszok"",""piragszom""]","","posttest trial","1",""
"html-button-response-clever","153","907718","0.0-13.0-0.33","2038","Te bizony sokat fretszel. Én is sokat...","1","fretszem","[""fretszek"",""fretszem""]","","posttest trial","1",""
"html-button-response-clever","154","916934","0.0-13.0-0.34","8704","Te bizony sokat flüröslesz. Én is sokat...","0","flüröslöm","[""flüröslöm"",""flüröslök""]","","posttest trial","1",""
"html-button-response-clever","155","921158","0.0-13.0-0.35","3711","Te bizony sokat sztremlesz. Én is sokat...","1","sztremlek","[""sztremlem"",""sztremlek""]","","posttest trial","1",""
"html-button-response-clever","156","924198","0.0-13.0-0.36","2537","Te bizony sokat flűröklesz. Én is sokat...","0","flűröklöm","[""flűröklöm"",""flűröklök""]","","posttest trial","1",""
"html-button-response-clever","157","927014","0.0-13.0-0.37","2301","Te bizony sokat pivegszel. Én is sokat...","0","pivegszem","[""pivegszem"",""pivegszek""]","","posttest trial","1",""
"html-button-response-clever","158","929894","0.0-13.0-0.38","2364","Te bizony sokat trilszol. Én is sokat...","1","trilszom","[""trilszok"",""trilszom""]","","posttest trial","1",""
"html-button-response-clever","159","933902","0.0-13.0-0.39","3488","Te bizony sokat klörlesz. Én is sokat...","1","klörlöm","[""klörlök"",""klörlöm""]","","posttest trial","1",""
"html-button-response-clever","160","936630","0.0-13.0-0.40","2221","Te bizony sokat nyáslasz. Én is sokat...","1","nyáslom","[""nyáslok"",""nyáslom""]","","posttest trial","1",""
"html-button-response-clever","161","939511","0.0-13.0-0.41","2364","Te bizony sokat pratánylasz. Én is sokat...","1","pratánylok","[""pratánylom"",""pratánylok""]","","posttest trial","1",""
"html-button-response-clever","162","942230","0.0-13.0-0.42","2206","Te bizony sokat sprökszöl. Én is sokat...","0","sprökszöm","[""sprökszöm"",""sprökszök""]","","posttest trial","1",""
"html-button-response-clever","163","945134","0.0-13.0-0.43","2401","Te bizony sokat sprogzol. Én is sokat...","1","sprogzom","[""sprogzok"",""sprogzom""]","","posttest trial","1",""
"html-button-response-clever","164","948102","0.0-13.0-0.44","2453","Te bizony sokat csíszlasz. Én is sokat...","0","csíszlok","[""csíszlok"",""csíszlom""]","","posttest trial","1",""
"html-button-response-clever","165","952522","0.0-13.0-0.45","3909","Te bizony sokat spilágzol. Én is sokat...","1","spilágzom","[""spilágzok"",""spilágzom""]","","posttest trial","1",""
"html-button-response-clever","166","955590","0.0-13.0-0.46","2546","Te bizony sokat frilegszel. Én is sokat...","1","frilegszem","[""frilegszek"",""frilegszem""]","","posttest trial","1",""
"html-button-response-clever","167","958750","0.0-13.0-0.47","2641","Te bizony sokat tomlasz. Én is sokat...","1","tomlom","[""tomlok"",""tomlom""]","","posttest trial","1",""
"html-button-response-clever","168","961150","0.0-13.0-0.48","1886","Te bizony sokat spibaklasz. Én is sokat...","0","spibaklok","[""spibaklok"",""spibaklom""]","","posttest trial","1",""
"html-button-response-clever","169","964262","0.0-13.0-0.49","2595","Te bizony sokat spéslesz. Én is sokat...","1","spéslek","[""spéslem"",""spéslek""]","","posttest trial","1",""
"html-button-response-clever","170","966435","0.0-13.0-0.50","1664","Te bizony sokat büglesz. Én is sokat...","0","büglök","[""büglök"",""büglöm""]","","posttest trial","1",""
"html-button-response-clever","171","970826","0.0-13.0-0.51","3878","Te bizony sokat narjárzol. Én is sokat...","0","narjárzok","[""narjárzok"",""narjárzom""]","","posttest trial","1",""
"html-button-response-clever","172","973054","0.0-13.0-0.52","1717","Te bizony sokat prilegzel. Én is sokat...","0","prilegzem","[""prilegzem"",""prilegzek""]","","posttest trial","1",""
"html-button-response-clever","173","977410","0.0-13.0-0.53","3853","Te bizony sokat brüjlesz. Én is sokat...","1","brüjlök","[""brüjlöm"",""brüjlök""]","","posttest trial","1",""
"html-button-response","174","997582","0.0-14.0","19655","<p> Vége a játéknak. A teljes pontszámod 26/54.</p><p> Szép munka! &#128526;&#128526;&#128526;</p><p>A Befejezés gomb megnyomása után bezárhatod a böngészőablakot.</p>","0","","","","","",""
"html-keyboard-response","175","1003099","0.0-15.0","null","<div class=""message"">
         <p>Egy kis türelmet kérünk, amíg elmentjük az adatokat...</p>
         </div>","null","","","","","",""
