"trial_type","trial_index","time_elapsed","internal_node_id","rt","stimulus","response","response_string","choices","esp_response","trial_kind","list_number","esp_match"
"pavlovia","0","827","0.0-0.0","","","","","","","","",""
"html-button-response","1","7884","0.0-1.0","6552","<p>Kedves Résztvevő! A Budapesti Műszaki és Gazdaságtudományi Egyetem Kognitív Tudományi Tanszékének kutatásában való részvételed kérjük. A kutatásban azt vizsgáljuk, hogy a magyar anyanyelvűek hogyan használnak bizonyos szóalakokat, és hogy milyen képük van arról, hogy mások hogyan használják, hogyan képzik a szavakat. Ez hozzásegít bennünket ahhoz, hogy jobban megértsük, hogyan dolgozza fel és tárolja a nyelvet az emberi agy, és hogyan működnek, hogyan változnak egy adott közösség nyelvi konvenciói.</p><p>A vizsgálat egy rövid számítógépes feladatból fog állni. A kutatásban való részvétel önkéntes, a részvételi szándék bármikor visszavonható. A résztvevők eredményeit név nélkül kezeljük, így nem beazonosíthatók az adatok feldolgozása során. Minden személyes adatot az EU általános adatvédelmi rendeletének (GDPR) megfelelően kezelünk és legfeljebb öt éven belül megsemmisítünk. A vizsgálat jellemzően húsz percet vesz igénybe.</p><p>Kutatásvezető:</p><p>Dr. Rácz Péter, tudományos munkatárs, BME KTT</p><p>e-mail: racz.peter.marton@ttk.bme.hu</p>","0","","","","","",""
"html-button-response","2","51451","0.0-2.0","43064","<p>A kísérletben szavakat fogsz látni. Ezek között lesznek olyanok, amelyeket ismersz, de előfordulhatnak olyanok is, amelyeket nem ismersz, sőt, vannak köztük kitalált szavak is. Minden szónál látni fogsz toldalékolt alakokat. A te feladatod az lesz, hogy minden szóhoz kiválaszd azt a toldalékolt alakot, amely a te számodra ismerősebben, természetesebben hangzik. Rossz válaszok nincsenek, mert van olyan, hogy különböző embereknek más és más szó tűnik jobb választásnak. A választ úgy tudod majd kiválasztani, ha rákattintasz.</p><p>Ebben a szóválasztós játékban egy másik játékossal együtt veszel majd részt. A másik játékos is minden esetben azok közül a lehetőségek közül válogathat, mint te. Kettőtök feladata az, hogy ugyanazt a lehetőséget válasszátok minden esetben. Ahhoz, hogy ez sikerüljön, neked figyelned kell arra, hogy a másik játékos milyen válaszokat ad, és ennek alapján meg kell tippelned, hogyan választ legközelebb. Ha eltalálod, akkor pontot kapsz.</p>","0","","","","","",""
"html-button-response","3","69202","0.0-3.0","17249","<p>Kérjük, olvasd el az alábbi nyilatkozatot, és amennyiben egyetértesz vele, nyomj a Beleegyezés gombra!</p><p>Kijelentem, hogy magyar anyanyelvű személyként önként veszek részt a BME KTT kísérletében. A kutatás céljával és folyamatával kapcsolatban elegendő tájékoztatást kaptam, lehetőségem volt kérdések feltételére, és esetleges kérdéseimre megfelelő válaszokat kaptam. A tájékoztatás alapján elegendő mennyiségű információ áll a rendelkezésemre, hogy eldönthessem, részt kívánok-e venni a kutatásban.</p><p>Tisztában vagyok vele, hogy részvételi szándékomat és adataimat bármikor, indoklás nélkül visszavonhatom.</p><p>Értem és tudomásul veszem, hogy a kutatás tudományos célokat szolgál, és az általam szolgáltatott adatokat a BME kizárólag kutatási célból használja fel. Tudomásul veszem, hogy eredményeimet a többi résztvevő eredményeivel együtt kezelik, így egyéni teljesítményemről visszajelzést, szakvéleményt nem kapok.</p><p>Megértettem, hogy adataim kezelését illetően a BME az EU általános adatvédelmi rendelete (GDPR), a hatályos adatvédelmi törvény és a nemzetközi kutatás-etikai alapelvek szerint jár el. Eredményeim anonim módon kerülnek feldolgozásra, és a kutatás résztvevői az azonosításomra alkalmas adataimat harmadik félnek nem szolgáltatják ki. Engedélyezem a BME számára a jelen kutatásban felvett adataim feldolgozását és tárolását, beleértve azok későbbi kutatásokhoz való felhasználását is. Személyes adataim kezelésével kapcsolatban tájékoztatást kérhetek a kutatás résztvevőitől, az adatkezelés ellen tiltakozhatok, kérhetem személyes adataim helyesbítését, törlését vagy zárolását, valamint jogorvoslatért a Nemzeti Adatvédelmi és Információszabadság Hatósághoz fordulhatok.</p><p>Kijelentem, hogy a kutatásban való részvételem körülményeiről részletes tájékoztatást kaptam, és a feltételeket elfogadom.</p>","0","","","","","",""
"survey-text","4","107891","0.0-4.0","38167","","{""Q0"":""JC5HGE"",""Q1"":""NŐ"",""Q2"":""1999"",""Q3"":""18""}","","","","","",""
"html-button-response","5","125730","0.0-5.0","17328","<p>Ebben a játékban szavakat kell toldalékolni.</p> <p>Minden körben mutatunk majd egy példamondatot, amiben lesz egy szó.</p> <p>Alatta jön egy második mondat, ezt a mondatot neked kell majd befejezni, ugyanezzel a szóval.</p> <p>Nem biztos, hogy a szó eleve ismerős lesz számodra!</p> <p>Minden mondathoz adunk két lehetőséget, ezeket balra és jobbra látod majd.</p> <p>A játék kb. negyedóráig-húsz percig tart.</p>","0","","","","","",""
"html-button-response","6","142427","0.0-6.0","16193","<p>Nézzünk egy példát!</p> <p>A példamondat: ""János imád fláramolni, ezért sokat fláramlik.""</p><p>Neked ezt a mondatot kell befejezned: ""Ti ritkán...""</p><p>A lehetőségek pedig ezek:</p>","0","","","","","",""
"html-button-response","7","156274","0.0-7.0","13330","<p>Nagyon jó.</p><p>Ezt a játékot nem egyedül fogod játszani, hanem egy másik játékossal.</p><p>Mielőtt továbblépünk, összekapcsolunk titeket egymással.</p><p>Ez igénybe vehet néhány másodpercet, amihez szíves türelmed kérjük.</p>","0","","","","","",""
"html-button-response","8","162007","0.0-8.0","null","<p>Csatlakozás a másik játékoshoz...</p>","null","","","","","",""
"html-button-response","9","164534","0.0-9.0","null","<p> Sikeres kapcsolódás!</p>","null","","","","","",""
"html-button-response","10","175047","0.0-10.0","null","<p>A következőkben ketten játsszátok a szóválasztós játékot.</p><p>A feladatotok az lesz, hogy minden körben <b>ugyanazt</b> a szót válasszátok.</p><p>Minden ilyen egyező válaszért pontot kaptok.</p><p>Próbáld meg kitalálni, mit választ a másik játékos!</p><p>Bármikor választhatsz, a körnek akkor van vége, ha mindketten döntöttetek.</p><p>Sok sikert!</p>","null","","","","","",""
"html-button-response-esp","11","180347","0.0-11.0-0.0","4795","János imád sűjözni, ezért sokat sűjlik. Mi ritkán...","0","sűjözünk","[""sűjözünk"",""sűjlünk""]","sűjlünk","esp trial","3","false"
"html-button-response","12","183853","0.0-11.0-1.0","null","<p>A másik játékos ezt választotta: <b>sűjlünk</b>.</p><p>&#10060;</p><p>A válaszaitok <b>nem</b> egyeznek meg.</p>","null","","","","feedback trial","",""
"html-button-response-esp","13","193514","0.0-11.0-0.1","9149","János imád géregezni, ezért sokat géreglik. Ti ritkán...","1","géregeztek","[""géregletek"",""géregeztek""]","géregeztek","esp trial","3","true"
"html-button-response","14","197034","0.0-11.0-1.1","null","<p>A másik játékos ezt választotta: <b>géregeztek</b>.</p><p>&#x2705;</p><p>A te válaszod és a másik játékos válasza <b>megegyeznek</b>.</p>","null","","","","feedback trial","",""
"html-button-response-esp","15","203499","0.0-11.0-0.2","5946","János imád prihegedni, ezért sokat prihegszik. Ők ritkán...","1","prihegednek","[""prihegszenek"",""prihegednek""]","prihegednek","esp trial","3","true"
"html-button-response","16","207009","0.0-11.0-1.2","null","<p>A másik játékos ezt választotta: <b>prihegednek</b>.</p><p>&#x2705;</p><p>A te válaszod és a másik játékos válasza <b>megegyeznek</b>.</p>","null","","","","feedback trial","",""
"html-button-response-esp","17","213090","0.0-11.0-0.3","5574","János imád flodozni, ezért sokat flodlik. Ti ritkán...","1","flodoztok","[""flodlotok"",""flodoztok""]","flodoztok","esp trial","3","true"
"html-button-response","18","216607","0.0-11.0-1.3","null","<p>A másik játékos ezt választotta: <b>flodoztok</b>.</p><p>&#x2705;</p><p>A te válaszod és a másik játékos válasza <b>megegyeznek</b>.</p>","null","","","","feedback trial","",""
"html-button-response-esp","19","222386","0.0-11.0-0.4","5262","János imád trilekedni, ezért sokat trilekszik. Ti ritkán...","0","trilekedtek","[""trilekedtek"",""trilekszetek""]","trilekedtek","esp trial","3","true"
"html-button-response","20","225905","0.0-11.0-1.4","null","<p>A másik játékos ezt választotta: <b>trilekedtek</b>.</p><p>&#x2705;</p><p>A te válaszod és a másik játékos válasza <b>megegyeznek</b>.</p>","null","","","","feedback trial","",""
"html-button-response-esp","21","235204","0.0-11.0-0.5","8797","János imád ribegedni, ezért sokat ribegszik. Ti ritkán...","1","ribegszetek","[""ribegedtek"",""ribegszetek""]","ribegedtek","esp trial","3","false"
"html-button-response","22","238712","0.0-11.0-1.5","null","<p>A másik játékos ezt választotta: <b>ribegedtek</b>.</p><p>&#10060;</p><p>A válaszaitok <b>nem</b> egyeznek meg.</p>","null","","","","feedback trial","",""
"html-button-response-esp","23","247171","0.0-11.0-0.6","7955","János imád klűmözni, ezért sokat klűmlik. Ti ritkán...","0","klűmöztök","[""klűmöztök"",""klűmlötök""]","klűmöztök","esp trial","3","true"
"html-button-response","24","250690","0.0-11.0-1.6","null","<p>A másik játékos ezt választotta: <b>klűmöztök</b>.</p><p>&#x2705;</p><p>A te válaszod és a másik játékos válasza <b>megegyeznek</b>.</p>","null","","","","feedback trial","",""
"html-button-response-esp","25","256834","0.0-11.0-0.7","5627","János imád hubonyozni, ezért sokat hubonylik. Ti ritkán...","1","hubonyoztok","[""hubonylotok"",""hubonyoztok""]","hubonyoztok","esp trial","3","true"
"html-button-response","26","260353","0.0-11.0-1.7","null","<p>A másik játékos ezt választotta: <b>hubonyoztok</b>.</p><p>&#x2705;</p><p>A te válaszod és a másik játékos válasza <b>megegyeznek</b>.</p>","null","","","","feedback trial","",""
"html-button-response-esp","27","270826","0.0-11.0-0.8","9968","János imád dibágozni, ezért sokat dibáglik. Ti ritkán...","1","dibágoztok","[""dibáglotok"",""dibágoztok""]","dibágoztok","esp trial","3","true"
"html-button-response","28","274342","0.0-11.0-1.8","null","<p>A másik játékos ezt választotta: <b>dibágoztok</b>.</p><p>&#x2705;</p><p>A te válaszod és a másik játékos válasza <b>megegyeznek</b>.</p>","null","","","","feedback trial","",""
"html-button-response-esp","29","281082","0.0-11.0-0.9","6236","János imád flugonyozni, ezért sokat flugonylik. Ők ritkán...","1","flugonyoznak","[""flugonylanak"",""flugonyoznak""]","flugonyoznak","esp trial","3","true"
"html-button-response","30","284596","0.0-11.0-1.9","null","<p>A másik játékos ezt választotta: <b>flugonyoznak</b>.</p><p>&#x2705;</p><p>A te válaszod és a másik játékos válasza <b>megegyeznek</b>.</p>","null","","","","feedback trial","",""
"html-button-response-esp","31","297778","0.0-11.0-0.10","12680","János imád dralágozni, ezért sokat dralágzik. Mi ritkán...","1","dralágozunk","[""dralágzunk"",""dralágozunk""]","dralágzunk","esp trial","3","false"
"html-button-response","32","301294","0.0-11.0-1.10","null","<p>A másik játékos ezt választotta: <b>dralágzunk</b>.</p><p>&#10060;</p><p>A válaszaitok <b>nem</b> egyeznek meg.</p>","null","","","","feedback trial","",""
"html-button-response-esp","33","308634","0.0-11.0-0.11","6837","János imád brűközni, ezért sokat brűklik. Ti ritkán...","1","brűköztök","[""brűklötök"",""brűköztök""]","brűköztök","esp trial","3","true"
"html-button-response","34","312144","0.0-11.0-1.11","null","<p>A másik játékos ezt választotta: <b>brűköztök</b>.</p><p>&#x2705;</p><p>A te válaszod és a másik játékos válasza <b>megegyeznek</b>.</p>","null","","","","feedback trial","",""
"html-button-response-esp","35","319762","0.0-11.0-0.12","7101","János imád sprebezni, ezért sokat sprebzik. Ők ritkán...","0","sprebzenek","[""sprebzenek"",""sprebeznek""]","sprebeznek","esp trial","3","false"
"html-button-response","36","323278","0.0-11.0-1.12","null","<p>A másik játékos ezt választotta: <b>sprebeznek</b>.</p><p>&#10060;</p><p>A válaszaitok <b>nem</b> egyeznek meg.</p>","null","","","","feedback trial","",""
"html-button-response-esp","37","330962","0.0-11.0-0.13","7178","János imád bügözni, ezért sokat bügzik. Ők ritkán...","1","bügöznek","[""bügzenek"",""bügöznek""]","bügzenek","esp trial","3","false"
"html-button-response","38","334480","0.0-11.0-1.13","null","<p>A másik játékos ezt választotta: <b>bügzenek</b>.</p><p>&#10060;</p><p>A válaszaitok <b>nem</b> egyeznek meg.</p>","null","","","","feedback trial","",""
"html-button-response-esp","39","353947","0.0-11.0-0.14","18957","János imád jurozni, ezért sokat jurlik. Mi ritkán...","1","jurozunk","[""jurlunk"",""jurozunk""]","jurozunk","esp trial","3","true"
"html-button-response","40","357450","0.0-11.0-1.14","null","<p>A másik játékos ezt választotta: <b>jurozunk</b>.</p><p>&#x2705;</p><p>A te válaszod és a másik játékos válasza <b>megegyeznek</b>.</p>","null","","","","feedback trial","",""
"html-button-response-esp","41","365786","0.0-11.0-0.15","7822","János imád frélegezni, ezért sokat frélegzik. Mi ritkán...","1","frélegezünk","[""frélegzünk"",""frélegezünk""]","frélegzünk","esp trial","3","false"
"html-button-response","42","369302","0.0-11.0-1.15","null","<p>A másik játékos ezt választotta: <b>frélegzünk</b>.</p><p>&#10060;</p><p>A válaszaitok <b>nem</b> egyeznek meg.</p>","null","","","","feedback trial","",""
"html-button-response-esp","43","384354","0.0-11.0-0.16","14550","János imád sztredezni, ezért sokat sztredlik. Ti ritkán...","1","sztredeztek","[""sztredletek"",""sztredeztek""]","sztredeztek","esp trial","3","true"
"html-button-response","44","387877","0.0-11.0-1.16","null","<p>A másik játékos ezt választotta: <b>sztredeztek</b>.</p><p>&#x2705;</p><p>A te válaszod és a másik játékos válasza <b>megegyeznek</b>.</p>","null","","","","feedback trial","",""
"html-button-response-esp","45","393306","0.0-11.0-0.17","4925","János imád vehékedni, ezért sokat vehékszik. Mi ritkán...","0","vehékszünk","[""vehékszünk"",""vehékedünk""]","vehékszünk","esp trial","3","true"
"html-button-response","46","396818","0.0-11.0-1.17","null","<p>A másik játékos ezt választotta: <b>vehékszünk</b>.</p><p>&#x2705;</p><p>A te válaszod és a másik játékos válasza <b>megegyeznek</b>.</p>","null","","","","feedback trial","",""
"html-button-response-esp","47","403554","0.0-11.0-0.18","6220","János imád klégezni, ezért sokat kléglik. Mi ritkán...","1","klégezünk","[""kléglünk"",""klégezünk""]","kléglünk","esp trial","3","false"
"html-button-response","48","407083","0.0-11.0-1.18","null","<p>A másik játékos ezt választotta: <b>kléglünk</b>.</p><p>&#10060;</p><p>A válaszaitok <b>nem</b> egyeznek meg.</p>","null","","","","feedback trial","",""
"html-button-response-esp","49","418491","0.0-11.0-0.19","10905","János imád nyádozni, ezért sokat nyádlik. Ők ritkán...","0","nyádoznak","[""nyádoznak"",""nyádlanak""]","nyádlanak","esp trial","3","false"
"html-button-response","50","422022","0.0-11.0-1.19","null","<p>A másik játékos ezt választotta: <b>nyádlanak</b>.</p><p>&#10060;</p><p>A válaszaitok <b>nem</b> egyeznek meg.</p>","null","","","","feedback trial","",""
"html-button-response-esp","51","426743","0.0-11.0-0.20","3535","János imád nivározni, ezért sokat nivárzik. Ti ritkán...","1","nivárzotok","[""nivároztok"",""nivárzotok""]","nivároztok","esp trial","3","false"
"html-button-response","52","430253","0.0-11.0-1.20","null","<p>A másik játékos ezt választotta: <b>nivároztok</b>.</p><p>&#10060;</p><p>A válaszaitok <b>nem</b> egyeznek meg.</p>","null","","","","feedback trial","",""
"html-button-response-esp","53","435474","0.0-11.0-0.21","4719","János imád bejezni, ezért sokat bejzik. Mi ritkán...","0","bejzünk","[""bejzünk"",""bejezünk""]","bejezünk","esp trial","3","false"
"html-button-response","54","438993","0.0-11.0-1.21","null","<p>A másik játékos ezt választotta: <b>bejezünk</b>.</p><p>&#10060;</p><p>A válaszaitok <b>nem</b> egyeznek meg.</p>","null","","","","feedback trial","",""
"html-button-response-esp","55","444034","0.0-11.0-0.22","4540","János imád klihasozni, ezért sokat klihaslik. Ti ritkán...","1","klihasoztok","[""klihaslotok"",""klihasoztok""]","klihasoztok","esp trial","3","true"
"html-button-response","56","447553","0.0-11.0-1.22","null","<p>A másik játékos ezt választotta: <b>klihasoztok</b>.</p><p>&#x2705;</p><p>A te válaszod és a másik játékos válasza <b>megegyeznek</b>.</p>","null","","","","feedback trial","",""
"html-button-response-esp","57","463474","0.0-11.0-0.23","15418","János imád bribékedni, ezért sokat bribékszik. Ti ritkán...","0","bribékedtek","[""bribékedtek"",""bribékszetek""]","bribékedtek","esp trial","3","true"
"html-button-response","58","466999","0.0-11.0-1.23","null","<p>A másik játékos ezt választotta: <b>bribékedtek</b>.</p><p>&#x2705;</p><p>A te válaszod és a másik játékos válasza <b>megegyeznek</b>.</p>","null","","","","feedback trial","",""
"html-button-response-esp","59","472602","0.0-11.0-0.24","5101","János imád bribasozni, ezért sokat bribaslik. Ők ritkán...","1","bribasoznak","[""bribaslanak"",""bribasoznak""]","bribasoznak","esp trial","3","true"
"html-button-response","60","476129","0.0-11.0-1.24","null","<p>A másik játékos ezt választotta: <b>bribasoznak</b>.</p><p>&#x2705;</p><p>A te válaszod és a másik játékos válasza <b>megegyeznek</b>.</p>","null","","","","feedback trial","",""
"html-button-response-esp","61","483585","0.0-11.0-0.25","6935","János imád vilesezni, ezért sokat vileslik. Mi ritkán...","0","vileslünk","[""vileslünk"",""vilesezünk""]","vilesezünk","esp trial","3","false"
"html-button-response","62","487097","0.0-11.0-1.25","null","<p>A másik játékos ezt választotta: <b>vilesezünk</b>.</p><p>&#10060;</p><p>A válaszaitok <b>nem</b> egyeznek meg.</p>","null","","","","feedback trial","",""
"html-button-response-esp","63","491850","0.0-11.0-0.26","4249","János imád metégedni, ezért sokat metégszik. Ők ritkán...","1","metégszenek","[""metégednek"",""metégszenek""]","metégednek","esp trial","3","false"
"html-button-response","64","495363","0.0-11.0-1.26","null","<p>A másik játékos ezt választotta: <b>metégednek</b>.</p><p>&#10060;</p><p>A válaszaitok <b>nem</b> egyeznek meg.</p>","null","","","","feedback trial","",""
"html-button-response-esp","65","503258","0.0-11.0-0.27","7393","János imád prugorozni, ezért sokat prugorzik. Ti ritkán...","0","prugoroztok","[""prugoroztok"",""prugorzotok""]","prugoroztok","esp trial","3","true"
"html-button-response","66","506778","0.0-11.0-1.27","null","<p>A másik játékos ezt választotta: <b>prugoroztok</b>.</p><p>&#x2705;</p><p>A te válaszod és a másik játékos válasza <b>megegyeznek</b>.</p>","null","","","","feedback trial","",""
"html-button-response-esp","67","513858","0.0-11.0-0.28","6566","János imád spivejezni, ezért sokat spivejlik. Ők ritkán...","1","spivejeznek","[""spivejlenek"",""spivejeznek""]","spivejeznek","esp trial","3","true"
"html-button-response","68","517379","0.0-11.0-1.28","null","<p>A másik játékos ezt választotta: <b>spivejeznek</b>.</p><p>&#x2705;</p><p>A te válaszod és a másik játékos válasza <b>megegyeznek</b>.</p>","null","","","","feedback trial","",""
"html-button-response-esp","69","523115","0.0-11.0-0.29","5211","János imád nurokozni, ezért sokat nuroklik. Mi ritkán...","1","nurokozunk","[""nuroklunk"",""nurokozunk""]","nuroklunk","esp trial","3","false"
"html-button-response","70","526644","0.0-11.0-1.29","null","<p>A másik játékos ezt választotta: <b>nuroklunk</b>.</p><p>&#10060;</p><p>A válaszaitok <b>nem</b> egyeznek meg.</p>","null","","","","feedback trial","",""
"html-button-response-esp","71","532474","0.0-11.0-0.30","5328","János imád trálodni, ezért sokat trálszik. Mi ritkán...","1","trálodunk","[""trálszunk"",""trálodunk""]","trálszunk","esp trial","3","false"
"html-button-response","72","535990","0.0-11.0-1.30","null","<p>A másik játékos ezt választotta: <b>trálszunk</b>.</p><p>&#10060;</p><p>A válaszaitok <b>nem</b> egyeznek meg.</p>","null","","","","feedback trial","",""
"html-button-response-esp","73","544594","0.0-11.0-0.31","8087","János imád hiragozni, ezért sokat hiragzik. Ők ritkán...","0","hiragoznak","[""hiragoznak"",""hiragzanak""]","hiragoznak","esp trial","3","true"
"html-button-response","74","548100","0.0-11.0-1.31","null","<p>A másik játékos ezt választotta: <b>hiragoznak</b>.</p><p>&#x2705;</p><p>A te válaszod és a másik játékos válasza <b>megegyeznek</b>.</p>","null","","","","feedback trial","",""
"html-button-response-esp","75","556056","0.0-11.0-0.32","7444","János imád brürözni, ezért sokat brürzik. Ők ritkán...","1","brüröznek","[""brürzenek"",""brüröznek""]","brüröznek","esp trial","3","true"
"html-button-response","76","559574","0.0-11.0-1.32","null","<p>A másik játékos ezt választotta: <b>brüröznek</b>.</p><p>&#x2705;</p><p>A te válaszod és a másik játékos válasza <b>megegyeznek</b>.</p>","null","","","","feedback trial","",""
"html-button-response-esp","77","568448","0.0-11.0-0.33","8359","János imád trukodni, ezért sokat trukszik. Ti ritkán...","0","trukodtok","[""trukodtok"",""trukszotok""]","trukodtok","esp trial","3","true"
"html-button-response","78","571967","0.0-11.0-1.33","null","<p>A másik játékos ezt választotta: <b>trukodtok</b>.</p><p>&#x2705;</p><p>A te válaszod és a másik játékos válasza <b>megegyeznek</b>.</p>","null","","","","feedback trial","",""
"html-button-response-esp","79","579144","0.0-11.0-0.34","6671","János imád gihamozni, ezért sokat gihamlik. Ők ritkán...","0","gihamoznak","[""gihamoznak"",""gihamlanak""]","gihamoznak","esp trial","3","true"
"html-button-response","80","582652","0.0-11.0-1.34","null","<p>A másik játékos ezt választotta: <b>gihamoznak</b>.</p><p>&#x2705;</p><p>A te válaszod és a másik játékos válasza <b>megegyeznek</b>.</p>","null","","","","feedback trial","",""
"html-button-response-esp","81","587360","0.0-11.0-0.35","4142","János imád vihapodni, ezért sokat vihapszik. Mi ritkán...","0","vihapszunk","[""vihapszunk"",""vihapodunk""]","vihapszunk","esp trial","3","true"
"html-button-response","82","590877","0.0-11.0-1.35","null","<p>A másik játékos ezt választotta: <b>vihapszunk</b>.</p><p>&#x2705;</p><p>A te válaszod és a másik játékos válasza <b>megegyeznek</b>.</p>","null","","","","feedback trial","",""
"html-button-response-esp","83","595632","0.0-11.0-0.36","4240","János imád nyizozni, ezért sokat nyizlik. Mi ritkán...","0","nyizozunk","[""nyizozunk"",""nyizlunk""]","nyizlunk","esp trial","3","false"
"html-button-response","84","599160","0.0-11.0-1.36","null","<p>A másik játékos ezt választotta: <b>nyizlunk</b>.</p><p>&#10060;</p><p>A válaszaitok <b>nem</b> egyeznek meg.</p>","null","","","","feedback trial","",""
"html-button-response-esp","85","610889","0.0-11.0-0.37","11211","János imád frorozni, ezért sokat frorlik. Ők ritkán...","1","froroznak","[""frorlanak"",""froroznak""]","frorlanak","esp trial","3","false"
"html-button-response","86","614397","0.0-11.0-1.37","null","<p>A másik játékos ezt választotta: <b>frorlanak</b>.</p><p>&#10060;</p><p>A válaszaitok <b>nem</b> egyeznek meg.</p>","null","","","","feedback trial","",""
"html-button-response-esp","87","622962","0.0-11.0-0.38","8063","János imád flerékedni, ezért sokat flerékszik. Mi ritkán...","1","flerékszünk","[""flerékedünk"",""flerékszünk""]","flerékedünk","esp trial","3","false"
"html-button-response","88","626487","0.0-11.0-1.38","null","<p>A másik játékos ezt választotta: <b>flerékedünk</b>.</p><p>&#10060;</p><p>A válaszaitok <b>nem</b> egyeznek meg.</p>","null","","","","feedback trial","",""
"html-button-response-esp","89","639410","0.0-11.0-0.39","12421","János imád flátozni, ezért sokat flátlik. Ti ritkán...","1","flátoztok","[""flátlotok"",""flátoztok""]","flátoztok","esp trial","3","true"
"html-button-response","90","642928","0.0-11.0-1.39","null","<p>A másik játékos ezt választotta: <b>flátoztok</b>.</p><p>&#x2705;</p><p>A te válaszod és a másik játékos válasza <b>megegyeznek</b>.</p>","null","","","","feedback trial","",""
"html-button-response-esp","91","651114","0.0-11.0-0.40","7668","János imád bresezni, ezért sokat breslik. Ők ritkán...","1","breseznek","[""breslenek"",""breseznek""]","breseznek","esp trial","3","true"
"html-button-response","92","654641","0.0-11.0-1.40","null","<p>A másik játékos ezt választotta: <b>breseznek</b>.</p><p>&#x2705;</p><p>A te válaszod és a másik játékos válasza <b>megegyeznek</b>.</p>","null","","","","feedback trial","",""
"html-button-response-esp","93","660282","0.0-11.0-0.41","5124","János imád játozni, ezért sokat játlik. Mi ritkán...","0","játozunk","[""játozunk"",""játlunk""]","játlunk","esp trial","3","false"
"html-button-response","94","663798","0.0-11.0-1.41","null","<p>A másik játékos ezt választotta: <b>játlunk</b>.</p><p>&#10060;</p><p>A válaszaitok <b>nem</b> egyeznek meg.</p>","null","","","","feedback trial","",""
"html-button-response-esp","95","678035","0.0-11.0-0.42","13723","János imád pibegezni, ezért sokat pibegzik. Ők ritkán...","0","pibegzenek","[""pibegzenek"",""pibegeznek""]","pibegeznek","esp trial","3","false"
"html-button-response","96","681552","0.0-11.0-1.42","null","<p>A másik játékos ezt választotta: <b>pibegeznek</b>.</p><p>&#10060;</p><p>A válaszaitok <b>nem</b> egyeznek meg.</p>","null","","","","feedback trial","",""
"html-button-response-esp","97","689770","0.0-11.0-0.43","7701","János imád frinyozni, ezért sokat frinylik. Mi ritkán...","1","frinyozunk","[""frinylunk"",""frinyozunk""]","frinyozunk","esp trial","3","true"
"html-button-response","98","693294","0.0-11.0-1.43","null","<p>A másik játékos ezt választotta: <b>frinyozunk</b>.</p><p>&#x2705;</p><p>A te válaszod és a másik játékos válasza <b>megegyeznek</b>.</p>","null","","","","feedback trial","",""
"html-button-response-esp","99","702618","0.0-11.0-0.44","8822","János imád spuborozni, ezért sokat spuborzik. Ők ritkán...","0","spuborzanak","[""spuborzanak"",""spuboroznak""]","spuboroznak","esp trial","3","false"
"html-button-response","100","706135","0.0-11.0-1.44","null","<p>A másik játékos ezt választotta: <b>spuboroznak</b>.</p><p>&#10060;</p><p>A válaszaitok <b>nem</b> egyeznek meg.</p>","null","","","","feedback trial","",""
"html-button-response-esp","101","717834","0.0-11.0-0.45","11197","János imád frirozni, ezért sokat frirzik. Mi ritkán...","0","frirozunk","[""frirozunk"",""frirzunk""]","frirozunk","esp trial","3","true"
"html-button-response","102","721357","0.0-11.0-1.45","null","<p>A másik játékos ezt választotta: <b>frirozunk</b>.</p><p>&#x2705;</p><p>A te válaszod és a másik játékos válasza <b>megegyeznek</b>.</p>","null","","","","feedback trial","",""
"html-button-response-esp","103","728714","0.0-11.0-0.46","6854","János imád plibozni, ezért sokat plibzik. Ti ritkán...","1","plibzotok","[""pliboztok"",""plibzotok""]","pliboztok","esp trial","3","false"
"html-button-response","104","732226","0.0-11.0-1.46","null","<p>A másik játékos ezt választotta: <b>pliboztok</b>.</p><p>&#10060;</p><p>A válaszaitok <b>nem</b> egyeznek meg.</p>","null","","","","feedback trial","",""
"html-button-response-esp","105","737981","0.0-11.0-0.47","5243","János imád trálakozni, ezért sokat trálaklik. Ők ritkán...","0","trálaklanak","[""trálaklanak"",""trálakoznak""]","trálakoznak","esp trial","3","false"
"html-button-response","106","741500","0.0-11.0-1.47","null","<p>A másik játékos ezt választotta: <b>trálakoznak</b>.</p><p>&#10060;</p><p>A válaszaitok <b>nem</b> egyeznek meg.</p>","null","","","","feedback trial","",""
"html-button-response-esp","107","749221","0.0-11.0-0.48","7216","János imád döjözni, ezért sokat döjlik. Ők ritkán...","1","döjöznek","[""döjlenek"",""döjöznek""]","döjlenek","esp trial","3","false"
"html-button-response","108","752735","0.0-11.0-1.48","null","<p>A másik játékos ezt választotta: <b>döjlenek</b>.</p><p>&#10060;</p><p>A válaszaitok <b>nem</b> egyeznek meg.</p>","null","","","","feedback trial","",""
"html-button-response-esp","109","760221","0.0-11.0-0.49","6984","János imád kláragodni, ezért sokat kláragszik. Ti ritkán...","0","kláragodtok","[""kláragodtok"",""kláragszotok""]","kláragodtok","esp trial","3","true"
"html-button-response","110","763743","0.0-11.0-1.49","null","<p>A másik játékos ezt választotta: <b>kláragodtok</b>.</p><p>&#x2705;</p><p>A te válaszod és a másik játékos válasza <b>megegyeznek</b>.</p>","null","","","","feedback trial","",""
"html-button-response-esp","111","768448","0.0-11.0-0.50","3344","János imád nyülöközni, ezért sokat nyülöklik. Ők ritkán...","1","nyülököznek","[""nyülöklenek"",""nyülököznek""]","nyülököznek","esp trial","3","true"
"html-button-response","112","771976","0.0-11.0-1.50","null","<p>A másik játékos ezt választotta: <b>nyülököznek</b>.</p><p>&#x2705;</p><p>A te válaszod és a másik játékos válasza <b>megegyeznek</b>.</p>","null","","","","feedback trial","",""
"html-button-response-esp","113","776698","0.0-11.0-0.51","2976","János imád bötőrözni, ezért sokat bötőrzik. Mi ritkán...","1","bötőrzünk","[""bötőrözünk"",""bötőrzünk""]","bötőrözünk","esp trial","3","false"
"html-button-response","114","780204","0.0-11.0-1.51","null","<p>A másik játékos ezt választotta: <b>bötőrözünk</b>.</p><p>&#10060;</p><p>A válaszaitok <b>nem</b> egyeznek meg.</p>","null","","","","feedback trial","",""
"html-button-response-esp","115","793229","0.0-11.0-0.52","12522","János imád tögözni, ezért sokat töglik. Ők ritkán...","1","tögöznek","[""töglenek"",""tögöznek""]","töglenek","esp trial","3","false"
"html-button-response","116","796738","0.0-11.0-1.52","null","<p>A másik játékos ezt választotta: <b>töglenek</b>.</p><p>&#10060;</p><p>A válaszaitok <b>nem</b> egyeznek meg.</p>","null","","","","feedback trial","",""
"html-button-response-esp","117","805195","0.0-11.0-0.53","7948","János imád nyöbözni, ezért sokat nyöbzik. Ők ritkán...","0","nyöböznek","[""nyöböznek"",""nyöbzenek""]","nyöböznek","esp trial","3","true"
"html-button-response","118","808706","0.0-11.0-1.53","null","<p>A másik játékos ezt választotta: <b>nyöböznek</b>.</p><p>&#x2705;</p><p>A te válaszod és a másik játékos válasza <b>megegyeznek</b>.</p>","null","","","","feedback trial","",""
"html-button-response","119","819170","0.0-12.0","9941","<p>A közös játék most véget ért.</p><p>Mielőtt eláruljuk a végső pontszámodat, arra kérlek, játszd a szóválasztós játékot néhány percig egyedül is.</p><p>A feladatod ugyanaz lesz, választani két lehetőség közül.</p><p>Most viszont egyedül kell döntened, hogy te melyiket választanád.</p>","0","","","","","",""
"html-button-response-clever","120","823947","0.0-13.0-0.0","4272","János imád gihejezni, ezért sokat gihejlik. Mi ritkán...","1","gihejlünk","[""gihejezünk"",""gihejlünk""]","","posttest trial","4",""
"html-button-response-clever","121","832138","0.0-13.0-0.1","7687","János imád branyozni, ezért sokat branylik. Ők ritkán...","1","branylanak","[""branyoznak"",""branylanak""]","","posttest trial","4",""
"html-button-response-clever","122","834338","0.0-13.0-0.2","1686","János imád sprozozni, ezért sokat sprozlik. Ők ritkán...","1","sprozlanak","[""sprozoznak"",""sprozlanak""]","","posttest trial","4",""
"html-button-response-clever","123","837146","0.0-13.0-0.3","2291","János imád flemezni, ezért sokat flemlik. Mi ritkán...","1","flemlünk","[""flemezünk"",""flemlünk""]","","posttest trial","4",""
"html-button-response-clever","124","839810","0.0-13.0-0.4","2159","János imád mülőrözni, ezért sokat mülőrzik. Mi ritkán...","1","mülőrözünk","[""mülőrzünk"",""mülőrözünk""]","","posttest trial","4",""
"html-button-response-clever","125","847834","0.0-13.0-0.5","7507","János imád prögözni, ezért sokat prögzik. Ti ritkán...","0","prögöztök","[""prögöztök"",""prögzötök""]","","posttest trial","4",""
"html-button-response-clever","126","854594","0.0-13.0-0.6","6243","János imád csibagozni, ezért sokat csibagzik. Ti ritkán...","1","csibagzotok","[""csibagoztok"",""csibagzotok""]","","posttest trial","4",""
"html-button-response-clever","127","860049","0.0-13.0-0.7","4952","János imád csubozni, ezért sokat csubzik. Mi ritkán...","1","csubozunk","[""csubzunk"",""csubozunk""]","","posttest trial","4",""
"html-button-response-clever","128","866538","0.0-13.0-0.8","5981","János imád drilarozni, ezért sokat drilarzik. Mi ritkán...","1","drilarozunk","[""drilarzunk"",""drilarozunk""]","","posttest trial","4",""
"html-button-response-clever","129","885322","0.0-13.0-0.9","18280","János imád frálapodni, ezért sokat frálapszik. Ti ritkán...","1","frálapszotok","[""frálapodtok"",""frálapszotok""]","","posttest trial","4",""
"html-button-response-clever","130","890650","0.0-13.0-0.10","4822","János imád brözözni, ezért sokat brözlik. Ti ritkán...","1","brözlötök","[""brözöztök"",""brözlötök""]","","posttest trial","4",""
"html-button-response-clever","131","896242","0.0-13.0-0.11","5078","János imád trugokozni, ezért sokat trugoklik. Ők ritkán...","1","trugoklanak","[""trugokoznak"",""trugoklanak""]","","posttest trial","4",""
"html-button-response-clever","132","907458","0.0-13.0-0.12","10713","János imád posozni, ezért sokat poslik. Ti ritkán...","0","posoztok","[""posoztok"",""poslotok""]","","posttest trial","4",""
"html-button-response-clever","133","910122","0.0-13.0-0.13","2161","János imád pilégedni, ezért sokat pilégszik. Ők ritkán...","1","pilégednek","[""pilégszenek"",""pilégednek""]","","posttest trial","4",""
"html-button-response-clever","134","917138","0.0-13.0-0.14","6513","János imád flüröközni, ezért sokat flüröklik. Ti ritkán...","0","flüröklötök","[""flüröklötök"",""flürököztök""]","","posttest trial","4",""
"html-button-response-clever","135","926305","0.0-13.0-0.15","8663","János imád nyürözni, ezért sokat nyürzik. Ők ritkán...","1","nyüröznek","[""nyürzenek"",""nyüröznek""]","","posttest trial","4",""
"html-button-response-clever","136","933434","0.0-13.0-0.16","6625","János imád bratározni, ezért sokat bratárzik. Ők ritkán...","1","bratároznak","[""bratárzanak"",""bratároznak""]","","posttest trial","4",""
"html-button-response-clever","137","940410","0.0-13.0-0.17","6472","János imád spirágozni, ezért sokat spiráglik. Ti ritkán...","1","spiráglotok","[""spirágoztok"",""spiráglotok""]","","posttest trial","4",""
"html-button-response-clever","138","947562","0.0-13.0-0.18","6649","János imád spibegezni, ezért sokat spibeglik. Mi ritkán...","1","spibegezünk","[""spibeglünk"",""spibegezünk""]","","posttest trial","4",""
"html-button-response-clever","139","949818","0.0-13.0-0.19","1752","János imád drűrözni, ezért sokat drűrzik. Ők ritkán...","1","drűrzenek","[""drűröznek"",""drűrzenek""]","","posttest trial","4",""
"html-button-response-clever","140","956081","0.0-13.0-0.20","5759","János imád lűközni, ezért sokat lűklik. Ők ritkán...","0","lűklenek","[""lűklenek"",""lűköznek""]","","posttest trial","4",""
"html-button-response-clever","141","963034","0.0-13.0-0.21","6444","János imád föködni, ezért sokat fökszik. Ők ritkán...","0","fökszenek","[""fökszenek"",""föködnek""]","","posttest trial","4",""
"html-button-response-clever","142","968938","0.0-13.0-0.22","5387","János imád nyivágozni, ezért sokat nyivágzik. Mi ritkán...","0","nyivágzunk","[""nyivágzunk"",""nyivágozunk""]","","posttest trial","4",""
"html-button-response-clever","143","973618","0.0-13.0-0.23","4176","János imád flöközni, ezért sokat flöklik. Ti ritkán...","1","flöklötök","[""flököztök"",""flöklötök""]","","posttest trial","4",""
"html-button-response-clever","144","988106","0.0-13.0-0.24","13983","János imád fröjözni, ezért sokat fröjzik. Ti ritkán...","0","fröjzötök","[""fröjzötök"",""fröjöztök""]","","posttest trial","4",""
"html-button-response-clever","145","992667","0.0-13.0-0.25","4055","János imád flűgözni, ezért sokat flűgzik. Mi ritkán...","1","flűgözünk","[""flűgzünk"",""flűgözünk""]","","posttest trial","4",""
"html-button-response-clever","146","995115","0.0-13.0-0.26","1933","János imád lájozni, ezért sokat lájzik. Ti ritkán...","0","lájzotok","[""lájzotok"",""lájoztok""]","","posttest trial","4",""
"html-button-response-clever","147","997266","0.0-13.0-0.27","1645","János imád spügözni, ezért sokat spügzik. Mi ritkán...","1","spügzünk","[""spügözünk"",""spügzünk""]","","posttest trial","4",""
"html-button-response-clever","148","999410","0.0-13.0-0.28","1641","János imád sprudozni, ezért sokat sprudlik. Mi ritkán...","1","sprudlunk","[""sprudozunk"",""sprudlunk""]","","posttest trial","4",""
"html-button-response-clever","149","1005530","0.0-13.0-0.29","5603","János imád kűdözni, ezért sokat kűdlik. Ők ritkán...","0","kűdlenek","[""kűdlenek"",""kűdöznek""]","","posttest trial","4",""
"html-button-response-clever","150","1016971","0.0-13.0-0.30","10935","János imád dirozni, ezért sokat dirlik. Ti ritkán...","1","diroztok","[""dirlotok"",""diroztok""]","","posttest trial","4",""
"html-button-response-clever","151","1020882","0.0-13.0-0.31","3407","János imád spiharozni, ezért sokat spiharzik. Ti ritkán...","1","spiharoztok","[""spiharzotok"",""spiharoztok""]","","posttest trial","4",""
"html-button-response-clever","152","1025074","0.0-13.0-0.32","3676","János imád molodni, ezért sokat molszik. Ti ritkán...","1","molodtok","[""molszotok"",""molodtok""]","","posttest trial","4",""
"html-button-response-clever","153","1030762","0.0-13.0-0.33","5182","János imád brivakozni, ezért sokat brivaklik. Ti ritkán...","1","brivaklotok","[""brivakoztok"",""brivaklotok""]","","posttest trial","4",""
"html-button-response-clever","154","1035251","0.0-13.0-0.34","3985","János imád privékedni, ezért sokat privékszik. Ők ritkán...","1","privékednek","[""privékszenek"",""privékednek""]","","posttest trial","4",""
"html-button-response-clever","155","1041490","0.0-13.0-0.35","5736","János imád trugozni, ezért sokat trugzik. Ők ritkán...","0","trugzanak","[""trugzanak"",""trugoznak""]","","posttest trial","4",""
"html-button-response-clever","156","1060738","0.0-13.0-0.36","18745","János imád brülösözni, ezért sokat brülöslik. Mi ritkán...","0","brülöslünk","[""brülöslünk"",""brülösözünk""]","","posttest trial","4",""
"html-button-response-clever","157","1065362","0.0-13.0-0.37","4122","János imád virozni, ezért sokat virzik. Ők ritkán...","1","virzanak","[""viroznak"",""virzanak""]","","posttest trial","4",""
"html-button-response-clever","158","1071346","0.0-13.0-0.38","5471","János imád gyihegezni, ezért sokat gyihegzik. Ti ritkán...","0","gyihegzetek","[""gyihegzetek"",""gyihegeztek""]","","posttest trial","4",""
"html-button-response-clever","159","1079002","0.0-13.0-0.39","7151","János imád mágamozni, ezért sokat mágamlik. Mi ritkán...","1","mágamozunk","[""mágamlunk"",""mágamozunk""]","","posttest trial","4",""
"html-button-response-clever","160","1083202","0.0-13.0-0.40","3698","János imád trivakodni, ezért sokat trivakszik. Mi ritkán...","1","trivakszunk","[""trivakodunk"",""trivakszunk""]","","posttest trial","4",""
"html-button-response-clever","161","1088689","0.0-13.0-0.41","4982","János imád püzözni, ezért sokat püzlik. Ti ritkán...","1","püzlötök","[""püzöztök"",""püzlötök""]","","posttest trial","4",""
"html-button-response-clever","162","1093241","0.0-13.0-0.42","4039","János imád trikozni, ezért sokat triklik. Ti ritkán...","1","triklotok","[""trikoztok"",""triklotok""]","","posttest trial","4",""
"html-button-response-clever","163","1095242","0.0-13.0-0.43","1485","János imád frakozni, ezért sokat fraklik. Mi ritkán...","1","fraklunk","[""frakozunk"",""fraklunk""]","","posttest trial","4",""
"html-button-response-clever","164","1102282","0.0-13.0-0.44","6522","János imád dárakodni, ezért sokat dárakszik. Mi ritkán...","0","dárakszunk","[""dárakszunk"",""dárakodunk""]","","posttest trial","4",""
"html-button-response-clever","165","1109658","0.0-13.0-0.45","6873","János imád dabozni, ezért sokat dabzik. Ti ritkán...","0","dabzotok","[""dabzotok"",""daboztok""]","","posttest trial","4",""
"html-button-response-clever","166","1113059","0.0-13.0-0.46","2896","János imád dilakozni, ezért sokat dilaklik. Ti ritkán...","1","dilaklotok","[""dilakoztok"",""dilaklotok""]","","posttest trial","4",""
"html-button-response-clever","167","1117874","0.0-13.0-0.47","4310","János imád dujozni, ezért sokat dujzik. Ők ritkán...","1","dujoznak","[""dujzanak"",""dujoznak""]","","posttest trial","4",""
"html-button-response-clever","168","1126170","0.0-13.0-0.48","7786","János imád prélemezni, ezért sokat prélemlik. Ők ritkán...","0","prélemeznek","[""prélemeznek"",""prélemlenek""]","","posttest trial","4",""
"html-button-response-clever","169","1133554","0.0-13.0-0.49","6865","János imád sprűrözni, ezért sokat sprűrlik. Ők ritkán...","1","sprűrlenek","[""sprűröznek"",""sprűrlenek""]","","posttest trial","4",""
"html-button-response-clever","170","1138442","0.0-13.0-0.50","4384","János imád köszözni, ezért sokat köszlik. Ti ritkán...","1","köszlötök","[""köszöztök"",""köszlötök""]","","posttest trial","4",""
"html-button-response-clever","171","1142786","0.0-13.0-0.51","3837","János imád pragányozni, ezért sokat pragánylik. Ti ritkán...","1","pragánylotok","[""pragányoztok"",""pragánylotok""]","","posttest trial","4",""
"html-button-response-clever","172","1145066","0.0-13.0-0.52","1768","János imád klehényezni, ezért sokat klehénylik. Ti ritkán...","1","klehényletek","[""klehényeztek"",""klehényletek""]","","posttest trial","4",""
"html-button-response-clever","173","1157082","0.0-13.0-0.53","11514","János imád frálasozni, ezért sokat frálaslik. Ők ritkán...","0","frálaslanak","[""frálaslanak"",""frálasoznak""]","","posttest trial","4",""
"html-button-response","174","1163210","0.0-14.0","5618","<p> Vége a játéknak. A teljes pontszámod 29/54.</p><p> Szép munka! &#128526;&#128526;&#128526;</p><p>A Befejezés gomb megnyomása után bezárhatod a böngészőablakot.</p>","0","","","","","",""
"html-keyboard-response","175","1168724","0.0-15.0","null","<div class=""message"">
         <p>Egy kis türelmet kérünk, amíg elmentjük az adatokat...</p>
         </div>","null","","","","","",""
