"trial_type","trial_index","time_elapsed","internal_node_id","rt","stimulus","response","response_string","choices","esp_response","trial_kind","list_number","esp_match"
"pavlovia","0","964","0.0-0.0","","","","","","","","",""
"html-button-response","1","3671","0.0-1.0","2193","<p>Kedves Résztvevő! A Budapesti Műszaki és Gazdaságtudományi Egyetem Kognitív Tudományi Tanszékének kutatásában való részvételed kérjük. A kutatásban azt vizsgáljuk, hogy a magyar anyanyelvűek hogyan használnak bizonyos szóalakokat, és hogy milyen képük van arról, hogy mások hogyan használják, hogyan képzik a szavakat. Ez hozzásegít bennünket ahhoz, hogy jobban megértsük, hogyan dolgozza fel és tárolja a nyelvet az emberi agy, és hogyan működnek, hogyan változnak egy adott közösség nyelvi konvenciói.</p><p>A vizsgálat egy rövid számítógépes feladatból fog állni. A kutatásban való részvétel önkéntes, a részvételi szándék bármikor visszavonható. A résztvevők eredményeit név nélkül kezeljük, így nem beazonosíthatók az adatok feldolgozása során. Minden személyes adatot az EU általános adatvédelmi rendeletének (GDPR) megfelelően kezelünk és legfeljebb öt éven belül megsemmisítünk. A vizsgálat jellemzően húsz percet vesz igénybe.</p><p>Kutatásvezető:</p><p>Dr. Rácz Péter, tudományos munkatárs, BME KTT</p><p>e-mail: racz.peter.marton@ttk.bme.hu</p>","0","","","","","",""
"html-button-response","2","49808","0.0-2.0","45636","<p>A kísérletben szavakat fogsz látni. Ezek között lesznek olyanok, amelyeket ismersz, de előfordulhatnak olyanok is, amelyeket nem ismersz, sőt, vannak köztük kitalált szavak is. Minden szónál látni fogsz toldalékolt alakokat. A te feladatod az lesz, hogy minden szóhoz kiválaszd azt a toldalékolt alakot, amely a te számodra ismerősebben, természetesebben hangzik. Rossz válaszok nincsenek, mert van olyan, hogy különböző embereknek más és más szó tűnik jobb választásnak. A választ úgy tudod majd kiválasztani, ha rákattintasz.</p><p>Ebben a szóválasztós játékban egy másik játékossal együtt veszel majd részt. A másik játékos is minden esetben azok közül a lehetőségek közül válogathat, mint te. Kettőtök feladata az, hogy ugyanazt a lehetőséget válasszátok minden esetben. Ahhoz, hogy ez sikerüljön, neked figyelned kell arra, hogy a másik játékos milyen válaszokat ad, és ennek alapján meg kell tippelned, hogyan választ legközelebb. Ha eltalálod, akkor pontot kapsz.</p>","0","","","","","",""
"html-button-response","3","55148","0.0-3.0","4832","<p>Kérjük, olvasd el az alábbi nyilatkozatot, és amennyiben egyetértesz vele, nyomj a Beleegyezés gombra!</p><p>Kijelentem, hogy magyar anyanyelvű személyként önként veszek részt a BME KTT kísérletében. A kutatás céljával és folyamatával kapcsolatban elegendő tájékoztatást kaptam, lehetőségem volt kérdések feltételére, és esetleges kérdéseimre megfelelő válaszokat kaptam. A tájékoztatás alapján elegendő mennyiségű információ áll a rendelkezésemre, hogy eldönthessem, részt kívánok-e venni a kutatásban.</p><p>Tisztában vagyok vele, hogy részvételi szándékomat és adataimat bármikor, indoklás nélkül visszavonhatom.</p><p>Értem és tudomásul veszem, hogy a kutatás tudományos célokat szolgál, és az általam szolgáltatott adatokat a BME kizárólag kutatási célból használja fel. Tudomásul veszem, hogy eredményeimet a többi résztvevő eredményeivel együtt kezelik, így egyéni teljesítményemről visszajelzést, szakvéleményt nem kapok.</p><p>Megértettem, hogy adataim kezelését illetően a BME az EU általános adatvédelmi rendelete (GDPR), a hatályos adatvédelmi törvény és a nemzetközi kutatás-etikai alapelvek szerint jár el. Eredményeim anonim módon kerülnek feldolgozásra, és a kutatás résztvevői az azonosításomra alkalmas adataimat harmadik félnek nem szolgáltatják ki. Engedélyezem a BME számára a jelen kutatásban felvett adataim feldolgozását és tárolását, beleértve azok későbbi kutatásokhoz való felhasználását is. Személyes adataim kezelésével kapcsolatban tájékoztatást kérhetek a kutatás résztvevőitől, az adatkezelés ellen tiltakozhatok, kérhetem személyes adataim helyesbítését, törlését vagy zárolását, valamint jogorvoslatért a Nemzeti Adatvédelmi és Információszabadság Hatósághoz fordulhatok.</p><p>Kijelentem, hogy a kutatásban való részvételem körülményeiről részletes tájékoztatást kaptam, és a feltételeket elfogadom.</p>","0","","","","","",""
"survey-text","4","68664","0.0-4.0","13010","","{""Q0"":""GJHN6G"",""Q1"":""férfi"",""Q2"":""2002"",""Q3"":""14""}","","","","","",""
"html-button-response","5","105559","0.0-5.0","36378","<p>Ebben a játékban szavakat kell toldalékolni.</p> <p>Minden körben mutatunk majd egy példamondatot, amiben lesz egy szó.</p> <p>Alatta jön egy második mondat, ezt a mondatot neked kell majd befejezni, ugyanezzel a szóval.</p> <p>Nem biztos, hogy a szó eleve ismerős lesz számodra!</p> <p>Minden mondathoz adunk két lehetőséget, ezeket balra és jobbra látod majd.</p> <p>A játék kb. negyedóráig-húsz percig tart.</p>","0","","","","","",""
"html-button-response","6","157465","0.0-6.0","51405","<p>Nézzünk egy példát!</p> <p>A példamondat: ""János imád fláramolni, ezért sokat fláramlik. Mi ritkán...""</p><p>Neked ezt a mondatot kell befejezned: ""Ti ritkán...""</p><p>A lehetőségek pedig ezek:</p>","1","","","","","",""
"html-button-response","7","166548","0.0-7.0","8563","<p>Nagyon jó.</p><p>Ezt a játékot nem egyedül fogod játszani, hanem egy másik játékossal.</p><p>Mielőtt továbblépünk, összekapcsolunk titeket egymással.</p><p>Ez igénybe vehet néhány másodpercet, amihez szíves türelmed kérjük.</p>","0","","","","","",""
"html-button-response","8","172278","0.0-8.0","null","<p>Csatlakozás a másik játékoshoz...</p>","null","","","","","",""
"html-button-response","9","174800","0.0-9.0","null","<p> Sikeres kapcsolódás!</p>","null","","","","","",""
"html-button-response","10","183471","0.0-10.0","8157","<p>A következőkben ketten játsszátok a szóválasztós játékot.</p><p>A feladatotok az lesz, hogy minden körben <b>ugyanazt</b> a szót válasszátok.</p><p>Minden ilyen egyező válaszért pontot kaptok.</p><p>Próbáld meg kitalálni, mit választ a másik játékos!</p><p>Bármikor választhatsz, a körnek akkor van vége, ha mindketten döntöttetek.</p><p>Sok sikert!</p>","0","","","","","",""
"html-button-response-esp","11","191991","0.0-11.0-0.0","7996","János imád bejezni, ezért sokat bejzik. Mi ritkán...","1","bejezünk","[""bejzünk"",""bejezünk""]","bejezünk","esp trial","3","true"
"html-button-response","12","195516","0.0-11.0-1.0","null","<p>A másik játékos ezt választotta: <b>bejezünk</b>.</p><p>&#x2705;</p><p>A te válaszod és a másik játékos válasza <b>megegyeznek</b>.</p>","null","","","","feedback trial","",""
"html-button-response-esp","13","203014","0.0-11.0-0.1","6995","János imád hiragozni, ezért sokat hiragzik. Ők ritkán...","0","hiragzanak","[""hiragzanak"",""hiragoznak""]","hiragoznak","esp trial","3","false"
"html-button-response","14","206538","0.0-11.0-1.1","null","<p>A másik játékos ezt választotta: <b>hiragoznak</b>.</p><p>&#10060;</p><p>A válaszaitok <b>nem</b> egyeznek meg.</p>","null","","","","feedback trial","",""
"html-button-response-esp","15","216539","0.0-11.0-0.2","9490","János imád jurozni, ezért sokat jurlik. Mi ritkán...","1","jurozunk","[""jurlunk"",""jurozunk""]","jurozunk","esp trial","3","true"
"html-button-response","16","220058","0.0-11.0-1.2","null","<p>A másik játékos ezt választotta: <b>jurozunk</b>.</p><p>&#x2705;</p><p>A te válaszod és a másik játékos válasza <b>megegyeznek</b>.</p>","null","","","","feedback trial","",""
"html-button-response-esp","17","228473","0.0-11.0-0.3","7901","János imád nyülöközni, ezért sokat nyülöklik. Ők ritkán...","1","nyülöklenek","[""nyülököznek"",""nyülöklenek""]","nyülököznek","esp trial","3","false"
"html-button-response","18","231999","0.0-11.0-1.3","null","<p>A másik játékos ezt választotta: <b>nyülököznek</b>.</p><p>&#10060;</p><p>A válaszaitok <b>nem</b> egyeznek meg.</p>","null","","","","feedback trial","",""
"html-button-response-esp","19","239536","0.0-11.0-0.4","7016","János imád hubonyozni, ezért sokat hubonylik. Ti ritkán...","0","hubonyoztok","[""hubonyoztok"",""hubonylotok""]","hubonyoztok","esp trial","3","true"
"html-button-response","20","243065","0.0-11.0-1.4","null","<p>A másik játékos ezt választotta: <b>hubonyoztok</b>.</p><p>&#x2705;</p><p>A te válaszod és a másik játékos válasza <b>megegyeznek</b>.</p>","null","","","","feedback trial","",""
"html-button-response-esp","21","249278","0.0-11.0-0.5","5700","János imád játozni, ezért sokat játlik. Mi ritkán...","1","játozunk","[""játlunk"",""játozunk""]","játlunk","esp trial","3","false"
"html-button-response","22","252792","0.0-11.0-1.5","null","<p>A másik játékos ezt választotta: <b>játlunk</b>.</p><p>&#10060;</p><p>A válaszaitok <b>nem</b> egyeznek meg.</p>","null","","","","feedback trial","",""
"html-button-response-esp","23","259874","0.0-11.0-0.6","6566","János imád flerékedni, ezért sokat flerékszik. Mi ritkán...","0","flerékszünk","[""flerékszünk"",""flerékedünk""]","flerékedünk","esp trial","3","false"
"html-button-response","24","263389","0.0-11.0-1.6","null","<p>A másik játékos ezt választotta: <b>flerékedünk</b>.</p><p>&#10060;</p><p>A válaszaitok <b>nem</b> egyeznek meg.</p>","null","","","","feedback trial","",""
"html-button-response-esp","25","268021","0.0-11.0-0.7","4115","János imád tögözni, ezért sokat töglik. Ők ritkán...","0","töglenek","[""töglenek"",""tögöznek""]","töglenek","esp trial","3","true"
"html-button-response","26","271532","0.0-11.0-1.7","null","<p>A másik játékos ezt választotta: <b>töglenek</b>.</p><p>&#x2705;</p><p>A te válaszod és a másik játékos válasza <b>megegyeznek</b>.</p>","null","","","","feedback trial","",""
"html-button-response-esp","27","276932","0.0-11.0-0.8","4883","János imád sztredezni, ezért sokat sztredlik. Ti ritkán...","1","sztredletek","[""sztredeztek"",""sztredletek""]","sztredeztek","esp trial","3","false"
"html-button-response","28","280454","0.0-11.0-1.8","null","<p>A másik játékos ezt választotta: <b>sztredeztek</b>.</p><p>&#10060;</p><p>A válaszaitok <b>nem</b> egyeznek meg.</p>","null","","","","feedback trial","",""
"html-button-response-esp","29","287149","0.0-11.0-0.9","6181","János imád plibozni, ezért sokat plibzik. Ti ritkán...","1","plibzotok","[""pliboztok"",""plibzotok""]","pliboztok","esp trial","3","false"
"html-button-response","30","290666","0.0-11.0-1.9","null","<p>A másik játékos ezt választotta: <b>pliboztok</b>.</p><p>&#10060;</p><p>A válaszaitok <b>nem</b> egyeznek meg.</p>","null","","","","feedback trial","",""
"html-button-response-esp","31","295935","0.0-11.0-0.10","4753","János imád döjözni, ezért sokat döjlik. Ők ritkán...","1","döjlenek","[""döjöznek"",""döjlenek""]","döjlenek","esp trial","3","true"
"html-button-response","32","299451","0.0-11.0-1.10","null","<p>A másik játékos ezt választotta: <b>döjlenek</b>.</p><p>&#x2705;</p><p>A te válaszod és a másik játékos válasza <b>megegyeznek</b>.</p>","null","","","","feedback trial","",""
"html-button-response-esp","33","306210","0.0-11.0-0.11","6250","János imád trukodni, ezért sokat trukszik. Ti ritkán...","0","trukodtok","[""trukodtok"",""trukszotok""]","trukodtok","esp trial","3","true"
"html-button-response","34","309727","0.0-11.0-1.11","null","<p>A másik játékos ezt választotta: <b>trukodtok</b>.</p><p>&#x2705;</p><p>A te válaszod és a másik játékos válasza <b>megegyeznek</b>.</p>","null","","","","feedback trial","",""
"html-button-response-esp","35","314571","0.0-11.0-0.12","4329","János imád nyádozni, ezért sokat nyádlik. Ők ritkán...","0","nyádlanak","[""nyádlanak"",""nyádoznak""]","nyádlanak","esp trial","3","true"
"html-button-response","36","318092","0.0-11.0-1.12","null","<p>A másik játékos ezt választotta: <b>nyádlanak</b>.</p><p>&#x2705;</p><p>A te válaszod és a másik játékos válasza <b>megegyeznek</b>.</p>","null","","","","feedback trial","",""
"html-button-response-esp","37","324482","0.0-11.0-0.13","5877","János imád metégedni, ezért sokat metégszik. Ők ritkán...","1","metégszenek","[""metégednek"",""metégszenek""]","metégednek","esp trial","3","false"
"html-button-response","38","327996","0.0-11.0-1.13","null","<p>A másik játékos ezt választotta: <b>metégednek</b>.</p><p>&#10060;</p><p>A válaszaitok <b>nem</b> egyeznek meg.</p>","null","","","","feedback trial","",""
"html-button-response-esp","39","335877","0.0-11.0-0.14","7368","János imád géregezni, ezért sokat géreglik. Ti ritkán...","0","géregletek","[""géregletek"",""géregeztek""]","géregeztek","esp trial","3","false"
"html-button-response","40","339387","0.0-11.0-1.14","null","<p>A másik játékos ezt választotta: <b>géregeztek</b>.</p><p>&#10060;</p><p>A válaszaitok <b>nem</b> egyeznek meg.</p>","null","","","","feedback trial","",""
"html-button-response-esp","41","345272","0.0-11.0-0.15","5381","János imád bresezni, ezért sokat breslik. Ők ritkán...","1","breslenek","[""breseznek"",""breslenek""]","breseznek","esp trial","3","false"
"html-button-response","42","348806","0.0-11.0-1.15","null","<p>A másik játékos ezt választotta: <b>breseznek</b>.</p><p>&#10060;</p><p>A válaszaitok <b>nem</b> egyeznek meg.</p>","null","","","","feedback trial","",""
"html-button-response-esp","43","354229","0.0-11.0-0.16","4908","János imád flátozni, ezért sokat flátlik. Ti ritkán...","1","flátoztok","[""flátlotok"",""flátoztok""]","flátoztok","esp trial","3","true"
"html-button-response","44","357767","0.0-11.0-1.16","null","<p>A másik játékos ezt választotta: <b>flátoztok</b>.</p><p>&#x2705;</p><p>A te válaszod és a másik játékos válasza <b>megegyeznek</b>.</p>","null","","","","feedback trial","",""
"html-button-response-esp","45","362644","0.0-11.0-0.17","4364","János imád nyöbözni, ezért sokat nyöbzik. Ők ritkán...","0","nyöböznek","[""nyöböznek"",""nyöbzenek""]","nyöböznek","esp trial","3","true"
"html-button-response","46","366172","0.0-11.0-1.17","null","<p>A másik játékos ezt választotta: <b>nyöböznek</b>.</p><p>&#x2705;</p><p>A te válaszod és a másik játékos válasza <b>megegyeznek</b>.</p>","null","","","","feedback trial","",""
"html-button-response-esp","47","372563","0.0-11.0-0.18","5882","János imád nivározni, ezért sokat nivárzik. Ti ritkán...","0","nivároztok","[""nivároztok"",""nivárzotok""]","nivároztok","esp trial","3","true"
"html-button-response","48","376087","0.0-11.0-1.18","null","<p>A másik játékos ezt választotta: <b>nivároztok</b>.</p><p>&#x2705;</p><p>A te válaszod és a másik játékos válasza <b>megegyeznek</b>.</p>","null","","","","feedback trial","",""
"html-button-response-esp","49","382535","0.0-11.0-0.19","5933","János imád frélegezni, ezért sokat frélegzik. Mi ritkán...","0","frélegzünk","[""frélegzünk"",""frélegezünk""]","frélegzünk","esp trial","3","true"
"html-button-response","50","386060","0.0-11.0-1.19","null","<p>A másik játékos ezt választotta: <b>frélegzünk</b>.</p><p>&#x2705;</p><p>A te válaszod és a másik játékos válasza <b>megegyeznek</b>.</p>","null","","","","feedback trial","",""
"html-button-response-esp","51","390877","0.0-11.0-0.20","4304","János imád gihamozni, ezért sokat gihamlik. Ők ritkán...","0","gihamlanak","[""gihamlanak"",""gihamoznak""]","gihamoznak","esp trial","3","false"
"html-button-response","52","394388","0.0-11.0-1.20","null","<p>A másik játékos ezt választotta: <b>gihamoznak</b>.</p><p>&#10060;</p><p>A válaszaitok <b>nem</b> egyeznek meg.</p>","null","","","","feedback trial","",""
"html-button-response-esp","53","401946","0.0-11.0-0.21","7047","János imád pibegezni, ezért sokat pibegzik. Ők ritkán...","1","pibegeznek","[""pibegzenek"",""pibegeznek""]","pibegeznek","esp trial","3","true"
"html-button-response","54","405467","0.0-11.0-1.21","null","<p>A másik játékos ezt választotta: <b>pibegeznek</b>.</p><p>&#x2705;</p><p>A te válaszod és a másik játékos válasza <b>megegyeznek</b>.</p>","null","","","","feedback trial","",""
"html-button-response-esp","55","415600","0.0-11.0-0.22","9629","János imád vilesezni, ezért sokat vileslik. Mi ritkán...","0","vilesezünk","[""vilesezünk"",""vileslünk""]","vilesezünk","esp trial","3","true"
"html-button-response","56","419116","0.0-11.0-1.22","null","<p>A másik játékos ezt választotta: <b>vilesezünk</b>.</p><p>&#x2705;</p><p>A te válaszod és a másik játékos válasza <b>megegyeznek</b>.</p>","null","","","","feedback trial","",""
"html-button-response-esp","57","426623","0.0-11.0-0.23","6992","János imád klűmözni, ezért sokat klűmlik. Ti ritkán...","0","klűmlötök","[""klűmlötök"",""klűmöztök""]","klűmöztök","esp trial","3","false"
"html-button-response","58","430143","0.0-11.0-1.23","null","<p>A másik játékos ezt választotta: <b>klűmöztök</b>.</p><p>&#10060;</p><p>A válaszaitok <b>nem</b> egyeznek meg.</p>","null","","","","feedback trial","",""
"html-button-response-esp","59","437677","0.0-11.0-0.24","7020","János imád nyizozni, ezért sokat nyizlik. Mi ritkán...","0","nyizozunk","[""nyizozunk"",""nyizlunk""]","nyizlunk","esp trial","3","false"
"html-button-response","60","441197","0.0-11.0-1.24","null","<p>A másik játékos ezt választotta: <b>nyizlunk</b>.</p><p>&#10060;</p><p>A válaszaitok <b>nem</b> egyeznek meg.</p>","null","","","","feedback trial","",""
"html-button-response-esp","61","449916","0.0-11.0-0.25","8203","János imád sprebezni, ezért sokat sprebzik. Ők ritkán...","1","sprebeznek","[""sprebzenek"",""sprebeznek""]","sprebeznek","esp trial","3","true"
"html-button-response","62","453435","0.0-11.0-1.25","null","<p>A másik játékos ezt választotta: <b>sprebeznek</b>.</p><p>&#x2705;</p><p>A te válaszod és a másik játékos válasza <b>megegyeznek</b>.</p>","null","","","","feedback trial","",""
"html-button-response-esp","63","460582","0.0-11.0-0.26","6643","János imád spuborozni, ezért sokat spuborzik. Ők ritkán...","0","spuboroznak","[""spuboroznak"",""spuborzanak""]","spuboroznak","esp trial","3","true"
"html-button-response","64","464103","0.0-11.0-1.26","null","<p>A másik játékos ezt választotta: <b>spuboroznak</b>.</p><p>&#x2705;</p><p>A te válaszod és a másik játékos válasza <b>megegyeznek</b>.</p>","null","","","","feedback trial","",""
"html-button-response-esp","65","472884","0.0-11.0-0.27","8267","János imád klihasozni, ezért sokat klihaslik. Ti ritkán...","0","klihasoztok","[""klihasoztok"",""klihaslotok""]","klihasoztok","esp trial","3","true"
"html-button-response","66","476404","0.0-11.0-1.27","null","<p>A másik játékos ezt választotta: <b>klihasoztok</b>.</p><p>&#x2705;</p><p>A te válaszod és a másik játékos válasza <b>megegyeznek</b>.</p>","null","","","","feedback trial","",""
"html-button-response-esp","67","481920","0.0-11.0-0.28","5001","János imád ribegedni, ezért sokat ribegszik. Ti ritkán...","0","ribegedtek","[""ribegedtek"",""ribegszetek""]","ribegedtek","esp trial","3","true"
"html-button-response","68","485450","0.0-11.0-1.28","null","<p>A másik játékos ezt választotta: <b>ribegedtek</b>.</p><p>&#x2705;</p><p>A te válaszod és a másik játékos válasza <b>megegyeznek</b>.</p>","null","","","","feedback trial","",""
"html-button-response-esp","69","494419","0.0-11.0-0.29","8458","János imád prihegedni, ezért sokat prihegszik. Ők ritkán...","1","prihegednek","[""prihegszenek"",""prihegednek""]","prihegednek","esp trial","3","true"
"html-button-response","70","497931","0.0-11.0-1.29","null","<p>A másik játékos ezt választotta: <b>prihegednek</b>.</p><p>&#x2705;</p><p>A te válaszod és a másik játékos válasza <b>megegyeznek</b>.</p>","null","","","","feedback trial","",""
"html-button-response-esp","71","502558","0.0-11.0-0.30","3870","János imád brűközni, ezért sokat brűklik. Ti ritkán...","0","brűköztök","[""brűköztök"",""brűklötök""]","brűköztök","esp trial","3","true"
"html-button-response","72","506091","0.0-11.0-1.30","null","<p>A másik játékos ezt választotta: <b>brűköztök</b>.</p><p>&#x2705;</p><p>A te válaszod és a másik játékos válasza <b>megegyeznek</b>.</p>","null","","","","feedback trial","",""
"html-button-response-esp","73","511831","0.0-11.0-0.31","5224","János imád frorozni, ezért sokat frorlik. Ők ritkán...","1","froroznak","[""frorlanak"",""froroznak""]","frorlanak","esp trial","3","false"
"html-button-response","74","515347","0.0-11.0-1.31","null","<p>A másik játékos ezt választotta: <b>frorlanak</b>.</p><p>&#10060;</p><p>A válaszaitok <b>nem</b> egyeznek meg.</p>","null","","","","feedback trial","",""
"html-button-response-esp","75","524718","0.0-11.0-0.32","8868","János imád bribasozni, ezért sokat bribaslik. Ők ritkán...","0","bribasoznak","[""bribasoznak"",""bribaslanak""]","bribasoznak","esp trial","3","true"
"html-button-response","76","528228","0.0-11.0-1.32","null","<p>A másik játékos ezt választotta: <b>bribasoznak</b>.</p><p>&#x2705;</p><p>A te válaszod és a másik játékos válasza <b>megegyeznek</b>.</p>","null","","","","feedback trial","",""
"html-button-response-esp","77","535320","0.0-11.0-0.33","6588","János imád bribékedni, ezért sokat bribékszik. Ti ritkán...","0","bribékedtek","[""bribékedtek"",""bribékszetek""]","bribékedtek","esp trial","3","true"
"html-button-response","78","538857","0.0-11.0-1.33","null","<p>A másik játékos ezt választotta: <b>bribékedtek</b>.</p><p>&#x2705;</p><p>A te válaszod és a másik játékos válasza <b>megegyeznek</b>.</p>","null","","","","feedback trial","",""
"html-button-response-esp","79","545680","0.0-11.0-0.34","6309","János imád frinyozni, ezért sokat frinylik. Mi ritkán...","0","frinyozunk","[""frinyozunk"",""frinylunk""]","frinyozunk","esp trial","3","true"
"html-button-response","80","549206","0.0-11.0-1.34","null","<p>A másik játékos ezt választotta: <b>frinyozunk</b>.</p><p>&#x2705;</p><p>A te válaszod és a másik játékos válasza <b>megegyeznek</b>.</p>","null","","","","feedback trial","",""
"html-button-response-esp","81","558754","0.0-11.0-0.35","9032","János imád flodozni, ezért sokat flodlik. Ti ritkán...","0","flodoztok","[""flodoztok"",""flodlotok""]","flodoztok","esp trial","3","true"
"html-button-response","82","562279","0.0-11.0-1.35","null","<p>A másik játékos ezt választotta: <b>flodoztok</b>.</p><p>&#x2705;</p><p>A te válaszod és a másik játékos válasza <b>megegyeznek</b>.</p>","null","","","","feedback trial","",""
"html-button-response-esp","83","568663","0.0-11.0-0.36","5867","János imád frirozni, ezért sokat frirzik. Mi ritkán...","0","frirzunk","[""frirzunk"",""frirozunk""]","frirozunk","esp trial","3","false"
"html-button-response","84","572178","0.0-11.0-1.36","null","<p>A másik játékos ezt választotta: <b>frirozunk</b>.</p><p>&#10060;</p><p>A válaszaitok <b>nem</b> egyeznek meg.</p>","null","","","","feedback trial","",""
"html-button-response-esp","85","581031","0.0-11.0-0.37","8337","János imád brürözni, ezért sokat brürzik. Ők ritkán...","1","brüröznek","[""brürzenek"",""brüröznek""]","brüröznek","esp trial","3","true"
"html-button-response","86","584557","0.0-11.0-1.37","null","<p>A másik játékos ezt választotta: <b>brüröznek</b>.</p><p>&#x2705;</p><p>A te válaszod és a másik játékos válasza <b>megegyeznek</b>.</p>","null","","","","feedback trial","",""
"html-button-response-esp","87","593227","0.0-11.0-0.38","8155","János imád nurokozni, ezért sokat nuroklik. Mi ritkán...","0","nurokozunk","[""nurokozunk"",""nuroklunk""]","nuroklunk","esp trial","3","false"
"html-button-response","88","596751","0.0-11.0-1.38","null","<p>A másik játékos ezt választotta: <b>nuroklunk</b>.</p><p>&#10060;</p><p>A válaszaitok <b>nem</b> egyeznek meg.</p>","null","","","","feedback trial","",""
"html-button-response-esp","89","602286","0.0-11.0-0.39","5020","János imád trálakozni, ezért sokat trálaklik. Ők ritkán...","0","trálakoznak","[""trálakoznak"",""trálaklanak""]","trálakoznak","esp trial","3","true"
"html-button-response","90","605800","0.0-11.0-1.39","null","<p>A másik játékos ezt választotta: <b>trálakoznak</b>.</p><p>&#x2705;</p><p>A te válaszod és a másik játékos válasza <b>megegyeznek</b>.</p>","null","","","","feedback trial","",""
"html-button-response-esp","91","610425","0.0-11.0-0.40","3888","János imád klégezni, ezért sokat kléglik. Mi ritkán...","0","kléglünk","[""kléglünk"",""klégezünk""]","kléglünk","esp trial","3","true"
"html-button-response","92","613952","0.0-11.0-1.40","null","<p>A másik játékos ezt választotta: <b>kléglünk</b>.</p><p>&#x2705;</p><p>A te válaszod és a másik játékos válasza <b>megegyeznek</b>.</p>","null","","","","feedback trial","",""
"html-button-response-esp","93","622588","0.0-11.0-0.41","8122","János imád trilekedni, ezért sokat trilekszik. Ti ritkán...","1","trilekszetek","[""trilekedtek"",""trilekszetek""]","trilekedtek","esp trial","3","false"
"html-button-response","94","626099","0.0-11.0-1.41","null","<p>A másik játékos ezt választotta: <b>trilekedtek</b>.</p><p>&#10060;</p><p>A válaszaitok <b>nem</b> egyeznek meg.</p>","null","","","","feedback trial","",""
"html-button-response-esp","95","634023","0.0-11.0-0.42","7423","János imád spivejezni, ezért sokat spivejlik. Ők ritkán...","0","spivejlenek","[""spivejlenek"",""spivejeznek""]","spivejeznek","esp trial","3","false"
"html-button-response","96","637553","0.0-11.0-1.42","null","<p>A másik játékos ezt választotta: <b>spivejeznek</b>.</p><p>&#10060;</p><p>A válaszaitok <b>nem</b> egyeznek meg.</p>","null","","","","feedback trial","",""
"html-button-response-esp","97","648919","0.0-11.0-0.43","10849","János imád dralágozni, ezért sokat dralágzik. Mi ritkán...","1","dralágzunk","[""dralágozunk"",""dralágzunk""]","dralágzunk","esp trial","3","true"
"html-button-response","98","652434","0.0-11.0-1.43","null","<p>A másik játékos ezt választotta: <b>dralágzunk</b>.</p><p>&#x2705;</p><p>A te válaszod és a másik játékos válasza <b>megegyeznek</b>.</p>","null","","","","feedback trial","",""
"html-button-response-esp","99","662659","0.0-11.0-0.44","9720","János imád trálodni, ezért sokat trálszik. Mi ritkán...","1","trálodunk","[""trálszunk"",""trálodunk""]","trálszunk","esp trial","3","false"
"html-button-response","100","666187","0.0-11.0-1.44","null","<p>A másik játékos ezt választotta: <b>trálszunk</b>.</p><p>&#10060;</p><p>A válaszaitok <b>nem</b> egyeznek meg.</p>","null","","","","feedback trial","",""
"html-button-response-esp","101","672029","0.0-11.0-0.45","5327","János imád bügözni, ezért sokat bügzik. Ők ritkán...","0","bügzenek","[""bügzenek"",""bügöznek""]","bügzenek","esp trial","3","true"
"html-button-response","102","675558","0.0-11.0-1.45","null","<p>A másik játékos ezt választotta: <b>bügzenek</b>.</p><p>&#x2705;</p><p>A te válaszod és a másik játékos válasza <b>megegyeznek</b>.</p>","null","","","","feedback trial","",""
"html-button-response-esp","103","687982","0.0-11.0-0.46","11915","János imád prugorozni, ezért sokat prugorzik. Ti ritkán...","1","prugoroztok","[""prugorzotok"",""prugoroztok""]","prugoroztok","esp trial","3","true"
"html-button-response","104","691502","0.0-11.0-1.46","null","<p>A másik játékos ezt választotta: <b>prugoroztok</b>.</p><p>&#x2705;</p><p>A te válaszod és a másik játékos válasza <b>megegyeznek</b>.</p>","null","","","","feedback trial","",""
"html-button-response-esp","105","697831","0.0-11.0-0.47","5818","János imád dibágozni, ezért sokat dibáglik. Ti ritkán...","0","dibáglotok","[""dibáglotok"",""dibágoztok""]","dibágoztok","esp trial","3","false"
"html-button-response","106","701359","0.0-11.0-1.47","null","<p>A másik játékos ezt választotta: <b>dibágoztok</b>.</p><p>&#10060;</p><p>A válaszaitok <b>nem</b> egyeznek meg.</p>","null","","","","feedback trial","",""
"html-button-response-esp","107","710714","0.0-11.0-0.48","8837","János imád kláragodni, ezért sokat kláragszik. Ti ritkán...","1","kláragszotok","[""kláragodtok"",""kláragszotok""]","kláragodtok","esp trial","3","false"
"html-button-response","108","714235","0.0-11.0-1.48","null","<p>A másik játékos ezt választotta: <b>kláragodtok</b>.</p><p>&#10060;</p><p>A válaszaitok <b>nem</b> egyeznek meg.</p>","null","","","","feedback trial","",""
"html-button-response-esp","109","719971","0.0-11.0-0.49","5222","János imád flugonyozni, ezért sokat flugonylik. Ők ritkán...","1","flugonylanak","[""flugonyoznak"",""flugonylanak""]","flugonyoznak","esp trial","3","false"
"html-button-response","110","723494","0.0-11.0-1.49","null","<p>A másik játékos ezt választotta: <b>flugonyoznak</b>.</p><p>&#10060;</p><p>A válaszaitok <b>nem</b> egyeznek meg.</p>","null","","","","feedback trial","",""
"html-button-response-esp","111","728590","0.0-11.0-0.50","4581","János imád sűjözni, ezért sokat sűjlik. Mi ritkán...","0","sűjlünk","[""sűjlünk"",""sűjözünk""]","sűjlünk","esp trial","3","true"
"html-button-response","112","732117","0.0-11.0-1.50","null","<p>A másik játékos ezt választotta: <b>sűjlünk</b>.</p><p>&#x2705;</p><p>A te válaszod és a másik játékos válasza <b>megegyeznek</b>.</p>","null","","","","feedback trial","",""
"html-button-response-esp","113","738590","0.0-11.0-0.51","5959","János imád vihapodni, ezért sokat vihapszik. Mi ritkán...","0","vihapszunk","[""vihapszunk"",""vihapodunk""]","vihapszunk","esp trial","3","true"
"html-button-response","114","742099","0.0-11.0-1.51","null","<p>A másik játékos ezt választotta: <b>vihapszunk</b>.</p><p>&#x2705;</p><p>A te válaszod és a másik játékos válasza <b>megegyeznek</b>.</p>","null","","","","feedback trial","",""
"html-button-response-esp","115","749514","0.0-11.0-0.52","6903","János imád bötőrözni, ezért sokat bötőrzik. Mi ritkán...","1","bötőrzünk","[""bötőrözünk"",""bötőrzünk""]","bötőrözünk","esp trial","3","false"
"html-button-response","116","753054","0.0-11.0-1.52","null","<p>A másik játékos ezt választotta: <b>bötőrözünk</b>.</p><p>&#10060;</p><p>A válaszaitok <b>nem</b> egyeznek meg.</p>","null","","","","feedback trial","",""
"html-button-response-esp","117","760267","0.0-11.0-0.53","6699","János imád vehékedni, ezért sokat vehékszik. Mi ritkán...","0","vehékszünk","[""vehékszünk"",""vehékedünk""]","vehékszünk","esp trial","3","true"
"html-button-response","118","763793","0.0-11.0-1.53","null","<p>A másik játékos ezt választotta: <b>vehékszünk</b>.</p><p>&#x2705;</p><p>A te válaszod és a másik játékos válasza <b>megegyeznek</b>.</p>","null","","","","feedback trial","",""
"html-button-response","119","775952","0.0-12.0","11643","<p>A közös játék most véget ért.</p><p>Mielőtt eláruljuk a végső pontszámodat, arra kérlek, játszd a szóválasztós játékot néhány percig egyedül is.</p><p>A feladatod ugyanaz lesz, választani két lehetőség közül.</p><p>Most viszont egyedül kell döntened, hogy te melyiket választanád.</p>","0","","","","","",""
"html-button-response-clever","120","784034","0.0-13.0-0.0","7581","János imád branyozni, ezért sokat branylik. Ők ritkán...","0","branylanak","[""branylanak"",""branyoznak""]","","posttest trial","4",""
"html-button-response-clever","121","793446","0.0-13.0-0.1","8893","János imád trikozni, ezért sokat triklik. Ti ritkán...","0","triklotok","[""triklotok"",""trikoztok""]","","posttest trial","4",""
"html-button-response-clever","122","802736","0.0-13.0-0.2","8780","János imád klehényezni, ezért sokat klehénylik. Ti ritkán...","0","klehényletek","[""klehényletek"",""klehényeztek""]","","posttest trial","4",""
"html-button-response-clever","123","818307","0.0-13.0-0.3","15057","János imád dujozni, ezért sokat dujzik. Ők ritkán...","1","dujzanak","[""dujoznak"",""dujzanak""]","","posttest trial","4",""
"html-button-response-clever","124","826854","0.0-13.0-0.4","8041","János imád dárakodni, ezért sokat dárakszik. Mi ritkán...","0","dárakszunk","[""dárakszunk"",""dárakodunk""]","","posttest trial","4",""
"html-button-response-clever","125","833670","0.0-13.0-0.5","6302","János imád csibagozni, ezért sokat csibagzik. Ti ritkán...","1","csibagzotok","[""csibagoztok"",""csibagzotok""]","","posttest trial","4",""
"html-button-response-clever","126","843519","0.0-13.0-0.6","9331","János imád fröjözni, ezért sokat fröjzik. Ti ritkán...","1","fröjöztök","[""fröjzötök"",""fröjöztök""]","","posttest trial","4",""
"html-button-response-clever","127","850490","0.0-13.0-0.7","6465","János imád flemezni, ezért sokat flemlik. Mi ritkán...","0","flemlünk","[""flemlünk"",""flemezünk""]","","posttest trial","4",""
"html-button-response-clever","128","857961","0.0-13.0-0.8","6962","János imád pragányozni, ezért sokat pragánylik. Ti ritkán...","0","pragánylotok","[""pragánylotok"",""pragányoztok""]","","posttest trial","4",""
"html-button-response-clever","129","870452","0.0-13.0-0.9","11982","János imád föködni, ezért sokat fökszik. Ők ritkán...","1","fökszenek","[""föködnek"",""fökszenek""]","","posttest trial","4",""
"html-button-response-clever","130","879221","0.0-13.0-0.10","8265","János imád mágamozni, ezért sokat mágamlik. Mi ritkán...","0","mágamlunk","[""mágamlunk"",""mágamozunk""]","","posttest trial","4",""
"html-button-response-clever","131","888937","0.0-13.0-0.11","9214","János imád spügözni, ezért sokat spügzik. Mi ritkán...","1","spügzünk","[""spügözünk"",""spügzünk""]","","posttest trial","4",""
"html-button-response-clever","132","919557","0.0-13.0-0.12","30112","János imád posozni, ezért sokat poslik. Ti ritkán...","0","poslotok","[""poslotok"",""posoztok""]","","posttest trial","4",""
"html-button-response-clever","133","946421","0.0-13.0-0.13","26351","János imád sprudozni, ezért sokat sprudlik. Mi ritkán...","1","sprudlunk","[""sprudozunk"",""sprudlunk""]","","posttest trial","4",""
"html-button-response-clever","134","951402","0.0-13.0-0.14","4468","János imád flűgözni, ezért sokat flűgzik. Mi ritkán...","1","flűgzünk","[""flűgözünk"",""flűgzünk""]","","posttest trial","4",""
"html-button-response-clever","135","956177","0.0-13.0-0.15","4259","János imád flöközni, ezért sokat flöklik. Ti ritkán...","0","flököztök","[""flököztök"",""flöklötök""]","","posttest trial","4",""
"html-button-response-clever","136","969279","0.0-13.0-0.16","12588","János imád gihejezni, ezért sokat gihejlik. Mi ritkán...","0","gihejlünk","[""gihejlünk"",""gihejezünk""]","","posttest trial","4",""
"html-button-response-clever","137","975688","0.0-13.0-0.17","5888","János imád dirozni, ezért sokat dirlik. Ti ritkán...","0","dirlotok","[""dirlotok"",""diroztok""]","","posttest trial","4",""
"html-button-response-clever","138","987993","0.0-13.0-0.18","11793","János imád bratározni, ezért sokat bratárzik. Ők ritkán...","1","bratároznak","[""bratárzanak"",""bratároznak""]","","posttest trial","4",""
"html-button-response-clever","139","994981","0.0-13.0-0.19","6481","János imád köszözni, ezért sokat köszlik. Ti ritkán...","0","köszlötök","[""köszlötök"",""köszöztök""]","","posttest trial","4",""
"html-button-response-clever","140","1002159","0.0-13.0-0.20","6673","János imád püzözni, ezért sokat püzlik. Ti ritkán...","1","püzlötök","[""püzöztök"",""püzlötök""]","","posttest trial","4",""
"html-button-response-clever","141","1010710","0.0-13.0-0.21","8031","János imád csubozni, ezért sokat csubzik. Mi ritkán...","1","csubzunk","[""csubozunk"",""csubzunk""]","","posttest trial","4",""
"html-button-response-clever","142","1020438","0.0-13.0-0.22","9226","János imád sprűrözni, ezért sokat sprűrlik. Ők ritkán...","1","sprűrlenek","[""sprűröznek"",""sprűrlenek""]","","posttest trial","4",""
"html-button-response-clever","143","1029030","0.0-13.0-0.23","8091","János imád virozni, ezért sokat virzik. Ők ritkán...","0","virzanak","[""virzanak"",""viroznak""]","","posttest trial","4",""
"html-button-response-clever","144","1039224","0.0-13.0-0.24","9690","János imád spirágozni, ezért sokat spiráglik. Ti ritkán...","1","spiráglotok","[""spirágoztok"",""spiráglotok""]","","posttest trial","4",""
"html-button-response-clever","145","1045595","0.0-13.0-0.25","5855","János imád prögözni, ezért sokat prögzik. Ti ritkán...","0","prögöztök","[""prögöztök"",""prögzötök""]","","posttest trial","4",""
"html-button-response-clever","146","1052570","0.0-13.0-0.26","6472","János imád flüröközni, ezért sokat flüröklik. Ti ritkán...","1","flüröklötök","[""flürököztök"",""flüröklötök""]","","posttest trial","4",""
"html-button-response-clever","147","1057869","0.0-13.0-0.27","4793","János imád nyürözni, ezért sokat nyürzik. Ők ritkán...","0","nyürzenek","[""nyürzenek"",""nyüröznek""]","","posttest trial","4",""
"html-button-response-clever","148","1063845","0.0-13.0-0.28","5459","János imád lájozni, ezért sokat lájzik. Ti ritkán...","1","lájzotok","[""lájoztok"",""lájzotok""]","","posttest trial","4",""
"html-button-response-clever","149","1071976","0.0-13.0-0.29","7621","János imád molodni, ezért sokat molszik. Ti ritkán...","1","molszotok","[""molodtok"",""molszotok""]","","posttest trial","4",""
"html-button-response-clever","150","1079303","0.0-13.0-0.30","6822","János imád privékedni, ezért sokat privékszik. Ők ritkán...","0","privékszenek","[""privékszenek"",""privékednek""]","","posttest trial","4",""
"html-button-response-clever","151","1095888","0.0-13.0-0.31","16084","János imád prélemezni, ezért sokat prélemlik. Ők ritkán...","0","prélemeznek","[""prélemeznek"",""prélemlenek""]","","posttest trial","4",""
"html-button-response-clever","152","1103313","0.0-13.0-0.32","6910","János imád brivakozni, ezért sokat brivaklik. Ti ritkán...","1","brivaklotok","[""brivakoztok"",""brivaklotok""]","","posttest trial","4",""
"html-button-response-clever","153","1112397","0.0-13.0-0.33","8562","János imád spibegezni, ezért sokat spibeglik. Mi ritkán...","0","spibeglünk","[""spibeglünk"",""spibegezünk""]","","posttest trial","4",""
"html-button-response-clever","154","1120779","0.0-13.0-0.34","7876","János imád drűrözni, ezért sokat drűrzik. Ők ritkán...","0","drűröznek","[""drűröznek"",""drűrzenek""]","","posttest trial","4",""
"html-button-response-clever","155","1127026","0.0-13.0-0.35","5734","János imád nyivágozni, ezért sokat nyivágzik. Mi ritkán...","0","nyivágzunk","[""nyivágzunk"",""nyivágozunk""]","","posttest trial","4",""
"html-button-response-clever","156","1137041","0.0-13.0-0.36","9497","János imád trugokozni, ezért sokat trugoklik. Ők ritkán...","0","trugoklanak","[""trugoklanak"",""trugokoznak""]","","posttest trial","4",""
"html-button-response-clever","157","1142950","0.0-13.0-0.37","5401","János imád dabozni, ezért sokat dabzik. Ti ritkán...","1","dabzotok","[""daboztok"",""dabzotok""]","","posttest trial","4",""
"html-button-response-clever","158","1149906","0.0-13.0-0.38","6440","János imád sprozozni, ezért sokat sprozlik. Ők ritkán...","1","sprozlanak","[""sprozoznak"",""sprozlanak""]","","posttest trial","4",""
"html-button-response-clever","159","1156836","0.0-13.0-0.39","6425","János imád frakozni, ezért sokat fraklik. Mi ritkán...","1","frakozunk","[""fraklunk"",""frakozunk""]","","posttest trial","4",""
"html-button-response-clever","160","1165630","0.0-13.0-0.40","8286","János imád trivakodni, ezért sokat trivakszik. Mi ritkán...","0","trivakszunk","[""trivakszunk"",""trivakodunk""]","","posttest trial","4",""
"html-button-response-clever","161","1172352","0.0-13.0-0.41","6219","János imád dilakozni, ezért sokat dilaklik. Ti ritkán...","0","dilakoztok","[""dilakoztok"",""dilaklotok""]","","posttest trial","4",""
"html-button-response-clever","162","1181463","0.0-13.0-0.42","8598","János imád spiharozni, ezért sokat spiharzik. Ti ritkán...","0","spiharoztok","[""spiharoztok"",""spiharzotok""]","","posttest trial","4",""
"html-button-response-clever","163","1195421","0.0-13.0-0.43","13440","János imád frálapodni, ezért sokat frálapszik. Ti ritkán...","0","frálapodtok","[""frálapodtok"",""frálapszotok""]","","posttest trial","4",""
"html-button-response-clever","164","1200790","0.0-13.0-0.44","4864","János imád kűdözni, ezért sokat kűdlik. Ők ritkán...","0","kűdlenek","[""kűdlenek"",""kűdöznek""]","","posttest trial","4",""
"html-button-response-clever","165","1210407","0.0-13.0-0.45","9116","János imád gyihegezni, ezért sokat gyihegzik. Ti ritkán...","1","gyihegeztek","[""gyihegzetek"",""gyihegeztek""]","","posttest trial","4",""
"html-button-response-clever","166","1217322","0.0-13.0-0.46","6395","János imád frálasozni, ezért sokat frálaslik. Ők ritkán...","0","frálasoznak","[""frálasoznak"",""frálaslanak""]","","posttest trial","4",""
"html-button-response-clever","167","1225535","0.0-13.0-0.47","7707","János imád pilégedni, ezért sokat pilégszik. Ők ritkán...","0","pilégszenek","[""pilégszenek"",""pilégednek""]","","posttest trial","4",""
"html-button-response-clever","168","1232515","0.0-13.0-0.48","6468","János imád lűközni, ezért sokat lűklik. Ők ritkán...","0","lűköznek","[""lűköznek"",""lűklenek""]","","posttest trial","4",""
"html-button-response-clever","169","1242918","0.0-13.0-0.49","9891","János imád trugozni, ezért sokat trugzik. Ők ritkán...","1","trugoznak","[""trugzanak"",""trugoznak""]","","posttest trial","4",""
"html-button-response-clever","170","1252592","0.0-13.0-0.50","9162","János imád mülőrözni, ezért sokat mülőrzik. Mi ritkán...","0","mülőrzünk","[""mülőrzünk"",""mülőrözünk""]","","posttest trial","4",""
"html-button-response-clever","171","1260736","0.0-13.0-0.51","7630","János imád brülösözni, ezért sokat brülöslik. Mi ritkán...","1","brülöslünk","[""brülösözünk"",""brülöslünk""]","","posttest trial","4",""
"html-button-response-clever","172","1269318","0.0-13.0-0.52","8081","János imád brözözni, ezért sokat brözlik. Ti ritkán...","1","brözöztök","[""brözlötök"",""brözöztök""]","","posttest trial","4",""
"html-button-response-clever","173","1277320","0.0-13.0-0.53","7500","János imád drilarozni, ezért sokat drilarzik. Mi ritkán...","1","drilarzunk","[""drilarozunk"",""drilarzunk""]","","posttest trial","4",""
"html-button-response","174","1288593","0.0-14.0","10763","<p> Vége a játéknak. A teljes pontszámod 32/54.</p><p> Szép munka! &#128526;&#128526;&#128526;</p><p>A Befejezés gomb megnyomása után bezárhatod a böngészőablakot.</p>","0","","","","","",""
"html-keyboard-response","175","1294109","0.0-15.0","null","<div class=""message"">
         <p>Egy kis türelmet kérünk, amíg elmentjük az adatokat...</p>
         </div>","null","","","","","",""
