"trial_type","trial_index","time_elapsed","internal_node_id","rt","stimulus","response","response_string","choices","esp_response","trial_kind","list_number","esp_match"
"pavlovia","0","1067","0.0-0.0","","","","","","","","",""
"html-button-response","1","27385","0.0-1.0","25814","<p>Kedves Résztvevő! A Budapesti Műszaki és Gazdaságtudományi Egyetem Kognitív Tudományi Tanszékének kutatásában való részvételed kérjük. A kutatásban azt vizsgáljuk, hogy a magyar anyanyelvűek hogyan használnak bizonyos szóalakokat, és hogy milyen képük van arról, hogy mások hogyan használják, hogyan képzik a szavakat. Ez hozzásegít bennünket ahhoz, hogy jobban megértsük, hogyan dolgozza fel és tárolja a nyelvet az emberi agy, és hogyan működnek, hogyan változnak egy adott közösség nyelvi konvenciói.</p><p>A vizsgálat egy rövid számítógépes feladatból fog állni. A kutatásban való részvétel önkéntes, a részvételi szándék bármikor visszavonható. A résztvevők eredményeit név nélkül kezeljük, így nem beazonosíthatók az adatok feldolgozása során. Minden személyes adatot az EU általános adatvédelmi rendeletének (GDPR) megfelelően kezelünk és legfeljebb öt éven belül megsemmisítünk. A vizsgálat jellemzően húsz percet vesz igénybe.</p><p>Kutatásvezető:</p><p>Dr. Rácz Péter, tudományos munkatárs, BME KTT</p><p>e-mail: racz.peter.marton@ttk.bme.hu</p>","0","","","","","",""
"html-button-response","2","68361","0.0-2.0","40471","<p>A kísérletben szavakat fogsz látni. Ezek között lesznek olyanok, amelyeket ismersz, de előfordulhatnak olyanok is, amelyeket nem ismersz, sőt, vannak köztük kitalált szavak is. Minden szónál látni fogsz toldalékolt alakokat. A te feladatod az lesz, hogy minden szóhoz kiválaszd azt a toldalékolt alakot, amely a te számodra ismerősebben, természetesebben hangzik. Rossz válaszok nincsenek, mert van olyan, hogy különböző embereknek más és más szó tűnik jobb választásnak. A választ úgy tudod majd kiválasztani, ha rákattintasz.</p><p>Ebben a szóválasztós játékban egy másik játékossal együtt veszel majd részt. A másik játékos is minden esetben azok közül a lehetőségek közül válogathat, mint te. Kettőtök feladata az, hogy ugyanazt a lehetőséget válasszátok minden esetben. Ahhoz, hogy ez sikerüljön, neked figyelned kell arra, hogy a másik játékos milyen válaszokat ad, és ennek alapján meg kell tippelned, hogyan választ legközelebb. Ha eltalálod, akkor pontot kapsz.</p>","0","","","","","",""
"html-button-response","3","81713","0.0-3.0","12839","<p>Kérjük, olvasd el az alábbi nyilatkozatot, és amennyiben egyetértesz vele, nyomj a Beleegyezés gombra!</p><p>Kijelentem, hogy magyar anyanyelvű személyként önként veszek részt a BME KTT kísérletében. A kutatás céljával és folyamatával kapcsolatban elegendő tájékoztatást kaptam, lehetőségem volt kérdések feltételére, és esetleges kérdéseimre megfelelő válaszokat kaptam. A tájékoztatás alapján elegendő mennyiségű információ áll a rendelkezésemre, hogy eldönthessem, részt kívánok-e venni a kutatásban.</p><p>Tisztában vagyok vele, hogy részvételi szándékomat és adataimat bármikor, indoklás nélkül visszavonhatom.</p><p>Értem és tudomásul veszem, hogy a kutatás tudományos célokat szolgál, és az általam szolgáltatott adatokat a BME kizárólag kutatási célból használja fel. Tudomásul veszem, hogy eredményeimet a többi résztvevő eredményeivel együtt kezelik, így egyéni teljesítményemről visszajelzést, szakvéleményt nem kapok.</p><p>Megértettem, hogy adataim kezelését illetően a BME az EU általános adatvédelmi rendelete (GDPR), a hatályos adatvédelmi törvény és a nemzetközi kutatás-etikai alapelvek szerint jár el. Eredményeim anonim módon kerülnek feldolgozásra, és a kutatás résztvevői az azonosításomra alkalmas adataimat harmadik félnek nem szolgáltatják ki. Engedélyezem a BME számára a jelen kutatásban felvett adataim feldolgozását és tárolását, beleértve azok későbbi kutatásokhoz való felhasználását is. Személyes adataim kezelésével kapcsolatban tájékoztatást kérhetek a kutatás résztvevőitől, az adatkezelés ellen tiltakozhatok, kérhetem személyes adataim helyesbítését, törlését vagy zárolását, valamint jogorvoslatért a Nemzeti Adatvédelmi és Információszabadság Hatósághoz fordulhatok.</p><p>Kijelentem, hogy a kutatásban való részvételem körülményeiről részletes tájékoztatást kaptam, és a feltételeket elfogadom.</p>","0","","","","","",""
"survey-text","4","134385","0.0-4.0","52164","","{""Q0"":""SN208"",""Q1"":""nő"",""Q2"":""2003"",""Q3"":""13""}","","","","","",""
"html-button-response","5","152464","0.0-5.0","17574","<p>Ebben a játékban szavakat kell toldalékolni.</p> <p>Minden körben mutatunk majd egy példamondatot, amiben lesz egy szó.</p> <p>Alatta jön egy második mondat, ezt a mondatot neked kell majd befejezni, ugyanezzel a szóval.</p> <p>Nem biztos, hogy a szó eleve ismerős lesz számodra!</p> <p>Minden mondathoz adunk két lehetőséget, ezeket balra és jobbra látod majd.</p> <p>A játék kb. negyedóráig-húsz percig tart.</p>","0","","","","","",""
"html-button-response","6","171424","0.0-6.0","18447","<p>Nézzünk egy példát!</p> <p>A példamondat: ""János imád fláramolni, ezért sokat fláramlik. Mi ritkán...""</p><p>Neked ezt a mondatot kell befejezned: ""Ti ritkán...""</p><p>A lehetőségek pedig ezek:</p>","0","","","","","",""
"html-button-response","7","179008","0.0-7.0","7068","<p>Nagyon jó.</p><p>Ezt a játékot nem egyedül fogod játszani, hanem egy másik játékossal.</p><p>Mielőtt továbblépünk, összekapcsolunk titeket egymással.</p><p>Ez igénybe vehet néhány másodpercet, amihez szíves türelmed kérjük.</p>","0","","","","","",""
"html-button-response","8","184748","0.0-8.0","null","<p>Csatlakozás a másik játékoshoz...</p>","null","","","","","",""
"html-button-response","9","187278","0.0-9.0","null","<p> Sikeres kapcsolódás!</p>","null","","","","","",""
"html-button-response","10","197792","0.0-10.0","null","<p>A következőkben ketten játsszátok a szóválasztós játékot.</p><p>A feladatotok az lesz, hogy minden körben <b>ugyanazt</b> a szót válasszátok.</p><p>Minden ilyen egyező válaszért pontot kaptok.</p><p>Próbáld meg kitalálni, mit választ a másik játékos!</p><p>Bármikor választhatsz, a körnek akkor van vége, ha mindketten döntöttetek.</p><p>Sok sikert!</p>","null","","","","","",""
"html-button-response-esp","11","209480","0.0-11.0-0.0","11177","János imád bötőrözni, ezért sokat bötőrzik. Mi ritkán...","0","bötőrzünk","[""bötőrzünk"",""bötőrözünk""]","bötőrözünk","esp trial","3","false"
"html-button-response","12","212996","0.0-11.0-1.0","null","<p>A másik játékos ezt választotta: <b>bötőrözünk</b>.</p><p>&#10060;</p><p>A válaszaitok <b>nem</b> egyeznek meg.</p>","null","","","","feedback trial","",""
"html-button-response-esp","13","228448","0.0-11.0-0.1","14943","János imád dibágozni, ezért sokat dibáglik. Ti ritkán...","0","dibáglotok","[""dibáglotok"",""dibágoztok""]","dibágoztok","esp trial","3","false"
"html-button-response","14","231977","0.0-11.0-1.1","null","<p>A másik játékos ezt választotta: <b>dibágoztok</b>.</p><p>&#10060;</p><p>A válaszaitok <b>nem</b> egyeznek meg.</p>","null","","","","feedback trial","",""
"html-button-response-esp","15","247792","0.0-11.0-0.2","15300","János imád gihamozni, ezért sokat gihamlik. Ők ritkán...","1","gihamoznak","[""gihamlanak"",""gihamoznak""]","gihamoznak","esp trial","3","true"
"html-button-response","16","251307","0.0-11.0-1.2","null","<p>A másik játékos ezt választotta: <b>gihamoznak</b>.</p><p>&#x2705;</p><p>A te válaszod és a másik játékos válasza <b>megegyeznek</b>.</p>","null","","","","feedback trial","",""
"html-button-response-esp","17","259128","0.0-11.0-0.3","7307","János imád bejezni, ezért sokat bejzik. Mi ritkán...","1","bejezünk","[""bejzünk"",""bejezünk""]","bejezünk","esp trial","3","true"
"html-button-response","18","262658","0.0-11.0-1.3","null","<p>A másik játékos ezt választotta: <b>bejezünk</b>.</p><p>&#x2705;</p><p>A te válaszod és a másik játékos válasza <b>megegyeznek</b>.</p>","null","","","","feedback trial","",""
"html-button-response-esp","19","280103","0.0-11.0-0.4","16931","János imád bribasozni, ezért sokat bribaslik. Ők ritkán...","0","bribasoznak","[""bribasoznak"",""bribaslanak""]","bribasoznak","esp trial","3","true"
"html-button-response","20","283627","0.0-11.0-1.4","null","<p>A másik játékos ezt választotta: <b>bribasoznak</b>.</p><p>&#x2705;</p><p>A te válaszod és a másik játékos válasza <b>megegyeznek</b>.</p>","null","","","","feedback trial","",""
"html-button-response-esp","21","296824","0.0-11.0-0.5","12681","János imád prihegedni, ezért sokat prihegszik. Ők ritkán...","0","prihegszenek","[""prihegszenek"",""prihegednek""]","prihegednek","esp trial","3","false"
"html-button-response","22","300356","0.0-11.0-1.5","null","<p>A másik játékos ezt választotta: <b>prihegednek</b>.</p><p>&#10060;</p><p>A válaszaitok <b>nem</b> egyeznek meg.</p>","null","","","","feedback trial","",""
"html-button-response-esp","23","321224","0.0-11.0-0.6","20364","János imád pibegezni, ezért sokat pibegzik. Ők ritkán...","1","pibegeznek","[""pibegzenek"",""pibegeznek""]","pibegeznek","esp trial","3","true"
"html-button-response","24","324748","0.0-11.0-1.6","null","<p>A másik játékos ezt választotta: <b>pibegeznek</b>.</p><p>&#x2705;</p><p>A te válaszod és a másik játékos válasza <b>megegyeznek</b>.</p>","null","","","","feedback trial","",""
"html-button-response-esp","25","339032","0.0-11.0-0.7","13773","János imád vehékedni, ezért sokat vehékszik. Mi ritkán...","0","vehékedünk","[""vehékedünk"",""vehékszünk""]","vehékszünk","esp trial","3","false"
"html-button-response","26","342558","0.0-11.0-1.7","null","<p>A másik játékos ezt választotta: <b>vehékszünk</b>.</p><p>&#10060;</p><p>A válaszaitok <b>nem</b> egyeznek meg.</p>","null","","","","feedback trial","",""
"html-button-response-esp","27","349504","0.0-11.0-0.8","6432","János imád brürözni, ezért sokat brürzik. Ők ritkán...","1","brürzenek","[""brüröznek"",""brürzenek""]","brüröznek","esp trial","3","false"
"html-button-response","28","353040","0.0-11.0-1.8","null","<p>A másik játékos ezt választotta: <b>brüröznek</b>.</p><p>&#10060;</p><p>A válaszaitok <b>nem</b> egyeznek meg.</p>","null","","","","feedback trial","",""
"html-button-response-esp","29","363520","0.0-11.0-0.9","9966","János imád spivejezni, ezért sokat spivejlik. Ők ritkán...","0","spivejlenek","[""spivejlenek"",""spivejeznek""]","spivejeznek","esp trial","3","false"
"html-button-response","30","367062","0.0-11.0-1.9","null","<p>A másik játékos ezt választotta: <b>spivejeznek</b>.</p><p>&#10060;</p><p>A válaszaitok <b>nem</b> egyeznek meg.</p>","null","","","","feedback trial","",""
"html-button-response-esp","31","375552","0.0-11.0-0.10","7982","János imád jurozni, ezért sokat jurlik. Mi ritkán...","1","jurozunk","[""jurlunk"",""jurozunk""]","jurozunk","esp trial","3","true"
"html-button-response","32","379065","0.0-11.0-1.10","null","<p>A másik játékos ezt választotta: <b>jurozunk</b>.</p><p>&#x2705;</p><p>A te válaszod és a másik játékos válasza <b>megegyeznek</b>.</p>","null","","","","feedback trial","",""
"html-button-response-esp","33","386416","0.0-11.0-0.11","6843","János imád trilekedni, ezért sokat trilekszik. Ti ritkán...","1","trilekedtek","[""trilekszetek"",""trilekedtek""]","trilekedtek","esp trial","3","true"
"html-button-response","34","389948","0.0-11.0-1.11","null","<p>A másik játékos ezt választotta: <b>trilekedtek</b>.</p><p>&#x2705;</p><p>A te válaszod és a másik játékos válasza <b>megegyeznek</b>.</p>","null","","","","feedback trial","",""
"html-button-response-esp","35","398464","0.0-11.0-0.12","8003","János imád bribékedni, ezért sokat bribékszik. Ti ritkán...","0","bribékszetek","[""bribékszetek"",""bribékedtek""]","bribékedtek","esp trial","3","false"
"html-button-response","36","401981","0.0-11.0-1.12","null","<p>A másik játékos ezt választotta: <b>bribékedtek</b>.</p><p>&#10060;</p><p>A válaszaitok <b>nem</b> egyeznek meg.</p>","null","","","","feedback trial","",""
"html-button-response-esp","37","411216","0.0-11.0-0.13","8714","János imád nyizozni, ezért sokat nyizlik. Mi ritkán...","0","nyizlunk","[""nyizlunk"",""nyizozunk""]","nyizlunk","esp trial","3","true"
"html-button-response","38","414740","0.0-11.0-1.13","null","<p>A másik játékos ezt választotta: <b>nyizlunk</b>.</p><p>&#x2705;</p><p>A te válaszod és a másik játékos válasza <b>megegyeznek</b>.</p>","null","","","","feedback trial","",""
"html-button-response-esp","39","424679","0.0-11.0-0.14","9427","János imád prugorozni, ezért sokat prugorzik. Ti ritkán...","0","prugoroztok","[""prugoroztok"",""prugorzotok""]","prugoroztok","esp trial","3","true"
"html-button-response","40","428204","0.0-11.0-1.14","null","<p>A másik játékos ezt választotta: <b>prugoroztok</b>.</p><p>&#x2705;</p><p>A te válaszod és a másik játékos válasza <b>megegyeznek</b>.</p>","null","","","","feedback trial","",""
"html-button-response-esp","41","435528","0.0-11.0-0.15","6814","János imád metégedni, ezért sokat metégszik. Ők ritkán...","0","metégednek","[""metégednek"",""metégszenek""]","metégednek","esp trial","3","true"
"html-button-response","42","439058","0.0-11.0-1.15","null","<p>A másik játékos ezt választotta: <b>metégednek</b>.</p><p>&#x2705;</p><p>A te válaszod és a másik játékos válasza <b>megegyeznek</b>.</p>","null","","","","feedback trial","",""
"html-button-response-esp","43","446744","0.0-11.0-0.16","7167","János imád flerékedni, ezért sokat flerékszik. Mi ritkán...","1","flerékszünk","[""flerékedünk"",""flerékszünk""]","flerékedünk","esp trial","3","false"
"html-button-response","44","450277","0.0-11.0-1.16","null","<p>A másik játékos ezt választotta: <b>flerékedünk</b>.</p><p>&#10060;</p><p>A válaszaitok <b>nem</b> egyeznek meg.</p>","null","","","","feedback trial","",""
"html-button-response-esp","45","461240","0.0-11.0-0.17","10449","János imád spuborozni, ezért sokat spuborzik. Ők ritkán...","0","spuboroznak","[""spuboroznak"",""spuborzanak""]","spuboroznak","esp trial","3","true"
"html-button-response","46","464762","0.0-11.0-1.17","null","<p>A másik játékos ezt választotta: <b>spuboroznak</b>.</p><p>&#x2705;</p><p>A te válaszod és a másik játékos válasza <b>megegyeznek</b>.</p>","null","","","","feedback trial","",""
"html-button-response-esp","47","471064","0.0-11.0-0.18","5793","János imád frinyozni, ezért sokat frinylik. Mi ritkán...","0","frinyozunk","[""frinyozunk"",""frinylunk""]","frinyozunk","esp trial","3","true"
"html-button-response","48","474581","0.0-11.0-1.18","null","<p>A másik játékos ezt választotta: <b>frinyozunk</b>.</p><p>&#x2705;</p><p>A te válaszod és a másik játékos válasza <b>megegyeznek</b>.</p>","null","","","","feedback trial","",""
"html-button-response-esp","49","483055","0.0-11.0-0.19","7956","János imád klégezni, ezért sokat kléglik. Mi ritkán...","1","klégezünk","[""kléglünk"",""klégezünk""]","kléglünk","esp trial","3","false"
"html-button-response","50","486589","0.0-11.0-1.19","null","<p>A másik játékos ezt választotta: <b>kléglünk</b>.</p><p>&#10060;</p><p>A válaszaitok <b>nem</b> egyeznek meg.</p>","null","","","","feedback trial","",""
"html-button-response-esp","51","496815","0.0-11.0-0.20","9707","János imád trálakozni, ezért sokat trálaklik. Ők ritkán...","1","trálakoznak","[""trálaklanak"",""trálakoznak""]","trálakoznak","esp trial","3","true"
"html-button-response","52","500329","0.0-11.0-1.20","null","<p>A másik játékos ezt választotta: <b>trálakoznak</b>.</p><p>&#x2705;</p><p>A te válaszod és a másik játékos válasza <b>megegyeznek</b>.</p>","null","","","","feedback trial","",""
"html-button-response-esp","53","509575","0.0-11.0-0.21","8740","János imád vilesezni, ezért sokat vileslik. Mi ritkán...","1","vileslünk","[""vilesezünk"",""vileslünk""]","vilesezünk","esp trial","3","false"
"html-button-response","54","513092","0.0-11.0-1.21","null","<p>A másik játékos ezt választotta: <b>vilesezünk</b>.</p><p>&#10060;</p><p>A válaszaitok <b>nem</b> egyeznek meg.</p>","null","","","","feedback trial","",""
"html-button-response-esp","55","525559","0.0-11.0-0.22","11944","János imád frélegezni, ezért sokat frélegzik. Mi ritkán...","1","frélegzünk","[""frélegezünk"",""frélegzünk""]","frélegzünk","esp trial","3","true"
"html-button-response","56","529087","0.0-11.0-1.22","null","<p>A másik játékos ezt választotta: <b>frélegzünk</b>.</p><p>&#x2705;</p><p>A te válaszod és a másik játékos válasza <b>megegyeznek</b>.</p>","null","","","","feedback trial","",""
"html-button-response-esp","57","538920","0.0-11.0-0.23","9320","János imád dralágozni, ezért sokat dralágzik. Mi ritkán...","0","dralágozunk","[""dralágozunk"",""dralágzunk""]","dralágzunk","esp trial","3","false"
"html-button-response","58","542446","0.0-11.0-1.23","null","<p>A másik játékos ezt választotta: <b>dralágzunk</b>.</p><p>&#10060;</p><p>A válaszaitok <b>nem</b> egyeznek meg.</p>","null","","","","feedback trial","",""
"html-button-response-esp","59","554719","0.0-11.0-0.24","11762","János imád géregezni, ezért sokat géreglik. Ti ritkán...","0","géregletek","[""géregletek"",""géregeztek""]","géregeztek","esp trial","3","false"
"html-button-response","60","558237","0.0-11.0-1.24","null","<p>A másik játékos ezt választotta: <b>géregeztek</b>.</p><p>&#10060;</p><p>A válaszaitok <b>nem</b> egyeznek meg.</p>","null","","","","feedback trial","",""
"html-button-response-esp","61","564152","0.0-11.0-0.25","5395","János imád nyádozni, ezért sokat nyádlik. Ők ritkán...","1","nyádlanak","[""nyádoznak"",""nyádlanak""]","nyádlanak","esp trial","3","true"
"html-button-response","62","567680","0.0-11.0-1.25","null","<p>A másik játékos ezt választotta: <b>nyádlanak</b>.</p><p>&#x2705;</p><p>A te válaszod és a másik játékos válasza <b>megegyeznek</b>.</p>","null","","","","feedback trial","",""
"html-button-response-esp","63","578472","0.0-11.0-0.26","10279","János imád klihasozni, ezért sokat klihaslik. Ti ritkán...","0","klihaslotok","[""klihaslotok"",""klihasoztok""]","klihasoztok","esp trial","3","false"
"html-button-response","64","582001","0.0-11.0-1.26","null","<p>A másik játékos ezt választotta: <b>klihasoztok</b>.</p><p>&#10060;</p><p>A válaszaitok <b>nem</b> egyeznek meg.</p>","null","","","","feedback trial","",""
"html-button-response-esp","65","588655","0.0-11.0-0.27","6135","János imád trukodni, ezért sokat trukszik. Ti ritkán...","0","trukodtok","[""trukodtok"",""trukszotok""]","trukodtok","esp trial","3","true"
"html-button-response","66","592189","0.0-11.0-1.27","null","<p>A másik játékos ezt választotta: <b>trukodtok</b>.</p><p>&#x2705;</p><p>A te válaszod és a másik játékos válasza <b>megegyeznek</b>.</p>","null","","","","feedback trial","",""
"html-button-response-esp","67","598080","0.0-11.0-0.28","5369","János imád bügözni, ezért sokat bügzik. Ők ritkán...","0","bügöznek","[""bügöznek"",""bügzenek""]","bügzenek","esp trial","3","false"
"html-button-response","68","601611","0.0-11.0-1.28","null","<p>A másik játékos ezt választotta: <b>bügzenek</b>.</p><p>&#10060;</p><p>A válaszaitok <b>nem</b> egyeznek meg.</p>","null","","","","feedback trial","",""
"html-button-response-esp","69","615455","0.0-11.0-0.29","13336","János imád flugonyozni, ezért sokat flugonylik. Ők ritkán...","1","flugonylanak","[""flugonyoznak"",""flugonylanak""]","flugonyoznak","esp trial","3","false"
"html-button-response","70","618991","0.0-11.0-1.29","null","<p>A másik játékos ezt választotta: <b>flugonyoznak</b>.</p><p>&#10060;</p><p>A válaszaitok <b>nem</b> egyeznek meg.</p>","null","","","","feedback trial","",""
"html-button-response-esp","71","631383","0.0-11.0-0.30","11880","János imád hubonyozni, ezért sokat hubonylik. Ti ritkán...","1","hubonylotok","[""hubonyoztok"",""hubonylotok""]","hubonyoztok","esp trial","3","false"
"html-button-response","72","634918","0.0-11.0-1.30","null","<p>A másik játékos ezt választotta: <b>hubonyoztok</b>.</p><p>&#10060;</p><p>A válaszaitok <b>nem</b> egyeznek meg.</p>","null","","","","feedback trial","",""
"html-button-response-esp","73","640279","0.0-11.0-0.31","4838","János imád játozni, ezért sokat játlik. Mi ritkán...","0","játlunk","[""játlunk"",""játozunk""]","játlunk","esp trial","3","true"
"html-button-response","74","643795","0.0-11.0-1.31","null","<p>A másik játékos ezt választotta: <b>játlunk</b>.</p><p>&#x2705;</p><p>A te válaszod és a másik játékos válasza <b>megegyeznek</b>.</p>","null","","","","feedback trial","",""
"html-button-response-esp","75","651583","0.0-11.0-0.32","7285","János imád ribegedni, ezért sokat ribegszik. Ti ritkán...","0","ribegszetek","[""ribegszetek"",""ribegedtek""]","ribegedtek","esp trial","3","false"
"html-button-response","76","655099","0.0-11.0-1.32","null","<p>A másik játékos ezt választotta: <b>ribegedtek</b>.</p><p>&#10060;</p><p>A válaszaitok <b>nem</b> egyeznek meg.</p>","null","","","","feedback trial","",""
"html-button-response-esp","77","663303","0.0-11.0-0.33","7699","János imád sztredezni, ezért sokat sztredlik. Ti ritkán...","0","sztredeztek","[""sztredeztek"",""sztredletek""]","sztredeztek","esp trial","3","true"
"html-button-response","78","666835","0.0-11.0-1.33","null","<p>A másik játékos ezt választotta: <b>sztredeztek</b>.</p><p>&#x2705;</p><p>A te válaszod és a másik játékos válasza <b>megegyeznek</b>.</p>","null","","","","feedback trial","",""
"html-button-response-esp","79","672807","0.0-11.0-0.34","5457","János imád tögözni, ezért sokat töglik. Ők ritkán...","1","töglenek","[""tögöznek"",""töglenek""]","töglenek","esp trial","3","true"
"html-button-response","80","676329","0.0-11.0-1.34","null","<p>A másik játékos ezt választotta: <b>töglenek</b>.</p><p>&#x2705;</p><p>A te válaszod és a másik játékos válasza <b>megegyeznek</b>.</p>","null","","","","feedback trial","",""
"html-button-response-esp","81","681911","0.0-11.0-0.35","5078","János imád flodozni, ezért sokat flodlik. Ti ritkán...","1","flodlotok","[""flodoztok"",""flodlotok""]","flodoztok","esp trial","3","false"
"html-button-response","82","685434","0.0-11.0-1.35","null","<p>A másik játékos ezt választotta: <b>flodoztok</b>.</p><p>&#10060;</p><p>A válaszaitok <b>nem</b> egyeznek meg.</p>","null","","","","feedback trial","",""
"html-button-response-esp","83","696799","0.0-11.0-0.36","10853","János imád trálodni, ezért sokat trálszik. Mi ritkán...","0","trálodunk","[""trálodunk"",""trálszunk""]","trálszunk","esp trial","3","false"
"html-button-response","84","700316","0.0-11.0-1.36","null","<p>A másik játékos ezt választotta: <b>trálszunk</b>.</p><p>&#10060;</p><p>A válaszaitok <b>nem</b> egyeznek meg.</p>","null","","","","feedback trial","",""
"html-button-response-esp","85","708695","0.0-11.0-0.37","7873","János imád klűmözni, ezért sokat klűmlik. Ti ritkán...","1","klűmöztök","[""klűmlötök"",""klűmöztök""]","klűmöztök","esp trial","3","true"
"html-button-response","86","712224","0.0-11.0-1.37","null","<p>A másik játékos ezt választotta: <b>klűmöztök</b>.</p><p>&#x2705;</p><p>A te válaszod és a másik játékos válasza <b>megegyeznek</b>.</p>","null","","","","feedback trial","",""
"html-button-response-esp","87","718735","0.0-11.0-0.38","5995","János imád kláragodni, ezért sokat kláragszik. Ti ritkán...","1","kláragodtok","[""kláragszotok"",""kláragodtok""]","kláragodtok","esp trial","3","true"
"html-button-response","88","722274","0.0-11.0-1.38","null","<p>A másik játékos ezt választotta: <b>kláragodtok</b>.</p><p>&#x2705;</p><p>A te válaszod és a másik játékos válasza <b>megegyeznek</b>.</p>","null","","","","feedback trial","",""
"html-button-response-esp","89","727311","0.0-11.0-0.39","4529","János imád brűközni, ezért sokat brűklik. Ti ritkán...","0","brűklötök","[""brűklötök"",""brűköztök""]","brűköztök","esp trial","3","false"
"html-button-response","90","730840","0.0-11.0-1.39","null","<p>A másik játékos ezt választotta: <b>brűköztök</b>.</p><p>&#10060;</p><p>A válaszaitok <b>nem</b> egyeznek meg.</p>","null","","","","feedback trial","",""
"html-button-response-esp","91","735903","0.0-11.0-0.40","4546","János imád vihapodni, ezért sokat vihapszik. Mi ritkán...","0","vihapszunk","[""vihapszunk"",""vihapodunk""]","vihapszunk","esp trial","3","true"
"html-button-response","92","739437","0.0-11.0-1.40","null","<p>A másik játékos ezt választotta: <b>vihapszunk</b>.</p><p>&#x2705;</p><p>A te válaszod és a másik játékos válasza <b>megegyeznek</b>.</p>","null","","","","feedback trial","",""
"html-button-response-esp","93","744161","0.0-11.0-0.41","4195","János imád sprebezni, ezért sokat sprebzik. Ők ritkán...","1","sprebzenek","[""sprebeznek"",""sprebzenek""]","sprebeznek","esp trial","3","false"
"html-button-response","94","747686","0.0-11.0-1.41","null","<p>A másik játékos ezt választotta: <b>sprebeznek</b>.</p><p>&#10060;</p><p>A válaszaitok <b>nem</b> egyeznek meg.</p>","null","","","","feedback trial","",""
"html-button-response-esp","95","756014","0.0-11.0-0.42","7813","János imád nivározni, ezért sokat nivárzik. Ti ritkán...","1","nivárzotok","[""nivároztok"",""nivárzotok""]","nivároztok","esp trial","3","false"
"html-button-response","96","759534","0.0-11.0-1.42","null","<p>A másik játékos ezt választotta: <b>nivároztok</b>.</p><p>&#10060;</p><p>A válaszaitok <b>nem</b> egyeznek meg.</p>","null","","","","feedback trial","",""
"html-button-response-esp","97","767142","0.0-11.0-0.43","7097","János imád frorozni, ezért sokat frorlik. Ők ritkán...","1","froroznak","[""frorlanak"",""froroznak""]","frorlanak","esp trial","3","false"
"html-button-response","98","770684","0.0-11.0-1.43","null","<p>A másik játékos ezt választotta: <b>frorlanak</b>.</p><p>&#10060;</p><p>A válaszaitok <b>nem</b> egyeznek meg.</p>","null","","","","feedback trial","",""
"html-button-response-esp","99","775391","0.0-11.0-0.44","4205","János imád bresezni, ezért sokat breslik. Ők ritkán...","0","breslenek","[""breslenek"",""breseznek""]","breseznek","esp trial","3","false"
"html-button-response","100","778905","0.0-11.0-1.44","null","<p>A másik játékos ezt választotta: <b>breseznek</b>.</p><p>&#10060;</p><p>A válaszaitok <b>nem</b> egyeznek meg.</p>","null","","","","feedback trial","",""
"html-button-response-esp","101","784215","0.0-11.0-0.45","4798","János imád hiragozni, ezért sokat hiragzik. Ők ritkán...","1","hiragoznak","[""hiragzanak"",""hiragoznak""]","hiragoznak","esp trial","3","true"
"html-button-response","102","787750","0.0-11.0-1.45","null","<p>A másik játékos ezt választotta: <b>hiragoznak</b>.</p><p>&#x2705;</p><p>A te válaszod és a másik játékos válasza <b>megegyeznek</b>.</p>","null","","","","feedback trial","",""
"html-button-response-esp","103","796191","0.0-11.0-0.46","7927","János imád nurokozni, ezért sokat nuroklik. Mi ritkán...","0","nurokozunk","[""nurokozunk"",""nuroklunk""]","nuroklunk","esp trial","3","false"
"html-button-response","104","799719","0.0-11.0-1.46","null","<p>A másik játékos ezt választotta: <b>nuroklunk</b>.</p><p>&#10060;</p><p>A válaszaitok <b>nem</b> egyeznek meg.</p>","null","","","","feedback trial","",""
"html-button-response-esp","105","804441","0.0-11.0-0.47","1661","János imád nyöbözni, ezért sokat nyöbzik. Ők ritkán...","1","nyöböznek","[""nyöbzenek"",""nyöböznek""]","nyöböznek","esp trial","3","true"
"html-button-response","106","807960","0.0-11.0-1.47","null","<p>A másik játékos ezt választotta: <b>nyöböznek</b>.</p><p>&#x2705;</p><p>A te válaszod és a másik játékos válasza <b>megegyeznek</b>.</p>","null","","","","feedback trial","",""
"html-button-response-esp","107","812681","0.0-11.0-0.48","3854","János imád döjözni, ezért sokat döjlik. Ők ritkán...","1","döjlenek","[""döjöznek"",""döjlenek""]","döjlenek","esp trial","3","true"
"html-button-response","108","816195","0.0-11.0-1.48","null","<p>A másik játékos ezt választotta: <b>döjlenek</b>.</p><p>&#x2705;</p><p>A te válaszod és a másik játékos válasza <b>megegyeznek</b>.</p>","null","","","","feedback trial","",""
"html-button-response-esp","109","825168","0.0-11.0-0.49","8455","János imád nyülöközni, ezért sokat nyülöklik. Ők ritkán...","1","nyülöklenek","[""nyülököznek"",""nyülöklenek""]","nyülököznek","esp trial","3","false"
"html-button-response","110","828692","0.0-11.0-1.49","null","<p>A másik játékos ezt választotta: <b>nyülököznek</b>.</p><p>&#10060;</p><p>A válaszaitok <b>nem</b> egyeznek meg.</p>","null","","","","feedback trial","",""
"html-button-response-esp","111","834711","0.0-11.0-0.50","5496","János imád sűjözni, ezért sokat sűjlik. Mi ritkán...","0","sűjözünk","[""sűjözünk"",""sűjlünk""]","sűjlünk","esp trial","3","false"
"html-button-response","112","838247","0.0-11.0-1.50","null","<p>A másik játékos ezt választotta: <b>sűjlünk</b>.</p><p>&#10060;</p><p>A válaszaitok <b>nem</b> egyeznek meg.</p>","null","","","","feedback trial","",""
"html-button-response-esp","113","844422","0.0-11.0-0.51","5657","János imád plibozni, ezért sokat plibzik. Ti ritkán...","0","pliboztok","[""pliboztok"",""plibzotok""]","pliboztok","esp trial","3","true"
"html-button-response","114","847959","0.0-11.0-1.51","null","<p>A másik játékos ezt választotta: <b>pliboztok</b>.</p><p>&#x2705;</p><p>A te válaszod és a másik játékos válasza <b>megegyeznek</b>.</p>","null","","","","feedback trial","",""
"html-button-response-esp","115","853734","0.0-11.0-0.52","5269","János imád frirozni, ezért sokat frirzik. Mi ritkán...","1","frirozunk","[""frirzunk"",""frirozunk""]","frirozunk","esp trial","3","true"
"html-button-response","116","857260","0.0-11.0-1.52","null","<p>A másik játékos ezt választotta: <b>frirozunk</b>.</p><p>&#x2705;</p><p>A te válaszod és a másik játékos válasza <b>megegyeznek</b>.</p>","null","","","","feedback trial","",""
"html-button-response-esp","117","862702","0.0-11.0-0.53","4925","János imád flátozni, ezért sokat flátlik. Ti ritkán...","1","flátoztok","[""flátlotok"",""flátoztok""]","flátoztok","esp trial","3","true"
"html-button-response","118","866235","0.0-11.0-1.53","null","<p>A másik játékos ezt választotta: <b>flátoztok</b>.</p><p>&#x2705;</p><p>A te válaszod és a másik játékos válasza <b>megegyeznek</b>.</p>","null","","","","feedback trial","",""
"html-button-response","119","875990","0.0-12.0","9249","<p>A közös játék most véget ért.</p><p>Mielőtt eláruljuk a végső pontszámodat, arra kérlek, játszd a szóválasztós játékot néhány percig egyedül is.</p><p>A feladatod ugyanaz lesz, választani két lehetőség közül.</p><p>Most viszont egyedül kell döntened, hogy te melyiket választanád.</p>","0","","","","","",""
"html-button-response-clever","120","886350","0.0-13.0-0.0","9855","János imád brivakozni, ezért sokat brivaklik. Ti ritkán...","0","brivakoztok","[""brivakoztok"",""brivaklotok""]","","posttest trial","4",""
"html-button-response-clever","121","893574","0.0-13.0-0.1","6702","János imád dirozni, ezért sokat dirlik. Ti ritkán...","1","diroztok","[""dirlotok"",""diroztok""]","","posttest trial","4",""
"html-button-response-clever","122","901590","0.0-13.0-0.2","7507","János imád kűdözni, ezért sokat kűdlik. Ők ritkán...","1","kűdlenek","[""kűdöznek"",""kűdlenek""]","","posttest trial","4",""
"html-button-response-clever","123","909518","0.0-13.0-0.3","7411","János imád klehényezni, ezért sokat klehénylik. Ti ritkán...","0","klehényletek","[""klehényletek"",""klehényeztek""]","","posttest trial","4",""
"html-button-response-clever","124","916182","0.0-13.0-0.4","6147","János imád pragányozni, ezért sokat pragánylik. Ti ritkán...","1","pragánylotok","[""pragányoztok"",""pragánylotok""]","","posttest trial","4",""
"html-button-response-clever","125","922046","0.0-13.0-0.5","5359","János imád fröjözni, ezért sokat fröjzik. Ti ritkán...","0","fröjöztök","[""fröjöztök"",""fröjzötök""]","","posttest trial","4",""
"html-button-response-clever","126","930853","0.0-13.0-0.6","8294","János imád frálapodni, ezért sokat frálapszik. Ti ritkán...","0","frálapodtok","[""frálapodtok"",""frálapszotok""]","","posttest trial","4",""
"html-button-response-clever","127","937182","0.0-13.0-0.7","5809","János imád sprűrözni, ezért sokat sprűrlik. Ők ritkán...","0","sprűrlenek","[""sprűrlenek"",""sprűröznek""]","","posttest trial","4",""
"html-button-response-clever","128","944350","0.0-13.0-0.8","6650","János imád bratározni, ezért sokat bratárzik. Ők ritkán...","1","bratárzanak","[""bratároznak"",""bratárzanak""]","","posttest trial","4",""
"html-button-response-clever","129","951086","0.0-13.0-0.9","6223","János imád spiharozni, ezért sokat spiharzik. Ti ritkán...","0","spiharoztok","[""spiharoztok"",""spiharzotok""]","","posttest trial","4",""
"html-button-response-clever","130","956526","0.0-13.0-0.10","4919","János imád spügözni, ezért sokat spügzik. Mi ritkán...","1","spügzünk","[""spügözünk"",""spügzünk""]","","posttest trial","4",""
"html-button-response-clever","131","964966","0.0-13.0-0.11","7931","János imád sprozozni, ezért sokat sprozlik. Ők ritkán...","0","sprozlanak","[""sprozlanak"",""sprozoznak""]","","posttest trial","4",""
"html-button-response-clever","132","970086","0.0-13.0-0.12","4606","János imád molodni, ezért sokat molszik. Ti ritkán...","0","molszotok","[""molszotok"",""molodtok""]","","posttest trial","4",""
"html-button-response-clever","133","980430","0.0-13.0-0.13","9829","János imád virozni, ezért sokat virzik. Ők ritkán...","0","viroznak","[""viroznak"",""virzanak""]","","posttest trial","4",""
"html-button-response-clever","134","986710","0.0-13.0-0.14","5756","János imád föködni, ezért sokat fökszik. Ők ritkán...","0","fökszenek","[""fökszenek"",""föködnek""]","","posttest trial","4",""
"html-button-response-clever","135","992894","0.0-13.0-0.15","5661","János imád csibagozni, ezért sokat csibagzik. Ti ritkán...","1","csibagzotok","[""csibagoztok"",""csibagzotok""]","","posttest trial","4",""
"html-button-response-clever","136","997470","0.0-13.0-0.16","4074","János imád branyozni, ezért sokat branylik. Ők ritkán...","0","branylanak","[""branylanak"",""branyoznak""]","","posttest trial","4",""
"html-button-response-clever","137","1002646","0.0-13.0-0.17","4660","János imád brülösözni, ezért sokat brülöslik. Mi ritkán...","0","brülöslünk","[""brülöslünk"",""brülösözünk""]","","posttest trial","4",""
"html-button-response-clever","138","1008350","0.0-13.0-0.18","5189","János imád sprudozni, ezért sokat sprudlik. Mi ritkán...","1","sprudozunk","[""sprudlunk"",""sprudozunk""]","","posttest trial","4",""
"html-button-response-clever","139","1013022","0.0-13.0-0.19","4149","János imád frakozni, ezért sokat fraklik. Mi ritkán...","0","fraklunk","[""fraklunk"",""frakozunk""]","","posttest trial","4",""
"html-button-response-clever","140","1017990","0.0-13.0-0.20","4455","János imád nyivágozni, ezért sokat nyivágzik. Mi ritkán...","1","nyivágzunk","[""nyivágozunk"",""nyivágzunk""]","","posttest trial","4",""
"html-button-response-clever","141","1022718","0.0-13.0-0.21","4208","János imád gihejezni, ezért sokat gihejlik. Mi ritkán...","0","gihejlünk","[""gihejlünk"",""gihejezünk""]","","posttest trial","4",""
"html-button-response-clever","142","1028358","0.0-13.0-0.22","5118","János imád frálasozni, ezért sokat frálaslik. Ők ritkán...","0","frálaslanak","[""frálaslanak"",""frálasoznak""]","","posttest trial","4",""
"html-button-response-clever","143","1032446","0.0-13.0-0.23","3579","János imád flűgözni, ezért sokat flűgzik. Mi ritkán...","0","flűgzünk","[""flűgzünk"",""flűgözünk""]","","posttest trial","4",""
"html-button-response-clever","144","1036837","0.0-13.0-0.24","3870","János imád dabozni, ezért sokat dabzik. Ti ritkán...","0","dabzotok","[""dabzotok"",""daboztok""]","","posttest trial","4",""
"html-button-response-clever","145","1040262","0.0-13.0-0.25","2907","János imád köszözni, ezért sokat köszlik. Ti ritkán...","0","köszlötök","[""köszlötök"",""köszöztök""]","","posttest trial","4",""
"html-button-response-clever","146","1044845","0.0-13.0-0.26","4062","János imád prögözni, ezért sokat prögzik. Ti ritkán...","1","prögzötök","[""prögöztök"",""prögzötök""]","","posttest trial","4",""
"html-button-response-clever","147","1048549","0.0-13.0-0.27","3185","János imád nyürözni, ezért sokat nyürzik. Ők ritkán...","0","nyüröznek","[""nyüröznek"",""nyürzenek""]","","posttest trial","4",""
"html-button-response-clever","148","1053742","0.0-13.0-0.28","4682","János imád privékedni, ezért sokat privékszik. Ők ritkán...","1","privékszenek","[""privékednek"",""privékszenek""]","","posttest trial","4",""
"html-button-response-clever","149","1057694","0.0-13.0-0.29","3433","János imád pilégedni, ezért sokat pilégszik. Ők ritkán...","0","pilégszenek","[""pilégszenek"",""pilégednek""]","","posttest trial","4",""
"html-button-response-clever","150","1065766","0.0-13.0-0.30","7553","János imád dilakozni, ezért sokat dilaklik. Ti ritkán...","1","dilakoztok","[""dilaklotok"",""dilakoztok""]","","posttest trial","4",""
"html-button-response-clever","151","1070278","0.0-13.0-0.31","4000","János imád flüröközni, ezért sokat flüröklik. Ti ritkán...","1","flürököztök","[""flüröklötök"",""flürököztök""]","","posttest trial","4",""
"html-button-response-clever","152","1075798","0.0-13.0-0.32","5007","János imád posozni, ezért sokat poslik. Ti ritkán...","0","poslotok","[""poslotok"",""posoztok""]","","posttest trial","4",""
"html-button-response-clever","153","1079934","0.0-13.0-0.33","3625","János imád trugokozni, ezért sokat trugoklik. Ők ritkán...","1","trugoklanak","[""trugokoznak"",""trugoklanak""]","","posttest trial","4",""
"html-button-response-clever","154","1082501","0.0-13.0-0.34","2054","János imád lűközni, ezért sokat lűklik. Ők ritkán...","1","lűklenek","[""lűköznek"",""lűklenek""]","","posttest trial","4",""
"html-button-response-clever","155","1088054","0.0-13.0-0.35","5030","János imád prélemezni, ezért sokat prélemlik. Ők ritkán...","0","prélemlenek","[""prélemlenek"",""prélemeznek""]","","posttest trial","4",""
"html-button-response-clever","156","1091574","0.0-13.0-0.36","3013","János imád lájozni, ezért sokat lájzik. Ti ritkán...","1","lájzotok","[""lájoztok"",""lájzotok""]","","posttest trial","4",""
"html-button-response-clever","157","1095310","0.0-13.0-0.37","3226","János imád csubozni, ezért sokat csubzik. Mi ritkán...","1","csubzunk","[""csubozunk"",""csubzunk""]","","posttest trial","4",""
"html-button-response-clever","158","1098478","0.0-13.0-0.38","2650","János imád dárakodni, ezért sokat dárakszik. Mi ritkán...","1","dárakszunk","[""dárakodunk"",""dárakszunk""]","","posttest trial","4",""
"html-button-response-clever","159","1102478","0.0-13.0-0.39","3486","János imád dujozni, ezért sokat dujzik. Ők ritkán...","0","dujoznak","[""dujoznak"",""dujzanak""]","","posttest trial","4",""
"html-button-response-clever","160","1105893","0.0-13.0-0.40","2903","János imád flöközni, ezért sokat flöklik. Ti ritkán...","0","flököztök","[""flököztök"",""flöklötök""]","","posttest trial","4",""
"html-button-response-clever","161","1113518","0.0-13.0-0.41","7112","János imád drűrözni, ezért sokat drűrzik. Ők ritkán...","0","drűröznek","[""drűröznek"",""drűrzenek""]","","posttest trial","4",""
"html-button-response-clever","162","1119805","0.0-13.0-0.42","5770","János imád drilarozni, ezért sokat drilarzik. Mi ritkán...","0","drilarzunk","[""drilarzunk"",""drilarozunk""]","","posttest trial","4",""
"html-button-response-clever","163","1123774","0.0-13.0-0.43","3455","János imád trugozni, ezért sokat trugzik. Ők ritkán...","0","trugoznak","[""trugoznak"",""trugzanak""]","","posttest trial","4",""
"html-button-response-clever","164","1127421","0.0-13.0-0.44","3138","János imád brözözni, ezért sokat brözlik. Ti ritkán...","1","brözlötök","[""brözöztök"",""brözlötök""]","","posttest trial","4",""
"html-button-response-clever","165","1133686","0.0-13.0-0.45","5754","János imád mülőrözni, ezért sokat mülőrzik. Mi ritkán...","1","mülőrzünk","[""mülőrözünk"",""mülőrzünk""]","","posttest trial","4",""
"html-button-response-clever","166","1139301","0.0-13.0-0.46","5094","János imád gyihegezni, ezért sokat gyihegzik. Ti ritkán...","1","gyihegeztek","[""gyihegzetek"",""gyihegeztek""]","","posttest trial","4",""
"html-button-response-clever","167","1145109","0.0-13.0-0.47","5284","János imád püzözni, ezért sokat püzlik. Ti ritkán...","1","püzlötök","[""püzöztök"",""püzlötök""]","","posttest trial","4",""
"html-button-response-clever","168","1149518","0.0-13.0-0.48","3897","János imád flemezni, ezért sokat flemlik. Mi ritkán...","0","flemezünk","[""flemezünk"",""flemlünk""]","","posttest trial","4",""
"html-button-response-clever","169","1152030","0.0-13.0-0.49","2002","János imád spirágozni, ezért sokat spiráglik. Ti ritkán...","1","spiráglotok","[""spirágoztok"",""spiráglotok""]","","posttest trial","4",""
"html-button-response-clever","170","1154086","0.0-13.0-0.50","1547","János imád trikozni, ezért sokat triklik. Ti ritkán...","0","trikoztok","[""trikoztok"",""triklotok""]","","posttest trial","4",""
"html-button-response-clever","171","1155061","0.0-13.0-0.51","470","János imád mágamozni, ezért sokat mágamlik. Mi ritkán...","1","mágamlunk","[""mágamozunk"",""mágamlunk""]","","posttest trial","4",""
"html-button-response-clever","172","1156125","0.0-13.0-0.52","552","János imád trivakodni, ezért sokat trivakszik. Mi ritkán...","1","trivakszunk","[""trivakodunk"",""trivakszunk""]","","posttest trial","4",""
"html-button-response-clever","173","1161854","0.0-13.0-0.53","5210","János imád spibegezni, ezért sokat spibeglik. Mi ritkán...","0","spibeglünk","[""spibeglünk"",""spibegezünk""]","","posttest trial","4",""
"html-button-response","174","1192958","0.0-14.0","30586","<p> Vége a játéknak. A teljes pontszámod 27/54.</p><p> Szép munka! &#128526;&#128526;&#128526;</p><p>A Befejezés gomb megnyomása után bezárhatod a böngészőablakot.</p>","0","","","","","",""
"html-keyboard-response","175","1198491","0.0-15.0","null","<div class=""message"">
         <p>Egy kis türelmet kérünk, amíg elmentjük az adatokat...</p>
         </div>","null","","","","","",""
