"trial_type","trial_index","time_elapsed","internal_node_id","rt","stimulus","response","response_string","choices","esp_response","trial_kind","list_number","esp_match"
"pavlovia","0","716","0.0-0.0","","","","","","","","",""
"html-button-response","1","35983","0.0-1.0","34661","<p>Kedves Résztvevő! A Budapesti Műszaki és Gazdaságtudományi Egyetem Kognitív Tudományi Tanszékének kutatásában való részvételed kérjük. A kutatásban azt vizsgáljuk, hogy a magyar anyanyelvűek hogyan használnak bizonyos szóalakokat, és hogy milyen képük van arról, hogy mások hogyan használják, hogyan képzik a szavakat. Ez hozzásegít bennünket ahhoz, hogy jobban megértsük, hogyan dolgozza fel és tárolja a nyelvet az emberi agy, és hogyan működnek, hogyan változnak egy adott közösség nyelvi konvenciói.</p><p>A vizsgálat egy rövid számítógépes feladatból fog állni. A kutatásban való részvétel önkéntes, a részvételi szándék bármikor visszavonható. A résztvevők eredményeit név nélkül kezeljük, így nem beazonosíthatók az adatok feldolgozása során. Minden személyes adatot az EU általános adatvédelmi rendeletének (GDPR) megfelelően kezelünk és legfeljebb öt éven belül megsemmisítünk. A vizsgálat jellemzően húsz percet vesz igénybe.</p><p>Kutatásvezető:</p><p>Dr. Rácz Péter, tudományos munkatárs, BME KTT</p><p>e-mail: racz.peter.marton@ttk.bme.hu</p>","0","","","","","",""
"html-button-response","2","74630","0.0-2.0","38144","<p>A kísérletben szavakat fogsz látni. Ezek között lesznek olyanok, amelyeket ismersz, de előfordulhatnak olyanok is, amelyeket nem ismersz, sőt, vannak köztük kitalált szavak is. Minden szónál látni fogsz toldalékolt alakokat. A te feladatod az lesz, hogy minden szóhoz kiválaszd azt a toldalékolt alakot, amely a te számodra ismerősebben, természetesebben hangzik. Rossz válaszok nincsenek, mert van olyan, hogy különböző embereknek más és más szó tűnik jobb választásnak. A választ úgy tudod majd kiválasztani, ha rákattintasz.</p><p>Ebben a szóválasztós játékban egy másik játékossal együtt veszel majd részt. A másik játékos is minden esetben azok közül a lehetőségek közül válogathat, mint te. Kettőtök feladata az, hogy ugyanazt a lehetőséget válasszátok minden esetben. Ahhoz, hogy ez sikerüljön, neked figyelned kell arra, hogy a másik játékos milyen válaszokat ad, és ennek alapján meg kell tippelned, hogyan választ legközelebb. Ha eltalálod, akkor pontot kapsz.</p>","0","","","","","",""
"html-button-response","3","87974","0.0-3.0","12842","<p>Kérjük, olvasd el az alábbi nyilatkozatot, és amennyiben egyetértesz vele, nyomj a Beleegyezés gombra!</p><p>Kijelentem, hogy magyar anyanyelvű személyként önként veszek részt a BME KTT kísérletében. A kutatás céljával és folyamatával kapcsolatban elegendő tájékoztatást kaptam, lehetőségem volt kérdések feltételére, és esetleges kérdéseimre megfelelő válaszokat kaptam. A tájékoztatás alapján elegendő mennyiségű információ áll a rendelkezésemre, hogy eldönthessem, részt kívánok-e venni a kutatásban.</p><p>Tisztában vagyok vele, hogy részvételi szándékomat és adataimat bármikor, indoklás nélkül visszavonhatom.</p><p>Értem és tudomásul veszem, hogy a kutatás tudományos célokat szolgál, és az általam szolgáltatott adatokat a BME kizárólag kutatási célból használja fel. Tudomásul veszem, hogy eredményeimet a többi résztvevő eredményeivel együtt kezelik, így egyéni teljesítményemről visszajelzést, szakvéleményt nem kapok.</p><p>Megértettem, hogy adataim kezelését illetően a BME az EU általános adatvédelmi rendelete (GDPR), a hatályos adatvédelmi törvény és a nemzetközi kutatás-etikai alapelvek szerint jár el. Eredményeim anonim módon kerülnek feldolgozásra, és a kutatás résztvevői az azonosításomra alkalmas adataimat harmadik félnek nem szolgáltatják ki. Engedélyezem a BME számára a jelen kutatásban felvett adataim feldolgozását és tárolását, beleértve azok későbbi kutatásokhoz való felhasználását is. Személyes adataim kezelésével kapcsolatban tájékoztatást kérhetek a kutatás résztvevőitől, az adatkezelés ellen tiltakozhatok, kérhetem személyes adataim helyesbítését, törlését vagy zárolását, valamint jogorvoslatért a Nemzeti Adatvédelmi és Információszabadság Hatósághoz fordulhatok.</p><p>Kijelentem, hogy a kutatásban való részvételem körülményeiről részletes tájékoztatást kaptam, és a feltételeket elfogadom.</p>","0","","","","","",""
"survey-text","4","297927","0.0-4.0","209440","","{""Q0"":""HR75EM"",""Q1"":""férfi"",""Q2"":""2000"",""Q3"":""16""}","","","","","",""
"html-button-response","5","311342","0.0-5.0","12913","<p>Ebben a játékban szavakat kell toldalékolni.</p> <p>Minden körben mutatunk majd egy példamondatot, amiben lesz egy szó.</p> <p>Alatta jön egy második mondat, ezt a mondatot neked kell majd befejezni, ugyanezzel a szóval.</p> <p>Nem biztos, hogy a szó eleve ismerős lesz számodra!</p> <p>Minden mondathoz adunk két lehetőséget, ezeket balra és jobbra látod majd.</p> <p>A játék kb. negyedóráig-húsz percig tart.</p>","0","","","","","",""
"html-button-response","6","328798","0.0-6.0","16942","<p>Nézzünk egy példát!</p> <p>A példamondat: ""János imád fláramolni, ezért sokat fláramlik. Mi ritkán...""</p><p>Neked ezt a mondatot kell befejezned: ""Ti ritkán...""</p><p>A lehetőségek pedig ezek:</p>","0","","","","","",""
"html-button-response","7","335886","0.0-7.0","6581","<p>Nagyon jó.</p><p>Ezt a játékot nem egyedül fogod játszani, hanem egy másik játékossal.</p><p>Mielőtt továbblépünk, összekapcsolunk titeket egymással.</p><p>Ez igénybe vehet néhány másodpercet, amihez szíves türelmed kérjük.</p>","0","","","","","",""
"html-button-response","8","341611","0.0-8.0","null","<p>Csatlakozás a másik játékoshoz...</p>","null","","","","","",""
"html-button-response","9","344113","0.0-9.0","null","<p> Sikeres kapcsolódás!</p>","null","","","","","",""
"html-button-response","10","354630","0.0-10.0","null","<p>A következőkben ketten játsszátok a szóválasztós játékot.</p><p>A feladatotok az lesz, hogy minden körben <b>ugyanazt</b> a szót válasszátok.</p><p>Minden ilyen egyező válaszért pontot kaptok.</p><p>Próbáld meg kitalálni, mit választ a másik játékos!</p><p>Bármikor választhatsz, a körnek akkor van vége, ha mindketten döntöttetek.</p><p>Sok sikert!</p>","null","","","","","",""
"html-button-response-esp","11","363062","0.0-11.0-0.0","7914","János imád spirágozni, ezért sokat spiráglik. Ti ritkán...","0","spirágoztok","[""spirágoztok"",""spiráglotok""]","spiráglotok","esp trial","4","false"
"html-button-response","12","366586","0.0-11.0-1.0","null","<p>A másik játékos ezt választotta: <b>spiráglotok</b>.</p><p>&#10060;</p><p>A válaszaitok <b>nem</b> egyeznek meg.</p>","null","","","","feedback trial","",""
"html-button-response-esp","13","373230","0.0-11.0-0.1","6142","János imád spiharozni, ezért sokat spiharzik. Ti ritkán...","1","spiharoztok","[""spiharzotok"",""spiharoztok""]","spiharzotok","esp trial","4","false"
"html-button-response","14","376748","0.0-11.0-1.1","null","<p>A másik játékos ezt választotta: <b>spiharzotok</b>.</p><p>&#10060;</p><p>A válaszaitok <b>nem</b> egyeznek meg.</p>","null","","","","feedback trial","",""
"html-button-response-esp","15","381902","0.0-11.0-0.2","4641","János imád virozni, ezért sokat virzik. Ők ritkán...","0","viroznak","[""viroznak"",""virzanak""]","virzanak","esp trial","4","false"
"html-button-response","16","385411","0.0-11.0-1.2","null","<p>A másik játékos ezt választotta: <b>virzanak</b>.</p><p>&#10060;</p><p>A válaszaitok <b>nem</b> egyeznek meg.</p>","null","","","","feedback trial","",""
"html-button-response-esp","17","390026","0.0-11.0-0.3","3485","János imád posozni, ezért sokat poslik. Ti ritkán...","0","poslotok","[""poslotok"",""posoztok""]","posoztok","esp trial","4","false"
"html-button-response","18","393547","0.0-11.0-1.3","null","<p>A másik játékos ezt választotta: <b>posoztok</b>.</p><p>&#10060;</p><p>A válaszaitok <b>nem</b> egyeznek meg.</p>","null","","","","feedback trial","",""
"html-button-response-esp","19","399878","0.0-11.0-0.4","5830","János imád trivakodni, ezért sokat trivakszik. Mi ritkán...","0","trivakszunk","[""trivakszunk"",""trivakodunk""]","trivakszunk","esp trial","4","true"
"html-button-response","20","403380","0.0-11.0-1.4","null","<p>A másik játékos ezt választotta: <b>trivakszunk</b>.</p><p>&#x2705;</p><p>A te válaszod és a másik játékos válasza <b>megegyeznek</b>.</p>","null","","","","feedback trial","",""
"html-button-response-esp","21","412806","0.0-11.0-0.5","8917","János imád brülösözni, ezért sokat brülöslik. Mi ritkán...","0","brülösözünk","[""brülösözünk"",""brülöslünk""]","brülöslünk","esp trial","4","false"
"html-button-response","22","416320","0.0-11.0-1.5","null","<p>A másik játékos ezt választotta: <b>brülöslünk</b>.</p><p>&#10060;</p><p>A válaszaitok <b>nem</b> egyeznek meg.</p>","null","","","","feedback trial","",""
"html-button-response-esp","23","421254","0.0-11.0-0.6","4417","János imád branyozni, ezért sokat branylik. Ők ritkán...","1","branyoznak","[""branylanak"",""branyoznak""]","branylanak","esp trial","4","false"
"html-button-response","24","424765","0.0-11.0-1.6","null","<p>A másik játékos ezt választotta: <b>branylanak</b>.</p><p>&#10060;</p><p>A válaszaitok <b>nem</b> egyeznek meg.</p>","null","","","","feedback trial","",""
"html-button-response-esp","25","433054","0.0-11.0-0.7","7788","János imád dilakozni, ezért sokat dilaklik. Ti ritkán...","1","dilaklotok","[""dilakoztok"",""dilaklotok""]","dilaklotok","esp trial","4","true"
"html-button-response","26","436564","0.0-11.0-1.7","null","<p>A másik játékos ezt választotta: <b>dilaklotok</b>.</p><p>&#x2705;</p><p>A te válaszod és a másik játékos válasza <b>megegyeznek</b>.</p>","null","","","","feedback trial","",""
"html-button-response-esp","27","441191","0.0-11.0-0.8","2317","János imád lűközni, ezért sokat lűklik. Ők ritkán...","0","lűklenek","[""lűklenek"",""lűköznek""]","lűklenek","esp trial","4","true"
"html-button-response","28","444706","0.0-11.0-1.8","null","<p>A másik játékos ezt választotta: <b>lűklenek</b>.</p><p>&#x2705;</p><p>A te válaszod és a másik játékos válasza <b>megegyeznek</b>.</p>","null","","","","feedback trial","",""
"html-button-response-esp","29","449332","0.0-11.0-0.9","1734","János imád frálasozni, ezért sokat frálaslik. Ők ritkán...","0","frálaslanak","[""frálaslanak"",""frálasoznak""]","frálasoznak","esp trial","4","false"
"html-button-response","30","452839","0.0-11.0-1.9","null","<p>A másik játékos ezt választotta: <b>frálasoznak</b>.</p><p>&#10060;</p><p>A válaszaitok <b>nem</b> egyeznek meg.</p>","null","","","","feedback trial","",""
"html-button-response-esp","31","458382","0.0-11.0-0.10","5029","János imád mágamozni, ezért sokat mágamlik. Mi ritkán...","0","mágamozunk","[""mágamozunk"",""mágamlunk""]","mágamozunk","esp trial","4","true"
"html-button-response","32","461895","0.0-11.0-1.10","null","<p>A másik játékos ezt választotta: <b>mágamozunk</b>.</p><p>&#x2705;</p><p>A te válaszod és a másik játékos válasza <b>megegyeznek</b>.</p>","null","","","","feedback trial","",""
"html-button-response-esp","33","467222","0.0-11.0-0.11","4825","János imád köszözni, ezért sokat köszlik. Ti ritkán...","1","köszlötök","[""köszöztök"",""köszlötök""]","köszlötök","esp trial","4","true"
"html-button-response","34","470733","0.0-11.0-1.11","null","<p>A másik játékos ezt választotta: <b>köszlötök</b>.</p><p>&#x2705;</p><p>A te válaszod és a másik játékos válasza <b>megegyeznek</b>.</p>","null","","","","feedback trial","",""
"html-button-response-esp","35","478206","0.0-11.0-0.12","6959","János imád trugokozni, ezért sokat trugoklik. Ők ritkán...","1","trugoklanak","[""trugokoznak"",""trugoklanak""]","trugoklanak","esp trial","4","true"
"html-button-response","36","481722","0.0-11.0-1.12","null","<p>A másik játékos ezt választotta: <b>trugoklanak</b>.</p><p>&#x2705;</p><p>A te válaszod és a másik játékos válasza <b>megegyeznek</b>.</p>","null","","","","feedback trial","",""
"html-button-response-esp","37","490766","0.0-11.0-0.13","8542","János imád dirozni, ezért sokat dirlik. Ti ritkán...","1","diroztok","[""dirlotok"",""diroztok""]","dirlotok","esp trial","4","false"
"html-button-response","38","494275","0.0-11.0-1.13","null","<p>A másik játékos ezt választotta: <b>dirlotok</b>.</p><p>&#10060;</p><p>A válaszaitok <b>nem</b> egyeznek meg.</p>","null","","","","feedback trial","",""
"html-button-response-esp","39","501166","0.0-11.0-0.14","6387","János imád flöközni, ezért sokat flöklik. Ti ritkán...","0","flöklötök","[""flöklötök"",""flököztök""]","flöklötök","esp trial","4","true"
"html-button-response","40","504668","0.0-11.0-1.14","null","<p>A másik játékos ezt választotta: <b>flöklötök</b>.</p><p>&#x2705;</p><p>A te válaszod és a másik játékos válasza <b>megegyeznek</b>.</p>","null","","","","feedback trial","",""
"html-button-response-esp","41","510174","0.0-11.0-0.15","5001","János imád püzözni, ezért sokat püzlik. Ti ritkán...","1","püzlötök","[""püzöztök"",""püzlötök""]","püzlötök","esp trial","4","true"
"html-button-response","42","513702","0.0-11.0-1.15","null","<p>A másik játékos ezt választotta: <b>püzlötök</b>.</p><p>&#x2705;</p><p>A te válaszod és a másik játékos válasza <b>megegyeznek</b>.</p>","null","","","","feedback trial","",""
"html-button-response-esp","43","519694","0.0-11.0-0.16","5491","János imád kűdözni, ezért sokat kűdlik. Ők ritkán...","0","kűdlenek","[""kűdlenek"",""kűdöznek""]","kűdöznek","esp trial","4","false"
"html-button-response","44","523212","0.0-11.0-1.16","null","<p>A másik játékos ezt választotta: <b>kűdöznek</b>.</p><p>&#10060;</p><p>A válaszaitok <b>nem</b> egyeznek meg.</p>","null","","","","feedback trial","",""
"html-button-response-esp","45","528846","0.0-11.0-0.17","5131","János imád frálapodni, ezért sokat frálapszik. Ti ritkán...","0","frálapszotok","[""frálapszotok"",""frálapodtok""]","frálapodtok","esp trial","4","false"
"html-button-response","46","532348","0.0-11.0-1.17","null","<p>A másik játékos ezt választotta: <b>frálapodtok</b>.</p><p>&#10060;</p><p>A válaszaitok <b>nem</b> egyeznek meg.</p>","null","","","","feedback trial","",""
"html-button-response-esp","47","537029","0.0-11.0-0.18","4168","János imád sprűrözni, ezért sokat sprűrlik. Ők ritkán...","0","sprűröznek","[""sprűröznek"",""sprűrlenek""]","sprűrlenek","esp trial","4","false"
"html-button-response","48","540541","0.0-11.0-1.18","null","<p>A másik játékos ezt választotta: <b>sprűrlenek</b>.</p><p>&#10060;</p><p>A válaszaitok <b>nem</b> egyeznek meg.</p>","null","","","","feedback trial","",""
"html-button-response-esp","49","546213","0.0-11.0-0.19","5171","János imád spügözni, ezért sokat spügzik. Mi ritkán...","1","spügözünk","[""spügzünk"",""spügözünk""]","spügözünk","esp trial","4","true"
"html-button-response","50","549716","0.0-11.0-1.19","null","<p>A másik játékos ezt választotta: <b>spügözünk</b>.</p><p>&#x2705;</p><p>A te válaszod és a másik játékos válasza <b>megegyeznek</b>.</p>","null","","","","feedback trial","",""
"html-button-response-esp","51","556669","0.0-11.0-0.20","6451","János imád brözözni, ezért sokat brözlik. Ti ritkán...","0","brözöztök","[""brözöztök"",""brözlötök""]","brözlötök","esp trial","4","false"
"html-button-response","52","560180","0.0-11.0-1.20","null","<p>A másik játékos ezt választotta: <b>brözlötök</b>.</p><p>&#10060;</p><p>A válaszaitok <b>nem</b> egyeznek meg.</p>","null","","","","feedback trial","",""
"html-button-response-esp","53","568333","0.0-11.0-0.21","7643","János imád trugozni, ezért sokat trugzik. Ők ritkán...","0","trugoznak","[""trugoznak"",""trugzanak""]","trugzanak","esp trial","4","false"
"html-button-response","54","571852","0.0-11.0-1.21","null","<p>A másik játékos ezt választotta: <b>trugzanak</b>.</p><p>&#10060;</p><p>A válaszaitok <b>nem</b> egyeznek meg.</p>","null","","","","feedback trial","",""
"html-button-response-esp","55","578749","0.0-11.0-0.22","6395","János imád drűrözni, ezért sokat drűrzik. Ők ritkán...","0","drűrzenek","[""drűrzenek"",""drűröznek""]","drűrzenek","esp trial","4","true"
"html-button-response","56","582251","0.0-11.0-1.22","null","<p>A másik játékos ezt választotta: <b>drűrzenek</b>.</p><p>&#x2705;</p><p>A te válaszod és a másik játékos válasza <b>megegyeznek</b>.</p>","null","","","","feedback trial","",""
"html-button-response-esp","57","587989","0.0-11.0-0.23","5225","János imád prélemezni, ezért sokat prélemlik. Ők ritkán...","1","prélemlenek","[""prélemeznek"",""prélemlenek""]","prélemlenek","esp trial","4","true"
"html-button-response","58","591491","0.0-11.0-1.23","null","<p>A másik játékos ezt választotta: <b>prélemlenek</b>.</p><p>&#x2705;</p><p>A te válaszod és a másik játékos válasza <b>megegyeznek</b>.</p>","null","","","","feedback trial","",""
"html-button-response-esp","59","600405","0.0-11.0-0.24","8405","János imád molodni, ezért sokat molszik. Ti ritkán...","0","molodtok","[""molodtok"",""molszotok""]","molodtok","esp trial","4","true"
"html-button-response","60","603907","0.0-11.0-1.24","null","<p>A másik játékos ezt választotta: <b>molodtok</b>.</p><p>&#x2705;</p><p>A te válaszod és a másik játékos válasza <b>megegyeznek</b>.</p>","null","","","","feedback trial","",""
"html-button-response-esp","61","608545","0.0-11.0-0.25","3071","János imád föködni, ezért sokat fökszik. Ők ritkán...","1","fökszenek","[""föködnek"",""fökszenek""]","föködnek","esp trial","4","false"
"html-button-response","62","612074","0.0-11.0-1.25","null","<p>A másik játékos ezt választotta: <b>föködnek</b>.</p><p>&#10060;</p><p>A válaszaitok <b>nem</b> egyeznek meg.</p>","null","","","","feedback trial","",""
"html-button-response-esp","63","619109","0.0-11.0-0.26","6533","János imád csibagozni, ezért sokat csibagzik. Ti ritkán...","0","csibagoztok","[""csibagoztok"",""csibagzotok""]","csibagzotok","esp trial","4","false"
"html-button-response","64","622625","0.0-11.0-1.26","null","<p>A másik játékos ezt választotta: <b>csibagzotok</b>.</p><p>&#10060;</p><p>A válaszaitok <b>nem</b> egyeznek meg.</p>","null","","","","feedback trial","",""
"html-button-response-esp","65","629965","0.0-11.0-0.27","6838","János imád sprozozni, ezért sokat sprozlik. Ők ritkán...","0","sprozlanak","[""sprozlanak"",""sprozoznak""]","sprozlanak","esp trial","4","true"
"html-button-response","66","633469","0.0-11.0-1.27","null","<p>A másik játékos ezt választotta: <b>sprozlanak</b>.</p><p>&#x2705;</p><p>A te válaszod és a másik játékos válasza <b>megegyeznek</b>.</p>","null","","","","feedback trial","",""
"html-button-response-esp","67","638088","0.0-11.0-0.28","3970","János imád csubozni, ezért sokat csubzik. Mi ritkán...","0","csubzunk","[""csubzunk"",""csubozunk""]","csubozunk","esp trial","4","false"
"html-button-response","68","641607","0.0-11.0-1.28","null","<p>A másik játékos ezt választotta: <b>csubozunk</b>.</p><p>&#10060;</p><p>A válaszaitok <b>nem</b> egyeznek meg.</p>","null","","","","feedback trial","",""
"html-button-response-esp","69","649877","0.0-11.0-0.29","7757","János imád mülőrözni, ezért sokat mülőrzik. Mi ritkán...","0","mülőrözünk","[""mülőrözünk"",""mülőrzünk""]","mülőrzünk","esp trial","4","false"
"html-button-response","70","653383","0.0-11.0-1.29","null","<p>A másik játékos ezt választotta: <b>mülőrzünk</b>.</p><p>&#10060;</p><p>A válaszaitok <b>nem</b> egyeznek meg.</p>","null","","","","feedback trial","",""
"html-button-response-esp","71","658669","0.0-11.0-0.30","4772","János imád sprudozni, ezért sokat sprudlik. Mi ritkán...","0","sprudlunk","[""sprudlunk"",""sprudozunk""]","sprudlunk","esp trial","4","true"
"html-button-response","72","662185","0.0-11.0-1.30","null","<p>A másik játékos ezt választotta: <b>sprudlunk</b>.</p><p>&#x2705;</p><p>A te válaszod és a másik játékos válasza <b>megegyeznek</b>.</p>","null","","","","feedback trial","",""
"html-button-response-esp","73","666810","0.0-11.0-0.31","2837","János imád dujozni, ezért sokat dujzik. Ők ritkán...","0","dujzanak","[""dujzanak"",""dujoznak""]","dujzanak","esp trial","4","true"
"html-button-response","74","670327","0.0-11.0-1.31","null","<p>A másik játékos ezt választotta: <b>dujzanak</b>.</p><p>&#x2705;</p><p>A te válaszod és a másik játékos válasza <b>megegyeznek</b>.</p>","null","","","","feedback trial","",""
"html-button-response-esp","75","676245","0.0-11.0-0.32","5417","János imád prögözni, ezért sokat prögzik. Ti ritkán...","1","prögöztök","[""prögzötök"",""prögöztök""]","prögzötök","esp trial","4","false"
"html-button-response","76","679764","0.0-11.0-1.32","null","<p>A másik játékos ezt választotta: <b>prögzötök</b>.</p><p>&#10060;</p><p>A válaszaitok <b>nem</b> egyeznek meg.</p>","null","","","","feedback trial","",""
"html-button-response-esp","77","684381","0.0-11.0-0.33","2706","János imád pilégedni, ezért sokat pilégszik. Ők ritkán...","1","pilégednek","[""pilégszenek"",""pilégednek""]","pilégednek","esp trial","4","true"
"html-button-response","78","687908","0.0-11.0-1.33","null","<p>A másik játékos ezt választotta: <b>pilégednek</b>.</p><p>&#x2705;</p><p>A te válaszod és a másik játékos válasza <b>megegyeznek</b>.</p>","null","","","","feedback trial","",""
"html-button-response-esp","79","692548","0.0-11.0-0.34","3405","János imád flűgözni, ezért sokat flűgzik. Mi ritkán...","0","flűgözünk","[""flűgözünk"",""flűgzünk""]","flűgzünk","esp trial","4","false"
"html-button-response","80","696062","0.0-11.0-1.34","null","<p>A másik játékos ezt választotta: <b>flűgzünk</b>.</p><p>&#10060;</p><p>A válaszaitok <b>nem</b> egyeznek meg.</p>","null","","","","feedback trial","",""
"html-button-response-esp","81","700678","0.0-11.0-0.35","3633","János imád frakozni, ezért sokat fraklik. Mi ritkán...","1","frakozunk","[""fraklunk"",""frakozunk""]","fraklunk","esp trial","4","false"
"html-button-response","82","704190","0.0-11.0-1.35","null","<p>A másik játékos ezt választotta: <b>fraklunk</b>.</p><p>&#10060;</p><p>A válaszaitok <b>nem</b> egyeznek meg.</p>","null","","","","feedback trial","",""
"html-button-response-esp","83","708811","0.0-11.0-0.36","3025","János imád brivakozni, ezért sokat brivaklik. Ti ritkán...","0","brivakoztok","[""brivakoztok"",""brivaklotok""]","brivaklotok","esp trial","4","false"
"html-button-response","84","712328","0.0-11.0-1.36","null","<p>A másik játékos ezt választotta: <b>brivaklotok</b>.</p><p>&#10060;</p><p>A válaszaitok <b>nem</b> egyeznek meg.</p>","null","","","","feedback trial","",""
"html-button-response-esp","85","718133","0.0-11.0-0.37","5293","János imád spibegezni, ezért sokat spibeglik. Mi ritkán...","1","spibeglünk","[""spibegezünk"",""spibeglünk""]","spibegezünk","esp trial","4","false"
"html-button-response","86","721652","0.0-11.0-1.37","null","<p>A másik játékos ezt választotta: <b>spibegezünk</b>.</p><p>&#10060;</p><p>A válaszaitok <b>nem</b> egyeznek meg.</p>","null","","","","feedback trial","",""
"html-button-response-esp","87","729677","0.0-11.0-0.38","7523","János imád bratározni, ezért sokat bratárzik. Ők ritkán...","1","bratároznak","[""bratárzanak"",""bratároznak""]","bratárzanak","esp trial","4","false"
"html-button-response","88","733185","0.0-11.0-1.38","null","<p>A másik játékos ezt választotta: <b>bratárzanak</b>.</p><p>&#10060;</p><p>A válaszaitok <b>nem</b> egyeznek meg.</p>","null","","","","feedback trial","",""
"html-button-response-esp","89","737804","0.0-11.0-0.39","3599","János imád fröjözni, ezért sokat fröjzik. Ti ritkán...","0","fröjöztök","[""fröjöztök"",""fröjzötök""]","fröjzötök","esp trial","4","false"
"html-button-response","90","741330","0.0-11.0-1.39","null","<p>A másik játékos ezt választotta: <b>fröjzötök</b>.</p><p>&#10060;</p><p>A válaszaitok <b>nem</b> egyeznek meg.</p>","null","","","","feedback trial","",""
"html-button-response-esp","91","747253","0.0-11.0-0.40","5409","János imád klehényezni, ezért sokat klehénylik. Ti ritkán...","0","klehényletek","[""klehényletek"",""klehényeztek""]","klehényletek","esp trial","4","true"
"html-button-response","92","750767","0.0-11.0-1.40","null","<p>A másik játékos ezt választotta: <b>klehényletek</b>.</p><p>&#x2705;</p><p>A te válaszod és a másik játékos válasza <b>megegyeznek</b>.</p>","null","","","","feedback trial","",""
"html-button-response-esp","93","755405","0.0-11.0-0.41","3638","János imád privékedni, ezért sokat privékszik. Ők ritkán...","0","privékednek","[""privékednek"",""privékszenek""]","privékszenek","esp trial","4","false"
"html-button-response","94","758921","0.0-11.0-1.41","null","<p>A másik játékos ezt választotta: <b>privékszenek</b>.</p><p>&#10060;</p><p>A válaszaitok <b>nem</b> egyeznek meg.</p>","null","","","","feedback trial","",""
"html-button-response-esp","95","763709","0.0-11.0-0.42","4274","János imád gihejezni, ezért sokat gihejlik. Mi ritkán...","0","gihejlünk","[""gihejlünk"",""gihejezünk""]","gihejezünk","esp trial","4","false"
"html-button-response","96","767225","0.0-11.0-1.42","null","<p>A másik játékos ezt választotta: <b>gihejezünk</b>.</p><p>&#10060;</p><p>A válaszaitok <b>nem</b> egyeznek meg.</p>","null","","","","feedback trial","",""
"html-button-response-esp","97","772149","0.0-11.0-0.43","4409","János imád flüröközni, ezért sokat flüröklik. Ti ritkán...","0","flüröklötök","[""flüröklötök"",""flürököztök""]","flüröklötök","esp trial","4","true"
"html-button-response","98","775654","0.0-11.0-1.43","null","<p>A másik játékos ezt választotta: <b>flüröklötök</b>.</p><p>&#x2705;</p><p>A te válaszod és a másik játékos válasza <b>megegyeznek</b>.</p>","null","","","","feedback trial","",""
"html-button-response-esp","99","780484","0.0-11.0-0.44","4323","János imád lájozni, ezért sokat lájzik. Ti ritkán...","0","lájzotok","[""lájzotok"",""lájoztok""]","lájoztok","esp trial","4","false"
"html-button-response","100","784011","0.0-11.0-1.44","null","<p>A másik játékos ezt választotta: <b>lájoztok</b>.</p><p>&#10060;</p><p>A válaszaitok <b>nem</b> egyeznek meg.</p>","null","","","","feedback trial","",""
"html-button-response-esp","101","788633","0.0-11.0-0.45","3843","János imád flemezni, ezért sokat flemlik. Mi ritkán...","0","flemezünk","[""flemezünk"",""flemlünk""]","flemlünk","esp trial","4","false"
"html-button-response","102","792154","0.0-11.0-1.45","null","<p>A másik játékos ezt választotta: <b>flemlünk</b>.</p><p>&#10060;</p><p>A válaszaitok <b>nem</b> egyeznek meg.</p>","null","","","","feedback trial","",""
"html-button-response-esp","103","796790","0.0-11.0-0.46","1663","János imád dabozni, ezért sokat dabzik. Ti ritkán...","0","dabzotok","[""dabzotok"",""daboztok""]","dabzotok","esp trial","4","true"
"html-button-response","104","800306","0.0-11.0-1.46","null","<p>A másik játékos ezt választotta: <b>dabzotok</b>.</p><p>&#x2705;</p><p>A te válaszod és a másik játékos válasza <b>megegyeznek</b>.</p>","null","","","","feedback trial","",""
"html-button-response-esp","105","804942","0.0-11.0-0.47","4047","János imád drilarozni, ezért sokat drilarzik. Mi ritkán...","1","drilarozunk","[""drilarzunk"",""drilarozunk""]","drilarzunk","esp trial","4","false"
"html-button-response","106","808462","0.0-11.0-1.47","null","<p>A másik játékos ezt választotta: <b>drilarzunk</b>.</p><p>&#10060;</p><p>A válaszaitok <b>nem</b> egyeznek meg.</p>","null","","","","feedback trial","",""
"html-button-response-esp","107","813086","0.0-11.0-0.48","2942","János imád gyihegezni, ezért sokat gyihegzik. Ti ritkán...","0","gyihegeztek","[""gyihegeztek"",""gyihegzetek""]","gyihegzetek","esp trial","4","false"
"html-button-response","108","816588","0.0-11.0-1.48","null","<p>A másik játékos ezt választotta: <b>gyihegzetek</b>.</p><p>&#10060;</p><p>A válaszaitok <b>nem</b> egyeznek meg.</p>","null","","","","feedback trial","",""
"html-button-response-esp","109","821203","0.0-11.0-0.49","3322","János imád nyürözni, ezért sokat nyürzik. Ők ritkán...","1","nyürzenek","[""nyüröznek"",""nyürzenek""]","nyürzenek","esp trial","4","true"
"html-button-response","110","824723","0.0-11.0-1.49","null","<p>A másik játékos ezt választotta: <b>nyürzenek</b>.</p><p>&#x2705;</p><p>A te válaszod és a másik játékos válasza <b>megegyeznek</b>.</p>","null","","","","feedback trial","",""
"html-button-response-esp","111","830836","0.0-11.0-0.50","5601","János imád trikozni, ezért sokat triklik. Ti ritkán...","0","trikoztok","[""trikoztok"",""triklotok""]","trikoztok","esp trial","4","true"
"html-button-response","112","834363","0.0-11.0-1.50","null","<p>A másik játékos ezt választotta: <b>trikoztok</b>.</p><p>&#x2705;</p><p>A te válaszod és a másik játékos válasza <b>megegyeznek</b>.</p>","null","","","","feedback trial","",""
"html-button-response-esp","113","843940","0.0-11.0-0.51","9062","János imád nyivágozni, ezért sokat nyivágzik. Mi ritkán...","0","nyivágzunk","[""nyivágzunk"",""nyivágozunk""]","nyivágozunk","esp trial","4","false"
"html-button-response","114","847450","0.0-11.0-1.51","null","<p>A másik játékos ezt választotta: <b>nyivágozunk</b>.</p><p>&#10060;</p><p>A válaszaitok <b>nem</b> egyeznek meg.</p>","null","","","","feedback trial","",""
"html-button-response-esp","115","852075","0.0-11.0-0.52","4002","János imád pragányozni, ezért sokat pragánylik. Ti ritkán...","0","pragánylotok","[""pragánylotok"",""pragányoztok""]","pragánylotok","esp trial","4","true"
"html-button-response","116","855603","0.0-11.0-1.52","null","<p>A másik játékos ezt választotta: <b>pragánylotok</b>.</p><p>&#x2705;</p><p>A te válaszod és a másik játékos válasza <b>megegyeznek</b>.</p>","null","","","","feedback trial","",""
"html-button-response-esp","117","862493","0.0-11.0-0.53","6377","János imád dárakodni, ezért sokat dárakszik. Mi ritkán...","1","dárakodunk","[""dárakszunk"",""dárakodunk""]","dárakszunk","esp trial","4","false"
"html-button-response","118","866000","0.0-11.0-1.53","null","<p>A másik játékos ezt választotta: <b>dárakszunk</b>.</p><p>&#10060;</p><p>A válaszaitok <b>nem</b> egyeznek meg.</p>","null","","","","feedback trial","",""
"html-button-response","119","884261","0.0-12.0","17750","<p>A közös játék most véget ért.</p><p>Mielőtt eláruljuk a végső pontszámodat, arra kérlek, játszd a szóválasztós játékot néhány percig egyedül is.</p><p>A feladatod ugyanaz lesz, választani két lehetőség közül.</p><p>Most viszont egyedül kell döntened, hogy te melyiket választanád.</p>","0","","","","","",""
"html-button-response-clever","120","891293","0.0-13.0-0.0","6520","János imád lírozni, ezért sokat lírlik. Ők ritkán...","0","líroznak","[""líroznak"",""lírlanak""]","","posttest trial","8",""
"html-button-response-clever","121","894973","0.0-13.0-0.1","3171","János imád prazozni, ezért sokat prazlik. Mi ritkán...","0","prazozunk","[""prazozunk"",""prazlunk""]","","posttest trial","8",""
"html-button-response-clever","122","898781","0.0-13.0-0.2","3304","János imád klarágozni, ezért sokat klarágzik. Ti ritkán...","0","klarágoztok","[""klarágoztok"",""klarágzotok""]","","posttest trial","8",""
"html-button-response-clever","123","906485","0.0-13.0-0.3","7197","János imád trírozni, ezért sokat trírzik. Mi ritkán...","0","trírzunk","[""trírzunk"",""trírozunk""]","","posttest trial","8",""
"html-button-response-clever","124","911117","0.0-13.0-0.4","4121","János imád vobozni, ezért sokat vobzik. Ti ritkán...","1","voboztok","[""vobzotok"",""voboztok""]","","posttest trial","8",""
"html-button-response-clever","125","920021","0.0-13.0-0.5","8399","János imád pekedni, ezért sokat pekszik. Mi ritkán...","1","pekedünk","[""pekszünk"",""pekedünk""]","","posttest trial","8",""
"html-button-response-clever","126","924901","0.0-13.0-0.6","4367","János imád drojozni, ezért sokat drojzik. Mi ritkán...","0","drojzunk","[""drojzunk"",""drojozunk""]","","posttest trial","8",""
"html-button-response-clever","127","931221","0.0-13.0-0.7","5818","János imád dirányozni, ezért sokat diránylik. Ők ritkán...","0","dirányoznak","[""dirányoznak"",""diránylanak""]","","posttest trial","8",""
"html-button-response-clever","128","935972","0.0-13.0-0.8","4244","János imád spalározni, ezért sokat spalárzik. Ők ritkán...","1","spalároznak","[""spalárzanak"",""spalároznak""]","","posttest trial","8",""
"html-button-response-clever","129","940741","0.0-13.0-0.9","4259","János imád brálamozni, ezért sokat brálamlik. Ők ritkán...","1","brálamoznak","[""brálamlanak"",""brálamoznak""]","","posttest trial","8",""
"html-button-response-clever","130","944677","0.0-13.0-0.10","3434","János imád küsözni, ezért sokat küslik. Mi ritkán...","0","küsözünk","[""küsözünk"",""küslünk""]","","posttest trial","8",""
"html-button-response-clever","131","947188","0.0-13.0-0.11","2008","János imád spibamozni, ezért sokat spibamlik. Ők ritkán...","0","spibamoznak","[""spibamoznak"",""spibamlanak""]","","posttest trial","8",""
"html-button-response-clever","132","950148","0.0-13.0-0.12","2456","János imád brivepedni, ezért sokat brivepszik. Mi ritkán...","1","brivepedünk","[""brivepszünk"",""brivepedünk""]","","posttest trial","8",""
"html-button-response-clever","133","953013","0.0-13.0-0.13","2360","János imád brározni, ezért sokat brárlik. Ők ritkán...","0","brárlanak","[""brárlanak"",""brároznak""]","","posttest trial","8",""
"html-button-response-clever","134","957068","0.0-13.0-0.14","3546","János imád frihegezni, ezért sokat friheglik. Mi ritkán...","0","friheglünk","[""friheglünk"",""frihegezünk""]","","posttest trial","8",""
"html-button-response-clever","135","961421","0.0-13.0-0.15","3850","János imád sprigozni, ezért sokat sprigzik. Ti ritkán...","0","sprigoztok","[""sprigoztok"",""sprigzotok""]","","posttest trial","8",""
"html-button-response-clever","136","964516","0.0-13.0-0.16","2594","János imád tribejezni, ezért sokat tribejlik. Ti ritkán...","0","tribejeztek","[""tribejeztek"",""tribejletek""]","","posttest trial","8",""
"html-button-response-clever","137","973932","0.0-13.0-0.17","8914","János imád hákodni, ezért sokat hákszik. Ők ritkán...","0","hákszanak","[""hákszanak"",""hákodnak""]","","posttest trial","8",""
"html-button-response-clever","138","979652","0.0-13.0-0.18","5215","János imád mísozni, ezért sokat míslik. Mi ritkán...","1","míslunk","[""mísozunk"",""míslunk""]","","posttest trial","8",""
"html-button-response-clever","139","982684","0.0-13.0-0.19","2516","János imád míjozni, ezért sokat míjzik. Mi ritkán...","0","míjzunk","[""míjzunk"",""míjozunk""]","","posttest trial","8",""
"html-button-response-clever","140","985988","0.0-13.0-0.20","2802","János imád brilegezni, ezért sokat brilegzik. Mi ritkán...","0","brilegzünk","[""brilegzünk"",""brilegezünk""]","","posttest trial","8",""
"html-button-response-clever","141","992156","0.0-13.0-0.21","5665","János imád tibarozni, ezért sokat tibarzik. Ők ritkán...","0","tibarzanak","[""tibarzanak"",""tibaroznak""]","","posttest trial","8",""
"html-button-response-clever","142","999204","0.0-13.0-0.22","6545","János imád pehégedni, ezért sokat pehégszik. Ti ritkán...","0","pehégszetek","[""pehégszetek"",""pehégedtek""]","","posttest trial","8",""
"html-button-response-clever","143","1002060","0.0-13.0-0.23","2342","János imád sztrajozni, ezért sokat sztrajlik. Ők ritkán...","1","sztrajoznak","[""sztrajlanak"",""sztrajoznak""]","","posttest trial","8",""
"html-button-response-clever","144","1009876","0.0-13.0-0.24","7312","János imád flivegezni, ezért sokat flivegzik. Ők ritkán...","1","flivegzenek","[""flivegeznek"",""flivegzenek""]","","posttest trial","8",""
"html-button-response-clever","145","1015356","0.0-13.0-0.25","4972","János imád flubokozni, ezért sokat fluboklik. Ti ritkán...","0","fluboklotok","[""fluboklotok"",""flubokoztok""]","","posttest trial","8",""
"html-button-response-clever","146","1019588","0.0-13.0-0.26","3718","János imád pörözni, ezért sokat pörzik. Ti ritkán...","0","pöröztök","[""pöröztök"",""pörzötök""]","","posttest trial","8",""
"html-button-response-clever","147","1025364","0.0-13.0-0.27","5269","János imád galározni, ezért sokat galárzik. Ők ritkán...","0","galároznak","[""galároznak"",""galárzanak""]","","posttest trial","8",""
"html-button-response-clever","148","1030852","0.0-13.0-0.28","4984","János imád kluzozni, ezért sokat kluzlik. Ti ritkán...","0","kluzlotok","[""kluzlotok"",""kluzoztok""]","","posttest trial","8",""
"html-button-response-clever","149","1036012","0.0-13.0-0.29","4654","János imád bregezni, ezért sokat bregzik. Mi ritkán...","1","bregezünk","[""bregzünk"",""bregezünk""]","","posttest trial","8",""
"html-button-response-clever","150","1053388","0.0-13.0-0.30","16863","János imád prilepedni, ezért sokat prilepszik. Mi ritkán...","0","prilepedünk","[""prilepedünk"",""prilepszünk""]","","posttest trial","8",""
"html-button-response-clever","151","1058572","0.0-13.0-0.31","4672","János imád sponyozni, ezért sokat sponylik. Ők ritkán...","1","sponylanak","[""sponyoznak"",""sponylanak""]","","posttest trial","8",""
"html-button-response-clever","152","1068156","0.0-13.0-0.32","9076","János imád gyivepedni, ezért sokat gyivepszik. Ők ritkán...","0","gyivepszenek","[""gyivepszenek"",""gyivepednek""]","","posttest trial","8",""
"html-button-response-clever","153","1072796","0.0-13.0-0.33","4136","János imád fröjözni, ezért sokat fröjlik. Mi ritkán...","0","fröjlünk","[""fröjlünk"",""fröjözünk""]","","posttest trial","8",""
"html-button-response-clever","154","1075244","0.0-13.0-0.34","1937","János imád spöközni, ezért sokat spöklik. Mi ritkán...","0","spöközünk","[""spöközünk"",""spöklünk""]","","posttest trial","8",""
"html-button-response-clever","155","1077388","0.0-13.0-0.35","1636","János imád livényezni, ezért sokat livénylik. Mi ritkán...","1","livénylünk","[""livényezünk"",""livénylünk""]","","posttest trial","8",""
"html-button-response-clever","156","1082348","0.0-13.0-0.36","4454","János imád brivágozni, ezért sokat briváglik. Ők ritkán...","0","brivágoznak","[""brivágoznak"",""briváglanak""]","","posttest trial","8",""
"html-button-response-clever","157","1086916","0.0-13.0-0.37","4060","János imád gatágozni, ezért sokat gatáglik. Mi ritkán...","0","gatágozunk","[""gatágozunk"",""gatáglunk""]","","posttest trial","8",""
"html-button-response-clever","158","1091964","0.0-13.0-0.38","4546","János imád riványozni, ezért sokat riványlik. Ti ritkán...","0","riványoztok","[""riványoztok"",""riványlotok""]","","posttest trial","8",""
"html-button-response-clever","159","1098772","0.0-13.0-0.39","6294","János imád drivegezni, ezért sokat drivegzik. Ti ritkán...","0","drivegzetek","[""drivegzetek"",""drivegeztek""]","","posttest trial","8",""
"html-button-response-clever","160","1102716","0.0-13.0-0.40","3432","János imád trűnyözni, ezért sokat trűnylik. Ők ritkán...","0","trűnylenek","[""trűnylenek"",""trűnyöznek""]","","posttest trial","8",""
"html-button-response-clever","161","1113500","0.0-13.0-0.41","10277","János imád frésezni, ezért sokat fréslik. Mi ritkán...","1","frésezünk","[""fréslünk"",""frésezünk""]","","posttest trial","8",""
"html-button-response-clever","162","1116564","0.0-13.0-0.42","2560","János imád brüszözni, ezért sokat brüszlik. Ti ritkán...","0","brüszöztök","[""brüszöztök"",""brüszlötök""]","","posttest trial","8",""
"html-button-response-clever","163","1122356","0.0-13.0-0.43","5282","János imád tűgözni, ezért sokat tűgzik. Ti ritkán...","0","tűgöztök","[""tűgöztök"",""tűgzötök""]","","posttest trial","8",""
"html-button-response-clever","164","1126276","0.0-13.0-0.44","3411","János imád gibemezni, ezért sokat gibemlik. Mi ritkán...","0","gibemlünk","[""gibemlünk"",""gibemezünk""]","","posttest trial","8",""
"html-button-response-clever","165","1131732","0.0-13.0-0.45","4955","János imád nágapodni, ezért sokat nágapszik. Ők ritkán...","0","nágapszanak","[""nágapszanak"",""nágapodnak""]","","posttest trial","8",""
"html-button-response-clever","166","1135316","0.0-13.0-0.46","3074","János imád flézezni, ezért sokat flézlik. Ti ritkán...","0","flézeztek","[""flézeztek"",""flézletek""]","","posttest trial","8",""
"html-button-response-clever","167","1141468","0.0-13.0-0.47","5647","János imád frivamozni, ezért sokat frivamlik. Mi ritkán...","0","frivamlunk","[""frivamlunk"",""frivamozunk""]","","posttest trial","8",""
"html-button-response-clever","168","1146316","0.0-13.0-0.48","4346","János imád mihágozni, ezért sokat mihágzik. Ti ritkán...","0","mihágoztok","[""mihágoztok"",""mihágzotok""]","","posttest trial","8",""
"html-button-response-clever","169","1152124","0.0-13.0-0.49","5305","János imád sprimozni, ezért sokat sprimlik. Mi ritkán...","0","sprimozunk","[""sprimozunk"",""sprimlunk""]","","posttest trial","8",""
"html-button-response-clever","170","1157044","0.0-13.0-0.50","4407","János imád filányozni, ezért sokat filánylik. Mi ritkán...","0","filánylunk","[""filánylunk"",""filányozunk""]","","posttest trial","8",""
"html-button-response-clever","171","1161780","0.0-13.0-0.51","4229","János imád tágarozni, ezért sokat tágarzik. Mi ritkán...","0","tágarozunk","[""tágarozunk"",""tágarzunk""]","","posttest trial","8",""
"html-button-response-clever","172","1164556","0.0-13.0-0.52","2265","János imád sztritozni, ezért sokat sztritlik. Ők ritkán...","1","sztritlanak","[""sztritoznak"",""sztritlanak""]","","posttest trial","8",""
"html-button-response-clever","173","1168716","0.0-13.0-0.53","3654","János imád lumozni, ezért sokat lumlik. Ti ritkán...","1","lumoztok","[""lumlotok"",""lumoztok""]","","posttest trial","8",""
"html-button-response","174","1172420","0.0-14.0","3199","<p> Vége a játéknak. A teljes pontszámod 22/54.</p><p> Szép munka! &#128526;&#128526;&#128526;</p><p>A Befejezés gomb megnyomása után bezárhatod a böngészőablakot.</p>","0","","","","","",""
"html-keyboard-response","175","1177931","0.0-15.0","null","<div class=""message"">
         <p>Egy kis türelmet kérünk, amíg elmentjük az adatokat...</p>
         </div>","null","","","","","",""
