"trial_type","trial_index","time_elapsed","internal_node_id","rt","stimulus","response","response_string","choices","esp_response","trial_kind","list_number","esp_match"
"pavlovia","0","796","0.0-0.0","","","","","","","","",""
"html-button-response","1","59621","0.0-1.0","58336","<p>Kedves Résztvevő! A Budapesti Műszaki és Gazdaságtudományi Egyetem Kognitív Tudományi Tanszékének kutatásában való részvételed kérjük. A kutatásban azt vizsgáljuk, hogy a magyar anyanyelvűek hogyan használnak bizonyos szóalakokat, és hogy milyen képük van arról, hogy mások hogyan használják, hogyan képzik a szavakat. Ez hozzásegít bennünket ahhoz, hogy jobban megértsük, hogyan dolgozza fel és tárolja a nyelvet az emberi agy, és hogyan működnek, hogyan változnak egy adott közösség nyelvi konvenciói.</p><p>A vizsgálat egy rövid számítógépes feladatból fog állni. A kutatásban való részvétel önkéntes, a részvételi szándék bármikor visszavonható. A résztvevők eredményeit név nélkül kezeljük, így nem beazonosíthatók az adatok feldolgozása során. Minden személyes adatot az EU általános adatvédelmi rendeletének (GDPR) megfelelően kezelünk és legfeljebb öt éven belül megsemmisítünk. A vizsgálat jellemzően húsz percet vesz igénybe.</p><p>Kutatásvezető:</p><p>Dr. Rácz Péter, tudományos munkatárs, BME KTT</p><p>e-mail: racz.peter.marton@ttk.bme.hu</p>","0","","","","","",""
"html-button-response","2","140764","0.0-2.0","80630","<p>A kísérletben szavakat fogsz látni. Ezek között lesznek olyanok, amelyeket ismersz, de előfordulhatnak olyanok is, amelyeket nem ismersz, sőt, vannak köztük kitalált szavak is. Minden szónál látni fogsz toldalékolt alakokat. A te feladatod az lesz, hogy minden szóhoz kiválaszd azt a toldalékolt alakot, amely a te számodra ismerősebben, természetesebben hangzik. Rossz válaszok nincsenek, mert van olyan, hogy különböző embereknek más és más szó tűnik jobb választásnak. A választ úgy tudod majd kiválasztani, ha rákattintasz.</p><p>Ebben a szóválasztós játékban egy másik játékossal együtt veszel majd részt. A másik játékos is minden esetben azok közül a lehetőségek közül válogathat, mint te. Kettőtök feladata az, hogy ugyanazt a lehetőséget válasszátok minden esetben. Ahhoz, hogy ez sikerüljön, neked figyelned kell arra, hogy a másik játékos milyen válaszokat ad, és ennek alapján meg kell tippelned, hogyan választ legközelebb. Ha eltalálod, akkor pontot kapsz.</p>","0","","","","","",""
"html-button-response","3","147476","0.0-3.0","6197","<p>Kérjük, olvasd el az alábbi nyilatkozatot, és amennyiben egyetértesz vele, nyomj a Beleegyezés gombra!</p><p>Kijelentem, hogy magyar anyanyelvű személyként önként veszek részt a BME KTT kísérletében. A kutatás céljával és folyamatával kapcsolatban elegendő tájékoztatást kaptam, lehetőségem volt kérdések feltételére, és esetleges kérdéseimre megfelelő válaszokat kaptam. A tájékoztatás alapján elegendő mennyiségű információ áll a rendelkezésemre, hogy eldönthessem, részt kívánok-e venni a kutatásban.</p><p>Tisztában vagyok vele, hogy részvételi szándékomat és adataimat bármikor, indoklás nélkül visszavonhatom.</p><p>Értem és tudomásul veszem, hogy a kutatás tudományos célokat szolgál, és az általam szolgáltatott adatokat a BME kizárólag kutatási célból használja fel. Tudomásul veszem, hogy eredményeimet a többi résztvevő eredményeivel együtt kezelik, így egyéni teljesítményemről visszajelzést, szakvéleményt nem kapok.</p><p>Megértettem, hogy adataim kezelését illetően a BME az EU általános adatvédelmi rendelete (GDPR), a hatályos adatvédelmi törvény és a nemzetközi kutatás-etikai alapelvek szerint jár el. Eredményeim anonim módon kerülnek feldolgozásra, és a kutatás résztvevői az azonosításomra alkalmas adataimat harmadik félnek nem szolgáltatják ki. Engedélyezem a BME számára a jelen kutatásban felvett adataim feldolgozását és tárolását, beleértve azok későbbi kutatásokhoz való felhasználását is. Személyes adataim kezelésével kapcsolatban tájékoztatást kérhetek a kutatás résztvevőitől, az adatkezelés ellen tiltakozhatok, kérhetem személyes adataim helyesbítését, törlését vagy zárolását, valamint jogorvoslatért a Nemzeti Adatvédelmi és Információszabadság Hatósághoz fordulhatok.</p><p>Kijelentem, hogy a kutatásban való részvételem körülményeiről részletes tájékoztatást kaptam, és a feltételeket elfogadom.</p>","0","","","","","",""
"survey-text","4","191452","0.0-4.0","43450","","{""Q0"":""SN237"",""Q1"":""Nő"",""Q2"":""1999"",""Q3"":""17""}","","","","","",""
"html-button-response","5","240357","0.0-5.0","48399","<p>Ebben a játékban szavakat kell toldalékolni.</p> <p>Minden körben mutatunk majd egy példamondatot, amiben lesz egy szó.</p> <p>Alatta jön egy második mondat, ezt a mondatot neked kell majd befejezni, ugyanezzel a szóval.</p> <p>Nem biztos, hogy a szó eleve ismerős lesz számodra!</p> <p>Minden mondathoz adunk két lehetőséget, ezeket balra és jobbra látod majd.</p> <p>A játék kb. negyedóráig-húsz percig tart.</p>","0","","","","","",""
"html-button-response","6","279981","0.0-6.0","39120","<p>Nézzünk egy példát!</p> <p>A példamondat: ""János imád fláramolni, ezért sokat fláramlik. Mi ritkán...""</p><p>Neked ezt a mondatot kell befejezned: ""Ti ritkán...""</p><p>A lehetőségek pedig ezek:</p>","0","","","","","",""
"html-button-response","7","288165","0.0-7.0","7679","<p>Nagyon jó.</p><p>Ezt a játékot nem egyedül fogod játszani, hanem egy másik játékossal.</p><p>Mielőtt továbblépünk, összekapcsolunk titeket egymással.</p><p>Ez igénybe vehet néhány másodpercet, amihez szíves türelmed kérjük.</p>","0","","","","","",""
"html-button-response","8","293914","0.0-8.0","null","<p>Csatlakozás a másik játékoshoz...</p>","null","","","","","",""
"html-button-response","9","296441","0.0-9.0","null","<p> Sikeres kapcsolódás!</p>","null","","","","","",""
"html-button-response","10","306959","0.0-10.0","null","<p>A következőkben ketten játsszátok a szóválasztós játékot.</p><p>A feladatotok az lesz, hogy minden körben <b>ugyanazt</b> a szót válasszátok.</p><p>Minden ilyen egyező válaszért pontot kaptok.</p><p>Próbáld meg kitalálni, mit választ a másik játékos!</p><p>Bármikor választhatsz, a körnek akkor van vége, ha mindketten döntöttetek.</p><p>Sok sikert!</p>","null","","","","","",""
"html-button-response-esp","11","321148","0.0-11.0-0.0","13649","János imád dujozni, ezért sokat dujzik. Ők ritkán...","1","dujoznak","[""dujzanak"",""dujoznak""]","dujzanak","esp trial","4","false"
"html-button-response","12","324668","0.0-11.0-1.0","null","<p>A másik játékos ezt választotta: <b>dujzanak</b>.</p><p>&#10060;</p><p>A válaszaitok <b>nem</b> egyeznek meg.</p>","null","","","","feedback trial","",""
"html-button-response-esp","13","336324","0.0-11.0-0.1","11150","János imád csibagozni, ezért sokat csibagzik. Ti ritkán...","0","csibagoztok","[""csibagoztok"",""csibagzotok""]","csibagzotok","esp trial","4","false"
"html-button-response","14","339847","0.0-11.0-1.1","null","<p>A másik játékos ezt választotta: <b>csibagzotok</b>.</p><p>&#10060;</p><p>A válaszaitok <b>nem</b> egyeznek meg.</p>","null","","","","feedback trial","",""
"html-button-response-esp","15","349035","0.0-11.0-0.2","8684","János imád spügözni, ezért sokat spügzik. Mi ritkán...","0","spügözünk","[""spügözünk"",""spügzünk""]","spügözünk","esp trial","4","true"
"html-button-response","16","352562","0.0-11.0-1.2","null","<p>A másik játékos ezt választotta: <b>spügözünk</b>.</p><p>&#x2705;</p><p>A te válaszod és a másik játékos válasza <b>megegyeznek</b>.</p>","null","","","","feedback trial","",""
"html-button-response-esp","17","364695","0.0-11.0-0.3","11634","János imád brivakozni, ezért sokat brivaklik. Ti ritkán...","0","brivakoztok","[""brivakoztok"",""brivaklotok""]","brivaklotok","esp trial","4","false"
"html-button-response","18","368217","0.0-11.0-1.3","null","<p>A másik játékos ezt választotta: <b>brivaklotok</b>.</p><p>&#10060;</p><p>A válaszaitok <b>nem</b> egyeznek meg.</p>","null","","","","feedback trial","",""
"html-button-response-esp","19","377183","0.0-11.0-0.4","8459","János imád lűközni, ezért sokat lűklik. Ők ritkán...","0","lűklenek","[""lűklenek"",""lűköznek""]","lűklenek","esp trial","4","true"
"html-button-response","20","380694","0.0-11.0-1.4","null","<p>A másik játékos ezt választotta: <b>lűklenek</b>.</p><p>&#x2705;</p><p>A te válaszod és a másik játékos válasza <b>megegyeznek</b>.</p>","null","","","","feedback trial","",""
"html-button-response-esp","21","398711","0.0-11.0-0.5","17507","János imád privékedni, ezért sokat privékszik. Ők ritkán...","1","privékszenek","[""privékednek"",""privékszenek""]","privékszenek","esp trial","4","true"
"html-button-response","22","402228","0.0-11.0-1.5","null","<p>A másik játékos ezt választotta: <b>privékszenek</b>.</p><p>&#x2705;</p><p>A te válaszod és a másik játékos válasza <b>megegyeznek</b>.</p>","null","","","","feedback trial","",""
"html-button-response-esp","23","414151","0.0-11.0-0.6","11421","János imád trugokozni, ezért sokat trugoklik. Ők ritkán...","1","trugokoznak","[""trugoklanak"",""trugokoznak""]","trugoklanak","esp trial","4","false"
"html-button-response","24","417677","0.0-11.0-1.6","null","<p>A másik játékos ezt választotta: <b>trugoklanak</b>.</p><p>&#10060;</p><p>A válaszaitok <b>nem</b> egyeznek meg.</p>","null","","","","feedback trial","",""
"html-button-response-esp","25","426086","0.0-11.0-0.7","6830","János imád föködni, ezért sokat fökszik. Ők ritkán...","0","föködnek","[""föködnek"",""fökszenek""]","föködnek","esp trial","4","true"
"html-button-response","26","429599","0.0-11.0-1.7","null","<p>A másik játékos ezt választotta: <b>föködnek</b>.</p><p>&#x2705;</p><p>A te válaszod és a másik játékos válasza <b>megegyeznek</b>.</p>","null","","","","feedback trial","",""
"html-button-response-esp","27","437996","0.0-11.0-0.8","7528","János imád gihejezni, ezért sokat gihejlik. Mi ritkán...","0","gihejezünk","[""gihejezünk"",""gihejlünk""]","gihejezünk","esp trial","4","true"
"html-button-response","28","441519","0.0-11.0-1.8","null","<p>A másik játékos ezt választotta: <b>gihejezünk</b>.</p><p>&#x2705;</p><p>A te válaszod és a másik játékos válasza <b>megegyeznek</b>.</p>","null","","","","feedback trial","",""
"html-button-response-esp","29","450679","0.0-11.0-0.9","8650","János imád sprudozni, ezért sokat sprudlik. Mi ritkán...","0","sprudozunk","[""sprudozunk"",""sprudlunk""]","sprudlunk","esp trial","4","false"
"html-button-response","30","454200","0.0-11.0-1.9","null","<p>A másik játékos ezt választotta: <b>sprudlunk</b>.</p><p>&#10060;</p><p>A válaszaitok <b>nem</b> egyeznek meg.</p>","null","","","","feedback trial","",""
"html-button-response-esp","31","462606","0.0-11.0-0.10","6978","János imád virozni, ezért sokat virzik. Ők ritkán...","0","virzanak","[""virzanak"",""viroznak""]","virzanak","esp trial","4","true"
"html-button-response","32","466139","0.0-11.0-1.10","null","<p>A másik játékos ezt választotta: <b>virzanak</b>.</p><p>&#x2705;</p><p>A te válaszod és a másik játékos válasza <b>megegyeznek</b>.</p>","null","","","","feedback trial","",""
"html-button-response-esp","33","476415","0.0-11.0-0.11","9759","János imád flűgözni, ezért sokat flűgzik. Mi ritkán...","1","flűgzünk","[""flűgözünk"",""flűgzünk""]","flűgzünk","esp trial","4","true"
"html-button-response","34","479929","0.0-11.0-1.11","null","<p>A másik játékos ezt választotta: <b>flűgzünk</b>.</p><p>&#x2705;</p><p>A te válaszod és a másik játékos válasza <b>megegyeznek</b>.</p>","null","","","","feedback trial","",""
"html-button-response-esp","35","496049","0.0-11.0-0.12","15603","János imád klehényezni, ezért sokat klehénylik. Ti ritkán...","0","klehényeztek","[""klehényeztek"",""klehényletek""]","klehényletek","esp trial","4","false"
"html-button-response","36","499568","0.0-11.0-1.12","null","<p>A másik játékos ezt választotta: <b>klehényletek</b>.</p><p>&#10060;</p><p>A válaszaitok <b>nem</b> egyeznek meg.</p>","null","","","","feedback trial","",""
"html-button-response-esp","37","512202","0.0-11.0-0.13","12127","János imád nyürözni, ezért sokat nyürzik. Ők ritkán...","0","nyüröznek","[""nyüröznek"",""nyürzenek""]","nyürzenek","esp trial","4","false"
"html-button-response","38","515720","0.0-11.0-1.13","null","<p>A másik játékos ezt választotta: <b>nyürzenek</b>.</p><p>&#10060;</p><p>A válaszaitok <b>nem</b> egyeznek meg.</p>","null","","","","feedback trial","",""
"html-button-response-esp","39","524833","0.0-11.0-0.14","8596","János imád brülösözni, ezért sokat brülöslik. Mi ritkán...","1","brülöslünk","[""brülösözünk"",""brülöslünk""]","brülöslünk","esp trial","4","true"
"html-button-response","40","528350","0.0-11.0-1.14","null","<p>A másik játékos ezt választotta: <b>brülöslünk</b>.</p><p>&#x2705;</p><p>A te válaszod és a másik játékos válasza <b>megegyeznek</b>.</p>","null","","","","feedback trial","",""
"html-button-response-esp","41","545552","0.0-11.0-0.15","16686","János imád prélemezni, ezért sokat prélemlik. Ők ritkán...","0","prélemlenek","[""prélemlenek"",""prélemeznek""]","prélemlenek","esp trial","4","true"
"html-button-response","42","549077","0.0-11.0-1.15","null","<p>A másik játékos ezt választotta: <b>prélemlenek</b>.</p><p>&#x2705;</p><p>A te válaszod és a másik játékos válasza <b>megegyeznek</b>.</p>","null","","","","feedback trial","",""
"html-button-response-esp","43","563392","0.0-11.0-0.16","13798","János imád pragányozni, ezért sokat pragánylik. Ti ritkán...","1","pragányoztok","[""pragánylotok"",""pragányoztok""]","pragánylotok","esp trial","4","false"
"html-button-response","44","566912","0.0-11.0-1.16","null","<p>A másik játékos ezt választotta: <b>pragánylotok</b>.</p><p>&#10060;</p><p>A válaszaitok <b>nem</b> egyeznek meg.</p>","null","","","","feedback trial","",""
"html-button-response-esp","45","575320","0.0-11.0-0.17","7569","János imád sprűrözni, ezért sokat sprűrlik. Ők ritkán...","0","sprűröznek","[""sprűröznek"",""sprűrlenek""]","sprűrlenek","esp trial","4","false"
"html-button-response","46","578835","0.0-11.0-1.17","null","<p>A másik játékos ezt választotta: <b>sprűrlenek</b>.</p><p>&#10060;</p><p>A válaszaitok <b>nem</b> egyeznek meg.</p>","null","","","","feedback trial","",""
"html-button-response-esp","47","590240","0.0-11.0-0.18","10888","János imád dilakozni, ezért sokat dilaklik. Ti ritkán...","0","dilakoztok","[""dilakoztok"",""dilaklotok""]","dilaklotok","esp trial","4","false"
"html-button-response","48","593765","0.0-11.0-1.18","null","<p>A másik játékos ezt választotta: <b>dilaklotok</b>.</p><p>&#10060;</p><p>A válaszaitok <b>nem</b> egyeznek meg.</p>","null","","","","feedback trial","",""
"html-button-response-esp","49","602182","0.0-11.0-0.19","7422","János imád drűrözni, ezért sokat drűrzik. Ők ritkán...","1","drűröznek","[""drűrzenek"",""drűröznek""]","drűrzenek","esp trial","4","false"
"html-button-response","50","605711","0.0-11.0-1.19","null","<p>A másik játékos ezt választotta: <b>drűrzenek</b>.</p><p>&#10060;</p><p>A válaszaitok <b>nem</b> egyeznek meg.</p>","null","","","","feedback trial","",""
"html-button-response-esp","51","624586","0.0-11.0-0.20","18371","János imád lájozni, ezért sokat lájzik. Ti ritkán...","0","lájoztok","[""lájoztok"",""lájzotok""]","lájoztok","esp trial","4","true"
"html-button-response","52","628102","0.0-11.0-1.20","null","<p>A másik játékos ezt választotta: <b>lájoztok</b>.</p><p>&#x2705;</p><p>A te válaszod és a másik játékos válasza <b>megegyeznek</b>.</p>","null","","","","feedback trial","",""
"html-button-response-esp","53","636504","0.0-11.0-0.21","7681","János imád pilégedni, ezért sokat pilégszik. Ők ritkán...","0","pilégednek","[""pilégednek"",""pilégszenek""]","pilégednek","esp trial","4","true"
"html-button-response","54","640016","0.0-11.0-1.21","null","<p>A másik játékos ezt választotta: <b>pilégednek</b>.</p><p>&#x2705;</p><p>A te válaszod és a másik játékos válasza <b>megegyeznek</b>.</p>","null","","","","feedback trial","",""
"html-button-response-esp","55","648420","0.0-11.0-0.22","5432","János imád dabozni, ezért sokat dabzik. Ti ritkán...","1","daboztok","[""dabzotok"",""daboztok""]","dabzotok","esp trial","4","false"
"html-button-response","56","651929","0.0-11.0-1.22","null","<p>A másik játékos ezt választotta: <b>dabzotok</b>.</p><p>&#10060;</p><p>A válaszaitok <b>nem</b> egyeznek meg.</p>","null","","","","feedback trial","",""
"html-button-response-esp","57","660967","0.0-11.0-0.23","8534","János imád dirozni, ezért sokat dirlik. Ti ritkán...","0","diroztok","[""diroztok"",""dirlotok""]","dirlotok","esp trial","4","false"
"html-button-response","58","664479","0.0-11.0-1.23","null","<p>A másik játékos ezt választotta: <b>dirlotok</b>.</p><p>&#10060;</p><p>A válaszaitok <b>nem</b> egyeznek meg.</p>","null","","","","feedback trial","",""
"html-button-response-esp","59","674039","0.0-11.0-0.24","9050","János imád fröjözni, ezért sokat fröjzik. Ti ritkán...","1","fröjzötök","[""fröjöztök"",""fröjzötök""]","fröjzötök","esp trial","4","true"
"html-button-response","60","677550","0.0-11.0-1.24","null","<p>A másik játékos ezt választotta: <b>fröjzötök</b>.</p><p>&#x2705;</p><p>A te válaszod és a másik játékos válasza <b>megegyeznek</b>.</p>","null","","","","feedback trial","",""
"html-button-response-esp","61","690911","0.0-11.0-0.25","12852","János imád gyihegezni, ezért sokat gyihegzik. Ti ritkán...","0","gyihegeztek","[""gyihegeztek"",""gyihegzetek""]","gyihegzetek","esp trial","4","false"
"html-button-response","62","694438","0.0-11.0-1.25","null","<p>A másik játékos ezt választotta: <b>gyihegzetek</b>.</p><p>&#10060;</p><p>A válaszaitok <b>nem</b> egyeznek meg.</p>","null","","","","feedback trial","",""
"html-button-response-esp","63","708495","0.0-11.0-0.26","13541","János imád trikozni, ezért sokat triklik. Ti ritkán...","1","triklotok","[""trikoztok"",""triklotok""]","trikoztok","esp trial","4","false"
"html-button-response","64","712012","0.0-11.0-1.26","null","<p>A másik játékos ezt választotta: <b>trikoztok</b>.</p><p>&#10060;</p><p>A válaszaitok <b>nem</b> egyeznek meg.</p>","null","","","","feedback trial","",""
"html-button-response-esp","65","720413","0.0-11.0-0.27","7732","János imád molodni, ezért sokat molszik. Ti ritkán...","1","molszotok","[""molodtok"",""molszotok""]","molodtok","esp trial","4","false"
"html-button-response","66","723943","0.0-11.0-1.27","null","<p>A másik játékos ezt választotta: <b>molodtok</b>.</p><p>&#10060;</p><p>A válaszaitok <b>nem</b> egyeznek meg.</p>","null","","","","feedback trial","",""
"html-button-response-esp","67","735806","0.0-11.0-0.28","11360","János imád flemezni, ezért sokat flemlik. Mi ritkán...","0","flemlünk","[""flemlünk"",""flemezünk""]","flemlünk","esp trial","4","true"
"html-button-response","68","739323","0.0-11.0-1.28","null","<p>A másik játékos ezt választotta: <b>flemlünk</b>.</p><p>&#x2705;</p><p>A te válaszod és a másik játékos válasza <b>megegyeznek</b>.</p>","null","","","","feedback trial","",""
"html-button-response-esp","69","747719","0.0-11.0-0.29","5292","János imád csubozni, ezért sokat csubzik. Mi ritkán...","0","csubozunk","[""csubozunk"",""csubzunk""]","csubozunk","esp trial","4","true"
"html-button-response","70","751233","0.0-11.0-1.29","null","<p>A másik játékos ezt választotta: <b>csubozunk</b>.</p><p>&#x2705;</p><p>A te válaszod és a másik játékos válasza <b>megegyeznek</b>.</p>","null","","","","feedback trial","",""
"html-button-response-esp","71","761222","0.0-11.0-0.30","9482","János imád frálapodni, ezért sokat frálapszik. Ti ritkán...","0","frálapszotok","[""frálapszotok"",""frálapodtok""]","frálapodtok","esp trial","4","false"
"html-button-response","72","764745","0.0-11.0-1.30","null","<p>A másik játékos ezt választotta: <b>frálapodtok</b>.</p><p>&#10060;</p><p>A válaszaitok <b>nem</b> egyeznek meg.</p>","null","","","","feedback trial","",""
"html-button-response-esp","73","777526","0.0-11.0-0.31","12274","János imád spirágozni, ezért sokat spiráglik. Ti ritkán...","1","spirágoztok","[""spiráglotok"",""spirágoztok""]","spiráglotok","esp trial","4","false"
"html-button-response","74","781049","0.0-11.0-1.31","null","<p>A másik játékos ezt választotta: <b>spiráglotok</b>.</p><p>&#10060;</p><p>A válaszaitok <b>nem</b> egyeznek meg.</p>","null","","","","feedback trial","",""
"html-button-response-esp","75","790544","0.0-11.0-0.32","8978","János imád spiharozni, ezért sokat spiharzik. Ti ritkán...","0","spiharoztok","[""spiharoztok"",""spiharzotok""]","spiharzotok","esp trial","4","false"
"html-button-response","76","794060","0.0-11.0-1.32","null","<p>A másik játékos ezt választotta: <b>spiharzotok</b>.</p><p>&#10060;</p><p>A válaszaitok <b>nem</b> egyeznek meg.</p>","null","","","","feedback trial","",""
"html-button-response-esp","77","802459","0.0-11.0-0.33","7036","János imád mülőrözni, ezért sokat mülőrzik. Mi ritkán...","0","mülőrözünk","[""mülőrözünk"",""mülőrzünk""]","mülőrzünk","esp trial","4","false"
"html-button-response","78","805990","0.0-11.0-1.33","null","<p>A másik játékos ezt választotta: <b>mülőrzünk</b>.</p><p>&#10060;</p><p>A válaszaitok <b>nem</b> egyeznek meg.</p>","null","","","","feedback trial","",""
"html-button-response-esp","79","814390","0.0-11.0-0.34","6090","János imád trugozni, ezért sokat trugzik. Ők ritkán...","0","trugoznak","[""trugoznak"",""trugzanak""]","trugzanak","esp trial","4","false"
"html-button-response","80","817916","0.0-11.0-1.34","null","<p>A másik játékos ezt választotta: <b>trugzanak</b>.</p><p>&#10060;</p><p>A válaszaitok <b>nem</b> egyeznek meg.</p>","null","","","","feedback trial","",""
"html-button-response-esp","81","826321","0.0-11.0-0.35","7760","János imád posozni, ezért sokat poslik. Ti ritkán...","1","posoztok","[""poslotok"",""posoztok""]","posoztok","esp trial","4","true"
"html-button-response","82","829853","0.0-11.0-1.35","null","<p>A másik játékos ezt választotta: <b>posoztok</b>.</p><p>&#x2705;</p><p>A te válaszod és a másik játékos válasza <b>megegyeznek</b>.</p>","null","","","","feedback trial","",""
"html-button-response-esp","83","847133","0.0-11.0-0.36","16765","János imád mágamozni, ezért sokat mágamlik. Mi ritkán...","0","mágamlunk","[""mágamlunk"",""mágamozunk""]","mágamozunk","esp trial","4","false"
"html-button-response","84","850662","0.0-11.0-1.36","null","<p>A másik játékos ezt választotta: <b>mágamozunk</b>.</p><p>&#10060;</p><p>A válaszaitok <b>nem</b> egyeznek meg.</p>","null","","","","feedback trial","",""
"html-button-response-esp","85","887797","0.0-11.0-0.37","36630","János imád püzözni, ezért sokat püzlik. Ti ritkán...","1","püzöztök","[""püzlötök"",""püzöztök""]","püzlötök","esp trial","4","false"
"html-button-response","86","891309","0.0-11.0-1.37","null","<p>A másik játékos ezt választotta: <b>püzlötök</b>.</p><p>&#10060;</p><p>A válaszaitok <b>nem</b> egyeznek meg.</p>","null","","","","feedback trial","",""
"html-button-response-esp","87","909493","0.0-11.0-0.38","17666","János imád sprozozni, ezért sokat sprozlik. Ők ritkán...","0","sprozlanak","[""sprozlanak"",""sprozoznak""]","sprozlanak","esp trial","4","true"
"html-button-response","88","913014","0.0-11.0-1.38","null","<p>A másik játékos ezt választotta: <b>sprozlanak</b>.</p><p>&#x2705;</p><p>A te válaszod és a másik játékos válasza <b>megegyeznek</b>.</p>","null","","","","feedback trial","",""
"html-button-response-esp","89","925941","0.0-11.0-0.39","12420","János imád trivakodni, ezért sokat trivakszik. Mi ritkán...","1","trivakszunk","[""trivakodunk"",""trivakszunk""]","trivakszunk","esp trial","4","true"
"html-button-response","90","929463","0.0-11.0-1.39","null","<p>A másik játékos ezt választotta: <b>trivakszunk</b>.</p><p>&#x2705;</p><p>A te válaszod és a másik játékos válasza <b>megegyeznek</b>.</p>","null","","","","feedback trial","",""
"html-button-response-esp","91","956958","0.0-11.0-0.40","26991","János imád frakozni, ezért sokat fraklik. Mi ritkán...","1","frakozunk","[""fraklunk"",""frakozunk""]","fraklunk","esp trial","4","false"
"html-button-response","92","960473","0.0-11.0-1.40","null","<p>A másik játékos ezt választotta: <b>fraklunk</b>.</p><p>&#10060;</p><p>A válaszaitok <b>nem</b> egyeznek meg.</p>","null","","","","feedback trial","",""
"html-button-response-esp","93","968876","0.0-11.0-0.41","5741","János imád brözözni, ezért sokat brözlik. Ti ritkán...","1","brözlötök","[""brözöztök"",""brözlötök""]","brözlötök","esp trial","4","true"
"html-button-response","94","972407","0.0-11.0-1.41","null","<p>A másik játékos ezt választotta: <b>brözlötök</b>.</p><p>&#x2705;</p><p>A te válaszod és a másik játékos válasza <b>megegyeznek</b>.</p>","null","","","","feedback trial","",""
"html-button-response-esp","95","980805","0.0-11.0-0.42","2912","János imád frálasozni, ezért sokat frálaslik. Ők ritkán...","0","frálasoznak","[""frálasoznak"",""frálaslanak""]","frálasoznak","esp trial","4","true"
"html-button-response","96","984338","0.0-11.0-1.42","null","<p>A másik játékos ezt választotta: <b>frálasoznak</b>.</p><p>&#x2705;</p><p>A te válaszod és a másik játékos válasza <b>megegyeznek</b>.</p>","null","","","","feedback trial","",""
"html-button-response-esp","97","996648","0.0-11.0-0.43","11793","János imád prögözni, ezért sokat prögzik. Ti ritkán...","1","prögöztök","[""prögzötök"",""prögöztök""]","prögzötök","esp trial","4","false"
"html-button-response","98","1000166","0.0-11.0-1.43","null","<p>A másik játékos ezt választotta: <b>prögzötök</b>.</p><p>&#10060;</p><p>A válaszaitok <b>nem</b> egyeznek meg.</p>","null","","","","feedback trial","",""
"html-button-response-esp","99","1012584","0.0-11.0-0.44","11916","János imád flöközni, ezért sokat flöklik. Ti ritkán...","0","flöklötök","[""flöklötök"",""flököztök""]","flöklötök","esp trial","4","true"
"html-button-response","100","1016108","0.0-11.0-1.44","null","<p>A másik játékos ezt választotta: <b>flöklötök</b>.</p><p>&#x2705;</p><p>A te válaszod és a másik játékos válasza <b>megegyeznek</b>.</p>","null","","","","feedback trial","",""
"html-button-response-esp","101","1027382","0.0-11.0-0.45","10770","János imád branyozni, ezért sokat branylik. Ők ritkán...","0","branyoznak","[""branyoznak"",""branylanak""]","branylanak","esp trial","4","false"
"html-button-response","102","1030907","0.0-11.0-1.45","null","<p>A másik játékos ezt választotta: <b>branylanak</b>.</p><p>&#10060;</p><p>A válaszaitok <b>nem</b> egyeznek meg.</p>","null","","","","feedback trial","",""
"html-button-response-esp","103","1041350","0.0-11.0-0.46","9926","János imád flüröközni, ezért sokat flüröklik. Ti ritkán...","0","flürököztök","[""flürököztök"",""flüröklötök""]","flüröklötök","esp trial","4","false"
"html-button-response","104","1044865","0.0-11.0-1.46","null","<p>A másik játékos ezt választotta: <b>flüröklötök</b>.</p><p>&#10060;</p><p>A válaszaitok <b>nem</b> egyeznek meg.</p>","null","","","","feedback trial","",""
"html-button-response-esp","105","1060631","0.0-11.0-0.47","15259","János imád kűdözni, ezért sokat kűdlik. Ők ritkán...","0","kűdöznek","[""kűdöznek"",""kűdlenek""]","kűdöznek","esp trial","4","true"
"html-button-response","106","1064149","0.0-11.0-1.47","null","<p>A másik játékos ezt választotta: <b>kűdöznek</b>.</p><p>&#x2705;</p><p>A te válaszod és a másik játékos válasza <b>megegyeznek</b>.</p>","null","","","","feedback trial","",""
"html-button-response-esp","107","1076638","0.0-11.0-0.48","11972","János imád spibegezni, ezért sokat spibeglik. Mi ritkán...","0","spibeglünk","[""spibeglünk"",""spibegezünk""]","spibegezünk","esp trial","4","false"
"html-button-response","108","1080151","0.0-11.0-1.48","null","<p>A másik játékos ezt választotta: <b>spibegezünk</b>.</p><p>&#10060;</p><p>A válaszaitok <b>nem</b> egyeznek meg.</p>","null","","","","feedback trial","",""
"html-button-response-esp","109","1089268","0.0-11.0-0.49","8600","János imád köszözni, ezért sokat köszlik. Ti ritkán...","1","köszöztök","[""köszlötök"",""köszöztök""]","köszlötök","esp trial","4","false"
"html-button-response","110","1092790","0.0-11.0-1.49","null","<p>A másik játékos ezt választotta: <b>köszlötök</b>.</p><p>&#10060;</p><p>A válaszaitok <b>nem</b> egyeznek meg.</p>","null","","","","feedback trial","",""
"html-button-response-esp","111","1116558","0.0-11.0-0.50","23259","János imád nyivágozni, ezért sokat nyivágzik. Mi ritkán...","0","nyivágzunk","[""nyivágzunk"",""nyivágozunk""]","nyivágozunk","esp trial","4","false"
"html-button-response","112","1120091","0.0-11.0-1.50","null","<p>A másik játékos ezt választotta: <b>nyivágozunk</b>.</p><p>&#10060;</p><p>A válaszaitok <b>nem</b> egyeznek meg.</p>","null","","","","feedback trial","",""
"html-button-response-esp","113","1136644","0.0-11.0-0.51","16036","János imád drilarozni, ezért sokat drilarzik. Mi ritkán...","0","drilarzunk","[""drilarzunk"",""drilarozunk""]","drilarzunk","esp trial","4","true"
"html-button-response","114","1140165","0.0-11.0-1.51","null","<p>A másik játékos ezt választotta: <b>drilarzunk</b>.</p><p>&#x2705;</p><p>A te válaszod és a másik játékos válasza <b>megegyeznek</b>.</p>","null","","","","feedback trial","",""
"html-button-response-esp","115","1149553","0.0-11.0-0.52","8871","János imád dárakodni, ezért sokat dárakszik. Mi ritkán...","0","dárakszunk","[""dárakszunk"",""dárakodunk""]","dárakszunk","esp trial","4","true"
"html-button-response","116","1153079","0.0-11.0-1.52","null","<p>A másik játékos ezt választotta: <b>dárakszunk</b>.</p><p>&#x2705;</p><p>A te válaszod és a másik játékos válasza <b>megegyeznek</b>.</p>","null","","","","feedback trial","",""
"html-button-response-esp","117","1168577","0.0-11.0-0.53","14981","János imád bratározni, ezért sokat bratárzik. Ők ritkán...","0","bratárzanak","[""bratárzanak"",""bratároznak""]","bratárzanak","esp trial","4","true"
"html-button-response","118","1172102","0.0-11.0-1.53","null","<p>A másik játékos ezt választotta: <b>bratárzanak</b>.</p><p>&#x2705;</p><p>A te válaszod és a másik játékos válasza <b>megegyeznek</b>.</p>","null","","","","feedback trial","",""
"html-button-response","119","1184305","0.0-12.0","11697","<p>A közös játék most véget ért.</p><p>Mielőtt eláruljuk a végső pontszámodat, arra kérlek, játszd a szóválasztós játékot néhány percig egyedül is.</p><p>A feladatod ugyanaz lesz, választani két lehetőség közül.</p><p>Most viszont egyedül kell döntened, hogy te melyiket választanád.</p>","0","","","","","",""
"html-button-response-clever","120","1192273","0.0-13.0-0.0","7451","János imád spöközni, ezért sokat spöklik. Mi ritkán...","0","spöklünk","[""spöklünk"",""spöközünk""]","","posttest trial","8",""
"html-button-response-clever","121","1220267","0.0-13.0-0.1","27487","János imád lumozni, ezért sokat lumlik. Ti ritkán...","0","lumoztok","[""lumoztok"",""lumlotok""]","","posttest trial","8",""
"html-button-response-clever","122","1250435","0.0-13.0-0.2","29662","János imád tágarozni, ezért sokat tágarzik. Mi ritkán...","1","tágarzunk","[""tágarozunk"",""tágarzunk""]","","posttest trial","8",""
"html-button-response-clever","123","1261230","0.0-13.0-0.3","10279","János imád prilepedni, ezért sokat prilepszik. Mi ritkán...","0","prilepszünk","[""prilepszünk"",""prilepedünk""]","","posttest trial","8",""
"html-button-response-clever","124","1270734","0.0-13.0-0.4","8998","János imád frihegezni, ezért sokat friheglik. Mi ritkán...","1","friheglünk","[""frihegezünk"",""friheglünk""]","","posttest trial","8",""
"html-button-response-clever","125","1284830","0.0-13.0-0.5","13585","János imád kluzozni, ezért sokat kluzlik. Ti ritkán...","1","kluzoztok","[""kluzlotok"",""kluzoztok""]","","posttest trial","8",""
"html-button-response-clever","126","1295029","0.0-13.0-0.6","9687","János imád livényezni, ezért sokat livénylik. Mi ritkán...","0","livényezünk","[""livényezünk"",""livénylünk""]","","posttest trial","8",""
"html-button-response-clever","127","1301621","0.0-13.0-0.7","6083","János imád tűgözni, ezért sokat tűgzik. Ti ritkán...","0","tűgöztök","[""tűgöztök"",""tűgzötök""]","","posttest trial","8",""
"html-button-response-clever","128","1325823","0.0-13.0-0.8","23684","János imád flubokozni, ezért sokat fluboklik. Ti ritkán...","1","flubokoztok","[""fluboklotok"",""flubokoztok""]","","posttest trial","8",""
"html-button-response-clever","129","1337967","0.0-13.0-0.9","11634","János imád hákodni, ezért sokat hákszik. Ők ritkán...","0","hákszanak","[""hákszanak"",""hákodnak""]","","posttest trial","8",""
"html-button-response-clever","130","1350783","0.0-13.0-0.10","12303","János imád frésezni, ezért sokat fréslik. Mi ritkán...","1","frésezünk","[""fréslünk"",""frésezünk""]","","posttest trial","8",""
"html-button-response-clever","131","1356167","0.0-13.0-0.11","4875","János imád drivegezni, ezért sokat drivegzik. Ti ritkán...","1","drivegeztek","[""drivegzetek"",""drivegeztek""]","","posttest trial","8",""
"html-button-response-clever","132","1360599","0.0-13.0-0.12","3925","János imád dirányozni, ezért sokat diránylik. Ők ritkán...","0","diránylanak","[""diránylanak"",""dirányoznak""]","","posttest trial","8",""
"html-button-response-clever","133","1365423","0.0-13.0-0.13","4316","János imád sprimozni, ezért sokat sprimlik. Mi ritkán...","0","sprimozunk","[""sprimozunk"",""sprimlunk""]","","posttest trial","8",""
"html-button-response-clever","134","1372415","0.0-13.0-0.14","6476","János imád galározni, ezért sokat galárzik. Ők ritkán...","1","galároznak","[""galárzanak"",""galároznak""]","","posttest trial","8",""
"html-button-response-clever","135","1376535","0.0-13.0-0.15","3615","János imád gibemezni, ezért sokat gibemlik. Mi ritkán...","0","gibemezünk","[""gibemezünk"",""gibemlünk""]","","posttest trial","8",""
"html-button-response-clever","136","1388609","0.0-13.0-0.16","11575","János imád filányozni, ezért sokat filánylik. Mi ritkán...","0","filánylunk","[""filánylunk"",""filányozunk""]","","posttest trial","8",""
"html-button-response-clever","137","1400968","0.0-13.0-0.17","11855","János imád pekedni, ezért sokat pekszik. Mi ritkán...","0","pekedünk","[""pekedünk"",""pekszünk""]","","posttest trial","8",""
"html-button-response-clever","138","1404168","0.0-13.0-0.18","2696","János imád spalározni, ezért sokat spalárzik. Ők ritkán...","0","spalároznak","[""spalároznak"",""spalárzanak""]","","posttest trial","8",""
"html-button-response-clever","139","1413120","0.0-13.0-0.19","8448","János imád sponyozni, ezért sokat sponylik. Ők ritkán...","1","sponyoznak","[""sponylanak"",""sponyoznak""]","","posttest trial","8",""
"html-button-response-clever","140","1424466","0.0-13.0-0.20","10829","János imád drojozni, ezért sokat drojzik. Mi ritkán...","1","drojzunk","[""drojozunk"",""drojzunk""]","","posttest trial","8",""
"html-button-response-clever","141","1429152","0.0-13.0-0.21","4183","János imád pehégedni, ezért sokat pehégszik. Ti ritkán...","0","pehégszetek","[""pehégszetek"",""pehégedtek""]","","posttest trial","8",""
"html-button-response-clever","142","1432600","0.0-13.0-0.22","2935","János imád pörözni, ezért sokat pörzik. Ti ritkán...","0","pöröztök","[""pöröztök"",""pörzötök""]","","posttest trial","8",""
"html-button-response-clever","143","1438712","0.0-13.0-0.23","5598","János imád bregezni, ezért sokat bregzik. Mi ritkán...","0","bregzünk","[""bregzünk"",""bregezünk""]","","posttest trial","8",""
"html-button-response-clever","144","1441773","0.0-13.0-0.24","2552","János imád trűnyözni, ezért sokat trűnylik. Ők ritkán...","0","trűnyöznek","[""trűnyöznek"",""trűnylenek""]","","posttest trial","8",""
"html-button-response-clever","145","1445957","0.0-13.0-0.25","3673","János imád tribejezni, ezért sokat tribejlik. Ti ritkán...","1","tribejletek","[""tribejeztek"",""tribejletek""]","","posttest trial","8",""
"html-button-response-clever","146","1452061","0.0-13.0-0.26","5595","János imád sprigozni, ezért sokat sprigzik. Ti ritkán...","0","sprigoztok","[""sprigoztok"",""sprigzotok""]","","posttest trial","8",""
"html-button-response-clever","147","1457277","0.0-13.0-0.27","4713","János imád míjozni, ezért sokat míjzik. Mi ritkán...","0","míjzunk","[""míjzunk"",""míjozunk""]","","posttest trial","8",""
"html-button-response-clever","148","1464157","0.0-13.0-0.28","6378","János imád mihágozni, ezért sokat mihágzik. Ti ritkán...","1","mihágoztok","[""mihágzotok"",""mihágoztok""]","","posttest trial","8",""
"html-button-response-clever","149","1476141","0.0-13.0-0.29","11480","János imád trírozni, ezért sokat trírzik. Mi ritkán...","1","trírzunk","[""trírozunk"",""trírzunk""]","","posttest trial","8",""
"html-button-response-clever","150","1480613","0.0-13.0-0.30","3968","János imád brivágozni, ezért sokat briváglik. Ők ritkán...","0","brivágoznak","[""brivágoznak"",""briváglanak""]","","posttest trial","8",""
"html-button-response-clever","151","1483621","0.0-13.0-0.31","2498","János imád gyivepedni, ezért sokat gyivepszik. Ők ritkán...","0","gyivepszenek","[""gyivepszenek"",""gyivepednek""]","","posttest trial","8",""
"html-button-response-clever","152","1485229","0.0-13.0-0.32","1102","János imád küsözni, ezért sokat küslik. Mi ritkán...","0","küslünk","[""küslünk"",""küsözünk""]","","posttest trial","8",""
"html-button-response-clever","153","1487101","0.0-13.0-0.33","1362","János imád brüszözni, ezért sokat brüszlik. Ti ritkán...","1","brüszöztök","[""brüszlötök"",""brüszöztök""]","","posttest trial","8",""
"html-button-response-clever","154","1491533","0.0-13.0-0.34","3928","János imád spibamozni, ezért sokat spibamlik. Ők ritkán...","1","spibamoznak","[""spibamlanak"",""spibamoznak""]","","posttest trial","8",""
"html-button-response-clever","155","1494053","0.0-13.0-0.35","2015","János imád brivepedni, ezért sokat brivepszik. Mi ritkán...","0","brivepedünk","[""brivepedünk"",""brivepszünk""]","","posttest trial","8",""
"html-button-response-clever","156","1501457","0.0-13.0-0.36","6903","János imád brálamozni, ezért sokat brálamlik. Ők ritkán...","1","brálamlanak","[""brálamoznak"",""brálamlanak""]","","posttest trial","8",""
"html-button-response-clever","157","1504921","0.0-13.0-0.37","2958","János imád vobozni, ezért sokat vobzik. Ti ritkán...","1","vobzotok","[""voboztok"",""vobzotok""]","","posttest trial","8",""
"html-button-response-clever","158","1514177","0.0-13.0-0.38","8747","János imád sztritozni, ezért sokat sztritlik. Ők ritkán...","0","sztritoznak","[""sztritoznak"",""sztritlanak""]","","posttest trial","8",""
"html-button-response-clever","159","1518417","0.0-13.0-0.39","3735","János imád frivamozni, ezért sokat frivamlik. Mi ritkán...","0","frivamlunk","[""frivamlunk"",""frivamozunk""]","","posttest trial","8",""
"html-button-response-clever","160","1523329","0.0-13.0-0.40","4403","János imád riványozni, ezért sokat riványlik. Ti ritkán...","0","riványoztok","[""riványoztok"",""riványlotok""]","","posttest trial","8",""
"html-button-response-clever","161","1525057","0.0-13.0-0.41","1215","János imád tibarozni, ezért sokat tibarzik. Ők ritkán...","0","tibarzanak","[""tibarzanak"",""tibaroznak""]","","posttest trial","8",""
"html-button-response-clever","162","1528801","0.0-13.0-0.42","3239","János imád sztrajozni, ezért sokat sztrajlik. Ők ritkán...","1","sztrajoznak","[""sztrajlanak"",""sztrajoznak""]","","posttest trial","8",""
"html-button-response-clever","163","1534673","0.0-13.0-0.43","5366","János imád fröjözni, ezért sokat fröjlik. Mi ritkán...","0","fröjözünk","[""fröjözünk"",""fröjlünk""]","","posttest trial","8",""
"html-button-response-clever","164","1539761","0.0-13.0-0.44","4572","János imád brilegezni, ezért sokat brilegzik. Mi ritkán...","0","brilegzünk","[""brilegzünk"",""brilegezünk""]","","posttest trial","8",""
"html-button-response-clever","165","1549953","0.0-13.0-0.45","9682","János imád gatágozni, ezért sokat gatáglik. Mi ritkán...","0","gatágozunk","[""gatágozunk"",""gatáglunk""]","","posttest trial","8",""
"html-button-response-clever","166","1554713","0.0-13.0-0.46","4245","János imád nágapodni, ezért sokat nágapszik. Ők ritkán...","0","nágapszanak","[""nágapszanak"",""nágapodnak""]","","posttest trial","8",""
"html-button-response-clever","167","1556833","0.0-13.0-0.47","1616","János imád klarágozni, ezért sokat klarágzik. Ti ritkán...","1","klarágzotok","[""klarágoztok"",""klarágzotok""]","","posttest trial","8",""
"html-button-response-clever","168","1559185","0.0-13.0-0.48","1848","János imád brározni, ezért sokat brárlik. Ők ritkán...","0","brárlanak","[""brárlanak"",""brároznak""]","","posttest trial","8",""
"html-button-response-clever","169","1564111","0.0-13.0-0.49","4414","János imád mísozni, ezért sokat míslik. Mi ritkán...","0","mísozunk","[""mísozunk"",""míslunk""]","","posttest trial","8",""
"html-button-response-clever","170","1568376","0.0-13.0-0.50","3759","János imád flézezni, ezért sokat flézlik. Ti ritkán...","1","flézeztek","[""flézletek"",""flézeztek""]","","posttest trial","8",""
"html-button-response-clever","171","1574247","0.0-13.0-0.51","5369","János imád prazozni, ezért sokat prazlik. Mi ritkán...","0","prazlunk","[""prazlunk"",""prazozunk""]","","posttest trial","8",""
"html-button-response-clever","172","1575463","0.0-13.0-0.52","703","János imád flivegezni, ezért sokat flivegzik. Ők ritkán...","0","flivegeznek","[""flivegeznek"",""flivegzenek""]","","posttest trial","8",""
"html-button-response-clever","173","1580503","0.0-13.0-0.53","4537","János imád lírozni, ezért sokat lírlik. Ők ritkán...","1","líroznak","[""lírlanak"",""líroznak""]","","posttest trial","8",""
"html-button-response","174","1600135","0.0-14.0","19126","<p> Vége a játéknak. A teljes pontszámod 24/54.</p><p> Szép munka! &#128526;&#128526;&#128526;</p><p>A Befejezés gomb megnyomása után bezárhatod a böngészőablakot.</p>","0","","","","","",""
"html-keyboard-response","175","1605651","0.0-15.0","null","<div class=""message"">
         <p>Egy kis türelmet kérünk, amíg elmentjük az adatokat...</p>
         </div>","null","","","","","",""
