"trial_type","trial_index","time_elapsed","internal_node_id","rt","stimulus","response","response_string","choices","esp_response","trial_kind","list_number","esp_match"
"pavlovia","0","795","0.0-0.0","","","","","","","","",""
"html-button-response","1","6336943","0.0-1.0","6338074","<p>Kedves Résztvevő! A Budapesti Műszaki és Gazdaságtudományi Egyetem Kognitív Tudományi Tanszékének kutatásában való részvételed kérjük. A kutatásban azt vizsgáljuk, hogy a magyar anyanyelvűek hogyan használnak bizonyos szóalakokat, és hogy milyen képük van arról, hogy mások hogyan használják, hogyan képzik a szavakat. Ez hozzásegít bennünket ahhoz, hogy jobban megértsük, hogyan dolgozza fel és tárolja a nyelvet az emberi agy, és hogyan működnek, hogyan változnak egy adott közösség nyelvi konvenciói.</p><p>A vizsgálat egy rövid számítógépes feladatból fog állni. A kutatásban való részvétel önkéntes, a részvételi szándék bármikor visszavonható. A résztvevők eredményeit név nélkül kezeljük, így nem beazonosíthatók az adatok feldolgozása során. Minden személyes adatot az EU általános adatvédelmi rendeletének (GDPR) megfelelően kezelünk és legfeljebb öt éven belül megsemmisítünk. A vizsgálat jellemzően húsz percet vesz igénybe.</p><p>Kutatásvezető:</p><p>Dr. Rácz Péter, tudományos munkatárs, BME KTT</p><p>e-mail: racz.peter.marton@ttk.bme.hu</p>","0","","","","","",""
"html-button-response","2","6395601","0.0-2.0","58149","<p>A kísérletben szavakat fogsz látni. Ezek között lesznek olyanok, amelyeket ismersz, de előfordulhatnak olyanok is, amelyeket nem ismersz, sőt, vannak köztük kitalált szavak is. Minden szónál látni fogsz toldalékolt alakokat. A te feladatod az lesz, hogy minden szóhoz kiválaszd azt a toldalékolt alakot, amely a te számodra ismerősebben, természetesebben hangzik. Rossz válaszok nincsenek, mert van olyan, hogy különböző embereknek más és más szó tűnik jobb választásnak. A választ úgy tudod majd kiválasztani, ha rákattintasz.</p><p>Ebben a szóválasztós játékban egy másik játékossal együtt veszel majd részt. A másik játékos is minden esetben azok közül a lehetőségek közül válogathat, mint te. Kettőtök feladata az, hogy ugyanazt a lehetőséget válasszátok minden esetben. Ahhoz, hogy ez sikerüljön, neked figyelned kell arra, hogy a másik játékos milyen válaszokat ad, és ennek alapján meg kell tippelned, hogyan választ legközelebb. Ha eltalálod, akkor pontot kapsz.</p>","0","","","","","",""
"html-button-response","3","6401085","0.0-3.0","4967","<p>Kérjük, olvasd el az alábbi nyilatkozatot, és amennyiben egyetértesz vele, nyomj a Beleegyezés gombra!</p><p>Kijelentem, hogy magyar anyanyelvű személyként önként veszek részt a BME KTT kísérletében. A kutatás céljával és folyamatával kapcsolatban elegendő tájékoztatást kaptam, lehetőségem volt kérdések feltételére, és esetleges kérdéseimre megfelelő válaszokat kaptam. A tájékoztatás alapján elegendő mennyiségű információ áll a rendelkezésemre, hogy eldönthessem, részt kívánok-e venni a kutatásban.</p><p>Tisztában vagyok vele, hogy részvételi szándékomat és adataimat bármikor, indoklás nélkül visszavonhatom.</p><p>Értem és tudomásul veszem, hogy a kutatás tudományos célokat szolgál, és az általam szolgáltatott adatokat a BME kizárólag kutatási célból használja fel. Tudomásul veszem, hogy eredményeimet a többi résztvevő eredményeivel együtt kezelik, így egyéni teljesítményemről visszajelzést, szakvéleményt nem kapok.</p><p>Megértettem, hogy adataim kezelését illetően a BME az EU általános adatvédelmi rendelete (GDPR), a hatályos adatvédelmi törvény és a nemzetközi kutatás-etikai alapelvek szerint jár el. Eredményeim anonim módon kerülnek feldolgozásra, és a kutatás résztvevői az azonosításomra alkalmas adataimat harmadik félnek nem szolgáltatják ki. Engedélyezem a BME számára a jelen kutatásban felvett adataim feldolgozását és tárolását, beleértve azok későbbi kutatásokhoz való felhasználását is. Személyes adataim kezelésével kapcsolatban tájékoztatást kérhetek a kutatás résztvevőitől, az adatkezelés ellen tiltakozhatok, kérhetem személyes adataim helyesbítését, törlését vagy zárolását, valamint jogorvoslatért a Nemzeti Adatvédelmi és Információszabadság Hatósághoz fordulhatok.</p><p>Kijelentem, hogy a kutatásban való részvételem körülményeiről részletes tájékoztatást kaptam, és a feltételeket elfogadom.</p>","0","","","","","",""
"survey-text","4","6436710","0.0-4.0","35110","","{""Q0"":""U6SI9I"",""Q1"":""férfi"",""Q2"":""2001"",""Q3"":""14""}","","","","","",""
"html-button-response","5","6554979","0.0-5.0","117758","<p>Ebben a játékban szavakat kell toldalékolni.</p> <p>Minden körben mutatunk majd egy példamondatot, amiben lesz egy szó.</p> <p>Alatta jön egy második mondat, ezt a mondatot neked kell majd befejezni, ugyanezzel a szóval.</p> <p>Nem biztos, hogy a szó eleve ismerős lesz számodra!</p> <p>Minden mondathoz adunk két lehetőséget, ezeket balra és jobbra látod majd.</p> <p>A játék kb. negyedóráig-húsz percig tart.</p>","0","","","","","",""
"html-button-response","6","6634243","0.0-6.0","78749","<p>Nézzünk egy példát!</p> <p>A példamondat: ""János imád fláramolni, ezért sokat fláramlik. Mi ritkán...""</p><p>Neked ezt a mondatot kell befejezned: ""Ti ritkán...""</p><p>A lehetőségek pedig ezek:</p>","0","","","","","",""
"html-button-response","7","6928798","0.0-7.0","294035","<p>Nagyon jó.</p><p>Ezt a játékot nem egyedül fogod játszani, hanem egy másik játékossal.</p><p>Mielőtt továbblépünk, összekapcsolunk titeket egymással.</p><p>Ez igénybe vehet néhány másodpercet, amihez szíves türelmed kérjük.</p>","0","","","","","",""
"html-button-response","8","6934541","0.0-8.0","null","<p>Csatlakozás a másik játékoshoz...</p>","null","","","","","",""
"html-button-response","9","6937055","0.0-9.0","null","<p> Sikeres kapcsolódás!</p>","null","","","","","",""
"html-button-response","10","6947583","0.0-10.0","null","<p>A következőkben ketten játsszátok a szóválasztós játékot.</p><p>A feladatotok az lesz, hogy minden körben <b>ugyanazt</b> a szót válasszátok.</p><p>Minden ilyen egyező válaszért pontot kaptok.</p><p>Próbáld meg kitalálni, mit választ a másik játékos!</p><p>Bármikor választhatsz, a körnek akkor van vége, ha mindketten döntöttetek.</p><p>Sok sikert!</p>","null","","","","","",""
"html-button-response-esp","11","6960251","0.0-11.0-0.0","12154","János imád filányozni, ezért sokat filánylik. Mi ritkán...","0","filánylunk","[""filánylunk"",""filányozunk""]","filányozunk","esp trial","11","false"
"html-button-response","12","6963766","0.0-11.0-1.0","null","<p>A másik játékos ezt választotta: <b>filányozunk</b>.</p><p>&#10060;</p><p>A válaszaitok <b>nem</b> egyeznek meg.</p>","null","","","","feedback trial","",""
"html-button-response-esp","13","6975585","0.0-11.0-0.1","11305","János imád bregezni, ezért sokat bregzik. Mi ritkán...","1","bregezünk","[""bregzünk"",""bregezünk""]","bregzünk","esp trial","11","false"
"html-button-response","14","6979126","0.0-11.0-1.1","null","<p>A másik játékos ezt választotta: <b>bregzünk</b>.</p><p>&#10060;</p><p>A válaszaitok <b>nem</b> egyeznek meg.</p>","null","","","","feedback trial","",""
"html-button-response-esp","15","6986467","0.0-11.0-0.2","6826","János imád pörözni, ezért sokat pörzik. Ti ritkán...","0","pöröztök","[""pöröztök"",""pörzötök""]","pöröztök","esp trial","11","true"
"html-button-response","16","6989996","0.0-11.0-1.2","null","<p>A másik játékos ezt választotta: <b>pöröztök</b>.</p><p>&#x2705;</p><p>A te válaszod és a másik játékos válasza <b>megegyeznek</b>.</p>","null","","","","feedback trial","",""
"html-button-response-esp","17","7004579","0.0-11.0-0.3","14074","János imád hákodni, ezért sokat hákszik. Ők ritkán...","1","hákodnak","[""hákszanak"",""hákodnak""]","hákodnak","esp trial","11","true"
"html-button-response","18","7008097","0.0-11.0-1.3","null","<p>A másik játékos ezt választotta: <b>hákodnak</b>.</p><p>&#x2705;</p><p>A te válaszod és a másik játékos válasza <b>megegyeznek</b>.</p>","null","","","","feedback trial","",""
"html-button-response-esp","19","7022894","0.0-11.0-0.4","14283","János imád drojozni, ezért sokat drojzik. Mi ritkán...","1","drojozunk","[""drojzunk"",""drojozunk""]","drojozunk","esp trial","11","true"
"html-button-response","20","7026416","0.0-11.0-1.4","null","<p>A másik játékos ezt választotta: <b>drojozunk</b>.</p><p>&#x2705;</p><p>A te válaszod és a másik játékos válasza <b>megegyeznek</b>.</p>","null","","","","feedback trial","",""
"html-button-response-esp","21","7034735","0.0-11.0-0.5","7809","János imád tűgözni, ezért sokat tűgzik. Ti ritkán...","0","tűgöztök","[""tűgöztök"",""tűgzötök""]","tűgöztök","esp trial","11","true"
"html-button-response","22","7038244","0.0-11.0-1.5","null","<p>A másik játékos ezt választotta: <b>tűgöztök</b>.</p><p>&#x2705;</p><p>A te válaszod és a másik játékos válasza <b>megegyeznek</b>.</p>","null","","","","feedback trial","",""
"html-button-response-esp","23","7044650","0.0-11.0-0.6","5901","János imád sprigozni, ezért sokat sprigzik. Ti ritkán...","0","sprigoztok","[""sprigoztok"",""sprigzotok""]","sprigoztok","esp trial","11","true"
"html-button-response","24","7048178","0.0-11.0-1.6","null","<p>A másik játékos ezt választotta: <b>sprigoztok</b>.</p><p>&#x2705;</p><p>A te válaszod és a másik játékos válasza <b>megegyeznek</b>.</p>","null","","","","feedback trial","",""
"html-button-response-esp","25","7053880","0.0-11.0-0.7","5183","János imád drivegezni, ezért sokat drivegzik. Ti ritkán...","0","drivegeztek","[""drivegeztek"",""drivegzetek""]","drivegeztek","esp trial","11","true"
"html-button-response","26","7057402","0.0-11.0-1.7","null","<p>A másik játékos ezt választotta: <b>drivegeztek</b>.</p><p>&#x2705;</p><p>A te válaszod és a másik játékos válasza <b>megegyeznek</b>.</p>","null","","","","feedback trial","",""
"html-button-response-esp","27","7062825","0.0-11.0-0.8","3962","János imád brüszözni, ezért sokat brüszlik. Ti ritkán...","0","brüszöztök","[""brüszöztök"",""brüszlötök""]","brüszöztök","esp trial","11","true"
"html-button-response","28","7066338","0.0-11.0-1.8","null","<p>A másik játékos ezt választotta: <b>brüszöztök</b>.</p><p>&#x2705;</p><p>A te válaszod és a másik játékos válasza <b>megegyeznek</b>.</p>","null","","","","feedback trial","",""
"html-button-response-esp","29","7071763","0.0-11.0-0.9","3971","János imád galározni, ezért sokat galárzik. Ők ritkán...","0","galároznak","[""galároznak"",""galárzanak""]","galároznak","esp trial","11","true"
"html-button-response","30","7075285","0.0-11.0-1.9","null","<p>A másik játékos ezt választotta: <b>galároznak</b>.</p><p>&#x2705;</p><p>A te válaszod és a másik játékos válasza <b>megegyeznek</b>.</p>","null","","","","feedback trial","",""
"html-button-response-esp","31","7080694","0.0-11.0-0.10","4903","János imád klarágozni, ezért sokat klarágzik. Ti ritkán...","0","klarágoztok","[""klarágoztok"",""klarágzotok""]","klarágoztok","esp trial","11","true"
"html-button-response","32","7084214","0.0-11.0-1.10","null","<p>A másik játékos ezt választotta: <b>klarágoztok</b>.</p><p>&#x2705;</p><p>A te válaszod és a másik játékos válasza <b>megegyeznek</b>.</p>","null","","","","feedback trial","",""
"html-button-response-esp","33","7093472","0.0-11.0-0.11","8745","János imád sponyozni, ezért sokat sponylik. Ők ritkán...","1","sponyoznak","[""sponylanak"",""sponyoznak""]","sponylanak","esp trial","11","false"
"html-button-response","34","7097008","0.0-11.0-1.11","null","<p>A másik játékos ezt választotta: <b>sponylanak</b>.</p><p>&#10060;</p><p>A válaszaitok <b>nem</b> egyeznek meg.</p>","null","","","","feedback trial","",""
"html-button-response-esp","35","7106443","0.0-11.0-0.12","8924","János imád brivágozni, ezért sokat briváglik. Ők ritkán...","1","brivágoznak","[""briváglanak"",""brivágoznak""]","brivágoznak","esp trial","11","true"
"html-button-response","36","7109967","0.0-11.0-1.12","null","<p>A másik játékos ezt választotta: <b>brivágoznak</b>.</p><p>&#x2705;</p><p>A te válaszod és a másik játékos válasza <b>megegyeznek</b>.</p>","null","","","","feedback trial","",""
"html-button-response-esp","37","7119198","0.0-11.0-0.13","8708","János imád kluzozni, ezért sokat kluzlik. Ti ritkán...","1","kluzoztok","[""kluzlotok"",""kluzoztok""]","kluzoztok","esp trial","11","true"
"html-button-response","38","7122731","0.0-11.0-1.13","null","<p>A másik játékos ezt választotta: <b>kluzoztok</b>.</p><p>&#x2705;</p><p>A te válaszod és a másik játékos válasza <b>megegyeznek</b>.</p>","null","","","","feedback trial","",""
"html-button-response-esp","39","7129960","0.0-11.0-0.14","6719","János imád livényezni, ezért sokat livénylik. Mi ritkán...","1","livényezünk","[""livénylünk"",""livényezünk""]","livénylünk","esp trial","11","false"
"html-button-response","40","7133487","0.0-11.0-1.14","null","<p>A másik játékos ezt választotta: <b>livénylünk</b>.</p><p>&#10060;</p><p>A válaszaitok <b>nem</b> egyeznek meg.</p>","null","","","","feedback trial","",""
"html-button-response-esp","41","7150600","0.0-11.0-0.15","16597","János imád flivegezni, ezért sokat flivegzik. Ők ritkán...","0","flivegeznek","[""flivegeznek"",""flivegzenek""]","flivegeznek","esp trial","11","true"
"html-button-response","42","7154124","0.0-11.0-1.15","null","<p>A másik játékos ezt választotta: <b>flivegeznek</b>.</p><p>&#x2705;</p><p>A te válaszod és a másik játékos válasza <b>megegyeznek</b>.</p>","null","","","","feedback trial","",""
"html-button-response-esp","43","7163192","0.0-11.0-0.16","8553","János imád brálamozni, ezért sokat brálamlik. Ők ritkán...","0","brálamoznak","[""brálamoznak"",""brálamlanak""]","brálamlanak","esp trial","11","false"
"html-button-response","44","7166738","0.0-11.0-1.16","null","<p>A másik játékos ezt választotta: <b>brálamlanak</b>.</p><p>&#10060;</p><p>A válaszaitok <b>nem</b> egyeznek meg.</p>","null","","","","feedback trial","",""
"html-button-response-esp","45","7176351","0.0-11.0-0.17","9103","János imád mísozni, ezért sokat míslik. Mi ritkán...","0","mísozunk","[""mísozunk"",""míslunk""]","mísozunk","esp trial","11","true"
"html-button-response","46","7179873","0.0-11.0-1.17","null","<p>A másik játékos ezt választotta: <b>mísozunk</b>.</p><p>&#x2705;</p><p>A te válaszod és a másik játékos válasza <b>megegyeznek</b>.</p>","null","","","","feedback trial","",""
"html-button-response-esp","47","7192362","0.0-11.0-0.18","11968","János imád riványozni, ezért sokat riványlik. Ti ritkán...","0","riványlotok","[""riványlotok"",""riványoztok""]","riványoztok","esp trial","11","false"
"html-button-response","48","7195886","0.0-11.0-1.18","null","<p>A másik játékos ezt választotta: <b>riványoztok</b>.</p><p>&#10060;</p><p>A válaszaitok <b>nem</b> egyeznek meg.</p>","null","","","","feedback trial","",""
"html-button-response-esp","49","7202936","0.0-11.0-0.19","6546","János imád dirányozni, ezért sokat diránylik. Ők ritkán...","1","dirányoznak","[""diránylanak"",""dirányoznak""]","dirányoznak","esp trial","11","true"
"html-button-response","50","7206472","0.0-11.0-1.19","null","<p>A másik játékos ezt választotta: <b>dirányoznak</b>.</p><p>&#x2705;</p><p>A te válaszod és a másik játékos válasza <b>megegyeznek</b>.</p>","null","","","","feedback trial","",""
"html-button-response-esp","51","7217042","0.0-11.0-0.20","10047","János imád brilegezni, ezért sokat brilegzik. Mi ritkán...","1","brilegezünk","[""brilegzünk"",""brilegezünk""]","brilegezünk","esp trial","11","true"
"html-button-response","52","7220560","0.0-11.0-1.20","null","<p>A másik játékos ezt választotta: <b>brilegezünk</b>.</p><p>&#x2705;</p><p>A te válaszod és a másik játékos válasza <b>megegyeznek</b>.</p>","null","","","","feedback trial","",""
"html-button-response-esp","53","7242194","0.0-11.0-0.21","21118","János imád flézezni, ezért sokat flézlik. Ti ritkán...","1","flézeztek","[""flézletek"",""flézeztek""]","flézeztek","esp trial","11","true"
"html-button-response","54","7245717","0.0-11.0-1.21","null","<p>A másik játékos ezt választotta: <b>flézeztek</b>.</p><p>&#x2705;</p><p>A te válaszod és a másik játékos válasza <b>megegyeznek</b>.</p>","null","","","","feedback trial","",""
"html-button-response-esp","55","7257674","0.0-11.0-0.22","11443","János imád brivepedni, ezért sokat brivepszik. Mi ritkán...","1","brivepszünk","[""brivepedünk"",""brivepszünk""]","brivepszünk","esp trial","11","true"
"html-button-response","56","7261205","0.0-11.0-1.22","null","<p>A másik játékos ezt választotta: <b>brivepszünk</b>.</p><p>&#x2705;</p><p>A te válaszod és a másik játékos válasza <b>megegyeznek</b>.</p>","null","","","","feedback trial","",""
"html-button-response-esp","57","7270117","0.0-11.0-0.23","8398","János imád frivamozni, ezért sokat frivamlik. Mi ritkán...","0","frivamozunk","[""frivamozunk"",""frivamlunk""]","frivamlunk","esp trial","11","false"
"html-button-response","58","7273633","0.0-11.0-1.23","null","<p>A másik játékos ezt választotta: <b>frivamlunk</b>.</p><p>&#10060;</p><p>A válaszaitok <b>nem</b> egyeznek meg.</p>","null","","","","feedback trial","",""
"html-button-response-esp","59","7294400","0.0-11.0-0.24","20249","János imád nágapodni, ezért sokat nágapszik. Ők ritkán...","1","nágapodnak","[""nágapszanak"",""nágapodnak""]","nágapodnak","esp trial","11","true"
"html-button-response","60","7297928","0.0-11.0-1.24","null","<p>A másik játékos ezt választotta: <b>nágapodnak</b>.</p><p>&#x2705;</p><p>A te válaszod és a másik játékos válasza <b>megegyeznek</b>.</p>","null","","","","feedback trial","",""
"html-button-response-esp","61","7309804","0.0-11.0-0.25","11364","János imád fröjözni, ezért sokat fröjlik. Mi ritkán...","1","fröjözünk","[""fröjlünk"",""fröjözünk""]","fröjözünk","esp trial","11","true"
"html-button-response","62","7313342","0.0-11.0-1.25","null","<p>A másik játékos ezt választotta: <b>fröjözünk</b>.</p><p>&#x2705;</p><p>A te válaszod és a másik játékos válasza <b>megegyeznek</b>.</p>","null","","","","feedback trial","",""
"html-button-response-esp","63","7333706","0.0-11.0-0.26","19850","János imád spöközni, ezért sokat spöklik. Mi ritkán...","1","spöklünk","[""spöközünk"",""spöklünk""]","spöklünk","esp trial","11","true"
"html-button-response","64","7337232","0.0-11.0-1.26","null","<p>A másik játékos ezt választotta: <b>spöklünk</b>.</p><p>&#x2705;</p><p>A te válaszod és a másik játékos válasza <b>megegyeznek</b>.</p>","null","","","","feedback trial","",""
"html-button-response-esp","65","7343770","0.0-11.0-0.27","6018","János imád mihágozni, ezért sokat mihágzik. Ti ritkán...","0","mihágoztok","[""mihágoztok"",""mihágzotok""]","mihágoztok","esp trial","11","true"
"html-button-response","66","7347310","0.0-11.0-1.27","null","<p>A másik játékos ezt választotta: <b>mihágoztok</b>.</p><p>&#x2705;</p><p>A te válaszod és a másik játékos válasza <b>megegyeznek</b>.</p>","null","","","","feedback trial","",""
"html-button-response-esp","67","7386328","0.0-11.0-0.28","38510","János imád brározni, ezért sokat brárlik. Ők ritkán...","0","brároznak","[""brároznak"",""brárlanak""]","brároznak","esp trial","11","true"
"html-button-response","68","7389852","0.0-11.0-1.28","null","<p>A másik játékos ezt választotta: <b>brároznak</b>.</p><p>&#x2705;</p><p>A te válaszod és a másik játékos válasza <b>megegyeznek</b>.</p>","null","","","","feedback trial","",""
"html-button-response-esp","69","7404568","0.0-11.0-0.29","14203","János imád gatágozni, ezért sokat gatáglik. Mi ritkán...","1","gatágozunk","[""gatáglunk"",""gatágozunk""]","gatágozunk","esp trial","11","true"
"html-button-response","70","7408086","0.0-11.0-1.29","null","<p>A másik játékos ezt választotta: <b>gatágozunk</b>.</p><p>&#x2705;</p><p>A te válaszod és a másik játékos válasza <b>megegyeznek</b>.</p>","null","","","","feedback trial","",""
"html-button-response-esp","71","7413503","0.0-11.0-0.30","1537","János imád frésezni, ezért sokat fréslik. Mi ritkán...","0","frésezünk","[""frésezünk"",""fréslünk""]","fréslünk","esp trial","11","false"
"html-button-response","72","7417022","0.0-11.0-1.30","null","<p>A másik játékos ezt választotta: <b>fréslünk</b>.</p><p>&#10060;</p><p>A válaszaitok <b>nem</b> egyeznek meg.</p>","null","","","","feedback trial","",""
"html-button-response-esp","73","7422445","0.0-11.0-0.31","2175","János imád tágarozni, ezért sokat tágarzik. Mi ritkán...","1","tágarozunk","[""tágarzunk"",""tágarozunk""]","tágarozunk","esp trial","11","true"
"html-button-response","74","7425969","0.0-11.0-1.31","null","<p>A másik játékos ezt választotta: <b>tágarozunk</b>.</p><p>&#x2705;</p><p>A te válaszod és a másik játékos válasza <b>megegyeznek</b>.</p>","null","","","","feedback trial","",""
"html-button-response-esp","75","7431381","0.0-11.0-0.32","1946","János imád gibemezni, ezért sokat gibemlik. Mi ritkán...","0","gibemlünk","[""gibemlünk"",""gibemezünk""]","gibemlünk","esp trial","11","true"
"html-button-response","76","7434896","0.0-11.0-1.32","null","<p>A másik játékos ezt választotta: <b>gibemlünk</b>.</p><p>&#x2705;</p><p>A te válaszod és a másik játékos válasza <b>megegyeznek</b>.</p>","null","","","","feedback trial","",""
"html-button-response-esp","77","7443626","0.0-11.0-0.33","8223","János imád sztrajozni, ezért sokat sztrajlik. Ők ritkán...","1","sztrajoznak","[""sztrajlanak"",""sztrajoznak""]","sztrajlanak","esp trial","11","false"
"html-button-response","78","7447154","0.0-11.0-1.33","null","<p>A másik játékos ezt választotta: <b>sztrajlanak</b>.</p><p>&#10060;</p><p>A válaszaitok <b>nem</b> egyeznek meg.</p>","null","","","","feedback trial","",""
"html-button-response-esp","79","7453466","0.0-11.0-0.34","5790","János imád míjozni, ezért sokat míjzik. Mi ritkán...","1","míjozunk","[""míjzunk"",""míjozunk""]","míjozunk","esp trial","11","true"
"html-button-response","80","7456989","0.0-11.0-1.34","null","<p>A másik játékos ezt választotta: <b>míjozunk</b>.</p><p>&#x2705;</p><p>A te válaszod és a másik játékos válasza <b>megegyeznek</b>.</p>","null","","","","feedback trial","",""
"html-button-response-esp","81","7462637","0.0-11.0-0.35","5143","János imád sztritozni, ezért sokat sztritlik. Ők ritkán...","1","sztritlanak","[""sztritoznak"",""sztritlanak""]","sztritoznak","esp trial","11","false"
"html-button-response","82","7466160","0.0-11.0-1.35","null","<p>A másik játékos ezt választotta: <b>sztritoznak</b>.</p><p>&#10060;</p><p>A válaszaitok <b>nem</b> egyeznek meg.</p>","null","","","","feedback trial","",""
"html-button-response-esp","83","7471592","0.0-11.0-0.36","2232","János imád vobozni, ezért sokat vobzik. Ti ritkán...","0","voboztok","[""voboztok"",""vobzotok""]","voboztok","esp trial","11","true"
"html-button-response","84","7475113","0.0-11.0-1.36","null","<p>A másik játékos ezt választotta: <b>voboztok</b>.</p><p>&#x2705;</p><p>A te válaszod és a másik játékos válasza <b>megegyeznek</b>.</p>","null","","","","feedback trial","",""
"html-button-response-esp","85","7480531","0.0-11.0-0.37","1822","János imád frihegezni, ezért sokat friheglik. Mi ritkán...","0","friheglünk","[""friheglünk"",""frihegezünk""]","frihegezünk","esp trial","11","false"
"html-button-response","86","7484055","0.0-11.0-1.37","null","<p>A másik játékos ezt választotta: <b>frihegezünk</b>.</p><p>&#10060;</p><p>A válaszaitok <b>nem</b> egyeznek meg.</p>","null","","","","feedback trial","",""
"html-button-response-esp","87","7489485","0.0-11.0-0.38","1142","János imád tibarozni, ezért sokat tibarzik. Ők ritkán...","0","tibaroznak","[""tibaroznak"",""tibarzanak""]","tibaroznak","esp trial","11","true"
"html-button-response","88","7493013","0.0-11.0-1.38","null","<p>A másik játékos ezt választotta: <b>tibaroznak</b>.</p><p>&#x2705;</p><p>A te válaszod és a másik játékos válasza <b>megegyeznek</b>.</p>","null","","","","feedback trial","",""
"html-button-response-esp","89","7498422","0.0-11.0-0.39","2235","János imád lírozni, ezért sokat lírlik. Ők ritkán...","1","líroznak","[""lírlanak"",""líroznak""]","líroznak","esp trial","11","true"
"html-button-response","90","7501950","0.0-11.0-1.39","null","<p>A másik játékos ezt választotta: <b>líroznak</b>.</p><p>&#x2705;</p><p>A te válaszod és a másik játékos válasza <b>megegyeznek</b>.</p>","null","","","","feedback trial","",""
"html-button-response-esp","91","7507367","0.0-11.0-0.40","2615","János imád küsözni, ezért sokat küslik. Mi ritkán...","1","küsözünk","[""küslünk"",""küsözünk""]","küslünk","esp trial","11","false"
"html-button-response","92","7510895","0.0-11.0-1.40","null","<p>A másik játékos ezt választotta: <b>küslünk</b>.</p><p>&#10060;</p><p>A válaszaitok <b>nem</b> egyeznek meg.</p>","null","","","","feedback trial","",""
"html-button-response-esp","93","7516322","0.0-11.0-0.41","1482","János imád flubokozni, ezért sokat fluboklik. Ti ritkán...","1","flubokoztok","[""fluboklotok"",""flubokoztok""]","flubokoztok","esp trial","11","true"
"html-button-response","94","7519844","0.0-11.0-1.41","null","<p>A másik játékos ezt választotta: <b>flubokoztok</b>.</p><p>&#x2705;</p><p>A te válaszod és a másik játékos válasza <b>megegyeznek</b>.</p>","null","","","","feedback trial","",""
"html-button-response-esp","95","7525271","0.0-11.0-0.42","1376","János imád spalározni, ezért sokat spalárzik. Ők ritkán...","0","spalároznak","[""spalároznak"",""spalárzanak""]","spalároznak","esp trial","11","true"
"html-button-response","96","7528802","0.0-11.0-1.42","null","<p>A másik játékos ezt választotta: <b>spalároznak</b>.</p><p>&#x2705;</p><p>A te válaszod és a másik játékos válasza <b>megegyeznek</b>.</p>","null","","","","feedback trial","",""
"html-button-response-esp","97","7534213","0.0-11.0-0.43","3090","János imád pehégedni, ezért sokat pehégszik. Ti ritkán...","0","pehégedtek","[""pehégedtek"",""pehégszetek""]","pehégszetek","esp trial","11","false"
"html-button-response","98","7537732","0.0-11.0-1.43","null","<p>A másik játékos ezt választotta: <b>pehégszetek</b>.</p><p>&#10060;</p><p>A válaszaitok <b>nem</b> egyeznek meg.</p>","null","","","","feedback trial","",""
"html-button-response-esp","99","7543141","0.0-11.0-0.44","1472","János imád trírozni, ezért sokat trírzik. Mi ritkán...","1","trírozunk","[""trírzunk"",""trírozunk""]","trírozunk","esp trial","11","true"
"html-button-response","100","7546670","0.0-11.0-1.44","null","<p>A másik játékos ezt választotta: <b>trírozunk</b>.</p><p>&#x2705;</p><p>A te válaszod és a másik játékos válasza <b>megegyeznek</b>.</p>","null","","","","feedback trial","",""
"html-button-response-esp","101","7552091","0.0-11.0-0.45","1989","János imád spibamozni, ezért sokat spibamlik. Ők ritkán...","1","spibamoznak","[""spibamlanak"",""spibamoznak""]","spibamlanak","esp trial","11","false"
"html-button-response","102","7555614","0.0-11.0-1.45","null","<p>A másik játékos ezt választotta: <b>spibamlanak</b>.</p><p>&#10060;</p><p>A válaszaitok <b>nem</b> egyeznek meg.</p>","null","","","","feedback trial","",""
"html-button-response-esp","103","7561036","0.0-11.0-0.46","2612","János imád lumozni, ezért sokat lumlik. Ti ritkán...","1","lumlotok","[""lumoztok"",""lumlotok""]","lumoztok","esp trial","11","false"
"html-button-response","104","7564565","0.0-11.0-1.46","null","<p>A másik játékos ezt választotta: <b>lumoztok</b>.</p><p>&#10060;</p><p>A válaszaitok <b>nem</b> egyeznek meg.</p>","null","","","","feedback trial","",""
"html-button-response-esp","105","7569989","0.0-11.0-0.47","3705","János imád sprimozni, ezért sokat sprimlik. Mi ritkán...","0","sprimlunk","[""sprimlunk"",""sprimozunk""]","sprimozunk","esp trial","11","false"
"html-button-response","106","7573523","0.0-11.0-1.47","null","<p>A másik játékos ezt választotta: <b>sprimozunk</b>.</p><p>&#10060;</p><p>A válaszaitok <b>nem</b> egyeznek meg.</p>","null","","","","feedback trial","",""
"html-button-response-esp","107","7578954","0.0-11.0-0.48","2587","János imád trűnyözni, ezért sokat trűnylik. Ők ritkán...","0","trűnyöznek","[""trűnyöznek"",""trűnylenek""]","trűnyöznek","esp trial","11","true"
"html-button-response","108","7582482","0.0-11.0-1.48","null","<p>A másik játékos ezt választotta: <b>trűnyöznek</b>.</p><p>&#x2705;</p><p>A te válaszod és a másik játékos válasza <b>megegyeznek</b>.</p>","null","","","","feedback trial","",""
"html-button-response-esp","109","7592167","0.0-11.0-0.49","9164","János imád prazozni, ezért sokat prazlik. Mi ritkán...","0","prazlunk","[""prazlunk"",""prazozunk""]","prazozunk","esp trial","11","false"
"html-button-response","110","7595677","0.0-11.0-1.49","null","<p>A másik játékos ezt választotta: <b>prazozunk</b>.</p><p>&#10060;</p><p>A válaszaitok <b>nem</b> egyeznek meg.</p>","null","","","","feedback trial","",""
"html-button-response-esp","111","7601096","0.0-11.0-0.50","2370","János imád pekedni, ezért sokat pekszik. Mi ritkán...","1","pekedünk","[""pekszünk"",""pekedünk""]","pekszünk","esp trial","11","false"
"html-button-response","112","7604617","0.0-11.0-1.50","null","<p>A másik játékos ezt választotta: <b>pekszünk</b>.</p><p>&#10060;</p><p>A válaszaitok <b>nem</b> egyeznek meg.</p>","null","","","","feedback trial","",""
"html-button-response-esp","113","7610041","0.0-11.0-0.51","1335","János imád tribejezni, ezért sokat tribejlik. Ti ritkán...","0","tribejeztek","[""tribejeztek"",""tribejletek""]","tribejeztek","esp trial","11","true"
"html-button-response","114","7613557","0.0-11.0-1.51","null","<p>A másik játékos ezt választotta: <b>tribejeztek</b>.</p><p>&#x2705;</p><p>A te válaszod és a másik játékos válasza <b>megegyeznek</b>.</p>","null","","","","feedback trial","",""
"html-button-response-esp","115","7618989","0.0-11.0-0.52","1204","János imád prilepedni, ezért sokat prilepszik. Mi ritkán...","0","prilepedünk","[""prilepedünk"",""prilepszünk""]","prilepszünk","esp trial","11","false"
"html-button-response","116","7622515","0.0-11.0-1.52","null","<p>A másik játékos ezt választotta: <b>prilepszünk</b>.</p><p>&#10060;</p><p>A válaszaitok <b>nem</b> egyeznek meg.</p>","null","","","","feedback trial","",""
"html-button-response-esp","117","7627934","0.0-11.0-0.53","2725","János imád gyivepedni, ezért sokat gyivepszik. Ők ritkán...","1","gyivepednek","[""gyivepszenek"",""gyivepednek""]","gyivepednek","esp trial","11","true"
"html-button-response","118","7631452","0.0-11.0-1.53","null","<p>A másik játékos ezt választotta: <b>gyivepednek</b>.</p><p>&#x2705;</p><p>A te válaszod és a másik játékos válasza <b>megegyeznek</b>.</p>","null","","","","feedback trial","",""
"html-button-response","119","7641322","0.0-12.0","9359","<p>A közös játék most véget ért.</p><p>Mielőtt eláruljuk a végső pontszámodat, arra kérlek, játszd a szóválasztós játékot néhány percig egyedül is.</p><p>A feladatod ugyanaz lesz, választani két lehetőség közül.</p><p>Most viszont egyedül kell döntened, hogy te melyiket választanád.</p>","0","","","","","",""
"html-button-response-clever","120","7651795","0.0-13.0-0.0","9956","János imád nurokozni, ezért sokat nuroklik. Mi ritkán...","1","nurokozunk","[""nuroklunk"",""nurokozunk""]","","posttest trial","1",""
"html-button-response-clever","121","7658200","0.0-13.0-0.1","5884","János imád brürözni, ezért sokat brürzik. Ők ritkán...","0","brüröznek","[""brüröznek"",""brürzenek""]","","posttest trial","1",""
"html-button-response-clever","122","7660946","0.0-13.0-0.2","2234","János imád döjözni, ezért sokat döjlik. Ők ritkán...","0","döjöznek","[""döjöznek"",""döjlenek""]","","posttest trial","1",""
"html-button-response-clever","123","7665610","0.0-13.0-0.3","4147","János imád flerékedni, ezért sokat flerékszik. Mi ritkán...","1","flerékedünk","[""flerékszünk"",""flerékedünk""]","","posttest trial","1",""
"html-button-response-clever","124","7671387","0.0-13.0-0.4","5269","János imád dibágozni, ezért sokat dibáglik. Ti ritkán...","1","dibágoztok","[""dibáglotok"",""dibágoztok""]","","posttest trial","1",""
"html-button-response-clever","125","7674435","0.0-13.0-0.5","2540","János imád plibozni, ezért sokat plibzik. Ti ritkán...","0","pliboztok","[""pliboztok"",""plibzotok""]","","posttest trial","1",""
"html-button-response-clever","126","7681080","0.0-13.0-0.6","6136","János imád sprebezni, ezért sokat sprebzik. Ők ritkán...","1","sprebeznek","[""sprebzenek"",""sprebeznek""]","","posttest trial","1",""
"html-button-response-clever","127","7684880","0.0-13.0-0.7","3292","János imád géregezni, ezért sokat géreglik. Ti ritkán...","0","géregeztek","[""géregeztek"",""géregletek""]","","posttest trial","1",""
"html-button-response-clever","128","7687851","0.0-13.0-0.8","2458","János imád flugonyozni, ezért sokat flugonylik. Ők ritkán...","1","flugonyoznak","[""flugonylanak"",""flugonyoznak""]","","posttest trial","1",""
"html-button-response-clever","129","7690817","0.0-13.0-0.9","2459","János imád frinyozni, ezért sokat frinylik. Mi ritkán...","1","frinyozunk","[""frinylunk"",""frinyozunk""]","","posttest trial","1",""
"html-button-response-clever","130","7693721","0.0-13.0-0.10","2387","János imád jurozni, ezért sokat jurlik. Mi ritkán...","0","jurozunk","[""jurozunk"",""jurlunk""]","","posttest trial","1",""
"html-button-response-clever","131","7697196","0.0-13.0-0.11","2957","János imád trukodni, ezért sokat trukszik. Ti ritkán...","1","trukodtok","[""trukszotok"",""trukodtok""]","","posttest trial","1",""
"html-button-response-clever","132","7699323","0.0-13.0-0.12","1622","János imád nyizozni, ezért sokat nyizlik. Mi ritkán...","1","nyizozunk","[""nyizlunk"",""nyizozunk""]","","posttest trial","1",""
"html-button-response-clever","133","7701442","0.0-13.0-0.13","1617","János imád nivározni, ezért sokat nivárzik. Ti ritkán...","1","nivárzotok","[""nivároztok"",""nivárzotok""]","","posttest trial","1",""
"html-button-response-clever","134","7705486","0.0-13.0-0.14","3523","János imád bresezni, ezért sokat breslik. Ők ritkán...","0","breseznek","[""breseznek"",""breslenek""]","","posttest trial","1",""
"html-button-response-clever","135","7708760","0.0-13.0-0.15","2763","János imád ribegedni, ezért sokat ribegszik. Ti ritkán...","0","ribegedtek","[""ribegedtek"",""ribegszetek""]","","posttest trial","1",""
"html-button-response-clever","136","7711318","0.0-13.0-0.16","2055","János imád spuborozni, ezért sokat spuborzik. Ők ritkán...","0","spuboroznak","[""spuboroznak"",""spuborzanak""]","","posttest trial","1",""
"html-button-response-clever","137","7716600","0.0-13.0-0.17","4779","János imád tögözni, ezért sokat töglik. Ők ritkán...","1","tögöznek","[""töglenek"",""tögöznek""]","","posttest trial","1",""
"html-button-response-clever","138","7719538","0.0-13.0-0.18","2423","János imád dralágozni, ezért sokat dralágzik. Mi ritkán...","1","dralágozunk","[""dralágzunk"",""dralágozunk""]","","posttest trial","1",""
"html-button-response-clever","139","7721356","0.0-13.0-0.19","1311","János imád sűjözni, ezért sokat sűjlik. Mi ritkán...","1","sűjözünk","[""sűjlünk"",""sűjözünk""]","","posttest trial","1",""
"html-button-response-clever","140","7724010","0.0-13.0-0.20","2143","János imád hubonyozni, ezért sokat hubonylik. Ti ritkán...","0","hubonyoztok","[""hubonyoztok"",""hubonylotok""]","","posttest trial","1",""
"html-button-response-clever","141","7727366","0.0-13.0-0.21","2845","János imád nyülöközni, ezért sokat nyülöklik. Ők ritkán...","0","nyülököznek","[""nyülököznek"",""nyülöklenek""]","","posttest trial","1",""
"html-button-response-clever","142","7730196","0.0-13.0-0.22","2322","János imád prihegedni, ezért sokat prihegszik. Ők ritkán...","1","prihegednek","[""prihegszenek"",""prihegednek""]","","posttest trial","1",""
"html-button-response-clever","143","7733231","0.0-13.0-0.23","2528","János imád trálakozni, ezért sokat trálaklik. Ők ritkán...","0","trálakoznak","[""trálakoznak"",""trálaklanak""]","","posttest trial","1",""
"html-button-response-clever","144","7737212","0.0-13.0-0.24","3467","János imád flátozni, ezért sokat flátlik. Ti ritkán...","1","flátoztok","[""flátlotok"",""flátoztok""]","","posttest trial","1",""
"html-button-response-clever","145","7739944","0.0-13.0-0.25","2223","János imád klűmözni, ezért sokat klűmlik. Ti ritkán...","0","klűmöztök","[""klűmöztök"",""klűmlötök""]","","posttest trial","1",""
"html-button-response-clever","146","7742898","0.0-13.0-0.26","2432","János imád metégedni, ezért sokat metégszik. Ők ritkán...","0","metégednek","[""metégednek"",""metégszenek""]","","posttest trial","1",""
"html-button-response-clever","147","7746576","0.0-13.0-0.27","3161","János imád frélegezni, ezért sokat frélegzik. Mi ritkán...","0","frélegezünk","[""frélegezünk"",""frélegzünk""]","","posttest trial","1",""
"html-button-response-clever","148","7748240","0.0-13.0-0.28","1143","János imád nyöbözni, ezért sokat nyöbzik. Ők ritkán...","0","nyöböznek","[""nyöböznek"",""nyöbzenek""]","","posttest trial","1",""
"html-button-response-clever","149","7749946","0.0-13.0-0.29","1188","János imád prugorozni, ezért sokat prugorzik. Ti ritkán...","1","prugoroztok","[""prugorzotok"",""prugoroztok""]","","posttest trial","1",""
"html-button-response-clever","150","7753394","0.0-13.0-0.30","2931","János imád bötőrözni, ezért sokat bötőrzik. Mi ritkán...","1","bötőrözünk","[""bötőrzünk"",""bötőrözünk""]","","posttest trial","1",""
"html-button-response-clever","151","7755884","0.0-13.0-0.31","1978","János imád klihasozni, ezért sokat klihaslik. Ti ritkán...","0","klihasoztok","[""klihasoztok"",""klihaslotok""]","","posttest trial","1",""
"html-button-response-clever","152","7764418","0.0-13.0-0.32","8022","János imád flodozni, ezért sokat flodlik. Ti ritkán...","0","flodoztok","[""flodoztok"",""flodlotok""]","","posttest trial","1",""
"html-button-response-clever","153","7766274","0.0-13.0-0.33","1333","János imád vihapodni, ezért sokat vihapszik. Mi ritkán...","1","vihapodunk","[""vihapszunk"",""vihapodunk""]","","posttest trial","1",""
"html-button-response-clever","154","7771072","0.0-13.0-0.34","4289","János imád pibegezni, ezért sokat pibegzik. Ők ritkán...","1","pibegeznek","[""pibegzenek"",""pibegeznek""]","","posttest trial","1",""
"html-button-response-clever","155","7779984","0.0-13.0-0.35","8409","János imád nyádozni, ezért sokat nyádlik. Ők ritkán...","1","nyádoznak","[""nyádlanak"",""nyádoznak""]","","posttest trial","1",""
"html-button-response-clever","156","7782000","0.0-13.0-0.36","1502","János imád trilekedni, ezért sokat trilekszik. Ti ritkán...","1","trilekedtek","[""trilekszetek"",""trilekedtek""]","","posttest trial","1",""
"html-button-response-clever","157","7784000","0.0-13.0-0.37","1491","János imád vilesezni, ezért sokat vileslik. Mi ritkán...","0","vilesezünk","[""vilesezünk"",""vileslünk""]","","posttest trial","1",""
"html-button-response-clever","158","7787062","0.0-13.0-0.38","2545","János imád bribékedni, ezért sokat bribékszik. Ti ritkán...","1","bribékedtek","[""bribékszetek"",""bribékedtek""]","","posttest trial","1",""
"html-button-response-clever","159","7789898","0.0-13.0-0.39","2332","János imád hiragozni, ezért sokat hiragzik. Ők ritkán...","1","hiragoznak","[""hiragzanak"",""hiragoznak""]","","posttest trial","1",""
"html-button-response-clever","160","7792171","0.0-13.0-0.40","1759","János imád bügözni, ezért sokat bügzik. Ők ritkán...","1","bügöznek","[""bügzenek"",""bügöznek""]","","posttest trial","1",""
"html-button-response-clever","161","7795999","0.0-13.0-0.41","3317","János imád spivejezni, ezért sokat spivejlik. Ők ritkán...","0","spivejeznek","[""spivejeznek"",""spivejlenek""]","","posttest trial","1",""
"html-button-response-clever","162","7799131","0.0-13.0-0.42","2615","János imád frorozni, ezért sokat frorlik. Ők ritkán...","0","frorlanak","[""frorlanak"",""froroznak""]","","posttest trial","1",""
"html-button-response-clever","163","7803173","0.0-13.0-0.43","3533","János imád sztredezni, ezért sokat sztredlik. Ti ritkán...","1","sztredeztek","[""sztredletek"",""sztredeztek""]","","posttest trial","1",""
"html-button-response-clever","164","7806645","0.0-13.0-0.44","2968","János imád klégezni, ezért sokat kléglik. Mi ritkán...","0","klégezünk","[""klégezünk"",""kléglünk""]","","posttest trial","1",""
"html-button-response-clever","165","7808801","0.0-13.0-0.45","1651","János imád gihamozni, ezért sokat gihamlik. Ők ritkán...","0","gihamlanak","[""gihamlanak"",""gihamoznak""]","","posttest trial","1",""
"html-button-response-clever","166","7812700","0.0-13.0-0.46","3386","János imád játozni, ezért sokat játlik. Mi ritkán...","0","játozunk","[""játozunk"",""játlunk""]","","posttest trial","1",""
"html-button-response-clever","167","7817718","0.0-13.0-0.47","4513","János imád kláragodni, ezért sokat kláragszik. Ti ritkán...","1","kláragodtok","[""kláragszotok"",""kláragodtok""]","","posttest trial","1",""
"html-button-response-clever","168","7821939","0.0-13.0-0.48","3716","János imád bejezni, ezért sokat bejzik. Mi ritkán...","0","bejezünk","[""bejezünk"",""bejzünk""]","","posttest trial","1",""
"html-button-response-clever","169","7825555","0.0-13.0-0.49","3108","János imád brűközni, ezért sokat brűklik. Ti ritkán...","0","brűköztök","[""brűköztök"",""brűklötök""]","","posttest trial","1",""
"html-button-response-clever","170","7829384","0.0-13.0-0.50","3318","János imád bribasozni, ezért sokat bribaslik. Ők ritkán...","0","bribasoznak","[""bribasoznak"",""bribaslanak""]","","posttest trial","1",""
"html-button-response-clever","171","7832991","0.0-13.0-0.51","3097","János imád frirozni, ezért sokat frirzik. Mi ritkán...","0","frirzunk","[""frirzunk"",""frirozunk""]","","posttest trial","1",""
"html-button-response-clever","172","7835825","0.0-13.0-0.52","2326","János imád vehékedni, ezért sokat vehékszik. Mi ritkán...","0","vehékedünk","[""vehékedünk"",""vehékszünk""]","","posttest trial","1",""
"html-button-response-clever","173","7840181","0.0-13.0-0.53","3851","János imád trálodni, ezért sokat trálszik. Mi ritkán...","0","trálodunk","[""trálodunk"",""trálszunk""]","","posttest trial","1",""
"html-button-response","174","7845395","0.0-14.0","4709","<p> Vége a játéknak. A teljes pontszámod 35/54.</p><p> Szép munka! &#128526;&#128526;&#128526;</p><p>A Befejezés gomb megnyomása után bezárhatod a böngészőablakot.</p>","0","","","","","",""
"html-keyboard-response","175","7850928","0.0-15.0","null","<div class=""message"">
         <p>Egy kis türelmet kérünk, amíg elmentjük az adatokat...</p>
         </div>","null","","","","","",""
