"trial_type","trial_index","time_elapsed","internal_node_id","rt","stimulus","response","response_string","choices","esp_response","trial_kind","list_number","esp_match"
"pavlovia","0","1318","0.0-0.0","","","","","","","","",""
"html-button-response","1","509442","0.0-1.0","506895","<p>Kedves Résztvevő! A Budapesti Műszaki és Gazdaságtudományi Egyetem Kognitív Tudományi Tanszékének kutatásában való részvételed kérjük. A kutatásban azt vizsgáljuk, hogy a magyar anyanyelvűek hogyan használnak bizonyos szóalakokat, és hogy milyen képük van arról, hogy mások hogyan használják, hogyan képzik a szavakat. Ez hozzásegít bennünket ahhoz, hogy jobban megértsük, hogyan dolgozza fel és tárolja a nyelvet az emberi agy, és hogyan működnek, hogyan változnak egy adott közösség nyelvi konvenciói.</p><p>A vizsgálat egy rövid számítógépes feladatból fog állni. A kutatásban való részvétel önkéntes, a részvételi szándék bármikor visszavonható. A résztvevők eredményeit név nélkül kezeljük, így nem beazonosíthatók az adatok feldolgozása során. Minden személyes adatot az EU általános adatvédelmi rendeletének (GDPR) megfelelően kezelünk és legfeljebb öt éven belül megsemmisítünk. A vizsgálat jellemzően húsz percet vesz igénybe.</p><p>Kutatásvezető:</p><p>Dr. Rácz Péter, tudományos munkatárs, BME KTT</p><p>e-mail: racz.peter.marton@ttk.bme.hu</p>","0","","","","","",""
"html-button-response","2","562881","0.0-2.0","52933","<p>A kísérletben szavakat fogsz látni. Ezek között lesznek olyanok, amelyeket ismersz, de előfordulhatnak olyanok is, amelyeket nem ismersz, sőt, vannak köztük kitalált szavak is. Minden szónál látni fogsz toldalékolt alakokat. A te feladatod az lesz, hogy minden szóhoz kiválaszd azt a toldalékolt alakot, amely a te számodra ismerősebben, természetesebben hangzik. Rossz válaszok nincsenek, mert van olyan, hogy különböző embereknek más és más szó tűnik jobb választásnak. A választ úgy tudod majd kiválasztani, ha rákattintasz.</p><p>Ebben a szóválasztós játékban egy másik játékossal együtt veszel majd részt. A másik játékos is minden esetben azok közül a lehetőségek közül válogathat, mint te. Kettőtök feladata az, hogy ugyanazt a lehetőséget válasszátok minden esetben. Ahhoz, hogy ez sikerüljön, neked figyelned kell arra, hogy a másik játékos milyen válaszokat ad, és ennek alapján meg kell tippelned, hogyan választ legközelebb. Ha eltalálod, akkor pontot kapsz.</p>","0","","","","","",""
"html-button-response","3","595216","0.0-3.0","31829","<p>Kérjük, olvasd el az alábbi nyilatkozatot, és amennyiben egyetértesz vele, nyomj a Beleegyezés gombra!</p><p>Kijelentem, hogy magyar anyanyelvű személyként önként veszek részt a BME KTT kísérletében. A kutatás céljával és folyamatával kapcsolatban elegendő tájékoztatást kaptam, lehetőségem volt kérdések feltételére, és esetleges kérdéseimre megfelelő válaszokat kaptam. A tájékoztatás alapján elegendő mennyiségű információ áll a rendelkezésemre, hogy eldönthessem, részt kívánok-e venni a kutatásban.</p><p>Tisztában vagyok vele, hogy részvételi szándékomat és adataimat bármikor, indoklás nélkül visszavonhatom.</p><p>Értem és tudomásul veszem, hogy a kutatás tudományos célokat szolgál, és az általam szolgáltatott adatokat a BME kizárólag kutatási célból használja fel. Tudomásul veszem, hogy eredményeimet a többi résztvevő eredményeivel együtt kezelik, így egyéni teljesítményemről visszajelzést, szakvéleményt nem kapok.</p><p>Megértettem, hogy adataim kezelését illetően a BME az EU általános adatvédelmi rendelete (GDPR), a hatályos adatvédelmi törvény és a nemzetközi kutatás-etikai alapelvek szerint jár el. Eredményeim anonim módon kerülnek feldolgozásra, és a kutatás résztvevői az azonosításomra alkalmas adataimat harmadik félnek nem szolgáltatják ki. Engedélyezem a BME számára a jelen kutatásban felvett adataim feldolgozását és tárolását, beleértve azok későbbi kutatásokhoz való felhasználását is. Személyes adataim kezelésével kapcsolatban tájékoztatást kérhetek a kutatás résztvevőitől, az adatkezelés ellen tiltakozhatok, kérhetem személyes adataim helyesbítését, törlését vagy zárolását, valamint jogorvoslatért a Nemzeti Adatvédelmi és Információszabadság Hatósághoz fordulhatok.</p><p>Kijelentem, hogy a kutatásban való részvételem körülményeiről részletes tájékoztatást kaptam, és a feltételeket elfogadom.</p>","0","","","","","",""
"survey-text","4","638954","0.0-4.0","43229","","{""Q0"":""nxbunm"",""Q1"":""férfi"",""Q2"":""1996"",""Q3"":""18""}","","","","","",""
"html-button-response","5","651242","0.0-5.0","11783","<p>Ebben a játékban szavakat kell toldalékolni.</p> <p>Minden körben mutatunk majd egy példamondatot, amiben lesz egy szó.</p> <p>Alatta jön egy második mondat, ezt a mondatot neked kell majd befejezni, ugyanezzel a szóval.</p> <p>Nem biztos, hogy a szó eleve ismerős lesz számodra!</p> <p>Minden mondathoz adunk két lehetőséget, ezeket balra és jobbra látod majd.</p> <p>A játék kb. negyedóráig-húsz percig tart.</p>","0","","","","","",""
"html-button-response","6","672240","0.0-6.0","20494","<p>Nézzünk egy példát!</p> <p>A példamondat: ""János nagyon szeret rancsúrozni.""</p><p>Neked ezt a mondatot kell befejezned: ""Én is szívesen...""</p><p>A lehetőségek pedig ezek:</p>","0","","","","","",""
"html-button-response","7","677976","0.0-7.0","5231","<p>Nagyon jó.</p><p>Ezt a játékot nem egyedül fogod játszani, hanem egy másik játékossal.</p><p>Mielőtt továbblépünk, összekapcsolunk titeket egymással.</p><p>Ez igénybe vehet néhány másodpercet, amihez szíves türelmed kérjük.</p>","0","","","","","",""
"html-button-response","8","683711","0.0-8.0","null","<p>Csatlakozás a másik játékoshoz...</p>","null","","","","","",""
"html-button-response","9","686242","0.0-9.0","null","<p> Sikeres kapcsolódás!</p>","null","","","","","",""
"html-button-response","10","696780","0.0-10.0","null","<p>A következőkben ketten játsszátok a szóválasztós játékot.</p><p>A feladatotok az lesz, hogy minden körben <b>ugyanazt</b> a szót válasszátok.</p><p>Minden ilyen egyező válaszért pontot kaptok.</p><p>Próbáld meg kitalálni, mit választ a másik játékos!</p><p>Bármikor választhatsz, a körnek akkor van vége, ha mindketten döntöttetek.</p><p>Sok sikert!</p>","null","","","","","",""
"html-button-response-esp","11","702801","0.0-11.0-0.0","4106","Te bizony sokat ruslasz. Én is sokat...","0","ruslom","[""ruslom"",""ruslok""]","ruslok","esp trial","3","false"
"html-button-response","12","706313","0.0-11.0-1.0","null","<p>A másik játékos ezt választotta: <b>ruslok</b>.</p><p>&#10060;</p><p>A válaszaitok <b>nem</b> egyeznek meg.</p>","null","","","","feedback trial","",""
"html-button-response-esp","13","712342","0.0-11.0-0.1","3520","Te bizony sokat spibaklasz. Én is sokat...","1","spibaklok","[""spibaklom"",""spibaklok""]","spibaklom","esp trial","3","false"
"html-button-response","14","715872","0.0-11.0-1.1","null","<p>A másik játékos ezt választotta: <b>spibaklom</b>.</p><p>&#10060;</p><p>A válaszaitok <b>nem</b> egyeznek meg.</p>","null","","","","feedback trial","",""
"html-button-response-esp","15","721881","0.0-11.0-0.2","5503","Te bizony sokat piragszol. Én is sokat...","0","piragszok","[""piragszok"",""piragszom""]","piragszom","esp trial","3","false"
"html-button-response","16","725400","0.0-11.0-1.2","null","<p>A másik játékos ezt választotta: <b>piragszom</b>.</p><p>&#10060;</p><p>A válaszaitok <b>nem</b> egyeznek meg.</p>","null","","","","feedback trial","",""
"html-button-response-esp","17","731423","0.0-11.0-0.3","4295","Te bizony sokat málapszol. Én is sokat...","0","málapszom","[""málapszom"",""málapszok""]","málapszom","esp trial","3","true"
"html-button-response","18","734945","0.0-11.0-1.3","null","<p>A másik játékos ezt választotta: <b>málapszom</b>.</p><p>&#x2705;</p><p>A te válaszod és a másik játékos válasza <b>megegyeznek</b>.</p>","null","","","","feedback trial","",""
"html-button-response-esp","19","740968","0.0-11.0-0.4","4096","Te bizony sokat sojzol. Én is sokat...","1","sojzok","[""sojzom"",""sojzok""]","sojzom","esp trial","3","false"
"html-button-response","20","744496","0.0-11.0-1.4","null","<p>A másik játékos ezt választotta: <b>sojzom</b>.</p><p>&#10060;</p><p>A válaszaitok <b>nem</b> egyeznek meg.</p>","null","","","","feedback trial","",""
"html-button-response-esp","21","750506","0.0-11.0-0.5","3734","Te bizony sokat prilegzel. Én is sokat...","1","prilegzek","[""prilegzem"",""prilegzek""]","prilegzem","esp trial","3","false"
"html-button-response","22","754025","0.0-11.0-1.5","null","<p>A másik játékos ezt választotta: <b>prilegzem</b>.</p><p>&#10060;</p><p>A válaszaitok <b>nem</b> egyeznek meg.</p>","null","","","","feedback trial","",""
"html-button-response-esp","23","760033","0.0-11.0-0.6","4141","Te bizony sokat tínylasz. Én is sokat...","1","tínylom","[""tínylok"",""tínylom""]","tínylom","esp trial","3","true"
"html-button-response","24","763563","0.0-11.0-1.6","null","<p>A másik játékos ezt választotta: <b>tínylom</b>.</p><p>&#x2705;</p><p>A te válaszod és a másik játékos válasza <b>megegyeznek</b>.</p>","null","","","","feedback trial","",""
"html-button-response-esp","25","769589","0.0-11.0-0.7","3386","Te bizony sokat jüslesz. Én is sokat...","0","jüslöm","[""jüslöm"",""jüslök""]","jüslök","esp trial","3","false"
"html-button-response","26","773105","0.0-11.0-1.7","null","<p>A másik játékos ezt választotta: <b>jüslök</b>.</p><p>&#10060;</p><p>A válaszaitok <b>nem</b> egyeznek meg.</p>","null","","","","feedback trial","",""
"html-button-response-esp","27","779528","0.0-11.0-0.8","5909","Te bizony sokat klörlesz. Én is sokat...","0","klörlök","[""klörlök"",""klörlöm""]","klörlöm","esp trial","3","false"
"html-button-response","28","783054","0.0-11.0-1.8","null","<p>A másik játékos ezt választotta: <b>klörlöm</b>.</p><p>&#10060;</p><p>A válaszaitok <b>nem</b> egyeznek meg.</p>","null","","","","feedback trial","",""
"html-button-response-esp","29","790657","0.0-11.0-0.9","7085","Te bizony sokat fretszel. Én is sokat...","0","fretszek","[""fretszek"",""fretszem""]","fretszem","esp trial","3","false"
"html-button-response","30","794173","0.0-11.0-1.9","null","<p>A másik játékos ezt választotta: <b>fretszem</b>.</p><p>&#10060;</p><p>A válaszaitok <b>nem</b> egyeznek meg.</p>","null","","","","feedback trial","",""
"html-button-response-esp","31","800191","0.0-11.0-0.10","4351","Te bizony sokat sprökszöl. Én is sokat...","0","sprökszök","[""sprökszök"",""sprökszöm""]","sprökszöm","esp trial","3","false"
"html-button-response","32","803716","0.0-11.0-1.10","null","<p>A másik játékos ezt választotta: <b>sprökszöm</b>.</p><p>&#10060;</p><p>A válaszaitok <b>nem</b> egyeznek meg.</p>","null","","","","feedback trial","",""
"html-button-response-esp","33","809724","0.0-11.0-0.11","4734","Te bizony sokat trilszol. Én is sokat...","0","trilszok","[""trilszok"",""trilszom""]","trilszom","esp trial","3","false"
"html-button-response","34","813241","0.0-11.0-1.11","null","<p>A másik játékos ezt választotta: <b>trilszom</b>.</p><p>&#10060;</p><p>A válaszaitok <b>nem</b> egyeznek meg.</p>","null","","","","feedback trial","",""
"html-button-response-esp","35","819256","0.0-11.0-0.12","3320","Te bizony sokat büglesz. Én is sokat...","0","büglök","[""büglök"",""büglöm""]","büglök","esp trial","3","true"
"html-button-response","36","822772","0.0-11.0-1.12","null","<p>A másik játékos ezt választotta: <b>büglök</b>.</p><p>&#x2705;</p><p>A te válaszod és a másik játékos válasza <b>megegyeznek</b>.</p>","null","","","","feedback trial","",""
"html-button-response-esp","37","836969","0.0-11.0-0.13","13687","Te bizony sokat flagárzol. Én is sokat...","1","flagárzom","[""flagárzok"",""flagárzom""]","flagárzom","esp trial","3","true"
"html-button-response","38","840481","0.0-11.0-1.13","null","<p>A másik játékos ezt választotta: <b>flagárzom</b>.</p><p>&#x2705;</p><p>A te válaszod és a másik játékos válasza <b>megegyeznek</b>.</p>","null","","","","feedback trial","",""
"html-button-response-esp","39","846494","0.0-11.0-0.14","2913","Te bizony sokat juszlasz. Én is sokat...","1","juszlok","[""juszlom"",""juszlok""]","juszlom","esp trial","3","false"
"html-button-response","40","850031","0.0-11.0-1.14","null","<p>A másik játékos ezt választotta: <b>juszlom</b>.</p><p>&#10060;</p><p>A válaszaitok <b>nem</b> egyeznek meg.</p>","null","","","","feedback trial","",""
"html-button-response-esp","41","856049","0.0-11.0-0.15","3262","Te bizony sokat sprogzol. Én is sokat...","1","sprogzom","[""sprogzok"",""sprogzom""]","sprogzom","esp trial","3","true"
"html-button-response","42","859562","0.0-11.0-1.15","null","<p>A másik játékos ezt választotta: <b>sprogzom</b>.</p><p>&#x2705;</p><p>A te válaszod és a másik játékos válasza <b>megegyeznek</b>.</p>","null","","","","feedback trial","",""
"html-button-response-esp","43","865565","0.0-11.0-0.16","1704","Te bizony sokat ribzol. Én is sokat...","0","ribzom","[""ribzom"",""ribzok""]","ribzom","esp trial","3","true"
"html-button-response","44","869084","0.0-11.0-1.16","null","<p>A másik játékos ezt választotta: <b>ribzom</b>.</p><p>&#x2705;</p><p>A te válaszod és a másik játékos válasza <b>megegyeznek</b>.</p>","null","","","","feedback trial","",""
"html-button-response-esp","45","880737","0.0-11.0-0.17","11137","Te bizony sokat frilegszel. Én is sokat...","0","frilegszem","[""frilegszem"",""frilegszek""]","frilegszem","esp trial","3","true"
"html-button-response","46","884258","0.0-11.0-1.17","null","<p>A másik játékos ezt választotta: <b>frilegszem</b>.</p><p>&#x2705;</p><p>A te válaszod és a másik játékos válasza <b>megegyeznek</b>.</p>","null","","","","feedback trial","",""
"html-button-response-esp","47","890264","0.0-11.0-0.18","4303","Te bizony sokat spilágzol. Én is sokat...","0","spilágzom","[""spilágzom"",""spilágzok""]","spilágzom","esp trial","3","true"
"html-button-response","48","893778","0.0-11.0-1.18","null","<p>A másik játékos ezt választotta: <b>spilágzom</b>.</p><p>&#x2705;</p><p>A te válaszod és a másik játékos válasza <b>megegyeznek</b>.</p>","null","","","","feedback trial","",""
"html-button-response-esp","49","899796","0.0-11.0-0.19","2432","Te bizony sokat ribegzel. Én is sokat...","1","ribegzek","[""ribegzem"",""ribegzek""]","ribegzem","esp trial","3","false"
"html-button-response","50","903332","0.0-11.0-1.19","null","<p>A másik játékos ezt választotta: <b>ribegzem</b>.</p><p>&#10060;</p><p>A válaszaitok <b>nem</b> egyeznek meg.</p>","null","","","","feedback trial","",""
"html-button-response-esp","51","909353","0.0-11.0-0.20","4735","Te bizony sokat flüröslesz. Én is sokat...","1","flüröslök","[""flüröslöm"",""flüröslök""]","flüröslöm","esp trial","3","false"
"html-button-response","52","912873","0.0-11.0-1.20","null","<p>A másik játékos ezt választotta: <b>flüröslöm</b>.</p><p>&#10060;</p><p>A válaszaitok <b>nem</b> egyeznek meg.</p>","null","","","","feedback trial","",""
"html-button-response-esp","53","918896","0.0-11.0-0.21","2400","Te bizony sokat szirlasz. Én is sokat...","0","szirlok","[""szirlok"",""szirlom""]","szirlom","esp trial","3","false"
"html-button-response","54","922417","0.0-11.0-1.21","null","<p>A másik játékos ezt választotta: <b>szirlom</b>.</p><p>&#10060;</p><p>A válaszaitok <b>nem</b> egyeznek meg.</p>","null","","","","feedback trial","",""
"html-button-response-esp","55","928426","0.0-11.0-0.22","3687","Te bizony sokat driládzol. Én is sokat...","0","driládzom","[""driládzom"",""driládzok""]","driládzom","esp trial","3","true"
"html-button-response","56","931937","0.0-11.0-1.22","null","<p>A másik játékos ezt választotta: <b>driládzom</b>.</p><p>&#x2705;</p><p>A te válaszod és a másik játékos válasza <b>megegyeznek</b>.</p>","null","","","","feedback trial","",""
"html-button-response-esp","57","937958","0.0-11.0-0.23","2279","Te bizony sokat femlesz. Én is sokat...","1","femlek","[""femlem"",""femlek""]","femlek","esp trial","3","true"
"html-button-response","58","941475","0.0-11.0-1.23","null","<p>A másik játékos ezt választotta: <b>femlek</b>.</p><p>&#x2705;</p><p>A te válaszod és a másik játékos válasza <b>megegyeznek</b>.</p>","null","","","","feedback trial","",""
"html-button-response-esp","59","948393","0.0-11.0-0.24","6401","Te bizony sokat spéslesz. Én is sokat...","1","spéslem","[""spéslek"",""spéslem""]","spéslek","esp trial","3","false"
"html-button-response","60","951909","0.0-11.0-1.24","null","<p>A másik játékos ezt választotta: <b>spéslek</b>.</p><p>&#10060;</p><p>A válaszaitok <b>nem</b> egyeznek meg.</p>","null","","","","feedback trial","",""
"html-button-response-esp","61","957930","0.0-11.0-0.25","3775","Te bizony sokat tomlasz. Én is sokat...","0","tomlok","[""tomlok"",""tomlom""]","tomlok","esp trial","3","true"
"html-button-response","62","961460","0.0-11.0-1.25","null","<p>A másik játékos ezt választotta: <b>tomlok</b>.</p><p>&#x2705;</p><p>A te válaszod és a másik játékos válasza <b>megegyeznek</b>.</p>","null","","","","feedback trial","",""
"html-button-response-esp","63","967486","0.0-11.0-0.26","4074","Te bizony sokat lorjódzol. Én is sokat...","0","lorjódzom","[""lorjódzom"",""lorjódzok""]","lorjódzom","esp trial","3","true"
"html-button-response","64","971025","0.0-11.0-1.26","null","<p>A másik játékos ezt választotta: <b>lorjódzom</b>.</p><p>&#x2705;</p><p>A te válaszod és a másik játékos válasza <b>megegyeznek</b>.</p>","null","","","","feedback trial","",""
"html-button-response-esp","65","977945","0.0-11.0-0.27","6405","Te bizony sokat flűröklesz. Én is sokat...","0","flűröklöm","[""flűröklöm"",""flűröklök""]","flűröklöm","esp trial","3","true"
"html-button-response","66","981457","0.0-11.0-1.27","null","<p>A másik játékos ezt választotta: <b>flűröklöm</b>.</p><p>&#x2705;</p><p>A te válaszod és a másik játékos válasza <b>megegyeznek</b>.</p>","null","","","","feedback trial","",""
"html-button-response-esp","67","987481","0.0-11.0-0.28","3385","Te bizony sokat drubódzol. Én is sokat...","0","drubódzom","[""drubódzom"",""drubódzok""]","drubódzom","esp trial","3","true"
"html-button-response","68","991011","0.0-11.0-1.28","null","<p>A másik játékos ezt választotta: <b>drubódzom</b>.</p><p>&#x2705;</p><p>A te válaszod és a másik játékos válasza <b>megegyeznek</b>.</p>","null","","","","feedback trial","",""
"html-button-response-esp","69","999065","0.0-11.0-0.29","7536","Te bizony sokat pivegszel. Én is sokat...","1","pivegszem","[""pivegszek"",""pivegszem""]","pivegszem","esp trial","3","true"
"html-button-response","70","1002585","0.0-11.0-1.29","null","<p>A másik játékos ezt választotta: <b>pivegszem</b>.</p><p>&#x2705;</p><p>A te válaszod és a másik játékos válasza <b>megegyeznek</b>.</p>","null","","","","feedback trial","",""
"html-button-response-esp","71","1008606","0.0-11.0-0.30","2279","Te bizony sokat nyáslasz. Én is sokat...","1","nyáslok","[""nyáslom"",""nyáslok""]","nyáslom","esp trial","3","false"
"html-button-response","72","1012145","0.0-11.0-1.30","null","<p>A másik játékos ezt választotta: <b>nyáslom</b>.</p><p>&#10060;</p><p>A válaszaitok <b>nem</b> egyeznek meg.</p>","null","","","","feedback trial","",""
"html-button-response-esp","73","1018153","0.0-11.0-0.31","2368","Te bizony sokat sztremlesz. Én is sokat...","1","sztremlem","[""sztremlek"",""sztremlem""]","sztremlek","esp trial","3","false"
"html-button-response","74","1021670","0.0-11.0-1.31","null","<p>A másik játékos ezt választotta: <b>sztremlek</b>.</p><p>&#10060;</p><p>A válaszaitok <b>nem</b> egyeznek meg.</p>","null","","","","feedback trial","",""
"html-button-response-esp","75","1027691","0.0-11.0-0.32","3224","Te bizony sokat brüjlesz. Én is sokat...","0","brüjlök","[""brüjlök"",""brüjlöm""]","brüjlök","esp trial","3","true"
"html-button-response","76","1031214","0.0-11.0-1.32","null","<p>A másik játékos ezt választotta: <b>brüjlök</b>.</p><p>&#x2705;</p><p>A te válaszod és a másik játékos válasza <b>megegyeznek</b>.</p>","null","","","","feedback trial","",""
"html-button-response-esp","77","1037246","0.0-11.0-0.33","1504","Te bizony sokat spatárzol. Én is sokat...","0","spatárzom","[""spatárzom"",""spatárzok""]","spatárzom","esp trial","3","true"
"html-button-response","78","1040761","0.0-11.0-1.33","null","<p>A másik játékos ezt választotta: <b>spatárzom</b>.</p><p>&#x2705;</p><p>A te válaszod és a másik játékos válasza <b>megegyeznek</b>.</p>","null","","","","feedback trial","",""
"html-button-response-esp","79","1046789","0.0-11.0-0.34","1248","Te bizony sokat marzol. Én is sokat...","0","marzom","[""marzom"",""marzok""]","marzok","esp trial","3","false"
"html-button-response","80","1050306","0.0-11.0-1.34","null","<p>A másik játékos ezt választotta: <b>marzok</b>.</p><p>&#10060;</p><p>A válaszaitok <b>nem</b> egyeznek meg.</p>","null","","","","feedback trial","",""
"html-button-response-esp","81","1056320","0.0-11.0-0.35","4137","Te bizony sokat narjárzol. Én is sokat...","1","narjárzom","[""narjárzok"",""narjárzom""]","narjárzom","esp trial","3","true"
"html-button-response","82","1059833","0.0-11.0-1.35","null","<p>A másik játékos ezt választotta: <b>narjárzom</b>.</p><p>&#x2705;</p><p>A te válaszod és a másik játékos válasza <b>megegyeznek</b>.</p>","null","","","","feedback trial","",""
"html-button-response-esp","83","1066665","0.0-11.0-0.36","6328","Te bizony sokat prűrlesz. Én is sokat...","1","prűrlöm","[""prűrlök"",""prűrlöm""]","prűrlök","esp trial","3","false"
"html-button-response","84","1070192","0.0-11.0-1.36","null","<p>A másik játékos ezt választotta: <b>prűrlök</b>.</p><p>&#10060;</p><p>A válaszaitok <b>nem</b> egyeznek meg.</p>","null","","","","feedback trial","",""
"html-button-response-esp","85","1076209","0.0-11.0-0.37","3598","Te bizony sokat csíszlasz. Én is sokat...","1","csíszlok","[""csíszlom"",""csíszlok""]","csíszlom","esp trial","3","false"
"html-button-response","86","1079721","0.0-11.0-1.37","null","<p>A másik játékos ezt választotta: <b>csíszlom</b>.</p><p>&#10060;</p><p>A válaszaitok <b>nem</b> egyeznek meg.</p>","null","","","","feedback trial","",""
"html-button-response-esp","87","1088833","0.0-11.0-0.38","8604","Te bizony sokat flagánylasz. Én is sokat...","1","flagánylom","[""flagánylok"",""flagánylom""]","flagánylok","esp trial","3","false"
"html-button-response","88","1092353","0.0-11.0-1.38","null","<p>A másik játékos ezt választotta: <b>flagánylok</b>.</p><p>&#10060;</p><p>A válaszaitok <b>nem</b> egyeznek meg.</p>","null","","","","feedback trial","",""
"html-button-response-esp","89","1100368","0.0-11.0-0.39","7512","Te bizony sokat pebzel. Én is sokat...","1","pebzem","[""pebzek"",""pebzem""]","pebzem","esp trial","3","true"
"html-button-response","90","1103881","0.0-11.0-1.39","null","<p>A másik játékos ezt választotta: <b>pebzem</b>.</p><p>&#x2705;</p><p>A te válaszod és a másik játékos válasza <b>megegyeznek</b>.</p>","null","","","","feedback trial","",""
"html-button-response-esp","91","1109905","0.0-11.0-0.40","3965","Te bizony sokat vilakszol. Én is sokat...","0","vilakszom","[""vilakszom"",""vilakszok""]","vilakszom","esp trial","3","true"
"html-button-response","92","1113425","0.0-11.0-1.40","null","<p>A másik játékos ezt választotta: <b>vilakszom</b>.</p><p>&#x2705;</p><p>A te válaszod és a másik játékos válasza <b>megegyeznek</b>.</p>","null","","","","feedback trial","",""
"html-button-response-esp","93","1121305","0.0-11.0-0.41","7364","Te bizony sokat fibamlasz. Én is sokat...","1","fibamlok","[""fibamlom"",""fibamlok""]","fibamlok","esp trial","3","true"
"html-button-response","94","1124823","0.0-11.0-1.41","null","<p>A másik játékos ezt választotta: <b>fibamlok</b>.</p><p>&#x2705;</p><p>A te válaszod és a másik játékos válasza <b>megegyeznek</b>.</p>","null","","","","feedback trial","",""
"html-button-response-esp","95","1130852","0.0-11.0-0.42","3637","Te bizony sokat böjzöl. Én is sokat...","0","böjzök","[""böjzök"",""böjzöm""]","böjzöm","esp trial","3","false"
"html-button-response","96","1134371","0.0-11.0-1.42","null","<p>A másik játékos ezt választotta: <b>böjzöm</b>.</p><p>&#10060;</p><p>A válaszaitok <b>nem</b> egyeznek meg.</p>","null","","","","feedback trial","",""
"html-button-response-esp","97","1144064","0.0-11.0-0.43","9178","Te bizony sokat pratánylasz. Én is sokat...","1","pratánylom","[""pratánylok"",""pratánylom""]","pratánylok","esp trial","3","false"
"html-button-response","98","1147577","0.0-11.0-1.43","null","<p>A másik játékos ezt választotta: <b>pratánylok</b>.</p><p>&#10060;</p><p>A válaszaitok <b>nem</b> egyeznek meg.</p>","null","","","","feedback trial","",""
"html-button-response-esp","99","1153585","0.0-11.0-0.44","5263","Te bizony sokat bölszöl. Én is sokat...","0","bölszök","[""bölszök"",""bölszöm""]","bölszöm","esp trial","3","false"
"html-button-response","100","1157111","0.0-11.0-1.44","null","<p>A másik játékos ezt választotta: <b>bölszöm</b>.</p><p>&#10060;</p><p>A válaszaitok <b>nem</b> egyeznek meg.</p>","null","","","","feedback trial","",""
"html-button-response-esp","101","1163752","0.0-11.0-0.45","6135","Te bizony sokat hilarzol. Én is sokat...","0","hilarzok","[""hilarzok"",""hilarzom""]","hilarzom","esp trial","3","false"
"html-button-response","102","1167265","0.0-11.0-1.45","null","<p>A másik játékos ezt választotta: <b>hilarzom</b>.</p><p>&#10060;</p><p>A válaszaitok <b>nem</b> egyeznek meg.</p>","null","","","","feedback trial","",""
"html-button-response-esp","103","1173302","0.0-11.0-0.46","5467","Te bizony sokat sűzlesz. Én is sokat...","1","sűzlöm","[""sűzlök"",""sűzlöm""]","sűzlöm","esp trial","3","true"
"html-button-response","104","1176824","0.0-11.0-1.46","null","<p>A másik játékos ezt választotta: <b>sűzlöm</b>.</p><p>&#x2705;</p><p>A te válaszod és a másik játékos válasza <b>megegyeznek</b>.</p>","null","","","","feedback trial","",""
"html-button-response-esp","105","1182849","0.0-11.0-0.47","2720","Te bizony sokat klibamlasz. Én is sokat...","0","klibamlok","[""klibamlok"",""klibamlom""]","klibamlom","esp trial","3","false"
"html-button-response","106","1186360","0.0-11.0-1.47","null","<p>A másik játékos ezt választotta: <b>klibamlom</b>.</p><p>&#10060;</p><p>A válaszaitok <b>nem</b> egyeznek meg.</p>","null","","","","feedback trial","",""
"html-button-response-esp","107","1192872","0.0-11.0-0.48","5997","Te bizony sokat herégszel. Én is sokat...","1","herégszek","[""herégszem"",""herégszek""]","herégszem","esp trial","3","false"
"html-button-response","108","1196384","0.0-11.0-1.48","null","<p>A másik játékos ezt választotta: <b>herégszem</b>.</p><p>&#10060;</p><p>A válaszaitok <b>nem</b> egyeznek meg.</p>","null","","","","feedback trial","",""
"html-button-response-esp","109","1206960","0.0-11.0-0.49","10071","Te bizony sokat spűmlesz. Én is sokat...","1","spűmlöm","[""spűmlök"",""spűmlöm""]","spűmlök","esp trial","3","false"
"html-button-response","110","1210483","0.0-11.0-1.49","null","<p>A másik játékos ezt választotta: <b>spűmlök</b>.</p><p>&#10060;</p><p>A válaszaitok <b>nem</b> egyeznek meg.</p>","null","","","","feedback trial","",""
"html-button-response-esp","111","1216489","0.0-11.0-0.50","2879","Te bizony sokat siladzol. Én is sokat...","0","siladzom","[""siladzom"",""siladzok""]","siladzom","esp trial","3","true"
"html-button-response","112","1220009","0.0-11.0-1.50","null","<p>A másik játékos ezt választotta: <b>siladzom</b>.</p><p>&#x2705;</p><p>A te válaszod és a másik játékos válasza <b>megegyeznek</b>.</p>","null","","","","feedback trial","",""
"html-button-response-esp","113","1226024","0.0-11.0-0.51","4949","Te bizony sokat tiregzel. Én is sokat...","0","tiregzek","[""tiregzek"",""tiregzem""]","tiregzem","esp trial","3","false"
"html-button-response","114","1229552","0.0-11.0-1.51","null","<p>A másik játékos ezt választotta: <b>tiregzem</b>.</p><p>&#10060;</p><p>A válaszaitok <b>nem</b> egyeznek meg.</p>","null","","","","feedback trial","",""
"html-button-response-esp","115","1235608","0.0-11.0-0.52","5548","Te bizony sokat brágaklasz. Én is sokat...","1","brágaklom","[""brágaklok"",""brágaklom""]","brágaklom","esp trial","3","true"
"html-button-response","116","1239121","0.0-11.0-1.52","null","<p>A másik játékos ezt választotta: <b>brágaklom</b>.</p><p>&#x2705;</p><p>A te válaszod és a másik játékos válasza <b>megegyeznek</b>.</p>","null","","","","feedback trial","",""
"html-button-response-esp","117","1245130","0.0-11.0-0.53","4679","Te bizony sokat feténylesz. Én is sokat...","1","feténylek","[""feténylem"",""feténylek""]","feténylek","esp trial","3","true"
"html-button-response","118","1248663","0.0-11.0-1.53","null","<p>A másik játékos ezt választotta: <b>feténylek</b>.</p><p>&#x2705;</p><p>A te válaszod és a másik játékos válasza <b>megegyeznek</b>.</p>","null","","","","feedback trial","",""
"html-button-response","119","1257296","0.0-12.0","8115","<p>A közös játék most véget ért.</p><p>Mielőtt eláruljuk a végső pontszámodat, arra kérlek, játszd a szóválasztós játékot néhány percig egyedül is.</p><p>A feladatod ugyanaz lesz, választani két lehetőség közül.</p><p>Most viszont egyedül kell döntened, hogy te melyiket választanád.</p>","0","","","","","",""
"html-button-response-clever","120","1262001","0.0-13.0-0.0","4198","Te bizony sokat szibánylasz. Én is sokat...","1","szibánylok","[""szibánylom"",""szibánylok""]","","posttest trial","4",""
"html-button-response-clever","121","1268112","0.0-13.0-0.1","5606","Te bizony sokat vülődzöl. Én is sokat...","1","vülődzöm","[""vülődzök"",""vülődzöm""]","","posttest trial","4",""
"html-button-response-clever","122","1271801","0.0-13.0-0.2","3169","Te bizony sokat treglesz. Én is sokat...","0","treglek","[""treglek"",""treglem""]","","posttest trial","4",""
"html-button-response-clever","123","1278313","0.0-13.0-0.3","6008","Te bizony sokat flehénylesz. Én is sokat...","0","flehénylek","[""flehénylek"",""flehénylem""]","","posttest trial","4",""
"html-button-response-clever","124","1283009","0.0-13.0-0.4","4191","Te bizony sokat píjlasz. Én is sokat...","0","píjlok","[""píjlok"",""píjlom""]","","posttest trial","4",""
"html-button-response-clever","125","1288841","0.0-13.0-0.5","5313","Te bizony sokat narádzol. Én is sokat...","0","narádzom","[""narádzom"",""narádzok""]","","posttest trial","4",""
"html-button-response-clever","126","1293025","0.0-13.0-0.6","3679","Te bizony sokat rájzol. Én is sokat...","0","rájzok","[""rájzok"",""rájzom""]","","posttest trial","4",""
"html-button-response-clever","127","1300273","0.0-13.0-0.7","6743","Te bizony sokat filágzol. Én is sokat...","1","filágzom","[""filágzok"",""filágzom""]","","posttest trial","4",""
"html-button-response-clever","128","1305569","0.0-13.0-0.8","4787","Te bizony sokat salárzol. Én is sokat...","1","salárzom","[""salárzok"",""salárzom""]","","posttest trial","4",""
"html-button-response-clever","129","1311705","0.0-13.0-0.9","5631","Te bizony sokat spüjzöl. Én is sokat...","0","spüjzök","[""spüjzök"",""spüjzöm""]","","posttest trial","4",""
"html-button-response-clever","130","1318705","0.0-13.0-0.10","6496","Te bizony sokat klaráglasz. Én is sokat...","0","klaráglok","[""klaráglok"",""klaráglom""]","","posttest trial","4",""
"html-button-response-clever","131","1324201","0.0-13.0-0.11","4983","Te bizony sokat spülűdzöl. Én is sokat...","0","spülűdzök","[""spülűdzök"",""spülűdzöm""]","","posttest trial","4",""
"html-button-response-clever","132","1330817","0.0-13.0-0.12","6111","Te bizony sokat düjzöl. Én is sokat...","0","düjzöm","[""düjzöm"",""düjzök""]","","posttest trial","4",""
"html-button-response-clever","133","1336545","0.0-13.0-0.13","5222","Te bizony sokat brivegzel. Én is sokat...","0","brivegzek","[""brivegzek"",""brivegzem""]","","posttest trial","4",""
"html-button-response-clever","134","1342329","0.0-13.0-0.14","5278","Te bizony sokat spubonylasz. Én is sokat...","1","spubonylok","[""spubonylom"",""spubonylok""]","","posttest trial","4",""
"html-button-response-clever","135","1347297","0.0-13.0-0.15","4463","Te bizony sokat bihánylasz. Én is sokat...","1","bihánylok","[""bihánylom"",""bihánylok""]","","posttest trial","4",""
"html-button-response-clever","136","1353393","0.0-13.0-0.16","5592","Te bizony sokat sztrozlasz. Én is sokat...","1","sztrozlok","[""sztrozlom"",""sztrozlok""]","","posttest trial","4",""
"html-button-response-clever","137","1357737","0.0-13.0-0.17","3824","Te bizony sokat flátszol. Én is sokat...","1","flátszom","[""flátszok"",""flátszom""]","","posttest trial","4",""
"html-button-response-clever","138","1361489","0.0-13.0-0.18","3247","Te bizony sokat tragzol. Én is sokat...","0","tragzok","[""tragzok"",""tragzom""]","","posttest trial","4",""
"html-button-response-clever","139","1364785","0.0-13.0-0.19","2791","Te bizony sokat spihegzel. Én is sokat...","1","spihegzek","[""spihegzem"",""spihegzek""]","","posttest trial","4",""
"html-button-response-clever","140","1369321","0.0-13.0-0.20","4031","Te bizony sokat vanylasz. Én is sokat...","1","vanylok","[""vanylom"",""vanylok""]","","posttest trial","4",""
"html-button-response-clever","141","1374657","0.0-13.0-0.21","4831","Te bizony sokat klétszel. Én is sokat...","1","klétszek","[""klétszem"",""klétszek""]","","posttest trial","4",""
"html-button-response-clever","142","1379033","0.0-13.0-0.22","3871","Te bizony sokat spröbzöl. Én is sokat...","1","spröbzök","[""spröbzöm"",""spröbzök""]","","posttest trial","4",""
"html-button-response-clever","143","1383161","0.0-13.0-0.23","3624","Te bizony sokat brobódzol. Én is sokat...","1","brobódzok","[""brobódzom"",""brobódzok""]","","posttest trial","4",""
"html-button-response-clever","144","1391737","0.0-13.0-0.24","8074","Te bizony sokat lörűdzöl. Én is sokat...","0","lörűdzök","[""lörűdzök"",""lörűdzöm""]","","posttest trial","4",""
"html-button-response-clever","145","1396777","0.0-13.0-0.25","4530","Te bizony sokat nűröklesz. Én is sokat...","1","nűröklök","[""nűröklöm"",""nűröklök""]","","posttest trial","4",""
"html-button-response-clever","146","1404337","0.0-13.0-0.26","7056","Te bizony sokat sztrijzol. Én is sokat...","0","sztrijzok","[""sztrijzok"",""sztrijzom""]","","posttest trial","4",""
"html-button-response-clever","147","1408121","0.0-13.0-0.27","3279","Te bizony sokat pribemlesz. Én is sokat...","0","pribemlek","[""pribemlek"",""pribemlem""]","","posttest trial","4",""
"html-button-response-clever","148","1413049","0.0-13.0-0.28","4417","Te bizony sokat jonylasz. Én is sokat...","0","jonylok","[""jonylok"",""jonylom""]","","posttest trial","4",""
"html-button-response-clever","149","1416992","0.0-13.0-0.29","3439","Te bizony sokat pítszol. Én is sokat...","0","pítszom","[""pítszom"",""pítszok""]","","posttest trial","4",""
"html-button-response-clever","150","1421657","0.0-13.0-0.30","4146","Te bizony sokat ibékszel. Én is sokat...","1","ibékszek","[""ibékszem"",""ibékszek""]","","posttest trial","4",""
"html-button-response-clever","151","1425337","0.0-13.0-0.31","3166","Te bizony sokat spihemlesz. Én is sokat...","0","spihemlek","[""spihemlek"",""spihemlem""]","","posttest trial","4",""
"html-button-response-clever","152","1430745","0.0-13.0-0.32","4904","Te bizony sokat sztrűkszöl. Én is sokat...","1","sztrűkszöm","[""sztrűkszök"",""sztrűkszöm""]","","posttest trial","4",""
"html-button-response-clever","153","1435673","0.0-13.0-0.33","4423","Te bizony sokat hurjorzol. Én is sokat...","1","hurjorzok","[""hurjorzom"",""hurjorzok""]","","posttest trial","4",""
"html-button-response-clever","154","1441833","0.0-13.0-0.34","5655","Te bizony sokat plűbzöl. Én is sokat...","0","plűbzök","[""plűbzök"",""plűbzöm""]","","posttest trial","4",""
"html-button-response-clever","155","1450433","0.0-13.0-0.35","8092","Te bizony sokat frodlasz. Én is sokat...","0","frodlok","[""frodlok"",""frodlom""]","","posttest trial","4",""
"html-button-response-clever","156","1460792","0.0-13.0-0.36","9855","Te bizony sokat bivégszel. Én is sokat...","0","bivégszem","[""bivégszem"",""bivégszek""]","","posttest trial","4",""
"html-button-response-clever","157","1468248","0.0-13.0-0.37","6936","Te bizony sokat flűmlesz. Én is sokat...","0","flűmlök","[""flűmlök"",""flűmlöm""]","","posttest trial","4",""
"html-button-response-clever","158","1472280","0.0-13.0-0.38","3527","Te bizony sokat bűtszöl. Én is sokat...","0","bűtszök","[""bűtszök"",""bűtszöm""]","","posttest trial","4",""
"html-button-response-clever","159","1476361","0.0-13.0-0.39","3574","Te bizony sokat hűgzöl. Én is sokat...","0","hűgzök","[""hűgzök"",""hűgzöm""]","","posttest trial","4",""
"html-button-response-clever","160","1487097","0.0-13.0-0.40","10216","Te bizony sokat flehékszel. Én is sokat...","1","flehékszek","[""flehékszem"",""flehékszek""]","","posttest trial","4",""
"html-button-response-clever","161","1491936","0.0-13.0-0.41","4328","Te bizony sokat pribagszol. Én is sokat...","0","pribagszom","[""pribagszom"",""pribagszok""]","","posttest trial","4",""
"html-button-response-clever","162","1495368","0.0-13.0-0.42","2927","Te bizony sokat plugzol. Én is sokat...","1","plugzok","[""plugzom"",""plugzok""]","","posttest trial","4",""
"html-button-response-clever","163","1501737","0.0-13.0-0.43","5863","Te bizony sokat rokszol. Én is sokat...","1","rokszom","[""rokszok"",""rokszom""]","","posttest trial","4",""
"html-button-response-clever","164","1508009","0.0-13.0-0.44","5759","Te bizony sokat flitlasz. Én is sokat...","1","flitlok","[""flitlom"",""flitlok""]","","posttest trial","4",""
"html-button-response-clever","165","1513009","0.0-13.0-0.45","4485","Te bizony sokat klivaslasz. Én is sokat...","1","klivaslom","[""klivaslok"",""klivaslom""]","","posttest trial","4",""
"html-button-response-clever","166","1518080","0.0-13.0-0.46","4567","Te bizony sokat brubzol. Én is sokat...","0","brubzok","[""brubzok"",""brubzom""]","","posttest trial","4",""
"html-button-response-clever","167","1523641","0.0-13.0-0.47","5050","Te bizony sokat spáraklasz. Én is sokat...","1","spáraklok","[""spáraklom"",""spáraklok""]","","posttest trial","4",""
"html-button-response-clever","168","1537544","0.0-13.0-0.48","13399","Te bizony sokat figlasz. Én is sokat...","1","figlom","[""figlok"",""figlom""]","","posttest trial","4",""
"html-button-response-clever","169","1545016","0.0-13.0-0.49","6967","Te bizony sokat prínylasz. Én is sokat...","0","prínylom","[""prínylom"",""prínylok""]","","posttest trial","4",""
"html-button-response-clever","170","1550217","0.0-13.0-0.50","4695","Te bizony sokat trádlasz. Én is sokat...","1","trádlok","[""trádlom"",""trádlok""]","","posttest trial","4",""
"html-button-response-clever","171","1557161","0.0-13.0-0.51","6439","Te bizony sokat gyibeslesz. Én is sokat...","1","gyibeslek","[""gyibeslem"",""gyibeslek""]","","posttest trial","4",""
"html-button-response-clever","172","1560705","0.0-13.0-0.52","3039","Te bizony sokat huroslasz. Én is sokat...","1","huroslom","[""huroslok"",""huroslom""]","","posttest trial","4",""
"html-button-response-clever","173","1571801","0.0-13.0-0.53","10594","Te bizony sokat trehégszel. Én is sokat...","1","trehégszek","[""trehégszem"",""trehégszek""]","","posttest trial","4",""
"html-button-response","174","1578081","0.0-14.0","5775","<p> Vége a játéknak. A teljes pontszámod 25/54.</p><p> Szép munka! &#128526;&#128526;&#128526;</p><p>A Befejezés gomb megnyomása után bezárhatod a böngészőablakot.</p>","0","","","","","",""
"html-keyboard-response","175","1583593","0.0-15.0","null","<div class=""message"">
         <p>Egy kis türelmet kérünk, amíg elmentjük az adatokat...</p>
         </div>","null","","","","","",""
