"trial_type","trial_index","time_elapsed","internal_node_id","rt","stimulus","response","response_string","choices","esp_response","trial_kind","list_number","esp_match"
"pavlovia","0","673","0.0-0.0","","","","","","","","",""
"html-button-response","1","21806","0.0-1.0","20624","<p>Kedves Résztvevő! A Budapesti Műszaki és Gazdaságtudományi Egyetem Kognitív Tudományi Tanszékének kutatásában való részvételed kérjük. A kutatásban azt vizsgáljuk, hogy a magyar anyanyelvűek hogyan használnak bizonyos szóalakokat, és hogy milyen képük van arról, hogy mások hogyan használják, hogyan képzik a szavakat. Ez hozzásegít bennünket ahhoz, hogy jobban megértsük, hogyan dolgozza fel és tárolja a nyelvet az emberi agy, és hogyan működnek, hogyan változnak egy adott közösség nyelvi konvenciói.</p><p>A vizsgálat egy rövid számítógépes feladatból fog állni. A kutatásban való részvétel önkéntes, a részvételi szándék bármikor visszavonható. A résztvevők eredményeit név nélkül kezeljük, így nem beazonosíthatók az adatok feldolgozása során. Minden személyes adatot az EU általános adatvédelmi rendeletének (GDPR) megfelelően kezelünk és legfeljebb öt éven belül megsemmisítünk. A vizsgálat jellemzően húsz percet vesz igénybe.</p><p>Kutatásvezető:</p><p>Dr. Rácz Péter, tudományos munkatárs, BME KTT</p><p>e-mail: racz.peter.marton@ttk.bme.hu</p>","0","","","","","",""
"html-button-response","2","52596","0.0-2.0","30284","<p>A kísérletben szavakat fogsz látni. Ezek között lesznek olyanok, amelyeket ismersz, de előfordulhatnak olyanok is, amelyeket nem ismersz, sőt, vannak köztük kitalált szavak is. Minden szónál látni fogsz toldalékolt alakokat. A te feladatod az lesz, hogy minden szóhoz kiválaszd azt a toldalékolt alakot, amely a te számodra ismerősebben, természetesebben hangzik. Rossz válaszok nincsenek, mert van olyan, hogy különböző embereknek más és más szó tűnik jobb választásnak. A választ úgy tudod majd kiválasztani, ha rákattintasz.</p><p>Ebben a szóválasztós játékban egy másik játékossal együtt veszel majd részt. A másik játékos is minden esetben azok közül a lehetőségek közül válogathat, mint te. Kettőtök feladata az, hogy ugyanazt a lehetőséget válasszátok minden esetben. Ahhoz, hogy ez sikerüljön, neked figyelned kell arra, hogy a másik játékos milyen válaszokat ad, és ennek alapján meg kell tippelned, hogyan választ legközelebb. Ha eltalálod, akkor pontot kapsz.</p>","0","","","","","",""
"html-button-response","3","59393","0.0-3.0","6285","<p>Kérjük, olvasd el az alábbi nyilatkozatot, és amennyiben egyetértesz vele, nyomj a Beleegyezés gombra!</p><p>Kijelentem, hogy magyar anyanyelvű személyként önként veszek részt a BME KTT kísérletében. A kutatás céljával és folyamatával kapcsolatban elegendő tájékoztatást kaptam, lehetőségem volt kérdések feltételére, és esetleges kérdéseimre megfelelő válaszokat kaptam. A tájékoztatás alapján elegendő mennyiségű információ áll a rendelkezésemre, hogy eldönthessem, részt kívánok-e venni a kutatásban.</p><p>Tisztában vagyok vele, hogy részvételi szándékomat és adataimat bármikor, indoklás nélkül visszavonhatom.</p><p>Értem és tudomásul veszem, hogy a kutatás tudományos célokat szolgál, és az általam szolgáltatott adatokat a BME kizárólag kutatási célból használja fel. Tudomásul veszem, hogy eredményeimet a többi résztvevő eredményeivel együtt kezelik, így egyéni teljesítményemről visszajelzést, szakvéleményt nem kapok.</p><p>Megértettem, hogy adataim kezelését illetően a BME az EU általános adatvédelmi rendelete (GDPR), a hatályos adatvédelmi törvény és a nemzetközi kutatás-etikai alapelvek szerint jár el. Eredményeim anonim módon kerülnek feldolgozásra, és a kutatás résztvevői az azonosításomra alkalmas adataimat harmadik félnek nem szolgáltatják ki. Engedélyezem a BME számára a jelen kutatásban felvett adataim feldolgozását és tárolását, beleértve azok későbbi kutatásokhoz való felhasználását is. Személyes adataim kezelésével kapcsolatban tájékoztatást kérhetek a kutatás résztvevőitől, az adatkezelés ellen tiltakozhatok, kérhetem személyes adataim helyesbítését, törlését vagy zárolását, valamint jogorvoslatért a Nemzeti Adatvédelmi és Információszabadság Hatósághoz fordulhatok.</p><p>Kijelentem, hogy a kutatásban való részvételem körülményeiről részletes tájékoztatást kaptam, és a feltételeket elfogadom.</p>","0","","","","","",""
"survey-text","4","95188","0.0-4.0","35274","","{""Q0"":""J4U4W0"",""Q1"":""nő"",""Q2"":""1980.10.06"",""Q3"":""12""}","","","","","",""
"html-button-response","5","121222","0.0-5.0","25531","<p>Ebben a játékban szavakat kell toldalékolni.</p> <p>Minden körben mutatunk majd egy példamondatot, amiben lesz egy szó.</p> <p>Alatta jön egy második mondat, ezt a mondatot neked kell majd befejezni, ugyanezzel a szóval.</p> <p>Nem biztos, hogy a szó eleve ismerős lesz számodra!</p> <p>Minden mondathoz adunk két lehetőséget, ezeket balra és jobbra látod majd.</p> <p>A játék kb. negyedóráig-húsz percig tart.</p>","0","","","","","",""
"html-button-response","6","132759","0.0-6.0","11019","<p>Nézzünk egy példát!</p> <p>A példamondat: ""Ez itt egy blumbnyeg.""</p><p>Neked ezt a mondatot kell befejezned: ""Ott vagyunk a...""</p><p>A lehetőségek pedig ezek:</p>","0","","","","","",""
"html-button-response","7","139496","0.0-7.0","6227","<p>Nagyon jó.</p><p>Ezt a játékot nem egyedül fogod játszani, hanem egy másik játékossal.</p><p>Mielőtt továbblépünk, összekapcsolunk titeket egymással.</p><p>Ez igénybe vehet néhány másodpercet, amihez szíves türelmed kérjük.</p>","0","","","","","",""
"html-button-response","8","145244","0.0-8.0","null","<p>Csatlakozás a másik játékoshoz...</p>","null","","","","","",""
"html-button-response","9","147759","0.0-9.0","null","<p> Sikeres kapcsolódás!</p>","null","","","","","",""
"html-button-response","10","158286","0.0-10.0","null","<p>A következőkben ketten játsszátok a szóválasztós játékot.</p><p>A feladatotok az lesz, hogy minden körben <b>ugyanazt</b> a szót válasszátok.</p><p>Minden ilyen egyező válaszért pontot kaptok.</p><p>Próbáld meg kitalálni, mit választ a másik játékos!</p><p>Bármikor választhatsz, a körnek akkor van vége, ha mindketten döntöttetek.</p><p>Sok sikert!</p>","null","","","","","",""
"html-button-response-esp","11","166687","0.0-11.0-0.0","5012","Ez itt egy dutec. Nincs is jobb egy jó...","1","dutecnál","[""dutecnél"",""dutecnál""]","dutecnál","esp trial","5","true"
"html-button-response","12","170214","0.0-11.0-1.0","null","<p>A másik játékos ezt választotta: <b>dutecnál</b>.</p><p>&#x2705;</p><p>A te válaszod és a másik játékos válasza <b>megegyeznek</b>.</p>","null","","","","feedback trial","",""
"html-button-response-esp","13","178615","0.0-11.0-0.1","5537","Ez itt egy zarcég. Nincs is jobb egy jó...","0","zarcégnál","[""zarcégnál"",""zarcégnél""]","zarcégnál","esp trial","5","true"
"html-button-response","14","182127","0.0-11.0-1.1","null","<p>A másik játékos ezt választotta: <b>zarcégnál</b>.</p><p>&#x2705;</p><p>A te válaszod és a másik játékos válasza <b>megegyeznek</b>.</p>","null","","","","feedback trial","",""
"html-button-response-esp","15","190534","0.0-11.0-0.2","5099","Ez itt egy zábény. Elneveztem a kutyámat...","0","zábénynak","[""zábénynak"",""zábénynek""]","zábénynak","esp trial","5","true"
"html-button-response","16","194042","0.0-11.0-1.2","null","<p>A másik játékos ezt választotta: <b>zábénynak</b>.</p><p>&#x2705;</p><p>A te válaszod és a másik játékos válasza <b>megegyeznek</b>.</p>","null","","","","feedback trial","",""
"html-button-response-esp","17","202443","0.0-11.0-0.3","4815","Ez itt egy hijegy. Nincs is jobb egy jó...","1","hijegynál","[""hijegynél"",""hijegynál""]","hijegynél","esp trial","5","false"
"html-button-response","18","205972","0.0-11.0-1.3","null","<p>A másik játékos ezt választotta: <b>hijegynél</b>.</p><p>&#10060;</p><p>A válaszaitok <b>nem</b> egyeznek meg.</p>","null","","","","feedback trial","",""
"html-button-response-esp","19","214368","0.0-11.0-0.4","2693","Ez itt egy humék. Elneveztem a kutyámat...","1","huméknak","[""huméknek"",""huméknak""]","huméknak","esp trial","5","true"
"html-button-response","20","217884","0.0-11.0-1.4","null","<p>A másik játékos ezt választotta: <b>huméknak</b>.</p><p>&#x2705;</p><p>A te válaszod és a másik játékos válasza <b>megegyeznek</b>.</p>","null","","","","feedback trial","",""
"html-button-response-esp","21","226284","0.0-11.0-0.5","2417","Ez itt egy zined. Elneveztem a kutyámat...","1","zinednak","[""zinednek"",""zinednak""]","zinednek","esp trial","5","false"
"html-button-response","22","229803","0.0-11.0-1.5","null","<p>A másik játékos ezt választotta: <b>zinednek</b>.</p><p>&#10060;</p><p>A válaszaitok <b>nem</b> egyeznek meg.</p>","null","","","","feedback trial","",""
"html-button-response-esp","23","238198","0.0-11.0-0.6","3581","Ez itt egy murdes. Nincs is jobb egy jó...","0","murdesnál","[""murdesnál"",""murdesnél""]","murdesnál","esp trial","5","true"
"html-button-response","24","241706","0.0-11.0-1.6","null","<p>A másik játékos ezt választotta: <b>murdesnál</b>.</p><p>&#x2705;</p><p>A te válaszod és a másik játékos válasza <b>megegyeznek</b>.</p>","null","","","","feedback trial","",""
"html-button-response-esp","25","250116","0.0-11.0-0.7","2230","Ez itt egy jurdent. Nincs is jobb egy jó...","0","jurdentnál","[""jurdentnál"",""jurdentnél""]","jurdentnál","esp trial","5","true"
"html-button-response","26","253634","0.0-11.0-1.7","null","<p>A másik játékos ezt választotta: <b>jurdentnál</b>.</p><p>&#x2705;</p><p>A te válaszod és a másik játékos válasza <b>megegyeznek</b>.</p>","null","","","","feedback trial","",""
"html-button-response-esp","27","262062","0.0-11.0-0.8","3290","Ez itt egy dunkész. Ott vagyunk a...","1","dunkészban","[""dunkészben"",""dunkészban""]","dunkészban","esp trial","5","true"
"html-button-response","28","265579","0.0-11.0-1.8","null","<p>A másik játékos ezt választotta: <b>dunkészban</b>.</p><p>&#x2705;</p><p>A te válaszod és a másik játékos válasza <b>megegyeznek</b>.</p>","null","","","","feedback trial","",""
"html-button-response-esp","29","273989","0.0-11.0-0.9","3763","Ez itt egy vurnel. Elneveztem a kutyámat...","1","vurnelnak","[""vurnelnek"",""vurnelnak""]","vurnelnak","esp trial","5","true"
"html-button-response","30","277501","0.0-11.0-1.9","null","<p>A másik játékos ezt választotta: <b>vurnelnak</b>.</p><p>&#x2705;</p><p>A te válaszod és a másik játékos válasza <b>megegyeznek</b>.</p>","null","","","","feedback trial","",""
"html-button-response-esp","31","285908","0.0-11.0-0.10","3858","Ez itt egy klajrén. Elneveztem a kutyámat...","0","klajrénnak","[""klajrénnak"",""klajrénnek""]","klajrénnak","esp trial","5","true"
"html-button-response","32","289425","0.0-11.0-1.10","null","<p>A másik játékos ezt választotta: <b>klajrénnak</b>.</p><p>&#x2705;</p><p>A te válaszod és a másik játékos válasza <b>megegyeznek</b>.</p>","null","","","","feedback trial","",""
"html-button-response-esp","33","297840","0.0-11.0-0.11","2912","Ez itt egy vismer. Nincs is jobb egy jó...","0","vismernél","[""vismernél"",""vismernál""]","vismernél","esp trial","5","true"
"html-button-response","34","301370","0.0-11.0-1.11","null","<p>A másik játékos ezt választotta: <b>vismernél</b>.</p><p>&#x2705;</p><p>A te válaszod és a másik játékos válasza <b>megegyeznek</b>.</p>","null","","","","feedback trial","",""
"html-button-response-esp","35","309776","0.0-11.0-0.12","2854","Ez itt egy fupét. Nincs is jobb egy jó...","1","fupétnál","[""fupétnél"",""fupétnál""]","fupétnál","esp trial","5","true"
"html-button-response","36","313304","0.0-11.0-1.12","null","<p>A másik játékos ezt választotta: <b>fupétnál</b>.</p><p>&#x2705;</p><p>A te válaszod és a másik játékos válasza <b>megegyeznek</b>.</p>","null","","","","feedback trial","",""
"html-button-response-esp","37","321705","0.0-11.0-0.13","2718","Ez itt egy dibez. Ott vagyunk a...","0","dibezben","[""dibezben"",""dibezban""]","dibezben","esp trial","5","true"
"html-button-response","38","325210","0.0-11.0-1.13","null","<p>A másik játékos ezt választotta: <b>dibezben</b>.</p><p>&#x2705;</p><p>A te válaszod és a másik játékos válasza <b>megegyeznek</b>.</p>","null","","","","feedback trial","",""
"html-button-response-esp","39","333620","0.0-11.0-0.14","3379","Ez itt egy klítegy. Nincs is jobb egy jó...","0","klítegynél","[""klítegynél"",""klítegynál""]","klítegynál","esp trial","5","false"
"html-button-response","40","337145","0.0-11.0-1.14","null","<p>A másik játékos ezt választotta: <b>klítegynál</b>.</p><p>&#10060;</p><p>A válaszaitok <b>nem</b> egyeznek meg.</p>","null","","","","feedback trial","",""
"html-button-response-esp","41","345561","0.0-11.0-0.15","2809","Ez itt egy bingéj. Elneveztem a kutyámat...","0","bingéjnek","[""bingéjnek"",""bingéjnak""]","bingéjnak","esp trial","5","false"
"html-button-response","42","349076","0.0-11.0-1.15","null","<p>A másik játékos ezt választotta: <b>bingéjnak</b>.</p><p>&#10060;</p><p>A válaszaitok <b>nem</b> egyeznek meg.</p>","null","","","","feedback trial","",""
"html-button-response-esp","43","357488","0.0-11.0-0.16","5404","Ez itt egy cságyelt. Ott vagyunk a...","1","cságyeltban","[""cságyeltben"",""cságyeltban""]","cságyeltban","esp trial","5","true"
"html-button-response","44","361004","0.0-11.0-1.16","null","<p>A másik játékos ezt választotta: <b>cságyeltban</b>.</p><p>&#x2705;</p><p>A te válaszod és a másik játékos válasza <b>megegyeznek</b>.</p>","null","","","","feedback trial","",""
"html-button-response-esp","45","369406","0.0-11.0-0.17","2924","Ez itt egy pristél. Ott vagyunk a...","1","pristélben","[""pristélban"",""pristélben""]","pristélben","esp trial","5","true"
"html-button-response","46","372926","0.0-11.0-1.17","null","<p>A másik játékos ezt választotta: <b>pristélben</b>.</p><p>&#x2705;</p><p>A te válaszod és a másik játékos válasza <b>megegyeznek</b>.</p>","null","","","","feedback trial","",""
"html-button-response-esp","47","381335","0.0-11.0-0.18","3194","Ez itt egy fágyép. Nincs is jobb egy jó...","0","fágyépnál","[""fágyépnál"",""fágyépnél""]","fágyépnál","esp trial","5","true"
"html-button-response","48","384852","0.0-11.0-1.18","null","<p>A másik játékos ezt választotta: <b>fágyépnál</b>.</p><p>&#x2705;</p><p>A te válaszod és a másik játékos válasza <b>megegyeznek</b>.</p>","null","","","","feedback trial","",""
"html-button-response-esp","49","393261","0.0-11.0-0.19","2031","Ez itt egy sihen. Nincs is jobb egy jó...","1","sihennél","[""sihennál"",""sihennél""]","sihennél","esp trial","5","true"
"html-button-response","50","396787","0.0-11.0-1.19","null","<p>A másik játékos ezt választotta: <b>sihennél</b>.</p><p>&#x2705;</p><p>A te válaszod és a másik játékos válasza <b>megegyeznek</b>.</p>","null","","","","feedback trial","",""
"html-button-response-esp","51","405184","0.0-11.0-0.20","2240","Ez itt egy tivenc. Ott vagyunk a...","1","tivencben","[""tivencban"",""tivencben""]","tivencban","esp trial","5","false"
"html-button-response","52","408704","0.0-11.0-1.20","null","<p>A másik játékos ezt választotta: <b>tivencban</b>.</p><p>&#10060;</p><p>A válaszaitok <b>nem</b> egyeznek meg.</p>","null","","","","feedback trial","",""
"html-button-response-esp","53","417113","0.0-11.0-0.21","2780","Ez itt egy zsalrén. Elneveztem a kutyámat...","0","zsalrénnak","[""zsalrénnak"",""zsalrénnek""]","zsalrénnak","esp trial","5","true"
"html-button-response","54","420624","0.0-11.0-1.21","null","<p>A másik játékos ezt választotta: <b>zsalrénnak</b>.</p><p>&#x2705;</p><p>A te válaszod és a másik játékos válasza <b>megegyeznek</b>.</p>","null","","","","feedback trial","",""
"html-button-response-esp","55","429031","0.0-11.0-0.22","2952","Ez itt egy mádép. Nincs is jobb egy jó...","0","mádépnál","[""mádépnál"",""mádépnél""]","mádépnál","esp trial","5","true"
"html-button-response","56","432544","0.0-11.0-1.22","null","<p>A másik játékos ezt választotta: <b>mádépnál</b>.</p><p>&#x2705;</p><p>A te válaszod és a másik játékos válasza <b>megegyeznek</b>.</p>","null","","","","feedback trial","",""
"html-button-response-esp","57","440960","0.0-11.0-0.23","2660","Ez itt egy zatéj. Nincs is jobb egy jó...","1","zatéjnál","[""zatéjnél"",""zatéjnál""]","zatéjnál","esp trial","5","true"
"html-button-response","58","444483","0.0-11.0-1.23","null","<p>A másik játékos ezt választotta: <b>zatéjnál</b>.</p><p>&#x2705;</p><p>A te válaszod és a másik játékos válasza <b>megegyeznek</b>.</p>","null","","","","feedback trial","",""
"html-button-response-esp","59","452884","0.0-11.0-0.24","3086","Ez itt egy trodély. Ott vagyunk a...","0","trodélyban","[""trodélyban"",""trodélyben""]","trodélyban","esp trial","5","true"
"html-button-response","60","456399","0.0-11.0-1.24","null","<p>A másik játékos ezt választotta: <b>trodélyban</b>.</p><p>&#x2705;</p><p>A te válaszod és a másik játékos válasza <b>megegyeznek</b>.</p>","null","","","","feedback trial","",""
"html-button-response-esp","61","464804","0.0-11.0-0.25","3969","Ez itt egy lingék. Nincs is jobb egy jó...","0","lingéknél","[""lingéknél"",""lingéknál""]","lingéknél","esp trial","5","true"
"html-button-response","62","468317","0.0-11.0-1.25","null","<p>A másik játékos ezt választotta: <b>lingéknél</b>.</p><p>&#x2705;</p><p>A te válaszod és a másik játékos válasza <b>megegyeznek</b>.</p>","null","","","","feedback trial","",""
"html-button-response-esp","63","476728","0.0-11.0-0.26","1975","Ez itt egy nuhét. Nincs is jobb egy jó...","0","nuhétnál","[""nuhétnál"",""nuhétnél""]","nuhétnál","esp trial","5","true"
"html-button-response","64","480241","0.0-11.0-1.26","null","<p>A másik játékos ezt választotta: <b>nuhétnál</b>.</p><p>&#x2705;</p><p>A te válaszod és a másik játékos válasza <b>megegyeznek</b>.</p>","null","","","","feedback trial","",""
"html-button-response-esp","65","488657","0.0-11.0-0.27","3609","Ez itt egy lijez. Elneveztem a kutyámat...","0","lijeznek","[""lijeznek"",""lijeznak""]","lijeznek","esp trial","5","true"
"html-button-response","66","492182","0.0-11.0-1.27","null","<p>A másik játékos ezt választotta: <b>lijeznek</b>.</p><p>&#x2705;</p><p>A te válaszod és a másik játékos válasza <b>megegyeznek</b>.</p>","null","","","","feedback trial","",""
"html-button-response-esp","67","500580","0.0-11.0-0.28","5004","Ez itt egy fojlegy. Elneveztem a kutyámat...","1","fojlegynak","[""fojlegynek"",""fojlegynak""]","fojlegynek","esp trial","5","false"
"html-button-response","68","504102","0.0-11.0-1.28","null","<p>A másik játékos ezt választotta: <b>fojlegynek</b>.</p><p>&#10060;</p><p>A válaszaitok <b>nem</b> egyeznek meg.</p>","null","","","","feedback trial","",""
"html-button-response-esp","69","512504","0.0-11.0-0.29","3364","Ez itt egy jutély. Nincs is jobb egy jó...","0","jutélynál","[""jutélynál"",""jutélynél""]","jutélynál","esp trial","5","true"
"html-button-response","70","516018","0.0-11.0-1.29","null","<p>A másik játékos ezt választotta: <b>jutélynál</b>.</p><p>&#x2705;</p><p>A te válaszod és a másik játékos válasza <b>megegyeznek</b>.</p>","null","","","","feedback trial","",""
"html-button-response-esp","71","524422","0.0-11.0-0.30","2504","Ez itt egy szibed. Ott vagyunk a...","1","szibedben","[""szibedban"",""szibedben""]","szibedben","esp trial","5","true"
"html-button-response","72","527941","0.0-11.0-1.30","null","<p>A másik játékos ezt választotta: <b>szibedben</b>.</p><p>&#x2705;</p><p>A te válaszod és a másik játékos válasza <b>megegyeznek</b>.</p>","null","","","","feedback trial","",""
"html-button-response-esp","73","536354","0.0-11.0-0.31","2033","Ez itt egy szanéj. Elneveztem a kutyámat...","1","szanéjnak","[""szanéjnek"",""szanéjnak""]","szanéjnak","esp trial","5","true"
"html-button-response","74","539863","0.0-11.0-1.31","null","<p>A másik játékos ezt választotta: <b>szanéjnak</b>.</p><p>&#x2705;</p><p>A te válaszod és a másik játékos válasza <b>megegyeznek</b>.</p>","null","","","","feedback trial","",""
"html-button-response-esp","75","548274","0.0-11.0-0.32","1944","Ez itt egy pazév. Nincs is jobb egy jó...","1","pazévnál","[""pazévnél"",""pazévnál""]","pazévnál","esp trial","5","true"
"html-button-response","76","551796","0.0-11.0-1.32","null","<p>A másik játékos ezt választotta: <b>pazévnál</b>.</p><p>&#x2705;</p><p>A te válaszod és a másik játékos válasza <b>megegyeznek</b>.</p>","null","","","","feedback trial","",""
"html-button-response-esp","77","560199","0.0-11.0-0.33","2474","Ez itt egy kátéd. Nincs is jobb egy jó...","1","kátédnál","[""kátédnél"",""kátédnál""]","kátédnál","esp trial","5","true"
"html-button-response","78","563716","0.0-11.0-1.33","null","<p>A másik játékos ezt választotta: <b>kátédnál</b>.</p><p>&#x2705;</p><p>A te válaszod és a másik játékos válasza <b>megegyeznek</b>.</p>","null","","","","feedback trial","",""
"html-button-response-esp","79","572119","0.0-11.0-0.34","2868","Ez itt egy klazér. Ott vagyunk a...","0","klazérban","[""klazérban"",""klazérben""]","klazérban","esp trial","5","true"
"html-button-response","80","575626","0.0-11.0-1.34","null","<p>A másik játékos ezt választotta: <b>klazérban</b>.</p><p>&#x2705;</p><p>A te válaszod és a másik játékos válasza <b>megegyeznek</b>.</p>","null","","","","feedback trial","",""
"html-button-response-esp","81","584029","0.0-11.0-0.35","6326","Ez itt egy spizec. Elneveztem a kutyámat...","1","spizecnek","[""spizecnak"",""spizecnek""]","spizecnek","esp trial","5","true"
"html-button-response","82","587545","0.0-11.0-1.35","null","<p>A másik játékos ezt választotta: <b>spizecnek</b>.</p><p>&#x2705;</p><p>A te válaszod és a másik játékos válasza <b>megegyeznek</b>.</p>","null","","","","feedback trial","",""
"html-button-response-esp","83","595948","0.0-11.0-0.36","3062","Ez itt egy hosét. Elneveztem a kutyámat...","1","hosétnak","[""hosétnek"",""hosétnak""]","hosétnak","esp trial","5","true"
"html-button-response","84","599464","0.0-11.0-1.36","null","<p>A másik játékos ezt választotta: <b>hosétnak</b>.</p><p>&#x2705;</p><p>A te válaszod és a másik játékos válasza <b>megegyeznek</b>.</p>","null","","","","feedback trial","",""
"html-button-response-esp","85","607862","0.0-11.0-0.37","3823","Ez itt egy briskéd. Nincs is jobb egy jó...","1","briskédnél","[""briskédnál"",""briskédnél""]","briskédnál","esp trial","5","false"
"html-button-response","86","611375","0.0-11.0-1.37","null","<p>A másik játékos ezt választotta: <b>briskédnál</b>.</p><p>&#10060;</p><p>A válaszaitok <b>nem</b> egyeznek meg.</p>","null","","","","feedback trial","",""
"html-button-response-esp","87","619783","0.0-11.0-0.38","2840","Ez itt egy fizend. Ott vagyunk a...","0","fizendben","[""fizendben"",""fizendban""]","fizendben","esp trial","5","true"
"html-button-response","88","623300","0.0-11.0-1.38","null","<p>A másik játékos ezt választotta: <b>fizendben</b>.</p><p>&#x2705;</p><p>A te válaszod és a másik játékos válasza <b>megegyeznek</b>.</p>","null","","","","feedback trial","",""
"html-button-response-esp","89","631704","0.0-11.0-0.39","2751","Ez itt egy csodeg. Nincs is jobb egy jó...","1","csodegnál","[""csodegnél"",""csodegnál""]","csodegnál","esp trial","5","true"
"html-button-response","90","635224","0.0-11.0-1.39","null","<p>A másik játékos ezt választotta: <b>csodegnál</b>.</p><p>&#x2705;</p><p>A te válaszod és a másik játékos válasza <b>megegyeznek</b>.</p>","null","","","","feedback trial","",""
"html-button-response-esp","91","643627","0.0-11.0-0.40","3170","Ez itt egy dinelt. Ott vagyunk a...","1","dineltben","[""dineltban"",""dineltben""]","dineltben","esp trial","5","true"
"html-button-response","92","647137","0.0-11.0-1.40","null","<p>A másik játékos ezt választotta: <b>dineltben</b>.</p><p>&#x2705;</p><p>A te válaszod és a másik játékos válasza <b>megegyeznek</b>.</p>","null","","","","feedback trial","",""
"html-button-response-esp","93","655555","0.0-11.0-0.41","3191","Ez itt egy lihény. Elneveztem a kutyámat...","0","lihénynek","[""lihénynek"",""lihénynak""]","lihénynek","esp trial","5","true"
"html-button-response","94","659085","0.0-11.0-1.41","null","<p>A másik játékos ezt választotta: <b>lihénynek</b>.</p><p>&#x2705;</p><p>A te válaszod és a másik játékos válasza <b>megegyeznek</b>.</p>","null","","","","feedback trial","",""
"html-button-response-esp","95","667487","0.0-11.0-0.42","3172","Ez itt egy spivél. Elneveztem a kutyámat...","1","spivélnek","[""spivélnak"",""spivélnek""]","spivélnak","esp trial","5","false"
"html-button-response","96","671019","0.0-11.0-1.42","null","<p>A másik játékos ezt választotta: <b>spivélnak</b>.</p><p>&#10060;</p><p>A válaszaitok <b>nem</b> egyeznek meg.</p>","null","","","","feedback trial","",""
"html-button-response-esp","97","679431","0.0-11.0-0.43","3447","Ez itt egy trikép. Ott vagyunk a...","1","triképben","[""triképban"",""triképben""]","triképben","esp trial","5","true"
"html-button-response","98","682943","0.0-11.0-1.43","null","<p>A másik játékos ezt választotta: <b>triképben</b>.</p><p>&#x2705;</p><p>A te válaszod és a másik játékos válasza <b>megegyeznek</b>.</p>","null","","","","feedback trial","",""
"html-button-response-esp","99","691350","0.0-11.0-0.44","2420","Ez itt egy zuten. Nincs is jobb egy jó...","0","zutennél","[""zutennél"",""zutennál""]","zutennál","esp trial","5","false"
"html-button-response","100","694869","0.0-11.0-1.44","null","<p>A másik játékos ezt választotta: <b>zutennál</b>.</p><p>&#10060;</p><p>A válaszaitok <b>nem</b> egyeznek meg.</p>","null","","","","feedback trial","",""
"html-button-response-esp","101","703288","0.0-11.0-0.45","2557","Ez itt egy tumély. Nincs is jobb egy jó...","1","tumélynál","[""tumélynél"",""tumélynál""]","tumélynál","esp trial","5","true"
"html-button-response","102","706819","0.0-11.0-1.45","null","<p>A másik játékos ezt választotta: <b>tumélynál</b>.</p><p>&#x2705;</p><p>A te válaszod és a másik játékos válasza <b>megegyeznek</b>.</p>","null","","","","feedback trial","",""
"html-button-response-esp","103","715220","0.0-11.0-0.46","4729","Ez itt egy csublény. Ott vagyunk a...","1","csublényban","[""csublényben"",""csublényban""]","csublényban","esp trial","5","true"
"html-button-response","104","718748","0.0-11.0-1.46","null","<p>A másik játékos ezt választotta: <b>csublényban</b>.</p><p>&#x2705;</p><p>A te válaszod és a másik játékos válasza <b>megegyeznek</b>.</p>","null","","","","feedback trial","",""
"html-button-response-esp","105","727150","0.0-11.0-0.47","3105","Ez itt egy gábéd. Nincs is jobb egy jó...","0","gábédnál","[""gábédnál"",""gábédnél""]","gábédnál","esp trial","5","true"
"html-button-response","106","730662","0.0-11.0-1.47","null","<p>A másik játékos ezt választotta: <b>gábédnál</b>.</p><p>&#x2705;</p><p>A te válaszod és a másik játékos válasza <b>megegyeznek</b>.</p>","null","","","","feedback trial","",""
"html-button-response-esp","107","739061","0.0-11.0-0.48","2098","Ez itt egy dóbem. Elneveztem a kutyámat...","0","dóbemnak","[""dóbemnak"",""dóbemnek""]","dóbemnak","esp trial","5","true"
"html-button-response","108","742582","0.0-11.0-1.48","null","<p>A másik játékos ezt választotta: <b>dóbemnak</b>.</p><p>&#x2705;</p><p>A te válaszod és a másik játékos válasza <b>megegyeznek</b>.</p>","null","","","","feedback trial","",""
"html-button-response-esp","109","750978","0.0-11.0-0.49","1729","Ez itt egy tarhéz. Ott vagyunk a...","0","tarhézban","[""tarhézban"",""tarhézben""]","tarhézban","esp trial","5","true"
"html-button-response","110","754500","0.0-11.0-1.49","null","<p>A másik játékos ezt választotta: <b>tarhézban</b>.</p><p>&#x2705;</p><p>A te válaszod és a másik játékos válasza <b>megegyeznek</b>.</p>","null","","","","feedback trial","",""
"html-button-response-esp","111","762893","0.0-11.0-0.50","7868","Ez itt egy dajrens. Nincs is jobb egy jó...","0","dajrensnál","[""dajrensnál"",""dajrensnél""]","dajrensnál","esp trial","5","true"
"html-button-response","112","766402","0.0-11.0-1.50","null","<p>A másik játékos ezt választotta: <b>dajrensnál</b>.</p><p>&#x2705;</p><p>A te válaszod és a másik játékos válasza <b>megegyeznek</b>.</p>","null","","","","feedback trial","",""
"html-button-response-esp","113","774796","0.0-11.0-0.51","5086","Ez itt egy spatel. Elneveztem a kutyámat...","0","spatelnak","[""spatelnak"",""spatelnek""]","spatelnak","esp trial","5","true"
"html-button-response","114","778317","0.0-11.0-1.51","null","<p>A másik játékos ezt választotta: <b>spatelnak</b>.</p><p>&#x2705;</p><p>A te válaszod és a másik játékos válasza <b>megegyeznek</b>.</p>","null","","","","feedback trial","",""
"html-button-response-esp","115","786729","0.0-11.0-0.52","2905","Ez itt egy surnegy. Nincs is jobb egy jó...","1","surnegynál","[""surnegynél"",""surnegynál""]","surnegynál","esp trial","5","true"
"html-button-response","116","790240","0.0-11.0-1.52","null","<p>A másik játékos ezt választotta: <b>surnegynál</b>.</p><p>&#x2705;</p><p>A te válaszod és a másik játékos válasza <b>megegyeznek</b>.</p>","null","","","","feedback trial","",""
"html-button-response-esp","117","798650","0.0-11.0-0.53","3100","Ez itt egy vodec. Nincs is jobb egy jó...","1","vodecnál","[""vodecnél"",""vodecnál""]","vodecnál","esp trial","5","true"
"html-button-response","118","802171","0.0-11.0-1.53","null","<p>A másik játékos ezt választotta: <b>vodecnál</b>.</p><p>&#x2705;</p><p>A te válaszod és a másik játékos válasza <b>megegyeznek</b>.</p>","null","","","","feedback trial","",""
"html-button-response","119","811862","0.0-12.0","9178","<p>A közös játék most véget ért.</p><p>Mielőtt eláruljuk a végső pontszámodat, arra kérlek, játszd a szóválasztós játékot néhány percig egyedül is.</p><p>A feladatod ugyanaz lesz, választani két lehetőség közül.</p><p>Most viszont egyedül kell döntened, hogy te melyiket választanád.</p>","0","","","","","",""
"html-button-response-clever","120","815268","0.0-13.0-0.0","2899","Ez itt egy trincseg. Ott vagyunk a...","1","trincsegben","[""trincsegban"",""trincsegben""]","","posttest trial","8",""
"html-button-response-clever","121","818925","0.0-13.0-0.1","3140","Ez itt egy zsopéd. Ott vagyunk a...","1","zsopédban","[""zsopédben"",""zsopédban""]","","posttest trial","8",""
"html-button-response-clever","122","823336","0.0-13.0-0.2","3896","Ez itt egy buhény. Ott vagyunk a...","1","buhényban","[""buhényben"",""buhényban""]","","posttest trial","8",""
"html-button-response-clever","123","826064","0.0-13.0-0.3","2215","Ez itt egy kliszer. Nincs is jobb egy jó...","0","kliszernél","[""kliszernél"",""kliszernál""]","","posttest trial","8",""
"html-button-response-clever","124","827788","0.0-13.0-0.4","1222","Ez itt egy bidem. Ott vagyunk a...","0","bidemben","[""bidemben"",""bidemban""]","","posttest trial","8",""
"html-button-response-clever","125","830211","0.0-13.0-0.5","1911","Ez itt egy ronvet. Elneveztem a kutyámat...","1","ronvetnak","[""ronvetnek"",""ronvetnak""]","","posttest trial","8",""
"html-button-response-clever","126","837988","0.0-13.0-0.6","7273","Ez itt egy szihét. Elneveztem a kutyámat...","1","szihétnek","[""szihétnak"",""szihétnek""]","","posttest trial","8",""
"html-button-response-clever","127","840737","0.0-13.0-0.7","2236","Ez itt egy matéz. Ott vagyunk a...","1","matézban","[""matézben"",""matézban""]","","posttest trial","8",""
"html-button-response-clever","128","845300","0.0-13.0-0.8","4058","Ez itt egy kadér. Nincs is jobb egy jó...","0","kadérnál","[""kadérnál"",""kadérnél""]","","posttest trial","8",""
"html-button-response-clever","129","847862","0.0-13.0-0.9","2045","Ez itt egy trigenc. Elneveztem a kutyámat...","1","trigencnek","[""trigencnak"",""trigencnek""]","","posttest trial","8",""
"html-button-response-clever","130","852460","0.0-13.0-0.10","4092","Ez itt egy kábesz. Nincs is jobb egy jó...","1","kábesznél","[""kábesznál"",""kábesznél""]","","posttest trial","8",""
"html-button-response-clever","131","855969","0.0-13.0-0.11","3004","Ez itt egy júder. Elneveztem a kutyámat...","0","júdernak","[""júdernak"",""júdernek""]","","posttest trial","8",""
"html-button-response-clever","132","862455","0.0-13.0-0.12","5971","Ez itt egy hóbens. Ott vagyunk a...","0","hóbensban","[""hóbensban"",""hóbensben""]","","posttest trial","8",""
"html-button-response-clever","133","865225","0.0-13.0-0.13","2258","Ez itt egy giheszt. Elneveztem a kutyámat...","0","gihesztnek","[""gihesztnek"",""gihesztnak""]","","posttest trial","8",""
"html-button-response-clever","134","868971","0.0-13.0-0.14","3237","Ez itt egy brigeszt. Elneveztem a kutyámat...","1","brigesztnek","[""brigesztnak"",""brigesztnek""]","","posttest trial","8",""
"html-button-response-clever","135","873062","0.0-13.0-0.15","3580","Ez itt egy prately. Elneveztem a kutyámat...","1","pratelynak","[""pratelynek"",""pratelynak""]","","posttest trial","8",""
"html-button-response-clever","136","876095","0.0-13.0-0.16","2526","Ez itt egy vublet. Nincs is jobb egy jó...","1","vubletnál","[""vubletnél"",""vubletnál""]","","posttest trial","8",""
"html-button-response-clever","137","878546","0.0-13.0-0.17","1944","Ez itt egy nyarcéj. Elneveztem a kutyámat...","1","nyarcéjnak","[""nyarcéjnek"",""nyarcéjnak""]","","posttest trial","8",""
"html-button-response-clever","138","881122","0.0-13.0-0.18","2069","Ez itt egy jorzég. Elneveztem a kutyámat...","0","jorzégnak","[""jorzégnak"",""jorzégnek""]","","posttest trial","8",""
"html-button-response-clever","139","884901","0.0-13.0-0.19","3268","Ez itt egy klordény. Elneveztem a kutyámat...","1","klordénynak","[""klordénynek"",""klordénynak""]","","posttest trial","8",""
"html-button-response-clever","140","888667","0.0-13.0-0.20","3251","Ez itt egy csimen. Nincs is jobb egy jó...","0","csimennél","[""csimennél"",""csimennál""]","","posttest trial","8",""
"html-button-response-clever","141","891643","0.0-13.0-0.21","2459","Ez itt egy brotes. Ott vagyunk a...","1","brotesban","[""brotesben"",""brotesban""]","","posttest trial","8",""
"html-button-response-clever","142","894129","0.0-13.0-0.22","1978","Ez itt egy navec. Ott vagyunk a...","1","navecban","[""navecben"",""navecban""]","","posttest trial","8",""
"html-button-response-clever","143","896663","0.0-13.0-0.23","2026","Ez itt egy fádens. Elneveztem a kutyámat...","0","fádensnak","[""fádensnak"",""fádensnek""]","","posttest trial","8",""
"html-button-response-clever","144","899902","0.0-13.0-0.24","2732","Ez itt egy vodép. Elneveztem a kutyámat...","0","vodépnak","[""vodépnak"",""vodépnek""]","","posttest trial","8",""
"html-button-response-clever","145","902442","0.0-13.0-0.25","2025","Ez itt egy gonszék. Nincs is jobb egy jó...","1","gonszéknál","[""gonszéknél"",""gonszéknál""]","","posttest trial","8",""
"html-button-response-clever","146","905164","0.0-13.0-0.26","2213","Ez itt egy bródesz. Elneveztem a kutyámat...","1","bródesznak","[""bródesznek"",""bródesznak""]","","posttest trial","8",""
"html-button-response-clever","147","909623","0.0-13.0-0.27","3955","Ez itt egy nyábét. Ott vagyunk a...","1","nyábétban","[""nyábétben"",""nyábétban""]","","posttest trial","8",""
"html-button-response-clever","148","911692","0.0-13.0-0.28","1545","Ez itt egy tranék. Ott vagyunk a...","1","tranékban","[""tranékben"",""tranékban""]","","posttest trial","8",""
"html-button-response-clever","149","916380","0.0-13.0-0.29","4180","Ez itt egy sprízem. Nincs is jobb egy jó...","0","sprízemnál","[""sprízemnál"",""sprízemnél""]","","posttest trial","8",""
"html-button-response-clever","150","922669","0.0-13.0-0.30","5783","Ez itt egy nidét. Ott vagyunk a...","1","nidétben","[""nidétban"",""nidétben""]","","posttest trial","8",""
"html-button-response-clever","151","926137","0.0-13.0-0.31","2953","Ez itt egy forzéd. Elneveztem a kutyámat...","0","forzédnak","[""forzédnak"",""forzédnek""]","","posttest trial","8",""
"html-button-response-clever","152","929462","0.0-13.0-0.32","2813","Ez itt egy gicéj. Nincs is jobb egy jó...","1","gicéjnél","[""gicéjnál"",""gicéjnél""]","","posttest trial","8",""
"html-button-response-clever","153","932008","0.0-13.0-0.33","2041","Ez itt egy dingec. Elneveztem a kutyámat...","0","dingecnek","[""dingecnek"",""dingecnak""]","","posttest trial","8",""
"html-button-response-clever","154","935012","0.0-13.0-0.34","2495","Ez itt egy kluhéj. Nincs is jobb egy jó...","0","kluhéjnál","[""kluhéjnál"",""kluhéjnél""]","","posttest trial","8",""
"html-button-response-clever","155","936999","0.0-13.0-0.35","1480","Ez itt egy gótem. Elneveztem a kutyámat...","1","gótemnek","[""gótemnak"",""gótemnek""]","","posttest trial","8",""
"html-button-response-clever","156","943647","0.0-13.0-0.36","6145","Ez itt egy priszkenc. Elneveztem a kutyámat...","0","priszkencnek","[""priszkencnek"",""priszkencnak""]","","posttest trial","8",""
"html-button-response-clever","157","948520","0.0-13.0-0.37","4369","Ez itt egy csartény. Elneveztem a kutyámat...","1","csarténynak","[""csarténynek"",""csarténynak""]","","posttest trial","8",""
"html-button-response-clever","158","951012","0.0-13.0-0.38","1977","Ez itt egy sporzem. Elneveztem a kutyámat...","1","sporzemnak","[""sporzemnek"",""sporzemnak""]","","posttest trial","8",""
"html-button-response-clever","159","953899","0.0-13.0-0.39","2380","Ez itt egy ikszert. Ott vagyunk a...","0","ikszertben","[""ikszertben"",""ikszertban""]","","posttest trial","8",""
"html-button-response-clever","160","956231","0.0-13.0-0.40","1830","Ez itt egy fincek. Nincs is jobb egy jó...","1","finceknél","[""finceknál"",""finceknél""]","","posttest trial","8",""
"html-button-response-clever","161","962152","0.0-13.0-0.41","5417","Ez itt egy trapszegy. Nincs is jobb egy jó...","0","trapszegynél","[""trapszegynél"",""trapszegynál""]","","posttest trial","8",""
"html-button-response-clever","162","965655","0.0-13.0-0.42","2987","Ez itt egy licegy. Ott vagyunk a...","1","licegyben","[""licegyban"",""licegyben""]","","posttest trial","8",""
"html-button-response-clever","163","968119","0.0-13.0-0.43","1952","Ez itt egy brágéd. Elneveztem a kutyámat...","1","brágédnak","[""brágédnek"",""brágédnak""]","","posttest trial","8",""
"html-button-response-clever","164","970749","0.0-13.0-0.44","2117","Ez itt egy csinték. Ott vagyunk a...","0","csintékben","[""csintékben"",""csintékban""]","","posttest trial","8",""
"html-button-response-clever","165","973145","0.0-13.0-0.45","1894","Ez itt egy lismév. Ott vagyunk a...","0","lismévben","[""lismévben"",""lismévban""]","","posttest trial","8",""
"html-button-response-clever","166","977728","0.0-13.0-0.46","4077","Ez itt egy hivép. Ott vagyunk a...","1","hivépben","[""hivépban"",""hivépben""]","","posttest trial","8",""
"html-button-response-clever","167","980276","0.0-13.0-0.47","2042","Ez itt egy szutend. Ott vagyunk a...","1","szutendben","[""szutendban"",""szutendben""]","","posttest trial","8",""
"html-button-response-clever","168","985925","0.0-13.0-0.48","5142","Ez itt egy jábéz. Ott vagyunk a...","1","jábézban","[""jábézben"",""jábézban""]","","posttest trial","8",""
"html-button-response-clever","169","988280","0.0-13.0-0.49","1847","Ez itt egy spáten. Elneveztem a kutyámat...","0","spátennak","[""spátennak"",""spátennek""]","","posttest trial","8",""
"html-button-response-clever","170","992296","0.0-13.0-0.50","3514","Ez itt egy jalrény. Nincs is jobb egy jó...","0","jalrénynál","[""jalrénynál"",""jalrénynél""]","","posttest trial","8",""
"html-button-response-clever","171","995411","0.0-13.0-0.51","2611","Ez itt egy tránély. Elneveztem a kutyámat...","0","tránélynak","[""tránélynak"",""tránélynek""]","","posttest trial","8",""
"html-button-response-clever","172","998736","0.0-13.0-0.52","2818","Ez itt egy sartely. Ott vagyunk a...","1","sartelyban","[""sartelyben"",""sartelyban""]","","posttest trial","8",""
"html-button-response-clever","173","1003762","0.0-13.0-0.53","4512","Ez itt egy brukész. Nincs is jobb egy jó...","0","brukésznál","[""brukésznál"",""brukésznél""]","","posttest trial","8",""
"html-button-response","174","1009786","0.0-14.0","5517","<p> Vége a játéknak. A teljes pontszámod 45/54.</p><p> Szép munka! &#128526;&#128526;&#128526;</p><p>A Befejezés gomb megnyomása után bezárhatod a böngészőablakot.</p>","0","","","","","",""
"html-keyboard-response","175","1015315","0.0-15.0","null","<div class=""message"">
         <p>Egy kis türelmet kérünk, amíg elmentjük az adatokat...</p>
         </div>","null","","","","","",""
