"trial_type","trial_index","time_elapsed","internal_node_id","rt","stimulus","response","response_string","choices","esp_response","trial_kind","list_number","esp_match"
"pavlovia","0","791","0.0-0.0","","","","","","","","",""
"html-button-response","1","113838","0.0-1.0","112543","<p>Kedves Résztvevő! A Budapesti Műszaki és Gazdaságtudományi Egyetem Kognitív Tudományi Tanszékének kutatásában való részvételed kérjük. A kutatásban azt vizsgáljuk, hogy a magyar anyanyelvűek hogyan használnak bizonyos szóalakokat, és hogy milyen képük van arról, hogy mások hogyan használják, hogyan képzik a szavakat. Ez hozzásegít bennünket ahhoz, hogy jobban megértsük, hogyan dolgozza fel és tárolja a nyelvet az emberi agy, és hogyan működnek, hogyan változnak egy adott közösség nyelvi konvenciói.</p><p>A vizsgálat egy rövid számítógépes feladatból fog állni. A kutatásban való részvétel önkéntes, a részvételi szándék bármikor visszavonható. A résztvevők eredményeit név nélkül kezeljük, így nem beazonosíthatók az adatok feldolgozása során. Minden személyes adatot az EU általános adatvédelmi rendeletének (GDPR) megfelelően kezelünk és legfeljebb öt éven belül megsemmisítünk. A vizsgálat jellemzően húsz percet vesz igénybe.</p><p>Kutatásvezető:</p><p>Dr. Rácz Péter, tudományos munkatárs, BME KTT</p><p>e-mail: racz.peter.marton@ttk.bme.hu</p>","0","","","","","",""
"html-button-response","2","148747","0.0-2.0","34408","<p>A kísérletben szavakat fogsz látni. Ezek között lesznek olyanok, amelyeket ismersz, de előfordulhatnak olyanok is, amelyeket nem ismersz, sőt, vannak köztük kitalált szavak is. Minden szónál látni fogsz toldalékolt alakokat. A te feladatod az lesz, hogy minden szóhoz kiválaszd azt a toldalékolt alakot, amely a te számodra ismerősebben, természetesebben hangzik. Rossz válaszok nincsenek, mert van olyan, hogy különböző embereknek más és más szó tűnik jobb választásnak. A választ úgy tudod majd kiválasztani, ha rákattintasz.</p><p>Ebben a szóválasztós játékban egy másik játékossal együtt veszel majd részt. A másik játékos is minden esetben azok közül a lehetőségek közül válogathat, mint te. Kettőtök feladata az, hogy ugyanazt a lehetőséget válasszátok minden esetben. Ahhoz, hogy ez sikerüljön, neked figyelned kell arra, hogy a másik játékos milyen válaszokat ad, és ennek alapján meg kell tippelned, hogyan választ legközelebb. Ha eltalálod, akkor pontot kapsz.</p>","0","","","","","",""
"html-button-response","3","243846","0.0-3.0","94599","<p>Kérjük, olvasd el az alábbi nyilatkozatot, és amennyiben egyetértesz vele, nyomj a Beleegyezés gombra!</p><p>Kijelentem, hogy magyar anyanyelvű személyként önként veszek részt a BME KTT kísérletében. A kutatás céljával és folyamatával kapcsolatban elegendő tájékoztatást kaptam, lehetőségem volt kérdések feltételére, és esetleges kérdéseimre megfelelő válaszokat kaptam. A tájékoztatás alapján elegendő mennyiségű információ áll a rendelkezésemre, hogy eldönthessem, részt kívánok-e venni a kutatásban.</p><p>Tisztában vagyok vele, hogy részvételi szándékomat és adataimat bármikor, indoklás nélkül visszavonhatom.</p><p>Értem és tudomásul veszem, hogy a kutatás tudományos célokat szolgál, és az általam szolgáltatott adatokat a BME kizárólag kutatási célból használja fel. Tudomásul veszem, hogy eredményeimet a többi résztvevő eredményeivel együtt kezelik, így egyéni teljesítményemről visszajelzést, szakvéleményt nem kapok.</p><p>Megértettem, hogy adataim kezelését illetően a BME az EU általános adatvédelmi rendelete (GDPR), a hatályos adatvédelmi törvény és a nemzetközi kutatás-etikai alapelvek szerint jár el. Eredményeim anonim módon kerülnek feldolgozásra, és a kutatás résztvevői az azonosításomra alkalmas adataimat harmadik félnek nem szolgáltatják ki. Engedélyezem a BME számára a jelen kutatásban felvett adataim feldolgozását és tárolását, beleértve azok későbbi kutatásokhoz való felhasználását is. Személyes adataim kezelésével kapcsolatban tájékoztatást kérhetek a kutatás résztvevőitől, az adatkezelés ellen tiltakozhatok, kérhetem személyes adataim helyesbítését, törlését vagy zárolását, valamint jogorvoslatért a Nemzeti Adatvédelmi és Információszabadság Hatósághoz fordulhatok.</p><p>Kijelentem, hogy a kutatásban való részvételem körülményeiről részletes tájékoztatást kaptam, és a feltételeket elfogadom.</p>","0","","","","","",""
"survey-text","4","282472","0.0-4.0","38121","","{""Q0"":""W1W5BR"",""Q1"":""férfi"",""Q2"":""2003"",""Q3"":""12,5""}","","","","","",""
"html-button-response","5","299102","0.0-5.0","16129","<p>Ebben a játékban szavakat kell toldalékolni.</p> <p>Minden körben mutatunk majd egy példamondatot, amiben lesz egy szó.</p> <p>Alatta jön egy második mondat, ezt a mondatot neked kell majd befejezni, ugyanezzel a szóval.</p> <p>Nem biztos, hogy a szó eleve ismerős lesz számodra!</p> <p>Minden mondathoz adunk két lehetőséget, ezeket balra és jobbra látod majd.</p> <p>A játék kb. negyedóráig-húsz percig tart.</p>","0","","","","","",""
"html-button-response","6","342567","0.0-6.0","42951","<p>Nézzünk egy példát!</p> <p>A példamondat: ""János imád fláramolni, ezért sokat fláramlik. Mi ritkán...""</p><p>Neked ezt a mondatot kell befejezned: ""Ti ritkán...""</p><p>A lehetőségek pedig ezek:</p>","0","","","","","",""
"html-button-response","7","348974","0.0-7.0","5906","<p>Nagyon jó.</p><p>Ezt a játékot nem egyedül fogod játszani, hanem egy másik játékossal.</p><p>Mielőtt továbblépünk, összekapcsolunk titeket egymással.</p><p>Ez igénybe vehet néhány másodpercet, amihez szíves türelmed kérjük.</p>","0","","","","","",""
"html-button-response","8","354708","0.0-8.0","null","<p>Csatlakozás a másik játékoshoz...</p>","null","","","","","",""
"html-button-response","9","357230","0.0-9.0","null","<p> Sikeres kapcsolódás!</p>","null","","","","","",""
"html-button-response","10","367730","0.0-10.0","null","<p>A következőkben ketten játsszátok a szóválasztós játékot.</p><p>A feladatotok az lesz, hogy minden körben <b>ugyanazt</b> a szót válasszátok.</p><p>Minden ilyen egyező válaszért pontot kaptok.</p><p>Próbáld meg kitalálni, mit választ a másik játékos!</p><p>Bármikor választhatsz, a körnek akkor van vége, ha mindketten döntöttetek.</p><p>Sok sikert!</p>","null","","","","","",""
"html-button-response-esp","11","378633","0.0-11.0-0.0","10397","János imád géregezni, ezért sokat géreglik. Ti ritkán...","0","géregeztek","[""géregeztek"",""géregletek""]","géregletek","esp trial","0","false"
"html-button-response","12","382159","0.0-11.0-1.0","null","<p>A másik játékos ezt választotta: <b>géregletek</b>.</p><p>&#10060;</p><p>A válaszaitok <b>nem</b> egyeznek meg.</p>","null","","","","feedback trial","",""
"html-button-response-esp","13","390602","0.0-11.0-0.1","7929","János imád metégedni, ezért sokat metégszik. Ők ritkán...","1","metégednek","[""metégszenek"",""metégednek""]","metégszenek","esp trial","0","false"
"html-button-response","14","394104","0.0-11.0-1.1","null","<p>A másik játékos ezt választotta: <b>metégszenek</b>.</p><p>&#10060;</p><p>A válaszaitok <b>nem</b> egyeznek meg.</p>","null","","","","feedback trial","",""
"html-button-response-esp","15","400106","0.0-11.0-0.2","5481","János imád flátozni, ezért sokat flátlik. Ti ritkán...","0","flátoztok","[""flátoztok"",""flátlotok""]","flátlotok","esp trial","0","false"
"html-button-response","16","403636","0.0-11.0-1.2","null","<p>A másik játékos ezt választotta: <b>flátlotok</b>.</p><p>&#10060;</p><p>A válaszaitok <b>nem</b> egyeznek meg.</p>","null","","","","feedback trial","",""
"html-button-response-esp","17","409648","0.0-11.0-0.3","5331","János imád bötőrözni, ezért sokat bötőrzik. Mi ritkán...","0","bötőrzünk","[""bötőrzünk"",""bötőrözünk""]","bötőrzünk","esp trial","0","true"
"html-button-response","18","413155","0.0-11.0-1.3","null","<p>A másik játékos ezt választotta: <b>bötőrzünk</b>.</p><p>&#x2705;</p><p>A te válaszod és a másik játékos válasza <b>megegyeznek</b>.</p>","null","","","","feedback trial","",""
"html-button-response-esp","19","419176","0.0-11.0-0.4","5520","János imád ribegedni, ezért sokat ribegszik. Ti ritkán...","0","ribegszetek","[""ribegszetek"",""ribegedtek""]","ribegszetek","esp trial","0","true"
"html-button-response","20","422699","0.0-11.0-1.4","null","<p>A másik játékos ezt választotta: <b>ribegszetek</b>.</p><p>&#x2705;</p><p>A te válaszod és a másik játékos válasza <b>megegyeznek</b>.</p>","null","","","","feedback trial","",""
"html-button-response-esp","21","429553","0.0-11.0-0.5","6342","János imád hiragozni, ezért sokat hiragzik. Ők ritkán...","1","hiragoznak","[""hiragzanak"",""hiragoznak""]","hiragzanak","esp trial","0","false"
"html-button-response","22","433071","0.0-11.0-1.5","null","<p>A másik játékos ezt választotta: <b>hiragzanak</b>.</p><p>&#10060;</p><p>A válaszaitok <b>nem</b> egyeznek meg.</p>","null","","","","feedback trial","",""
"html-button-response-esp","23","439088","0.0-11.0-0.6","3834","János imád flodozni, ezért sokat flodlik. Ti ritkán...","1","flodoztok","[""flodlotok"",""flodoztok""]","flodlotok","esp trial","0","false"
"html-button-response","24","442610","0.0-11.0-1.6","null","<p>A másik játékos ezt választotta: <b>flodlotok</b>.</p><p>&#10060;</p><p>A válaszaitok <b>nem</b> egyeznek meg.</p>","null","","","","feedback trial","",""
"html-button-response-esp","25","448611","0.0-11.0-0.7","3998","János imád sprebezni, ezért sokat sprebzik. Ők ritkán...","1","sprebeznek","[""sprebzenek"",""sprebeznek""]","sprebzenek","esp trial","0","false"
"html-button-response","26","452138","0.0-11.0-1.7","null","<p>A másik játékos ezt választotta: <b>sprebzenek</b>.</p><p>&#10060;</p><p>A válaszaitok <b>nem</b> egyeznek meg.</p>","null","","","","feedback trial","",""
"html-button-response-esp","27","460383","0.0-11.0-0.8","7744","János imád vilesezni, ezért sokat vileslik. Mi ritkán...","0","vilesezünk","[""vilesezünk"",""vileslünk""]","vileslünk","esp trial","0","false"
"html-button-response","28","463890","0.0-11.0-1.8","null","<p>A másik játékos ezt választotta: <b>vileslünk</b>.</p><p>&#10060;</p><p>A válaszaitok <b>nem</b> egyeznek meg.</p>","null","","","","feedback trial","",""
"html-button-response-esp","29","469907","0.0-11.0-0.9","4581","János imád spivejezni, ezért sokat spivejlik. Ők ritkán...","0","spivejlenek","[""spivejlenek"",""spivejeznek""]","spivejlenek","esp trial","0","true"
"html-button-response","30","473434","0.0-11.0-1.9","null","<p>A másik játékos ezt választotta: <b>spivejlenek</b>.</p><p>&#x2705;</p><p>A te válaszod és a másik játékos válasza <b>megegyeznek</b>.</p>","null","","","","feedback trial","",""
"html-button-response-esp","31","479445","0.0-11.0-0.10","4314","János imád brürözni, ezért sokat brürzik. Ők ritkán...","0","brürzenek","[""brürzenek"",""brüröznek""]","brürzenek","esp trial","0","true"
"html-button-response","32","482949","0.0-11.0-1.10","null","<p>A másik játékos ezt választotta: <b>brürzenek</b>.</p><p>&#x2705;</p><p>A te válaszod és a másik játékos válasza <b>megegyeznek</b>.</p>","null","","","","feedback trial","",""
"html-button-response-esp","33","488967","0.0-11.0-0.11","2867","János imád klihasozni, ezért sokat klihaslik. Ti ritkán...","1","klihaslotok","[""klihasoztok"",""klihaslotok""]","klihaslotok","esp trial","0","true"
"html-button-response","34","492475","0.0-11.0-1.11","null","<p>A másik játékos ezt választotta: <b>klihaslotok</b>.</p><p>&#x2705;</p><p>A te válaszod és a másik játékos válasza <b>megegyeznek</b>.</p>","null","","","","feedback trial","",""
"html-button-response-esp","35","498740","0.0-11.0-0.12","5750","János imád bribasozni, ezért sokat bribaslik. Ők ritkán...","0","bribaslanak","[""bribaslanak"",""bribasoznak""]","bribaslanak","esp trial","0","true"
"html-button-response","36","502261","0.0-11.0-1.12","null","<p>A másik játékos ezt választotta: <b>bribaslanak</b>.</p><p>&#x2705;</p><p>A te válaszod és a másik játékos válasza <b>megegyeznek</b>.</p>","null","","","","feedback trial","",""
"html-button-response-esp","37","508288","0.0-11.0-0.13","3660","János imád sztredezni, ezért sokat sztredlik. Ti ritkán...","1","sztredletek","[""sztredeztek"",""sztredletek""]","sztredletek","esp trial","0","true"
"html-button-response","38","511791","0.0-11.0-1.13","null","<p>A másik játékos ezt választotta: <b>sztredletek</b>.</p><p>&#x2705;</p><p>A te válaszod és a másik játékos válasza <b>megegyeznek</b>.</p>","null","","","","feedback trial","",""
"html-button-response-esp","39","517804","0.0-11.0-0.14","4079","János imád klűmözni, ezért sokat klűmlik. Ti ritkán...","1","klűmlötök","[""klűmöztök"",""klűmlötök""]","klűmlötök","esp trial","0","true"
"html-button-response","40","521313","0.0-11.0-1.14","null","<p>A másik játékos ezt választotta: <b>klűmlötök</b>.</p><p>&#x2705;</p><p>A te válaszod és a másik játékos válasza <b>megegyeznek</b>.</p>","null","","","","feedback trial","",""
"html-button-response-esp","41","527333","0.0-11.0-0.15","4005","János imád nyöbözni, ezért sokat nyöbzik. Ők ritkán...","0","nyöböznek","[""nyöböznek"",""nyöbzenek""]","nyöbzenek","esp trial","0","false"
"html-button-response","42","530847","0.0-11.0-1.15","null","<p>A másik játékos ezt választotta: <b>nyöbzenek</b>.</p><p>&#10060;</p><p>A válaszaitok <b>nem</b> egyeznek meg.</p>","null","","","","feedback trial","",""
"html-button-response-esp","43","536876","0.0-11.0-0.16","4702","János imád frirozni, ezért sokat frirzik. Mi ritkán...","1","frirzunk","[""frirozunk"",""frirzunk""]","frirzunk","esp trial","0","true"
"html-button-response","44","540390","0.0-11.0-1.16","null","<p>A másik játékos ezt választotta: <b>frirzunk</b>.</p><p>&#x2705;</p><p>A te válaszod és a másik játékos válasza <b>megegyeznek</b>.</p>","null","","","","feedback trial","",""
"html-button-response-esp","45","546406","0.0-11.0-0.17","4047","János imád brűközni, ezért sokat brűklik. Ti ritkán...","1","brűklötök","[""brűköztök"",""brűklötök""]","brűklötök","esp trial","0","true"
"html-button-response","46","549927","0.0-11.0-1.17","null","<p>A másik játékos ezt választotta: <b>brűklötök</b>.</p><p>&#x2705;</p><p>A te válaszod és a másik játékos válasza <b>megegyeznek</b>.</p>","null","","","","feedback trial","",""
"html-button-response-esp","47","555928","0.0-11.0-0.18","3727","János imád játozni, ezért sokat játlik. Mi ritkán...","1","játlunk","[""játozunk"",""játlunk""]","játozunk","esp trial","0","false"
"html-button-response","48","559444","0.0-11.0-1.18","null","<p>A másik játékos ezt választotta: <b>játozunk</b>.</p><p>&#10060;</p><p>A válaszaitok <b>nem</b> egyeznek meg.</p>","null","","","","feedback trial","",""
"html-button-response-esp","49","565462","0.0-11.0-0.19","3353","János imád bügözni, ezért sokat bügzik. Ők ritkán...","0","bügzenek","[""bügzenek"",""bügöznek""]","bügöznek","esp trial","0","false"
"html-button-response","50","568984","0.0-11.0-1.19","null","<p>A másik játékos ezt választotta: <b>bügöznek</b>.</p><p>&#10060;</p><p>A válaszaitok <b>nem</b> egyeznek meg.</p>","null","","","","feedback trial","",""
"html-button-response-esp","51","574995","0.0-11.0-0.20","4128","János imád nurokozni, ezért sokat nuroklik. Mi ritkán...","0","nurokozunk","[""nurokozunk"",""nuroklunk""]","nurokozunk","esp trial","0","true"
"html-button-response","52","578510","0.0-11.0-1.20","null","<p>A másik játékos ezt választotta: <b>nurokozunk</b>.</p><p>&#x2705;</p><p>A te válaszod és a másik játékos válasza <b>megegyeznek</b>.</p>","null","","","","feedback trial","",""
"html-button-response-esp","53","648912","0.0-11.0-0.21","69886","János imád prihegedni, ezért sokat prihegszik. Ők ritkán...","0","prihegednek","[""prihegednek"",""prihegszenek""]","prihegszenek","esp trial","0","false"
"html-button-response","54","652422","0.0-11.0-1.21","null","<p>A másik játékos ezt választotta: <b>prihegszenek</b>.</p><p>&#10060;</p><p>A válaszaitok <b>nem</b> egyeznek meg.</p>","null","","","","feedback trial","",""
"html-button-response-esp","55","658437","0.0-11.0-0.22","4018","János imád bejezni, ezért sokat bejzik. Mi ritkán...","1","bejezünk","[""bejzünk"",""bejezünk""]","bejzünk","esp trial","0","false"
"html-button-response","56","661948","0.0-11.0-1.22","null","<p>A másik játékos ezt választotta: <b>bejzünk</b>.</p><p>&#10060;</p><p>A válaszaitok <b>nem</b> egyeznek meg.</p>","null","","","","feedback trial","",""
"html-button-response-esp","57","667956","0.0-11.0-0.23","3259","János imád klégezni, ezért sokat kléglik. Mi ritkán...","0","kléglünk","[""kléglünk"",""klégezünk""]","klégezünk","esp trial","0","false"
"html-button-response","58","671464","0.0-11.0-1.23","null","<p>A másik játékos ezt választotta: <b>klégezünk</b>.</p><p>&#10060;</p><p>A válaszaitok <b>nem</b> egyeznek meg.</p>","null","","","","feedback trial","",""
"html-button-response-esp","59","677466","0.0-11.0-0.24","1620","János imád jurozni, ezért sokat jurlik. Mi ritkán...","0","jurlunk","[""jurlunk"",""jurozunk""]","jurlunk","esp trial","0","true"
"html-button-response","60","680982","0.0-11.0-1.24","null","<p>A másik játékos ezt választotta: <b>jurlunk</b>.</p><p>&#x2705;</p><p>A te válaszod és a másik játékos válasza <b>megegyeznek</b>.</p>","null","","","","feedback trial","",""
"html-button-response-esp","61","686995","0.0-11.0-0.25","3080","János imád gihamozni, ezért sokat gihamlik. Ők ritkán...","1","gihamoznak","[""gihamlanak"",""gihamoznak""]","gihamlanak","esp trial","0","false"
"html-button-response","62","690508","0.0-11.0-1.25","null","<p>A másik játékos ezt választotta: <b>gihamlanak</b>.</p><p>&#10060;</p><p>A válaszaitok <b>nem</b> egyeznek meg.</p>","null","","","","feedback trial","",""
"html-button-response-esp","63","696522","0.0-11.0-0.26","3092","János imád hubonyozni, ezért sokat hubonylik. Ti ritkán...","1","hubonyoztok","[""hubonylotok"",""hubonyoztok""]","hubonylotok","esp trial","0","false"
"html-button-response","64","700036","0.0-11.0-1.26","null","<p>A másik játékos ezt választotta: <b>hubonylotok</b>.</p><p>&#10060;</p><p>A válaszaitok <b>nem</b> egyeznek meg.</p>","null","","","","feedback trial","",""
"html-button-response-esp","65","706049","0.0-11.0-0.27","2011","János imád plibozni, ezért sokat plibzik. Ti ritkán...","0","plibzotok","[""plibzotok"",""pliboztok""]","plibzotok","esp trial","0","true"
"html-button-response","66","709564","0.0-11.0-1.27","null","<p>A másik játékos ezt választotta: <b>plibzotok</b>.</p><p>&#x2705;</p><p>A te válaszod és a másik játékos válasza <b>megegyeznek</b>.</p>","null","","","","feedback trial","",""
"html-button-response-esp","67","718293","0.0-11.0-0.28","8216","János imád prugorozni, ezért sokat prugorzik. Ti ritkán...","0","prugoroztok","[""prugoroztok"",""prugorzotok""]","prugorzotok","esp trial","0","false"
"html-button-response","68","721795","0.0-11.0-1.28","null","<p>A másik játékos ezt választotta: <b>prugorzotok</b>.</p><p>&#10060;</p><p>A válaszaitok <b>nem</b> egyeznek meg.</p>","null","","","","feedback trial","",""
"html-button-response-esp","69","727810","0.0-11.0-0.29","5277","János imád frinyozni, ezért sokat frinylik. Mi ritkán...","0","frinyozunk","[""frinyozunk"",""frinylunk""]","frinylunk","esp trial","0","false"
"html-button-response","70","731311","0.0-11.0-1.29","null","<p>A másik játékos ezt választotta: <b>frinylunk</b>.</p><p>&#10060;</p><p>A válaszaitok <b>nem</b> egyeznek meg.</p>","null","","","","feedback trial","",""
"html-button-response-esp","71","737340","0.0-11.0-0.30","2132","János imád sűjözni, ezért sokat sűjlik. Mi ritkán...","0","sűjlünk","[""sűjlünk"",""sűjözünk""]","sűjözünk","esp trial","0","false"
"html-button-response","72","740857","0.0-11.0-1.30","null","<p>A másik játékos ezt választotta: <b>sűjözünk</b>.</p><p>&#10060;</p><p>A válaszaitok <b>nem</b> egyeznek meg.</p>","null","","","","feedback trial","",""
"html-button-response-esp","73","746859","0.0-11.0-0.31","4609","János imád spuborozni, ezért sokat spuborzik. Ők ritkán...","1","spuborzanak","[""spuboroznak"",""spuborzanak""]","spuborzanak","esp trial","0","true"
"html-button-response","74","750368","0.0-11.0-1.31","null","<p>A másik játékos ezt választotta: <b>spuborzanak</b>.</p><p>&#x2705;</p><p>A te válaszod és a másik játékos válasza <b>megegyeznek</b>.</p>","null","","","","feedback trial","",""
"html-button-response-esp","75","756384","0.0-11.0-0.32","4536","János imád vehékedni, ezért sokat vehékszik. Mi ritkán...","0","vehékedünk","[""vehékedünk"",""vehékszünk""]","vehékedünk","esp trial","0","true"
"html-button-response","76","759895","0.0-11.0-1.32","null","<p>A másik játékos ezt választotta: <b>vehékedünk</b>.</p><p>&#x2705;</p><p>A te válaszod és a másik játékos válasza <b>megegyeznek</b>.</p>","null","","","","feedback trial","",""
"html-button-response-esp","77","765909","0.0-11.0-0.33","5202","János imád pibegezni, ezért sokat pibegzik. Ők ritkán...","1","pibegeznek","[""pibegzenek"",""pibegeznek""]","pibegzenek","esp trial","0","false"
"html-button-response","78","769415","0.0-11.0-1.33","null","<p>A másik játékos ezt választotta: <b>pibegzenek</b>.</p><p>&#10060;</p><p>A válaszaitok <b>nem</b> egyeznek meg.</p>","null","","","","feedback trial","",""
"html-button-response-esp","79","775429","0.0-11.0-0.34","2793","János imád dibágozni, ezért sokat dibáglik. Ti ritkán...","0","dibáglotok","[""dibáglotok"",""dibágoztok""]","dibáglotok","esp trial","0","true"
"html-button-response","80","778931","0.0-11.0-1.34","null","<p>A másik játékos ezt választotta: <b>dibáglotok</b>.</p><p>&#x2705;</p><p>A te válaszod és a másik játékos válasza <b>megegyeznek</b>.</p>","null","","","","feedback trial","",""
"html-button-response-esp","81","784935","0.0-11.0-0.35","3496","János imád döjözni, ezért sokat döjlik. Ők ritkán...","0","döjlenek","[""döjlenek"",""döjöznek""]","döjöznek","esp trial","0","false"
"html-button-response","82","788449","0.0-11.0-1.35","null","<p>A másik játékos ezt választotta: <b>döjöznek</b>.</p><p>&#10060;</p><p>A válaszaitok <b>nem</b> egyeznek meg.</p>","null","","","","feedback trial","",""
"html-button-response-esp","83","794461","0.0-11.0-0.36","3308","János imád trukodni, ezért sokat trukszik. Ti ritkán...","1","trukodtok","[""trukszotok"",""trukodtok""]","trukszotok","esp trial","0","false"
"html-button-response","84","797977","0.0-11.0-1.36","null","<p>A másik játékos ezt választotta: <b>trukszotok</b>.</p><p>&#10060;</p><p>A válaszaitok <b>nem</b> egyeznek meg.</p>","null","","","","feedback trial","",""
"html-button-response-esp","85","803992","0.0-11.0-0.37","2968","János imád nyülöközni, ezért sokat nyülöklik. Ők ritkán...","1","nyülöklenek","[""nyülököznek"",""nyülöklenek""]","nyülöklenek","esp trial","0","true"
"html-button-response","86","807508","0.0-11.0-1.37","null","<p>A másik játékos ezt választotta: <b>nyülöklenek</b>.</p><p>&#x2705;</p><p>A te válaszod és a másik játékos válasza <b>megegyeznek</b>.</p>","null","","","","feedback trial","",""
"html-button-response-esp","87","822779","0.0-11.0-0.38","14771","János imád nyizozni, ezért sokat nyizlik. Mi ritkán...","1","nyizlunk","[""nyizozunk"",""nyizlunk""]","nyizozunk","esp trial","0","false"
"html-button-response","88","826289","0.0-11.0-1.38","null","<p>A másik játékos ezt választotta: <b>nyizozunk</b>.</p><p>&#10060;</p><p>A válaszaitok <b>nem</b> egyeznek meg.</p>","null","","","","feedback trial","",""
"html-button-response-esp","89","832299","0.0-11.0-0.39","3043","János imád trálodni, ezért sokat trálszik. Mi ritkán...","1","trálodunk","[""trálszunk"",""trálodunk""]","trálodunk","esp trial","0","true"
"html-button-response","90","835801","0.0-11.0-1.39","null","<p>A másik játékos ezt választotta: <b>trálodunk</b>.</p><p>&#x2705;</p><p>A te válaszod és a másik játékos válasza <b>megegyeznek</b>.</p>","null","","","","feedback trial","",""
"html-button-response-esp","91","841802","0.0-11.0-0.40","2787","János imád bribékedni, ezért sokat bribékszik. Ti ritkán...","0","bribékedtek","[""bribékedtek"",""bribékszetek""]","bribékszetek","esp trial","0","false"
"html-button-response","92","845319","0.0-11.0-1.40","null","<p>A másik játékos ezt választotta: <b>bribékszetek</b>.</p><p>&#10060;</p><p>A válaszaitok <b>nem</b> egyeznek meg.</p>","null","","","","feedback trial","",""
"html-button-response-esp","93","851348","0.0-11.0-0.41","3248","János imád kláragodni, ezért sokat kláragszik. Ti ritkán...","0","kláragszotok","[""kláragszotok"",""kláragodtok""]","kláragszotok","esp trial","0","true"
"html-button-response","94","854858","0.0-11.0-1.41","null","<p>A másik játékos ezt választotta: <b>kláragszotok</b>.</p><p>&#x2705;</p><p>A te válaszod és a másik játékos válasza <b>megegyeznek</b>.</p>","null","","","","feedback trial","",""
"html-button-response-esp","95","860877","0.0-11.0-0.42","2077","János imád flugonyozni, ezért sokat flugonylik. Ők ritkán...","1","flugonylanak","[""flugonyoznak"",""flugonylanak""]","flugonylanak","esp trial","0","true"
"html-button-response","96","864404","0.0-11.0-1.42","null","<p>A másik játékos ezt választotta: <b>flugonylanak</b>.</p><p>&#x2705;</p><p>A te válaszod és a másik játékos válasza <b>megegyeznek</b>.</p>","null","","","","feedback trial","",""
"html-button-response-esp","97","870417","0.0-11.0-0.43","3127","János imád dralágozni, ezért sokat dralágzik. Mi ritkán...","0","dralágzunk","[""dralágzunk"",""dralágozunk""]","dralágozunk","esp trial","0","false"
"html-button-response","98","873933","0.0-11.0-1.43","null","<p>A másik játékos ezt választotta: <b>dralágozunk</b>.</p><p>&#10060;</p><p>A válaszaitok <b>nem</b> egyeznek meg.</p>","null","","","","feedback trial","",""
"html-button-response-esp","99","883924","0.0-11.0-0.44","9476","János imád nyádozni, ezért sokat nyádlik. Ők ritkán...","0","nyádlanak","[""nyádlanak"",""nyádoznak""]","nyádoznak","esp trial","0","false"
"html-button-response","100","887437","0.0-11.0-1.44","null","<p>A másik játékos ezt választotta: <b>nyádoznak</b>.</p><p>&#10060;</p><p>A válaszaitok <b>nem</b> egyeznek meg.</p>","null","","","","feedback trial","",""
"html-button-response-esp","101","893442","0.0-11.0-0.45","3353","János imád frorozni, ezért sokat frorlik. Ők ritkán...","0","frorlanak","[""frorlanak"",""froroznak""]","froroznak","esp trial","0","false"
"html-button-response","102","896964","0.0-11.0-1.45","null","<p>A másik játékos ezt választotta: <b>froroznak</b>.</p><p>&#10060;</p><p>A válaszaitok <b>nem</b> egyeznek meg.</p>","null","","","","feedback trial","",""
"html-button-response-esp","103","902974","0.0-11.0-0.46","3558","János imád bresezni, ezért sokat breslik. Ők ritkán...","0","breseznek","[""breseznek"",""breslenek""]","breslenek","esp trial","0","false"
"html-button-response","104","906488","0.0-11.0-1.46","null","<p>A másik játékos ezt választotta: <b>breslenek</b>.</p><p>&#10060;</p><p>A válaszaitok <b>nem</b> egyeznek meg.</p>","null","","","","feedback trial","",""
"html-button-response-esp","105","912513","0.0-11.0-0.47","3798","János imád nivározni, ezért sokat nivárzik. Ti ritkán...","0","nivároztok","[""nivároztok"",""nivárzotok""]","nivárzotok","esp trial","0","false"
"html-button-response","106","916027","0.0-11.0-1.47","null","<p>A másik játékos ezt választotta: <b>nivárzotok</b>.</p><p>&#10060;</p><p>A válaszaitok <b>nem</b> egyeznek meg.</p>","null","","","","feedback trial","",""
"html-button-response-esp","107","922034","0.0-11.0-0.48","2776","János imád trálakozni, ezért sokat trálaklik. Ők ritkán...","1","trálakoznak","[""trálaklanak"",""trálakoznak""]","trálaklanak","esp trial","0","false"
"html-button-response","108","925555","0.0-11.0-1.48","null","<p>A másik játékos ezt választotta: <b>trálaklanak</b>.</p><p>&#10060;</p><p>A válaszaitok <b>nem</b> egyeznek meg.</p>","null","","","","feedback trial","",""
"html-button-response-esp","109","932373","0.0-11.0-0.49","6316","János imád tögözni, ezért sokat töglik. Ők ritkán...","0","tögöznek","[""tögöznek"",""töglenek""]","tögöznek","esp trial","0","true"
"html-button-response","110","935886","0.0-11.0-1.49","null","<p>A másik játékos ezt választotta: <b>tögöznek</b>.</p><p>&#x2705;</p><p>A te válaszod és a másik játékos válasza <b>megegyeznek</b>.</p>","null","","","","feedback trial","",""
"html-button-response-esp","111","941913","0.0-11.0-0.50","4610","János imád trilekedni, ezért sokat trilekszik. Ti ritkán...","0","trilekszetek","[""trilekszetek"",""trilekedtek""]","trilekszetek","esp trial","0","true"
"html-button-response","112","945415","0.0-11.0-1.50","null","<p>A másik játékos ezt választotta: <b>trilekszetek</b>.</p><p>&#x2705;</p><p>A te válaszod és a másik játékos válasza <b>megegyeznek</b>.</p>","null","","","","feedback trial","",""
"html-button-response-esp","113","951416","0.0-11.0-0.51","3888","János imád frélegezni, ezért sokat frélegzik. Mi ritkán...","0","frélegezünk","[""frélegezünk"",""frélegzünk""]","frélegezünk","esp trial","0","true"
"html-button-response","114","954926","0.0-11.0-1.51","null","<p>A másik játékos ezt választotta: <b>frélegezünk</b>.</p><p>&#x2705;</p><p>A te válaszod és a másik játékos válasza <b>megegyeznek</b>.</p>","null","","","","feedback trial","",""
"html-button-response-esp","115","960935","0.0-11.0-0.52","3834","János imád flerékedni, ezért sokat flerékszik. Mi ritkán...","1","flerékedünk","[""flerékszünk"",""flerékedünk""]","flerékszünk","esp trial","0","false"
"html-button-response","116","964440","0.0-11.0-1.52","null","<p>A másik játékos ezt választotta: <b>flerékszünk</b>.</p><p>&#10060;</p><p>A válaszaitok <b>nem</b> egyeznek meg.</p>","null","","","","feedback trial","",""
"html-button-response-esp","117","970454","0.0-11.0-0.53","4997","János imád vihapodni, ezért sokat vihapszik. Mi ritkán...","1","vihapodunk","[""vihapszunk"",""vihapodunk""]","vihapodunk","esp trial","0","true"
"html-button-response","118","973968","0.0-11.0-1.53","null","<p>A másik játékos ezt választotta: <b>vihapodunk</b>.</p><p>&#x2705;</p><p>A te válaszod és a másik játékos válasza <b>megegyeznek</b>.</p>","null","","","","feedback trial","",""
"html-button-response","119","982943","0.0-12.0","8474","<p>A közös játék most véget ért.</p><p>Mielőtt eláruljuk a végső pontszámodat, arra kérlek, játszd a szóválasztós játékot néhány percig egyedül is.</p><p>A feladatod ugyanaz lesz, választani két lehetőség közül.</p><p>Most viszont egyedül kell döntened, hogy te melyiket választanád.</p>","0","","","","","",""
"html-button-response-clever","120","987732","0.0-13.0-0.0","4288","János imád spügözni, ezért sokat spügzik. Mi ritkán...","1","spügözünk","[""spügzünk"",""spügözünk""]","","posttest trial","4",""
"html-button-response-clever","121","997958","0.0-13.0-0.1","9725","János imád prélemezni, ezért sokat prélemlik. Ők ritkán...","1","prélemeznek","[""prélemlenek"",""prélemeznek""]","","posttest trial","4",""
"html-button-response-clever","122","1004986","0.0-13.0-0.2","6527","János imád spiharozni, ezért sokat spiharzik. Ti ritkán...","1","spiharoztok","[""spiharzotok"",""spiharoztok""]","","posttest trial","4",""
"html-button-response-clever","123","1009994","0.0-13.0-0.3","4492","János imád sprozozni, ezért sokat sprozlik. Ők ritkán...","1","sprozlanak","[""sprozoznak"",""sprozlanak""]","","posttest trial","4",""
"html-button-response-clever","124","1013981","0.0-13.0-0.4","3485","János imád frakozni, ezért sokat fraklik. Mi ritkán...","0","frakozunk","[""frakozunk"",""fraklunk""]","","posttest trial","4",""
"html-button-response-clever","125","1016823","0.0-13.0-0.5","2337","János imád brözözni, ezért sokat brözlik. Ti ritkán...","1","brözöztök","[""brözlötök"",""brözöztök""]","","posttest trial","4",""
"html-button-response-clever","126","1027682","0.0-13.0-0.6","10350","János imád trugokozni, ezért sokat trugoklik. Ők ritkán...","1","trugokoznak","[""trugoklanak"",""trugokoznak""]","","posttest trial","4",""
"html-button-response-clever","127","1039744","0.0-13.0-0.7","11561","János imád dárakodni, ezért sokat dárakszik. Mi ritkán...","1","dárakodunk","[""dárakszunk"",""dárakodunk""]","","posttest trial","4",""
"html-button-response-clever","128","1044237","0.0-13.0-0.8","3991","János imád trugozni, ezért sokat trugzik. Ők ritkán...","1","trugoznak","[""trugzanak"",""trugoznak""]","","posttest trial","4",""
"html-button-response-clever","129","1051685","0.0-13.0-0.9","6934","János imád frálasozni, ezért sokat frálaslik. Ők ritkán...","0","frálaslanak","[""frálaslanak"",""frálasoznak""]","","posttest trial","4",""
"html-button-response-clever","130","1058668","0.0-13.0-0.10","6476","János imád frálapodni, ezért sokat frálapszik. Ti ritkán...","0","frálapszotok","[""frálapszotok"",""frálapodtok""]","","posttest trial","4",""
"html-button-response-clever","131","1064340","0.0-13.0-0.11","5170","János imád mágamozni, ezért sokat mágamlik. Mi ritkán...","0","mágamozunk","[""mágamozunk"",""mágamlunk""]","","posttest trial","4",""
"html-button-response-clever","132","1069001","0.0-13.0-0.12","4160","János imád flűgözni, ezért sokat flűgzik. Mi ritkán...","0","flűgözünk","[""flűgözünk"",""flűgzünk""]","","posttest trial","4",""
"html-button-response-clever","133","1076451","0.0-13.0-0.13","6949","János imád sprudozni, ezért sokat sprudlik. Mi ritkán...","0","sprudlunk","[""sprudlunk"",""sprudozunk""]","","posttest trial","4",""
"html-button-response-clever","134","1083558","0.0-13.0-0.14","6606","János imád nyivágozni, ezért sokat nyivágzik. Mi ritkán...","1","nyivágzunk","[""nyivágozunk"",""nyivágzunk""]","","posttest trial","4",""
"html-button-response-clever","135","1093938","0.0-13.0-0.15","9878","János imád fröjözni, ezért sokat fröjzik. Ti ritkán...","1","fröjöztök","[""fröjzötök"",""fröjöztök""]","","posttest trial","4",""
"html-button-response-clever","136","1107045","0.0-13.0-0.16","12606","János imád posozni, ezért sokat poslik. Ti ritkán...","0","posoztok","[""posoztok"",""poslotok""]","","posttest trial","4",""
"html-button-response-clever","137","1111594","0.0-13.0-0.17","4035","János imád gyihegezni, ezért sokat gyihegzik. Ti ritkán...","1","gyihegeztek","[""gyihegzetek"",""gyihegeztek""]","","posttest trial","4",""
"html-button-response-clever","138","1117590","0.0-13.0-0.18","5495","János imád mülőrözni, ezért sokat mülőrzik. Mi ritkán...","0","mülőrzünk","[""mülőrzünk"",""mülőrözünk""]","","posttest trial","4",""
"html-button-response-clever","139","1123784","0.0-13.0-0.19","5692","János imád gihejezni, ezért sokat gihejlik. Mi ritkán...","1","gihejezünk","[""gihejlünk"",""gihejezünk""]","","posttest trial","4",""
"html-button-response-clever","140","1125925","0.0-13.0-0.20","1641","János imád csubozni, ezért sokat csubzik. Mi ritkán...","0","csubzunk","[""csubzunk"",""csubozunk""]","","posttest trial","4",""
"html-button-response-clever","141","1130275","0.0-13.0-0.21","3850","János imád püzözni, ezért sokat püzlik. Ti ritkán...","1","püzöztök","[""püzlötök"",""püzöztök""]","","posttest trial","4",""
"html-button-response-clever","142","1133874","0.0-13.0-0.22","3098","János imád dilakozni, ezért sokat dilaklik. Ti ritkán...","0","dilaklotok","[""dilaklotok"",""dilakoztok""]","","posttest trial","4",""
"html-button-response-clever","143","1138295","0.0-13.0-0.23","3920","János imád spirágozni, ezért sokat spiráglik. Ti ritkán...","0","spirágoztok","[""spirágoztok"",""spiráglotok""]","","posttest trial","4",""
"html-button-response-clever","144","1141978","0.0-13.0-0.24","3177","János imád brülösözni, ezért sokat brülöslik. Mi ritkán...","1","brülöslünk","[""brülösözünk"",""brülöslünk""]","","posttest trial","4",""
"html-button-response-clever","145","1145978","0.0-13.0-0.25","3493","János imád drűrözni, ezért sokat drűrzik. Ők ritkán...","1","drűröznek","[""drűrzenek"",""drűröznek""]","","posttest trial","4",""
"html-button-response-clever","146","1169382","0.0-13.0-0.26","22899","János imád nyürözni, ezért sokat nyürzik. Ők ritkán...","1","nyüröznek","[""nyürzenek"",""nyüröznek""]","","posttest trial","4",""
"html-button-response-clever","147","1175557","0.0-13.0-0.27","5674","János imád pragányozni, ezért sokat pragánylik. Ti ritkán...","1","pragányoztok","[""pragánylotok"",""pragányoztok""]","","posttest trial","4",""
"html-button-response-clever","148","1180649","0.0-13.0-0.28","4591","János imád molodni, ezért sokat molszik. Ti ritkán...","0","molodtok","[""molodtok"",""molszotok""]","","posttest trial","4",""
"html-button-response-clever","149","1185677","0.0-13.0-0.29","4527","János imád csibagozni, ezért sokat csibagzik. Ti ritkán...","0","csibagoztok","[""csibagoztok"",""csibagzotok""]","","posttest trial","4",""
"html-button-response-clever","150","1190095","0.0-13.0-0.30","3905","János imád virozni, ezért sokat virzik. Ők ritkán...","0","virzanak","[""virzanak"",""viroznak""]","","posttest trial","4",""
"html-button-response-clever","151","1195421","0.0-13.0-0.31","4825","János imád kűdözni, ezért sokat kűdlik. Ők ritkán...","1","kűdlenek","[""kűdöznek"",""kűdlenek""]","","posttest trial","4",""
"html-button-response-clever","152","1200031","0.0-13.0-0.32","4096","János imád flemezni, ezért sokat flemlik. Mi ritkán...","1","flemezünk","[""flemlünk"",""flemezünk""]","","posttest trial","4",""
"html-button-response-clever","153","1203119","0.0-13.0-0.33","2586","János imád brivakozni, ezért sokat brivaklik. Ti ritkán...","0","brivakoztok","[""brivakoztok"",""brivaklotok""]","","posttest trial","4",""
"html-button-response-clever","154","1207797","0.0-13.0-0.34","4175","János imád prögözni, ezért sokat prögzik. Ti ritkán...","0","prögöztök","[""prögöztök"",""prögzötök""]","","posttest trial","4",""
"html-button-response-clever","155","1211040","0.0-13.0-0.35","2739","János imád dabozni, ezért sokat dabzik. Ti ritkán...","0","dabzotok","[""dabzotok"",""daboztok""]","","posttest trial","4",""
"html-button-response-clever","156","1214568","0.0-13.0-0.36","3015","János imád bratározni, ezért sokat bratárzik. Ők ritkán...","1","bratároznak","[""bratárzanak"",""bratároznak""]","","posttest trial","4",""
"html-button-response-clever","157","1218820","0.0-13.0-0.37","3738","János imád flüröközni, ezért sokat flüröklik. Ti ritkán...","0","flürököztök","[""flürököztök"",""flüröklötök""]","","posttest trial","4",""
"html-button-response-clever","158","1226462","0.0-13.0-0.38","7138","János imád lájozni, ezért sokat lájzik. Ti ritkán...","0","lájzotok","[""lájzotok"",""lájoztok""]","","posttest trial","4",""
"html-button-response-clever","159","1237669","0.0-13.0-0.39","10702","János imád flöközni, ezért sokat flöklik. Ti ritkán...","0","flököztök","[""flököztök"",""flöklötök""]","","posttest trial","4",""
"html-button-response-clever","160","1241390","0.0-13.0-0.40","3206","János imád privékedni, ezért sokat privékszik. Ők ritkán...","0","privékednek","[""privékednek"",""privékszenek""]","","posttest trial","4",""
"html-button-response-clever","161","1244127","0.0-13.0-0.41","2224","János imád dujozni, ezért sokat dujzik. Ők ritkán...","0","dujoznak","[""dujoznak"",""dujzanak""]","","posttest trial","4",""
"html-button-response-clever","162","1254768","0.0-13.0-0.42","10129","János imád pilégedni, ezért sokat pilégszik. Ők ritkán...","0","pilégednek","[""pilégednek"",""pilégszenek""]","","posttest trial","4",""
"html-button-response-clever","163","1268766","0.0-13.0-0.43","13496","János imád branyozni, ezért sokat branylik. Ők ritkán...","1","branyoznak","[""branylanak"",""branyoznak""]","","posttest trial","4",""
"html-button-response-clever","164","1278972","0.0-13.0-0.44","9705","János imád klehényezni, ezért sokat klehénylik. Ti ritkán...","1","klehényeztek","[""klehényletek"",""klehényeztek""]","","posttest trial","4",""
"html-button-response-clever","165","1285444","0.0-13.0-0.45","5971","János imád trikozni, ezért sokat triklik. Ti ritkán...","0","triklotok","[""triklotok"",""trikoztok""]","","posttest trial","4",""
"html-button-response-clever","166","1291308","0.0-13.0-0.46","5363","János imád dirozni, ezért sokat dirlik. Ti ritkán...","0","diroztok","[""diroztok"",""dirlotok""]","","posttest trial","4",""
"html-button-response-clever","167","1360810","0.0-13.0-0.47","68998","János imád drilarozni, ezért sokat drilarzik. Mi ritkán...","1","drilarozunk","[""drilarzunk"",""drilarozunk""]","","posttest trial","4",""
"html-button-response-clever","168","1364271","0.0-13.0-0.48","2959","János imád föködni, ezért sokat fökszik. Ők ritkán...","0","föködnek","[""föködnek"",""fökszenek""]","","posttest trial","4",""
"html-button-response-clever","169","1367727","0.0-13.0-0.49","2953","János imád köszözni, ezért sokat köszlik. Ti ritkán...","1","köszlötök","[""köszöztök"",""köszlötök""]","","posttest trial","4",""
"html-button-response-clever","170","1372736","0.0-13.0-0.50","4508","János imád spibegezni, ezért sokat spibeglik. Mi ritkán...","0","spibeglünk","[""spibeglünk"",""spibegezünk""]","","posttest trial","4",""
"html-button-response-clever","171","1376105","0.0-13.0-0.51","2866","János imád trivakodni, ezért sokat trivakszik. Mi ritkán...","0","trivakodunk","[""trivakodunk"",""trivakszunk""]","","posttest trial","4",""
"html-button-response-clever","172","1379372","0.0-13.0-0.52","2766","János imád lűközni, ezért sokat lűklik. Ők ritkán...","1","lűköznek","[""lűklenek"",""lűköznek""]","","posttest trial","4",""
"html-button-response-clever","173","1381832","0.0-13.0-0.53","1958","János imád sprűrözni, ezért sokat sprűrlik. Ők ritkán...","0","sprűrlenek","[""sprűrlenek"",""sprűröznek""]","","posttest trial","4",""
"html-button-response","174","1405748","0.0-14.0","23415","<p> Vége a játéknak. A teljes pontszámod 24/54.</p><p> Szép munka! &#128526;&#128526;&#128526;</p><p>A Befejezés gomb megnyomása után bezárhatod a böngészőablakot.</p>","0","","","","","",""
"html-keyboard-response","175","1411260","0.0-15.0","null","<div class=""message"">
         <p>Egy kis türelmet kérünk, amíg elmentjük az adatokat...</p>
         </div>","null","","","","","",""
