"trial_type","trial_index","time_elapsed","internal_node_id","rt","stimulus","response","response_string","choices","esp_response","trial_kind","list_number","esp_match"
"pavlovia","0","1139","0.0-0.0","","","","","","","","",""
"html-button-response","1","5117","0.0-1.0","3448","<p>Kedves Résztvevő! A Budapesti Műszaki és Gazdaságtudományi Egyetem Kognitív Tudományi Tanszékének kutatásában való részvételed kérjük. A kutatásban azt vizsgáljuk, hogy a magyar anyanyelvűek hogyan használnak bizonyos szóalakokat, és hogy milyen képük van arról, hogy mások hogyan használják, hogyan képzik a szavakat. Ez hozzásegít bennünket ahhoz, hogy jobban megértsük, hogyan dolgozza fel és tárolja a nyelvet az emberi agy, és hogyan működnek, hogyan változnak egy adott közösség nyelvi konvenciói.</p><p>A vizsgálat egy rövid számítógépes feladatból fog állni. A kutatásban való részvétel önkéntes, a részvételi szándék bármikor visszavonható. A résztvevők eredményeit név nélkül kezeljük, így nem beazonosíthatók az adatok feldolgozása során. Minden személyes adatot az EU általános adatvédelmi rendeletének (GDPR) megfelelően kezelünk és legfeljebb öt éven belül megsemmisítünk. A vizsgálat jellemzően húsz percet vesz igénybe.</p><p>Kutatásvezető:</p><p>Dr. Rácz Péter, tudományos munkatárs, BME KTT</p><p>e-mail: racz.peter.marton@ttk.bme.hu</p>","0","","","","","",""
"html-button-response","2","45612","0.0-2.0","39980","<p>A kísérletben szavakat fogsz látni. Ezek között lesznek olyanok, amelyeket ismersz, de előfordulhatnak olyanok is, amelyeket nem ismersz, sőt, vannak köztük kitalált szavak is. Minden szónál látni fogsz toldalékolt alakokat. A te feladatod az lesz, hogy minden szóhoz kiválaszd azt a toldalékolt alakot, amely a te számodra ismerősebben, természetesebben hangzik. Rossz válaszok nincsenek, mert van olyan, hogy különböző embereknek más és más szó tűnik jobb választásnak. A választ úgy tudod majd kiválasztani, ha rákattintasz.</p><p>Ebben a szóválasztós játékban egy másik játékossal együtt veszel majd részt. A másik játékos is minden esetben azok közül a lehetőségek közül válogathat, mint te. Kettőtök feladata az, hogy ugyanazt a lehetőséget válasszátok minden esetben. Ahhoz, hogy ez sikerüljön, neked figyelned kell arra, hogy a másik játékos milyen válaszokat ad, és ennek alapján meg kell tippelned, hogyan választ legközelebb. Ha eltalálod, akkor pontot kapsz.</p>","0","","","","","",""
"html-button-response","3","58526","0.0-3.0","12401","<p>Kérjük, olvasd el az alábbi nyilatkozatot, és amennyiben egyetértesz vele, nyomj a Beleegyezés gombra!</p><p>Kijelentem, hogy magyar anyanyelvű személyként önként veszek részt a BME KTT kísérletében. A kutatás céljával és folyamatával kapcsolatban elegendő tájékoztatást kaptam, lehetőségem volt kérdések feltételére, és esetleges kérdéseimre megfelelő válaszokat kaptam. A tájékoztatás alapján elegendő mennyiségű információ áll a rendelkezésemre, hogy eldönthessem, részt kívánok-e venni a kutatásban.</p><p>Tisztában vagyok vele, hogy részvételi szándékomat és adataimat bármikor, indoklás nélkül visszavonhatom.</p><p>Értem és tudomásul veszem, hogy a kutatás tudományos célokat szolgál, és az általam szolgáltatott adatokat a BME kizárólag kutatási célból használja fel. Tudomásul veszem, hogy eredményeimet a többi résztvevő eredményeivel együtt kezelik, így egyéni teljesítményemről visszajelzést, szakvéleményt nem kapok.</p><p>Megértettem, hogy adataim kezelését illetően a BME az EU általános adatvédelmi rendelete (GDPR), a hatályos adatvédelmi törvény és a nemzetközi kutatás-etikai alapelvek szerint jár el. Eredményeim anonim módon kerülnek feldolgozásra, és a kutatás résztvevői az azonosításomra alkalmas adataimat harmadik félnek nem szolgáltatják ki. Engedélyezem a BME számára a jelen kutatásban felvett adataim feldolgozását és tárolását, beleértve azok későbbi kutatásokhoz való felhasználását is. Személyes adataim kezelésével kapcsolatban tájékoztatást kérhetek a kutatás résztvevőitől, az adatkezelés ellen tiltakozhatok, kérhetem személyes adataim helyesbítését, törlését vagy zárolását, valamint jogorvoslatért a Nemzeti Adatvédelmi és Információszabadság Hatósághoz fordulhatok.</p><p>Kijelentem, hogy a kutatásban való részvételem körülményeiről részletes tájékoztatást kaptam, és a feltételeket elfogadom.</p>","0","","","","","",""
"survey-text","4","126910","0.0-4.0","67741","","{""Q0"":""FSIRH5"",""Q1"":"""",""Q2"":""1999"",""Q3"":""""}","","","","","",""
"html-button-response","5","151580","0.0-5.0","24161","<p>Ebben a játékban szavakat kell toldalékolni.</p> <p>Minden körben mutatunk majd egy példamondatot, amiben lesz egy szó.</p> <p>Alatta jön egy második mondat, ezt a mondatot neked kell majd befejezni, ugyanezzel a szóval.</p> <p>Nem biztos, hogy a szó eleve ismerős lesz számodra!</p> <p>Minden mondathoz adunk két lehetőséget, ezeket balra és jobbra látod majd.</p> <p>A játék kb. negyedóráig-húsz percig tart.</p>","0","","","","","",""
"html-button-response","6","165264","0.0-6.0","13166","<p>Nézzünk egy példát!</p> <p>A példamondat: ""Ez itt egy blumbnyeg.""</p><p>Neked ezt a mondatot kell befejezned: ""Ott vagyunk a...""</p><p>A lehetőségek pedig ezek:</p>","0","","","","","",""
"html-button-response","7","173492","0.0-7.0","7709","<p>Nagyon jó.</p><p>Ezt a játékot nem egyedül fogod játszani, hanem egy másik játékossal.</p><p>Mielőtt továbblépünk, összekapcsolunk titeket egymással.</p><p>Ez igénybe vehet néhány másodpercet, amihez szíves türelmed kérjük.</p>","0","","","","","",""
"html-button-response","8","179239","0.0-8.0","null","<p>Csatlakozás a másik játékoshoz...</p>","null","","","","","",""
"html-button-response","9","181759","0.0-9.0","null","<p> Sikeres kapcsolódás!</p>","null","","","","","",""
"html-button-response","10","192279","0.0-10.0","null","<p>A következőkben ketten játsszátok a szóválasztós játékot.</p><p>A feladatotok az lesz, hogy minden körben <b>ugyanazt</b> a szót válasszátok.</p><p>Minden ilyen egyező válaszért pontot kaptok.</p><p>Próbáld meg kitalálni, mit választ a másik játékos!</p><p>Bármikor választhatsz, a körnek akkor van vége, ha mindketten döntöttetek.</p><p>Sok sikert!</p>","null","","","","","",""
"html-button-response-esp","11","200715","0.0-11.0-0.0","5075","Ez itt egy surnegy. Nincs is jobb egy jó...","0","surnegynál","[""surnegynál"",""surnegynél""]","surnegynál","esp trial","5","true"
"html-button-response","12","204249","0.0-11.0-1.0","null","<p>A másik játékos ezt választotta: <b>surnegynál</b>.</p><p>&#x2705;</p><p>A te válaszod és a másik játékos válasza <b>megegyeznek</b>.</p>","null","","","","feedback trial","",""
"html-button-response-esp","13","212667","0.0-11.0-0.1","4513","Ez itt egy murdes. Nincs is jobb egy jó...","0","murdesnél","[""murdesnél"",""murdesnál""]","murdesnál","esp trial","5","false"
"html-button-response","14","216192","0.0-11.0-1.1","null","<p>A másik játékos ezt választotta: <b>murdesnál</b>.</p><p>&#10060;</p><p>A válaszaitok <b>nem</b> egyeznek meg.</p>","null","","","","feedback trial","",""
"html-button-response-esp","15","228484","0.0-11.0-0.2","11772","Ez itt egy klítegy. Nincs is jobb egy jó...","0","klítegynél","[""klítegynél"",""klítegynál""]","klítegynál","esp trial","5","false"
"html-button-response","16","232000","0.0-11.0-1.2","null","<p>A másik játékos ezt választotta: <b>klítegynál</b>.</p><p>&#10060;</p><p>A válaszaitok <b>nem</b> egyeznek meg.</p>","null","","","","feedback trial","",""
"html-button-response-esp","17","240416","0.0-11.0-0.3","5914","Ez itt egy dutec. Nincs is jobb egy jó...","0","dutecnál","[""dutecnál"",""dutecnél""]","dutecnál","esp trial","5","true"
"html-button-response","18","243934","0.0-11.0-1.3","null","<p>A másik játékos ezt választotta: <b>dutecnál</b>.</p><p>&#x2705;</p><p>A te válaszod és a másik játékos válasza <b>megegyeznek</b>.</p>","null","","","","feedback trial","",""
"html-button-response-esp","19","260380","0.0-11.0-0.4","15927","Ez itt egy lingék. Nincs is jobb egy jó...","1","lingéknél","[""lingéknál"",""lingéknél""]","lingéknél","esp trial","5","true"
"html-button-response","20","263907","0.0-11.0-1.4","null","<p>A másik játékos ezt választotta: <b>lingéknél</b>.</p><p>&#x2705;</p><p>A te válaszod és a másik játékos válasza <b>megegyeznek</b>.</p>","null","","","","feedback trial","",""
"html-button-response-esp","21","273477","0.0-11.0-0.5","9036","Ez itt egy zarcég. Nincs is jobb egy jó...","1","zarcégnél","[""zarcégnál"",""zarcégnél""]","zarcégnál","esp trial","5","false"
"html-button-response","22","277000","0.0-11.0-1.5","null","<p>A másik játékos ezt választotta: <b>zarcégnál</b>.</p><p>&#10060;</p><p>A válaszaitok <b>nem</b> egyeznek meg.</p>","null","","","","feedback trial","",""
"html-button-response-esp","23","286467","0.0-11.0-0.6","8951","Ez itt egy spatel. Elneveztem a kutyámat...","0","spatelnek","[""spatelnek"",""spatelnak""]","spatelnak","esp trial","5","false"
"html-button-response","24","289994","0.0-11.0-1.6","null","<p>A másik játékos ezt választotta: <b>spatelnak</b>.</p><p>&#10060;</p><p>A válaszaitok <b>nem</b> egyeznek meg.</p>","null","","","","feedback trial","",""
"html-button-response-esp","25","298397","0.0-11.0-0.7","3786","Ez itt egy vodec. Nincs is jobb egy jó...","0","vodecnál","[""vodecnál"",""vodecnél""]","vodecnál","esp trial","5","true"
"html-button-response","26","301912","0.0-11.0-1.7","null","<p>A másik játékos ezt választotta: <b>vodecnál</b>.</p><p>&#x2705;</p><p>A te válaszod és a másik játékos válasza <b>megegyeznek</b>.</p>","null","","","","feedback trial","",""
"html-button-response-esp","27","310318","0.0-11.0-0.8","3087","Ez itt egy dajrens. Nincs is jobb egy jó...","1","dajrensnál","[""dajrensnél"",""dajrensnál""]","dajrensnál","esp trial","5","true"
"html-button-response","28","313832","0.0-11.0-1.8","null","<p>A másik játékos ezt választotta: <b>dajrensnál</b>.</p><p>&#x2705;</p><p>A te válaszod és a másik játékos válasza <b>megegyeznek</b>.</p>","null","","","","feedback trial","",""
"html-button-response-esp","29","322240","0.0-11.0-0.9","4347","Ez itt egy hijegy. Nincs is jobb egy jó...","1","hijegynál","[""hijegynél"",""hijegynál""]","hijegynél","esp trial","5","false"
"html-button-response","30","325760","0.0-11.0-1.9","null","<p>A másik játékos ezt választotta: <b>hijegynél</b>.</p><p>&#10060;</p><p>A válaszaitok <b>nem</b> egyeznek meg.</p>","null","","","","feedback trial","",""
"html-button-response-esp","31","334170","0.0-11.0-0.10","5996","Ez itt egy bingéj. Elneveztem a kutyámat...","1","bingéjnak","[""bingéjnek"",""bingéjnak""]","bingéjnak","esp trial","5","true"
"html-button-response","32","337687","0.0-11.0-1.10","null","<p>A másik játékos ezt választotta: <b>bingéjnak</b>.</p><p>&#x2705;</p><p>A te válaszod és a másik játékos válasza <b>megegyeznek</b>.</p>","null","","","","feedback trial","",""
"html-button-response-esp","33","346087","0.0-11.0-0.11","4526","Ez itt egy fágyép. Nincs is jobb egy jó...","1","fágyépnál","[""fágyépnél"",""fágyépnál""]","fágyépnál","esp trial","5","true"
"html-button-response","34","349614","0.0-11.0-1.11","null","<p>A másik játékos ezt választotta: <b>fágyépnál</b>.</p><p>&#x2705;</p><p>A te válaszod és a másik játékos válasza <b>megegyeznek</b>.</p>","null","","","","feedback trial","",""
"html-button-response-esp","35","359914","0.0-11.0-0.12","9790","Ez itt egy sihen. Nincs is jobb egy jó...","0","sihennál","[""sihennál"",""sihennél""]","sihennél","esp trial","5","false"
"html-button-response","36","363440","0.0-11.0-1.12","null","<p>A másik játékos ezt választotta: <b>sihennél</b>.</p><p>&#10060;</p><p>A válaszaitok <b>nem</b> egyeznek meg.</p>","null","","","","feedback trial","",""
"html-button-response-esp","37","371845","0.0-11.0-0.13","7763","Ez itt egy vismer. Nincs is jobb egy jó...","0","vismernál","[""vismernál"",""vismernél""]","vismernél","esp trial","5","false"
"html-button-response","38","375368","0.0-11.0-1.13","null","<p>A másik játékos ezt választotta: <b>vismernél</b>.</p><p>&#10060;</p><p>A válaszaitok <b>nem</b> egyeznek meg.</p>","null","","","","feedback trial","",""
"html-button-response-esp","39","383775","0.0-11.0-0.14","4275","Ez itt egy gábéd. Nincs is jobb egy jó...","0","gábédnál","[""gábédnál"",""gábédnél""]","gábédnál","esp trial","5","true"
"html-button-response","40","387295","0.0-11.0-1.14","null","<p>A másik játékos ezt választotta: <b>gábédnál</b>.</p><p>&#x2705;</p><p>A te válaszod és a másik játékos válasza <b>megegyeznek</b>.</p>","null","","","","feedback trial","",""
"html-button-response-esp","41","396875","0.0-11.0-0.15","9065","Ez itt egy tivenc. Ott vagyunk a...","0","tivencban","[""tivencban"",""tivencben""]","tivencban","esp trial","5","true"
"html-button-response","42","400391","0.0-11.0-1.15","null","<p>A másik játékos ezt választotta: <b>tivencban</b>.</p><p>&#x2705;</p><p>A te válaszod és a másik játékos válasza <b>megegyeznek</b>.</p>","null","","","","feedback trial","",""
"html-button-response-esp","43","408806","0.0-11.0-0.16","5242","Ez itt egy zined. Elneveztem a kutyámat...","0","zinednak","[""zinednak"",""zinednek""]","zinednek","esp trial","5","false"
"html-button-response","44","412319","0.0-11.0-1.16","null","<p>A másik játékos ezt választotta: <b>zinednek</b>.</p><p>&#10060;</p><p>A válaszaitok <b>nem</b> egyeznek meg.</p>","null","","","","feedback trial","",""
"html-button-response-esp","45","421268","0.0-11.0-0.17","8425","Ez itt egy trikép. Ott vagyunk a...","0","triképban","[""triképban"",""triképben""]","triképben","esp trial","5","false"
"html-button-response","46","424788","0.0-11.0-1.17","null","<p>A másik játékos ezt választotta: <b>triképben</b>.</p><p>&#10060;</p><p>A válaszaitok <b>nem</b> egyeznek meg.</p>","null","","","","feedback trial","",""
"html-button-response-esp","47","433193","0.0-11.0-0.18","3635","Ez itt egy spizec. Elneveztem a kutyámat...","0","spizecnak","[""spizecnak"",""spizecnek""]","spizecnek","esp trial","5","false"
"html-button-response","48","436719","0.0-11.0-1.18","null","<p>A másik játékos ezt választotta: <b>spizecnek</b>.</p><p>&#10060;</p><p>A válaszaitok <b>nem</b> egyeznek meg.</p>","null","","","","feedback trial","",""
"html-button-response-esp","49","445120","0.0-11.0-0.19","3413","Ez itt egy dunkész. Ott vagyunk a...","0","dunkészben","[""dunkészben"",""dunkészban""]","dunkészban","esp trial","5","false"
"html-button-response","50","448640","0.0-11.0-1.19","null","<p>A másik játékos ezt választotta: <b>dunkészban</b>.</p><p>&#10060;</p><p>A válaszaitok <b>nem</b> egyeznek meg.</p>","null","","","","feedback trial","",""
"html-button-response-esp","51","457048","0.0-11.0-0.20","3997","Ez itt egy fupét. Nincs is jobb egy jó...","1","fupétnél","[""fupétnál"",""fupétnél""]","fupétnál","esp trial","5","false"
"html-button-response","52","460568","0.0-11.0-1.20","null","<p>A másik játékos ezt választotta: <b>fupétnál</b>.</p><p>&#10060;</p><p>A válaszaitok <b>nem</b> egyeznek meg.</p>","null","","","","feedback trial","",""
"html-button-response-esp","53","469441","0.0-11.0-0.21","8352","Ez itt egy jutély. Nincs is jobb egy jó...","1","jutélynál","[""jutélynél"",""jutélynál""]","jutélynál","esp trial","5","true"
"html-button-response","54","472962","0.0-11.0-1.21","null","<p>A másik játékos ezt választotta: <b>jutélynál</b>.</p><p>&#x2705;</p><p>A te válaszod és a másik játékos válasza <b>megegyeznek</b>.</p>","null","","","","feedback trial","",""
"html-button-response-esp","55","481368","0.0-11.0-0.22","4617","Ez itt egy lijez. Elneveztem a kutyámat...","1","lijeznak","[""lijeznek"",""lijeznak""]","lijeznek","esp trial","5","false"
"html-button-response","56","484897","0.0-11.0-1.22","null","<p>A másik játékos ezt választotta: <b>lijeznek</b>.</p><p>&#10060;</p><p>A válaszaitok <b>nem</b> egyeznek meg.</p>","null","","","","feedback trial","",""
"html-button-response-esp","57","493306","0.0-11.0-0.23","5091","Ez itt egy lihény. Elneveztem a kutyámat...","1","lihénynek","[""lihénynak"",""lihénynek""]","lihénynek","esp trial","5","true"
"html-button-response","58","496832","0.0-11.0-1.23","null","<p>A másik játékos ezt választotta: <b>lihénynek</b>.</p><p>&#x2705;</p><p>A te válaszod és a másik játékos válasza <b>megegyeznek</b>.</p>","null","","","","feedback trial","",""
"html-button-response-esp","59","505240","0.0-11.0-0.24","7253","Ez itt egy csodeg. Nincs is jobb egy jó...","1","csodegnél","[""csodegnál"",""csodegnél""]","csodegnál","esp trial","5","false"
"html-button-response","60","508760","0.0-11.0-1.24","null","<p>A másik játékos ezt választotta: <b>csodegnál</b>.</p><p>&#10060;</p><p>A válaszaitok <b>nem</b> egyeznek meg.</p>","null","","","","feedback trial","",""
"html-button-response-esp","61","517169","0.0-11.0-0.25","4389","Ez itt egy jurdent. Nincs is jobb egy jó...","0","jurdentnál","[""jurdentnál"",""jurdentnél""]","jurdentnál","esp trial","5","true"
"html-button-response","62","520687","0.0-11.0-1.25","null","<p>A másik játékos ezt választotta: <b>jurdentnál</b>.</p><p>&#x2705;</p><p>A te válaszod és a másik játékos válasza <b>megegyeznek</b>.</p>","null","","","","feedback trial","",""
"html-button-response-esp","63","529087","0.0-11.0-0.26","6739","Ez itt egy kátéd. Nincs is jobb egy jó...","1","kátédnél","[""kátédnál"",""kátédnél""]","kátédnál","esp trial","5","false"
"html-button-response","64","532600","0.0-11.0-1.26","null","<p>A másik játékos ezt választotta: <b>kátédnál</b>.</p><p>&#10060;</p><p>A válaszaitok <b>nem</b> egyeznek meg.</p>","null","","","","feedback trial","",""
"html-button-response-esp","65","541008","0.0-11.0-0.27","4969","Ez itt egy trodély. Ott vagyunk a...","0","trodélyban","[""trodélyban"",""trodélyben""]","trodélyban","esp trial","5","true"
"html-button-response","66","544534","0.0-11.0-1.27","null","<p>A másik játékos ezt választotta: <b>trodélyban</b>.</p><p>&#x2705;</p><p>A te válaszod és a másik játékos válasza <b>megegyeznek</b>.</p>","null","","","","feedback trial","",""
"html-button-response-esp","67","552935","0.0-11.0-0.28","4673","Ez itt egy zábény. Elneveztem a kutyámat...","0","zábénynak","[""zábénynak"",""zábénynek""]","zábénynak","esp trial","5","true"
"html-button-response","68","556455","0.0-11.0-1.28","null","<p>A másik játékos ezt választotta: <b>zábénynak</b>.</p><p>&#x2705;</p><p>A te válaszod és a másik játékos válasza <b>megegyeznek</b>.</p>","null","","","","feedback trial","",""
"html-button-response-esp","69","564865","0.0-11.0-0.29","4739","Ez itt egy briskéd. Nincs is jobb egy jó...","0","briskédnél","[""briskédnél"",""briskédnál""]","briskédnál","esp trial","5","false"
"html-button-response","70","568385","0.0-11.0-1.29","null","<p>A másik játékos ezt választotta: <b>briskédnál</b>.</p><p>&#10060;</p><p>A válaszaitok <b>nem</b> egyeznek meg.</p>","null","","","","feedback trial","",""
"html-button-response-esp","71","576799","0.0-11.0-0.30","4445","Ez itt egy humék. Elneveztem a kutyámat...","0","huméknak","[""huméknak"",""huméknek""]","huméknak","esp trial","5","true"
"html-button-response","72","580327","0.0-11.0-1.30","null","<p>A másik játékos ezt választotta: <b>huméknak</b>.</p><p>&#x2705;</p><p>A te válaszod és a másik játékos válasza <b>megegyeznek</b>.</p>","null","","","","feedback trial","",""
"html-button-response-esp","73","588737","0.0-11.0-0.31","5144","Ez itt egy zatéj. Nincs is jobb egy jó...","1","zatéjnál","[""zatéjnél"",""zatéjnál""]","zatéjnál","esp trial","5","true"
"html-button-response","74","592255","0.0-11.0-1.31","null","<p>A másik játékos ezt választotta: <b>zatéjnál</b>.</p><p>&#x2705;</p><p>A te válaszod és a másik játékos válasza <b>megegyeznek</b>.</p>","null","","","","feedback trial","",""
"html-button-response-esp","75","600655","0.0-11.0-0.32","5788","Ez itt egy mádép. Nincs is jobb egy jó...","1","mádépnál","[""mádépnél"",""mádépnál""]","mádépnál","esp trial","5","true"
"html-button-response","76","604167","0.0-11.0-1.32","null","<p>A másik játékos ezt választotta: <b>mádépnál</b>.</p><p>&#x2705;</p><p>A te válaszod és a másik játékos válasza <b>megegyeznek</b>.</p>","null","","","","feedback trial","",""
"html-button-response-esp","77","612568","0.0-11.0-0.33","4092","Ez itt egy tarhéz. Ott vagyunk a...","1","tarhézban","[""tarhézben"",""tarhézban""]","tarhézban","esp trial","5","true"
"html-button-response","78","616085","0.0-11.0-1.33","null","<p>A másik játékos ezt választotta: <b>tarhézban</b>.</p><p>&#x2705;</p><p>A te válaszod és a másik játékos válasza <b>megegyeznek</b>.</p>","null","","","","feedback trial","",""
"html-button-response-esp","79","624487","0.0-11.0-0.34","4401","Ez itt egy zuten. Nincs is jobb egy jó...","1","zutennál","[""zutennél"",""zutennál""]","zutennál","esp trial","5","true"
"html-button-response","80","628007","0.0-11.0-1.34","null","<p>A másik játékos ezt választotta: <b>zutennál</b>.</p><p>&#x2705;</p><p>A te válaszod és a másik játékos válasza <b>megegyeznek</b>.</p>","null","","","","feedback trial","",""
"html-button-response-esp","81","636414","0.0-11.0-0.35","3491","Ez itt egy klazér. Ott vagyunk a...","0","klazérban","[""klazérban"",""klazérben""]","klazérban","esp trial","5","true"
"html-button-response","82","639926","0.0-11.0-1.35","null","<p>A másik játékos ezt választotta: <b>klazérban</b>.</p><p>&#x2705;</p><p>A te válaszod és a másik játékos válasza <b>megegyeznek</b>.</p>","null","","","","feedback trial","",""
"html-button-response-esp","83","649732","0.0-11.0-0.36","9292","Ez itt egy vurnel. Elneveztem a kutyámat...","1","vurnelnek","[""vurnelnak"",""vurnelnek""]","vurnelnak","esp trial","5","false"
"html-button-response","84","653249","0.0-11.0-1.36","null","<p>A másik játékos ezt választotta: <b>vurnelnak</b>.</p><p>&#10060;</p><p>A válaszaitok <b>nem</b> egyeznek meg.</p>","null","","","","feedback trial","",""
"html-button-response-esp","85","661656","0.0-11.0-0.37","3736","Ez itt egy fizend. Ott vagyunk a...","1","fizendben","[""fizendban"",""fizendben""]","fizendben","esp trial","5","true"
"html-button-response","86","665174","0.0-11.0-1.37","null","<p>A másik játékos ezt választotta: <b>fizendben</b>.</p><p>&#x2705;</p><p>A te válaszod és a másik játékos válasza <b>megegyeznek</b>.</p>","null","","","","feedback trial","",""
"html-button-response-esp","87","673575","0.0-11.0-0.38","6780","Ez itt egy spivél. Elneveztem a kutyámat...","1","spivélnek","[""spivélnak"",""spivélnek""]","spivélnak","esp trial","5","false"
"html-button-response","88","677088","0.0-11.0-1.38","null","<p>A másik játékos ezt választotta: <b>spivélnak</b>.</p><p>&#10060;</p><p>A válaszaitok <b>nem</b> egyeznek meg.</p>","null","","","","feedback trial","",""
"html-button-response-esp","89","685495","0.0-11.0-0.39","4548","Ez itt egy tumély. Nincs is jobb egy jó...","0","tumélynál","[""tumélynál"",""tumélynél""]","tumélynál","esp trial","5","true"
"html-button-response","90","689014","0.0-11.0-1.39","null","<p>A másik játékos ezt választotta: <b>tumélynál</b>.</p><p>&#x2705;</p><p>A te válaszod és a másik játékos válasza <b>megegyeznek</b>.</p>","null","","","","feedback trial","",""
"html-button-response-esp","91","697414","0.0-11.0-0.40","6336","Ez itt egy zsalrén. Elneveztem a kutyámat...","1","zsalrénnak","[""zsalrénnek"",""zsalrénnak""]","zsalrénnak","esp trial","5","true"
"html-button-response","92","700936","0.0-11.0-1.40","null","<p>A másik játékos ezt választotta: <b>zsalrénnak</b>.</p><p>&#x2705;</p><p>A te válaszod és a másik játékos válasza <b>megegyeznek</b>.</p>","null","","","","feedback trial","",""
"html-button-response-esp","93","709348","0.0-11.0-0.41","3514","Ez itt egy nuhét. Nincs is jobb egy jó...","1","nuhétnál","[""nuhétnél"",""nuhétnál""]","nuhétnál","esp trial","5","true"
"html-button-response","94","712863","0.0-11.0-1.41","null","<p>A másik játékos ezt választotta: <b>nuhétnál</b>.</p><p>&#x2705;</p><p>A te válaszod és a másik játékos válasza <b>megegyeznek</b>.</p>","null","","","","feedback trial","",""
"html-button-response-esp","95","721263","0.0-11.0-0.42","6569","Ez itt egy dibez. Ott vagyunk a...","1","dibezben","[""dibezban"",""dibezben""]","dibezben","esp trial","5","true"
"html-button-response","96","724782","0.0-11.0-1.42","null","<p>A másik játékos ezt választotta: <b>dibezben</b>.</p><p>&#x2705;</p><p>A te válaszod és a másik játékos válasza <b>megegyeznek</b>.</p>","null","","","","feedback trial","",""
"html-button-response-esp","97","735840","0.0-11.0-0.43","10547","Ez itt egy cságyelt. Ott vagyunk a...","1","cságyeltben","[""cságyeltban"",""cságyeltben""]","cságyeltban","esp trial","5","false"
"html-button-response","98","739360","0.0-11.0-1.43","null","<p>A másik játékos ezt választotta: <b>cságyeltban</b>.</p><p>&#10060;</p><p>A válaszaitok <b>nem</b> egyeznek meg.</p>","null","","","","feedback trial","",""
"html-button-response-esp","99","747768","0.0-11.0-0.44","4981","Ez itt egy pazév. Nincs is jobb egy jó...","0","pazévnál","[""pazévnál"",""pazévnél""]","pazévnál","esp trial","5","true"
"html-button-response","100","751294","0.0-11.0-1.44","null","<p>A másik játékos ezt választotta: <b>pazévnál</b>.</p><p>&#x2705;</p><p>A te válaszod és a másik játékos válasza <b>megegyeznek</b>.</p>","null","","","","feedback trial","",""
"html-button-response-esp","101","759695","0.0-11.0-0.45","5359","Ez itt egy fojlegy. Elneveztem a kutyámat...","1","fojlegynak","[""fojlegynek"",""fojlegynak""]","fojlegynek","esp trial","5","false"
"html-button-response","102","763214","0.0-11.0-1.45","null","<p>A másik játékos ezt választotta: <b>fojlegynek</b>.</p><p>&#10060;</p><p>A válaszaitok <b>nem</b> egyeznek meg.</p>","null","","","","feedback trial","",""
"html-button-response-esp","103","771620","0.0-11.0-0.46","6439","Ez itt egy klajrén. Elneveztem a kutyámat...","0","klajrénnak","[""klajrénnak"",""klajrénnek""]","klajrénnak","esp trial","5","true"
"html-button-response","104","775137","0.0-11.0-1.46","null","<p>A másik játékos ezt választotta: <b>klajrénnak</b>.</p><p>&#x2705;</p><p>A te válaszod és a másik játékos válasza <b>megegyeznek</b>.</p>","null","","","","feedback trial","",""
"html-button-response-esp","105","784598","0.0-11.0-0.47","8945","Ez itt egy dóbem. Elneveztem a kutyámat...","0","dóbemnek","[""dóbemnek"",""dóbemnak""]","dóbemnak","esp trial","5","false"
"html-button-response","106","788123","0.0-11.0-1.47","null","<p>A másik játékos ezt választotta: <b>dóbemnak</b>.</p><p>&#10060;</p><p>A válaszaitok <b>nem</b> egyeznek meg.</p>","null","","","","feedback trial","",""
"html-button-response-esp","107","796528","0.0-11.0-0.48","4982","Ez itt egy pristél. Ott vagyunk a...","0","pristélben","[""pristélben"",""pristélban""]","pristélben","esp trial","5","true"
"html-button-response","108","800047","0.0-11.0-1.48","null","<p>A másik játékos ezt választotta: <b>pristélben</b>.</p><p>&#x2705;</p><p>A te válaszod és a másik játékos válasza <b>megegyeznek</b>.</p>","null","","","","feedback trial","",""
"html-button-response-esp","109","808447","0.0-11.0-0.49","4549","Ez itt egy dinelt. Ott vagyunk a...","1","dineltben","[""dineltban"",""dineltben""]","dineltben","esp trial","5","true"
"html-button-response","110","811959","0.0-11.0-1.49","null","<p>A másik játékos ezt választotta: <b>dineltben</b>.</p><p>&#x2705;</p><p>A te válaszod és a másik játékos válasza <b>megegyeznek</b>.</p>","null","","","","feedback trial","",""
"html-button-response-esp","111","820363","0.0-11.0-0.50","5294","Ez itt egy szibed. Ott vagyunk a...","0","szibedban","[""szibedban"",""szibedben""]","szibedben","esp trial","5","false"
"html-button-response","112","823879","0.0-11.0-1.50","null","<p>A másik játékos ezt választotta: <b>szibedben</b>.</p><p>&#10060;</p><p>A válaszaitok <b>nem</b> egyeznek meg.</p>","null","","","","feedback trial","",""
"html-button-response-esp","113","832288","0.0-11.0-0.51","4812","Ez itt egy hosét. Elneveztem a kutyámat...","1","hosétnak","[""hosétnek"",""hosétnak""]","hosétnak","esp trial","5","true"
"html-button-response","114","835807","0.0-11.0-1.51","null","<p>A másik játékos ezt választotta: <b>hosétnak</b>.</p><p>&#x2705;</p><p>A te válaszod és a másik játékos válasza <b>megegyeznek</b>.</p>","null","","","","feedback trial","",""
"html-button-response-esp","115","844214","0.0-11.0-0.52","6095","Ez itt egy szanéj. Elneveztem a kutyámat...","1","szanéjnak","[""szanéjnek"",""szanéjnak""]","szanéjnak","esp trial","5","true"
"html-button-response","116","847727","0.0-11.0-1.52","null","<p>A másik játékos ezt választotta: <b>szanéjnak</b>.</p><p>&#x2705;</p><p>A te válaszod és a másik játékos válasza <b>megegyeznek</b>.</p>","null","","","","feedback trial","",""
"html-button-response-esp","117","856134","0.0-11.0-0.53","5686","Ez itt egy csublény. Ott vagyunk a...","1","csublényben","[""csublényban"",""csublényben""]","csublényban","esp trial","5","false"
"html-button-response","118","859647","0.0-11.0-1.53","null","<p>A másik játékos ezt választotta: <b>csublényban</b>.</p><p>&#10060;</p><p>A válaszaitok <b>nem</b> egyeznek meg.</p>","null","","","","feedback trial","",""
"html-button-response","119","871585","0.0-12.0","11427","<p>A közös játék most véget ért.</p><p>Mielőtt eláruljuk a végső pontszámodat, arra kérlek, játszd a szóválasztós játékot néhány percig egyedül is.</p><p>A feladatod ugyanaz lesz, választani két lehetőség közül.</p><p>Most viszont egyedül kell döntened, hogy te melyiket választanád.</p>","0","","","","","",""
"html-button-response-clever","120","876691","0.0-13.0-0.0","4580","Ez itt egy dingec. Elneveztem a kutyámat...","1","dingecnek","[""dingecnak"",""dingecnek""]","","posttest trial","8",""
"html-button-response-clever","121","882817","0.0-13.0-0.1","5606","Ez itt egy brotes. Ott vagyunk a...","1","brotesben","[""brotesban"",""brotesben""]","","posttest trial","8",""
"html-button-response-clever","122","889825","0.0-13.0-0.2","6486","Ez itt egy jalrény. Nincs is jobb egy jó...","1","jalrénynél","[""jalrénynál"",""jalrénynél""]","","posttest trial","8",""
"html-button-response-clever","123","893979","0.0-13.0-0.3","3636","Ez itt egy kluhéj. Nincs is jobb egy jó...","1","kluhéjnál","[""kluhéjnél"",""kluhéjnál""]","","posttest trial","8",""
"html-button-response-clever","124","899548","0.0-13.0-0.4","5050","Ez itt egy júder. Elneveztem a kutyámat...","1","júdernek","[""júdernak"",""júdernek""]","","posttest trial","8",""
"html-button-response-clever","125","903989","0.0-13.0-0.5","3926","Ez itt egy kadér. Nincs is jobb egy jó...","0","kadérnál","[""kadérnál"",""kadérnél""]","","posttest trial","8",""
"html-button-response-clever","126","908883","0.0-13.0-0.6","4377","Ez itt egy giheszt. Elneveztem a kutyámat...","1","gihesztnek","[""gihesztnak"",""gihesztnek""]","","posttest trial","8",""
"html-button-response-clever","127","918979","0.0-13.0-0.7","9578","Ez itt egy jorzég. Elneveztem a kutyámat...","1","jorzégnek","[""jorzégnak"",""jorzégnek""]","","posttest trial","8",""
"html-button-response-clever","128","923594","0.0-13.0-0.8","4089","Ez itt egy buhény. Ott vagyunk a...","1","buhényban","[""buhényben"",""buhényban""]","","posttest trial","8",""
"html-button-response-clever","129","928207","0.0-13.0-0.9","4094","Ez itt egy ronvet. Elneveztem a kutyámat...","1","ronvetnak","[""ronvetnek"",""ronvetnak""]","","posttest trial","8",""
"html-button-response-clever","130","931913","0.0-13.0-0.10","3194","Ez itt egy forzéd. Elneveztem a kutyámat...","0","forzédnak","[""forzédnak"",""forzédnek""]","","posttest trial","8",""
"html-button-response-clever","131","941546","0.0-13.0-0.11","9112","Ez itt egy jábéz. Ott vagyunk a...","0","jábézban","[""jábézban"",""jábézben""]","","posttest trial","8",""
"html-button-response-clever","132","950079","0.0-13.0-0.12","8016","Ez itt egy nyarcéj. Elneveztem a kutyámat...","0","nyarcéjnak","[""nyarcéjnak"",""nyarcéjnek""]","","posttest trial","8",""
"html-button-response-clever","133","961957","0.0-13.0-0.13","11364","Ez itt egy ikszert. Ott vagyunk a...","0","ikszertben","[""ikszertben"",""ikszertban""]","","posttest trial","8",""
"html-button-response-clever","134","967178","0.0-13.0-0.14","4706","Ez itt egy csinték. Ott vagyunk a...","0","csintékben","[""csintékben"",""csintékban""]","","posttest trial","8",""
"html-button-response-clever","135","973187","0.0-13.0-0.15","5494","Ez itt egy nyábét. Ott vagyunk a...","1","nyábétban","[""nyábétben"",""nyábétban""]","","posttest trial","8",""
"html-button-response-clever","136","987128","0.0-13.0-0.16","13424","Ez itt egy sprízem. Nincs is jobb egy jó...","0","sprízemnél","[""sprízemnél"",""sprízemnál""]","","posttest trial","8",""
"html-button-response-clever","137","996515","0.0-13.0-0.17","8857","Ez itt egy prately. Elneveztem a kutyámat...","0","pratelynak","[""pratelynak"",""pratelynek""]","","posttest trial","8",""
"html-button-response-clever","138","1001962","0.0-13.0-0.18","4927","Ez itt egy klordény. Elneveztem a kutyámat...","0","klordénynak","[""klordénynak"",""klordénynek""]","","posttest trial","8",""
"html-button-response-clever","139","1005620","0.0-13.0-0.19","3142","Ez itt egy brágéd. Elneveztem a kutyámat...","0","brágédnak","[""brágédnak"",""brágédnek""]","","posttest trial","8",""
"html-button-response-clever","140","1010080","0.0-13.0-0.20","3941","Ez itt egy vodép. Elneveztem a kutyámat...","0","vodépnak","[""vodépnak"",""vodépnek""]","","posttest trial","8",""
"html-button-response-clever","141","1013397","0.0-13.0-0.21","2797","Ez itt egy fincek. Nincs is jobb egy jó...","1","finceknél","[""finceknál"",""finceknél""]","","posttest trial","8",""
"html-button-response-clever","142","1019650","0.0-13.0-0.22","5733","Ez itt egy brukész. Nincs is jobb egy jó...","0","brukésznél","[""brukésznél"",""brukésznál""]","","posttest trial","8",""
"html-button-response-clever","143","1029804","0.0-13.0-0.23","9638","Ez itt egy matéz. Ott vagyunk a...","0","matézban","[""matézban"",""matézben""]","","posttest trial","8",""
"html-button-response-clever","144","1034272","0.0-13.0-0.24","3945","Ez itt egy kliszer. Nincs is jobb egy jó...","1","kliszernél","[""kliszernál"",""kliszernél""]","","posttest trial","8",""
"html-button-response-clever","145","1037987","0.0-13.0-0.25","3188","Ez itt egy zsopéd. Ott vagyunk a...","1","zsopédben","[""zsopédban"",""zsopédben""]","","posttest trial","8",""
"html-button-response-clever","146","1041037","0.0-13.0-0.26","2531","Ez itt egy navec. Ott vagyunk a...","1","navecban","[""navecben"",""navecban""]","","posttest trial","8",""
"html-button-response-clever","147","1045696","0.0-13.0-0.27","4142","Ez itt egy szutend. Ott vagyunk a...","0","szutendban","[""szutendban"",""szutendben""]","","posttest trial","8",""
"html-button-response-clever","148","1049177","0.0-13.0-0.28","2963","Ez itt egy kábesz. Nincs is jobb egy jó...","1","kábesznél","[""kábesznál"",""kábesznél""]","","posttest trial","8",""
"html-button-response-clever","149","1052393","0.0-13.0-0.29","2693","Ez itt egy gonszék. Nincs is jobb egy jó...","0","gonszéknél","[""gonszéknél"",""gonszéknál""]","","posttest trial","8",""
"html-button-response-clever","150","1058175","0.0-13.0-0.30","5265","Ez itt egy tránély. Elneveztem a kutyámat...","1","tránélynek","[""tránélynak"",""tránélynek""]","","posttest trial","8",""
"html-button-response-clever","151","1061749","0.0-13.0-0.31","3061","Ez itt egy hivép. Ott vagyunk a...","0","hivépben","[""hivépben"",""hivépban""]","","posttest trial","8",""
"html-button-response-clever","152","1065323","0.0-13.0-0.32","3056","Ez itt egy bidem. Ott vagyunk a...","1","bidemben","[""bidemban"",""bidemben""]","","posttest trial","8",""
"html-button-response-clever","153","1068984","0.0-13.0-0.33","3145","Ez itt egy nidét. Ott vagyunk a...","1","nidétben","[""nidétban"",""nidétben""]","","posttest trial","8",""
"html-button-response-clever","154","1074118","0.0-13.0-0.34","4616","Ez itt egy gótem. Elneveztem a kutyámat...","1","gótemnek","[""gótemnak"",""gótemnek""]","","posttest trial","8",""
"html-button-response-clever","155","1079659","0.0-13.0-0.35","5023","Ez itt egy lismév. Ott vagyunk a...","0","lismévben","[""lismévben"",""lismévban""]","","posttest trial","8",""
"html-button-response-clever","156","1084424","0.0-13.0-0.36","4248","Ez itt egy sporzem. Elneveztem a kutyámat...","1","sporzemnek","[""sporzemnak"",""sporzemnek""]","","posttest trial","8",""
"html-button-response-clever","157","1089961","0.0-13.0-0.37","5018","Ez itt egy tranék. Ott vagyunk a...","0","tranékben","[""tranékben"",""tranékban""]","","posttest trial","8",""
"html-button-response-clever","158","1098978","0.0-13.0-0.38","8496","Ez itt egy vublet. Nincs is jobb egy jó...","1","vubletnél","[""vubletnál"",""vubletnél""]","","posttest trial","8",""
"html-button-response-clever","159","1103044","0.0-13.0-0.39","3550","Ez itt egy priszkenc. Elneveztem a kutyámat...","0","priszkencnek","[""priszkencnek"",""priszkencnak""]","","posttest trial","8",""
"html-button-response-clever","160","1107317","0.0-13.0-0.40","3755","Ez itt egy hóbens. Ott vagyunk a...","0","hóbensben","[""hóbensben"",""hóbensban""]","","posttest trial","8",""
"html-button-response-clever","161","1112358","0.0-13.0-0.41","4521","Ez itt egy trapszegy. Nincs is jobb egy jó...","0","trapszegynél","[""trapszegynél"",""trapszegynál""]","","posttest trial","8",""
"html-button-response-clever","162","1117006","0.0-13.0-0.42","4132","Ez itt egy licegy. Ott vagyunk a...","0","licegyben","[""licegyben"",""licegyban""]","","posttest trial","8",""
"html-button-response-clever","163","1122399","0.0-13.0-0.43","4877","Ez itt egy fádens. Elneveztem a kutyámat...","1","fádensnek","[""fádensnak"",""fádensnek""]","","posttest trial","8",""
"html-button-response-clever","164","1126403","0.0-13.0-0.44","3490","Ez itt egy bródesz. Elneveztem a kutyámat...","0","bródesznak","[""bródesznak"",""bródesznek""]","","posttest trial","8",""
"html-button-response-clever","165","1134130","0.0-13.0-0.45","7208","Ez itt egy sartely. Ott vagyunk a...","1","sartelyben","[""sartelyban"",""sartelyben""]","","posttest trial","8",""
"html-button-response-clever","166","1145016","0.0-13.0-0.46","10368","Ez itt egy csimen. Nincs is jobb egy jó...","1","csimennél","[""csimennál"",""csimennél""]","","posttest trial","8",""
"html-button-response-clever","167","1149655","0.0-13.0-0.47","4118","Ez itt egy gicéj. Nincs is jobb egy jó...","0","gicéjnél","[""gicéjnél"",""gicéjnál""]","","posttest trial","8",""
"html-button-response-clever","168","1155352","0.0-13.0-0.48","5175","Ez itt egy szihét. Elneveztem a kutyámat...","1","szihétnek","[""szihétnak"",""szihétnek""]","","posttest trial","8",""
"html-button-response-clever","169","1160086","0.0-13.0-0.49","4213","Ez itt egy trigenc. Elneveztem a kutyámat...","1","trigencnek","[""trigencnak"",""trigencnek""]","","posttest trial","8",""
"html-button-response-clever","170","1170064","0.0-13.0-0.50","9461","Ez itt egy spáten. Elneveztem a kutyámat...","0","spátennak","[""spátennak"",""spátennek""]","","posttest trial","8",""
"html-button-response-clever","171","1174500","0.0-13.0-0.51","3921","Ez itt egy brigeszt. Elneveztem a kutyámat...","0","brigesztnek","[""brigesztnek"",""brigesztnak""]","","posttest trial","8",""
"html-button-response-clever","172","1179117","0.0-13.0-0.52","4102","Ez itt egy csartény. Elneveztem a kutyámat...","1","csarténynak","[""csarténynek"",""csarténynak""]","","posttest trial","8",""
"html-button-response-clever","173","1182742","0.0-13.0-0.53","3106","Ez itt egy trincseg. Ott vagyunk a...","0","trincsegben","[""trincsegben"",""trincsegban""]","","posttest trial","8",""
"html-button-response","174","1189476","0.0-14.0","6221","<p> Vége a játéknak. A teljes pontszámod 31/54.</p><p> Szép munka! &#128526;&#128526;&#128526;</p><p>A Befejezés gomb megnyomása után bezárhatod a böngészőablakot.</p>","0","","","","","",""
"html-keyboard-response","175","1195000","0.0-15.0","null","<div class=""message"">
         <p>Egy kis türelmet kérünk, amíg elmentjük az adatokat...</p>
         </div>","null","","","","","",""
