"trial_type","trial_index","time_elapsed","internal_node_id","rt","stimulus","response","response_string","choices","esp_response","trial_kind","list_number","esp_match"
"pavlovia","0","622","0.0-0.0","","","","","","","","",""
"html-button-response","1","31149","0.0-1.0","30024","<p>Kedves Résztvevő! A Budapesti Műszaki és Gazdaságtudományi Egyetem Kognitív Tudományi Tanszékének kutatásában való részvételed kérjük. A kutatásban azt vizsgáljuk, hogy a magyar anyanyelvűek hogyan használnak bizonyos szóalakokat, és hogy milyen képük van arról, hogy mások hogyan használják, hogyan képzik a szavakat. Ez hozzásegít bennünket ahhoz, hogy jobban megértsük, hogyan dolgozza fel és tárolja a nyelvet az emberi agy, és hogyan működnek, hogyan változnak egy adott közösség nyelvi konvenciói.</p><p>A vizsgálat egy rövid számítógépes feladatból fog állni. A kutatásban való részvétel önkéntes, a részvételi szándék bármikor visszavonható. A résztvevők eredményeit név nélkül kezeljük, így nem beazonosíthatók az adatok feldolgozása során. Minden személyes adatot az EU általános adatvédelmi rendeletének (GDPR) megfelelően kezelünk és legfeljebb öt éven belül megsemmisítünk. A vizsgálat jellemzően húsz percet vesz igénybe.</p><p>Kutatásvezető:</p><p>Dr. Rácz Péter, tudományos munkatárs, BME KTT</p><p>e-mail: racz.peter.marton@ttk.bme.hu</p>","0","","","","","",""
"html-button-response","2","62491","0.0-2.0","30842","<p>A kísérletben szavakat fogsz látni. Ezek között lesznek olyanok, amelyeket ismersz, de előfordulhatnak olyanok is, amelyeket nem ismersz, sőt, vannak köztük kitalált szavak is. Minden szónál látni fogsz toldalékolt alakokat. A te feladatod az lesz, hogy minden szóhoz kiválaszd azt a toldalékolt alakot, amely a te számodra ismerősebben, természetesebben hangzik. Rossz válaszok nincsenek, mert van olyan, hogy különböző embereknek más és más szó tűnik jobb választásnak. A választ úgy tudod majd kiválasztani, ha rákattintasz.</p><p>Ebben a szóválasztós játékban egy másik játékossal együtt veszel majd részt. A másik játékos is minden esetben azok közül a lehetőségek közül válogathat, mint te. Kettőtök feladata az, hogy ugyanazt a lehetőséget válasszátok minden esetben. Ahhoz, hogy ez sikerüljön, neked figyelned kell arra, hogy a másik játékos milyen válaszokat ad, és ennek alapján meg kell tippelned, hogyan választ legközelebb. Ha eltalálod, akkor pontot kapsz.</p>","0","","","","","",""
"html-button-response","3","65723","0.0-3.0","2730","<p>Kérjük, olvasd el az alábbi nyilatkozatot, és amennyiben egyetértesz vele, nyomj a Beleegyezés gombra!</p><p>Kijelentem, hogy magyar anyanyelvű személyként önként veszek részt a BME KTT kísérletében. A kutatás céljával és folyamatával kapcsolatban elegendő tájékoztatást kaptam, lehetőségem volt kérdések feltételére, és esetleges kérdéseimre megfelelő válaszokat kaptam. A tájékoztatás alapján elegendő mennyiségű információ áll a rendelkezésemre, hogy eldönthessem, részt kívánok-e venni a kutatásban.</p><p>Tisztában vagyok vele, hogy részvételi szándékomat és adataimat bármikor, indoklás nélkül visszavonhatom.</p><p>Értem és tudomásul veszem, hogy a kutatás tudományos célokat szolgál, és az általam szolgáltatott adatokat a BME kizárólag kutatási célból használja fel. Tudomásul veszem, hogy eredményeimet a többi résztvevő eredményeivel együtt kezelik, így egyéni teljesítményemről visszajelzést, szakvéleményt nem kapok.</p><p>Megértettem, hogy adataim kezelését illetően a BME az EU általános adatvédelmi rendelete (GDPR), a hatályos adatvédelmi törvény és a nemzetközi kutatás-etikai alapelvek szerint jár el. Eredményeim anonim módon kerülnek feldolgozásra, és a kutatás résztvevői az azonosításomra alkalmas adataimat harmadik félnek nem szolgáltatják ki. Engedélyezem a BME számára a jelen kutatásban felvett adataim feldolgozását és tárolását, beleértve azok későbbi kutatásokhoz való felhasználását is. Személyes adataim kezelésével kapcsolatban tájékoztatást kérhetek a kutatás résztvevőitől, az adatkezelés ellen tiltakozhatok, kérhetem személyes adataim helyesbítését, törlését vagy zárolását, valamint jogorvoslatért a Nemzeti Adatvédelmi és Információszabadság Hatósághoz fordulhatok.</p><p>Kijelentem, hogy a kutatásban való részvételem körülményeiről részletes tájékoztatást kaptam, és a feltételeket elfogadom.</p>","0","","","","","",""
"survey-text","4","102174","0.0-4.0","35927","","{""Q0"":""BCA9Y5"",""Q1"":"""",""Q2"":""1983"",""Q3"":""14""}","","","","","",""
"html-button-response","5","144259","0.0-5.0","41583","<p>Ebben a játékban szavakat kell toldalékolni.</p> <p>Minden körben mutatunk majd egy példamondatot, amiben lesz egy szó.</p> <p>Alatta jön egy második mondat, ezt a mondatot neked kell majd befejezni, ugyanezzel a szóval.</p> <p>Nem biztos, hogy a szó eleve ismerős lesz számodra!</p> <p>Minden mondathoz adunk két lehetőséget, ezeket balra és jobbra látod majd.</p> <p>A játék kb. negyedóráig-húsz percig tart.</p>","0","","","","","",""
"html-button-response","6","166836","0.0-6.0","22075","<p>Nézzünk egy példát!</p> <p>A példamondat: ""János imád fláramolni, ezért sokat fláramlik.""</p><p>Neked ezt a mondatot kell befejezned: ""Ti ritkán...""</p><p>A lehetőségek pedig ezek:</p>","0","","","","","",""
"html-button-response","7","175581","0.0-7.0","8243","<p>Nagyon jó.</p><p>Ezt a játékot nem egyedül fogod játszani, hanem egy másik játékossal.</p><p>Mielőtt továbblépünk, összekapcsolunk titeket egymással.</p><p>Ez igénybe vehet néhány másodpercet, amihez szíves türelmed kérjük.</p>","0","","","","","",""
"html-button-response","8","181305","0.0-8.0","null","<p>Csatlakozás a másik játékoshoz...</p>","null","","","","","",""
"html-button-response","9","183808","0.0-9.0","null","<p> Sikeres kapcsolódás!</p>","null","","","","","",""
"html-button-response","10","193276","0.0-10.0","8967","<p>A következőkben ketten játsszátok a szóválasztós játékot.</p><p>A feladatotok az lesz, hogy minden körben <b>ugyanazt</b> a szót válasszátok.</p><p>Minden ilyen egyező válaszért pontot kaptok.</p><p>Próbáld meg kitalálni, mit választ a másik játékos!</p><p>Bármikor választhatsz, a körnek akkor van vége, ha mindketten döntöttetek.</p><p>Sok sikert!</p>","0","","","","","",""
"html-button-response-esp","11","205492","0.0-11.0-0.0","11714","János imád frinyozni, ezért sokat frinylik. Mi ritkán...","0","frinyozunk","[""frinyozunk"",""frinylunk""]","frinyozunk","esp trial","3","true"
"html-button-response","12","208998","0.0-11.0-1.0","null","<p>A másik játékos ezt választotta: <b>frinyozunk</b>.</p><p>&#x2705;</p><p>A te válaszod és a másik játékos válasza <b>megegyeznek</b>.</p>","null","","","","feedback trial","",""
"html-button-response-esp","13","223332","0.0-11.0-0.1","13833","János imád bribasozni, ezért sokat bribaslik. Ők ritkán...","0","bribasoznak","[""bribasoznak"",""bribaslanak""]","bribasoznak","esp trial","3","true"
"html-button-response","14","226836","0.0-11.0-1.1","null","<p>A másik játékos ezt választotta: <b>bribasoznak</b>.</p><p>&#x2705;</p><p>A te válaszod és a másik játékos válasza <b>megegyeznek</b>.</p>","null","","","","feedback trial","",""
"html-button-response-esp","15","236259","0.0-11.0-0.2","8922","János imád trálakozni, ezért sokat trálaklik. Ők ritkán...","0","trálakoznak","[""trálakoznak"",""trálaklanak""]","trálakoznak","esp trial","3","true"
"html-button-response","16","239762","0.0-11.0-1.2","null","<p>A másik játékos ezt választotta: <b>trálakoznak</b>.</p><p>&#x2705;</p><p>A te válaszod és a másik játékos válasza <b>megegyeznek</b>.</p>","null","","","","feedback trial","",""
"html-button-response-esp","17","246852","0.0-11.0-0.3","6588","János imád frélegezni, ezért sokat frélegzik. Mi ritkán...","1","frélegzünk","[""frélegezünk"",""frélegzünk""]","frélegzünk","esp trial","3","true"
"html-button-response","18","250354","0.0-11.0-1.3","null","<p>A másik játékos ezt választotta: <b>frélegzünk</b>.</p><p>&#x2705;</p><p>A te válaszod és a másik játékos válasza <b>megegyeznek</b>.</p>","null","","","","feedback trial","",""
"html-button-response-esp","19","262317","0.0-11.0-0.4","11460","János imád sűjözni, ezért sokat sűjlik. Mi ritkán...","1","sűjlünk","[""sűjözünk"",""sűjlünk""]","sűjlünk","esp trial","3","true"
"html-button-response","20","265821","0.0-11.0-1.4","null","<p>A másik játékos ezt választotta: <b>sűjlünk</b>.</p><p>&#x2705;</p><p>A te válaszod és a másik játékos válasza <b>megegyeznek</b>.</p>","null","","","","feedback trial","",""
"html-button-response-esp","21","280404","0.0-11.0-0.5","14082","János imád klihasozni, ezért sokat klihaslik. Ti ritkán...","0","klihaslotok","[""klihaslotok"",""klihasoztok""]","klihasoztok","esp trial","3","false"
"html-button-response","22","283907","0.0-11.0-1.5","null","<p>A másik játékos ezt választotta: <b>klihasoztok</b>.</p><p>&#10060;</p><p>A válaszaitok <b>nem</b> egyeznek meg.</p>","null","","","","feedback trial","",""
"html-button-response-esp","23","296867","0.0-11.0-0.6","12459","János imád tögözni, ezért sokat töglik. Ők ritkán...","0","tögöznek","[""tögöznek"",""töglenek""]","töglenek","esp trial","3","false"
"html-button-response","24","300369","0.0-11.0-1.6","null","<p>A másik játékos ezt választotta: <b>töglenek</b>.</p><p>&#10060;</p><p>A válaszaitok <b>nem</b> egyeznek meg.</p>","null","","","","feedback trial","",""
"html-button-response-esp","25","312469","0.0-11.0-0.7","11597","János imád klégezni, ezért sokat kléglik. Mi ritkán...","1","kléglünk","[""klégezünk"",""kléglünk""]","kléglünk","esp trial","3","true"
"html-button-response","26","315971","0.0-11.0-1.7","null","<p>A másik játékos ezt választotta: <b>kléglünk</b>.</p><p>&#x2705;</p><p>A te válaszod és a másik játékos válasza <b>megegyeznek</b>.</p>","null","","","","feedback trial","",""
"html-button-response-esp","27","333116","0.0-11.0-0.8","16643","János imád klűmözni, ezért sokat klűmlik. Ti ritkán...","0","klűmöztök","[""klűmöztök"",""klűmlötök""]","klűmöztök","esp trial","3","true"
"html-button-response","28","336617","0.0-11.0-1.8","null","<p>A másik játékos ezt választotta: <b>klűmöztök</b>.</p><p>&#x2705;</p><p>A te válaszod és a másik játékos válasza <b>megegyeznek</b>.</p>","null","","","","feedback trial","",""
"html-button-response-esp","29","345755","0.0-11.0-0.9","8637","János imád bresezni, ezért sokat breslik. Ők ritkán...","0","breseznek","[""breseznek"",""breslenek""]","breseznek","esp trial","3","true"
"html-button-response","30","349257","0.0-11.0-1.9","null","<p>A másik játékos ezt választotta: <b>breseznek</b>.</p><p>&#x2705;</p><p>A te válaszod és a másik játékos válasza <b>megegyeznek</b>.</p>","null","","","","feedback trial","",""
"html-button-response-esp","31","356740","0.0-11.0-0.10","6981","János imád nivározni, ezért sokat nivárzik. Ti ritkán...","0","nivároztok","[""nivároztok"",""nivárzotok""]","nivároztok","esp trial","3","true"
"html-button-response","32","360243","0.0-11.0-1.10","null","<p>A másik játékos ezt választotta: <b>nivároztok</b>.</p><p>&#x2705;</p><p>A te válaszod és a másik játékos válasza <b>megegyeznek</b>.</p>","null","","","","feedback trial","",""
"html-button-response-esp","33","369349","0.0-11.0-0.11","8603","János imád flugonyozni, ezért sokat flugonylik. Ők ritkán...","0","flugonyoznak","[""flugonyoznak"",""flugonylanak""]","flugonyoznak","esp trial","3","true"
"html-button-response","34","372852","0.0-11.0-1.11","null","<p>A másik játékos ezt választotta: <b>flugonyoznak</b>.</p><p>&#x2705;</p><p>A te válaszod és a másik játékos válasza <b>megegyeznek</b>.</p>","null","","","","feedback trial","",""
"html-button-response-esp","35","378980","0.0-11.0-0.12","5628","János imád vehékedni, ezért sokat vehékszik. Mi ritkán...","1","vehékszünk","[""vehékedünk"",""vehékszünk""]","vehékszünk","esp trial","3","true"
"html-button-response","36","382483","0.0-11.0-1.12","null","<p>A másik játékos ezt választotta: <b>vehékszünk</b>.</p><p>&#x2705;</p><p>A te válaszod és a másik játékos válasza <b>megegyeznek</b>.</p>","null","","","","feedback trial","",""
"html-button-response-esp","37","389524","0.0-11.0-0.13","6539","János imád jurozni, ezért sokat jurlik. Mi ritkán...","0","jurlunk","[""jurlunk"",""jurozunk""]","jurozunk","esp trial","3","false"
"html-button-response","38","393027","0.0-11.0-1.13","null","<p>A másik játékos ezt választotta: <b>jurozunk</b>.</p><p>&#10060;</p><p>A válaszaitok <b>nem</b> egyeznek meg.</p>","null","","","","feedback trial","",""
"html-button-response-esp","39","400772","0.0-11.0-0.14","7243","János imád kláragodni, ezért sokat kláragszik. Ti ritkán...","0","kláragszotok","[""kláragszotok"",""kláragodtok""]","kláragodtok","esp trial","3","false"
"html-button-response","40","404276","0.0-11.0-1.14","null","<p>A másik játékos ezt választotta: <b>kláragodtok</b>.</p><p>&#10060;</p><p>A válaszaitok <b>nem</b> egyeznek meg.</p>","null","","","","feedback trial","",""
"html-button-response-esp","41","412045","0.0-11.0-0.15","7268","János imád bribékedni, ezért sokat bribékszik. Ti ritkán...","0","bribékszetek","[""bribékszetek"",""bribékedtek""]","bribékedtek","esp trial","3","false"
"html-button-response","42","415546","0.0-11.0-1.15","null","<p>A másik játékos ezt választotta: <b>bribékedtek</b>.</p><p>&#10060;</p><p>A válaszaitok <b>nem</b> egyeznek meg.</p>","null","","","","feedback trial","",""
"html-button-response-esp","43","424181","0.0-11.0-0.16","8134","János imád pibegezni, ezért sokat pibegzik. Ők ritkán...","0","pibegeznek","[""pibegeznek"",""pibegzenek""]","pibegeznek","esp trial","3","true"
"html-button-response","44","427684","0.0-11.0-1.16","null","<p>A másik játékos ezt választotta: <b>pibegeznek</b>.</p><p>&#x2705;</p><p>A te válaszod és a másik játékos válasza <b>megegyeznek</b>.</p>","null","","","","feedback trial","",""
"html-button-response-esp","45","434462","0.0-11.0-0.17","6277","János imád bötőrözni, ezért sokat bötőrzik. Mi ritkán...","0","bötőrzünk","[""bötőrzünk"",""bötőrözünk""]","bötőrözünk","esp trial","3","false"
"html-button-response","46","437964","0.0-11.0-1.17","null","<p>A másik játékos ezt választotta: <b>bötőrözünk</b>.</p><p>&#10060;</p><p>A válaszaitok <b>nem</b> egyeznek meg.</p>","null","","","","feedback trial","",""
"html-button-response-esp","47","444060","0.0-11.0-0.18","5595","János imád döjözni, ezért sokat döjlik. Ők ritkán...","0","döjlenek","[""döjlenek"",""döjöznek""]","döjlenek","esp trial","3","true"
"html-button-response","48","447563","0.0-11.0-1.18","null","<p>A másik játékos ezt választotta: <b>döjlenek</b>.</p><p>&#x2705;</p><p>A te válaszod és a másik játékos válasza <b>megegyeznek</b>.</p>","null","","","","feedback trial","",""
"html-button-response-esp","49","457244","0.0-11.0-0.19","9180","János imád frorozni, ezért sokat frorlik. Ők ritkán...","1","froroznak","[""frorlanak"",""froroznak""]","frorlanak","esp trial","3","false"
"html-button-response","50","460745","0.0-11.0-1.19","null","<p>A másik játékos ezt választotta: <b>frorlanak</b>.</p><p>&#10060;</p><p>A válaszaitok <b>nem</b> egyeznek meg.</p>","null","","","","feedback trial","",""
"html-button-response-esp","51","467412","0.0-11.0-0.20","6165","János imád játozni, ezért sokat játlik. Mi ritkán...","0","játlunk","[""játlunk"",""játozunk""]","játlunk","esp trial","3","true"
"html-button-response","52","470915","0.0-11.0-1.20","null","<p>A másik játékos ezt választotta: <b>játlunk</b>.</p><p>&#x2705;</p><p>A te válaszod és a másik játékos válasza <b>megegyeznek</b>.</p>","null","","","","feedback trial","",""
"html-button-response-esp","53","477892","0.0-11.0-0.21","6475","János imád trálodni, ezért sokat trálszik. Mi ritkán...","1","trálszunk","[""trálodunk"",""trálszunk""]","trálszunk","esp trial","3","true"
"html-button-response","54","481394","0.0-11.0-1.21","null","<p>A másik játékos ezt választotta: <b>trálszunk</b>.</p><p>&#x2705;</p><p>A te válaszod és a másik játékos válasza <b>megegyeznek</b>.</p>","null","","","","feedback trial","",""
"html-button-response-esp","55","488316","0.0-11.0-0.22","6420","János imád hiragozni, ezért sokat hiragzik. Ők ritkán...","1","hiragoznak","[""hiragzanak"",""hiragoznak""]","hiragoznak","esp trial","3","true"
"html-button-response","56","491818","0.0-11.0-1.22","null","<p>A másik játékos ezt választotta: <b>hiragoznak</b>.</p><p>&#x2705;</p><p>A te válaszod és a másik játékos válasza <b>megegyeznek</b>.</p>","null","","","","feedback trial","",""
"html-button-response-esp","57","498590","0.0-11.0-0.23","6270","János imád nyádozni, ezért sokat nyádlik. Ők ritkán...","1","nyádlanak","[""nyádoznak"",""nyádlanak""]","nyádlanak","esp trial","3","true"
"html-button-response","58","502092","0.0-11.0-1.23","null","<p>A másik játékos ezt választotta: <b>nyádlanak</b>.</p><p>&#x2705;</p><p>A te válaszod és a másik játékos válasza <b>megegyeznek</b>.</p>","null","","","","feedback trial","",""
"html-button-response-esp","59","509140","0.0-11.0-0.24","6546","János imád flerékedni, ezért sokat flerékszik. Mi ritkán...","1","flerékszünk","[""flerékedünk"",""flerékszünk""]","flerékedünk","esp trial","3","false"
"html-button-response","60","512642","0.0-11.0-1.24","null","<p>A másik játékos ezt választotta: <b>flerékedünk</b>.</p><p>&#10060;</p><p>A válaszaitok <b>nem</b> egyeznek meg.</p>","null","","","","feedback trial","",""
"html-button-response-esp","61","520556","0.0-11.0-0.25","7412","János imád flodozni, ezért sokat flodlik. Ti ritkán...","1","flodoztok","[""flodlotok"",""flodoztok""]","flodoztok","esp trial","3","true"
"html-button-response","62","524058","0.0-11.0-1.25","null","<p>A másik játékos ezt választotta: <b>flodoztok</b>.</p><p>&#x2705;</p><p>A te válaszod és a másik játékos válasza <b>megegyeznek</b>.</p>","null","","","","feedback trial","",""
"html-button-response-esp","63","530060","0.0-11.0-0.26","5117","János imád nyöbözni, ezért sokat nyöbzik. Ők ritkán...","1","nyöböznek","[""nyöbzenek"",""nyöböznek""]","nyöböznek","esp trial","3","true"
"html-button-response","64","533563","0.0-11.0-1.26","null","<p>A másik játékos ezt választotta: <b>nyöböznek</b>.</p><p>&#x2705;</p><p>A te válaszod és a másik játékos válasza <b>megegyeznek</b>.</p>","null","","","","feedback trial","",""
"html-button-response-esp","65","539564","0.0-11.0-0.27","5300","János imád vilesezni, ezért sokat vileslik. Mi ritkán...","1","vileslünk","[""vilesezünk"",""vileslünk""]","vilesezünk","esp trial","3","false"
"html-button-response","66","543067","0.0-11.0-1.27","null","<p>A másik játékos ezt választotta: <b>vilesezünk</b>.</p><p>&#10060;</p><p>A válaszaitok <b>nem</b> egyeznek meg.</p>","null","","","","feedback trial","",""
"html-button-response-esp","67","549428","0.0-11.0-0.28","5859","János imád nyizozni, ezért sokat nyizlik. Mi ritkán...","1","nyizlunk","[""nyizozunk"",""nyizlunk""]","nyizlunk","esp trial","3","true"
"html-button-response","68","552930","0.0-11.0-1.28","null","<p>A másik játékos ezt választotta: <b>nyizlunk</b>.</p><p>&#x2705;</p><p>A te válaszod és a másik játékos válasza <b>megegyeznek</b>.</p>","null","","","","feedback trial","",""
"html-button-response-esp","69","560388","0.0-11.0-0.29","6956","János imád sprebezni, ezért sokat sprebzik. Ők ritkán...","1","sprebeznek","[""sprebzenek"",""sprebeznek""]","sprebeznek","esp trial","3","true"
"html-button-response","70","563891","0.0-11.0-1.29","null","<p>A másik játékos ezt választotta: <b>sprebeznek</b>.</p><p>&#x2705;</p><p>A te válaszod és a másik játékos válasza <b>megegyeznek</b>.</p>","null","","","","feedback trial","",""
"html-button-response-esp","71","569893","0.0-11.0-0.30","3820","János imád flátozni, ezért sokat flátlik. Ti ritkán...","0","flátoztok","[""flátoztok"",""flátlotok""]","flátoztok","esp trial","3","true"
"html-button-response","72","573394","0.0-11.0-1.30","null","<p>A másik játékos ezt választotta: <b>flátoztok</b>.</p><p>&#x2705;</p><p>A te válaszod és a másik játékos válasza <b>megegyeznek</b>.</p>","null","","","","feedback trial","",""
"html-button-response-esp","73","579948","0.0-11.0-0.31","6052","János imád metégedni, ezért sokat metégszik. Ők ritkán...","1","metégszenek","[""metégednek"",""metégszenek""]","metégednek","esp trial","3","false"
"html-button-response","74","583450","0.0-11.0-1.31","null","<p>A másik játékos ezt választotta: <b>metégednek</b>.</p><p>&#10060;</p><p>A válaszaitok <b>nem</b> egyeznek meg.</p>","null","","","","feedback trial","",""
"html-button-response-esp","75","589452","0.0-11.0-0.32","5484","János imád prihegedni, ezért sokat prihegszik. Ők ritkán...","1","prihegszenek","[""prihegednek"",""prihegszenek""]","prihegednek","esp trial","3","false"
"html-button-response","76","592954","0.0-11.0-1.32","null","<p>A másik játékos ezt választotta: <b>prihegednek</b>.</p><p>&#10060;</p><p>A válaszaitok <b>nem</b> egyeznek meg.</p>","null","","","","feedback trial","",""
"html-button-response-esp","77","598956","0.0-11.0-0.33","4891","János imád bügözni, ezért sokat bügzik. Ők ritkán...","0","bügöznek","[""bügöznek"",""bügzenek""]","bügzenek","esp trial","3","false"
"html-button-response","78","602458","0.0-11.0-1.33","null","<p>A másik játékos ezt választotta: <b>bügzenek</b>.</p><p>&#10060;</p><p>A válaszaitok <b>nem</b> egyeznek meg.</p>","null","","","","feedback trial","",""
"html-button-response-esp","79","608459","0.0-11.0-0.34","5436","János imád trilekedni, ezért sokat trilekszik. Ti ritkán...","0","trilekedtek","[""trilekedtek"",""trilekszetek""]","trilekedtek","esp trial","3","true"
"html-button-response","80","611961","0.0-11.0-1.34","null","<p>A másik játékos ezt választotta: <b>trilekedtek</b>.</p><p>&#x2705;</p><p>A te válaszod és a másik játékos válasza <b>megegyeznek</b>.</p>","null","","","","feedback trial","",""
"html-button-response-esp","81","617964","0.0-11.0-0.35","4822","János imád spivejezni, ezért sokat spivejlik. Ők ritkán...","0","spivejlenek","[""spivejlenek"",""spivejeznek""]","spivejeznek","esp trial","3","false"
"html-button-response","82","621467","0.0-11.0-1.35","null","<p>A másik játékos ezt választotta: <b>spivejeznek</b>.</p><p>&#10060;</p><p>A válaszaitok <b>nem</b> egyeznek meg.</p>","null","","","","feedback trial","",""
"html-button-response-esp","83","627468","0.0-11.0-0.36","5261","János imád ribegedni, ezért sokat ribegszik. Ti ritkán...","0","ribegszetek","[""ribegszetek"",""ribegedtek""]","ribegedtek","esp trial","3","false"
"html-button-response","84","630971","0.0-11.0-1.36","null","<p>A másik játékos ezt választotta: <b>ribegedtek</b>.</p><p>&#10060;</p><p>A válaszaitok <b>nem</b> egyeznek meg.</p>","null","","","","feedback trial","",""
"html-button-response-esp","85","636975","0.0-11.0-0.37","1611","János imád vihapodni, ezért sokat vihapszik. Mi ritkán...","1","vihapszunk","[""vihapodunk"",""vihapszunk""]","vihapszunk","esp trial","3","true"
"html-button-response","86","640478","0.0-11.0-1.37","null","<p>A másik játékos ezt választotta: <b>vihapszunk</b>.</p><p>&#x2705;</p><p>A te válaszod és a másik játékos válasza <b>megegyeznek</b>.</p>","null","","","","feedback trial","",""
"html-button-response-esp","87","646652","0.0-11.0-0.38","5674","János imád plibozni, ezért sokat plibzik. Ti ritkán...","1","pliboztok","[""plibzotok"",""pliboztok""]","pliboztok","esp trial","3","true"
"html-button-response","88","650156","0.0-11.0-1.38","null","<p>A másik játékos ezt választotta: <b>pliboztok</b>.</p><p>&#x2705;</p><p>A te válaszod és a másik játékos válasza <b>megegyeznek</b>.</p>","null","","","","feedback trial","",""
"html-button-response-esp","89","656158","0.0-11.0-0.39","2314","János imád nyülöközni, ezért sokat nyülöklik. Ők ritkán...","1","nyülököznek","[""nyülöklenek"",""nyülököznek""]","nyülököznek","esp trial","3","true"
"html-button-response","90","659661","0.0-11.0-1.39","null","<p>A másik játékos ezt választotta: <b>nyülököznek</b>.</p><p>&#x2705;</p><p>A te válaszod és a másik játékos válasza <b>megegyeznek</b>.</p>","null","","","","feedback trial","",""
"html-button-response-esp","91","665664","0.0-11.0-0.40","1105","János imád géregezni, ezért sokat géreglik. Ti ritkán...","1","géregeztek","[""géregletek"",""géregeztek""]","géregeztek","esp trial","3","true"
"html-button-response","92","669169","0.0-11.0-1.40","null","<p>A másik játékos ezt választotta: <b>géregeztek</b>.</p><p>&#x2705;</p><p>A te válaszod és a másik játékos válasza <b>megegyeznek</b>.</p>","null","","","","feedback trial","",""
"html-button-response-esp","93","675171","0.0-11.0-0.41","886","János imád brürözni, ezért sokat brürzik. Ők ritkán...","1","brüröznek","[""brürzenek"",""brüröznek""]","brüröznek","esp trial","3","true"
"html-button-response","94","678673","0.0-11.0-1.41","null","<p>A másik játékos ezt választotta: <b>brüröznek</b>.</p><p>&#x2705;</p><p>A te válaszod és a másik játékos válasza <b>megegyeznek</b>.</p>","null","","","","feedback trial","",""
"html-button-response-esp","95","684674","0.0-11.0-0.42","734","János imád gihamozni, ezért sokat gihamlik. Ők ritkán...","1","gihamlanak","[""gihamoznak"",""gihamlanak""]","gihamoznak","esp trial","3","false"
"html-button-response","96","688177","0.0-11.0-1.42","null","<p>A másik játékos ezt választotta: <b>gihamoznak</b>.</p><p>&#10060;</p><p>A válaszaitok <b>nem</b> egyeznek meg.</p>","null","","","","feedback trial","",""
"html-button-response-esp","97","694180","0.0-11.0-0.43","814","János imád hubonyozni, ezért sokat hubonylik. Ti ritkán...","1","hubonylotok","[""hubonyoztok"",""hubonylotok""]","hubonyoztok","esp trial","3","false"
"html-button-response","98","697683","0.0-11.0-1.43","null","<p>A másik játékos ezt választotta: <b>hubonyoztok</b>.</p><p>&#10060;</p><p>A válaszaitok <b>nem</b> egyeznek meg.</p>","null","","","","feedback trial","",""
"html-button-response-esp","99","703687","0.0-11.0-0.44","588","János imád trukodni, ezért sokat trukszik. Ti ritkán...","0","trukszotok","[""trukszotok"",""trukodtok""]","trukodtok","esp trial","3","false"
"html-button-response","100","707189","0.0-11.0-1.44","null","<p>A másik játékos ezt választotta: <b>trukodtok</b>.</p><p>&#10060;</p><p>A válaszaitok <b>nem</b> egyeznek meg.</p>","null","","","","feedback trial","",""
"html-button-response-esp","101","713192","0.0-11.0-0.45","793","János imád sztredezni, ezért sokat sztredlik. Ti ritkán...","1","sztredletek","[""sztredeztek"",""sztredletek""]","sztredeztek","esp trial","3","false"
"html-button-response","102","716694","0.0-11.0-1.45","null","<p>A másik játékos ezt választotta: <b>sztredeztek</b>.</p><p>&#10060;</p><p>A válaszaitok <b>nem</b> egyeznek meg.</p>","null","","","","feedback trial","",""
"html-button-response-esp","103","722697","0.0-11.0-0.46","785","János imád bejezni, ezért sokat bejzik. Mi ritkán...","1","bejzünk","[""bejezünk"",""bejzünk""]","bejezünk","esp trial","3","false"
"html-button-response","104","726198","0.0-11.0-1.46","null","<p>A másik játékos ezt választotta: <b>bejezünk</b>.</p><p>&#10060;</p><p>A válaszaitok <b>nem</b> egyeznek meg.</p>","null","","","","feedback trial","",""
"html-button-response-esp","105","732202","0.0-11.0-0.47","4162","János imád dibágozni, ezért sokat dibáglik. Ti ritkán...","1","dibágoztok","[""dibáglotok"",""dibágoztok""]","dibágoztok","esp trial","3","true"
"html-button-response","106","735703","0.0-11.0-1.47","null","<p>A másik játékos ezt választotta: <b>dibágoztok</b>.</p><p>&#x2705;</p><p>A te válaszod és a másik játékos válasza <b>megegyeznek</b>.</p>","null","","","","feedback trial","",""
"html-button-response-esp","107","742204","0.0-11.0-0.48","6000","János imád brűközni, ezért sokat brűklik. Ti ritkán...","0","brűköztök","[""brűköztök"",""brűklötök""]","brűköztök","esp trial","3","true"
"html-button-response","108","745707","0.0-11.0-1.48","null","<p>A másik játékos ezt választotta: <b>brűköztök</b>.</p><p>&#x2705;</p><p>A te válaszod és a másik játékos válasza <b>megegyeznek</b>.</p>","null","","","","feedback trial","",""
"html-button-response-esp","109","751710","0.0-11.0-0.49","3971","János imád dralágozni, ezért sokat dralágzik. Mi ritkán...","1","dralágozunk","[""dralágzunk"",""dralágozunk""]","dralágzunk","esp trial","3","false"
"html-button-response","110","755213","0.0-11.0-1.49","null","<p>A másik játékos ezt választotta: <b>dralágzunk</b>.</p><p>&#10060;</p><p>A válaszaitok <b>nem</b> egyeznek meg.</p>","null","","","","feedback trial","",""
"html-button-response-esp","111","761214","0.0-11.0-0.50","5210","János imád nurokozni, ezért sokat nuroklik. Mi ritkán...","0","nurokozunk","[""nurokozunk"",""nuroklunk""]","nuroklunk","esp trial","3","false"
"html-button-response","112","764717","0.0-11.0-1.50","null","<p>A másik játékos ezt választotta: <b>nuroklunk</b>.</p><p>&#10060;</p><p>A válaszaitok <b>nem</b> egyeznek meg.</p>","null","","","","feedback trial","",""
"html-button-response-esp","113","770719","0.0-11.0-0.51","4617","János imád frirozni, ezért sokat frirzik. Mi ritkán...","0","frirozunk","[""frirozunk"",""frirzunk""]","frirozunk","esp trial","3","true"
"html-button-response","114","774221","0.0-11.0-1.51","null","<p>A másik játékos ezt választotta: <b>frirozunk</b>.</p><p>&#x2705;</p><p>A te válaszod és a másik játékos válasza <b>megegyeznek</b>.</p>","null","","","","feedback trial","",""
"html-button-response-esp","115","780452","0.0-11.0-0.52","5730","János imád spuborozni, ezért sokat spuborzik. Ők ritkán...","0","spuborzanak","[""spuborzanak"",""spuboroznak""]","spuboroznak","esp trial","3","false"
"html-button-response","116","783954","0.0-11.0-1.52","null","<p>A másik játékos ezt választotta: <b>spuboroznak</b>.</p><p>&#10060;</p><p>A válaszaitok <b>nem</b> egyeznek meg.</p>","null","","","","feedback trial","",""
"html-button-response-esp","117","790020","0.0-11.0-0.53","5564","János imád prugorozni, ezért sokat prugorzik. Ti ritkán...","1","prugoroztok","[""prugorzotok"",""prugoroztok""]","prugoroztok","esp trial","3","true"
"html-button-response","118","793523","0.0-11.0-1.53","null","<p>A másik játékos ezt választotta: <b>prugoroztok</b>.</p><p>&#x2705;</p><p>A te válaszod és a másik játékos válasza <b>megegyeznek</b>.</p>","null","","","","feedback trial","",""
"html-button-response","119","799460","0.0-12.0","5434","<p>A közös játék most véget ért.</p><p>Mielőtt eláruljuk a végső pontszámodat, arra kérlek, játszd a szóválasztós játékot néhány percig egyedül is.</p><p>A feladatod ugyanaz lesz, választani két lehetőség közül.</p><p>Most viszont egyedül kell döntened, hogy te melyiket választanád.</p>","0","","","","","",""
"html-button-response-clever","120","806436","0.0-13.0-0.0","6474","János imád flemezni, ezért sokat flemlik. Mi ritkán...","0","flemezünk","[""flemezünk"",""flemlünk""]","","posttest trial","4",""
"html-button-response-clever","121","809868","0.0-13.0-0.1","2931","János imád drilarozni, ezért sokat drilarzik. Mi ritkán...","0","drilarozunk","[""drilarozunk"",""drilarzunk""]","","posttest trial","4",""
"html-button-response-clever","122","814404","0.0-13.0-0.2","4033","János imád gihejezni, ezért sokat gihejlik. Mi ritkán...","0","gihejezünk","[""gihejezünk"",""gihejlünk""]","","posttest trial","4",""
"html-button-response-clever","123","820181","0.0-13.0-0.3","5276","János imád dirozni, ezért sokat dirlik. Ti ritkán...","1","diroztok","[""dirlotok"",""diroztok""]","","posttest trial","4",""
"html-button-response-clever","124","823916","0.0-13.0-0.4","3232","János imád klehényezni, ezért sokat klehénylik. Ti ritkán...","0","klehényeztek","[""klehényeztek"",""klehényletek""]","","posttest trial","4",""
"html-button-response-clever","125","828044","0.0-13.0-0.5","3627","János imád fröjözni, ezért sokat fröjzik. Ti ritkán...","0","fröjöztök","[""fröjöztök"",""fröjzötök""]","","posttest trial","4",""
"html-button-response-clever","126","833252","0.0-13.0-0.6","4707","János imád föködni, ezért sokat fökszik. Ők ritkán...","0","föködnek","[""föködnek"",""fökszenek""]","","posttest trial","4",""
"html-button-response-clever","127","837564","0.0-13.0-0.7","3810","János imád privékedni, ezért sokat privékszik. Ők ritkán...","1","privékednek","[""privékszenek"",""privékednek""]","","posttest trial","4",""
"html-button-response-clever","128","839756","0.0-13.0-0.8","1691","János imád nyürözni, ezért sokat nyürzik. Ők ritkán...","0","nyüröznek","[""nyüröznek"",""nyürzenek""]","","posttest trial","4",""
"html-button-response-clever","129","844668","0.0-13.0-0.9","4410","János imád drűrözni, ezért sokat drűrzik. Ők ritkán...","1","drűröznek","[""drűrzenek"",""drűröznek""]","","posttest trial","4",""
"html-button-response-clever","130","848500","0.0-13.0-0.10","3330","János imád trivakodni, ezért sokat trivakszik. Mi ritkán...","0","trivakodunk","[""trivakodunk"",""trivakszunk""]","","posttest trial","4",""
"html-button-response-clever","131","852653","0.0-13.0-0.11","3651","János imád sprozozni, ezért sokat sprozlik. Ők ritkán...","1","sprozoznak","[""sprozlanak"",""sprozoznak""]","","posttest trial","4",""
"html-button-response-clever","132","859501","0.0-13.0-0.12","6347","János imád flüröközni, ezért sokat flüröklik. Ti ritkán...","0","flürököztök","[""flürököztök"",""flüröklötök""]","","posttest trial","4",""
"html-button-response-clever","133","865059","0.0-13.0-0.13","5057","János imád lájozni, ezért sokat lájzik. Ti ritkán...","0","lájoztok","[""lájoztok"",""lájzotok""]","","posttest trial","4",""
"html-button-response-clever","134","870924","0.0-13.0-0.14","5364","János imád kűdözni, ezért sokat kűdlik. Ők ritkán...","1","kűdöznek","[""kűdlenek"",""kűdöznek""]","","posttest trial","4",""
"html-button-response-clever","135","875515","0.0-13.0-0.15","4091","János imád spügözni, ezért sokat spügzik. Mi ritkán...","1","spügözünk","[""spügzünk"",""spügözünk""]","","posttest trial","4",""
"html-button-response-clever","136","881587","0.0-13.0-0.16","5571","János imád frálapodni, ezért sokat frálapszik. Ti ritkán...","0","frálapodtok","[""frálapodtok"",""frálapszotok""]","","posttest trial","4",""
"html-button-response-clever","137","889836","0.0-13.0-0.17","7748","János imád dárakodni, ezért sokat dárakszik. Mi ritkán...","0","dárakodunk","[""dárakodunk"",""dárakszunk""]","","posttest trial","4",""
"html-button-response-clever","138","895251","0.0-13.0-0.18","4914","János imád bratározni, ezért sokat bratárzik. Ők ritkán...","1","bratároznak","[""bratárzanak"",""bratároznak""]","","posttest trial","4",""
"html-button-response-clever","139","902092","0.0-13.0-0.19","6339","János imád flöközni, ezért sokat flöklik. Ti ritkán...","0","flököztök","[""flököztök"",""flöklötök""]","","posttest trial","4",""
"html-button-response-clever","140","906995","0.0-13.0-0.20","4402","János imád brülösözni, ezért sokat brülöslik. Mi ritkán...","0","brülösözünk","[""brülösözünk"",""brülöslünk""]","","posttest trial","4",""
"html-button-response-clever","141","911123","0.0-13.0-0.21","3627","János imád spibegezni, ezért sokat spibeglik. Mi ritkán...","0","spibegezünk","[""spibegezünk"",""spibeglünk""]","","posttest trial","4",""
"html-button-response-clever","142","915451","0.0-13.0-0.22","3826","János imád trugokozni, ezért sokat trugoklik. Ők ritkán...","1","trugokoznak","[""trugoklanak"",""trugokoznak""]","","posttest trial","4",""
"html-button-response-clever","143","919235","0.0-13.0-0.23","3282","János imád frakozni, ezért sokat fraklik. Mi ritkán...","0","frakozunk","[""frakozunk"",""fraklunk""]","","posttest trial","4",""
"html-button-response-clever","144","922163","0.0-13.0-0.24","2427","János imád mülőrözni, ezért sokat mülőrzik. Mi ritkán...","0","mülőrzünk","[""mülőrzünk"",""mülőrözünk""]","","posttest trial","4",""
"html-button-response-clever","145","925883","0.0-13.0-0.25","3219","János imád nyivágozni, ezért sokat nyivágzik. Mi ritkán...","1","nyivágzunk","[""nyivágozunk"",""nyivágzunk""]","","posttest trial","4",""
"html-button-response-clever","146","930523","0.0-13.0-0.26","4138","János imád dabozni, ezért sokat dabzik. Ti ritkán...","1","daboztok","[""dabzotok"",""daboztok""]","","posttest trial","4",""
"html-button-response-clever","147","934396","0.0-13.0-0.27","3371","János imád branyozni, ezért sokat branylik. Ők ritkán...","0","branyoznak","[""branyoznak"",""branylanak""]","","posttest trial","4",""
"html-button-response-clever","148","938899","0.0-13.0-0.28","4002","János imád sprudozni, ezért sokat sprudlik. Mi ritkán...","0","sprudozunk","[""sprudozunk"",""sprudlunk""]","","posttest trial","4",""
"html-button-response-clever","149","942996","0.0-13.0-0.29","3595","János imád püzözni, ezért sokat püzlik. Ti ritkán...","0","püzlötök","[""püzlötök"",""püzöztök""]","","posttest trial","4",""
"html-button-response-clever","150","945236","0.0-13.0-0.30","1739","János imád mágamozni, ezért sokat mágamlik. Mi ritkán...","0","mágamlunk","[""mágamlunk"",""mágamozunk""]","","posttest trial","4",""
"html-button-response-clever","151","948459","0.0-13.0-0.31","2721","János imád pilégedni, ezért sokat pilégszik. Ők ritkán...","0","pilégszenek","[""pilégszenek"",""pilégednek""]","","posttest trial","4",""
"html-button-response-clever","152","951803","0.0-13.0-0.32","2842","János imád dilakozni, ezért sokat dilaklik. Ti ritkán...","1","dilakoztok","[""dilaklotok"",""dilakoztok""]","","posttest trial","4",""
"html-button-response-clever","153","953796","0.0-13.0-0.33","1492","János imád flűgözni, ezért sokat flűgzik. Mi ritkán...","0","flűgzünk","[""flűgzünk"",""flűgözünk""]","","posttest trial","4",""
"html-button-response-clever","154","956492","0.0-13.0-0.34","2195","János imád posozni, ezért sokat poslik. Ti ritkán...","0","posoztok","[""posoztok"",""poslotok""]","","posttest trial","4",""
"html-button-response-clever","155","959268","0.0-13.0-0.35","2275","János imád trugozni, ezért sokat trugzik. Ők ritkán...","0","trugzanak","[""trugzanak"",""trugoznak""]","","posttest trial","4",""
"html-button-response-clever","156","963692","0.0-13.0-0.36","3923","János imád spiharozni, ezért sokat spiharzik. Ti ritkán...","1","spiharoztok","[""spiharzotok"",""spiharoztok""]","","posttest trial","4",""
"html-button-response-clever","157","965899","0.0-13.0-0.37","1706","János imád prögözni, ezért sokat prögzik. Ti ritkán...","0","prögöztök","[""prögöztök"",""prögzötök""]","","posttest trial","4",""
"html-button-response-clever","158","970372","0.0-13.0-0.38","3971","János imád brözözni, ezért sokat brözlik. Ti ritkán...","1","brözöztök","[""brözlötök"",""brözöztök""]","","posttest trial","4",""
"html-button-response-clever","159","973291","0.0-13.0-0.39","2419","János imád molodni, ezért sokat molszik. Ti ritkán...","1","molodtok","[""molszotok"",""molodtok""]","","posttest trial","4",""
"html-button-response-clever","160","977484","0.0-13.0-0.40","3691","János imád spirágozni, ezért sokat spiráglik. Ti ritkán...","0","spiráglotok","[""spiráglotok"",""spirágoztok""]","","posttest trial","4",""
"html-button-response-clever","161","981611","0.0-13.0-0.41","3625","János imád pragányozni, ezért sokat pragánylik. Ti ritkán...","1","pragányoztok","[""pragánylotok"",""pragányoztok""]","","posttest trial","4",""
"html-button-response-clever","162","987867","0.0-13.0-0.42","5756","János imád frálasozni, ezért sokat frálaslik. Ők ritkán...","1","frálasoznak","[""frálaslanak"",""frálasoznak""]","","posttest trial","4",""
"html-button-response-clever","163","991357","0.0-13.0-0.43","2987","János imád dujozni, ezért sokat dujzik. Ők ritkán...","1","dujoznak","[""dujzanak"",""dujoznak""]","","posttest trial","4",""
"html-button-response-clever","164","994372","0.0-13.0-0.44","2514","János imád csibagozni, ezért sokat csibagzik. Ti ritkán...","1","csibagoztok","[""csibagzotok"",""csibagoztok""]","","posttest trial","4",""
"html-button-response-clever","165","998068","0.0-13.0-0.45","3194","János imád lűközni, ezért sokat lűklik. Ők ritkán...","1","lűköznek","[""lűklenek"",""lűköznek""]","","posttest trial","4",""
"html-button-response-clever","166","1001740","0.0-13.0-0.46","3169","János imád brivakozni, ezért sokat brivaklik. Ti ritkán...","1","brivakoztok","[""brivaklotok"",""brivakoztok""]","","posttest trial","4",""
"html-button-response-clever","167","1007212","0.0-13.0-0.47","4971","János imád virozni, ezért sokat virzik. Ők ritkán...","0","viroznak","[""viroznak"",""virzanak""]","","posttest trial","4",""
"html-button-response-clever","168","1010980","0.0-13.0-0.48","3266","János imád trikozni, ezért sokat triklik. Ti ritkán...","0","trikoztok","[""trikoztok"",""triklotok""]","","posttest trial","4",""
"html-button-response-clever","169","1015227","0.0-13.0-0.49","3745","János imád prélemezni, ezért sokat prélemlik. Ők ritkán...","1","prélemeznek","[""prélemlenek"",""prélemeznek""]","","posttest trial","4",""
"html-button-response-clever","170","1020165","0.0-13.0-0.50","4436","János imád csubozni, ezért sokat csubzik. Mi ritkán...","0","csubozunk","[""csubozunk"",""csubzunk""]","","posttest trial","4",""
"html-button-response-clever","171","1026012","0.0-13.0-0.51","5346","János imád köszözni, ezért sokat köszlik. Ti ritkán...","1","köszöztök","[""köszlötök"",""köszöztök""]","","posttest trial","4",""
"html-button-response-clever","172","1031235","0.0-13.0-0.52","4723","János imád sprűrözni, ezért sokat sprűrlik. Ők ritkán...","1","sprűröznek","[""sprűrlenek"",""sprűröznek""]","","posttest trial","4",""
"html-button-response-clever","173","1034419","0.0-13.0-0.53","2683","János imád gyihegezni, ezért sokat gyihegzik. Ti ritkán...","0","gyihegzetek","[""gyihegzetek"",""gyihegeztek""]","","posttest trial","4",""
"html-button-response","174","1039212","0.0-14.0","4291","<p> Vége a játéknak. A teljes pontszámod 32/54.</p><p> Szép munka! &#128526;&#128526;&#128526;</p><p>A Befejezés gomb megnyomása után bezárhatod a böngészőablakot.</p>","0","","","","","",""
"html-keyboard-response","175","1044714","0.0-15.0","null","<div class=""message"">
         <p>Egy kis türelmet kérünk, amíg elmentjük az adatokat...</p>
         </div>","null","","","","","",""
