"trial_type","trial_index","time_elapsed","internal_node_id","rt","stimulus","response","response_string","choices","esp_response","trial_kind","list_number","esp_match"
"pavlovia","0","910","0.0-0.0","","","","","","","","",""
"html-button-response","1","42900","0.0-1.0","41466","<p>Kedves Résztvevő! A Budapesti Műszaki és Gazdaságtudományi Egyetem Kognitív Tudományi Tanszékének kutatásában való részvételed kérjük. A kutatásban azt vizsgáljuk, hogy a magyar anyanyelvűek hogyan használnak bizonyos szóalakokat, és hogy milyen képük van arról, hogy mások hogyan használják, hogyan képzik a szavakat. Ez hozzásegít bennünket ahhoz, hogy jobban megértsük, hogyan dolgozza fel és tárolja a nyelvet az emberi agy, és hogyan működnek, hogyan változnak egy adott közösség nyelvi konvenciói.</p><p>A vizsgálat egy rövid számítógépes feladatból fog állni. A kutatásban való részvétel önkéntes, a részvételi szándék bármikor visszavonható. A résztvevők eredményeit név nélkül kezeljük, így nem beazonosíthatók az adatok feldolgozása során. Minden személyes adatot az EU általános adatvédelmi rendeletének (GDPR) megfelelően kezelünk és legfeljebb öt éven belül megsemmisítünk. A vizsgálat jellemzően húsz percet vesz igénybe.</p><p>Kutatásvezető:</p><p>Dr. Rácz Péter, tudományos munkatárs, BME KTT</p><p>e-mail: racz.peter.marton@ttk.bme.hu</p>","0","","","","","",""
"html-button-response","2","51288","0.0-2.0","7870","<p>A kísérletben szavakat fogsz látni. Ezek között lesznek olyanok, amelyeket ismersz, de előfordulhatnak olyanok is, amelyeket nem ismersz, sőt, vannak köztük kitalált szavak is. Minden szónál látni fogsz toldalékolt alakokat. A te feladatod az lesz, hogy minden szóhoz kiválaszd azt a toldalékolt alakot, amely a te számodra ismerősebben, természetesebben hangzik. Rossz válaszok nincsenek, mert van olyan, hogy különböző embereknek más és más szó tűnik jobb választásnak. A választ úgy tudod majd kiválasztani, ha rákattintasz.</p><p>Ebben a szóválasztós játékban egy másik játékossal együtt veszel majd részt. A másik játékos is minden esetben azok közül a lehetőségek közül válogathat, mint te. Kettőtök feladata az, hogy ugyanazt a lehetőséget válasszátok minden esetben. Ahhoz, hogy ez sikerüljön, neked figyelned kell arra, hogy a másik játékos milyen válaszokat ad, és ennek alapján meg kell tippelned, hogyan választ legközelebb. Ha eltalálod, akkor pontot kapsz.</p>","0","","","","","",""
"html-button-response","3","56599","0.0-3.0","4790","<p>Kérjük, olvasd el az alábbi nyilatkozatot, és amennyiben egyetértesz vele, nyomj a Beleegyezés gombra!</p><p>Kijelentem, hogy magyar anyanyelvű személyként önként veszek részt a BME KTT kísérletében. A kutatás céljával és folyamatával kapcsolatban elegendő tájékoztatást kaptam, lehetőségem volt kérdések feltételére, és esetleges kérdéseimre megfelelő válaszokat kaptam. A tájékoztatás alapján elegendő mennyiségű információ áll a rendelkezésemre, hogy eldönthessem, részt kívánok-e venni a kutatásban.</p><p>Tisztában vagyok vele, hogy részvételi szándékomat és adataimat bármikor, indoklás nélkül visszavonhatom.</p><p>Értem és tudomásul veszem, hogy a kutatás tudományos célokat szolgál, és az általam szolgáltatott adatokat a BME kizárólag kutatási célból használja fel. Tudomásul veszem, hogy eredményeimet a többi résztvevő eredményeivel együtt kezelik, így egyéni teljesítményemről visszajelzést, szakvéleményt nem kapok.</p><p>Megértettem, hogy adataim kezelését illetően a BME az EU általános adatvédelmi rendelete (GDPR), a hatályos adatvédelmi törvény és a nemzetközi kutatás-etikai alapelvek szerint jár el. Eredményeim anonim módon kerülnek feldolgozásra, és a kutatás résztvevői az azonosításomra alkalmas adataimat harmadik félnek nem szolgáltatják ki. Engedélyezem a BME számára a jelen kutatásban felvett adataim feldolgozását és tárolását, beleértve azok későbbi kutatásokhoz való felhasználását is. Személyes adataim kezelésével kapcsolatban tájékoztatást kérhetek a kutatás résztvevőitől, az adatkezelés ellen tiltakozhatok, kérhetem személyes adataim helyesbítését, törlését vagy zárolását, valamint jogorvoslatért a Nemzeti Adatvédelmi és Információszabadság Hatósághoz fordulhatok.</p><p>Kijelentem, hogy a kutatásban való részvételem körülményeiről részletes tájékoztatást kaptam, és a feltételeket elfogadom.</p>","0","","","","","",""
"survey-text","4","87022","0.0-4.0","29895","","{""Q0"":""CMKY7K"",""Q1"":""Nő"",""Q2"":""2000"",""Q3"":""16""}","","","","","",""
"html-button-response","5","100742","0.0-5.0","13210","<p>Ebben a játékban szavakat kell toldalékolni.</p> <p>Minden körben mutatunk majd egy példamondatot, amiben lesz egy szó.</p> <p>Alatta jön egy második mondat, ezt a mondatot neked kell majd befejezni, ugyanezzel a szóval.</p> <p>Nem biztos, hogy a szó eleve ismerős lesz számodra!</p> <p>Minden mondathoz adunk két lehetőséget, ezeket balra és jobbra látod majd.</p> <p>A játék kb. negyedóráig-húsz percig tart.</p>","0","","","","","",""
"html-button-response","6","110066","0.0-6.0","8813","<p>Nézzünk egy példát!</p> <p>A példamondat: ""János nagyon szeret rancsúrozni.""</p><p>Neked ezt a mondatot kell befejezned: ""Én is szívesen...""</p><p>A lehetőségek pedig ezek:</p>","1","","","","","",""
"html-button-response","7","115537","0.0-7.0","4950","<p>Nagyon jó.</p><p>Ezt a játékot nem egyedül fogod játszani, hanem egy másik játékossal.</p><p>Mielőtt továbblépünk, összekapcsolunk titeket egymással.</p><p>Ez igénybe vehet néhány másodpercet, amihez szíves türelmed kérjük.</p>","0","","","","","",""
"html-button-response","8","121298","0.0-8.0","null","<p>Csatlakozás a másik játékoshoz...</p>","null","","","","","",""
"html-button-response","9","123810","0.0-9.0","null","<p> Sikeres kapcsolódás!</p>","null","","","","","",""
"html-button-response","10","134101","0.0-10.0","9787","<p>A következőkben ketten játsszátok a szóválasztós játékot.</p><p>A feladatotok az lesz, hogy minden körben <b>ugyanazt</b> a szót válasszátok.</p><p>Minden ilyen egyező válaszért pontot kaptok.</p><p>Próbáld meg kitalálni, mit választ a másik játékos!</p><p>Bármikor választhatsz, a körnek akkor van vége, ha mindketten döntöttetek.</p><p>Sok sikert!</p>","0","","","","","",""
"html-button-response-esp","11","138927","0.0-11.0-0.0","4311","Te bizony sokat klibamlasz. Én is sokat...","0","klibamlok","[""klibamlok"",""klibamlom""]","klibamlok","esp trial","1","true"
"html-button-response","12","142453","0.0-11.0-1.0","null","<p>A másik játékos ezt választotta: <b>klibamlok</b>.</p><p>&#x2705;</p><p>A te válaszod és a másik játékos válasza <b>megegyeznek</b>.</p>","null","","","","feedback trial","",""
"html-button-response-esp","13","148125","0.0-11.0-0.1","5160","Te bizony sokat herégszel. Én is sokat...","0","herégszem","[""herégszem"",""herégszek""]","herégszem","esp trial","1","true"
"html-button-response","14","151653","0.0-11.0-1.1","null","<p>A másik játékos ezt választotta: <b>herégszem</b>.</p><p>&#x2705;</p><p>A te válaszod és a másik játékos válasza <b>megegyeznek</b>.</p>","null","","","","feedback trial","",""
"html-button-response-esp","15","155925","0.0-11.0-0.2","3757","Te bizony sokat bölszöl. Én is sokat...","1","bölszök","[""bölszöm"",""bölszök""]","bölszök","esp trial","1","true"
"html-button-response","16","159462","0.0-11.0-1.2","null","<p>A másik játékos ezt választotta: <b>bölszök</b>.</p><p>&#x2705;</p><p>A te válaszod és a másik játékos válasza <b>megegyeznek</b>.</p>","null","","","","feedback trial","",""
"html-button-response-esp","17","163655","0.0-11.0-0.3","3676","Te bizony sokat driládzol. Én is sokat...","0","driládzom","[""driládzom"",""driládzok""]","driládzom","esp trial","1","true"
"html-button-response","18","167171","0.0-11.0-1.3","null","<p>A másik játékos ezt választotta: <b>driládzom</b>.</p><p>&#x2705;</p><p>A te válaszod és a másik játékos válasza <b>megegyeznek</b>.</p>","null","","","","feedback trial","",""
"html-button-response-esp","19","170952","0.0-11.0-0.4","2594","Te bizony sokat marzol. Én is sokat...","0","marzom","[""marzom"",""marzok""]","marzok","esp trial","1","false"
"html-button-response","20","174487","0.0-11.0-1.4","null","<p>A másik játékos ezt választotta: <b>marzok</b>.</p><p>&#10060;</p><p>A válaszaitok <b>nem</b> egyeznek meg.</p>","null","","","","feedback trial","",""
"html-button-response-esp","21","179272","0.0-11.0-0.5","4275","Te bizony sokat spibaklasz. Én is sokat...","1","spibaklok","[""spibaklom"",""spibaklok""]","spibaklok","esp trial","1","true"
"html-button-response","22","182797","0.0-11.0-1.5","null","<p>A másik játékos ezt választotta: <b>spibaklok</b>.</p><p>&#x2705;</p><p>A te válaszod és a másik játékos válasza <b>megegyeznek</b>.</p>","null","","","","feedback trial","",""
"html-button-response-esp","23","186578","0.0-11.0-0.6","3272","Te bizony sokat sztremlesz. Én is sokat...","1","sztremlek","[""sztremlem"",""sztremlek""]","sztremlek","esp trial","1","true"
"html-button-response","24","190092","0.0-11.0-1.6","null","<p>A másik játékos ezt választotta: <b>sztremlek</b>.</p><p>&#x2705;</p><p>A te válaszod és a másik játékos válasza <b>megegyeznek</b>.</p>","null","","","","feedback trial","",""
"html-button-response-esp","25","194684","0.0-11.0-0.7","4071","Te bizony sokat juszlasz. Én is sokat...","0","juszlom","[""juszlom"",""juszlok""]","juszlok","esp trial","1","false"
"html-button-response","26","198211","0.0-11.0-1.7","null","<p>A másik játékos ezt választotta: <b>juszlok</b>.</p><p>&#10060;</p><p>A válaszaitok <b>nem</b> egyeznek meg.</p>","null","","","","feedback trial","",""
"html-button-response-esp","27","202324","0.0-11.0-0.8","3594","Te bizony sokat böjzöl. Én is sokat...","0","böjzök","[""böjzök"",""böjzöm""]","böjzök","esp trial","1","true"
"html-button-response","28","205859","0.0-11.0-1.8","null","<p>A másik játékos ezt választotta: <b>böjzök</b>.</p><p>&#x2705;</p><p>A te válaszod és a másik játékos válasza <b>megegyeznek</b>.</p>","null","","","","feedback trial","",""
"html-button-response-esp","29","210303","0.0-11.0-0.9","3913","Te bizony sokat lorjódzol. Én is sokat...","1","lorjódzom","[""lorjódzok"",""lorjódzom""]","lorjódzok","esp trial","1","false"
"html-button-response","30","213838","0.0-11.0-1.9","null","<p>A másik játékos ezt választotta: <b>lorjódzok</b>.</p><p>&#10060;</p><p>A válaszaitok <b>nem</b> egyeznek meg.</p>","null","","","","feedback trial","",""
"html-button-response-esp","31","217606","0.0-11.0-0.10","2897","Te bizony sokat ribegzel. Én is sokat...","0","ribegzek","[""ribegzek"",""ribegzem""]","ribegzek","esp trial","1","true"
"html-button-response","32","221131","0.0-11.0-1.10","null","<p>A másik játékos ezt választotta: <b>ribegzek</b>.</p><p>&#x2705;</p><p>A te válaszod és a másik játékos válasza <b>megegyeznek</b>.</p>","null","","","","feedback trial","",""
"html-button-response-esp","33","224902","0.0-11.0-0.11","2805","Te bizony sokat flüröslesz. Én is sokat...","0","flüröslöm","[""flüröslöm"",""flüröslök""]","flüröslök","esp trial","1","false"
"html-button-response","34","228433","0.0-11.0-1.11","null","<p>A másik játékos ezt választotta: <b>flüröslök</b>.</p><p>&#10060;</p><p>A válaszaitok <b>nem</b> egyeznek meg.</p>","null","","","","feedback trial","",""
"html-button-response-esp","35","233820","0.0-11.0-0.12","4864","Te bizony sokat csíszlasz. Én is sokat...","0","csíszlok","[""csíszlok"",""csíszlom""]","csíszlok","esp trial","1","true"
"html-button-response","36","237351","0.0-11.0-1.12","null","<p>A másik játékos ezt választotta: <b>csíszlok</b>.</p><p>&#x2705;</p><p>A te válaszod és a másik játékos válasza <b>megegyeznek</b>.</p>","null","","","","feedback trial","",""
"html-button-response-esp","37","241128","0.0-11.0-0.13","2646","Te bizony sokat nyáslasz. Én is sokat...","0","nyáslok","[""nyáslok"",""nyáslom""]","nyáslok","esp trial","1","true"
"html-button-response","38","244664","0.0-11.0-1.13","null","<p>A másik játékos ezt választotta: <b>nyáslok</b>.</p><p>&#x2705;</p><p>A te válaszod és a másik játékos válasza <b>megegyeznek</b>.</p>","null","","","","feedback trial","",""
"html-button-response-esp","39","248441","0.0-11.0-0.14","2631","Te bizony sokat vilakszol. Én is sokat...","0","vilakszom","[""vilakszom"",""vilakszok""]","vilakszom","esp trial","1","true"
"html-button-response","40","251961","0.0-11.0-1.14","null","<p>A másik játékos ezt választotta: <b>vilakszom</b>.</p><p>&#x2705;</p><p>A te válaszod és a másik játékos válasza <b>megegyeznek</b>.</p>","null","","","","feedback trial","",""
"html-button-response-esp","41","273641","0.0-11.0-0.15","21162","Te bizony sokat femlesz. Én is sokat...","1","femlek","[""femlem"",""femlek""]","femlek","esp trial","1","true"
"html-button-response","42","277173","0.0-11.0-1.15","null","<p>A másik játékos ezt választotta: <b>femlek</b>.</p><p>&#x2705;</p><p>A te válaszod és a másik játékos válasza <b>megegyeznek</b>.</p>","null","","","","feedback trial","",""
"html-button-response-esp","43","281010","0.0-11.0-0.16","3316","Te bizony sokat málapszol. Én is sokat...","1","málapszom","[""málapszok"",""málapszom""]","málapszok","esp trial","1","false"
"html-button-response","44","284529","0.0-11.0-1.16","null","<p>A másik játékos ezt választotta: <b>málapszok</b>.</p><p>&#10060;</p><p>A válaszaitok <b>nem</b> egyeznek meg.</p>","null","","","","feedback trial","",""
"html-button-response-esp","45","288295","0.0-11.0-0.17","3201","Te bizony sokat prűrlesz. Én is sokat...","1","prűrlök","[""prűrlöm"",""prűrlök""]","prűrlök","esp trial","1","true"
"html-button-response","46","291828","0.0-11.0-1.17","null","<p>A másik játékos ezt választotta: <b>prűrlök</b>.</p><p>&#x2705;</p><p>A te válaszod és a másik játékos válasza <b>megegyeznek</b>.</p>","null","","","","feedback trial","",""
"html-button-response-esp","47","295592","0.0-11.0-0.18","2166","Te bizony sokat pivegszel. Én is sokat...","1","pivegszek","[""pivegszem"",""pivegszek""]","pivegszem","esp trial","1","false"
"html-button-response","48","299117","0.0-11.0-1.18","null","<p>A másik játékos ezt választotta: <b>pivegszem</b>.</p><p>&#10060;</p><p>A válaszaitok <b>nem</b> egyeznek meg.</p>","null","","","","feedback trial","",""
"html-button-response-esp","49","303267","0.0-11.0-0.19","3633","Te bizony sokat flagánylasz. Én is sokat...","0","flagánylok","[""flagánylok"",""flagánylom""]","flagánylok","esp trial","1","true"
"html-button-response","50","306785","0.0-11.0-1.19","null","<p>A másik játékos ezt választotta: <b>flagánylok</b>.</p><p>&#x2705;</p><p>A te válaszod és a másik játékos válasza <b>megegyeznek</b>.</p>","null","","","","feedback trial","",""
"html-button-response-esp","51","310571","0.0-11.0-0.20","3015","Te bizony sokat spilágzol. Én is sokat...","0","spilágzom","[""spilágzom"",""spilágzok""]","spilágzom","esp trial","1","true"
"html-button-response","52","314104","0.0-11.0-1.20","null","<p>A másik játékos ezt választotta: <b>spilágzom</b>.</p><p>&#x2705;</p><p>A te válaszod és a másik játékos válasza <b>megegyeznek</b>.</p>","null","","","","feedback trial","",""
"html-button-response-esp","53","317867","0.0-11.0-0.21","2412","Te bizony sokat drubódzol. Én is sokat...","1","drubódzom","[""drubódzok"",""drubódzom""]","drubódzom","esp trial","1","true"
"html-button-response","54","321397","0.0-11.0-1.21","null","<p>A másik játékos ezt választotta: <b>drubódzom</b>.</p><p>&#x2705;</p><p>A te válaszod és a másik játékos válasza <b>megegyeznek</b>.</p>","null","","","","feedback trial","",""
"html-button-response-esp","55","326953","0.0-11.0-0.22","5037","Te bizony sokat sprökszöl. Én is sokat...","0","sprökszöm","[""sprökszöm"",""sprökszök""]","sprökszöm","esp trial","1","true"
"html-button-response","56","330487","0.0-11.0-1.22","null","<p>A másik játékos ezt választotta: <b>sprökszöm</b>.</p><p>&#x2705;</p><p>A te válaszod és a másik játékos válasza <b>megegyeznek</b>.</p>","null","","","","feedback trial","",""
"html-button-response-esp","57","334267","0.0-11.0-0.23","1622","Te bizony sokat hilarzol. Én is sokat...","0","hilarzom","[""hilarzom"",""hilarzok""]","hilarzok","esp trial","1","false"
"html-button-response","58","337805","0.0-11.0-1.23","null","<p>A másik játékos ezt választotta: <b>hilarzok</b>.</p><p>&#10060;</p><p>A válaszaitok <b>nem</b> egyeznek meg.</p>","null","","","","feedback trial","",""
"html-button-response-esp","59","341586","0.0-11.0-0.24","1968","Te bizony sokat siladzol. Én is sokat...","1","siladzok","[""siladzom"",""siladzok""]","siladzom","esp trial","1","false"
"html-button-response","60","345104","0.0-11.0-1.24","null","<p>A másik játékos ezt választotta: <b>siladzom</b>.</p><p>&#10060;</p><p>A válaszaitok <b>nem</b> egyeznek meg.</p>","null","","","","feedback trial","",""
"html-button-response-esp","61","348890","0.0-11.0-0.25","3029","Te bizony sokat pebzel. Én is sokat...","0","pebzek","[""pebzek"",""pebzem""]","pebzek","esp trial","1","true"
"html-button-response","62","352410","0.0-11.0-1.25","null","<p>A másik játékos ezt választotta: <b>pebzek</b>.</p><p>&#x2705;</p><p>A te válaszod és a másik játékos válasza <b>megegyeznek</b>.</p>","null","","","","feedback trial","",""
"html-button-response-esp","63","356166","0.0-11.0-0.26","2428","Te bizony sokat ruslasz. Én is sokat...","1","ruslom","[""ruslok"",""ruslom""]","ruslok","esp trial","1","false"
"html-button-response","64","359691","0.0-11.0-1.26","null","<p>A másik játékos ezt választotta: <b>ruslok</b>.</p><p>&#10060;</p><p>A válaszaitok <b>nem</b> egyeznek meg.</p>","null","","","","feedback trial","",""
"html-button-response-esp","65","363465","0.0-11.0-0.27","2585","Te bizony sokat flagárzol. Én is sokat...","0","flagárzom","[""flagárzom"",""flagárzok""]","flagárzok","esp trial","1","false"
"html-button-response","66","366985","0.0-11.0-1.27","null","<p>A másik játékos ezt választotta: <b>flagárzok</b>.</p><p>&#10060;</p><p>A válaszaitok <b>nem</b> egyeznek meg.</p>","null","","","","feedback trial","",""
"html-button-response-esp","67","370751","0.0-11.0-0.28","2343","Te bizony sokat spűmlesz. Én is sokat...","0","spűmlök","[""spűmlök"",""spűmlöm""]","spűmlök","esp trial","1","true"
"html-button-response","68","374289","0.0-11.0-1.28","null","<p>A másik játékos ezt választotta: <b>spűmlök</b>.</p><p>&#x2705;</p><p>A te válaszod és a másik játékos válasza <b>megegyeznek</b>.</p>","null","","","","feedback trial","",""
"html-button-response-esp","69","378060","0.0-11.0-0.29","2610","Te bizony sokat sojzol. Én is sokat...","0","sojzok","[""sojzok"",""sojzom""]","sojzom","esp trial","1","false"
"html-button-response","70","381592","0.0-11.0-1.29","null","<p>A másik játékos ezt választotta: <b>sojzom</b>.</p><p>&#10060;</p><p>A válaszaitok <b>nem</b> egyeznek meg.</p>","null","","","","feedback trial","",""
"html-button-response-esp","71","385354","0.0-11.0-0.30","2577","Te bizony sokat klörlesz. Én is sokat...","1","klörlök","[""klörlöm"",""klörlök""]","klörlök","esp trial","1","true"
"html-button-response","72","388893","0.0-11.0-1.30","null","<p>A másik játékos ezt választotta: <b>klörlök</b>.</p><p>&#x2705;</p><p>A te válaszod és a másik játékos válasza <b>megegyeznek</b>.</p>","null","","","","feedback trial","",""
"html-button-response-esp","73","392661","0.0-11.0-0.31","2362","Te bizony sokat prilegzel. Én is sokat...","0","prilegzem","[""prilegzem"",""prilegzek""]","prilegzem","esp trial","1","true"
"html-button-response","74","396196","0.0-11.0-1.31","null","<p>A másik játékos ezt választotta: <b>prilegzem</b>.</p><p>&#x2705;</p><p>A te válaszod és a másik játékos válasza <b>megegyeznek</b>.</p>","null","","","","feedback trial","",""
"html-button-response-esp","75","399969","0.0-11.0-0.32","3236","Te bizony sokat szirlasz. Én is sokat...","0","szirlok","[""szirlok"",""szirlom""]","szirlok","esp trial","1","true"
"html-button-response","76","403503","0.0-11.0-1.32","null","<p>A másik játékos ezt választotta: <b>szirlok</b>.</p><p>&#x2705;</p><p>A te válaszod és a másik játékos válasza <b>megegyeznek</b>.</p>","null","","","","feedback trial","",""
"html-button-response-esp","77","407268","0.0-11.0-0.33","3146","Te bizony sokat spatárzol. Én is sokat...","0","spatárzok","[""spatárzok"",""spatárzom""]","spatárzok","esp trial","1","true"
"html-button-response","78","410807","0.0-11.0-1.33","null","<p>A másik játékos ezt választotta: <b>spatárzok</b>.</p><p>&#x2705;</p><p>A te válaszod és a másik játékos válasza <b>megegyeznek</b>.</p>","null","","","","feedback trial","",""
"html-button-response-esp","79","414568","0.0-11.0-0.34","1927","Te bizony sokat tomlasz. Én is sokat...","0","tomlok","[""tomlok"",""tomlom""]","tomlok","esp trial","1","true"
"html-button-response","80","418094","0.0-11.0-1.34","null","<p>A másik játékos ezt választotta: <b>tomlok</b>.</p><p>&#x2705;</p><p>A te válaszod és a másik játékos válasza <b>megegyeznek</b>.</p>","null","","","","feedback trial","",""
"html-button-response-esp","81","421858","0.0-11.0-0.35","2465","Te bizony sokat fibamlasz. Én is sokat...","0","fibamlok","[""fibamlok"",""fibamlom""]","fibamlok","esp trial","1","true"
"html-button-response","82","425377","0.0-11.0-1.35","null","<p>A másik játékos ezt választotta: <b>fibamlok</b>.</p><p>&#x2705;</p><p>A te válaszod és a másik játékos válasza <b>megegyeznek</b>.</p>","null","","","","feedback trial","",""
"html-button-response-esp","83","429238","0.0-11.0-0.36","3355","Te bizony sokat flűröklesz. Én is sokat...","0","flűröklök","[""flűröklök"",""flűröklöm""]","flűröklök","esp trial","1","true"
"html-button-response","84","432760","0.0-11.0-1.36","null","<p>A másik játékos ezt választotta: <b>flűröklök</b>.</p><p>&#x2705;</p><p>A te válaszod és a másik játékos válasza <b>megegyeznek</b>.</p>","null","","","","feedback trial","",""
"html-button-response-esp","85","436877","0.0-11.0-0.37","3593","Te bizony sokat narjárzol. Én is sokat...","1","narjárzok","[""narjárzom"",""narjárzok""]","narjárzok","esp trial","1","true"
"html-button-response","86","440404","0.0-11.0-1.37","null","<p>A másik játékos ezt választotta: <b>narjárzok</b>.</p><p>&#x2705;</p><p>A te válaszod és a másik játékos válasza <b>megegyeznek</b>.</p>","null","","","","feedback trial","",""
"html-button-response-esp","87","444170","0.0-11.0-0.38","2888","Te bizony sokat jüslesz. Én is sokat...","0","jüslök","[""jüslök"",""jüslöm""]","jüslök","esp trial","1","true"
"html-button-response","88","447681","0.0-11.0-1.38","null","<p>A másik játékos ezt választotta: <b>jüslök</b>.</p><p>&#x2705;</p><p>A te válaszod és a másik játékos válasza <b>megegyeznek</b>.</p>","null","","","","feedback trial","",""
"html-button-response-esp","89","451434","0.0-11.0-0.39","3147","Te bizony sokat feténylesz. Én is sokat...","1","feténylek","[""feténylem"",""feténylek""]","feténylek","esp trial","1","true"
"html-button-response","90","454972","0.0-11.0-1.39","null","<p>A másik játékos ezt választotta: <b>feténylek</b>.</p><p>&#x2705;</p><p>A te válaszod és a másik játékos válasza <b>megegyeznek</b>.</p>","null","","","","feedback trial","",""
"html-button-response-esp","91","459550","0.0-11.0-0.40","4060","Te bizony sokat fretszel. Én is sokat...","1","fretszek","[""fretszem"",""fretszek""]","fretszek","esp trial","1","true"
"html-button-response","92","463079","0.0-11.0-1.40","null","<p>A másik játékos ezt választotta: <b>fretszek</b>.</p><p>&#x2705;</p><p>A te válaszod és a másik játékos válasza <b>megegyeznek</b>.</p>","null","","","","feedback trial","",""
"html-button-response-esp","93","466843","0.0-11.0-0.41","2978","Te bizony sokat ribzol. Én is sokat...","0","ribzok","[""ribzok"",""ribzom""]","ribzom","esp trial","1","false"
"html-button-response","94","470370","0.0-11.0-1.41","null","<p>A másik játékos ezt választotta: <b>ribzom</b>.</p><p>&#10060;</p><p>A válaszaitok <b>nem</b> egyeznek meg.</p>","null","","","","feedback trial","",""
"html-button-response-esp","95","474142","0.0-11.0-0.42","2541","Te bizony sokat piragszol. Én is sokat...","1","piragszok","[""piragszom"",""piragszok""]","piragszom","esp trial","1","false"
"html-button-response","96","477677","0.0-11.0-1.42","null","<p>A másik játékos ezt választotta: <b>piragszom</b>.</p><p>&#10060;</p><p>A válaszaitok <b>nem</b> egyeznek meg.</p>","null","","","","feedback trial","",""
"html-button-response-esp","97","481446","0.0-11.0-0.43","1847","Te bizony sokat sprogzol. Én is sokat...","0","sprogzok","[""sprogzok"",""sprogzom""]","sprogzom","esp trial","1","false"
"html-button-response","98","484980","0.0-11.0-1.43","null","<p>A másik játékos ezt választotta: <b>sprogzom</b>.</p><p>&#10060;</p><p>A válaszaitok <b>nem</b> egyeznek meg.</p>","null","","","","feedback trial","",""
"html-button-response-esp","99","488769","0.0-11.0-0.44","2772","Te bizony sokat brüjlesz. Én is sokat...","1","brüjlök","[""brüjlöm"",""brüjlök""]","brüjlök","esp trial","1","true"
"html-button-response","100","492302","0.0-11.0-1.44","null","<p>A másik játékos ezt választotta: <b>brüjlök</b>.</p><p>&#x2705;</p><p>A te válaszod és a másik játékos válasza <b>megegyeznek</b>.</p>","null","","","","feedback trial","",""
"html-button-response-esp","101","497612","0.0-11.0-0.45","4798","Te bizony sokat trilszol. Én is sokat...","0","trilszok","[""trilszok"",""trilszom""]","trilszok","esp trial","1","true"
"html-button-response","102","501144","0.0-11.0-1.45","null","<p>A másik játékos ezt választotta: <b>trilszok</b>.</p><p>&#x2705;</p><p>A te válaszod és a másik játékos válasza <b>megegyeznek</b>.</p>","null","","","","feedback trial","",""
"html-button-response-esp","103","504896","0.0-11.0-0.46","1582","Te bizony sokat sűzlesz. Én is sokat...","0","sűzlöm","[""sűzlöm"",""sűzlök""]","sűzlök","esp trial","1","false"
"html-button-response","104","508424","0.0-11.0-1.46","null","<p>A másik játékos ezt választotta: <b>sűzlök</b>.</p><p>&#10060;</p><p>A válaszaitok <b>nem</b> egyeznek meg.</p>","null","","","","feedback trial","",""
"html-button-response-esp","105","512177","0.0-11.0-0.47","2409","Te bizony sokat büglesz. Én is sokat...","1","büglök","[""büglöm"",""büglök""]","büglök","esp trial","1","true"
"html-button-response","106","515690","0.0-11.0-1.47","null","<p>A másik játékos ezt választotta: <b>büglök</b>.</p><p>&#x2705;</p><p>A te válaszod és a másik játékos válasza <b>megegyeznek</b>.</p>","null","","","","feedback trial","",""
"html-button-response-esp","107","519453","0.0-11.0-0.48","2975","Te bizony sokat tínylasz. Én is sokat...","1","tínylok","[""tínylom"",""tínylok""]","tínylok","esp trial","1","true"
"html-button-response","108","522978","0.0-11.0-1.48","null","<p>A másik játékos ezt választotta: <b>tínylok</b>.</p><p>&#x2705;</p><p>A te válaszod és a másik játékos válasza <b>megegyeznek</b>.</p>","null","","","","feedback trial","",""
"html-button-response-esp","109","526746","0.0-11.0-0.49","2252","Te bizony sokat spéslesz. Én is sokat...","0","spéslem","[""spéslem"",""spéslek""]","spéslek","esp trial","1","false"
"html-button-response","110","530278","0.0-11.0-1.49","null","<p>A másik játékos ezt választotta: <b>spéslek</b>.</p><p>&#10060;</p><p>A válaszaitok <b>nem</b> egyeznek meg.</p>","null","","","","feedback trial","",""
"html-button-response-esp","111","534049","0.0-11.0-0.50","2388","Te bizony sokat brágaklasz. Én is sokat...","1","brágaklom","[""brágaklok"",""brágaklom""]","brágaklom","esp trial","1","true"
"html-button-response","112","537568","0.0-11.0-1.50","null","<p>A másik játékos ezt választotta: <b>brágaklom</b>.</p><p>&#x2705;</p><p>A te válaszod és a másik játékos válasza <b>megegyeznek</b>.</p>","null","","","","feedback trial","",""
"html-button-response-esp","113","541618","0.0-11.0-0.51","3543","Te bizony sokat tiregzel. Én is sokat...","0","tiregzek","[""tiregzek"",""tiregzem""]","tiregzek","esp trial","1","true"
"html-button-response","114","545156","0.0-11.0-1.51","null","<p>A másik játékos ezt választotta: <b>tiregzek</b>.</p><p>&#x2705;</p><p>A te válaszod és a másik játékos válasza <b>megegyeznek</b>.</p>","null","","","","feedback trial","",""
"html-button-response-esp","115","548924","0.0-11.0-0.52","2258","Te bizony sokat pratánylasz. Én is sokat...","0","pratánylok","[""pratánylok"",""pratánylom""]","pratánylok","esp trial","1","true"
"html-button-response","116","552447","0.0-11.0-1.52","null","<p>A másik játékos ezt választotta: <b>pratánylok</b>.</p><p>&#x2705;</p><p>A te válaszod és a másik játékos válasza <b>megegyeznek</b>.</p>","null","","","","feedback trial","",""
"html-button-response-esp","117","556204","0.0-11.0-0.53","2299","Te bizony sokat frilegszel. Én is sokat...","0","frilegszem","[""frilegszem"",""frilegszek""]","frilegszem","esp trial","1","true"
"html-button-response","118","559741","0.0-11.0-1.53","null","<p>A másik játékos ezt választotta: <b>frilegszem</b>.</p><p>&#x2705;</p><p>A te válaszod és a másik játékos válasza <b>megegyeznek</b>.</p>","null","","","","feedback trial","",""
"html-button-response","119","567780","0.0-12.0","7517","<p>A közös játék most véget ért.</p><p>Mielőtt eláruljuk a végső pontszámodat, arra kérlek, játszd a szóválasztós játékot néhány percig egyedül is.</p><p>A feladatod ugyanaz lesz, választani két lehetőség közül.</p><p>Most viszont egyedül kell döntened, hogy te melyiket választanád.</p>","0","","","","","",""
"html-button-response-clever","120","572133","0.0-13.0-0.0","3834","Te bizony sokat plűbzöl. Én is sokat...","1","plűbzöm","[""plűbzök"",""plűbzöm""]","","posttest trial","4",""
"html-button-response-clever","121","577777","0.0-13.0-0.1","5133","Te bizony sokat spubonylasz. Én is sokat...","1","spubonylok","[""spubonylom"",""spubonylok""]","","posttest trial","4",""
"html-button-response-clever","122","580584","0.0-13.0-0.2","2293","Te bizony sokat tragzol. Én is sokat...","0","tragzok","[""tragzok"",""tragzom""]","","posttest trial","4",""
"html-button-response-clever","123","583917","0.0-13.0-0.3","2823","Te bizony sokat píjlasz. Én is sokat...","0","píjlok","[""píjlok"",""píjlom""]","","posttest trial","4",""
"html-button-response-clever","124","588553","0.0-13.0-0.4","4124","Te bizony sokat flehénylesz. Én is sokat...","1","flehénylek","[""flehénylem"",""flehénylek""]","","posttest trial","4",""
"html-button-response-clever","125","592468","0.0-13.0-0.5","3399","Te bizony sokat hűgzöl. Én is sokat...","1","hűgzöm","[""hűgzök"",""hűgzöm""]","","posttest trial","4",""
"html-button-response-clever","126","596130","0.0-13.0-0.6","3145","Te bizony sokat jonylasz. Én is sokat...","0","jonylok","[""jonylok"",""jonylom""]","","posttest trial","4",""
"html-button-response-clever","127","598982","0.0-13.0-0.7","2346","Te bizony sokat pribagszol. Én is sokat...","0","pribagszom","[""pribagszom"",""pribagszok""]","","posttest trial","4",""
"html-button-response-clever","128","604800","0.0-13.0-0.8","5307","Te bizony sokat szibánylasz. Én is sokat...","0","szibánylok","[""szibánylok"",""szibánylom""]","","posttest trial","4",""
"html-button-response-clever","129","607961","0.0-13.0-0.9","2652","Te bizony sokat spülűdzöl. Én is sokat...","1","spülűdzöm","[""spülűdzök"",""spülűdzöm""]","","posttest trial","4",""
"html-button-response-clever","130","611812","0.0-13.0-0.10","3340","Te bizony sokat ibékszel. Én is sokat...","1","ibékszek","[""ibékszem"",""ibékszek""]","","posttest trial","4",""
"html-button-response-clever","131","616434","0.0-13.0-0.11","4107","Te bizony sokat spüjzöl. Én is sokat...","0","spüjzöm","[""spüjzöm"",""spüjzök""]","","posttest trial","4",""
"html-button-response-clever","132","620751","0.0-13.0-0.12","3800","Te bizony sokat spihemlesz. Én is sokat...","0","spihemlek","[""spihemlek"",""spihemlem""]","","posttest trial","4",""
"html-button-response-clever","133","624825","0.0-13.0-0.13","3568","Te bizony sokat pítszol. Én is sokat...","0","pítszom","[""pítszom"",""pítszok""]","","posttest trial","4",""
"html-button-response-clever","134","627677","0.0-13.0-0.14","2323","Te bizony sokat flátszol. Én is sokat...","0","flátszom","[""flátszom"",""flátszok""]","","posttest trial","4",""
"html-button-response-clever","135","630921","0.0-13.0-0.15","2728","Te bizony sokat trehégszel. Én is sokat...","0","trehégszem","[""trehégszem"",""trehégszek""]","","posttest trial","4",""
"html-button-response-clever","136","634468","0.0-13.0-0.16","3040","Te bizony sokat lörűdzöl. Én is sokat...","0","lörűdzök","[""lörűdzök"",""lörűdzöm""]","","posttest trial","4",""
"html-button-response-clever","137","637257","0.0-13.0-0.17","2287","Te bizony sokat brivegzel. Én is sokat...","1","brivegzek","[""brivegzem"",""brivegzek""]","","posttest trial","4",""
"html-button-response-clever","138","640885","0.0-13.0-0.18","3113","Te bizony sokat figlasz. Én is sokat...","1","figlok","[""figlom"",""figlok""]","","posttest trial","4",""
"html-button-response-clever","139","644802","0.0-13.0-0.19","3414","Te bizony sokat bűtszöl. Én is sokat...","1","bűtszök","[""bűtszöm"",""bűtszök""]","","posttest trial","4",""
"html-button-response-clever","140","647450","0.0-13.0-0.20","2128","Te bizony sokat vanylasz. Én is sokat...","0","vanylok","[""vanylok"",""vanylom""]","","posttest trial","4",""
"html-button-response-clever","141","650805","0.0-13.0-0.21","2851","Te bizony sokat düjzöl. Én is sokat...","0","düjzök","[""düjzök"",""düjzöm""]","","posttest trial","4",""
"html-button-response-clever","142","654013","0.0-13.0-0.22","2706","Te bizony sokat spáraklasz. Én is sokat...","1","spáraklok","[""spáraklom"",""spáraklok""]","","posttest trial","4",""
"html-button-response-clever","143","657061","0.0-13.0-0.23","2530","Te bizony sokat flűmlesz. Én is sokat...","0","flűmlök","[""flűmlök"",""flűmlöm""]","","posttest trial","4",""
"html-button-response-clever","144","660734","0.0-13.0-0.24","3159","Te bizony sokat brubzol. Én is sokat...","0","brubzok","[""brubzok"",""brubzom""]","","posttest trial","4",""
"html-button-response-clever","145","663613","0.0-13.0-0.25","2375","Te bizony sokat vülődzöl. Én is sokat...","0","vülődzöm","[""vülődzöm"",""vülődzök""]","","posttest trial","4",""
"html-button-response-clever","146","667247","0.0-13.0-0.26","3116","Te bizony sokat spröbzöl. Én is sokat...","0","spröbzöm","[""spröbzöm"",""spröbzök""]","","posttest trial","4",""
"html-button-response-clever","147","670243","0.0-13.0-0.27","2478","Te bizony sokat rokszol. Én is sokat...","1","rokszom","[""rokszok"",""rokszom""]","","posttest trial","4",""
"html-button-response-clever","148","673025","0.0-13.0-0.28","2279","Te bizony sokat sztrűkszöl. Én is sokat...","1","sztrűkszöm","[""sztrűkszök"",""sztrűkszöm""]","","posttest trial","4",""
"html-button-response-clever","149","675882","0.0-13.0-0.29","2353","Te bizony sokat prínylasz. Én is sokat...","1","prínylom","[""prínylok"",""prínylom""]","","posttest trial","4",""
"html-button-response-clever","150","678497","0.0-13.0-0.30","2096","Te bizony sokat plugzol. Én is sokat...","1","plugzok","[""plugzom"",""plugzok""]","","posttest trial","4",""
"html-button-response-clever","151","682017","0.0-13.0-0.31","3015","Te bizony sokat huroslasz. Én is sokat...","1","huroslok","[""huroslom"",""huroslok""]","","posttest trial","4",""
"html-button-response-clever","152","686227","0.0-13.0-0.32","3690","Te bizony sokat gyibeslesz. Én is sokat...","0","gyibeslek","[""gyibeslek"",""gyibeslem""]","","posttest trial","4",""
"html-button-response-clever","153","689460","0.0-13.0-0.33","2714","Te bizony sokat bihánylasz. Én is sokat...","0","bihánylok","[""bihánylok"",""bihánylom""]","","posttest trial","4",""
"html-button-response-clever","154","692537","0.0-13.0-0.34","2561","Te bizony sokat klaráglasz. Én is sokat...","0","klaráglok","[""klaráglok"",""klaráglom""]","","posttest trial","4",""
"html-button-response-clever","155","695282","0.0-13.0-0.35","2241","Te bizony sokat klétszel. Én is sokat...","0","klétszem","[""klétszem"",""klétszek""]","","posttest trial","4",""
"html-button-response-clever","156","697912","0.0-13.0-0.36","2111","Te bizony sokat nűröklesz. Én is sokat...","0","nűröklök","[""nűröklök"",""nűröklöm""]","","posttest trial","4",""
"html-button-response-clever","157","700881","0.0-13.0-0.37","2453","Te bizony sokat klivaslasz. Én is sokat...","1","klivaslok","[""klivaslom"",""klivaslok""]","","posttest trial","4",""
"html-button-response-clever","158","704679","0.0-13.0-0.38","3277","Te bizony sokat sztrijzol. Én is sokat...","1","sztrijzok","[""sztrijzom"",""sztrijzok""]","","posttest trial","4",""
"html-button-response-clever","159","707530","0.0-13.0-0.39","2342","Te bizony sokat sztrozlasz. Én is sokat...","0","sztrozlok","[""sztrozlok"",""sztrozlom""]","","posttest trial","4",""
"html-button-response-clever","160","710610","0.0-13.0-0.40","2566","Te bizony sokat trádlasz. Én is sokat...","1","trádlom","[""trádlok"",""trádlom""]","","posttest trial","4",""
"html-button-response-clever","161","714112","0.0-13.0-0.41","2982","Te bizony sokat spihegzel. Én is sokat...","0","spihegzem","[""spihegzem"",""spihegzek""]","","posttest trial","4",""
"html-button-response-clever","162","717074","0.0-13.0-0.42","2446","Te bizony sokat salárzol. Én is sokat...","0","salárzok","[""salárzok"",""salárzom""]","","posttest trial","4",""
"html-button-response-clever","163","719947","0.0-13.0-0.43","2359","Te bizony sokat bivégszel. Én is sokat...","0","bivégszem","[""bivégszem"",""bivégszek""]","","posttest trial","4",""
"html-button-response-clever","164","723054","0.0-13.0-0.44","2585","Te bizony sokat flitlasz. Én is sokat...","0","flitlok","[""flitlok"",""flitlom""]","","posttest trial","4",""
"html-button-response-clever","165","725908","0.0-13.0-0.45","2329","Te bizony sokat narádzol. Én is sokat...","0","narádzok","[""narádzok"",""narádzom""]","","posttest trial","4",""
"html-button-response-clever","166","728993","0.0-13.0-0.46","2582","Te bizony sokat brobódzol. Én is sokat...","1","brobódzok","[""brobódzom"",""brobódzok""]","","posttest trial","4",""
"html-button-response-clever","167","731651","0.0-13.0-0.47","2143","Te bizony sokat rájzol. Én is sokat...","1","rájzok","[""rájzom"",""rájzok""]","","posttest trial","4",""
"html-button-response-clever","168","734048","0.0-13.0-0.48","1894","Te bizony sokat treglesz. Én is sokat...","0","treglek","[""treglek"",""treglem""]","","posttest trial","4",""
"html-button-response-clever","169","736221","0.0-13.0-0.49","1656","Te bizony sokat hurjorzol. Én is sokat...","0","hurjorzom","[""hurjorzom"",""hurjorzok""]","","posttest trial","4",""
"html-button-response-clever","170","739236","0.0-13.0-0.50","2505","Te bizony sokat flehékszel. Én is sokat...","1","flehékszem","[""flehékszek"",""flehékszem""]","","posttest trial","4",""
"html-button-response-clever","171","742646","0.0-13.0-0.51","2894","Te bizony sokat pribemlesz. Én is sokat...","0","pribemlem","[""pribemlem"",""pribemlek""]","","posttest trial","4",""
"html-button-response-clever","172","745548","0.0-13.0-0.52","2381","Te bizony sokat filágzol. Én is sokat...","1","filágzok","[""filágzom"",""filágzok""]","","posttest trial","4",""
"html-button-response-clever","173","748031","0.0-13.0-0.53","1977","Te bizony sokat frodlasz. Én is sokat...","0","frodlom","[""frodlom"",""frodlok""]","","posttest trial","4",""
"html-button-response","174","752536","0.0-14.0","3997","<p> Vége a játéknak. A teljes pontszámod 38/54.</p><p> Szép munka! &#128526;&#128526;&#128526;</p><p>A Befejezés gomb megnyomása után bezárhatod a böngészőablakot.</p>","0","","","","","",""
"html-keyboard-response","175","758076","0.0-15.0","null","<div class=""message"">
         <p>Egy kis türelmet kérünk, amíg elmentjük az adatokat...</p>
         </div>","null","","","","","",""
