"trial_type","trial_index","time_elapsed","internal_node_id","rt","stimulus","response","response_string","choices","esp_response","trial_kind","list_number","esp_match"
"pavlovia","0","1046","0.0-0.0","","","","","","","","",""
"html-button-response","1","40089","0.0-1.0","37782","<p>Kedves Résztvevő! A Budapesti Műszaki és Gazdaságtudományi Egyetem Kognitív Tudományi Tanszékének kutatásában való részvételed kérjük. A kutatásban azt vizsgáljuk, hogy a magyar anyanyelvűek hogyan használnak bizonyos szóalakokat, és hogy milyen képük van arról, hogy mások hogyan használják, hogyan képzik a szavakat. Ez hozzásegít bennünket ahhoz, hogy jobban megértsük, hogyan dolgozza fel és tárolja a nyelvet az emberi agy, és hogyan működnek, hogyan változnak egy adott közösség nyelvi konvenciói.</p><p>A vizsgálat egy rövid számítógépes feladatból fog állni. A kutatásban való részvétel önkéntes, a részvételi szándék bármikor visszavonható. A résztvevők eredményeit név nélkül kezeljük, így nem beazonosíthatók az adatok feldolgozása során. Minden személyes adatot az EU általános adatvédelmi rendeletének (GDPR) megfelelően kezelünk és legfeljebb öt éven belül megsemmisítünk. A vizsgálat jellemzően húsz percet vesz igénybe.</p><p>Kutatásvezető:</p><p>Dr. Rácz Péter, tudományos munkatárs, BME KTT</p><p>e-mail: racz.peter.marton@ttk.bme.hu</p>","0","","","","","",""
"html-button-response","2","46988","0.0-2.0","6385","<p>A kísérletben szavakat fogsz látni. Ezek között lesznek olyanok, amelyeket ismersz, de előfordulhatnak olyanok is, amelyeket nem ismersz, sőt, vannak köztük kitalált szavak is. Minden szónál látni fogsz toldalékolt alakokat. A te feladatod az lesz, hogy minden szóhoz kiválaszd azt a toldalékolt alakot, amely a te számodra ismerősebben, természetesebben hangzik. Rossz válaszok nincsenek, mert van olyan, hogy különböző embereknek más és más szó tűnik jobb választásnak. A választ úgy tudod majd kiválasztani, ha rákattintasz.</p><p>Ebben a szóválasztós játékban egy másik játékossal együtt veszel majd részt. A másik játékos is minden esetben azok közül a lehetőségek közül válogathat, mint te. Kettőtök feladata az, hogy ugyanazt a lehetőséget válasszátok minden esetben. Ahhoz, hogy ez sikerüljön, neked figyelned kell arra, hogy a másik játékos milyen válaszokat ad, és ennek alapján meg kell tippelned, hogyan választ legközelebb. Ha eltalálod, akkor pontot kapsz.</p>","0","","","","","",""
"html-button-response","3","92345","0.0-3.0","44837","<p>Kérjük, olvasd el az alábbi nyilatkozatot, és amennyiben egyetértesz vele, nyomj a Beleegyezés gombra!</p><p>Kijelentem, hogy magyar anyanyelvű személyként önként veszek részt a BME KTT kísérletében. A kutatás céljával és folyamatával kapcsolatban elegendő tájékoztatást kaptam, lehetőségem volt kérdések feltételére, és esetleges kérdéseimre megfelelő válaszokat kaptam. A tájékoztatás alapján elegendő mennyiségű információ áll a rendelkezésemre, hogy eldönthessem, részt kívánok-e venni a kutatásban.</p><p>Tisztában vagyok vele, hogy részvételi szándékomat és adataimat bármikor, indoklás nélkül visszavonhatom.</p><p>Értem és tudomásul veszem, hogy a kutatás tudományos célokat szolgál, és az általam szolgáltatott adatokat a BME kizárólag kutatási célból használja fel. Tudomásul veszem, hogy eredményeimet a többi résztvevő eredményeivel együtt kezelik, így egyéni teljesítményemről visszajelzést, szakvéleményt nem kapok.</p><p>Megértettem, hogy adataim kezelését illetően a BME az EU általános adatvédelmi rendelete (GDPR), a hatályos adatvédelmi törvény és a nemzetközi kutatás-etikai alapelvek szerint jár el. Eredményeim anonim módon kerülnek feldolgozásra, és a kutatás résztvevői az azonosításomra alkalmas adataimat harmadik félnek nem szolgáltatják ki. Engedélyezem a BME számára a jelen kutatásban felvett adataim feldolgozását és tárolását, beleértve azok későbbi kutatásokhoz való felhasználását is. Személyes adataim kezelésével kapcsolatban tájékoztatást kérhetek a kutatás résztvevőitől, az adatkezelés ellen tiltakozhatok, kérhetem személyes adataim helyesbítését, törlését vagy zárolását, valamint jogorvoslatért a Nemzeti Adatvédelmi és Információszabadság Hatósághoz fordulhatok.</p><p>Kijelentem, hogy a kutatásban való részvételem körülményeiről részletes tájékoztatást kaptam, és a feltételeket elfogadom.</p>","0","","","","","",""
"survey-text","4","133410","0.0-4.0","40528","","{""Q0"":""F3OXGT"",""Q1"":"""",""Q2"":""1998"",""Q3"":""16""}","","","","","",""
"html-button-response","5","195748","0.0-5.0","61820","<p>Ebben a játékban szavakat kell toldalékolni.</p> <p>Minden körben mutatunk majd egy példamondatot, amiben lesz egy szó.</p> <p>Alatta jön egy második mondat, ezt a mondatot neked kell majd befejezni, ugyanezzel a szóval.</p> <p>Nem biztos, hogy a szó eleve ismerős lesz számodra!</p> <p>Minden mondathoz adunk két lehetőséget, ezeket balra és jobbra látod majd.</p> <p>A játék kb. negyedóráig-húsz percig tart.</p>","0","","","","","",""
"html-button-response","6","216273","0.0-6.0","20004","<p>Nézzünk egy példát!</p> <p>A példamondat: ""János nagyon szeret rancsúrozni.""</p><p>Neked ezt a mondatot kell befejezned: ""Én is szívesen...""</p><p>A lehetőségek pedig ezek:</p>","1","","","","","",""
"html-button-response","7","229414","0.0-7.0","12631","<p>Nagyon jó.</p><p>Ezt a játékot nem egyedül fogod játszani, hanem egy másik játékossal.</p><p>Mielőtt továbblépünk, összekapcsolunk titeket egymással.</p><p>Ez igénybe vehet néhány másodpercet, amihez szíves türelmed kérjük.</p>","0","","","","","",""
"html-button-response","8","235164","0.0-8.0","null","<p>Csatlakozás a másik játékoshoz...</p>","null","","","","","",""
"html-button-response","9","237691","0.0-9.0","null","<p> Sikeres kapcsolódás!</p>","null","","","","","",""
"html-button-response","10","248216","0.0-10.0","null","<p>A következőkben ketten játsszátok a szóválasztós játékot.</p><p>A feladatotok az lesz, hogy minden körben <b>ugyanazt</b> a szót válasszátok.</p><p>Minden ilyen egyező válaszért pontot kaptok.</p><p>Próbáld meg kitalálni, mit választ a másik játékos!</p><p>Bármikor választhatsz, a körnek akkor van vége, ha mindketten döntöttetek.</p><p>Sok sikert!</p>","null","","","","","",""
"html-button-response-esp","11","260065","0.0-11.0-0.0","11336","Te bizony sokat flűröklesz. Én is sokat...","1","flűröklök","[""flűröklöm"",""flűröklök""]","flűröklöm","esp trial","2","false"
"html-button-response","12","263586","0.0-11.0-1.0","null","<p>A másik játékos ezt választotta: <b>flűröklöm</b>.</p><p>&#10060;</p><p>A válaszaitok <b>nem</b> egyeznek meg.</p>","null","","","","feedback trial","",""
"html-button-response-esp","13","270459","0.0-11.0-0.1","5711","Te bizony sokat siladzol. Én is sokat...","0","siladzok","[""siladzok"",""siladzom""]","siladzok","esp trial","2","true"
"html-button-response","14","273986","0.0-11.0-1.1","null","<p>A másik játékos ezt választotta: <b>siladzok</b>.</p><p>&#x2705;</p><p>A te válaszod és a másik játékos válasza <b>megegyeznek</b>.</p>","null","","","","feedback trial","",""
"html-button-response-esp","15","280866","0.0-11.0-0.2","5783","Te bizony sokat drubódzol. Én is sokat...","0","drubódzom","[""drubódzom"",""drubódzok""]","drubódzok","esp trial","2","false"
"html-button-response","16","284393","0.0-11.0-1.2","null","<p>A másik játékos ezt választotta: <b>drubódzok</b>.</p><p>&#10060;</p><p>A válaszaitok <b>nem</b> egyeznek meg.</p>","null","","","","feedback trial","",""
"html-button-response-esp","17","291256","0.0-11.0-0.3","4699","Te bizony sokat fretszel. Én is sokat...","0","fretszek","[""fretszek"",""fretszem""]","fretszem","esp trial","2","false"
"html-button-response","18","294770","0.0-11.0-1.3","null","<p>A másik játékos ezt választotta: <b>fretszem</b>.</p><p>&#10060;</p><p>A válaszaitok <b>nem</b> egyeznek meg.</p>","null","","","","feedback trial","",""
"html-button-response-esp","19","301650","0.0-11.0-0.4","4129","Te bizony sokat ruslasz. Én is sokat...","1","ruslok","[""ruslom"",""ruslok""]","ruslom","esp trial","2","false"
"html-button-response","20","305165","0.0-11.0-1.4","null","<p>A másik játékos ezt választotta: <b>ruslom</b>.</p><p>&#10060;</p><p>A válaszaitok <b>nem</b> egyeznek meg.</p>","null","","","","feedback trial","",""
"html-button-response-esp","21","312047","0.0-11.0-0.5","4850","Te bizony sokat driládzol. Én is sokat...","1","driládzok","[""driládzom"",""driládzok""]","driládzok","esp trial","2","true"
"html-button-response","22","315564","0.0-11.0-1.5","null","<p>A másik játékos ezt választotta: <b>driládzok</b>.</p><p>&#x2705;</p><p>A te válaszod és a másik játékos válasza <b>megegyeznek</b>.</p>","null","","","","feedback trial","",""
"html-button-response-esp","23","322449","0.0-11.0-0.6","6373","Te bizony sokat brüjlesz. Én is sokat...","1","brüjlök","[""brüjlöm"",""brüjlök""]","brüjlöm","esp trial","2","false"
"html-button-response","24","325989","0.0-11.0-1.6","null","<p>A másik játékos ezt választotta: <b>brüjlöm</b>.</p><p>&#10060;</p><p>A válaszaitok <b>nem</b> egyeznek meg.</p>","null","","","","feedback trial","",""
"html-button-response-esp","25","334823","0.0-11.0-0.7","8321","Te bizony sokat frilegszel. Én is sokat...","1","frilegszem","[""frilegszek"",""frilegszem""]","frilegszek","esp trial","2","false"
"html-button-response","26","338347","0.0-11.0-1.7","null","<p>A másik játékos ezt választotta: <b>frilegszek</b>.</p><p>&#10060;</p><p>A válaszaitok <b>nem</b> egyeznek meg.</p>","null","","","","feedback trial","",""
"html-button-response-esp","27","345382","0.0-11.0-0.8","6525","Te bizony sokat málapszol. Én is sokat...","0","málapszom","[""málapszom"",""málapszok""]","málapszom","esp trial","2","true"
"html-button-response","28","348904","0.0-11.0-1.8","null","<p>A másik játékos ezt választotta: <b>málapszom</b>.</p><p>&#x2705;</p><p>A te válaszod és a másik játékos válasza <b>megegyeznek</b>.</p>","null","","","","feedback trial","",""
"html-button-response-esp","29","355794","0.0-11.0-0.9","3362","Te bizony sokat prűrlesz. Én is sokat...","0","prűrlök","[""prűrlök"",""prűrlöm""]","prűrlöm","esp trial","2","false"
"html-button-response","30","359323","0.0-11.0-1.9","null","<p>A másik játékos ezt választotta: <b>prűrlöm</b>.</p><p>&#10060;</p><p>A válaszaitok <b>nem</b> egyeznek meg.</p>","null","","","","feedback trial","",""
"html-button-response-esp","31","366201","0.0-11.0-0.10","5544","Te bizony sokat spibaklasz. Én is sokat...","1","spibaklok","[""spibaklom"",""spibaklok""]","spibaklom","esp trial","2","false"
"html-button-response","32","369736","0.0-11.0-1.10","null","<p>A másik játékos ezt választotta: <b>spibaklom</b>.</p><p>&#10060;</p><p>A válaszaitok <b>nem</b> egyeznek meg.</p>","null","","","","feedback trial","",""
"html-button-response-esp","33","376611","0.0-11.0-0.11","6240","Te bizony sokat narjárzol. Én is sokat...","1","narjárzom","[""narjárzok"",""narjárzom""]","narjárzom","esp trial","2","true"
"html-button-response","34","380135","0.0-11.0-1.11","null","<p>A másik játékos ezt választotta: <b>narjárzom</b>.</p><p>&#x2705;</p><p>A te válaszod és a másik játékos válasza <b>megegyeznek</b>.</p>","null","","","","feedback trial","",""
"html-button-response-esp","35","387015","0.0-11.0-0.12","3421","Te bizony sokat sűzlesz. Én is sokat...","0","sűzlök","[""sűzlök"",""sűzlöm""]","sűzlöm","esp trial","2","false"
"html-button-response","36","390539","0.0-11.0-1.12","null","<p>A másik játékos ezt választotta: <b>sűzlöm</b>.</p><p>&#10060;</p><p>A válaszaitok <b>nem</b> egyeznek meg.</p>","null","","","","feedback trial","",""
"html-button-response-esp","37","397410","0.0-11.0-0.13","2207","Te bizony sokat trilszol. Én is sokat...","0","trilszom","[""trilszom"",""trilszok""]","trilszom","esp trial","2","true"
"html-button-response","38","400938","0.0-11.0-1.13","null","<p>A másik játékos ezt választotta: <b>trilszom</b>.</p><p>&#x2705;</p><p>A te válaszod és a másik játékos válasza <b>megegyeznek</b>.</p>","null","","","","feedback trial","",""
"html-button-response-esp","39","407821","0.0-11.0-0.14","2055","Te bizony sokat feténylesz. Én is sokat...","1","feténylem","[""feténylek"",""feténylem""]","feténylem","esp trial","2","true"
"html-button-response","40","411343","0.0-11.0-1.14","null","<p>A másik játékos ezt választotta: <b>feténylem</b>.</p><p>&#x2705;</p><p>A te válaszod és a másik játékos válasza <b>megegyeznek</b>.</p>","null","","","","feedback trial","",""
"html-button-response-esp","41","418211","0.0-11.0-0.15","1713","Te bizony sokat lorjódzol. Én is sokat...","1","lorjódzom","[""lorjódzok"",""lorjódzom""]","lorjódzom","esp trial","2","true"
"html-button-response","42","421740","0.0-11.0-1.15","null","<p>A másik játékos ezt választotta: <b>lorjódzom</b>.</p><p>&#x2705;</p><p>A te válaszod és a másik játékos válasza <b>megegyeznek</b>.</p>","null","","","","feedback trial","",""
"html-button-response-esp","43","428618","0.0-11.0-0.16","3703","Te bizony sokat spéslesz. Én is sokat...","0","spéslem","[""spéslem"",""spéslek""]","spéslem","esp trial","2","true"
"html-button-response","44","432139","0.0-11.0-1.16","null","<p>A másik játékos ezt választotta: <b>spéslem</b>.</p><p>&#x2705;</p><p>A te válaszod és a másik játékos válasza <b>megegyeznek</b>.</p>","null","","","","feedback trial","",""
"html-button-response-esp","45","439006","0.0-11.0-0.17","2404","Te bizony sokat bölszöl. Én is sokat...","1","bölszöm","[""bölszök"",""bölszöm""]","bölszöm","esp trial","2","true"
"html-button-response","46","442518","0.0-11.0-1.17","null","<p>A másik játékos ezt választotta: <b>bölszöm</b>.</p><p>&#x2705;</p><p>A te válaszod és a másik játékos válasza <b>megegyeznek</b>.</p>","null","","","","feedback trial","",""
"html-button-response-esp","47","449392","0.0-11.0-0.18","1628","Te bizony sokat ribzol. Én is sokat...","1","ribzom","[""ribzok"",""ribzom""]","ribzok","esp trial","2","false"
"html-button-response","48","452921","0.0-11.0-1.18","null","<p>A másik játékos ezt választotta: <b>ribzok</b>.</p><p>&#10060;</p><p>A válaszaitok <b>nem</b> egyeznek meg.</p>","null","","","","feedback trial","",""
"html-button-response-esp","49","459802","0.0-11.0-0.19","2775","Te bizony sokat böjzöl. Én is sokat...","1","böjzöm","[""böjzök"",""böjzöm""]","böjzöm","esp trial","2","true"
"html-button-response","50","463318","0.0-11.0-1.19","null","<p>A másik játékos ezt választotta: <b>böjzöm</b>.</p><p>&#x2705;</p><p>A te válaszod és a másik játékos válasza <b>megegyeznek</b>.</p>","null","","","","feedback trial","",""
"html-button-response-esp","51","470183","0.0-11.0-0.20","2580","Te bizony sokat vilakszol. Én is sokat...","1","vilakszok","[""vilakszom"",""vilakszok""]","vilakszok","esp trial","2","true"
"html-button-response","52","473705","0.0-11.0-1.20","null","<p>A másik játékos ezt választotta: <b>vilakszok</b>.</p><p>&#x2705;</p><p>A te válaszod és a másik játékos válasza <b>megegyeznek</b>.</p>","null","","","","feedback trial","",""
"html-button-response-esp","53","480583","0.0-11.0-0.21","3604","Te bizony sokat csíszlasz. Én is sokat...","0","csíszlom","[""csíszlom"",""csíszlok""]","csíszlom","esp trial","2","true"
"html-button-response","54","484115","0.0-11.0-1.21","null","<p>A másik játékos ezt választotta: <b>csíszlom</b>.</p><p>&#x2705;</p><p>A te válaszod és a másik játékos válasza <b>megegyeznek</b>.</p>","null","","","","feedback trial","",""
"html-button-response-esp","55","490993","0.0-11.0-0.22","5353","Te bizony sokat pebzel. Én is sokat...","1","pebzek","[""pebzem"",""pebzek""]","pebzem","esp trial","2","false"
"html-button-response","56","494524","0.0-11.0-1.22","null","<p>A másik játékos ezt választotta: <b>pebzem</b>.</p><p>&#10060;</p><p>A válaszaitok <b>nem</b> egyeznek meg.</p>","null","","","","feedback trial","",""
"html-button-response-esp","57","501398","0.0-11.0-0.23","5327","Te bizony sokat szirlasz. Én is sokat...","0","szirlok","[""szirlok"",""szirlom""]","szirlom","esp trial","2","false"
"html-button-response","58","504919","0.0-11.0-1.23","null","<p>A másik játékos ezt választotta: <b>szirlom</b>.</p><p>&#10060;</p><p>A válaszaitok <b>nem</b> egyeznek meg.</p>","null","","","","feedback trial","",""
"html-button-response-esp","59","511795","0.0-11.0-0.24","4763","Te bizony sokat herégszel. Én is sokat...","1","herégszek","[""herégszem"",""herégszek""]","herégszek","esp trial","2","true"
"html-button-response","60","515311","0.0-11.0-1.24","null","<p>A másik játékos ezt választotta: <b>herégszek</b>.</p><p>&#x2705;</p><p>A te válaszod és a másik játékos válasza <b>megegyeznek</b>.</p>","null","","","","feedback trial","",""
"html-button-response-esp","61","522174","0.0-11.0-0.25","2884","Te bizony sokat flüröslesz. Én is sokat...","1","flüröslök","[""flüröslöm"",""flüröslök""]","flüröslöm","esp trial","2","false"
"html-button-response","62","525697","0.0-11.0-1.25","null","<p>A másik játékos ezt választotta: <b>flüröslöm</b>.</p><p>&#10060;</p><p>A válaszaitok <b>nem</b> egyeznek meg.</p>","null","","","","feedback trial","",""
"html-button-response-esp","63","532580","0.0-11.0-0.26","4137","Te bizony sokat femlesz. Én is sokat...","0","femlek","[""femlek"",""femlem""]","femlem","esp trial","2","false"
"html-button-response","64","536107","0.0-11.0-1.26","null","<p>A másik játékos ezt választotta: <b>femlem</b>.</p><p>&#10060;</p><p>A válaszaitok <b>nem</b> egyeznek meg.</p>","null","","","","feedback trial","",""
"html-button-response-esp","65","542990","0.0-11.0-0.27","4789","Te bizony sokat sojzol. Én is sokat...","1","sojzok","[""sojzom"",""sojzok""]","sojzok","esp trial","2","true"
"html-button-response","66","546502","0.0-11.0-1.27","null","<p>A másik játékos ezt választotta: <b>sojzok</b>.</p><p>&#x2705;</p><p>A te válaszod és a másik játékos válasza <b>megegyeznek</b>.</p>","null","","","","feedback trial","",""
"html-button-response-esp","67","553366","0.0-11.0-0.28","3609","Te bizony sokat sztremlesz. Én is sokat...","1","sztremlek","[""sztremlem"",""sztremlek""]","sztremlem","esp trial","2","false"
"html-button-response","68","556896","0.0-11.0-1.28","null","<p>A másik játékos ezt választotta: <b>sztremlem</b>.</p><p>&#10060;</p><p>A válaszaitok <b>nem</b> egyeznek meg.</p>","null","","","","feedback trial","",""
"html-button-response-esp","69","563776","0.0-11.0-0.29","5540","Te bizony sokat klörlesz. Én is sokat...","0","klörlöm","[""klörlöm"",""klörlök""]","klörlöm","esp trial","2","true"
"html-button-response","70","567295","0.0-11.0-1.29","null","<p>A másik játékos ezt választotta: <b>klörlöm</b>.</p><p>&#x2705;</p><p>A te válaszod és a másik játékos válasza <b>megegyeznek</b>.</p>","null","","","","feedback trial","",""
"html-button-response-esp","71","574157","0.0-11.0-0.30","5542","Te bizony sokat flagárzol. Én is sokat...","0","flagárzok","[""flagárzok"",""flagárzom""]","flagárzom","esp trial","2","false"
"html-button-response","72","577683","0.0-11.0-1.30","null","<p>A másik játékos ezt választotta: <b>flagárzom</b>.</p><p>&#10060;</p><p>A válaszaitok <b>nem</b> egyeznek meg.</p>","null","","","","feedback trial","",""
"html-button-response-esp","73","584555","0.0-11.0-0.31","4361","Te bizony sokat sprogzol. Én is sokat...","1","sprogzok","[""sprogzom"",""sprogzok""]","sprogzok","esp trial","2","true"
"html-button-response","74","588079","0.0-11.0-1.31","null","<p>A másik játékos ezt választotta: <b>sprogzok</b>.</p><p>&#x2705;</p><p>A te válaszod és a másik játékos válasza <b>megegyeznek</b>.</p>","null","","","","feedback trial","",""
"html-button-response-esp","75","594967","0.0-11.0-0.32","4889","Te bizony sokat marzol. Én is sokat...","0","marzok","[""marzok"",""marzom""]","marzom","esp trial","2","false"
"html-button-response","76","598484","0.0-11.0-1.32","null","<p>A másik játékos ezt választotta: <b>marzom</b>.</p><p>&#10060;</p><p>A válaszaitok <b>nem</b> egyeznek meg.</p>","null","","","","feedback trial","",""
"html-button-response-esp","77","607253","0.0-11.0-0.33","8258","Te bizony sokat sprökszöl. Én is sokat...","0","sprökszök","[""sprökszök"",""sprökszöm""]","sprökszök","esp trial","2","true"
"html-button-response","78","610773","0.0-11.0-1.33","null","<p>A másik játékos ezt választotta: <b>sprökszök</b>.</p><p>&#x2705;</p><p>A te válaszod és a másik játékos válasza <b>megegyeznek</b>.</p>","null","","","","feedback trial","",""
"html-button-response-esp","79","617648","0.0-11.0-0.34","4134","Te bizony sokat tiregzel. Én is sokat...","1","tiregzek","[""tiregzem"",""tiregzek""]","tiregzem","esp trial","2","false"
"html-button-response","80","621170","0.0-11.0-1.34","null","<p>A másik játékos ezt választotta: <b>tiregzem</b>.</p><p>&#10060;</p><p>A válaszaitok <b>nem</b> egyeznek meg.</p>","null","","","","feedback trial","",""
"html-button-response-esp","81","628051","0.0-11.0-0.35","5289","Te bizony sokat ribegzel. Én is sokat...","1","ribegzek","[""ribegzem"",""ribegzek""]","ribegzem","esp trial","2","false"
"html-button-response","82","631576","0.0-11.0-1.35","null","<p>A másik játékos ezt választotta: <b>ribegzem</b>.</p><p>&#10060;</p><p>A válaszaitok <b>nem</b> egyeznek meg.</p>","null","","","","feedback trial","",""
"html-button-response-esp","83","638456","0.0-11.0-0.36","5828","Te bizony sokat hilarzol. Én is sokat...","1","hilarzok","[""hilarzom"",""hilarzok""]","hilarzom","esp trial","2","false"
"html-button-response","84","641978","0.0-11.0-1.36","null","<p>A másik játékos ezt választotta: <b>hilarzom</b>.</p><p>&#10060;</p><p>A válaszaitok <b>nem</b> egyeznek meg.</p>","null","","","","feedback trial","",""
"html-button-response-esp","85","648849","0.0-11.0-0.37","5341","Te bizony sokat spűmlesz. Én is sokat...","0","spűmlök","[""spűmlök"",""spűmlöm""]","spűmlöm","esp trial","2","false"
"html-button-response","86","652376","0.0-11.0-1.37","null","<p>A másik játékos ezt választotta: <b>spűmlöm</b>.</p><p>&#10060;</p><p>A válaszaitok <b>nem</b> egyeznek meg.</p>","null","","","","feedback trial","",""
"html-button-response-esp","87","659937","0.0-11.0-0.38","7048","Te bizony sokat flagánylasz. Én is sokat...","1","flagánylok","[""flagánylom"",""flagánylok""]","flagánylom","esp trial","2","false"
"html-button-response","88","663462","0.0-11.0-1.38","null","<p>A másik játékos ezt választotta: <b>flagánylom</b>.</p><p>&#10060;</p><p>A válaszaitok <b>nem</b> egyeznek meg.</p>","null","","","","feedback trial","",""
"html-button-response-esp","89","670342","0.0-11.0-0.39","6131","Te bizony sokat fibamlasz. Én is sokat...","0","fibamlok","[""fibamlok"",""fibamlom""]","fibamlom","esp trial","2","false"
"html-button-response","90","673862","0.0-11.0-1.39","null","<p>A másik játékos ezt választotta: <b>fibamlom</b>.</p><p>&#10060;</p><p>A válaszaitok <b>nem</b> egyeznek meg.</p>","null","","","","feedback trial","",""
"html-button-response-esp","91","681453","0.0-11.0-0.40","7082","Te bizony sokat jüslesz. Én is sokat...","0","jüslöm","[""jüslöm"",""jüslök""]","jüslöm","esp trial","2","true"
"html-button-response","92","684968","0.0-11.0-1.40","null","<p>A másik játékos ezt választotta: <b>jüslöm</b>.</p><p>&#x2705;</p><p>A te válaszod és a másik játékos válasza <b>megegyeznek</b>.</p>","null","","","","feedback trial","",""
"html-button-response-esp","93","691848","0.0-11.0-0.41","5291","Te bizony sokat tínylasz. Én is sokat...","1","tínylok","[""tínylom"",""tínylok""]","tínylom","esp trial","2","false"
"html-button-response","94","695378","0.0-11.0-1.41","null","<p>A másik játékos ezt választotta: <b>tínylom</b>.</p><p>&#10060;</p><p>A válaszaitok <b>nem</b> egyeznek meg.</p>","null","","","","feedback trial","",""
"html-button-response-esp","95","702250","0.0-11.0-0.42","5648","Te bizony sokat büglesz. Én is sokat...","0","büglök","[""büglök"",""büglöm""]","büglöm","esp trial","2","false"
"html-button-response","96","705774","0.0-11.0-1.42","null","<p>A másik játékos ezt választotta: <b>büglöm</b>.</p><p>&#10060;</p><p>A válaszaitok <b>nem</b> egyeznek meg.</p>","null","","","","feedback trial","",""
"html-button-response-esp","97","712647","0.0-11.0-0.43","5675","Te bizony sokat juszlasz. Én is sokat...","0","juszlok","[""juszlok"",""juszlom""]","juszlom","esp trial","2","false"
"html-button-response","98","716176","0.0-11.0-1.43","null","<p>A másik játékos ezt választotta: <b>juszlom</b>.</p><p>&#10060;</p><p>A válaszaitok <b>nem</b> egyeznek meg.</p>","null","","","","feedback trial","",""
"html-button-response-esp","99","723063","0.0-11.0-0.44","4979","Te bizony sokat pivegszel. Én is sokat...","1","pivegszek","[""pivegszem"",""pivegszek""]","pivegszek","esp trial","2","true"
"html-button-response","100","726596","0.0-11.0-1.44","null","<p>A másik játékos ezt választotta: <b>pivegszek</b>.</p><p>&#x2705;</p><p>A te válaszod és a másik játékos válasza <b>megegyeznek</b>.</p>","null","","","","feedback trial","",""
"html-button-response-esp","101","733462","0.0-11.0-0.45","6132","Te bizony sokat spatárzol. Én is sokat...","1","spatárzok","[""spatárzom"",""spatárzok""]","spatárzom","esp trial","2","false"
"html-button-response","102","736986","0.0-11.0-1.45","null","<p>A másik játékos ezt választotta: <b>spatárzom</b>.</p><p>&#10060;</p><p>A válaszaitok <b>nem</b> egyeznek meg.</p>","null","","","","feedback trial","",""
"html-button-response-esp","103","744242","0.0-11.0-0.46","6746","Te bizony sokat pratánylasz. Én is sokat...","1","pratánylok","[""pratánylom"",""pratánylok""]","pratánylom","esp trial","2","false"
"html-button-response","104","747762","0.0-11.0-1.46","null","<p>A másik játékos ezt választotta: <b>pratánylom</b>.</p><p>&#10060;</p><p>A válaszaitok <b>nem</b> egyeznek meg.</p>","null","","","","feedback trial","",""
"html-button-response-esp","105","754630","0.0-11.0-0.47","4542","Te bizony sokat brágaklasz. Én is sokat...","0","brágaklom","[""brágaklom"",""brágaklok""]","brágaklok","esp trial","2","false"
"html-button-response","106","758159","0.0-11.0-1.47","null","<p>A másik játékos ezt választotta: <b>brágaklok</b>.</p><p>&#10060;</p><p>A válaszaitok <b>nem</b> egyeznek meg.</p>","null","","","","feedback trial","",""
"html-button-response-esp","107","765116","0.0-11.0-0.48","6448","Te bizony sokat prilegzel. Én is sokat...","0","prilegzem","[""prilegzem"",""prilegzek""]","prilegzek","esp trial","2","false"
"html-button-response","108","768639","0.0-11.0-1.48","null","<p>A másik játékos ezt választotta: <b>prilegzek</b>.</p><p>&#10060;</p><p>A válaszaitok <b>nem</b> egyeznek meg.</p>","null","","","","feedback trial","",""
"html-button-response-esp","109","775515","0.0-11.0-0.49","4264","Te bizony sokat spilágzol. Én is sokat...","1","spilágzom","[""spilágzok"",""spilágzom""]","spilágzok","esp trial","2","false"
"html-button-response","110","779040","0.0-11.0-1.49","null","<p>A másik játékos ezt választotta: <b>spilágzok</b>.</p><p>&#10060;</p><p>A válaszaitok <b>nem</b> egyeznek meg.</p>","null","","","","feedback trial","",""
"html-button-response-esp","111","785921","0.0-11.0-0.50","5354","Te bizony sokat tomlasz. Én is sokat...","1","tomlok","[""tomlom"",""tomlok""]","tomlom","esp trial","2","false"
"html-button-response","112","789440","0.0-11.0-1.50","null","<p>A másik játékos ezt választotta: <b>tomlom</b>.</p><p>&#10060;</p><p>A válaszaitok <b>nem</b> egyeznek meg.</p>","null","","","","feedback trial","",""
"html-button-response-esp","113","796313","0.0-11.0-0.51","5324","Te bizony sokat nyáslasz. Én is sokat...","0","nyáslom","[""nyáslom"",""nyáslok""]","nyáslom","esp trial","2","true"
"html-button-response","114","799830","0.0-11.0-1.51","null","<p>A másik játékos ezt választotta: <b>nyáslom</b>.</p><p>&#x2705;</p><p>A te válaszod és a másik játékos válasza <b>megegyeznek</b>.</p>","null","","","","feedback trial","",""
"html-button-response-esp","115","806708","0.0-11.0-0.52","4952","Te bizony sokat piragszol. Én is sokat...","1","piragszok","[""piragszom"",""piragszok""]","piragszok","esp trial","2","true"
"html-button-response","116","810231","0.0-11.0-1.52","null","<p>A másik játékos ezt választotta: <b>piragszok</b>.</p><p>&#x2705;</p><p>A te válaszod és a másik játékos válasza <b>megegyeznek</b>.</p>","null","","","","feedback trial","",""
"html-button-response-esp","117","818292","0.0-11.0-0.53","7556","Te bizony sokat klibamlasz. Én is sokat...","1","klibamlok","[""klibamlom"",""klibamlok""]","klibamlom","esp trial","2","false"
"html-button-response","118","821805","0.0-11.0-1.53","null","<p>A másik játékos ezt választotta: <b>klibamlom</b>.</p><p>&#10060;</p><p>A válaszaitok <b>nem</b> egyeznek meg.</p>","null","","","","feedback trial","",""
"html-button-response","119","838046","0.0-12.0","15730","<p>A közös játék most véget ért.</p><p>Mielőtt eláruljuk a végső pontszámodat, arra kérlek, játszd a szóválasztós játékot néhány percig egyedül is.</p><p>A feladatod ugyanaz lesz, választani két lehetőség közül.</p><p>Most viszont egyedül kell döntened, hogy te melyiket választanád.</p>","0","","","","","",""
"html-button-response-clever","120","844492","0.0-13.0-0.0","5940","Te bizony sokat brobódzol. Én is sokat...","1","brobódzok","[""brobódzom"",""brobódzok""]","","posttest trial","4",""
"html-button-response-clever","121","850868","0.0-13.0-0.1","5858","Te bizony sokat huroslasz. Én is sokat...","1","huroslok","[""huroslom"",""huroslok""]","","posttest trial","4",""
"html-button-response-clever","122","858992","0.0-13.0-0.2","7615","Te bizony sokat pítszol. Én is sokat...","0","pítszok","[""pítszok"",""pítszom""]","","posttest trial","4",""
"html-button-response-clever","123","868026","0.0-13.0-0.3","8527","Te bizony sokat tragzol. Én is sokat...","0","tragzok","[""tragzok"",""tragzom""]","","posttest trial","4",""
"html-button-response-clever","124","875960","0.0-13.0-0.4","7423","Te bizony sokat brubzol. Én is sokat...","0","brubzok","[""brubzok"",""brubzom""]","","posttest trial","4",""
"html-button-response-clever","125","882550","0.0-13.0-0.5","6082","Te bizony sokat pribemlesz. Én is sokat...","1","pribemlek","[""pribemlem"",""pribemlek""]","","posttest trial","4",""
"html-button-response-clever","126","889680","0.0-13.0-0.6","6619","Te bizony sokat rokszol. Én is sokat...","0","rokszok","[""rokszok"",""rokszom""]","","posttest trial","4",""
"html-button-response-clever","127","896885","0.0-13.0-0.7","6694","Te bizony sokat flitlasz. Én is sokat...","1","flitlok","[""flitlom"",""flitlok""]","","posttest trial","4",""
"html-button-response-clever","128","902208","0.0-13.0-0.8","4812","Te bizony sokat vülődzöl. Én is sokat...","1","vülődzök","[""vülődzöm"",""vülődzök""]","","posttest trial","4",""
"html-button-response-clever","129","910501","0.0-13.0-0.9","7789","Te bizony sokat filágzol. Én is sokat...","0","filágzok","[""filágzok"",""filágzom""]","","posttest trial","4",""
"html-button-response-clever","130","915297","0.0-13.0-0.10","4287","Te bizony sokat vanylasz. Én is sokat...","0","vanylok","[""vanylok"",""vanylom""]","","posttest trial","4",""
"html-button-response-clever","131","924506","0.0-13.0-0.11","8696","Te bizony sokat spülűdzöl. Én is sokat...","0","spülűdzök","[""spülűdzök"",""spülűdzöm""]","","posttest trial","4",""
"html-button-response-clever","132","931318","0.0-13.0-0.12","6290","Te bizony sokat spáraklasz. Én is sokat...","0","spáraklok","[""spáraklok"",""spáraklom""]","","posttest trial","4",""
"html-button-response-clever","133","935606","0.0-13.0-0.13","3780","Te bizony sokat flűmlesz. Én is sokat...","1","flűmlök","[""flűmlöm"",""flűmlök""]","","posttest trial","4",""
"html-button-response-clever","134","941074","0.0-13.0-0.14","4956","Te bizony sokat bűtszöl. Én is sokat...","1","bűtszöm","[""bűtszök"",""bűtszöm""]","","posttest trial","4",""
"html-button-response-clever","135","955032","0.0-13.0-0.15","13450","Te bizony sokat rájzol. Én is sokat...","0","rájzok","[""rájzok"",""rájzom""]","","posttest trial","4",""
"html-button-response-clever","136","962502","0.0-13.0-0.16","6965","Te bizony sokat bivégszel. Én is sokat...","1","bivégszek","[""bivégszem"",""bivégszek""]","","posttest trial","4",""
"html-button-response-clever","137","967387","0.0-13.0-0.17","4376","Te bizony sokat prínylasz. Én is sokat...","0","prínylok","[""prínylok"",""prínylom""]","","posttest trial","4",""
"html-button-response-clever","138","975263","0.0-13.0-0.18","7368","Te bizony sokat nűröklesz. Én is sokat...","1","nűröklök","[""nűröklöm"",""nűröklök""]","","posttest trial","4",""
"html-button-response-clever","139","983899","0.0-13.0-0.19","8127","Te bizony sokat gyibeslesz. Én is sokat...","1","gyibeslek","[""gyibeslem"",""gyibeslek""]","","posttest trial","4",""
"html-button-response-clever","140","990962","0.0-13.0-0.20","6551","Te bizony sokat flehénylesz. Én is sokat...","1","flehénylek","[""flehénylem"",""flehénylek""]","","posttest trial","4",""
"html-button-response-clever","141","999429","0.0-13.0-0.21","7944","Te bizony sokat spubonylasz. Én is sokat...","0","spubonylok","[""spubonylok"",""spubonylom""]","","posttest trial","4",""
"html-button-response-clever","142","1005666","0.0-13.0-0.22","5725","Te bizony sokat spüjzöl. Én is sokat...","1","spüjzök","[""spüjzöm"",""spüjzök""]","","posttest trial","4",""
"html-button-response-clever","143","1011849","0.0-13.0-0.23","5673","Te bizony sokat pribagszol. Én is sokat...","0","pribagszok","[""pribagszok"",""pribagszom""]","","posttest trial","4",""
"html-button-response-clever","144","1019941","0.0-13.0-0.24","7571","Te bizony sokat sztrijzol. Én is sokat...","1","sztrijzok","[""sztrijzom"",""sztrijzok""]","","posttest trial","4",""
"html-button-response-clever","145","1025535","0.0-13.0-0.25","5087","Te bizony sokat píjlasz. Én is sokat...","0","píjlok","[""píjlok"",""píjlom""]","","posttest trial","4",""
"html-button-response-clever","146","1036260","0.0-13.0-0.26","10215","Te bizony sokat salárzol. Én is sokat...","1","salárzok","[""salárzom"",""salárzok""]","","posttest trial","4",""
"html-button-response-clever","147","1047322","0.0-13.0-0.27","10553","Te bizony sokat bihánylasz. Én is sokat...","1","bihánylok","[""bihánylom"",""bihánylok""]","","posttest trial","4",""
"html-button-response-clever","148","1053949","0.0-13.0-0.28","6116","Te bizony sokat klétszel. Én is sokat...","0","klétszek","[""klétszek"",""klétszem""]","","posttest trial","4",""
"html-button-response-clever","149","1058485","0.0-13.0-0.29","4027","Te bizony sokat figlasz. Én is sokat...","0","figlok","[""figlok"",""figlom""]","","posttest trial","4",""
"html-button-response-clever","150","1063953","0.0-13.0-0.30","4963","Te bizony sokat frodlasz. Én is sokat...","1","frodlok","[""frodlom"",""frodlok""]","","posttest trial","4",""
"html-button-response-clever","151","1069535","0.0-13.0-0.31","5058","Te bizony sokat narádzol. Én is sokat...","1","narádzok","[""narádzom"",""narádzok""]","","posttest trial","4",""
"html-button-response-clever","152","1072683","0.0-13.0-0.32","2639","Te bizony sokat spröbzöl. Én is sokat...","0","spröbzök","[""spröbzök"",""spröbzöm""]","","posttest trial","4",""
"html-button-response-clever","153","1077091","0.0-13.0-0.33","3897","Te bizony sokat düjzöl. Én is sokat...","0","düjzök","[""düjzök"",""düjzöm""]","","posttest trial","4",""
"html-button-response-clever","154","1082429","0.0-13.0-0.34","4828","Te bizony sokat sztrozlasz. Én is sokat...","1","sztrozlok","[""sztrozlom"",""sztrozlok""]","","posttest trial","4",""
"html-button-response-clever","155","1091689","0.0-13.0-0.35","8748","Te bizony sokat trádlasz. Én is sokat...","0","trádlok","[""trádlok"",""trádlom""]","","posttest trial","4",""
"html-button-response-clever","156","1095648","0.0-13.0-0.36","3449","Te bizony sokat plugzol. Én is sokat...","0","plugzok","[""plugzok"",""plugzom""]","","posttest trial","4",""
"html-button-response-clever","157","1100711","0.0-13.0-0.37","4555","Te bizony sokat flátszol. Én is sokat...","1","flátszok","[""flátszom"",""flátszok""]","","posttest trial","4",""
"html-button-response-clever","158","1106206","0.0-13.0-0.38","4986","Te bizony sokat spihegzel. Én is sokat...","1","spihegzek","[""spihegzem"",""spihegzek""]","","posttest trial","4",""
"html-button-response-clever","159","1115801","0.0-13.0-0.39","9085","Te bizony sokat klaráglasz. Én is sokat...","0","klaráglok","[""klaráglok"",""klaráglom""]","","posttest trial","4",""
"html-button-response-clever","160","1120587","0.0-13.0-0.40","4276","Te bizony sokat spihemlesz. Én is sokat...","1","spihemlek","[""spihemlem"",""spihemlek""]","","posttest trial","4",""
"html-button-response-clever","161","1125613","0.0-13.0-0.41","4516","Te bizony sokat brivegzel. Én is sokat...","0","brivegzek","[""brivegzek"",""brivegzem""]","","posttest trial","4",""
"html-button-response-clever","162","1131526","0.0-13.0-0.42","5405","Te bizony sokat hurjorzol. Én is sokat...","0","hurjorzok","[""hurjorzok"",""hurjorzom""]","","posttest trial","4",""
"html-button-response-clever","163","1134918","0.0-13.0-0.43","2883","Te bizony sokat plűbzöl. Én is sokat...","1","plűbzök","[""plűbzöm"",""plűbzök""]","","posttest trial","4",""
"html-button-response-clever","164","1139749","0.0-13.0-0.44","4323","Te bizony sokat trehégszel. Én is sokat...","1","trehégszek","[""trehégszem"",""trehégszek""]","","posttest trial","4",""
"html-button-response-clever","165","1144771","0.0-13.0-0.45","4511","Te bizony sokat lörűdzöl. Én is sokat...","1","lörűdzök","[""lörűdzöm"",""lörűdzök""]","","posttest trial","4",""
"html-button-response-clever","166","1147620","0.0-13.0-0.46","2330","Te bizony sokat sztrűkszöl. Én is sokat...","1","sztrűkszök","[""sztrűkszöm"",""sztrűkszök""]","","posttest trial","4",""
"html-button-response-clever","167","1153907","0.0-13.0-0.47","5779","Te bizony sokat szibánylasz. Én is sokat...","1","szibánylok","[""szibánylom"",""szibánylok""]","","posttest trial","4",""
"html-button-response-clever","168","1160558","0.0-13.0-0.48","6142","Te bizony sokat klivaslasz. Én is sokat...","1","klivaslok","[""klivaslom"",""klivaslok""]","","posttest trial","4",""
"html-button-response-clever","169","1164678","0.0-13.0-0.49","3611","Te bizony sokat ibékszel. Én is sokat...","1","ibékszek","[""ibékszem"",""ibékszek""]","","posttest trial","4",""
"html-button-response-clever","170","1170610","0.0-13.0-0.50","5421","Te bizony sokat hűgzöl. Én is sokat...","1","hűgzök","[""hűgzöm"",""hűgzök""]","","posttest trial","4",""
"html-button-response-clever","171","1173871","0.0-13.0-0.51","2753","Te bizony sokat treglesz. Én is sokat...","0","treglek","[""treglek"",""treglem""]","","posttest trial","4",""
"html-button-response-clever","172","1181530","0.0-13.0-0.52","7150","Te bizony sokat flehékszel. Én is sokat...","0","flehékszem","[""flehékszem"",""flehékszek""]","","posttest trial","4",""
"html-button-response-clever","173","1186455","0.0-13.0-0.53","4416","Te bizony sokat jonylasz. Én is sokat...","1","jonylok","[""jonylom"",""jonylok""]","","posttest trial","4",""
"html-button-response","174","1195681","0.0-14.0","8715","<p> Vége a játéknak. A teljes pontszámod 21/54.</p><p> Szép munka! &#128526;&#128526;&#128526;</p><p>A Befejezés gomb megnyomása után bezárhatod a böngészőablakot.</p>","0","","","","","",""
"html-keyboard-response","175","1201197","0.0-15.0","null","<div class=""message"">
         <p>Egy kis türelmet kérünk, amíg elmentjük az adatokat...</p>
         </div>","null","","","","","",""
