"trial_type","trial_index","time_elapsed","internal_node_id","rt","stimulus","response","response_string","choices","esp_response","trial_kind","list_number","esp_match"
"pavlovia","0","594","0.0-0.0","","","","","","","","",""
"html-button-response","1","2363","0.0-1.0","1266","<p>Kedves Résztvevő! A Budapesti Műszaki és Gazdaságtudományi Egyetem Kognitív Tudományi Tanszékének kutatásában való részvételed kérjük. A kutatásban azt vizsgáljuk, hogy a magyar anyanyelvűek hogyan használnak bizonyos szóalakokat, és hogy milyen képük van arról, hogy mások hogyan használják, hogyan képzik a szavakat. Ez hozzásegít bennünket ahhoz, hogy jobban megértsük, hogyan dolgozza fel és tárolja a nyelvet az emberi agy, és hogyan működnek, hogyan változnak egy adott közösség nyelvi konvenciói.</p><p>A vizsgálat egy rövid számítógépes feladatból fog állni. A kutatásban való részvétel önkéntes, a részvételi szándék bármikor visszavonható. A résztvevők eredményeit név nélkül kezeljük, így nem beazonosíthatók az adatok feldolgozása során. Minden személyes adatot az EU általános adatvédelmi rendeletének (GDPR) megfelelően kezelünk és legfeljebb öt éven belül megsemmisítünk. A vizsgálat jellemzően húsz percet vesz igénybe.</p><p>Kutatásvezető:</p><p>Dr. Rácz Péter, tudományos munkatárs, BME KTT</p><p>e-mail: racz.peter.marton@ttk.bme.hu</p>","0","","","","","",""
"html-button-response","2","17354","0.0-2.0","14477","<p>A kísérletben szavakat fogsz látni. Ezek között lesznek olyanok, amelyeket ismersz, de előfordulhatnak olyanok is, amelyeket nem ismersz, sőt, vannak köztük kitalált szavak is. Minden szónál látni fogsz toldalékolt alakokat. A te feladatod az lesz, hogy minden szóhoz kiválaszd azt a toldalékolt alakot, amely a te számodra ismerősebben, természetesebben hangzik. Rossz válaszok nincsenek, mert van olyan, hogy különböző embereknek más és más szó tűnik jobb választásnak. A választ úgy tudod majd kiválasztani, ha rákattintasz.</p><p>Ebben a szóválasztós játékban egy másik játékossal együtt veszel majd részt. A másik játékos is minden esetben azok közül a lehetőségek közül válogathat, mint te. Kettőtök feladata az, hogy ugyanazt a lehetőséget válasszátok minden esetben. Ahhoz, hogy ez sikerüljön, neked figyelned kell arra, hogy a másik játékos milyen válaszokat ad, és ennek alapján meg kell tippelned, hogyan választ legközelebb. Ha eltalálod, akkor pontot kapsz.</p>","0","","","","","",""
"html-button-response","3","20883","0.0-3.0","3019","<p>Kérjük, olvasd el az alábbi nyilatkozatot, és amennyiben egyetértesz vele, nyomj a Beleegyezés gombra!</p><p>Kijelentem, hogy magyar anyanyelvű személyként önként veszek részt a BME KTT kísérletében. A kutatás céljával és folyamatával kapcsolatban elegendő tájékoztatást kaptam, lehetőségem volt kérdések feltételére, és esetleges kérdéseimre megfelelő válaszokat kaptam. A tájékoztatás alapján elegendő mennyiségű információ áll a rendelkezésemre, hogy eldönthessem, részt kívánok-e venni a kutatásban.</p><p>Tisztában vagyok vele, hogy részvételi szándékomat és adataimat bármikor, indoklás nélkül visszavonhatom.</p><p>Értem és tudomásul veszem, hogy a kutatás tudományos célokat szolgál, és az általam szolgáltatott adatokat a BME kizárólag kutatási célból használja fel. Tudomásul veszem, hogy eredményeimet a többi résztvevő eredményeivel együtt kezelik, így egyéni teljesítményemről visszajelzést, szakvéleményt nem kapok.</p><p>Megértettem, hogy adataim kezelését illetően a BME az EU általános adatvédelmi rendelete (GDPR), a hatályos adatvédelmi törvény és a nemzetközi kutatás-etikai alapelvek szerint jár el. Eredményeim anonim módon kerülnek feldolgozásra, és a kutatás résztvevői az azonosításomra alkalmas adataimat harmadik félnek nem szolgáltatják ki. Engedélyezem a BME számára a jelen kutatásban felvett adataim feldolgozását és tárolását, beleértve azok későbbi kutatásokhoz való felhasználását is. Személyes adataim kezelésével kapcsolatban tájékoztatást kérhetek a kutatás résztvevőitől, az adatkezelés ellen tiltakozhatok, kérhetem személyes adataim helyesbítését, törlését vagy zárolását, valamint jogorvoslatért a Nemzeti Adatvédelmi és Információszabadság Hatósághoz fordulhatok.</p><p>Kijelentem, hogy a kutatásban való részvételem körülményeiről részletes tájékoztatást kaptam, és a feltételeket elfogadom.</p>","0","","","","","",""
"survey-text","4","38803","0.0-4.0","17403","","{""Q0"":""JE5SFU"",""Q1"":""férdi"",""Q2"":""2000"",""Q3"":""15""}","","","","","",""
"html-button-response","5","50659","0.0-5.0","11351","<p>Ebben a játékban szavakat kell toldalékolni.</p> <p>Minden körben mutatunk majd egy példamondatot, amiben lesz egy szó.</p> <p>Alatta jön egy második mondat, ezt a mondatot neked kell majd befejezni, ugyanezzel a szóval.</p> <p>Nem biztos, hogy a szó eleve ismerős lesz számodra!</p> <p>Minden mondathoz adunk két lehetőséget, ezeket balra és jobbra látod majd.</p> <p>A játék kb. negyedóráig-húsz percig tart.</p>","0","","","","","",""
"html-button-response","6","60475","0.0-6.0","9303","<p>Nézzünk egy példát!</p> <p>A példamondat: ""János nagyon szeret rancsúrozni.""</p><p>Neked ezt a mondatot kell befejezned: ""Én is szívesen...""</p><p>A lehetőségek pedig ezek:</p>","0","","","","","",""
"html-button-response","7","133955","0.0-7.0","72973","<p>Nagyon jó.</p><p>Ezt a játékot nem egyedül fogod játszani, hanem egy másik játékossal.</p><p>Mielőtt továbblépünk, összekapcsolunk titeket egymással.</p><p>Ez igénybe vehet néhány másodpercet, amihez szíves türelmed kérjük.</p>","0","","","","","",""
"html-button-response","8","139700","0.0-8.0","null","<p>Csatlakozás a másik játékoshoz...</p>","null","","","","","",""
"html-button-response","9","142216","0.0-9.0","null","<p> Sikeres kapcsolódás!</p>","null","","","","","",""
"html-button-response","10","152737","0.0-10.0","null","<p>A következőkben ketten játsszátok a szóválasztós játékot.</p><p>A feladatotok az lesz, hogy minden körben <b>ugyanazt</b> a szót válasszátok.</p><p>Minden ilyen egyező válaszért pontot kaptok.</p><p>Próbáld meg kitalálni, mit választ a másik játékos!</p><p>Bármikor választhatsz, a körnek akkor van vége, ha mindketten döntöttetek.</p><p>Sok sikert!</p>","null","","","","","",""
"html-button-response-esp","11","160475","0.0-11.0-0.0","7221","Te bizony sokat klaráglasz. Én is sokat...","0","klaráglok","[""klaráglok"",""klaráglom""]","klaráglok","esp trial","7","true"
"html-button-response","12","163986","0.0-11.0-1.0","null","<p>A másik játékos ezt választotta: <b>klaráglok</b>.</p><p>&#x2705;</p><p>A te válaszod és a másik játékos válasza <b>megegyeznek</b>.</p>","null","","","","feedback trial","",""
"html-button-response-esp","13","173443","0.0-11.0-0.1","8942","Te bizony sokat sztrűkszöl. Én is sokat...","1","sztrűkszök","[""sztrűkszöm"",""sztrűkszök""]","sztrűkszöm","esp trial","7","false"
"html-button-response","14","176971","0.0-11.0-1.1","null","<p>A másik játékos ezt választotta: <b>sztrűkszöm</b>.</p><p>&#10060;</p><p>A válaszaitok <b>nem</b> egyeznek meg.</p>","null","","","","feedback trial","",""
"html-button-response-esp","15","183027","0.0-11.0-0.2","5552","Te bizony sokat huroslasz. Én is sokat...","0","huroslom","[""huroslom"",""huroslok""]","huroslok","esp trial","7","false"
"html-button-response","16","186536","0.0-11.0-1.2","null","<p>A másik játékos ezt választotta: <b>huroslok</b>.</p><p>&#10060;</p><p>A válaszaitok <b>nem</b> egyeznek meg.</p>","null","","","","feedback trial","",""
"html-button-response-esp","17","192722","0.0-11.0-0.3","5682","Te bizony sokat spáraklasz. Én is sokat...","0","spáraklom","[""spáraklom"",""spáraklok""]","spáraklom","esp trial","7","true"
"html-button-response","18","196246","0.0-11.0-1.3","null","<p>A másik játékos ezt választotta: <b>spáraklom</b>.</p><p>&#x2705;</p><p>A te válaszod és a másik játékos válasza <b>megegyeznek</b>.</p>","null","","","","feedback trial","",""
"html-button-response-esp","19","200762","0.0-11.0-0.4","4009","Te bizony sokat figlasz. Én is sokat...","1","figlok","[""figlom"",""figlok""]","figlom","esp trial","7","false"
"html-button-response","20","204279","0.0-11.0-1.4","null","<p>A másik játékos ezt választotta: <b>figlom</b>.</p><p>&#10060;</p><p>A válaszaitok <b>nem</b> egyeznek meg.</p>","null","","","","feedback trial","",""
"html-button-response-esp","21","210643","0.0-11.0-0.5","5850","Te bizony sokat bivégszel. Én is sokat...","0","bivégszek","[""bivégszek"",""bivégszem""]","bivégszem","esp trial","7","false"
"html-button-response","22","214173","0.0-11.0-1.5","null","<p>A másik játékos ezt választotta: <b>bivégszem</b>.</p><p>&#10060;</p><p>A válaszaitok <b>nem</b> egyeznek meg.</p>","null","","","","feedback trial","",""
"html-button-response-esp","23","218779","0.0-11.0-0.6","4095","Te bizony sokat vülődzöl. Én is sokat...","0","vülődzök","[""vülődzök"",""vülődzöm""]","vülődzöm","esp trial","7","false"
"html-button-response","24","222291","0.0-11.0-1.6","null","<p>A másik játékos ezt választotta: <b>vülődzöm</b>.</p><p>&#10060;</p><p>A válaszaitok <b>nem</b> egyeznek meg.</p>","null","","","","feedback trial","",""
"html-button-response-esp","25","226587","0.0-11.0-0.7","3787","Te bizony sokat szibánylasz. Én is sokat...","1","szibánylok","[""szibánylom"",""szibánylok""]","szibánylok","esp trial","7","true"
"html-button-response","26","230140","0.0-11.0-1.7","null","<p>A másik játékos ezt választotta: <b>szibánylok</b>.</p><p>&#x2705;</p><p>A te válaszod és a másik játékos válasza <b>megegyeznek</b>.</p>","null","","","","feedback trial","",""
"html-button-response-esp","27","233897","0.0-11.0-0.8","2848","Te bizony sokat nűröklesz. Én is sokat...","0","nűröklöm","[""nűröklöm"",""nűröklök""]","nűröklöm","esp trial","7","true"
"html-button-response","28","237424","0.0-11.0-1.8","null","<p>A másik játékos ezt választotta: <b>nűröklöm</b>.</p><p>&#x2705;</p><p>A te válaszod és a másik játékos válasza <b>megegyeznek</b>.</p>","null","","","","feedback trial","",""
"html-button-response-esp","29","241178","0.0-11.0-0.9","2745","Te bizony sokat sztrijzol. Én is sokat...","1","sztrijzok","[""sztrijzom"",""sztrijzok""]","sztrijzom","esp trial","7","false"
"html-button-response","30","244692","0.0-11.0-1.9","null","<p>A másik játékos ezt választotta: <b>sztrijzom</b>.</p><p>&#10060;</p><p>A válaszaitok <b>nem</b> egyeznek meg.</p>","null","","","","feedback trial","",""
"html-button-response-esp","31","248441","0.0-11.0-0.10","3026","Te bizony sokat spüjzöl. Én is sokat...","0","spüjzök","[""spüjzök"",""spüjzöm""]","spüjzök","esp trial","7","true"
"html-button-response","32","251954","0.0-11.0-1.10","null","<p>A másik játékos ezt választotta: <b>spüjzök</b>.</p><p>&#x2705;</p><p>A te válaszod és a másik játékos válasza <b>megegyeznek</b>.</p>","null","","","","feedback trial","",""
"html-button-response-esp","33","255706","0.0-11.0-0.11","2994","Te bizony sokat düjzöl. Én is sokat...","0","düjzök","[""düjzök"",""düjzöm""]","düjzöm","esp trial","7","false"
"html-button-response","34","260143","0.0-11.0-1.11","null","<p>A másik játékos ezt választotta: <b>düjzöm</b>.</p><p>&#10060;</p><p>A válaszaitok <b>nem</b> egyeznek meg.</p>","null","","","","feedback trial","",""
"html-button-response-esp","35","265331","0.0-11.0-0.12","4179","Te bizony sokat ibékszel. Én is sokat...","0","ibékszek","[""ibékszek"",""ibékszem""]","ibékszem","esp trial","7","false"
"html-button-response","36","268859","0.0-11.0-1.12","null","<p>A másik játékos ezt választotta: <b>ibékszem</b>.</p><p>&#10060;</p><p>A válaszaitok <b>nem</b> egyeznek meg.</p>","null","","","","feedback trial","",""
"html-button-response-esp","37","273707","0.0-11.0-0.13","4345","Te bizony sokat treglesz. Én is sokat...","0","treglem","[""treglem"",""treglek""]","treglek","esp trial","7","false"
"html-button-response","38","277216","0.0-11.0-1.13","null","<p>A másik játékos ezt választotta: <b>treglek</b>.</p><p>&#10060;</p><p>A válaszaitok <b>nem</b> egyeznek meg.</p>","null","","","","feedback trial","",""
"html-button-response-esp","39","281346","0.0-11.0-0.14","3626","Te bizony sokat prínylasz. Én is sokat...","1","prínylok","[""prínylom"",""prínylok""]","prínylom","esp trial","7","false"
"html-button-response","40","284859","0.0-11.0-1.14","null","<p>A másik játékos ezt választotta: <b>prínylom</b>.</p><p>&#10060;</p><p>A válaszaitok <b>nem</b> egyeznek meg.</p>","null","","","","feedback trial","",""
"html-button-response-esp","41","288620","0.0-11.0-0.15","961","Te bizony sokat flehékszel. Én is sokat...","1","flehékszek","[""flehékszem"",""flehékszek""]","flehékszem","esp trial","7","false"
"html-button-response","42","292142","0.0-11.0-1.15","null","<p>A másik játékos ezt választotta: <b>flehékszem</b>.</p><p>&#10060;</p><p>A válaszaitok <b>nem</b> egyeznek meg.</p>","null","","","","feedback trial","",""
"html-button-response-esp","43","298506","0.0-11.0-0.16","5853","Te bizony sokat spülűdzöl. Én is sokat...","0","spülűdzök","[""spülűdzök"",""spülűdzöm""]","spülűdzöm","esp trial","7","false"
"html-button-response","44","302144","0.0-11.0-1.16","null","<p>A másik játékos ezt választotta: <b>spülűdzöm</b>.</p><p>&#10060;</p><p>A válaszaitok <b>nem</b> egyeznek meg.</p>","null","","","","feedback trial","",""
"html-button-response-esp","45","307867","0.0-11.0-0.17","5106","Te bizony sokat pítszol. Én is sokat...","1","pítszom","[""pítszok"",""pítszom""]","pítszom","esp trial","7","true"
"html-button-response","46","311384","0.0-11.0-1.17","null","<p>A másik játékos ezt választotta: <b>pítszom</b>.</p><p>&#x2705;</p><p>A te válaszod és a másik játékos válasza <b>megegyeznek</b>.</p>","null","","","","feedback trial","",""
"html-button-response-esp","47","315138","0.0-11.0-0.18","3060","Te bizony sokat filágzol. Én is sokat...","1","filágzok","[""filágzom"",""filágzok""]","filágzom","esp trial","7","false"
"html-button-response","48","318651","0.0-11.0-1.18","null","<p>A másik játékos ezt választotta: <b>filágzom</b>.</p><p>&#10060;</p><p>A válaszaitok <b>nem</b> egyeznek meg.</p>","null","","","","feedback trial","",""
"html-button-response-esp","49","324419","0.0-11.0-0.19","5266","Te bizony sokat lörűdzöl. Én is sokat...","0","lörűdzök","[""lörűdzök"",""lörűdzöm""]","lörűdzöm","esp trial","7","false"
"html-button-response","50","327942","0.0-11.0-1.19","null","<p>A másik játékos ezt választotta: <b>lörűdzöm</b>.</p><p>&#10060;</p><p>A válaszaitok <b>nem</b> egyeznek meg.</p>","null","","","","feedback trial","",""
"html-button-response-esp","51","333715","0.0-11.0-0.20","5261","Te bizony sokat vanylasz. Én is sokat...","0","vanylok","[""vanylok"",""vanylom""]","vanylok","esp trial","7","true"
"html-button-response","52","337237","0.0-11.0-1.20","null","<p>A másik játékos ezt választotta: <b>vanylok</b>.</p><p>&#x2705;</p><p>A te válaszod és a másik játékos válasza <b>megegyeznek</b>.</p>","null","","","","feedback trial","",""
"html-button-response-esp","53","341020","0.0-11.0-0.21","2875","Te bizony sokat píjlasz. Én is sokat...","1","píjlok","[""píjlom"",""píjlok""]","píjlom","esp trial","7","false"
"html-button-response","54","344537","0.0-11.0-1.21","null","<p>A másik játékos ezt választotta: <b>píjlom</b>.</p><p>&#10060;</p><p>A válaszaitok <b>nem</b> egyeznek meg.</p>","null","","","","feedback trial","",""
"html-button-response-esp","55","348295","0.0-11.0-0.22","770","Te bizony sokat pribemlesz. Én is sokat...","0","pribemlek","[""pribemlek"",""pribemlem""]","pribemlek","esp trial","7","true"
"html-button-response","56","351830","0.0-11.0-1.22","null","<p>A másik játékos ezt választotta: <b>pribemlek</b>.</p><p>&#x2705;</p><p>A te válaszod és a másik játékos válasza <b>megegyeznek</b>.</p>","null","","","","feedback trial","",""
"html-button-response-esp","57","356971","0.0-11.0-0.23","4629","Te bizony sokat klétszel. Én is sokat...","0","klétszem","[""klétszem"",""klétszek""]","klétszem","esp trial","7","true"
"html-button-response","58","360481","0.0-11.0-1.23","null","<p>A másik játékos ezt választotta: <b>klétszem</b>.</p><p>&#x2705;</p><p>A te válaszod és a másik játékos válasza <b>megegyeznek</b>.</p>","null","","","","feedback trial","",""
"html-button-response-esp","59","367019","0.0-11.0-0.24","6027","Te bizony sokat rájzol. Én is sokat...","0","rájzok","[""rájzok"",""rájzom""]","rájzom","esp trial","7","false"
"html-button-response","60","370530","0.0-11.0-1.24","null","<p>A másik játékos ezt választotta: <b>rájzom</b>.</p><p>&#10060;</p><p>A válaszaitok <b>nem</b> egyeznek meg.</p>","null","","","","feedback trial","",""
"html-button-response-esp","61","374288","0.0-11.0-0.25","1289","Te bizony sokat plugzol. Én is sokat...","1","plugzok","[""plugzom"",""plugzok""]","plugzom","esp trial","7","false"
"html-button-response","62","377809","0.0-11.0-1.25","null","<p>A másik játékos ezt választotta: <b>plugzom</b>.</p><p>&#10060;</p><p>A válaszaitok <b>nem</b> egyeznek meg.</p>","null","","","","feedback trial","",""
"html-button-response-esp","63","381560","0.0-11.0-0.26","1045","Te bizony sokat spihegzel. Én is sokat...","0","spihegzek","[""spihegzek"",""spihegzem""]","spihegzem","esp trial","7","false"
"html-button-response","64","385072","0.0-11.0-1.26","null","<p>A másik játékos ezt választotta: <b>spihegzem</b>.</p><p>&#10060;</p><p>A válaszaitok <b>nem</b> egyeznek meg.</p>","null","","","","feedback trial","",""
"html-button-response-esp","65","389410","0.0-11.0-0.27","3822","Te bizony sokat spröbzöl. Én is sokat...","1","spröbzök","[""spröbzöm"",""spröbzök""]","spröbzöm","esp trial","7","false"
"html-button-response","66","392920","0.0-11.0-1.27","null","<p>A másik játékos ezt választotta: <b>spröbzöm</b>.</p><p>&#10060;</p><p>A válaszaitok <b>nem</b> egyeznek meg.</p>","null","","","","feedback trial","",""
"html-button-response-esp","67","396672","0.0-11.0-0.28","546","Te bizony sokat bűtszöl. Én is sokat...","0","bűtszöm","[""bűtszöm"",""bűtszök""]","bűtszöm","esp trial","7","true"
"html-button-response","68","400202","0.0-11.0-1.28","null","<p>A másik játékos ezt választotta: <b>bűtszöm</b>.</p><p>&#x2705;</p><p>A te válaszod és a másik játékos válasza <b>megegyeznek</b>.</p>","null","","","","feedback trial","",""
"html-button-response-esp","69","403963","0.0-11.0-0.29","1390","Te bizony sokat hurjorzol. Én is sokat...","0","hurjorzok","[""hurjorzok"",""hurjorzom""]","hurjorzom","esp trial","7","false"
"html-button-response","70","407488","0.0-11.0-1.29","null","<p>A másik játékos ezt választotta: <b>hurjorzom</b>.</p><p>&#10060;</p><p>A válaszaitok <b>nem</b> egyeznek meg.</p>","null","","","","feedback trial","",""
"html-button-response-esp","71","411261","0.0-11.0-0.30","2230","Te bizony sokat jonylasz. Én is sokat...","1","jonylom","[""jonylok"",""jonylom""]","jonylok","esp trial","7","false"
"html-button-response","72","414776","0.0-11.0-1.30","null","<p>A másik játékos ezt választotta: <b>jonylok</b>.</p><p>&#10060;</p><p>A válaszaitok <b>nem</b> egyeznek meg.</p>","null","","","","feedback trial","",""
"html-button-response-esp","73","418534","0.0-11.0-0.31","1377","Te bizony sokat flűmlesz. Én is sokat...","0","flűmlöm","[""flűmlöm"",""flűmlök""]","flűmlök","esp trial","7","false"
"html-button-response","74","422048","0.0-11.0-1.31","null","<p>A másik játékos ezt választotta: <b>flűmlök</b>.</p><p>&#10060;</p><p>A válaszaitok <b>nem</b> egyeznek meg.</p>","null","","","","feedback trial","",""
"html-button-response-esp","75","425804","0.0-11.0-0.32","1674","Te bizony sokat flitlasz. Én is sokat...","0","flitlok","[""flitlok"",""flitlom""]","flitlok","esp trial","7","true"
"html-button-response","76","429738","0.0-11.0-1.32","null","<p>A másik játékos ezt választotta: <b>flitlok</b>.</p><p>&#x2705;</p><p>A te válaszod és a másik játékos válasza <b>megegyeznek</b>.</p>","null","","","","feedback trial","",""
"html-button-response-esp","77","435882","0.0-11.0-0.33","5629","Te bizony sokat flátszol. Én is sokat...","1","flátszom","[""flátszok"",""flátszom""]","flátszom","esp trial","7","true"
"html-button-response","78","439402","0.0-11.0-1.33","null","<p>A másik játékos ezt választotta: <b>flátszom</b>.</p><p>&#x2705;</p><p>A te válaszod és a másik játékos válasza <b>megegyeznek</b>.</p>","null","","","","feedback trial","",""
"html-button-response-esp","79","443170","0.0-11.0-0.34","2286","Te bizony sokat bihánylasz. Én is sokat...","0","bihánylom","[""bihánylom"",""bihánylok""]","bihánylok","esp trial","7","false"
"html-button-response","80","446684","0.0-11.0-1.34","null","<p>A másik játékos ezt választotta: <b>bihánylok</b>.</p><p>&#10060;</p><p>A válaszaitok <b>nem</b> egyeznek meg.</p>","null","","","","feedback trial","",""
"html-button-response-esp","81","451490","0.0-11.0-0.35","4293","Te bizony sokat sztrozlasz. Én is sokat...","0","sztrozlom","[""sztrozlom"",""sztrozlok""]","sztrozlom","esp trial","7","true"
"html-button-response","82","455017","0.0-11.0-1.35","null","<p>A másik játékos ezt választotta: <b>sztrozlom</b>.</p><p>&#x2705;</p><p>A te válaszod és a másik játékos válasza <b>megegyeznek</b>.</p>","null","","","","feedback trial","",""
"html-button-response-esp","83","458773","0.0-11.0-0.36","2430","Te bizony sokat flehénylesz. Én is sokat...","0","flehénylek","[""flehénylek"",""flehénylem""]","flehénylek","esp trial","7","true"
"html-button-response","84","462298","0.0-11.0-1.36","null","<p>A másik játékos ezt választotta: <b>flehénylek</b>.</p><p>&#x2705;</p><p>A te válaszod és a másik játékos válasza <b>megegyeznek</b>.</p>","null","","","","feedback trial","",""
"html-button-response-esp","85","466562","0.0-11.0-0.37","3758","Te bizony sokat brivegzel. Én is sokat...","0","brivegzem","[""brivegzem"",""brivegzek""]","brivegzem","esp trial","7","true"
"html-button-response","86","470078","0.0-11.0-1.37","null","<p>A másik játékos ezt választotta: <b>brivegzem</b>.</p><p>&#x2705;</p><p>A te válaszod és a másik játékos válasza <b>megegyeznek</b>.</p>","null","","","","feedback trial","",""
"html-button-response-esp","87","473843","0.0-11.0-0.38","1961","Te bizony sokat brubzol. Én is sokat...","0","brubzok","[""brubzok"",""brubzom""]","brubzom","esp trial","7","false"
"html-button-response","88","477356","0.0-11.0-1.38","null","<p>A másik játékos ezt választotta: <b>brubzom</b>.</p><p>&#10060;</p><p>A válaszaitok <b>nem</b> egyeznek meg.</p>","null","","","","feedback trial","",""
"html-button-response-esp","89","481794","0.0-11.0-0.39","3936","Te bizony sokat gyibeslesz. Én is sokat...","1","gyibeslek","[""gyibeslem"",""gyibeslek""]","gyibeslem","esp trial","7","false"
"html-button-response","90","485302","0.0-11.0-1.39","null","<p>A másik játékos ezt választotta: <b>gyibeslem</b>.</p><p>&#10060;</p><p>A válaszaitok <b>nem</b> egyeznek meg.</p>","null","","","","feedback trial","",""
"html-button-response-esp","91","489068","0.0-11.0-0.40","2495","Te bizony sokat frodlasz. Én is sokat...","0","frodlok","[""frodlok"",""frodlom""]","frodlom","esp trial","7","false"
"html-button-response","92","492591","0.0-11.0-1.40","null","<p>A másik játékos ezt választotta: <b>frodlom</b>.</p><p>&#10060;</p><p>A válaszaitok <b>nem</b> egyeznek meg.</p>","null","","","","feedback trial","",""
"html-button-response-esp","93","496371","0.0-11.0-0.41","3269","Te bizony sokat brobódzol. Én is sokat...","1","brobódzom","[""brobódzok"",""brobódzom""]","brobódzom","esp trial","7","true"
"html-button-response","94","499883","0.0-11.0-1.41","null","<p>A másik játékos ezt választotta: <b>brobódzom</b>.</p><p>&#x2705;</p><p>A te válaszod és a másik játékos válasza <b>megegyeznek</b>.</p>","null","","","","feedback trial","",""
"html-button-response-esp","95","503642","0.0-11.0-0.42","2034","Te bizony sokat spubonylasz. Én is sokat...","1","spubonylom","[""spubonylok"",""spubonylom""]","spubonylok","esp trial","7","false"
"html-button-response","96","507162","0.0-11.0-1.42","null","<p>A másik játékos ezt választotta: <b>spubonylok</b>.</p><p>&#10060;</p><p>A válaszaitok <b>nem</b> egyeznek meg.</p>","null","","","","feedback trial","",""
"html-button-response-esp","97","510924","0.0-11.0-0.43","1106","Te bizony sokat narádzol. Én is sokat...","1","narádzom","[""narádzok"",""narádzom""]","narádzom","esp trial","7","true"
"html-button-response","98","514441","0.0-11.0-1.43","null","<p>A másik játékos ezt választotta: <b>narádzom</b>.</p><p>&#x2705;</p><p>A te válaszod és a másik játékos válasza <b>megegyeznek</b>.</p>","null","","","","feedback trial","",""
"html-button-response-esp","99","518204","0.0-11.0-0.44","1996","Te bizony sokat salárzol. Én is sokat...","1","salárzom","[""salárzok"",""salárzom""]","salárzom","esp trial","7","true"
"html-button-response","100","522137","0.0-11.0-1.44","null","<p>A másik játékos ezt választotta: <b>salárzom</b>.</p><p>&#x2705;</p><p>A te válaszod és a másik játékos válasza <b>megegyeznek</b>.</p>","null","","","","feedback trial","",""
"html-button-response-esp","101","525881","0.0-11.0-0.45","2429","Te bizony sokat pribagszol. Én is sokat...","0","pribagszom","[""pribagszom"",""pribagszok""]","pribagszom","esp trial","7","true"
"html-button-response","102","529404","0.0-11.0-1.45","null","<p>A másik játékos ezt választotta: <b>pribagszom</b>.</p><p>&#x2705;</p><p>A te válaszod és a másik játékos válasza <b>megegyeznek</b>.</p>","null","","","","feedback trial","",""
"html-button-response-esp","103","533515","0.0-11.0-0.46","3601","Te bizony sokat spihemlesz. Én is sokat...","0","spihemlek","[""spihemlek"",""spihemlem""]","spihemlek","esp trial","7","true"
"html-button-response","104","537024","0.0-11.0-1.46","null","<p>A másik játékos ezt választotta: <b>spihemlek</b>.</p><p>&#x2705;</p><p>A te válaszod és a másik játékos válasza <b>megegyeznek</b>.</p>","null","","","","feedback trial","",""
"html-button-response-esp","105","540779","0.0-11.0-0.47","3042","Te bizony sokat rokszol. Én is sokat...","0","rokszom","[""rokszom"",""rokszok""]","rokszom","esp trial","7","true"
"html-button-response","106","544307","0.0-11.0-1.47","null","<p>A másik játékos ezt választotta: <b>rokszom</b>.</p><p>&#x2705;</p><p>A te válaszod és a másik játékos válasza <b>megegyeznek</b>.</p>","null","","","","feedback trial","",""
"html-button-response-esp","107","548067","0.0-11.0-0.48","2614","Te bizony sokat plűbzöl. Én is sokat...","0","plűbzöm","[""plűbzöm"",""plűbzök""]","plűbzöm","esp trial","7","true"
"html-button-response","108","551579","0.0-11.0-1.48","null","<p>A másik játékos ezt választotta: <b>plűbzöm</b>.</p><p>&#x2705;</p><p>A te válaszod és a másik játékos válasza <b>megegyeznek</b>.</p>","null","","","","feedback trial","",""
"html-button-response-esp","109","555338","0.0-11.0-0.49","3127","Te bizony sokat hűgzöl. Én is sokat...","0","hűgzöm","[""hűgzöm"",""hűgzök""]","hűgzöm","esp trial","7","true"
"html-button-response","110","558848","0.0-11.0-1.49","null","<p>A másik játékos ezt választotta: <b>hűgzöm</b>.</p><p>&#x2705;</p><p>A te válaszod és a másik játékos válasza <b>megegyeznek</b>.</p>","null","","","","feedback trial","",""
"html-button-response-esp","111","564098","0.0-11.0-0.50","4735","Te bizony sokat trádlasz. Én is sokat...","0","trádlom","[""trádlom"",""trádlok""]","trádlom","esp trial","7","true"
"html-button-response","112","567629","0.0-11.0-1.50","null","<p>A másik játékos ezt választotta: <b>trádlom</b>.</p><p>&#x2705;</p><p>A te válaszod és a másik játékos válasza <b>megegyeznek</b>.</p>","null","","","","feedback trial","",""
"html-button-response-esp","113","571394","0.0-11.0-0.51","2438","Te bizony sokat klivaslasz. Én is sokat...","0","klivaslom","[""klivaslom"",""klivaslok""]","klivaslok","esp trial","7","false"
"html-button-response","114","575473","0.0-11.0-1.51","null","<p>A másik játékos ezt választotta: <b>klivaslok</b>.</p><p>&#10060;</p><p>A válaszaitok <b>nem</b> egyeznek meg.</p>","null","","","","feedback trial","",""
"html-button-response-esp","115","586338","0.0-11.0-0.52","10355","Te bizony sokat tragzol. Én is sokat...","1","tragzom","[""tragzok"",""tragzom""]","tragzom","esp trial","7","true"
"html-button-response","116","589848","0.0-11.0-1.52","null","<p>A másik játékos ezt választotta: <b>tragzom</b>.</p><p>&#x2705;</p><p>A te válaszod és a másik játékos válasza <b>megegyeznek</b>.</p>","null","","","","feedback trial","",""
"html-button-response-esp","117","593607","0.0-11.0-0.53","2636","Te bizony sokat trehégszel. Én is sokat...","1","trehégszem","[""trehégszek"",""trehégszem""]","trehégszem","esp trial","7","true"
"html-button-response","118","597123","0.0-11.0-1.53","null","<p>A másik játékos ezt választotta: <b>trehégszem</b>.</p><p>&#x2705;</p><p>A te válaszod és a másik játékos válasza <b>megegyeznek</b>.</p>","null","","","","feedback trial","",""
"html-button-response","119","605698","0.0-12.0","8062","<p>A közös játék most véget ért.</p><p>Mielőtt eláruljuk a végső pontszámodat, arra kérlek, játszd a szóválasztós játékot néhány percig egyedül is.</p><p>A feladatod ugyanaz lesz, választani két lehetőség közül.</p><p>Most viszont egyedül kell döntened, hogy te melyiket választanád.</p>","0","","","","","",""
"html-button-response-clever","120","607034","0.0-13.0-0.0","833","Te bizony sokat floglasz. Én is sokat...","1","floglok","[""floglom"",""floglok""]","","posttest trial","8",""
"html-button-response-clever","121","607938","0.0-13.0-0.1","402","Te bizony sokat pugoslasz. Én is sokat...","0","pugoslom","[""pugoslom"",""pugoslok""]","","posttest trial","8",""
"html-button-response-clever","122","608890","0.0-13.0-0.2","449","Te bizony sokat táklasz. Én is sokat...","1","táklom","[""táklok"",""táklom""]","","posttest trial","8",""
"html-button-response-clever","123","611922","0.0-13.0-0.3","2528","Te bizony sokat prezlesz. Én is sokat...","0","prezlek","[""prezlek"",""prezlem""]","","posttest trial","8",""
"html-button-response-clever","124","615010","0.0-13.0-0.4","2570","Te bizony sokat préleglesz. Én is sokat...","1","préleglek","[""préleglem"",""préleglek""]","","posttest trial","8",""
"html-button-response-clever","125","618562","0.0-13.0-0.5","3047","Te bizony sokat klidlasz. Én is sokat...","1","klidlok","[""klidlom"",""klidlok""]","","posttest trial","8",""
"html-button-response-clever","126","621051","0.0-13.0-0.6","1985","Te bizony sokat lihadzol. Én is sokat...","0","lihadzom","[""lihadzom"",""lihadzok""]","","posttest trial","8",""
"html-button-response-clever","127","623211","0.0-13.0-0.7","1652","Te bizony sokat sztruglasz. Én is sokat...","0","sztruglok","[""sztruglok"",""sztruglom""]","","posttest trial","8",""
"html-button-response-clever","128","625739","0.0-13.0-0.8","2011","Te bizony sokat féjzel. Én is sokat...","0","féjzek","[""féjzek"",""féjzem""]","","posttest trial","8",""
"html-button-response-clever","129","628570","0.0-13.0-0.9","2318","Te bizony sokat spülőrzöl. Én is sokat...","1","spülőrzöm","[""spülőrzök"",""spülőrzöm""]","","posttest trial","8",""
"html-button-response-clever","130","630483","0.0-13.0-0.10","1410","Te bizony sokat kumlasz. Én is sokat...","0","kumlok","[""kumlok"",""kumlom""]","","posttest trial","8",""
"html-button-response-clever","131","634763","0.0-13.0-0.11","3763","Te bizony sokat fliraklasz. Én is sokat...","0","fliraklok","[""fliraklok"",""fliraklom""]","","posttest trial","8",""
"html-button-response-clever","132","637738","0.0-13.0-0.12","2462","Te bizony sokat huklasz. Én is sokat...","0","huklok","[""huklok"",""huklom""]","","posttest trial","8",""
"html-button-response-clever","133","639770","0.0-13.0-0.13","1515","Te bizony sokat drügzöl. Én is sokat...","0","drügzök","[""drügzök"",""drügzöm""]","","posttest trial","8",""
"html-button-response-clever","134","642546","0.0-13.0-0.14","2263","Te bizony sokat vűjlesz. Én is sokat...","1","vűjlök","[""vűjlöm"",""vűjlök""]","","posttest trial","8",""
"html-button-response-clever","135","646723","0.0-13.0-0.15","3667","Te bizony sokat gyibakszol. Én is sokat...","0","gyibakszom","[""gyibakszom"",""gyibakszok""]","","posttest trial","8",""
"html-button-response-clever","136","649634","0.0-13.0-0.16","2402","Te bizony sokat gerénylesz. Én is sokat...","1","gerénylek","[""gerénylem"",""gerénylek""]","","posttest trial","8",""
"html-button-response-clever","137","652755","0.0-13.0-0.17","2618","Te bizony sokat prohódzol. Én is sokat...","1","prohódzok","[""prohódzom"",""prohódzok""]","","posttest trial","8",""
"html-button-response-clever","138","654218","0.0-13.0-0.18","961","Te bizony sokat sprálszol. Én is sokat...","0","sprálszok","[""sprálszok"",""sprálszom""]","","posttest trial","8",""
"html-button-response-clever","139","666299","0.0-13.0-0.19","11578","Te bizony sokat gilárzol. Én is sokat...","1","gilárzok","[""gilárzom"",""gilárzok""]","","posttest trial","8",""
"html-button-response-clever","140","668698","0.0-13.0-0.20","1893","Te bizony sokat aglasz. Én is sokat...","0","aglok","[""aglok"",""aglom""]","","posttest trial","8",""
"html-button-response-clever","141","670210","0.0-13.0-0.21","1000","Te bizony sokat spibádzol. Én is sokat...","1","spibádzok","[""spibádzom"",""spibádzok""]","","posttest trial","8",""
"html-button-response-clever","142","671778","0.0-13.0-0.22","1066","Te bizony sokat frivajlasz. Én is sokat...","0","frivajlom","[""frivajlom"",""frivajlok""]","","posttest trial","8",""
"html-button-response-clever","143","673186","0.0-13.0-0.23","905","Te bizony sokat frágapszol. Én is sokat...","0","frágapszom","[""frágapszom"",""frágapszok""]","","posttest trial","8",""
"html-button-response-clever","144","692370","0.0-13.0-0.24","18675","Te bizony sokat zödlesz. Én is sokat...","0","zödlök","[""zödlök"",""zödlöm""]","","posttest trial","8",""
"html-button-response-clever","145","696778","0.0-13.0-0.25","3904","Te bizony sokat prihekszel. Én is sokat...","0","prihekszek","[""prihekszek"",""prihekszem""]","","posttest trial","8",""
"html-button-response-clever","146","700122","0.0-13.0-0.26","2829","Te bizony sokat szűslesz. Én is sokat...","1","szűslök","[""szűslöm"",""szűslök""]","","posttest trial","8",""
"html-button-response-clever","147","702554","0.0-13.0-0.27","1923","Te bizony sokat bivejlesz. Én is sokat...","0","bivejlek","[""bivejlek"",""bivejlem""]","","posttest trial","8",""
"html-button-response-clever","148","703986","0.0-13.0-0.28","926","Te bizony sokat friszlasz. Én is sokat...","0","friszlok","[""friszlok"",""friszlom""]","","posttest trial","8",""
"html-button-response-clever","149","741418","0.0-13.0-0.29","36922","Te bizony sokat spélszel. Én is sokat...","0","spélszek","[""spélszek"",""spélszem""]","","posttest trial","8",""
"html-button-response-clever","150","743642","0.0-13.0-0.30","1721","Te bizony sokat flözlesz. Én is sokat...","0","flözlök","[""flözlök"",""flözlöm""]","","posttest trial","8",""
"html-button-response-clever","151","747330","0.0-13.0-0.31","3184","Te bizony sokat spírzol. Én is sokat...","0","spírzok","[""spírzok"",""spírzom""]","","posttest trial","8",""
"html-button-response-clever","152","757265","0.0-13.0-0.32","9433","Te bizony sokat ibáglasz. Én is sokat...","0","ibáglok","[""ibáglok"",""ibáglom""]","","posttest trial","8",""
"html-button-response-clever","153","759554","0.0-13.0-0.33","1771","Te bizony sokat plágadzol. Én is sokat...","0","plágadzok","[""plágadzok"",""plágadzom""]","","posttest trial","8",""
"html-button-response-clever","154","760849","0.0-13.0-0.34","779","Te bizony sokat spatszol. Én is sokat...","0","spatszok","[""spatszok"",""spatszom""]","","posttest trial","8",""
"html-button-response-clever","155","772818","0.0-13.0-0.35","11461","Te bizony sokat péleslesz. Én is sokat...","1","péleslek","[""péleslem"",""péleslek""]","","posttest trial","8",""
"html-button-response-clever","156","774850","0.0-13.0-0.36","1520","Te bizony sokat livaklasz. Én is sokat...","1","livaklok","[""livaklom"",""livaklok""]","","posttest trial","8",""
"html-button-response-clever","157","776490","0.0-13.0-0.37","1137","Te bizony sokat praslasz. Én is sokat...","0","praslok","[""praslok"",""praslom""]","","posttest trial","8",""
"html-button-response-clever","158","778762","0.0-13.0-0.38","1757","Te bizony sokat vihepszel. Én is sokat...","1","vihepszek","[""vihepszem"",""vihepszek""]","","posttest trial","8",""
"html-button-response-clever","159","780266","0.0-13.0-0.39","1000","Te bizony sokat klárzol. Én is sokat...","0","klárzok","[""klárzok"",""klárzom""]","","posttest trial","8",""
"html-button-response-clever","160","781570","0.0-13.0-0.40","797","Te bizony sokat sprédlesz. Én is sokat...","0","sprédlek","[""sprédlek"",""sprédlem""]","","posttest trial","8",""
"html-button-response-clever","161","782425","0.0-13.0-0.41","353","Te bizony sokat trihagzol. Én is sokat...","1","trihagzom","[""trihagzok"",""trihagzom""]","","posttest trial","8",""
"html-button-response-clever","162","783290","0.0-13.0-0.42","361","Te bizony sokat gyivádzol. Én is sokat...","0","gyivádzok","[""gyivádzok"",""gyivádzom""]","","posttest trial","8",""
"html-button-response-clever","163","784202","0.0-13.0-0.43","410","Te bizony sokat fivénylesz. Én is sokat...","1","fivénylem","[""fivénylek"",""fivénylem""]","","posttest trial","8",""
"html-button-response-clever","164","785425","0.0-13.0-0.44","721","Te bizony sokat csólorzol. Én is sokat...","1","csólorzom","[""csólorzok"",""csólorzom""]","","posttest trial","8",""
"html-button-response-clever","165","792658","0.0-13.0-0.45","6730","Te bizony sokat tuboklasz. Én is sokat...","1","tuboklok","[""tuboklom"",""tuboklok""]","","posttest trial","8",""
"html-button-response-clever","166","795843","0.0-13.0-0.46","2681","Te bizony sokat plövőrzöl. Én is sokat...","0","plövőrzök","[""plövőrzök"",""plövőrzöm""]","","posttest trial","8",""
"html-button-response-clever","167","797626","0.0-13.0-0.47","1274","Te bizony sokat mékszel. Én is sokat...","1","mékszek","[""mékszem"",""mékszek""]","","posttest trial","8",""
"html-button-response-clever","168","800218","0.0-13.0-0.48","2083","Te bizony sokat brarlasz. Én is sokat...","0","brarlok","[""brarlok"",""brarlom""]","","posttest trial","8",""
"html-button-response-clever","169","802139","0.0-13.0-0.49","1418","Te bizony sokat spüszlesz. Én is sokat...","0","spüszlöm","[""spüszlöm"",""spüszlök""]","","posttest trial","8",""
"html-button-response-clever","170","806539","0.0-13.0-0.50","3885","Te bizony sokat flérlesz. Én is sokat...","1","flérlek","[""flérlem"",""flérlek""]","","posttest trial","8",""
"html-button-response-clever","171","807947","0.0-13.0-0.51","902","Te bizony sokat spülöklesz. Én is sokat...","0","spülöklök","[""spülöklök"",""spülöklöm""]","","posttest trial","8",""
"html-button-response-clever","172","842843","0.0-13.0-0.52","34393","Te bizony sokat fligzol. Én is sokat...","0","fligzok","[""fligzok"",""fligzom""]","","posttest trial","8",""
"html-button-response-clever","173","845562","0.0-13.0-0.53","2206","Te bizony sokat flibekszel. Én is sokat...","0","flibekszek","[""flibekszek"",""flibekszem""]","","posttest trial","8",""
"html-button-response","174","850290","0.0-14.0","4213","<p> Vége a játéknak. A teljes pontszámod 26/54.</p><p> Szép munka! &#128526;&#128526;&#128526;</p><p>A Befejezés gomb megnyomása után bezárhatod a böngészőablakot.</p>","0","","","","","",""
"html-keyboard-response","175","855801","0.0-15.0","null","<div class=""message"">
         <p>Egy kis türelmet kérünk, amíg elmentjük az adatokat...</p>
         </div>","null","","","","","",""
