"trial_type","trial_index","time_elapsed","internal_node_id","rt","stimulus","response","response_string","choices","esp_response","trial_kind","list_number","esp_match"
"pavlovia","0","697","0.0-0.0","","","","","","","","",""
"html-button-response","1","55046","0.0-1.0","53827","<p>Kedves Résztvevő! A Budapesti Műszaki és Gazdaságtudományi Egyetem Kognitív Tudományi Tanszékének kutatásában való részvételed kérjük. A kutatásban azt vizsgáljuk, hogy a magyar anyanyelvűek hogyan használnak bizonyos szóalakokat, és hogy milyen képük van arról, hogy mások hogyan használják, hogyan képzik a szavakat. Ez hozzásegít bennünket ahhoz, hogy jobban megértsük, hogyan dolgozza fel és tárolja a nyelvet az emberi agy, és hogyan működnek, hogyan változnak egy adott közösség nyelvi konvenciói.</p><p>A vizsgálat egy rövid számítógépes feladatból fog állni. A kutatásban való részvétel önkéntes, a részvételi szándék bármikor visszavonható. A résztvevők eredményeit név nélkül kezeljük, így nem beazonosíthatók az adatok feldolgozása során. Minden személyes adatot az EU általános adatvédelmi rendeletének (GDPR) megfelelően kezelünk és legfeljebb öt éven belül megsemmisítünk. A vizsgálat jellemzően húsz percet vesz igénybe.</p><p>Kutatásvezető:</p><p>Dr. Rácz Péter, tudományos munkatárs, BME KTT</p><p>e-mail: racz.peter.marton@ttk.bme.hu</p>","0","","","","","",""
"html-button-response","2","98970","0.0-2.0","43419","<p>A kísérletben szavakat fogsz látni. Ezek között lesznek olyanok, amelyeket ismersz, de előfordulhatnak olyanok is, amelyeket nem ismersz, sőt, vannak köztük kitalált szavak is. Minden szónál látni fogsz toldalékolt alakokat. A te feladatod az lesz, hogy minden szóhoz kiválaszd azt a toldalékolt alakot, amely a te számodra ismerősebben, természetesebben hangzik. Rossz válaszok nincsenek, mert van olyan, hogy különböző embereknek más és más szó tűnik jobb választásnak. A választ úgy tudod majd kiválasztani, ha rákattintasz.</p><p>Ebben a szóválasztós játékban egy másik játékossal együtt veszel majd részt. A másik játékos is minden esetben azok közül a lehetőségek közül válogathat, mint te. Kettőtök feladata az, hogy ugyanazt a lehetőséget válasszátok minden esetben. Ahhoz, hogy ez sikerüljön, neked figyelned kell arra, hogy a másik játékos milyen válaszokat ad, és ennek alapján meg kell tippelned, hogyan választ legközelebb. Ha eltalálod, akkor pontot kapsz.</p>","0","","","","","",""
"html-button-response","3","149960","0.0-3.0","50480","<p>Kérjük, olvasd el az alábbi nyilatkozatot, és amennyiben egyetértesz vele, nyomj a Beleegyezés gombra!</p><p>Kijelentem, hogy magyar anyanyelvű személyként önként veszek részt a BME KTT kísérletében. A kutatás céljával és folyamatával kapcsolatban elegendő tájékoztatást kaptam, lehetőségem volt kérdések feltételére, és esetleges kérdéseimre megfelelő válaszokat kaptam. A tájékoztatás alapján elegendő mennyiségű információ áll a rendelkezésemre, hogy eldönthessem, részt kívánok-e venni a kutatásban.</p><p>Tisztában vagyok vele, hogy részvételi szándékomat és adataimat bármikor, indoklás nélkül visszavonhatom.</p><p>Értem és tudomásul veszem, hogy a kutatás tudományos célokat szolgál, és az általam szolgáltatott adatokat a BME kizárólag kutatási célból használja fel. Tudomásul veszem, hogy eredményeimet a többi résztvevő eredményeivel együtt kezelik, így egyéni teljesítményemről visszajelzést, szakvéleményt nem kapok.</p><p>Megértettem, hogy adataim kezelését illetően a BME az EU általános adatvédelmi rendelete (GDPR), a hatályos adatvédelmi törvény és a nemzetközi kutatás-etikai alapelvek szerint jár el. Eredményeim anonim módon kerülnek feldolgozásra, és a kutatás résztvevői az azonosításomra alkalmas adataimat harmadik félnek nem szolgáltatják ki. Engedélyezem a BME számára a jelen kutatásban felvett adataim feldolgozását és tárolását, beleértve azok későbbi kutatásokhoz való felhasználását is. Személyes adataim kezelésével kapcsolatban tájékoztatást kérhetek a kutatás résztvevőitől, az adatkezelés ellen tiltakozhatok, kérhetem személyes adataim helyesbítését, törlését vagy zárolását, valamint jogorvoslatért a Nemzeti Adatvédelmi és Információszabadság Hatósághoz fordulhatok.</p><p>Kijelentem, hogy a kutatásban való részvételem körülményeiről részletes tájékoztatást kaptam, és a feltételeket elfogadom.</p>","0","","","","","",""
"survey-text","4","183103","0.0-4.0","32635","","{""Q0"":""TEGMN9"",""Q1"":""férfi"",""Q2"":""2002"",""Q3"":""13""}","","","","","",""
"html-button-response","5","201154","0.0-5.0","17543","<p>Ebben a játékban szavakat kell toldalékolni.</p> <p>Minden körben mutatunk majd egy példamondatot, amiben lesz egy szó.</p> <p>Alatta jön egy második mondat, ezt a mondatot neked kell majd befejezni, ugyanezzel a szóval.</p> <p>Nem biztos, hogy a szó eleve ismerős lesz számodra!</p> <p>Minden mondathoz adunk két lehetőséget, ezeket balra és jobbra látod majd.</p> <p>A játék kb. negyedóráig-húsz percig tart.</p>","0","","","","","",""
"html-button-response","6","210160","0.0-6.0","8497","<p>Nézzünk egy példát!</p> <p>A példamondat: ""János nagyon szeret rancsúrozni.""</p><p>Neked ezt a mondatot kell befejezned: ""Én is szívesen...""</p><p>A lehetőségek pedig ezek:</p>","1","","","","","",""
"html-button-response","7","219126","0.0-7.0","8462","<p>Nagyon jó.</p><p>Ezt a játékot nem egyedül fogod játszani, hanem egy másik játékossal.</p><p>Mielőtt továbblépünk, összekapcsolunk titeket egymással.</p><p>Ez igénybe vehet néhány másodpercet, amihez szíves türelmed kérjük.</p>","0","","","","","",""
"html-button-response","8","224862","0.0-8.0","null","<p>Csatlakozás a másik játékoshoz...</p>","null","","","","","",""
"html-button-response","9","227380","0.0-9.0","null","<p> Sikeres kapcsolódás!</p>","null","","","","","",""
"html-button-response","10","237896","0.0-10.0","null","<p>A következőkben ketten játsszátok a szóválasztós játékot.</p><p>A feladatotok az lesz, hogy minden körben <b>ugyanazt</b> a szót válasszátok.</p><p>Minden ilyen egyező válaszért pontot kaptok.</p><p>Próbáld meg kitalálni, mit választ a másik játékos!</p><p>Bármikor választhatsz, a körnek akkor van vége, ha mindketten döntöttetek.</p><p>Sok sikert!</p>","null","","","","","",""
"html-button-response-esp","11","246747","0.0-11.0-0.0","8337","Te bizony sokat drügzöl. Én is sokat...","1","drügzöm","[""drügzök"",""drügzöm""]","drügzöm","esp trial","10","true"
"html-button-response","12","250264","0.0-11.0-1.0","null","<p>A másik játékos ezt választotta: <b>drügzöm</b>.</p><p>&#x2705;</p><p>A te válaszod és a másik játékos válasza <b>megegyeznek</b>.</p>","null","","","","feedback trial","",""
"html-button-response-esp","13","255697","0.0-11.0-0.1","4264","Te bizony sokat huklasz. Én is sokat...","0","huklok","[""huklok"",""huklom""]","huklom","esp trial","10","false"
"html-button-response","14","259207","0.0-11.0-1.1","null","<p>A másik játékos ezt választotta: <b>huklom</b>.</p><p>&#10060;</p><p>A válaszaitok <b>nem</b> egyeznek meg.</p>","null","","","","feedback trial","",""
"html-button-response-esp","15","264632","0.0-11.0-0.2","4791","Te bizony sokat frivajlasz. Én is sokat...","0","frivajlok","[""frivajlok"",""frivajlom""]","frivajlom","esp trial","10","false"
"html-button-response","16","268156","0.0-11.0-1.2","null","<p>A másik játékos ezt választotta: <b>frivajlom</b>.</p><p>&#10060;</p><p>A válaszaitok <b>nem</b> egyeznek meg.</p>","null","","","","feedback trial","",""
"html-button-response-esp","17","273582","0.0-11.0-0.3","3946","Te bizony sokat spélszel. Én is sokat...","1","spélszek","[""spélszem"",""spélszek""]","spélszem","esp trial","10","false"
"html-button-response","18","277113","0.0-11.0-1.3","null","<p>A másik játékos ezt választotta: <b>spélszem</b>.</p><p>&#10060;</p><p>A válaszaitok <b>nem</b> egyeznek meg.</p>","null","","","","feedback trial","",""
"html-button-response-esp","19","282540","0.0-11.0-0.4","3221","Te bizony sokat aglasz. Én is sokat...","1","aglok","[""aglom"",""aglok""]","aglom","esp trial","10","false"
"html-button-response","20","286069","0.0-11.0-1.4","null","<p>A másik játékos ezt választotta: <b>aglom</b>.</p><p>&#10060;</p><p>A válaszaitok <b>nem</b> egyeznek meg.</p>","null","","","","feedback trial","",""
"html-button-response-esp","21","291492","0.0-11.0-0.5","4213","Te bizony sokat spüszlesz. Én is sokat...","0","spüszlök","[""spüszlök"",""spüszlöm""]","spüszlöm","esp trial","10","false"
"html-button-response","22","295014","0.0-11.0-1.5","null","<p>A másik játékos ezt választotta: <b>spüszlöm</b>.</p><p>&#10060;</p><p>A válaszaitok <b>nem</b> egyeznek meg.</p>","null","","","","feedback trial","",""
"html-button-response-esp","23","300445","0.0-11.0-0.6","3006","Te bizony sokat floglasz. Én is sokat...","0","floglok","[""floglok"",""floglom""]","floglom","esp trial","10","false"
"html-button-response","24","303969","0.0-11.0-1.6","null","<p>A másik játékos ezt választotta: <b>floglom</b>.</p><p>&#10060;</p><p>A válaszaitok <b>nem</b> egyeznek meg.</p>","null","","","","feedback trial","",""
"html-button-response-esp","25","309394","0.0-11.0-0.7","3369","Te bizony sokat sprédlesz. Én is sokat...","0","sprédlek","[""sprédlek"",""sprédlem""]","sprédlem","esp trial","10","false"
"html-button-response","26","312920","0.0-11.0-1.7","null","<p>A másik játékos ezt választotta: <b>sprédlem</b>.</p><p>&#10060;</p><p>A válaszaitok <b>nem</b> egyeznek meg.</p>","null","","","","feedback trial","",""
"html-button-response-esp","27","318344","0.0-11.0-0.8","3342","Te bizony sokat prezlesz. Én is sokat...","1","prezlek","[""prezlem"",""prezlek""]","prezlem","esp trial","10","false"
"html-button-response","28","321868","0.0-11.0-1.8","null","<p>A másik játékos ezt választotta: <b>prezlem</b>.</p><p>&#10060;</p><p>A válaszaitok <b>nem</b> egyeznek meg.</p>","null","","","","feedback trial","",""
"html-button-response-esp","29","327297","0.0-11.0-0.9","4038","Te bizony sokat gyibakszol. Én is sokat...","1","gyibakszok","[""gyibakszom"",""gyibakszok""]","gyibakszok","esp trial","10","true"
"html-button-response","30","330822","0.0-11.0-1.9","null","<p>A másik játékos ezt választotta: <b>gyibakszok</b>.</p><p>&#x2705;</p><p>A te válaszod és a másik játékos válasza <b>megegyeznek</b>.</p>","null","","","","feedback trial","",""
"html-button-response-esp","31","340058","0.0-11.0-0.10","8723","Te bizony sokat lihadzol. Én is sokat...","0","lihadzok","[""lihadzok"",""lihadzom""]","lihadzom","esp trial","10","false"
"html-button-response","32","343588","0.0-11.0-1.10","null","<p>A másik játékos ezt választotta: <b>lihadzom</b>.</p><p>&#10060;</p><p>A válaszaitok <b>nem</b> egyeznek meg.</p>","null","","","","feedback trial","",""
"html-button-response-esp","33","350170","0.0-11.0-0.11","6070","Te bizony sokat fliraklasz. Én is sokat...","0","fliraklok","[""fliraklok"",""fliraklom""]","fliraklom","esp trial","10","false"
"html-button-response","34","353690","0.0-11.0-1.11","null","<p>A másik játékos ezt választotta: <b>fliraklom</b>.</p><p>&#10060;</p><p>A válaszaitok <b>nem</b> egyeznek meg.</p>","null","","","","feedback trial","",""
"html-button-response-esp","35","359115","0.0-11.0-0.12","3164","Te bizony sokat fligzol. Én is sokat...","1","fligzom","[""fligzok"",""fligzom""]","fligzok","esp trial","10","false"
"html-button-response","36","362644","0.0-11.0-1.12","null","<p>A másik játékos ezt választotta: <b>fligzok</b>.</p><p>&#10060;</p><p>A válaszaitok <b>nem</b> egyeznek meg.</p>","null","","","","feedback trial","",""
"html-button-response-esp","37","368065","0.0-11.0-0.13","4793","Te bizony sokat vihepszel. Én is sokat...","1","vihepszek","[""vihepszem"",""vihepszek""]","vihepszek","esp trial","10","true"
"html-button-response","38","371594","0.0-11.0-1.13","null","<p>A másik játékos ezt választotta: <b>vihepszek</b>.</p><p>&#x2705;</p><p>A te válaszod és a másik játékos válasza <b>megegyeznek</b>.</p>","null","","","","feedback trial","",""
"html-button-response-esp","39","377023","0.0-11.0-0.14","2191","Te bizony sokat tuboklasz. Én is sokat...","1","tuboklom","[""tuboklok"",""tuboklom""]","tuboklom","esp trial","10","true"
"html-button-response","40","380555","0.0-11.0-1.14","null","<p>A másik játékos ezt választotta: <b>tuboklom</b>.</p><p>&#x2705;</p><p>A te válaszod és a másik játékos válasza <b>megegyeznek</b>.</p>","null","","","","feedback trial","",""
"html-button-response-esp","41","385984","0.0-11.0-0.15","3639","Te bizony sokat mékszel. Én is sokat...","1","mékszek","[""mékszem"",""mékszek""]","mékszem","esp trial","10","false"
"html-button-response","42","389503","0.0-11.0-1.15","null","<p>A másik játékos ezt választotta: <b>mékszem</b>.</p><p>&#10060;</p><p>A válaszaitok <b>nem</b> egyeznek meg.</p>","null","","","","feedback trial","",""
"html-button-response-esp","43","394935","0.0-11.0-0.16","3876","Te bizony sokat pugoslasz. Én is sokat...","1","pugoslok","[""pugoslom"",""pugoslok""]","pugoslom","esp trial","10","false"
"html-button-response","44","398459","0.0-11.0-1.16","null","<p>A másik játékos ezt választotta: <b>pugoslom</b>.</p><p>&#10060;</p><p>A válaszaitok <b>nem</b> egyeznek meg.</p>","null","","","","feedback trial","",""
"html-button-response-esp","45","403886","0.0-11.0-0.17","4485","Te bizony sokat prohódzol. Én is sokat...","1","prohódzok","[""prohódzom"",""prohódzok""]","prohódzok","esp trial","10","true"
"html-button-response","46","407409","0.0-11.0-1.17","null","<p>A másik játékos ezt választotta: <b>prohódzok</b>.</p><p>&#x2705;</p><p>A te válaszod és a másik játékos válasza <b>megegyeznek</b>.</p>","null","","","","feedback trial","",""
"html-button-response-esp","47","412831","0.0-11.0-0.18","2166","Te bizony sokat préleglesz. Én is sokat...","1","préleglek","[""préleglem"",""préleglek""]","préleglem","esp trial","10","false"
"html-button-response","48","416356","0.0-11.0-1.18","null","<p>A másik játékos ezt választotta: <b>préleglem</b>.</p><p>&#10060;</p><p>A válaszaitok <b>nem</b> egyeznek meg.</p>","null","","","","feedback trial","",""
"html-button-response-esp","49","421789","0.0-11.0-0.19","3584","Te bizony sokat flözlesz. Én is sokat...","0","flözlök","[""flözlök"",""flözlöm""]","flözlöm","esp trial","10","false"
"html-button-response","50","425308","0.0-11.0-1.19","null","<p>A másik játékos ezt választotta: <b>flözlöm</b>.</p><p>&#10060;</p><p>A válaszaitok <b>nem</b> egyeznek meg.</p>","null","","","","feedback trial","",""
"html-button-response-esp","51","430741","0.0-11.0-0.20","3966","Te bizony sokat zödlesz. Én is sokat...","0","zödlök","[""zödlök"",""zödlöm""]","zödlöm","esp trial","10","false"
"html-button-response","52","434263","0.0-11.0-1.20","null","<p>A másik játékos ezt választotta: <b>zödlöm</b>.</p><p>&#10060;</p><p>A válaszaitok <b>nem</b> egyeznek meg.</p>","null","","","","feedback trial","",""
"html-button-response-esp","53","439693","0.0-11.0-0.21","3282","Te bizony sokat livaklasz. Én is sokat...","1","livaklok","[""livaklom"",""livaklok""]","livaklok","esp trial","10","true"
"html-button-response","54","443222","0.0-11.0-1.21","null","<p>A másik játékos ezt választotta: <b>livaklok</b>.</p><p>&#x2705;</p><p>A te válaszod és a másik játékos válasza <b>megegyeznek</b>.</p>","null","","","","feedback trial","",""
"html-button-response-esp","55","449030","0.0-11.0-0.22","5295","Te bizony sokat sprálszol. Én is sokat...","0","sprálszok","[""sprálszok"",""sprálszom""]","sprálszok","esp trial","10","true"
"html-button-response","56","452559","0.0-11.0-1.22","null","<p>A másik játékos ezt választotta: <b>sprálszok</b>.</p><p>&#x2705;</p><p>A te válaszod és a másik játékos válasza <b>megegyeznek</b>.</p>","null","","","","feedback trial","",""
"html-button-response-esp","57","457986","0.0-11.0-0.23","3804","Te bizony sokat spülöklesz. Én is sokat...","1","spülöklök","[""spülöklöm"",""spülöklök""]","spülöklöm","esp trial","10","false"
"html-button-response","58","461511","0.0-11.0-1.23","null","<p>A másik játékos ezt választotta: <b>spülöklöm</b>.</p><p>&#10060;</p><p>A válaszaitok <b>nem</b> egyeznek meg.</p>","null","","","","feedback trial","",""
"html-button-response-esp","59","466937","0.0-11.0-0.24","4159","Te bizony sokat gilárzol. Én is sokat...","0","gilárzok","[""gilárzok"",""gilárzom""]","gilárzok","esp trial","10","true"
"html-button-response","60","470468","0.0-11.0-1.24","null","<p>A másik játékos ezt választotta: <b>gilárzok</b>.</p><p>&#x2705;</p><p>A te válaszod és a másik játékos válasza <b>megegyeznek</b>.</p>","null","","","","feedback trial","",""
"html-button-response-esp","61","475898","0.0-11.0-0.25","2821","Te bizony sokat friszlasz. Én is sokat...","1","friszlom","[""friszlok"",""friszlom""]","friszlom","esp trial","10","true"
"html-button-response","62","479428","0.0-11.0-1.25","null","<p>A másik játékos ezt választotta: <b>friszlom</b>.</p><p>&#x2705;</p><p>A te válaszod és a másik játékos válasza <b>megegyeznek</b>.</p>","null","","","","feedback trial","",""
"html-button-response-esp","63","487250","0.0-11.0-0.26","7308","Te bizony sokat frágapszol. Én is sokat...","0","frágapszom","[""frágapszom"",""frágapszok""]","frágapszok","esp trial","10","false"
"html-button-response","64","490777","0.0-11.0-1.26","null","<p>A másik játékos ezt választotta: <b>frágapszok</b>.</p><p>&#10060;</p><p>A válaszaitok <b>nem</b> egyeznek meg.</p>","null","","","","feedback trial","",""
"html-button-response-esp","65","496212","0.0-11.0-0.27","3774","Te bizony sokat flibekszel. Én is sokat...","1","flibekszek","[""flibekszem"",""flibekszek""]","flibekszek","esp trial","10","true"
"html-button-response","66","499748","0.0-11.0-1.27","null","<p>A másik játékos ezt választotta: <b>flibekszek</b>.</p><p>&#x2705;</p><p>A te válaszod és a másik játékos válasza <b>megegyeznek</b>.</p>","null","","","","feedback trial","",""
"html-button-response-esp","67","505173","0.0-11.0-0.28","3827","Te bizony sokat gerénylesz. Én is sokat...","0","gerénylek","[""gerénylek"",""gerénylem""]","gerénylem","esp trial","10","false"
"html-button-response","68","508703","0.0-11.0-1.28","null","<p>A másik játékos ezt választotta: <b>gerénylem</b>.</p><p>&#10060;</p><p>A válaszaitok <b>nem</b> egyeznek meg.</p>","null","","","","feedback trial","",""
"html-button-response-esp","69","514124","0.0-11.0-0.29","3750","Te bizony sokat spírzol. Én is sokat...","1","spírzom","[""spírzok"",""spírzom""]","spírzom","esp trial","10","true"
"html-button-response","70","517652","0.0-11.0-1.29","null","<p>A másik játékos ezt választotta: <b>spírzom</b>.</p><p>&#x2705;</p><p>A te válaszod és a másik játékos válasza <b>megegyeznek</b>.</p>","null","","","","feedback trial","",""
"html-button-response-esp","71","523080","0.0-11.0-0.30","3587","Te bizony sokat sztruglasz. Én is sokat...","0","sztruglok","[""sztruglok"",""sztruglom""]","sztruglom","esp trial","10","false"
"html-button-response","72","526605","0.0-11.0-1.30","null","<p>A másik játékos ezt választotta: <b>sztruglom</b>.</p><p>&#10060;</p><p>A válaszaitok <b>nem</b> egyeznek meg.</p>","null","","","","feedback trial","",""
"html-button-response-esp","73","532030","0.0-11.0-0.31","3233","Te bizony sokat flérlesz. Én is sokat...","0","flérlek","[""flérlek"",""flérlem""]","flérlem","esp trial","10","false"
"html-button-response","74","535556","0.0-11.0-1.31","null","<p>A másik játékos ezt választotta: <b>flérlem</b>.</p><p>&#10060;</p><p>A válaszaitok <b>nem</b> egyeznek meg.</p>","null","","","","feedback trial","",""
"html-button-response-esp","75","540982","0.0-11.0-0.32","2684","Te bizony sokat táklasz. Én is sokat...","1","táklok","[""táklom"",""táklok""]","táklok","esp trial","10","true"
"html-button-response","76","544516","0.0-11.0-1.32","null","<p>A másik játékos ezt választotta: <b>táklok</b>.</p><p>&#x2705;</p><p>A te válaszod és a másik játékos válasza <b>megegyeznek</b>.</p>","null","","","","feedback trial","",""
"html-button-response-esp","77","549946","0.0-11.0-0.33","4291","Te bizony sokat féjzel. Én is sokat...","1","féjzek","[""féjzem"",""féjzek""]","féjzem","esp trial","10","false"
"html-button-response","78","553467","0.0-11.0-1.33","null","<p>A másik játékos ezt választotta: <b>féjzem</b>.</p><p>&#10060;</p><p>A válaszaitok <b>nem</b> egyeznek meg.</p>","null","","","","feedback trial","",""
"html-button-response-esp","79","558898","0.0-11.0-0.34","3662","Te bizony sokat csólorzol. Én is sokat...","1","csólorzok","[""csólorzom"",""csólorzok""]","csólorzok","esp trial","10","true"
"html-button-response","80","562425","0.0-11.0-1.34","null","<p>A másik játékos ezt választotta: <b>csólorzok</b>.</p><p>&#x2705;</p><p>A te válaszod és a másik játékos válasza <b>megegyeznek</b>.</p>","null","","","","feedback trial","",""
"html-button-response-esp","81","567852","0.0-11.0-0.35","2003","Te bizony sokat vűjlesz. Én is sokat...","1","vűjlök","[""vűjlöm"",""vűjlök""]","vűjlöm","esp trial","10","false"
"html-button-response","82","571377","0.0-11.0-1.35","null","<p>A másik játékos ezt választotta: <b>vűjlöm</b>.</p><p>&#10060;</p><p>A válaszaitok <b>nem</b> egyeznek meg.</p>","null","","","","feedback trial","",""
"html-button-response-esp","83","576787","0.0-11.0-0.36","3529","Te bizony sokat ibáglasz. Én is sokat...","0","ibáglok","[""ibáglok"",""ibáglom""]","ibáglom","esp trial","10","false"
"html-button-response","84","580307","0.0-11.0-1.36","null","<p>A másik játékos ezt választotta: <b>ibáglom</b>.</p><p>&#10060;</p><p>A válaszaitok <b>nem</b> egyeznek meg.</p>","null","","","","feedback trial","",""
"html-button-response-esp","85","585727","0.0-11.0-0.37","4346","Te bizony sokat praslasz. Én is sokat...","1","praslok","[""praslom"",""praslok""]","praslom","esp trial","10","false"
"html-button-response","86","589260","0.0-11.0-1.37","null","<p>A másik játékos ezt választotta: <b>praslom</b>.</p><p>&#10060;</p><p>A válaszaitok <b>nem</b> egyeznek meg.</p>","null","","","","feedback trial","",""
"html-button-response-esp","87","594676","0.0-11.0-0.38","4025","Te bizony sokat péleslesz. Én is sokat...","0","péleslek","[""péleslek"",""péleslem""]","péleslem","esp trial","10","false"
"html-button-response","88","598199","0.0-11.0-1.38","null","<p>A másik játékos ezt választotta: <b>péleslem</b>.</p><p>&#10060;</p><p>A válaszaitok <b>nem</b> egyeznek meg.</p>","null","","","","feedback trial","",""
"html-button-response-esp","89","603629","0.0-11.0-0.39","4749","Te bizony sokat trihagzol. Én is sokat...","1","trihagzok","[""trihagzom"",""trihagzok""]","trihagzok","esp trial","10","true"
"html-button-response","90","607158","0.0-11.0-1.39","null","<p>A másik játékos ezt választotta: <b>trihagzok</b>.</p><p>&#x2705;</p><p>A te válaszod és a másik játékos válasza <b>megegyeznek</b>.</p>","null","","","","feedback trial","",""
"html-button-response-esp","91","612582","0.0-11.0-0.40","3963","Te bizony sokat spülőrzöl. Én is sokat...","1","spülőrzök","[""spülőrzöm"",""spülőrzök""]","spülőrzöm","esp trial","10","false"
"html-button-response","92","616111","0.0-11.0-1.40","null","<p>A másik játékos ezt választotta: <b>spülőrzöm</b>.</p><p>&#10060;</p><p>A válaszaitok <b>nem</b> egyeznek meg.</p>","null","","","","feedback trial","",""
"html-button-response-esp","93","621533","0.0-11.0-0.41","3762","Te bizony sokat brarlasz. Én is sokat...","1","brarlok","[""brarlom"",""brarlok""]","brarlom","esp trial","10","false"
"html-button-response","94","625059","0.0-11.0-1.41","null","<p>A másik játékos ezt választotta: <b>brarlom</b>.</p><p>&#10060;</p><p>A válaszaitok <b>nem</b> egyeznek meg.</p>","null","","","","feedback trial","",""
"html-button-response-esp","95","630480","0.0-11.0-0.42","3046","Te bizony sokat spibádzol. Én is sokat...","0","spibádzok","[""spibádzok"",""spibádzom""]","spibádzom","esp trial","10","false"
"html-button-response","96","634000","0.0-11.0-1.42","null","<p>A másik játékos ezt választotta: <b>spibádzom</b>.</p><p>&#10060;</p><p>A válaszaitok <b>nem</b> egyeznek meg.</p>","null","","","","feedback trial","",""
"html-button-response-esp","97","639434","0.0-11.0-0.43","2156","Te bizony sokat spatszol. Én is sokat...","0","spatszok","[""spatszok"",""spatszom""]","spatszok","esp trial","10","true"
"html-button-response","98","642956","0.0-11.0-1.43","null","<p>A másik játékos ezt választotta: <b>spatszok</b>.</p><p>&#x2705;</p><p>A te válaszod és a másik játékos válasza <b>megegyeznek</b>.</p>","null","","","","feedback trial","",""
"html-button-response-esp","99","648376","0.0-11.0-0.44","4619","Te bizony sokat klidlasz. Én is sokat...","1","klidlok","[""klidlom"",""klidlok""]","klidlom","esp trial","10","false"
"html-button-response","100","651906","0.0-11.0-1.44","null","<p>A másik játékos ezt választotta: <b>klidlom</b>.</p><p>&#10060;</p><p>A válaszaitok <b>nem</b> egyeznek meg.</p>","null","","","","feedback trial","",""
"html-button-response-esp","101","657643","0.0-11.0-0.45","5218","Te bizony sokat gyivádzol. Én is sokat...","0","gyivádzok","[""gyivádzok"",""gyivádzom""]","gyivádzok","esp trial","10","true"
"html-button-response","102","661177","0.0-11.0-1.45","null","<p>A másik játékos ezt választotta: <b>gyivádzok</b>.</p><p>&#x2705;</p><p>A te válaszod és a másik játékos válasza <b>megegyeznek</b>.</p>","null","","","","feedback trial","",""
"html-button-response-esp","103","666608","0.0-11.0-0.46","4130","Te bizony sokat klárzol. Én is sokat...","1","klárzok","[""klárzom"",""klárzok""]","klárzom","esp trial","10","false"
"html-button-response","104","670136","0.0-11.0-1.46","null","<p>A másik játékos ezt választotta: <b>klárzom</b>.</p><p>&#10060;</p><p>A válaszaitok <b>nem</b> egyeznek meg.</p>","null","","","","feedback trial","",""
"html-button-response-esp","105","675974","0.0-11.0-0.47","5326","Te bizony sokat plövőrzöl. Én is sokat...","0","plövőrzök","[""plövőrzök"",""plövőrzöm""]","plövőrzöm","esp trial","10","false"
"html-button-response","106","679509","0.0-11.0-1.47","null","<p>A másik játékos ezt választotta: <b>plövőrzöm</b>.</p><p>&#10060;</p><p>A válaszaitok <b>nem</b> egyeznek meg.</p>","null","","","","feedback trial","",""
"html-button-response-esp","107","684930","0.0-11.0-0.48","3092","Te bizony sokat bivejlesz. Én is sokat...","1","bivejlek","[""bivejlem"",""bivejlek""]","bivejlem","esp trial","10","false"
"html-button-response","108","688458","0.0-11.0-1.48","null","<p>A másik játékos ezt választotta: <b>bivejlem</b>.</p><p>&#10060;</p><p>A válaszaitok <b>nem</b> egyeznek meg.</p>","null","","","","feedback trial","",""
"html-button-response-esp","109","694318","0.0-11.0-0.49","5347","Te bizony sokat szűslesz. Én is sokat...","0","szűslök","[""szűslök"",""szűslöm""]","szűslöm","esp trial","10","false"
"html-button-response","110","697844","0.0-11.0-1.49","null","<p>A másik játékos ezt választotta: <b>szűslöm</b>.</p><p>&#10060;</p><p>A válaszaitok <b>nem</b> egyeznek meg.</p>","null","","","","feedback trial","",""
"html-button-response-esp","111","703264","0.0-11.0-0.50","3059","Te bizony sokat plágadzol. Én is sokat...","0","plágadzok","[""plágadzok"",""plágadzom""]","plágadzok","esp trial","10","true"
"html-button-response","112","706796","0.0-11.0-1.50","null","<p>A másik játékos ezt választotta: <b>plágadzok</b>.</p><p>&#x2705;</p><p>A te válaszod és a másik játékos válasza <b>megegyeznek</b>.</p>","null","","","","feedback trial","",""
"html-button-response-esp","113","712226","0.0-11.0-0.51","2962","Te bizony sokat kumlasz. Én is sokat...","1","kumlok","[""kumlom"",""kumlok""]","kumlom","esp trial","10","false"
"html-button-response","114","715756","0.0-11.0-1.51","null","<p>A másik játékos ezt választotta: <b>kumlom</b>.</p><p>&#10060;</p><p>A válaszaitok <b>nem</b> egyeznek meg.</p>","null","","","","feedback trial","",""
"html-button-response-esp","115","721899","0.0-11.0-0.52","5632","Te bizony sokat prihekszel. Én is sokat...","0","prihekszem","[""prihekszem"",""prihekszek""]","prihekszem","esp trial","10","true"
"html-button-response","116","725424","0.0-11.0-1.52","null","<p>A másik játékos ezt választotta: <b>prihekszem</b>.</p><p>&#x2705;</p><p>A te válaszod és a másik játékos válasza <b>megegyeznek</b>.</p>","null","","","","feedback trial","",""
"html-button-response-esp","117","730846","0.0-11.0-0.53","2565","Te bizony sokat fivénylesz. Én is sokat...","1","fivénylem","[""fivénylek"",""fivénylem""]","fivénylem","esp trial","10","true"
"html-button-response","118","734367","0.0-11.0-1.53","null","<p>A másik játékos ezt választotta: <b>fivénylem</b>.</p><p>&#x2705;</p><p>A te válaszod és a másik játékos válasza <b>megegyeznek</b>.</p>","null","","","","feedback trial","",""
"html-button-response","119","746055","0.0-12.0","11174","<p>A közös játék most véget ért.</p><p>Mielőtt eláruljuk a végső pontszámodat, arra kérlek, játszd a szóválasztós játékot néhány percig egyedül is.</p><p>A feladatod ugyanaz lesz, választani két lehetőség közül.</p><p>Most viszont egyedül kell döntened, hogy te melyiket választanád.</p>","0","","","","","",""
"html-button-response-clever","120","753219","0.0-13.0-0.0","6650","Te bizony sokat prűrlesz. Én is sokat...","0","prűrlök","[""prűrlök"",""prűrlöm""]","","posttest trial","1",""
"html-button-response-clever","121","756662","0.0-13.0-0.1","2922","Te bizony sokat sztremlesz. Én is sokat...","1","sztremlek","[""sztremlem"",""sztremlek""]","","posttest trial","1",""
"html-button-response-clever","122","760916","0.0-13.0-0.2","3738","Te bizony sokat sprogzol. Én is sokat...","1","sprogzok","[""sprogzom"",""sprogzok""]","","posttest trial","1",""
"html-button-response-clever","123","763032","0.0-13.0-0.3","1596","Te bizony sokat drubódzol. Én is sokat...","1","drubódzok","[""drubódzom"",""drubódzok""]","","posttest trial","1",""
"html-button-response-clever","124","766877","0.0-13.0-0.4","3333","Te bizony sokat szirlasz. Én is sokat...","1","szirlok","[""szirlom"",""szirlok""]","","posttest trial","1",""
"html-button-response-clever","125","769766","0.0-13.0-0.5","2375","Te bizony sokat ribegzel. Én is sokat...","0","ribegzek","[""ribegzek"",""ribegzem""]","","posttest trial","1",""
"html-button-response-clever","126","773189","0.0-13.0-0.6","2906","Te bizony sokat klörlesz. Én is sokat...","0","klörlök","[""klörlök"",""klörlöm""]","","posttest trial","1",""
"html-button-response-clever","127","776494","0.0-13.0-0.7","2798","Te bizony sokat narjárzol. Én is sokat...","0","narjárzok","[""narjárzok"",""narjárzom""]","","posttest trial","1",""
"html-button-response-clever","128","782148","0.0-13.0-0.8","5137","Te bizony sokat klibamlasz. Én is sokat...","0","klibamlok","[""klibamlok"",""klibamlom""]","","posttest trial","1",""
"html-button-response-clever","129","785103","0.0-13.0-0.9","2445","Te bizony sokat jüslesz. Én is sokat...","0","jüslök","[""jüslök"",""jüslöm""]","","posttest trial","1",""
"html-button-response-clever","130","788146","0.0-13.0-0.10","2529","Te bizony sokat spilágzol. Én is sokat...","1","spilágzok","[""spilágzom"",""spilágzok""]","","posttest trial","1",""
"html-button-response-clever","131","790749","0.0-13.0-0.11","2092","Te bizony sokat spűmlesz. Én is sokat...","1","spűmlöm","[""spűmlök"",""spűmlöm""]","","posttest trial","1",""
"html-button-response-clever","132","793623","0.0-13.0-0.12","2360","Te bizony sokat fibamlasz. Én is sokat...","0","fibamlok","[""fibamlok"",""fibamlom""]","","posttest trial","1",""
"html-button-response-clever","133","797215","0.0-13.0-0.13","3079","Te bizony sokat brágaklasz. Én is sokat...","0","brágaklok","[""brágaklok"",""brágaklom""]","","posttest trial","1",""
"html-button-response-clever","134","800736","0.0-13.0-0.14","3011","Te bizony sokat flüröslesz. Én is sokat...","0","flüröslök","[""flüröslök"",""flüröslöm""]","","posttest trial","1",""
"html-button-response-clever","135","803282","0.0-13.0-0.15","2034","Te bizony sokat herégszel. Én is sokat...","0","herégszek","[""herégszek"",""herégszem""]","","posttest trial","1",""
"html-button-response-clever","136","806039","0.0-13.0-0.16","2246","Te bizony sokat marzol. Én is sokat...","1","marzok","[""marzom"",""marzok""]","","posttest trial","1",""
"html-button-response-clever","137","809314","0.0-13.0-0.17","2760","Te bizony sokat pivegszel. Én is sokat...","1","pivegszek","[""pivegszem"",""pivegszek""]","","posttest trial","1",""
"html-button-response-clever","138","812219","0.0-13.0-0.18","2391","Te bizony sokat juszlasz. Én is sokat...","0","juszlok","[""juszlok"",""juszlom""]","","posttest trial","1",""
"html-button-response-clever","139","814635","0.0-13.0-0.19","1901","Te bizony sokat piragszol. Én is sokat...","0","piragszok","[""piragszok"",""piragszom""]","","posttest trial","1",""
"html-button-response-clever","140","818767","0.0-13.0-0.20","3618","Te bizony sokat hilarzol. Én is sokat...","1","hilarzok","[""hilarzom"",""hilarzok""]","","posttest trial","1",""
"html-button-response-clever","141","821515","0.0-13.0-0.21","2236","Te bizony sokat tiregzel. Én is sokat...","0","tiregzek","[""tiregzek"",""tiregzem""]","","posttest trial","1",""
"html-button-response-clever","142","825381","0.0-13.0-0.22","3353","Te bizony sokat frilegszel. Én is sokat...","0","frilegszek","[""frilegszek"",""frilegszem""]","","posttest trial","1",""
"html-button-response-clever","143","829478","0.0-13.0-0.23","3583","Te bizony sokat büglesz. Én is sokat...","1","büglök","[""büglöm"",""büglök""]","","posttest trial","1",""
"html-button-response-clever","144","831963","0.0-13.0-0.24","1973","Te bizony sokat ruslasz. Én is sokat...","0","ruslok","[""ruslok"",""ruslom""]","","posttest trial","1",""
"html-button-response-clever","145","836167","0.0-13.0-0.25","3691","Te bizony sokat málapszol. Én is sokat...","1","málapszom","[""málapszok"",""málapszom""]","","posttest trial","1",""
"html-button-response-clever","146","838830","0.0-13.0-0.26","2154","Te bizony sokat tomlasz. Én is sokat...","0","tomlok","[""tomlok"",""tomlom""]","","posttest trial","1",""
"html-button-response-clever","147","841865","0.0-13.0-0.27","2522","Te bizony sokat spatárzol. Én is sokat...","0","spatárzok","[""spatárzok"",""spatárzom""]","","posttest trial","1",""
"html-button-response-clever","148","844970","0.0-13.0-0.28","2595","Te bizony sokat böjzöl. Én is sokat...","0","böjzök","[""böjzök"",""böjzöm""]","","posttest trial","1",""
"html-button-response-clever","149","847937","0.0-13.0-0.29","2452","Te bizony sokat trilszol. Én is sokat...","0","trilszok","[""trilszok"",""trilszom""]","","posttest trial","1",""
"html-button-response-clever","150","851434","0.0-13.0-0.30","2981","Te bizony sokat bölszöl. Én is sokat...","1","bölszök","[""bölszöm"",""bölszök""]","","posttest trial","1",""
"html-button-response-clever","151","855354","0.0-13.0-0.31","3407","Te bizony sokat spéslesz. Én is sokat...","1","spéslek","[""spéslem"",""spéslek""]","","posttest trial","1",""
"html-button-response-clever","152","858958","0.0-13.0-0.32","3092","Te bizony sokat prilegzel. Én is sokat...","0","prilegzek","[""prilegzek"",""prilegzem""]","","posttest trial","1",""
"html-button-response-clever","153","861550","0.0-13.0-0.33","2080","Te bizony sokat nyáslasz. Én is sokat...","0","nyáslok","[""nyáslok"",""nyáslom""]","","posttest trial","1",""
"html-button-response-clever","154","865789","0.0-13.0-0.34","3725","Te bizony sokat femlesz. Én is sokat...","1","femlek","[""femlem"",""femlek""]","","posttest trial","1",""
"html-button-response-clever","155","868707","0.0-13.0-0.35","2405","Te bizony sokat pratánylasz. Én is sokat...","1","pratánylok","[""pratánylom"",""pratánylok""]","","posttest trial","1",""
"html-button-response-clever","156","871445","0.0-13.0-0.36","2223","Te bizony sokat flűröklesz. Én is sokat...","0","flűröklök","[""flűröklök"",""flűröklöm""]","","posttest trial","1",""
"html-button-response-clever","157","874268","0.0-13.0-0.37","2314","Te bizony sokat driládzol. Én is sokat...","1","driládzok","[""driládzom"",""driládzok""]","","posttest trial","1",""
"html-button-response-clever","158","877856","0.0-13.0-0.38","3077","Te bizony sokat spibaklasz. Én is sokat...","1","spibaklok","[""spibaklom"",""spibaklok""]","","posttest trial","1",""
"html-button-response-clever","159","880873","0.0-13.0-0.39","2503","Te bizony sokat pebzel. Én is sokat...","1","pebzek","[""pebzem"",""pebzek""]","","posttest trial","1",""
"html-button-response-clever","160","885287","0.0-13.0-0.40","3902","Te bizony sokat fretszel. Én is sokat...","1","fretszek","[""fretszem"",""fretszek""]","","posttest trial","1",""
"html-button-response-clever","161","888743","0.0-13.0-0.41","2947","Te bizony sokat flagánylasz. Én is sokat...","1","flagánylok","[""flagánylom"",""flagánylok""]","","posttest trial","1",""
"html-button-response-clever","162","891262","0.0-13.0-0.42","2008","Te bizony sokat tínylasz. Én is sokat...","0","tínylok","[""tínylok"",""tínylom""]","","posttest trial","1",""
"html-button-response-clever","163","894851","0.0-13.0-0.43","3073","Te bizony sokat feténylesz. Én is sokat...","1","feténylek","[""feténylem"",""feténylek""]","","posttest trial","1",""
"html-button-response-clever","164","897965","0.0-13.0-0.44","2590","Te bizony sokat sprökszöl. Én is sokat...","0","sprökszök","[""sprökszök"",""sprökszöm""]","","posttest trial","1",""
"html-button-response-clever","165","900490","0.0-13.0-0.45","2011","Te bizony sokat sojzol. Én is sokat...","0","sojzok","[""sojzok"",""sojzom""]","","posttest trial","1",""
"html-button-response-clever","166","903842","0.0-13.0-0.46","2840","Te bizony sokat lorjódzol. Én is sokat...","1","lorjódzok","[""lorjódzom"",""lorjódzok""]","","posttest trial","1",""
"html-button-response-clever","167","906418","0.0-13.0-0.47","2067","Te bizony sokat siladzol. Én is sokat...","1","siladzok","[""siladzom"",""siladzok""]","","posttest trial","1",""
"html-button-response-clever","168","909165","0.0-13.0-0.48","2237","Te bizony sokat csíszlasz. Én is sokat...","1","csíszlok","[""csíszlom"",""csíszlok""]","","posttest trial","1",""
"html-button-response-clever","169","914194","0.0-13.0-0.49","4516","Te bizony sokat vilakszol. Én is sokat...","0","vilakszok","[""vilakszok"",""vilakszom""]","","posttest trial","1",""
"html-button-response-clever","170","917453","0.0-13.0-0.50","2748","Te bizony sokat flagárzol. Én is sokat...","1","flagárzok","[""flagárzom"",""flagárzok""]","","posttest trial","1",""
"html-button-response-clever","171","920873","0.0-13.0-0.51","2908","Te bizony sokat brüjlesz. Én is sokat...","0","brüjlök","[""brüjlök"",""brüjlöm""]","","posttest trial","1",""
"html-button-response-clever","172","923481","0.0-13.0-0.52","2095","Te bizony sokat ribzol. Én is sokat...","1","ribzok","[""ribzom"",""ribzok""]","","posttest trial","1",""
"html-button-response-clever","173","925858","0.0-13.0-0.53","1864","Te bizony sokat sűzlesz. Én is sokat...","1","sűzlök","[""sűzlöm"",""sűzlök""]","","posttest trial","1",""
"html-button-response","174","931183","0.0-14.0","4812","<p> Vége a játéknak. A teljes pontszámod 19/54.</p><p> Szép munka! &#128526;&#128526;&#128526;</p><p>A Befejezés gomb megnyomása után bezárhatod a böngészőablakot.</p>","0","","","","","",""
"html-keyboard-response","175","936712","0.0-15.0","null","<div class=""message"">
         <p>Egy kis türelmet kérünk, amíg elmentjük az adatokat...</p>
         </div>","null","","","","","",""
