"trial_type","trial_index","time_elapsed","internal_node_id","rt","stimulus","response","response_string","choices","esp_response","trial_kind","list_number","esp_match"
"pavlovia","0","840","0.0-0.0","","","","","","","","",""
"html-button-response","1","3322","0.0-1.0","1965","<p>Kedves Résztvevő! A Budapesti Műszaki és Gazdaságtudományi Egyetem Kognitív Tudományi Tanszékének kutatásában való részvételed kérjük. A kutatásban azt vizsgáljuk, hogy a magyar anyanyelvűek hogyan használnak bizonyos szóalakokat, és hogy milyen képük van arról, hogy mások hogyan használják, hogyan képzik a szavakat. Ez hozzásegít bennünket ahhoz, hogy jobban megértsük, hogyan dolgozza fel és tárolja a nyelvet az emberi agy, és hogyan működnek, hogyan változnak egy adott közösség nyelvi konvenciói.</p><p>A vizsgálat egy rövid számítógépes feladatból fog állni. A kutatásban való részvétel önkéntes, a részvételi szándék bármikor visszavonható. A résztvevők eredményeit név nélkül kezeljük, így nem beazonosíthatók az adatok feldolgozása során. Minden személyes adatot az EU általános adatvédelmi rendeletének (GDPR) megfelelően kezelünk és legfeljebb öt éven belül megsemmisítünk. A vizsgálat jellemzően húsz percet vesz igénybe.</p><p>Kutatásvezető:</p><p>Dr. Rácz Péter, tudományos munkatárs, BME KTT</p><p>e-mail: racz.peter.marton@ttk.bme.hu</p>","0","","","","","",""
"html-button-response","2","6381","0.0-2.0","2554","<p>A kísérletben szavakat fogsz látni. Ezek között lesznek olyanok, amelyeket ismersz, de előfordulhatnak olyanok is, amelyeket nem ismersz, sőt, vannak köztük kitalált szavak is. Minden szónál látni fogsz toldalékolt alakokat. A te feladatod az lesz, hogy minden szóhoz kiválaszd azt a toldalékolt alakot, amely a te számodra ismerősebben, természetesebben hangzik. Rossz válaszok nincsenek, mert van olyan, hogy különböző embereknek más és más szó tűnik jobb választásnak. A választ úgy tudod majd kiválasztani, ha rákattintasz.</p><p>Ebben a szóválasztós játékban egy másik játékossal együtt veszel majd részt. A másik játékos is minden esetben azok közül a lehetőségek közül válogathat, mint te. Kettőtök feladata az, hogy ugyanazt a lehetőséget válasszátok minden esetben. Ahhoz, hogy ez sikerüljön, neked figyelned kell arra, hogy a másik játékos milyen válaszokat ad, és ennek alapján meg kell tippelned, hogyan választ legközelebb. Ha eltalálod, akkor pontot kapsz.</p>","0","","","","","",""
"html-button-response","3","10985","0.0-3.0","4099","<p>Kérjük, olvasd el az alábbi nyilatkozatot, és amennyiben egyetértesz vele, nyomj a Beleegyezés gombra!</p><p>Kijelentem, hogy magyar anyanyelvű személyként önként veszek részt a BME KTT kísérletében. A kutatás céljával és folyamatával kapcsolatban elegendő tájékoztatást kaptam, lehetőségem volt kérdések feltételére, és esetleges kérdéseimre megfelelő válaszokat kaptam. A tájékoztatás alapján elegendő mennyiségű információ áll a rendelkezésemre, hogy eldönthessem, részt kívánok-e venni a kutatásban.</p><p>Tisztában vagyok vele, hogy részvételi szándékomat és adataimat bármikor, indoklás nélkül visszavonhatom.</p><p>Értem és tudomásul veszem, hogy a kutatás tudományos célokat szolgál, és az általam szolgáltatott adatokat a BME kizárólag kutatási célból használja fel. Tudomásul veszem, hogy eredményeimet a többi résztvevő eredményeivel együtt kezelik, így egyéni teljesítményemről visszajelzést, szakvéleményt nem kapok.</p><p>Megértettem, hogy adataim kezelését illetően a BME az EU általános adatvédelmi rendelete (GDPR), a hatályos adatvédelmi törvény és a nemzetközi kutatás-etikai alapelvek szerint jár el. Eredményeim anonim módon kerülnek feldolgozásra, és a kutatás résztvevői az azonosításomra alkalmas adataimat harmadik félnek nem szolgáltatják ki. Engedélyezem a BME számára a jelen kutatásban felvett adataim feldolgozását és tárolását, beleértve azok későbbi kutatásokhoz való felhasználását is. Személyes adataim kezelésével kapcsolatban tájékoztatást kérhetek a kutatás résztvevőitől, az adatkezelés ellen tiltakozhatok, kérhetem személyes adataim helyesbítését, törlését vagy zárolását, valamint jogorvoslatért a Nemzeti Adatvédelmi és Információszabadság Hatósághoz fordulhatok.</p><p>Kijelentem, hogy a kutatásban való részvételem körülményeiről részletes tájékoztatást kaptam, és a feltételeket elfogadom.</p>","0","","","","","",""
"survey-text","4","27676","0.0-4.0","16176","","{""Q0"":""T0JVW9"",""Q1"":""Férfi"",""Q2"":""1999"",""Q3"":""16""}","","","","","",""
"html-button-response","5","34140","0.0-5.0","5951","<p>Ebben a játékban szavakat kell toldalékolni.</p> <p>Minden körben mutatunk majd egy példamondatot, amiben lesz egy szó.</p> <p>Alatta jön egy második mondat, ezt a mondatot neked kell majd befejezni, ugyanezzel a szóval.</p> <p>Nem biztos, hogy a szó eleve ismerős lesz számodra!</p> <p>Minden mondathoz adunk két lehetőséget, ezeket balra és jobbra látod majd.</p> <p>A játék kb. negyedóráig-húsz percig tart.</p>","0","","","","","",""
"html-button-response","6","49135","0.0-6.0","14485","<p>Nézzünk egy példát!</p> <p>A példamondat: ""János nagyon szeret rancsúrozni.""</p><p>Neked ezt a mondatot kell befejezned: ""Én is szívesen...""</p><p>A lehetőségek pedig ezek:</p>","0","","","","","",""
"html-button-response","7","57083","0.0-7.0","7435","<p>Nagyon jó.</p><p>Ezt a játékot nem egyedül fogod játszani, hanem egy másik játékossal.</p><p>Mielőtt továbblépünk, összekapcsolunk titeket egymással.</p><p>Ez igénybe vehet néhány másodpercet, amihez szíves türelmed kérjük.</p>","0","","","","","",""
"html-button-response","8","62823","0.0-8.0","null","<p>Csatlakozás a másik játékoshoz...</p>","null","","","","","",""
"html-button-response","9","65331","0.0-9.0","null","<p> Sikeres kapcsolódás!</p>","null","","","","","",""
"html-button-response","10","75851","0.0-10.0","null","<p>A következőkben ketten játsszátok a szóválasztós játékot.</p><p>A feladatotok az lesz, hogy minden körben <b>ugyanazt</b> a szót válasszátok.</p><p>Minden ilyen egyező válaszért pontot kaptok.</p><p>Próbáld meg kitalálni, mit választ a másik játékos!</p><p>Bármikor választhatsz, a körnek akkor van vége, ha mindketten döntöttetek.</p><p>Sok sikert!</p>","null","","","","","",""
"html-button-response-esp","11","83041","0.0-11.0-0.0","6686","Te bizony sokat bűtszöl. Én is sokat...","1","bűtszöm","[""bűtszök"",""bűtszöm""]","bűtszök","esp trial","4","false"
"html-button-response","12","86547","0.0-11.0-1.0","null","<p>A másik játékos ezt választotta: <b>bűtszök</b>.</p><p>&#10060;</p><p>A válaszaitok <b>nem</b> egyeznek meg.</p>","null","","","","feedback trial","",""
"html-button-response-esp","13","93405","0.0-11.0-0.1","2857","Te bizony sokat narádzol. Én is sokat...","0","narádzom","[""narádzom"",""narádzok""]","narádzok","esp trial","4","false"
"html-button-response","14","96922","0.0-11.0-1.1","null","<p>A másik játékos ezt választotta: <b>narádzok</b>.</p><p>&#10060;</p><p>A válaszaitok <b>nem</b> egyeznek meg.</p>","null","","","","feedback trial","",""
"html-button-response-esp","15","103780","0.0-11.0-0.2","2164","Te bizony sokat pribagszol. Én is sokat...","1","pribagszom","[""pribagszok"",""pribagszom""]","pribagszok","esp trial","4","false"
"html-button-response","16","107296","0.0-11.0-1.2","null","<p>A másik játékos ezt választotta: <b>pribagszok</b>.</p><p>&#10060;</p><p>A válaszaitok <b>nem</b> egyeznek meg.</p>","null","","","","feedback trial","",""
"html-button-response-esp","17","114169","0.0-11.0-0.3","2475","Te bizony sokat sztrozlasz. Én is sokat...","1","sztrozlom","[""sztrozlok"",""sztrozlom""]","sztrozlok","esp trial","4","false"
"html-button-response","18","117688","0.0-11.0-1.3","null","<p>A másik játékos ezt választotta: <b>sztrozlok</b>.</p><p>&#10060;</p><p>A válaszaitok <b>nem</b> egyeznek meg.</p>","null","","","","feedback trial","",""
"html-button-response-esp","19","124551","0.0-11.0-0.4","1441","Te bizony sokat treglesz. Én is sokat...","1","treglem","[""treglek"",""treglem""]","treglem","esp trial","4","true"
"html-button-response","20","128065","0.0-11.0-1.4","null","<p>A másik játékos ezt választotta: <b>treglem</b>.</p><p>&#x2705;</p><p>A te válaszod és a másik játékos válasza <b>megegyeznek</b>.</p>","null","","","","feedback trial","",""
"html-button-response-esp","21","134929","0.0-11.0-0.5","1628","Te bizony sokat píjlasz. Én is sokat...","1","píjlom","[""píjlok"",""píjlom""]","píjlok","esp trial","4","false"
"html-button-response","22","138438","0.0-11.0-1.5","null","<p>A másik játékos ezt választotta: <b>píjlok</b>.</p><p>&#10060;</p><p>A válaszaitok <b>nem</b> egyeznek meg.</p>","null","","","","feedback trial","",""
"html-button-response-esp","23","145309","0.0-11.0-0.6","2832","Te bizony sokat pribemlesz. Én is sokat...","1","pribemlem","[""pribemlek"",""pribemlem""]","pribemlem","esp trial","4","true"
"html-button-response","24","148825","0.0-11.0-1.6","null","<p>A másik játékos ezt választotta: <b>pribemlem</b>.</p><p>&#x2705;</p><p>A te válaszod és a másik játékos válasza <b>megegyeznek</b>.</p>","null","","","","feedback trial","",""
"html-button-response-esp","25","155697","0.0-11.0-0.7","1975","Te bizony sokat spihemlesz. Én is sokat...","1","spihemlem","[""spihemlek"",""spihemlem""]","spihemlem","esp trial","4","true"
"html-button-response","26","159215","0.0-11.0-1.7","null","<p>A másik játékos ezt választotta: <b>spihemlem</b>.</p><p>&#x2705;</p><p>A te válaszod és a másik játékos válasza <b>megegyeznek</b>.</p>","null","","","","feedback trial","",""
"html-button-response-esp","27","166084","0.0-11.0-0.8","1610","Te bizony sokat brobódzol. Én is sokat...","0","brobódzom","[""brobódzom"",""brobódzok""]","brobódzok","esp trial","4","false"
"html-button-response","28","169608","0.0-11.0-1.8","null","<p>A másik játékos ezt választotta: <b>brobódzok</b>.</p><p>&#10060;</p><p>A válaszaitok <b>nem</b> egyeznek meg.</p>","null","","","","feedback trial","",""
"html-button-response-esp","29","176476","0.0-11.0-0.9","4059","Te bizony sokat spülűdzöl. Én is sokat...","1","spülűdzöm","[""spülűdzök"",""spülűdzöm""]","spülűdzök","esp trial","4","false"
"html-button-response","30","179995","0.0-11.0-1.9","null","<p>A másik játékos ezt választotta: <b>spülűdzök</b>.</p><p>&#10060;</p><p>A válaszaitok <b>nem</b> egyeznek meg.</p>","null","","","","feedback trial","",""
"html-button-response-esp","31","186865","0.0-11.0-0.10","2252","Te bizony sokat rokszol. Én is sokat...","0","rokszom","[""rokszom"",""rokszok""]","rokszok","esp trial","4","false"
"html-button-response","32","190388","0.0-11.0-1.10","null","<p>A másik játékos ezt választotta: <b>rokszok</b>.</p><p>&#10060;</p><p>A válaszaitok <b>nem</b> egyeznek meg.</p>","null","","","","feedback trial","",""
"html-button-response-esp","33","197251","0.0-11.0-0.11","2943","Te bizony sokat brubzol. Én is sokat...","0","brubzom","[""brubzom"",""brubzok""]","brubzok","esp trial","4","false"
"html-button-response","34","200763","0.0-11.0-1.11","null","<p>A másik játékos ezt választotta: <b>brubzok</b>.</p><p>&#10060;</p><p>A válaszaitok <b>nem</b> egyeznek meg.</p>","null","","","","feedback trial","",""
"html-button-response-esp","35","226667","0.0-11.0-0.12","25395","Te bizony sokat gyibeslesz. Én is sokat...","0","gyibeslem","[""gyibeslem"",""gyibeslek""]","gyibeslek","esp trial","4","false"
"html-button-response","36","230190","0.0-11.0-1.12","null","<p>A másik játékos ezt választotta: <b>gyibeslek</b>.</p><p>&#10060;</p><p>A válaszaitok <b>nem</b> egyeznek meg.</p>","null","","","","feedback trial","",""
"html-button-response-esp","37","237062","0.0-11.0-0.13","1535","Te bizony sokat tragzol. Én is sokat...","1","tragzom","[""tragzok"",""tragzom""]","tragzok","esp trial","4","false"
"html-button-response","38","240587","0.0-11.0-1.13","null","<p>A másik játékos ezt választotta: <b>tragzok</b>.</p><p>&#10060;</p><p>A válaszaitok <b>nem</b> egyeznek meg.</p>","null","","","","feedback trial","",""
"html-button-response-esp","39","247456","0.0-11.0-0.14","1457","Te bizony sokat rájzol. Én is sokat...","1","rájzom","[""rájzok"",""rájzom""]","rájzok","esp trial","4","false"
"html-button-response","40","250971","0.0-11.0-1.14","null","<p>A másik játékos ezt választotta: <b>rájzok</b>.</p><p>&#10060;</p><p>A válaszaitok <b>nem</b> egyeznek meg.</p>","null","","","","feedback trial","",""
"html-button-response-esp","41","257828","0.0-11.0-0.15","3467","Te bizony sokat trehégszel. Én is sokat...","1","trehégszem","[""trehégszek"",""trehégszem""]","trehégszek","esp trial","4","false"
"html-button-response","42","261418","0.0-11.0-1.15","null","<p>A másik játékos ezt választotta: <b>trehégszek</b>.</p><p>&#10060;</p><p>A válaszaitok <b>nem</b> egyeznek meg.</p>","null","","","","feedback trial","",""
"html-button-response-esp","43","268760","0.0-11.0-0.16","4869","Te bizony sokat figlasz. Én is sokat...","1","figlom","[""figlok"",""figlom""]","figlok","esp trial","4","false"
"html-button-response","44","272264","0.0-11.0-1.16","null","<p>A másik játékos ezt választotta: <b>figlok</b>.</p><p>&#10060;</p><p>A válaszaitok <b>nem</b> egyeznek meg.</p>","null","","","","feedback trial","",""
"html-button-response-esp","45","279126","0.0-11.0-0.17","2459","Te bizony sokat prínylasz. Én is sokat...","1","prínylom","[""prínylok"",""prínylom""]","prínylok","esp trial","4","false"
"html-button-response","46","282644","0.0-11.0-1.17","null","<p>A másik játékos ezt választotta: <b>prínylok</b>.</p><p>&#10060;</p><p>A válaszaitok <b>nem</b> egyeznek meg.</p>","null","","","","feedback trial","",""
"html-button-response-esp","47","289504","0.0-11.0-0.18","2128","Te bizony sokat ibékszel. Én is sokat...","0","ibékszem","[""ibékszem"",""ibékszek""]","ibékszek","esp trial","4","false"
"html-button-response","48","293018","0.0-11.0-1.18","null","<p>A másik játékos ezt választotta: <b>ibékszek</b>.</p><p>&#10060;</p><p>A válaszaitok <b>nem</b> egyeznek meg.</p>","null","","","","feedback trial","",""
"html-button-response-esp","49","299881","0.0-11.0-0.19","1726","Te bizony sokat szibánylasz. Én is sokat...","0","szibánylom","[""szibánylom"",""szibánylok""]","szibánylom","esp trial","4","true"
"html-button-response","50","303404","0.0-11.0-1.19","null","<p>A másik játékos ezt választotta: <b>szibánylom</b>.</p><p>&#x2705;</p><p>A te válaszod és a másik játékos válasza <b>megegyeznek</b>.</p>","null","","","","feedback trial","",""
"html-button-response-esp","51","316052","0.0-11.0-0.20","12141","Te bizony sokat plűbzöl. Én is sokat...","1","plűbzöm","[""plűbzök"",""plűbzöm""]","plűbzök","esp trial","4","false"
"html-button-response","52","319580","0.0-11.0-1.20","null","<p>A másik játékos ezt választotta: <b>plűbzök</b>.</p><p>&#10060;</p><p>A válaszaitok <b>nem</b> egyeznek meg.</p>","null","","","","feedback trial","",""
"html-button-response-esp","53","326442","0.0-11.0-0.21","1145","Te bizony sokat flátszol. Én is sokat...","1","flátszom","[""flátszok"",""flátszom""]","flátszok","esp trial","4","false"
"html-button-response","54","329961","0.0-11.0-1.21","null","<p>A másik játékos ezt választotta: <b>flátszok</b>.</p><p>&#10060;</p><p>A válaszaitok <b>nem</b> egyeznek meg.</p>","null","","","","feedback trial","",""
"html-button-response-esp","55","336818","0.0-11.0-0.22","1597","Te bizony sokat spröbzöl. Én is sokat...","1","spröbzöm","[""spröbzök"",""spröbzöm""]","spröbzök","esp trial","4","false"
"html-button-response","56","340339","0.0-11.0-1.22","null","<p>A másik játékos ezt választotta: <b>spröbzök</b>.</p><p>&#10060;</p><p>A válaszaitok <b>nem</b> egyeznek meg.</p>","null","","","","feedback trial","",""
"html-button-response-esp","57","347193","0.0-11.0-0.23","1820","Te bizony sokat flehékszel. Én is sokat...","1","flehékszem","[""flehékszek"",""flehékszem""]","flehékszek","esp trial","4","false"
"html-button-response","58","350695","0.0-11.0-1.23","null","<p>A másik játékos ezt választotta: <b>flehékszek</b>.</p><p>&#10060;</p><p>A válaszaitok <b>nem</b> egyeznek meg.</p>","null","","","","feedback trial","",""
"html-button-response-esp","59","357554","0.0-11.0-0.24","1587","Te bizony sokat spüjzöl. Én is sokat...","1","spüjzöm","[""spüjzök"",""spüjzöm""]","spüjzöm","esp trial","4","true"
"html-button-response","60","361067","0.0-11.0-1.24","null","<p>A másik játékos ezt választotta: <b>spüjzöm</b>.</p><p>&#x2705;</p><p>A te válaszod és a másik játékos válasza <b>megegyeznek</b>.</p>","null","","","","feedback trial","",""
"html-button-response-esp","61","367938","0.0-11.0-0.25","2436","Te bizony sokat lörűdzöl. Én is sokat...","1","lörűdzöm","[""lörűdzök"",""lörűdzöm""]","lörűdzök","esp trial","4","false"
"html-button-response","62","371455","0.0-11.0-1.25","null","<p>A másik játékos ezt választotta: <b>lörűdzök</b>.</p><p>&#10060;</p><p>A válaszaitok <b>nem</b> egyeznek meg.</p>","null","","","","feedback trial","",""
"html-button-response-esp","63","378329","0.0-11.0-0.26","2381","Te bizony sokat klaráglasz. Én is sokat...","0","klaráglom","[""klaráglom"",""klaráglok""]","klaráglom","esp trial","4","true"
"html-button-response","64","381842","0.0-11.0-1.26","null","<p>A másik játékos ezt választotta: <b>klaráglom</b>.</p><p>&#x2705;</p><p>A te válaszod és a másik játékos válasza <b>megegyeznek</b>.</p>","null","","","","feedback trial","",""
"html-button-response-esp","65","389406","0.0-11.0-0.27","1842","Te bizony sokat plugzol. Én is sokat...","0","plugzom","[""plugzom"",""plugzok""]","plugzok","esp trial","4","false"
"html-button-response","66","394418","0.0-11.0-1.27","null","<p>A másik játékos ezt választotta: <b>plugzok</b>.</p><p>&#10060;</p><p>A válaszaitok <b>nem</b> egyeznek meg.</p>","null","","","","feedback trial","",""
"html-button-response-esp","67","401283","0.0-11.0-0.28","1118","Te bizony sokat brivegzel. Én is sokat...","0","brivegzem","[""brivegzem"",""brivegzek""]","brivegzek","esp trial","4","false"
"html-button-response","68","404791","0.0-11.0-1.28","null","<p>A másik játékos ezt választotta: <b>brivegzek</b>.</p><p>&#10060;</p><p>A válaszaitok <b>nem</b> egyeznek meg.</p>","null","","","","feedback trial","",""
"html-button-response-esp","69","411650","0.0-11.0-0.29","1624","Te bizony sokat spubonylasz. Én is sokat...","0","spubonylom","[""spubonylom"",""spubonylok""]","spubonylom","esp trial","4","true"
"html-button-response","70","415171","0.0-11.0-1.29","null","<p>A másik játékos ezt választotta: <b>spubonylom</b>.</p><p>&#x2705;</p><p>A te válaszod és a másik játékos válasza <b>megegyeznek</b>.</p>","null","","","","feedback trial","",""
"html-button-response-esp","71","422048","0.0-11.0-0.30","1915","Te bizony sokat bivégszel. Én is sokat...","0","bivégszem","[""bivégszem"",""bivégszek""]","bivégszek","esp trial","4","false"
"html-button-response","72","425559","0.0-11.0-1.30","null","<p>A másik játékos ezt választotta: <b>bivégszek</b>.</p><p>&#10060;</p><p>A válaszaitok <b>nem</b> egyeznek meg.</p>","null","","","","feedback trial","",""
"html-button-response-esp","73","432430","0.0-11.0-0.31","2014","Te bizony sokat spáraklasz. Én is sokat...","1","spáraklom","[""spáraklok"",""spáraklom""]","spáraklok","esp trial","4","false"
"html-button-response","74","435945","0.0-11.0-1.31","null","<p>A másik játékos ezt választotta: <b>spáraklok</b>.</p><p>&#10060;</p><p>A válaszaitok <b>nem</b> egyeznek meg.</p>","null","","","","feedback trial","",""
"html-button-response-esp","75","442814","0.0-11.0-0.32","3086","Te bizony sokat klivaslasz. Én is sokat...","1","klivaslom","[""klivaslok"",""klivaslom""]","klivaslom","esp trial","4","true"
"html-button-response","76","446339","0.0-11.0-1.32","null","<p>A másik játékos ezt választotta: <b>klivaslom</b>.</p><p>&#x2705;</p><p>A te válaszod és a másik játékos válasza <b>megegyeznek</b>.</p>","null","","","","feedback trial","",""
"html-button-response-esp","77","453216","0.0-11.0-0.33","1918","Te bizony sokat frodlasz. Én is sokat...","0","frodlom","[""frodlom"",""frodlok""]","frodlok","esp trial","4","false"
"html-button-response","78","456727","0.0-11.0-1.33","null","<p>A másik játékos ezt választotta: <b>frodlok</b>.</p><p>&#10060;</p><p>A válaszaitok <b>nem</b> egyeznek meg.</p>","null","","","","feedback trial","",""
"html-button-response-esp","79","463603","0.0-11.0-0.34","1724","Te bizony sokat sztrűkszöl. Én is sokat...","0","sztrűkszöm","[""sztrűkszöm"",""sztrűkszök""]","sztrűkszök","esp trial","4","false"
"html-button-response","80","467117","0.0-11.0-1.34","null","<p>A másik játékos ezt választotta: <b>sztrűkszök</b>.</p><p>&#10060;</p><p>A válaszaitok <b>nem</b> egyeznek meg.</p>","null","","","","feedback trial","",""
"html-button-response-esp","81","473976","0.0-11.0-0.35","1405","Te bizony sokat spihegzel. Én is sokat...","1","spihegzem","[""spihegzek"",""spihegzem""]","spihegzek","esp trial","4","false"
"html-button-response","82","477493","0.0-11.0-1.35","null","<p>A másik játékos ezt választotta: <b>spihegzek</b>.</p><p>&#10060;</p><p>A válaszaitok <b>nem</b> egyeznek meg.</p>","null","","","","feedback trial","",""
"html-button-response-esp","83","484363","0.0-11.0-0.36","1951","Te bizony sokat sztrijzol. Én is sokat...","0","sztrijzom","[""sztrijzom"",""sztrijzok""]","sztrijzok","esp trial","4","false"
"html-button-response","84","487880","0.0-11.0-1.36","null","<p>A másik játékos ezt választotta: <b>sztrijzok</b>.</p><p>&#10060;</p><p>A válaszaitok <b>nem</b> egyeznek meg.</p>","null","","","","feedback trial","",""
"html-button-response-esp","85","494733","0.0-11.0-0.37","1953","Te bizony sokat vanylasz. Én is sokat...","1","vanylom","[""vanylok"",""vanylom""]","vanylom","esp trial","4","true"
"html-button-response","86","498255","0.0-11.0-1.37","null","<p>A másik játékos ezt választotta: <b>vanylom</b>.</p><p>&#x2705;</p><p>A te válaszod és a másik játékos válasza <b>megegyeznek</b>.</p>","null","","","","feedback trial","",""
"html-button-response-esp","87","505120","0.0-11.0-0.38","1347","Te bizony sokat hűgzöl. Én is sokat...","0","hűgzöm","[""hűgzöm"",""hűgzök""]","hűgzök","esp trial","4","false"
"html-button-response","88","508639","0.0-11.0-1.38","null","<p>A másik játékos ezt választotta: <b>hűgzök</b>.</p><p>&#10060;</p><p>A válaszaitok <b>nem</b> egyeznek meg.</p>","null","","","","feedback trial","",""
"html-button-response-esp","89","515504","0.0-11.0-0.39","1315","Te bizony sokat düjzöl. Én is sokat...","0","düjzöm","[""düjzöm"",""düjzök""]","düjzök","esp trial","4","false"
"html-button-response","90","519022","0.0-11.0-1.39","null","<p>A másik játékos ezt választotta: <b>düjzök</b>.</p><p>&#10060;</p><p>A válaszaitok <b>nem</b> egyeznek meg.</p>","null","","","","feedback trial","",""
"html-button-response-esp","91","525887","0.0-11.0-0.40","2532","Te bizony sokat huroslasz. Én is sokat...","0","huroslom","[""huroslom"",""huroslok""]","huroslom","esp trial","4","true"
"html-button-response","92","529396","0.0-11.0-1.40","null","<p>A másik játékos ezt választotta: <b>huroslom</b>.</p><p>&#x2705;</p><p>A te válaszod és a másik játékos válasza <b>megegyeznek</b>.</p>","null","","","","feedback trial","",""
"html-button-response-esp","93","536269","0.0-11.0-0.41","1614","Te bizony sokat nűröklesz. Én is sokat...","0","nűröklöm","[""nűröklöm"",""nűröklök""]","nűröklök","esp trial","4","false"
"html-button-response","94","539776","0.0-11.0-1.41","null","<p>A másik játékos ezt választotta: <b>nűröklök</b>.</p><p>&#10060;</p><p>A válaszaitok <b>nem</b> egyeznek meg.</p>","null","","","","feedback trial","",""
"html-button-response-esp","95","546653","0.0-11.0-0.42","2135","Te bizony sokat filágzol. Én is sokat...","0","filágzom","[""filágzom"",""filágzok""]","filágzok","esp trial","4","false"
"html-button-response","96","550184","0.0-11.0-1.42","null","<p>A másik játékos ezt választotta: <b>filágzok</b>.</p><p>&#10060;</p><p>A válaszaitok <b>nem</b> egyeznek meg.</p>","null","","","","feedback trial","",""
"html-button-response-esp","97","557338","0.0-11.0-0.43","6651","Te bizony sokat flitlasz. Én is sokat...","1","flitlom","[""flitlok"",""flitlom""]","flitlom","esp trial","4","true"
"html-button-response","98","560849","0.0-11.0-1.43","null","<p>A másik játékos ezt választotta: <b>flitlom</b>.</p><p>&#x2705;</p><p>A te válaszod és a másik játékos válasza <b>megegyeznek</b>.</p>","null","","","","feedback trial","",""
"html-button-response-esp","99","583526","0.0-11.0-0.44","22174","Te bizony sokat bihánylasz. Én is sokat...","0","bihánylom","[""bihánylom"",""bihánylok""]","bihánylom","esp trial","4","true"
"html-button-response","100","587041","0.0-11.0-1.44","null","<p>A másik játékos ezt választotta: <b>bihánylom</b>.</p><p>&#x2705;</p><p>A te válaszod és a másik játékos válasza <b>megegyeznek</b>.</p>","null","","","","feedback trial","",""
"html-button-response-esp","101","593913","0.0-11.0-0.45","4428","Te bizony sokat vülődzöl. Én is sokat...","1","vülődzöm","[""vülődzök"",""vülődzöm""]","vülődzök","esp trial","4","false"
"html-button-response","102","597435","0.0-11.0-1.45","null","<p>A másik játékos ezt választotta: <b>vülődzök</b>.</p><p>&#10060;</p><p>A válaszaitok <b>nem</b> egyeznek meg.</p>","null","","","","feedback trial","",""
"html-button-response-esp","103","604294","0.0-11.0-0.46","5855","Te bizony sokat pítszol. Én is sokat...","1","pítszom","[""pítszok"",""pítszom""]","pítszok","esp trial","4","false"
"html-button-response","104","607810","0.0-11.0-1.46","null","<p>A másik játékos ezt választotta: <b>pítszok</b>.</p><p>&#10060;</p><p>A válaszaitok <b>nem</b> egyeznek meg.</p>","null","","","","feedback trial","",""
"html-button-response-esp","105","614688","0.0-11.0-0.47","1919","Te bizony sokat trádlasz. Én is sokat...","0","trádlom","[""trádlom"",""trádlok""]","trádlok","esp trial","4","false"
"html-button-response","106","618193","0.0-11.0-1.47","null","<p>A másik játékos ezt választotta: <b>trádlok</b>.</p><p>&#10060;</p><p>A válaszaitok <b>nem</b> egyeznek meg.</p>","null","","","","feedback trial","",""
"html-button-response-esp","107","625056","0.0-11.0-0.48","4574","Te bizony sokat hurjorzol. Én is sokat...","1","hurjorzom","[""hurjorzok"",""hurjorzom""]","hurjorzok","esp trial","4","false"
"html-button-response","108","628561","0.0-11.0-1.48","null","<p>A másik játékos ezt választotta: <b>hurjorzok</b>.</p><p>&#10060;</p><p>A válaszaitok <b>nem</b> egyeznek meg.</p>","null","","","","feedback trial","",""
"html-button-response-esp","109","642467","0.0-11.0-0.49","13404","Te bizony sokat klétszel. Én is sokat...","1","klétszem","[""klétszek"",""klétszem""]","klétszek","esp trial","4","false"
"html-button-response","110","645969","0.0-11.0-1.49","null","<p>A másik játékos ezt választotta: <b>klétszek</b>.</p><p>&#10060;</p><p>A válaszaitok <b>nem</b> egyeznek meg.</p>","null","","","","feedback trial","",""
"html-button-response-esp","111","652824","0.0-11.0-0.50","3880","Te bizony sokat salárzol. Én is sokat...","0","salárzom","[""salárzom"",""salárzok""]","salárzok","esp trial","4","false"
"html-button-response","112","656326","0.0-11.0-1.50","null","<p>A másik játékos ezt választotta: <b>salárzok</b>.</p><p>&#10060;</p><p>A válaszaitok <b>nem</b> egyeznek meg.</p>","null","","","","feedback trial","",""
"html-button-response-esp","113","663182","0.0-11.0-0.51","3265","Te bizony sokat flűmlesz. Én is sokat...","1","flűmlöm","[""flűmlök"",""flűmlöm""]","flűmlöm","esp trial","4","true"
"html-button-response","114","666702","0.0-11.0-1.51","null","<p>A másik játékos ezt választotta: <b>flűmlöm</b>.</p><p>&#x2705;</p><p>A te válaszod és a másik játékos válasza <b>megegyeznek</b>.</p>","null","","","","feedback trial","",""
"html-button-response-esp","115","673560","0.0-11.0-0.52","1983","Te bizony sokat jonylasz. Én is sokat...","1","jonylom","[""jonylok"",""jonylom""]","jonylom","esp trial","4","true"
"html-button-response","116","677070","0.0-11.0-1.52","null","<p>A másik játékos ezt választotta: <b>jonylom</b>.</p><p>&#x2705;</p><p>A te válaszod és a másik játékos válasza <b>megegyeznek</b>.</p>","null","","","","feedback trial","",""
"html-button-response-esp","117","683931","0.0-11.0-0.53","1153","Te bizony sokat flehénylesz. Én is sokat...","0","flehénylem","[""flehénylem"",""flehénylek""]","flehénylem","esp trial","4","true"
"html-button-response","118","687452","0.0-11.0-1.53","null","<p>A másik játékos ezt választotta: <b>flehénylem</b>.</p><p>&#x2705;</p><p>A te válaszod és a másik játékos válasza <b>megegyeznek</b>.</p>","null","","","","feedback trial","",""
"html-button-response","119","696461","0.0-12.0","8497","<p>A közös játék most véget ért.</p><p>Mielőtt eláruljuk a végső pontszámodat, arra kérlek, játszd a szóválasztós játékot néhány percig egyedül is.</p><p>A feladatod ugyanaz lesz, választani két lehetőség közül.</p><p>Most viszont egyedül kell döntened, hogy te melyiket választanád.</p>","0","","","","","",""
"html-button-response-clever","120","698383","0.0-13.0-0.0","1414","Te bizony sokat spülöklesz. Én is sokat...","1","spülöklöm","[""spülöklök"",""spülöklöm""]","","posttest trial","8",""
"html-button-response-clever","121","699977","0.0-13.0-0.1","1079","Te bizony sokat plágadzol. Én is sokat...","0","plágadzom","[""plágadzom"",""plágadzok""]","","posttest trial","8",""
"html-button-response-clever","122","702178","0.0-13.0-0.2","1696","Te bizony sokat kumlasz. Én is sokat...","1","kumlom","[""kumlok"",""kumlom""]","","posttest trial","8",""
"html-button-response-clever","123","703773","0.0-13.0-0.3","1093","Te bizony sokat vűjlesz. Én is sokat...","1","vűjlöm","[""vűjlök"",""vűjlöm""]","","posttest trial","8",""
"html-button-response-clever","124","705545","0.0-13.0-0.4","1268","Te bizony sokat aglasz. Én is sokat...","1","aglom","[""aglok"",""aglom""]","","posttest trial","8",""
"html-button-response-clever","125","708186","0.0-13.0-0.5","2138","Te bizony sokat flözlesz. Én is sokat...","0","flözlöm","[""flözlöm"",""flözlök""]","","posttest trial","8",""
"html-button-response-clever","126","710276","0.0-13.0-0.6","1582","Te bizony sokat sprédlesz. Én is sokat...","1","sprédlem","[""sprédlek"",""sprédlem""]","","posttest trial","8",""
"html-button-response-clever","127","712158","0.0-13.0-0.7","1380","Te bizony sokat flérlesz. Én is sokat...","0","flérlek","[""flérlek"",""flérlem""]","","posttest trial","8",""
"html-button-response-clever","128","714238","0.0-13.0-0.8","1578","Te bizony sokat flibekszel. Én is sokat...","1","flibekszem","[""flibekszek"",""flibekszem""]","","posttest trial","8",""
"html-button-response-clever","129","718356","0.0-13.0-0.9","3603","Te bizony sokat táklasz. Én is sokat...","0","táklom","[""táklom"",""táklok""]","","posttest trial","8",""
"html-button-response-clever","130","720807","0.0-13.0-0.10","1940","Te bizony sokat spüszlesz. Én is sokat...","0","spüszlöm","[""spüszlöm"",""spüszlök""]","","posttest trial","8",""
"html-button-response-clever","131","722439","0.0-13.0-0.11","1122","Te bizony sokat spélszel. Én is sokat...","1","spélszem","[""spélszek"",""spélszem""]","","posttest trial","8",""
"html-button-response-clever","132","724350","0.0-13.0-0.12","1394","Te bizony sokat livaklasz. Én is sokat...","0","livaklom","[""livaklom"",""livaklok""]","","posttest trial","8",""
"html-button-response-clever","133","726196","0.0-13.0-0.13","1333","Te bizony sokat gyibakszol. Én is sokat...","1","gyibakszom","[""gyibakszok"",""gyibakszom""]","","posttest trial","8",""
"html-button-response-clever","134","728453","0.0-13.0-0.14","1753","Te bizony sokat szűslesz. Én is sokat...","1","szűslöm","[""szűslök"",""szűslöm""]","","posttest trial","8",""
"html-button-response-clever","135","730240","0.0-13.0-0.15","1276","Te bizony sokat praslasz. Én is sokat...","1","praslom","[""praslok"",""praslom""]","","posttest trial","8",""
"html-button-response-clever","136","732007","0.0-13.0-0.16","1251","Te bizony sokat plövőrzöl. Én is sokat...","0","plövőrzöm","[""plövőrzöm"",""plövőrzök""]","","posttest trial","8",""
"html-button-response-clever","137","733699","0.0-13.0-0.17","1190","Te bizony sokat gilárzol. Én is sokat...","0","gilárzom","[""gilárzom"",""gilárzok""]","","posttest trial","8",""
"html-button-response-clever","138","735456","0.0-13.0-0.18","1254","Te bizony sokat ibáglasz. Én is sokat...","1","ibáglom","[""ibáglok"",""ibáglom""]","","posttest trial","8",""
"html-button-response-clever","139","737969","0.0-13.0-0.19","2011","Te bizony sokat brarlasz. Én is sokat...","1","brarlom","[""brarlok"",""brarlom""]","","posttest trial","8",""
"html-button-response-clever","140","740471","0.0-13.0-0.20","2000","Te bizony sokat frivajlasz. Én is sokat...","0","frivajlom","[""frivajlom"",""frivajlok""]","","posttest trial","8",""
"html-button-response-clever","141","742151","0.0-13.0-0.21","1172","Te bizony sokat gerénylesz. Én is sokat...","1","gerénylem","[""gerénylek"",""gerénylem""]","","posttest trial","8",""
"html-button-response-clever","142","743666","0.0-13.0-0.22","1005","Te bizony sokat vihepszel. Én is sokat...","0","vihepszem","[""vihepszem"",""vihepszek""]","","posttest trial","8",""
"html-button-response-clever","143","745609","0.0-13.0-0.23","1430","Te bizony sokat lihadzol. Én is sokat...","0","lihadzom","[""lihadzom"",""lihadzok""]","","posttest trial","8",""
"html-button-response-clever","144","747412","0.0-13.0-0.24","1295","Te bizony sokat féjzel. Én is sokat...","1","féjzem","[""féjzek"",""féjzem""]","","posttest trial","8",""
"html-button-response-clever","145","749282","0.0-13.0-0.25","1365","Te bizony sokat mékszel. Én is sokat...","0","mékszem","[""mékszem"",""mékszek""]","","posttest trial","8",""
"html-button-response-clever","146","751000","0.0-13.0-0.26","1212","Te bizony sokat tuboklasz. Én is sokat...","1","tuboklom","[""tuboklok"",""tuboklom""]","","posttest trial","8",""
"html-button-response-clever","147","752588","0.0-13.0-0.27","1075","Te bizony sokat klárzol. Én is sokat...","1","klárzom","[""klárzok"",""klárzom""]","","posttest trial","8",""
"html-button-response-clever","148","754277","0.0-13.0-0.28","1174","Te bizony sokat drügzöl. Én is sokat...","0","drügzöm","[""drügzöm"",""drügzök""]","","posttest trial","8",""
"html-button-response-clever","149","756020","0.0-13.0-0.29","1237","Te bizony sokat sztruglasz. Én is sokat...","1","sztruglom","[""sztruglok"",""sztruglom""]","","posttest trial","8",""
"html-button-response-clever","150","757978","0.0-13.0-0.30","1452","Te bizony sokat klidlasz. Én is sokat...","1","klidlom","[""klidlok"",""klidlom""]","","posttest trial","8",""
"html-button-response-clever","151","759666","0.0-13.0-0.31","1175","Te bizony sokat spatszol. Én is sokat...","1","spatszom","[""spatszok"",""spatszom""]","","posttest trial","8",""
"html-button-response-clever","152","761953","0.0-13.0-0.32","1776","Te bizony sokat bivejlesz. Én is sokat...","0","bivejlem","[""bivejlem"",""bivejlek""]","","posttest trial","8",""
"html-button-response-clever","153","763447","0.0-13.0-0.33","983","Te bizony sokat frágapszol. Én is sokat...","1","frágapszom","[""frágapszok"",""frágapszom""]","","posttest trial","8",""
"html-button-response-clever","154","765034","0.0-13.0-0.34","1074","Te bizony sokat spülőrzöl. Én is sokat...","1","spülőrzöm","[""spülőrzök"",""spülőrzöm""]","","posttest trial","8",""
"html-button-response-clever","155","766499","0.0-13.0-0.35","949","Te bizony sokat zödlesz. Én is sokat...","1","zödlöm","[""zödlök"",""zödlöm""]","","posttest trial","8",""
"html-button-response-clever","156","768031","0.0-13.0-0.36","1023","Te bizony sokat trihagzol. Én is sokat...","1","trihagzom","[""trihagzok"",""trihagzom""]","","posttest trial","8",""
"html-button-response-clever","157","769682","0.0-13.0-0.37","1140","Te bizony sokat fligzol. Én is sokat...","0","fligzom","[""fligzom"",""fligzok""]","","posttest trial","8",""
"html-button-response-clever","158","771408","0.0-13.0-0.38","1211","Te bizony sokat huklasz. Én is sokat...","0","huklom","[""huklom"",""huklok""]","","posttest trial","8",""
"html-button-response-clever","159","773020","0.0-13.0-0.39","1098","Te bizony sokat friszlasz. Én is sokat...","1","friszlom","[""friszlok"",""friszlom""]","","posttest trial","8",""
"html-button-response-clever","160","774630","0.0-13.0-0.40","1098","Te bizony sokat spibádzol. Én is sokat...","1","spibádzom","[""spibádzok"",""spibádzom""]","","posttest trial","8",""
"html-button-response-clever","161","775999","0.0-13.0-0.41","856","Te bizony sokat sprálszol. Én is sokat...","1","sprálszom","[""sprálszok"",""sprálszom""]","","posttest trial","8",""
"html-button-response-clever","162","777221","0.0-13.0-0.42","705","Te bizony sokat préleglesz. Én is sokat...","1","préleglem","[""préleglek"",""préleglem""]","","posttest trial","8",""
"html-button-response-clever","163","778981","0.0-13.0-0.43","1249","Te bizony sokat fivénylesz. Én is sokat...","0","fivénylem","[""fivénylem"",""fivénylek""]","","posttest trial","8",""
"html-button-response-clever","164","780582","0.0-13.0-0.44","1084","Te bizony sokat csólorzol. Én is sokat...","1","csólorzom","[""csólorzok"",""csólorzom""]","","posttest trial","8",""
"html-button-response-clever","165","782191","0.0-13.0-0.45","1097","Te bizony sokat péleslesz. Én is sokat...","1","péleslem","[""péleslek"",""péleslem""]","","posttest trial","8",""
"html-button-response-clever","166","783485","0.0-13.0-0.46","780","Te bizony sokat floglasz. Én is sokat...","1","floglom","[""floglok"",""floglom""]","","posttest trial","8",""
"html-button-response-clever","167","785129","0.0-13.0-0.47","1129","Te bizony sokat prezlesz. Én is sokat...","0","prezlem","[""prezlem"",""prezlek""]","","posttest trial","8",""
"html-button-response-clever","168","786631","0.0-13.0-0.48","993","Te bizony sokat pugoslasz. Én is sokat...","1","pugoslom","[""pugoslok"",""pugoslom""]","","posttest trial","8",""
"html-button-response-clever","169","788175","0.0-13.0-0.49","1028","Te bizony sokat prihekszel. Én is sokat...","0","prihekszem","[""prihekszem"",""prihekszek""]","","posttest trial","8",""
"html-button-response-clever","170","789669","0.0-13.0-0.50","987","Te bizony sokat spírzol. Én is sokat...","1","spírzom","[""spírzok"",""spírzom""]","","posttest trial","8",""
"html-button-response-clever","171","791027","0.0-13.0-0.51","847","Te bizony sokat gyivádzol. Én is sokat...","1","gyivádzom","[""gyivádzok"",""gyivádzom""]","","posttest trial","8",""
"html-button-response-clever","172","792606","0.0-13.0-0.52","1069","Te bizony sokat fliraklasz. Én is sokat...","0","fliraklom","[""fliraklom"",""fliraklok""]","","posttest trial","8",""
"html-button-response-clever","173","794309","0.0-13.0-0.53","1197","Te bizony sokat prohódzol. Én is sokat...","0","prohódzom","[""prohódzom"",""prohódzok""]","","posttest trial","8",""
"html-button-response","174","800136","0.0-14.0","5316","<p> Vége a játéknak. A teljes pontszámod 15/54.</p><p> Szép munka! &#128526;&#128526;&#128526;</p><p>A Befejezés gomb megnyomása után bezárhatod a böngészőablakot.</p>","0","","","","","",""
"html-keyboard-response","175","805652","0.0-15.0","null","<div class=""message"">
         <p>Egy kis türelmet kérünk, amíg elmentjük az adatokat...</p>
         </div>","null","","","","","",""
