"trial_type","trial_index","time_elapsed","internal_node_id","rt","stimulus","response","response_string","choices","esp_response","trial_kind","list_number","esp_match"
"pavlovia","0","835","0.0-0.0","","","","","","","","",""
"html-button-response","1","2834","0.0-1.0","1482","<p>Kedves Résztvevő! A Budapesti Műszaki és Gazdaságtudományi Egyetem Kognitív Tudományi Tanszékének kutatásában való részvételed kérjük. A kutatásban azt vizsgáljuk, hogy a magyar anyanyelvűek hogyan használnak bizonyos szóalakokat, és hogy milyen képük van arról, hogy mások hogyan használják, hogyan képzik a szavakat. Ez hozzásegít bennünket ahhoz, hogy jobban megértsük, hogyan dolgozza fel és tárolja a nyelvet az emberi agy, és hogyan működnek, hogyan változnak egy adott közösség nyelvi konvenciói.</p><p>A vizsgálat egy rövid számítógépes feladatból fog állni. A kutatásban való részvétel önkéntes, a részvételi szándék bármikor visszavonható. A résztvevők eredményeit név nélkül kezeljük, így nem beazonosíthatók az adatok feldolgozása során. Minden személyes adatot az EU általános adatvédelmi rendeletének (GDPR) megfelelően kezelünk és legfeljebb öt éven belül megsemmisítünk. A vizsgálat jellemzően húsz percet vesz igénybe.</p><p>Kutatásvezető:</p><p>Dr. Rácz Péter, tudományos munkatárs, BME KTT</p><p>e-mail: racz.peter.marton@ttk.bme.hu</p>","0","","","","","",""
"html-button-response","2","4498","0.0-2.0","1141","<p>A kísérletben szavakat fogsz látni. Ezek között lesznek olyanok, amelyeket ismersz, de előfordulhatnak olyanok is, amelyeket nem ismersz, sőt, vannak köztük kitalált szavak is. Minden szónál látni fogsz toldalékolt alakokat. A te feladatod az lesz, hogy minden szóhoz kiválaszd azt a toldalékolt alakot, amely a te számodra ismerősebben, természetesebben hangzik. Rossz válaszok nincsenek, mert van olyan, hogy különböző embereknek más és más szó tűnik jobb választásnak. A választ úgy tudod majd kiválasztani, ha rákattintasz.</p><p>Ebben a szóválasztós játékban egy másik játékossal együtt veszel majd részt. A másik játékos is minden esetben azok közül a lehetőségek közül válogathat, mint te. Kettőtök feladata az, hogy ugyanazt a lehetőséget válasszátok minden esetben. Ahhoz, hogy ez sikerüljön, neked figyelned kell arra, hogy a másik játékos milyen válaszokat ad, és ennek alapján meg kell tippelned, hogyan választ legközelebb. Ha eltalálod, akkor pontot kapsz.</p>","0","","","","","",""
"html-button-response","3","7069","0.0-3.0","2057","<p>Kérjük, olvasd el az alábbi nyilatkozatot, és amennyiben egyetértesz vele, nyomj a Beleegyezés gombra!</p><p>Kijelentem, hogy magyar anyanyelvű személyként önként veszek részt a BME KTT kísérletében. A kutatás céljával és folyamatával kapcsolatban elegendő tájékoztatást kaptam, lehetőségem volt kérdések feltételére, és esetleges kérdéseimre megfelelő válaszokat kaptam. A tájékoztatás alapján elegendő mennyiségű információ áll a rendelkezésemre, hogy eldönthessem, részt kívánok-e venni a kutatásban.</p><p>Tisztában vagyok vele, hogy részvételi szándékomat és adataimat bármikor, indoklás nélkül visszavonhatom.</p><p>Értem és tudomásul veszem, hogy a kutatás tudományos célokat szolgál, és az általam szolgáltatott adatokat a BME kizárólag kutatási célból használja fel. Tudomásul veszem, hogy eredményeimet a többi résztvevő eredményeivel együtt kezelik, így egyéni teljesítményemről visszajelzést, szakvéleményt nem kapok.</p><p>Megértettem, hogy adataim kezelését illetően a BME az EU általános adatvédelmi rendelete (GDPR), a hatályos adatvédelmi törvény és a nemzetközi kutatás-etikai alapelvek szerint jár el. Eredményeim anonim módon kerülnek feldolgozásra, és a kutatás résztvevői az azonosításomra alkalmas adataimat harmadik félnek nem szolgáltatják ki. Engedélyezem a BME számára a jelen kutatásban felvett adataim feldolgozását és tárolását, beleértve azok későbbi kutatásokhoz való felhasználását is. Személyes adataim kezelésével kapcsolatban tájékoztatást kérhetek a kutatás résztvevőitől, az adatkezelés ellen tiltakozhatok, kérhetem személyes adataim helyesbítését, törlését vagy zárolását, valamint jogorvoslatért a Nemzeti Adatvédelmi és Információszabadság Hatósághoz fordulhatok.</p><p>Kijelentem, hogy a kutatásban való részvételem körülményeiről részletes tájékoztatást kaptam, és a feltételeket elfogadom.</p>","0","","","","","",""
"survey-text","4","30559","0.0-4.0","22939","","{""Q0"":""U01AEI "",""Q1"":""nő"",""Q2"":""2001"",""Q3"":""16""}","","","","","",""
"html-button-response","5","32955","0.0-5.0","1883","<p>Ebben a játékban szavakat kell toldalékolni.</p> <p>Minden körben mutatunk majd egy példamondatot, amiben lesz egy szó.</p> <p>Alatta jön egy második mondat, ezt a mondatot neked kell majd befejezni, ugyanezzel a szóval.</p> <p>Nem biztos, hogy a szó eleve ismerős lesz számodra!</p> <p>Minden mondathoz adunk két lehetőséget, ezeket balra és jobbra látod majd.</p> <p>A játék kb. negyedóráig-húsz percig tart.</p>","0","","","","","",""
"html-button-response","6","58882","0.0-6.0","25410","<p>Nézzünk egy példát!</p> <p>A példamondat: ""János nagyon szeret rancsúrozni.""</p><p>Neked ezt a mondatot kell befejezned: ""Én is szívesen...""</p><p>A lehetőségek pedig ezek:</p>","1","","","","","",""
"html-button-response","7","71405","0.0-7.0","12011","<p>Nagyon jó.</p><p>Ezt a játékot nem egyedül fogod játszani, hanem egy másik játékossal.</p><p>Mielőtt továbblépünk, összekapcsolunk titeket egymással.</p><p>Ez igénybe vehet néhány másodpercet, amihez szíves türelmed kérjük.</p>","0","","","","","",""
"html-button-response","8","77158","0.0-8.0","null","<p>Csatlakozás a másik játékoshoz...</p>","null","","","","","",""
"html-button-response","9","79677","0.0-9.0","null","<p> Sikeres kapcsolódás!</p>","null","","","","","",""
"html-button-response","10","90197","0.0-10.0","null","<p>A következőkben ketten játsszátok a szóválasztós játékot.</p><p>A feladatotok az lesz, hogy minden körben <b>ugyanazt</b> a szót válasszátok.</p><p>Minden ilyen egyező válaszért pontot kaptok.</p><p>Próbáld meg kitalálni, mit választ a másik játékos!</p><p>Bármikor választhatsz, a körnek akkor van vége, ha mindketten döntöttetek.</p><p>Sok sikert!</p>","null","","","","","",""
"html-button-response-esp","11","93963","0.0-11.0-0.0","2802","Te bizony sokat sprálszol. Én is sokat...","1","sprálszom","[""sprálszok"",""sprálszom""]","sprálszok","esp trial","8","false"
"html-button-response","12","97490","0.0-11.0-1.0","null","<p>A másik játékos ezt választotta: <b>sprálszok</b>.</p><p>&#10060;</p><p>A válaszaitok <b>nem</b> egyeznek meg.</p>","null","","","","feedback trial","",""
"html-button-response-esp","13","101257","0.0-11.0-0.1","2888","Te bizony sokat szűslesz. Én is sokat...","0","szűslöm","[""szűslöm"",""szűslök""]","szűslöm","esp trial","8","true"
"html-button-response","14","104787","0.0-11.0-1.1","null","<p>A másik játékos ezt választotta: <b>szűslöm</b>.</p><p>&#x2705;</p><p>A te válaszod és a másik játékos válasza <b>megegyeznek</b>.</p>","null","","","","feedback trial","",""
"html-button-response-esp","15","108584","0.0-11.0-0.2","3282","Te bizony sokat péleslesz. Én is sokat...","0","péleslek","[""péleslek"",""péleslem""]","péleslek","esp trial","8","true"
"html-button-response","16","112108","0.0-11.0-1.2","null","<p>A másik játékos ezt választotta: <b>péleslek</b>.</p><p>&#x2705;</p><p>A te válaszod és a másik játékos válasza <b>megegyeznek</b>.</p>","null","","","","feedback trial","",""
"html-button-response-esp","17","116145","0.0-11.0-0.3","3516","Te bizony sokat táklasz. Én is sokat...","0","táklom","[""táklom"",""táklok""]","táklok","esp trial","8","false"
"html-button-response","18","119665","0.0-11.0-1.3","null","<p>A másik játékos ezt választotta: <b>táklok</b>.</p><p>&#10060;</p><p>A válaszaitok <b>nem</b> egyeznek meg.</p>","null","","","","feedback trial","",""
"html-button-response-esp","19","123417","0.0-11.0-0.4","2779","Te bizony sokat gilárzol. Én is sokat...","1","gilárzom","[""gilárzok"",""gilárzom""]","gilárzok","esp trial","8","false"
"html-button-response","20","126939","0.0-11.0-1.4","null","<p>A másik játékos ezt választotta: <b>gilárzok</b>.</p><p>&#10060;</p><p>A válaszaitok <b>nem</b> egyeznek meg.</p>","null","","","","feedback trial","",""
"html-button-response-esp","21","130698","0.0-11.0-0.5","2864","Te bizony sokat préleglesz. Én is sokat...","0","préleglek","[""préleglek"",""préleglem""]","préleglek","esp trial","8","true"
"html-button-response","22","134222","0.0-11.0-1.5","null","<p>A másik játékos ezt választotta: <b>préleglek</b>.</p><p>&#x2705;</p><p>A te válaszod és a másik játékos válasza <b>megegyeznek</b>.</p>","null","","","","feedback trial","",""
"html-button-response-esp","23","138729","0.0-11.0-0.6","3990","Te bizony sokat mékszel. Én is sokat...","0","mékszek","[""mékszek"",""mékszem""]","mékszek","esp trial","8","true"
"html-button-response","24","142253","0.0-11.0-1.6","null","<p>A másik játékos ezt választotta: <b>mékszek</b>.</p><p>&#x2705;</p><p>A te válaszod és a másik játékos válasza <b>megegyeznek</b>.</p>","null","","","","feedback trial","",""
"html-button-response-esp","25","146009","0.0-11.0-0.7","3197","Te bizony sokat prohódzol. Én is sokat...","0","prohódzom","[""prohódzom"",""prohódzok""]","prohódzok","esp trial","8","false"
"html-button-response","26","149535","0.0-11.0-1.7","null","<p>A másik játékos ezt választotta: <b>prohódzok</b>.</p><p>&#10060;</p><p>A válaszaitok <b>nem</b> egyeznek meg.</p>","null","","","","feedback trial","",""
"html-button-response-esp","27","153294","0.0-11.0-0.8","2675","Te bizony sokat spüszlesz. Én is sokat...","1","spüszlök","[""spüszlöm"",""spüszlök""]","spüszlök","esp trial","8","true"
"html-button-response","28","156810","0.0-11.0-1.8","null","<p>A másik játékos ezt választotta: <b>spüszlök</b>.</p><p>&#x2705;</p><p>A te válaszod és a másik játékos válasza <b>megegyeznek</b>.</p>","null","","","","feedback trial","",""
"html-button-response-esp","29","160561","0.0-11.0-0.9","2659","Te bizony sokat spírzol. Én is sokat...","1","spírzok","[""spírzom"",""spírzok""]","spírzok","esp trial","8","true"
"html-button-response","30","164085","0.0-11.0-1.9","null","<p>A másik játékos ezt választotta: <b>spírzok</b>.</p><p>&#x2705;</p><p>A te válaszod és a másik játékos válasza <b>megegyeznek</b>.</p>","null","","","","feedback trial","",""
"html-button-response-esp","31","167841","0.0-11.0-0.10","2336","Te bizony sokat spatszol. Én is sokat...","0","spatszok","[""spatszok"",""spatszom""]","spatszok","esp trial","8","true"
"html-button-response","32","171372","0.0-11.0-1.10","null","<p>A másik játékos ezt választotta: <b>spatszok</b>.</p><p>&#x2705;</p><p>A te válaszod és a másik játékos válasza <b>megegyeznek</b>.</p>","null","","","","feedback trial","",""
"html-button-response-esp","33","175132","0.0-11.0-0.11","2699","Te bizony sokat gyibakszol. Én is sokat...","1","gyibakszok","[""gyibakszom"",""gyibakszok""]","gyibakszok","esp trial","8","true"
"html-button-response","34","178662","0.0-11.0-1.11","null","<p>A másik játékos ezt választotta: <b>gyibakszok</b>.</p><p>&#x2705;</p><p>A te válaszod és a másik játékos válasza <b>megegyeznek</b>.</p>","null","","","","feedback trial","",""
"html-button-response-esp","35","182417","0.0-11.0-0.12","2858","Te bizony sokat sprédlesz. Én is sokat...","1","sprédlek","[""sprédlem"",""sprédlek""]","sprédlem","esp trial","8","false"
"html-button-response","36","185940","0.0-11.0-1.12","null","<p>A másik játékos ezt választotta: <b>sprédlem</b>.</p><p>&#10060;</p><p>A válaszaitok <b>nem</b> egyeznek meg.</p>","null","","","","feedback trial","",""
"html-button-response-esp","37","189697","0.0-11.0-0.13","2316","Te bizony sokat plágadzol. Én is sokat...","0","plágadzom","[""plágadzom"",""plágadzok""]","plágadzok","esp trial","8","false"
"html-button-response","38","193228","0.0-11.0-1.13","null","<p>A másik játékos ezt választotta: <b>plágadzok</b>.</p><p>&#10060;</p><p>A válaszaitok <b>nem</b> egyeznek meg.</p>","null","","","","feedback trial","",""
"html-button-response-esp","39","196995","0.0-11.0-0.14","2218","Te bizony sokat sztruglasz. Én is sokat...","0","sztruglok","[""sztruglok"",""sztruglom""]","sztruglok","esp trial","8","true"
"html-button-response","40","200523","0.0-11.0-1.14","null","<p>A másik játékos ezt választotta: <b>sztruglok</b>.</p><p>&#x2705;</p><p>A te válaszod és a másik játékos válasza <b>megegyeznek</b>.</p>","null","","","","feedback trial","",""
"html-button-response-esp","41","204295","0.0-11.0-0.15","2292","Te bizony sokat flibekszel. Én is sokat...","1","flibekszek","[""flibekszem"",""flibekszek""]","flibekszek","esp trial","8","true"
"html-button-response","42","207818","0.0-11.0-1.15","null","<p>A másik játékos ezt választotta: <b>flibekszek</b>.</p><p>&#x2705;</p><p>A te válaszod és a másik játékos válasza <b>megegyeznek</b>.</p>","null","","","","feedback trial","",""
"html-button-response-esp","43","211578","0.0-11.0-0.16","2600","Te bizony sokat fivénylesz. Én is sokat...","0","fivénylek","[""fivénylek"",""fivénylem""]","fivénylek","esp trial","8","true"
"html-button-response","44","215109","0.0-11.0-1.16","null","<p>A másik játékos ezt választotta: <b>fivénylek</b>.</p><p>&#x2705;</p><p>A te válaszod és a másik játékos válasza <b>megegyeznek</b>.</p>","null","","","","feedback trial","",""
"html-button-response-esp","45","218873","0.0-11.0-0.17","2260","Te bizony sokat zödlesz. Én is sokat...","0","zödlök","[""zödlök"",""zödlöm""]","zödlöm","esp trial","8","false"
"html-button-response","46","222390","0.0-11.0-1.17","null","<p>A másik játékos ezt választotta: <b>zödlöm</b>.</p><p>&#10060;</p><p>A válaszaitok <b>nem</b> egyeznek meg.</p>","null","","","","feedback trial","",""
"html-button-response-esp","47","226145","0.0-11.0-0.18","2708","Te bizony sokat praslasz. Én is sokat...","0","praslok","[""praslok"",""praslom""]","praslom","esp trial","8","false"
"html-button-response","48","229658","0.0-11.0-1.18","null","<p>A másik játékos ezt választotta: <b>praslom</b>.</p><p>&#10060;</p><p>A válaszaitok <b>nem</b> egyeznek meg.</p>","null","","","","feedback trial","",""
"html-button-response-esp","49","233422","0.0-11.0-0.19","2129","Te bizony sokat fligzol. Én is sokat...","0","fligzok","[""fligzok"",""fligzom""]","fligzok","esp trial","8","true"
"html-button-response","50","236948","0.0-11.0-1.19","null","<p>A másik játékos ezt választotta: <b>fligzok</b>.</p><p>&#x2705;</p><p>A te válaszod és a másik játékos válasza <b>megegyeznek</b>.</p>","null","","","","feedback trial","",""
"html-button-response-esp","51","240709","0.0-11.0-0.20","1995","Te bizony sokat ibáglasz. Én is sokat...","0","ibáglok","[""ibáglok"",""ibáglom""]","ibáglok","esp trial","8","true"
"html-button-response","52","244235","0.0-11.0-1.20","null","<p>A másik játékos ezt választotta: <b>ibáglok</b>.</p><p>&#x2705;</p><p>A te válaszod és a másik játékos válasza <b>megegyeznek</b>.</p>","null","","","","feedback trial","",""
"html-button-response-esp","53","247993","0.0-11.0-0.21","1658","Te bizony sokat spélszel. Én is sokat...","1","spélszek","[""spélszem"",""spélszek""]","spélszek","esp trial","8","true"
"html-button-response","54","251506","0.0-11.0-1.21","null","<p>A másik játékos ezt választotta: <b>spélszek</b>.</p><p>&#x2705;</p><p>A te válaszod és a másik játékos válasza <b>megegyeznek</b>.</p>","null","","","","feedback trial","",""
"html-button-response-esp","55","255256","0.0-11.0-0.22","2610","Te bizony sokat spülőrzöl. Én is sokat...","0","spülőrzök","[""spülőrzök"",""spülőrzöm""]","spülőrzök","esp trial","8","true"
"html-button-response","56","258778","0.0-11.0-1.22","null","<p>A másik játékos ezt választotta: <b>spülőrzök</b>.</p><p>&#x2705;</p><p>A te válaszod és a másik játékos válasza <b>megegyeznek</b>.</p>","null","","","","feedback trial","",""
"html-button-response-esp","57","262752","0.0-11.0-0.23","3464","Te bizony sokat trihagzol. Én is sokat...","1","trihagzom","[""trihagzok"",""trihagzom""]","trihagzok","esp trial","8","false"
"html-button-response","58","266268","0.0-11.0-1.23","null","<p>A másik játékos ezt választotta: <b>trihagzok</b>.</p><p>&#10060;</p><p>A válaszaitok <b>nem</b> egyeznek meg.</p>","null","","","","feedback trial","",""
"html-button-response-esp","59","270026","0.0-11.0-0.24","2931","Te bizony sokat vihepszel. Én is sokat...","0","vihepszem","[""vihepszem"",""vihepszek""]","vihepszek","esp trial","8","false"
"html-button-response","60","273552","0.0-11.0-1.24","null","<p>A másik játékos ezt választotta: <b>vihepszek</b>.</p><p>&#10060;</p><p>A válaszaitok <b>nem</b> egyeznek meg.</p>","null","","","","feedback trial","",""
"html-button-response-esp","61","277305","0.0-11.0-0.25","3113","Te bizony sokat fliraklasz. Én is sokat...","0","fliraklok","[""fliraklok"",""fliraklom""]","fliraklok","esp trial","8","true"
"html-button-response","62","280819","0.0-11.0-1.25","null","<p>A másik játékos ezt választotta: <b>fliraklok</b>.</p><p>&#x2705;</p><p>A te válaszod és a másik játékos válasza <b>megegyeznek</b>.</p>","null","","","","feedback trial","",""
"html-button-response-esp","63","284580","0.0-11.0-0.26","2681","Te bizony sokat spibádzol. Én is sokat...","0","spibádzom","[""spibádzom"",""spibádzok""]","spibádzok","esp trial","8","false"
"html-button-response","64","288108","0.0-11.0-1.26","null","<p>A másik játékos ezt választotta: <b>spibádzok</b>.</p><p>&#10060;</p><p>A válaszaitok <b>nem</b> egyeznek meg.</p>","null","","","","feedback trial","",""
"html-button-response-esp","65","291865","0.0-11.0-0.27","2401","Te bizony sokat aglasz. Én is sokat...","0","aglom","[""aglom"",""aglok""]","aglok","esp trial","8","false"
"html-button-response","66","295385","0.0-11.0-1.27","null","<p>A másik játékos ezt választotta: <b>aglok</b>.</p><p>&#10060;</p><p>A válaszaitok <b>nem</b> egyeznek meg.</p>","null","","","","feedback trial","",""
"html-button-response-esp","67","300305","0.0-11.0-0.28","4408","Te bizony sokat lihadzol. Én is sokat...","0","lihadzok","[""lihadzok"",""lihadzom""]","lihadzok","esp trial","8","true"
"html-button-response","68","303828","0.0-11.0-1.28","null","<p>A másik játékos ezt választotta: <b>lihadzok</b>.</p><p>&#x2705;</p><p>A te válaszod és a másik játékos válasza <b>megegyeznek</b>.</p>","null","","","","feedback trial","",""
"html-button-response-esp","69","310319","0.0-11.0-0.29","5972","Te bizony sokat plövőrzöl. Én is sokat...","1","plövőrzöm","[""plövőrzök"",""plövőrzöm""]","plövőrzök","esp trial","8","false"
"html-button-response","70","313837","0.0-11.0-1.29","null","<p>A másik játékos ezt választotta: <b>plövőrzök</b>.</p><p>&#10060;</p><p>A válaszaitok <b>nem</b> egyeznek meg.</p>","null","","","","feedback trial","",""
"html-button-response-esp","71","320475","0.0-11.0-0.30","6120","Te bizony sokat csólorzol. Én is sokat...","0","csólorzom","[""csólorzom"",""csólorzok""]","csólorzok","esp trial","8","false"
"html-button-response","72","323994","0.0-11.0-1.30","null","<p>A másik játékos ezt választotta: <b>csólorzok</b>.</p><p>&#10060;</p><p>A válaszaitok <b>nem</b> egyeznek meg.</p>","null","","","","feedback trial","",""
"html-button-response-esp","73","328834","0.0-11.0-0.31","4330","Te bizony sokat frágapszol. Én is sokat...","1","frágapszok","[""frágapszom"",""frágapszok""]","frágapszok","esp trial","8","true"
"html-button-response","74","332355","0.0-11.0-1.31","null","<p>A másik játékos ezt választotta: <b>frágapszok</b>.</p><p>&#x2705;</p><p>A te válaszod és a másik játékos válasza <b>megegyeznek</b>.</p>","null","","","","feedback trial","",""
"html-button-response-esp","75","336148","0.0-11.0-0.32","3277","Te bizony sokat livaklasz. Én is sokat...","0","livaklom","[""livaklom"",""livaklok""]","livaklok","esp trial","8","false"
"html-button-response","76","339673","0.0-11.0-1.32","null","<p>A másik játékos ezt választotta: <b>livaklok</b>.</p><p>&#10060;</p><p>A válaszaitok <b>nem</b> egyeznek meg.</p>","null","","","","feedback trial","",""
"html-button-response-esp","77","343426","0.0-11.0-0.33","1899","Te bizony sokat huklasz. Én is sokat...","1","huklok","[""huklom"",""huklok""]","huklok","esp trial","8","true"
"html-button-response","78","346948","0.0-11.0-1.33","null","<p>A másik játékos ezt választotta: <b>huklok</b>.</p><p>&#x2705;</p><p>A te válaszod és a másik játékos válasza <b>megegyeznek</b>.</p>","null","","","","feedback trial","",""
"html-button-response-esp","79","356411","0.0-11.0-0.34","8949","Te bizony sokat gerénylesz. Én is sokat...","0","gerénylek","[""gerénylek"",""gerénylem""]","gerénylem","esp trial","8","false"
"html-button-response","80","359936","0.0-11.0-1.34","null","<p>A másik játékos ezt választotta: <b>gerénylem</b>.</p><p>&#10060;</p><p>A válaszaitok <b>nem</b> egyeznek meg.</p>","null","","","","feedback trial","",""
"html-button-response-esp","81","363694","0.0-11.0-0.35","1436","Te bizony sokat vűjlesz. Én is sokat...","0","vűjlöm","[""vűjlöm"",""vűjlök""]","vűjlöm","esp trial","8","true"
"html-button-response","82","367212","0.0-11.0-1.35","null","<p>A másik játékos ezt választotta: <b>vűjlöm</b>.</p><p>&#x2705;</p><p>A te válaszod és a másik játékos válasza <b>megegyeznek</b>.</p>","null","","","","feedback trial","",""
"html-button-response-esp","83","370980","0.0-11.0-0.36","2683","Te bizony sokat bivejlesz. Én is sokat...","0","bivejlem","[""bivejlem"",""bivejlek""]","bivejlem","esp trial","8","true"
"html-button-response","84","374499","0.0-11.0-1.36","null","<p>A másik játékos ezt választotta: <b>bivejlem</b>.</p><p>&#x2705;</p><p>A te válaszod és a másik játékos válasza <b>megegyeznek</b>.</p>","null","","","","feedback trial","",""
"html-button-response-esp","85","378260","0.0-11.0-0.37","1622","Te bizony sokat tuboklasz. Én is sokat...","1","tuboklok","[""tuboklom"",""tuboklok""]","tuboklok","esp trial","8","true"
"html-button-response","86","381785","0.0-11.0-1.37","null","<p>A másik játékos ezt választotta: <b>tuboklok</b>.</p><p>&#x2705;</p><p>A te válaszod és a másik játékos válasza <b>megegyeznek</b>.</p>","null","","","","feedback trial","",""
"html-button-response-esp","87","385546","0.0-11.0-0.38","1812","Te bizony sokat klárzol. Én is sokat...","0","klárzom","[""klárzom"",""klárzok""]","klárzok","esp trial","8","false"
"html-button-response","88","389077","0.0-11.0-1.38","null","<p>A másik játékos ezt választotta: <b>klárzok</b>.</p><p>&#10060;</p><p>A válaszaitok <b>nem</b> egyeznek meg.</p>","null","","","","feedback trial","",""
"html-button-response-esp","89","393801","0.0-11.0-0.39","4208","Te bizony sokat floglasz. Én is sokat...","1","floglok","[""floglom"",""floglok""]","floglok","esp trial","8","true"
"html-button-response","90","397324","0.0-11.0-1.39","null","<p>A másik játékos ezt választotta: <b>floglok</b>.</p><p>&#x2705;</p><p>A te válaszod és a másik játékos válasza <b>megegyeznek</b>.</p>","null","","","","feedback trial","",""
"html-button-response-esp","91","402489","0.0-11.0-0.40","4649","Te bizony sokat friszlasz. Én is sokat...","0","friszlom","[""friszlom"",""friszlok""]","friszlok","esp trial","8","false"
"html-button-response","92","406014","0.0-11.0-1.40","null","<p>A másik játékos ezt választotta: <b>friszlok</b>.</p><p>&#10060;</p><p>A válaszaitok <b>nem</b> egyeznek meg.</p>","null","","","","feedback trial","",""
"html-button-response-esp","93","409772","0.0-11.0-0.41","1786","Te bizony sokat spülöklesz. Én is sokat...","1","spülöklöm","[""spülöklök"",""spülöklöm""]","spülöklök","esp trial","8","false"
"html-button-response","94","413306","0.0-11.0-1.41","null","<p>A másik játékos ezt választotta: <b>spülöklök</b>.</p><p>&#10060;</p><p>A válaszaitok <b>nem</b> egyeznek meg.</p>","null","","","","feedback trial","",""
"html-button-response-esp","95","417061","0.0-11.0-0.42","2035","Te bizony sokat klidlasz. Én is sokat...","0","klidlom","[""klidlom"",""klidlok""]","klidlom","esp trial","8","true"
"html-button-response","96","420588","0.0-11.0-1.42","null","<p>A másik játékos ezt választotta: <b>klidlom</b>.</p><p>&#x2705;</p><p>A te válaszod és a másik játékos válasza <b>megegyeznek</b>.</p>","null","","","","feedback trial","",""
"html-button-response-esp","97","424348","0.0-11.0-0.43","2211","Te bizony sokat frivajlasz. Én is sokat...","1","frivajlok","[""frivajlom"",""frivajlok""]","frivajlom","esp trial","8","false"
"html-button-response","98","427873","0.0-11.0-1.43","null","<p>A másik játékos ezt választotta: <b>frivajlom</b>.</p><p>&#10060;</p><p>A válaszaitok <b>nem</b> egyeznek meg.</p>","null","","","","feedback trial","",""
"html-button-response-esp","99","431628","0.0-11.0-0.44","2497","Te bizony sokat kumlasz. Én is sokat...","1","kumlok","[""kumlom"",""kumlok""]","kumlom","esp trial","8","false"
"html-button-response","100","435157","0.0-11.0-1.44","null","<p>A másik játékos ezt választotta: <b>kumlom</b>.</p><p>&#10060;</p><p>A válaszaitok <b>nem</b> egyeznek meg.</p>","null","","","","feedback trial","",""
"html-button-response-esp","101","438913","0.0-11.0-0.45","2481","Te bizony sokat féjzel. Én is sokat...","0","féjzek","[""féjzek"",""féjzem""]","féjzek","esp trial","8","true"
"html-button-response","102","442425","0.0-11.0-1.45","null","<p>A másik játékos ezt választotta: <b>féjzek</b>.</p><p>&#x2705;</p><p>A te válaszod és a másik játékos válasza <b>megegyeznek</b>.</p>","null","","","","feedback trial","",""
"html-button-response-esp","103","446189","0.0-11.0-0.46","1606","Te bizony sokat flözlesz. Én is sokat...","0","flözlök","[""flözlök"",""flözlöm""]","flözlöm","esp trial","8","false"
"html-button-response","104","449708","0.0-11.0-1.46","null","<p>A másik játékos ezt választotta: <b>flözlöm</b>.</p><p>&#10060;</p><p>A válaszaitok <b>nem</b> egyeznek meg.</p>","null","","","","feedback trial","",""
"html-button-response-esp","105","453474","0.0-11.0-0.47","2239","Te bizony sokat gyivádzol. Én is sokat...","1","gyivádzok","[""gyivádzom"",""gyivádzok""]","gyivádzok","esp trial","8","true"
"html-button-response","106","456985","0.0-11.0-1.47","null","<p>A másik játékos ezt választotta: <b>gyivádzok</b>.</p><p>&#x2705;</p><p>A te válaszod és a másik játékos válasza <b>megegyeznek</b>.</p>","null","","","","feedback trial","",""
"html-button-response-esp","107","460741","0.0-11.0-0.48","2498","Te bizony sokat prezlesz. Én is sokat...","0","prezlek","[""prezlek"",""prezlem""]","prezlem","esp trial","8","false"
"html-button-response","108","464265","0.0-11.0-1.48","null","<p>A másik játékos ezt választotta: <b>prezlem</b>.</p><p>&#10060;</p><p>A válaszaitok <b>nem</b> egyeznek meg.</p>","null","","","","feedback trial","",""
"html-button-response-esp","109","468019","0.0-11.0-0.49","1986","Te bizony sokat drügzöl. Én is sokat...","1","drügzök","[""drügzöm"",""drügzök""]","drügzök","esp trial","8","true"
"html-button-response","110","471547","0.0-11.0-1.49","null","<p>A másik játékos ezt választotta: <b>drügzök</b>.</p><p>&#x2705;</p><p>A te válaszod és a másik játékos válasza <b>megegyeznek</b>.</p>","null","","","","feedback trial","",""
"html-button-response-esp","111","475316","0.0-11.0-0.50","1324","Te bizony sokat brarlasz. Én is sokat...","0","brarlok","[""brarlok"",""brarlom""]","brarlom","esp trial","8","false"
"html-button-response","112","478835","0.0-11.0-1.50","null","<p>A másik játékos ezt választotta: <b>brarlom</b>.</p><p>&#10060;</p><p>A válaszaitok <b>nem</b> egyeznek meg.</p>","null","","","","feedback trial","",""
"html-button-response-esp","113","482598","0.0-11.0-0.51","1811","Te bizony sokat flérlesz. Én is sokat...","1","flérlek","[""flérlem"",""flérlek""]","flérlem","esp trial","8","false"
"html-button-response","114","486120","0.0-11.0-1.51","null","<p>A másik játékos ezt választotta: <b>flérlem</b>.</p><p>&#10060;</p><p>A válaszaitok <b>nem</b> egyeznek meg.</p>","null","","","","feedback trial","",""
"html-button-response-esp","115","489882","0.0-11.0-0.52","2213","Te bizony sokat prihekszel. Én is sokat...","1","prihekszem","[""prihekszek"",""prihekszem""]","prihekszek","esp trial","8","false"
"html-button-response","116","493412","0.0-11.0-1.52","null","<p>A másik játékos ezt választotta: <b>prihekszek</b>.</p><p>&#10060;</p><p>A válaszaitok <b>nem</b> egyeznek meg.</p>","null","","","","feedback trial","",""
"html-button-response-esp","117","497174","0.0-11.0-0.53","2499","Te bizony sokat pugoslasz. Én is sokat...","0","pugoslok","[""pugoslok"",""pugoslom""]","pugoslom","esp trial","8","false"
"html-button-response","118","500701","0.0-11.0-1.53","null","<p>A másik játékos ezt választotta: <b>pugoslom</b>.</p><p>&#10060;</p><p>A válaszaitok <b>nem</b> egyeznek meg.</p>","null","","","","feedback trial","",""
"html-button-response","119","509465","0.0-12.0","8250","<p>A közös játék most véget ért.</p><p>Mielőtt eláruljuk a végső pontszámodat, arra kérlek, játszd a szóválasztós játékot néhány percig egyedül is.</p><p>A feladatod ugyanaz lesz, választani két lehetőség közül.</p><p>Most viszont egyedül kell döntened, hogy te melyiket választanád.</p>","0","","","","","",""
"html-button-response-clever","120","514776","0.0-13.0-0.0","4795","Te bizony sokat csíszlasz. Én is sokat...","0","csíszlom","[""csíszlom"",""csíszlok""]","","posttest trial","1",""
"html-button-response-clever","121","519098","0.0-13.0-0.1","3806","Te bizony sokat ribzol. Én is sokat...","1","ribzok","[""ribzom"",""ribzok""]","","posttest trial","1",""
"html-button-response-clever","122","521371","0.0-13.0-0.2","1751","Te bizony sokat sprogzol. Én is sokat...","1","sprogzom","[""sprogzok"",""sprogzom""]","","posttest trial","1",""
"html-button-response-clever","123","524640","0.0-13.0-0.3","2747","Te bizony sokat brüjlesz. Én is sokat...","1","brüjlök","[""brüjlöm"",""brüjlök""]","","posttest trial","1",""
"html-button-response-clever","124","526992","0.0-13.0-0.4","1835","Te bizony sokat tiregzel. Én is sokat...","0","tiregzem","[""tiregzem"",""tiregzek""]","","posttest trial","1",""
"html-button-response-clever","125","529049","0.0-13.0-0.5","1540","Te bizony sokat spűmlesz. Én is sokat...","1","spűmlök","[""spűmlöm"",""spűmlök""]","","posttest trial","1",""
"html-button-response-clever","126","531306","0.0-13.0-0.6","1740","Te bizony sokat flagárzol. Én is sokat...","1","flagárzom","[""flagárzok"",""flagárzom""]","","posttest trial","1",""
"html-button-response-clever","127","533418","0.0-13.0-0.7","1596","Te bizony sokat flüröslesz. Én is sokat...","0","flüröslöm","[""flüröslöm"",""flüröslök""]","","posttest trial","1",""
"html-button-response-clever","128","535362","0.0-13.0-0.8","1429","Te bizony sokat hilarzol. Én is sokat...","1","hilarzok","[""hilarzom"",""hilarzok""]","","posttest trial","1",""
"html-button-response-clever","129","537893","0.0-13.0-0.9","2008","Te bizony sokat spatárzol. Én is sokat...","0","spatárzom","[""spatárzom"",""spatárzok""]","","posttest trial","1",""
"html-button-response-clever","130","540539","0.0-13.0-0.10","2127","Te bizony sokat málapszol. Én is sokat...","0","málapszom","[""málapszom"",""málapszok""]","","posttest trial","1",""
"html-button-response-clever","131","543417","0.0-13.0-0.11","2360","Te bizony sokat juszlasz. Én is sokat...","1","juszlok","[""juszlom"",""juszlok""]","","posttest trial","1",""
"html-button-response-clever","132","545457","0.0-13.0-0.12","1526","Te bizony sokat nyáslasz. Én is sokat...","0","nyáslok","[""nyáslok"",""nyáslom""]","","posttest trial","1",""
"html-button-response-clever","133","547696","0.0-13.0-0.13","1723","Te bizony sokat spibaklasz. Én is sokat...","1","spibaklok","[""spibaklom"",""spibaklok""]","","posttest trial","1",""
"html-button-response-clever","134","549649","0.0-13.0-0.14","1437","Te bizony sokat narjárzol. Én is sokat...","0","narjárzok","[""narjárzok"",""narjárzom""]","","posttest trial","1",""
"html-button-response-clever","135","552200","0.0-13.0-0.15","2036","Te bizony sokat bölszöl. Én is sokat...","1","bölszöm","[""bölszök"",""bölszöm""]","","posttest trial","1",""
"html-button-response-clever","136","554272","0.0-13.0-0.16","1558","Te bizony sokat büglesz. Én is sokat...","0","büglöm","[""büglöm"",""büglök""]","","posttest trial","1",""
"html-button-response-clever","137","556556","0.0-13.0-0.17","1767","Te bizony sokat marzol. Én is sokat...","1","marzom","[""marzok"",""marzom""]","","posttest trial","1",""
"html-button-response-clever","138","559287","0.0-13.0-0.18","2216","Te bizony sokat sztremlesz. Én is sokat...","0","sztremlek","[""sztremlek"",""sztremlem""]","","posttest trial","1",""
"html-button-response-clever","139","561599","0.0-13.0-0.19","1796","Te bizony sokat feténylesz. Én is sokat...","0","feténylek","[""feténylek"",""feténylem""]","","posttest trial","1",""
"html-button-response-clever","140","563434","0.0-13.0-0.20","1316","Te bizony sokat piragszol. Én is sokat...","1","piragszom","[""piragszok"",""piragszom""]","","posttest trial","1",""
"html-button-response-clever","141","565077","0.0-13.0-0.21","1128","Te bizony sokat klörlesz. Én is sokat...","0","klörlöm","[""klörlöm"",""klörlök""]","","posttest trial","1",""
"html-button-response-clever","142","567258","0.0-13.0-0.22","1657","Te bizony sokat pratánylasz. Én is sokat...","1","pratánylok","[""pratánylom"",""pratánylok""]","","posttest trial","1",""
"html-button-response-clever","143","568810","0.0-13.0-0.23","1037","Te bizony sokat spéslesz. Én is sokat...","0","spéslek","[""spéslek"",""spéslem""]","","posttest trial","1",""
"html-button-response-clever","144","570408","0.0-13.0-0.24","1084","Te bizony sokat flűröklesz. Én is sokat...","1","flűröklöm","[""flűröklök"",""flűröklöm""]","","posttest trial","1",""
"html-button-response-clever","145","572800","0.0-13.0-0.25","1877","Te bizony sokat fibamlasz. Én is sokat...","1","fibamlok","[""fibamlom"",""fibamlok""]","","posttest trial","1",""
"html-button-response-clever","146","575121","0.0-13.0-0.26","1804","Te bizony sokat pebzel. Én is sokat...","0","pebzem","[""pebzem"",""pebzek""]","","posttest trial","1",""
"html-button-response-clever","147","577212","0.0-13.0-0.27","1579","Te bizony sokat spilágzol. Én is sokat...","0","spilágzok","[""spilágzok"",""spilágzom""]","","posttest trial","1",""
"html-button-response-clever","148","578667","0.0-13.0-0.28","935","Te bizony sokat siladzol. Én is sokat...","1","siladzok","[""siladzom"",""siladzok""]","","posttest trial","1",""
"html-button-response-clever","149","580448","0.0-13.0-0.29","1258","Te bizony sokat klibamlasz. Én is sokat...","0","klibamlom","[""klibamlom"",""klibamlok""]","","posttest trial","1",""
"html-button-response-clever","150","581712","0.0-13.0-0.30","749","Te bizony sokat szirlasz. Én is sokat...","1","szirlom","[""szirlok"",""szirlom""]","","posttest trial","1",""
"html-button-response-clever","151","583623","0.0-13.0-0.31","1395","Te bizony sokat drubódzol. Én is sokat...","0","drubódzok","[""drubódzok"",""drubódzom""]","","posttest trial","1",""
"html-button-response-clever","152","585152","0.0-13.0-0.32","1012","Te bizony sokat sprökszöl. Én is sokat...","1","sprökszök","[""sprökszöm"",""sprökszök""]","","posttest trial","1",""
"html-button-response-clever","153","586709","0.0-13.0-0.33","1044","Te bizony sokat jüslesz. Én is sokat...","0","jüslöm","[""jüslöm"",""jüslök""]","","posttest trial","1",""
"html-button-response-clever","154","590114","0.0-13.0-0.34","2888","Te bizony sokat brágaklasz. Én is sokat...","1","brágaklok","[""brágaklom"",""brágaklok""]","","posttest trial","1",""
"html-button-response-clever","155","591680","0.0-13.0-0.35","1053","Te bizony sokat tomlasz. Én is sokat...","1","tomlok","[""tomlom"",""tomlok""]","","posttest trial","1",""
"html-button-response-clever","156","593628","0.0-13.0-0.36","1434","Te bizony sokat flagánylasz. Én is sokat...","1","flagánylok","[""flagánylom"",""flagánylok""]","","posttest trial","1",""
"html-button-response-clever","157","595385","0.0-13.0-0.37","1237","Te bizony sokat ribegzel. Én is sokat...","1","ribegzek","[""ribegzem"",""ribegzek""]","","posttest trial","1",""
"html-button-response-clever","158","598856","0.0-13.0-0.38","2957","Te bizony sokat herégszel. Én is sokat...","1","herégszem","[""herégszek"",""herégszem""]","","posttest trial","1",""
"html-button-response-clever","159","601088","0.0-13.0-0.39","1716","Te bizony sokat fretszel. Én is sokat...","0","fretszem","[""fretszem"",""fretszek""]","","posttest trial","1",""
"html-button-response-clever","160","603676","0.0-13.0-0.40","2070","Te bizony sokat frilegszel. Én is sokat...","0","frilegszek","[""frilegszek"",""frilegszem""]","","posttest trial","1",""
"html-button-response-clever","161","605249","0.0-13.0-0.41","1051","Te bizony sokat ruslasz. Én is sokat...","1","ruslok","[""ruslom"",""ruslok""]","","posttest trial","1",""
"html-button-response-clever","162","606788","0.0-13.0-0.42","1024","Te bizony sokat pivegszel. Én is sokat...","0","pivegszek","[""pivegszek"",""pivegszem""]","","posttest trial","1",""
"html-button-response-clever","163","608167","0.0-13.0-0.43","857","Te bizony sokat tínylasz. Én is sokat...","1","tínylok","[""tínylom"",""tínylok""]","","posttest trial","1",""
"html-button-response-clever","164","609825","0.0-13.0-0.44","1143","Te bizony sokat böjzöl. Én is sokat...","0","böjzök","[""böjzök"",""böjzöm""]","","posttest trial","1",""
"html-button-response-clever","165","611153","0.0-13.0-0.45","809","Te bizony sokat vilakszol. Én is sokat...","1","vilakszom","[""vilakszok"",""vilakszom""]","","posttest trial","1",""
"html-button-response-clever","166","612963","0.0-13.0-0.46","1296","Te bizony sokat prűrlesz. Én is sokat...","0","prűrlöm","[""prűrlöm"",""prűrlök""]","","posttest trial","1",""
"html-button-response-clever","167","614176","0.0-13.0-0.47","691","Te bizony sokat driládzol. Én is sokat...","1","driládzom","[""driládzok"",""driládzom""]","","posttest trial","1",""
"html-button-response-clever","168","615372","0.0-13.0-0.48","678","Te bizony sokat prilegzel. Én is sokat...","1","prilegzem","[""prilegzek"",""prilegzem""]","","posttest trial","1",""
"html-button-response-clever","169","616595","0.0-13.0-0.49","705","Te bizony sokat lorjódzol. Én is sokat...","1","lorjódzok","[""lorjódzom"",""lorjódzok""]","","posttest trial","1",""
"html-button-response-clever","170","617786","0.0-13.0-0.50","672","Te bizony sokat trilszol. Én is sokat...","0","trilszok","[""trilszok"",""trilszom""]","","posttest trial","1",""
"html-button-response-clever","171","619924","0.0-13.0-0.51","1619","Te bizony sokat sojzol. Én is sokat...","0","sojzom","[""sojzom"",""sojzok""]","","posttest trial","1",""
"html-button-response-clever","172","621979","0.0-13.0-0.52","1537","Te bizony sokat femlesz. Én is sokat...","1","femlek","[""femlem"",""femlek""]","","posttest trial","1",""
"html-button-response-clever","173","624337","0.0-13.0-0.53","1841","Te bizony sokat sűzlesz. Én is sokat...","1","sűzlöm","[""sűzlök"",""sűzlöm""]","","posttest trial","1",""
"html-button-response","174","632850","0.0-14.0","7997","<p> Vége a játéknak. A teljes pontszámod 27/54.</p><p> Szép munka! &#128526;&#128526;&#128526;</p><p>A Befejezés gomb megnyomása után bezárhatod a böngészőablakot.</p>","0","","","","","",""
"html-keyboard-response","175","638373","0.0-15.0","null","<div class=""message"">
         <p>Egy kis türelmet kérünk, amíg elmentjük az adatokat...</p>
         </div>","null","","","","","",""
