"trial_type","trial_index","time_elapsed","internal_node_id","rt","stimulus","response","response_string","choices","esp_response","trial_kind","list_number","esp_match"
"pavlovia","0","968","0.0-0.0","","","","","","","","",""
"html-button-response","1","52498","0.0-1.0","51018","<p>Kedves Résztvevő! A Budapesti Műszaki és Gazdaságtudományi Egyetem Kognitív Tudományi Tanszékének kutatásában való részvételed kérjük. A kutatásban azt vizsgáljuk, hogy a magyar anyanyelvűek hogyan használnak bizonyos szóalakokat, és hogy milyen képük van arról, hogy mások hogyan használják, hogyan képzik a szavakat. Ez hozzásegít bennünket ahhoz, hogy jobban megértsük, hogyan dolgozza fel és tárolja a nyelvet az emberi agy, és hogyan működnek, hogyan változnak egy adott közösség nyelvi konvenciói.</p><p>A vizsgálat egy rövid számítógépes feladatból fog állni. A kutatásban való részvétel önkéntes, a részvételi szándék bármikor visszavonható. A résztvevők eredményeit név nélkül kezeljük, így nem beazonosíthatók az adatok feldolgozása során. Minden személyes adatot az EU általános adatvédelmi rendeletének (GDPR) megfelelően kezelünk és legfeljebb öt éven belül megsemmisítünk. A vizsgálat jellemzően húsz percet vesz igénybe.</p><p>Kutatásvezető:</p><p>Dr. Rácz Péter, tudományos munkatárs, BME KTT</p><p>e-mail: racz.peter.marton@ttk.bme.hu</p>","0","","","","","",""
"html-button-response","2","96035","0.0-2.0","43020","<p>A kísérletben szavakat fogsz látni. Ezek között lesznek olyanok, amelyeket ismersz, de előfordulhatnak olyanok is, amelyeket nem ismersz, sőt, vannak köztük kitalált szavak is. Minden szónál látni fogsz toldalékolt alakokat. A te feladatod az lesz, hogy minden szóhoz kiválaszd azt a toldalékolt alakot, amely a te számodra ismerősebben, természetesebben hangzik. Rossz válaszok nincsenek, mert van olyan, hogy különböző embereknek más és más szó tűnik jobb választásnak. A választ úgy tudod majd kiválasztani, ha rákattintasz.</p><p>Ebben a szóválasztós játékban egy másik játékossal együtt veszel majd részt. A másik játékos is minden esetben azok közül a lehetőségek közül válogathat, mint te. Kettőtök feladata az, hogy ugyanazt a lehetőséget válasszátok minden esetben. Ahhoz, hogy ez sikerüljön, neked figyelned kell arra, hogy a másik játékos milyen válaszokat ad, és ennek alapján meg kell tippelned, hogyan választ legközelebb. Ha eltalálod, akkor pontot kapsz.</p>","0","","","","","",""
"html-button-response","3","126329","0.0-3.0","29780","<p>Kérjük, olvasd el az alábbi nyilatkozatot, és amennyiben egyetértesz vele, nyomj a Beleegyezés gombra!</p><p>Kijelentem, hogy magyar anyanyelvű személyként önként veszek részt a BME KTT kísérletében. A kutatás céljával és folyamatával kapcsolatban elegendő tájékoztatást kaptam, lehetőségem volt kérdések feltételére, és esetleges kérdéseimre megfelelő válaszokat kaptam. A tájékoztatás alapján elegendő mennyiségű információ áll a rendelkezésemre, hogy eldönthessem, részt kívánok-e venni a kutatásban.</p><p>Tisztában vagyok vele, hogy részvételi szándékomat és adataimat bármikor, indoklás nélkül visszavonhatom.</p><p>Értem és tudomásul veszem, hogy a kutatás tudományos célokat szolgál, és az általam szolgáltatott adatokat a BME kizárólag kutatási célból használja fel. Tudomásul veszem, hogy eredményeimet a többi résztvevő eredményeivel együtt kezelik, így egyéni teljesítményemről visszajelzést, szakvéleményt nem kapok.</p><p>Megértettem, hogy adataim kezelését illetően a BME az EU általános adatvédelmi rendelete (GDPR), a hatályos adatvédelmi törvény és a nemzetközi kutatás-etikai alapelvek szerint jár el. Eredményeim anonim módon kerülnek feldolgozásra, és a kutatás résztvevői az azonosításomra alkalmas adataimat harmadik félnek nem szolgáltatják ki. Engedélyezem a BME számára a jelen kutatásban felvett adataim feldolgozását és tárolását, beleértve azok későbbi kutatásokhoz való felhasználását is. Személyes adataim kezelésével kapcsolatban tájékoztatást kérhetek a kutatás résztvevőitől, az adatkezelés ellen tiltakozhatok, kérhetem személyes adataim helyesbítését, törlését vagy zárolását, valamint jogorvoslatért a Nemzeti Adatvédelmi és Információszabadság Hatósághoz fordulhatok.</p><p>Kijelentem, hogy a kutatásban való részvételem körülményeiről részletes tájékoztatást kaptam, és a feltételeket elfogadom.</p>","0","","","","","",""
"survey-text","4","152407","0.0-4.0","25536","","{""Q0"":""P2MHYL"",""Q1"":""nő"",""Q2"":""2002.06.16."",""Q3"":""12""}","","","","","",""
"html-button-response","5","165647","0.0-5.0","12725","<p>Ebben a játékban szavakat kell toldalékolni.</p> <p>Minden körben mutatunk majd egy példamondatot, amiben lesz egy szó.</p> <p>Alatta jön egy második mondat, ezt a mondatot neked kell majd befejezni, ugyanezzel a szóval.</p> <p>Nem biztos, hogy a szó eleve ismerős lesz számodra!</p> <p>Minden mondathoz adunk két lehetőséget, ezeket balra és jobbra látod majd.</p> <p>A játék kb. negyedóráig-húsz percig tart.</p>","0","","","","","",""
"html-button-response","6","182751","0.0-6.0","16581","<p>Nézzünk egy példát!</p> <p>A példamondat: ""János nagyon szeret rancsúrozni.""</p><p>Neked ezt a mondatot kell befejezned: ""Én is szívesen...""</p><p>A lehetőségek pedig ezek:</p>","0","","","","","",""
"html-button-response","7","190732","0.0-7.0","7464","<p>Nagyon jó.</p><p>Ezt a játékot nem egyedül fogod játszani, hanem egy másik játékossal.</p><p>Mielőtt továbblépünk, összekapcsolunk titeket egymással.</p><p>Ez igénybe vehet néhány másodpercet, amihez szíves türelmed kérjük.</p>","0","","","","","",""
"html-button-response","8","196468","0.0-8.0","null","<p>Csatlakozás a másik játékoshoz...</p>","null","","","","","",""
"html-button-response","9","198995","0.0-9.0","null","<p> Sikeres kapcsolódás!</p>","null","","","","","",""
"html-button-response","10","209508","0.0-10.0","null","<p>A következőkben ketten játsszátok a szóválasztós játékot.</p><p>A feladatotok az lesz, hogy minden körben <b>ugyanazt</b> a szót válasszátok.</p><p>Minden ilyen egyező válaszért pontot kaptok.</p><p>Próbáld meg kitalálni, mit választ a másik játékos!</p><p>Bármikor választhatsz, a körnek akkor van vége, ha mindketten döntöttetek.</p><p>Sok sikert!</p>","null","","","","","",""
"html-button-response-esp","11","218954","0.0-11.0-0.0","8932","Te bizony sokat brágaklasz. Én is sokat...","0","brágaklok","[""brágaklok"",""brágaklom""]","brágaklok","esp trial","0","true"
"html-button-response","12","222472","0.0-11.0-1.0","null","<p>A másik játékos ezt választotta: <b>brágaklok</b>.</p><p>&#x2705;</p><p>A te válaszod és a másik játékos válasza <b>megegyeznek</b>.</p>","null","","","","feedback trial","",""
"html-button-response-esp","13","230891","0.0-11.0-0.1","3945","Te bizony sokat málapszol. Én is sokat...","1","málapszok","[""málapszom"",""málapszok""]","málapszok","esp trial","0","true"
"html-button-response","14","234410","0.0-11.0-1.1","null","<p>A másik játékos ezt választotta: <b>málapszok</b>.</p><p>&#x2705;</p><p>A te válaszod és a másik játékos válasza <b>megegyeznek</b>.</p>","null","","","","feedback trial","",""
"html-button-response-esp","15","242832","0.0-11.0-0.2","5253","Te bizony sokat pebzel. Én is sokat...","0","pebzek","[""pebzek"",""pebzem""]","pebzek","esp trial","0","true"
"html-button-response","16","246355","0.0-11.0-1.2","null","<p>A másik játékos ezt választotta: <b>pebzek</b>.</p><p>&#x2705;</p><p>A te válaszod és a másik játékos válasza <b>megegyeznek</b>.</p>","null","","","","feedback trial","",""
"html-button-response-esp","17","254762","0.0-11.0-0.3","6536","Te bizony sokat pivegszel. Én is sokat...","1","pivegszem","[""pivegszek"",""pivegszem""]","pivegszek","esp trial","0","false"
"html-button-response","18","258285","0.0-11.0-1.3","null","<p>A másik játékos ezt választotta: <b>pivegszek</b>.</p><p>&#10060;</p><p>A válaszaitok <b>nem</b> egyeznek meg.</p>","null","","","","feedback trial","",""
"html-button-response-esp","19","266717","0.0-11.0-0.4","5719","Te bizony sokat pratánylasz. Én is sokat...","1","pratánylok","[""pratánylom"",""pratánylok""]","pratánylom","esp trial","0","false"
"html-button-response","20","270242","0.0-11.0-1.4","null","<p>A másik játékos ezt választotta: <b>pratánylom</b>.</p><p>&#10060;</p><p>A válaszaitok <b>nem</b> egyeznek meg.</p>","null","","","","feedback trial","",""
"html-button-response-esp","21","278655","0.0-11.0-0.5","4288","Te bizony sokat szirlasz. Én is sokat...","1","szirlom","[""szirlok"",""szirlom""]","szirlok","esp trial","0","false"
"html-button-response","22","282177","0.0-11.0-1.5","null","<p>A másik játékos ezt választotta: <b>szirlok</b>.</p><p>&#10060;</p><p>A válaszaitok <b>nem</b> egyeznek meg.</p>","null","","","","feedback trial","",""
"html-button-response-esp","23","290585","0.0-11.0-0.6","5167","Te bizony sokat tomlasz. Én is sokat...","0","tomlom","[""tomlom"",""tomlok""]","tomlom","esp trial","0","true"
"html-button-response","24","294114","0.0-11.0-1.6","null","<p>A másik játékos ezt választotta: <b>tomlom</b>.</p><p>&#x2705;</p><p>A te válaszod és a másik játékos válasza <b>megegyeznek</b>.</p>","null","","","","feedback trial","",""
"html-button-response-esp","25","302540","0.0-11.0-0.7","3214","Te bizony sokat büglesz. Én is sokat...","1","büglöm","[""büglök"",""büglöm""]","büglöm","esp trial","0","true"
"html-button-response","26","306079","0.0-11.0-1.7","null","<p>A másik játékos ezt választotta: <b>büglöm</b>.</p><p>&#x2705;</p><p>A te válaszod és a másik játékos válasza <b>megegyeznek</b>.</p>","null","","","","feedback trial","",""
"html-button-response-esp","27","314494","0.0-11.0-0.8","3300","Te bizony sokat ribzol. Én is sokat...","0","ribzom","[""ribzom"",""ribzok""]","ribzok","esp trial","0","false"
"html-button-response","28","318017","0.0-11.0-1.8","null","<p>A másik játékos ezt választotta: <b>ribzok</b>.</p><p>&#10060;</p><p>A válaszaitok <b>nem</b> egyeznek meg.</p>","null","","","","feedback trial","",""
"html-button-response-esp","29","326419","0.0-11.0-0.9","3895","Te bizony sokat brüjlesz. Én is sokat...","1","brüjlök","[""brüjlöm"",""brüjlök""]","brüjlöm","esp trial","0","false"
"html-button-response","30","329932","0.0-11.0-1.9","null","<p>A másik játékos ezt választotta: <b>brüjlöm</b>.</p><p>&#10060;</p><p>A válaszaitok <b>nem</b> egyeznek meg.</p>","null","","","","feedback trial","",""
"html-button-response-esp","31","338342","0.0-11.0-0.10","3879","Te bizony sokat böjzöl. Én is sokat...","1","böjzöm","[""böjzök"",""böjzöm""]","böjzök","esp trial","0","false"
"html-button-response","32","341866","0.0-11.0-1.10","null","<p>A másik játékos ezt választotta: <b>böjzök</b>.</p><p>&#10060;</p><p>A válaszaitok <b>nem</b> egyeznek meg.</p>","null","","","","feedback trial","",""
"html-button-response-esp","33","350284","0.0-11.0-0.11","3060","Te bizony sokat tínylasz. Én is sokat...","0","tínylom","[""tínylom"",""tínylok""]","tínylok","esp trial","0","false"
"html-button-response","34","353813","0.0-11.0-1.11","null","<p>A másik játékos ezt választotta: <b>tínylok</b>.</p><p>&#10060;</p><p>A válaszaitok <b>nem</b> egyeznek meg.</p>","null","","","","feedback trial","",""
"html-button-response-esp","35","362225","0.0-11.0-0.12","4498","Te bizony sokat narjárzol. Én is sokat...","1","narjárzom","[""narjárzok"",""narjárzom""]","narjárzok","esp trial","0","false"
"html-button-response","36","365743","0.0-11.0-1.12","null","<p>A másik játékos ezt választotta: <b>narjárzok</b>.</p><p>&#10060;</p><p>A válaszaitok <b>nem</b> egyeznek meg.</p>","null","","","","feedback trial","",""
"html-button-response-esp","37","374173","0.0-11.0-0.13","6370","Te bizony sokat flagánylasz. Én is sokat...","1","flagánylok","[""flagánylom"",""flagánylok""]","flagánylom","esp trial","0","false"
"html-button-response","38","377714","0.0-11.0-1.13","null","<p>A másik játékos ezt választotta: <b>flagánylom</b>.</p><p>&#10060;</p><p>A válaszaitok <b>nem</b> egyeznek meg.</p>","null","","","","feedback trial","",""
"html-button-response-esp","39","386124","0.0-11.0-0.14","3740","Te bizony sokat herégszel. Én is sokat...","0","herégszem","[""herégszem"",""herégszek""]","herégszek","esp trial","0","false"
"html-button-response","40","389641","0.0-11.0-1.14","null","<p>A másik játékos ezt választotta: <b>herégszek</b>.</p><p>&#10060;</p><p>A válaszaitok <b>nem</b> egyeznek meg.</p>","null","","","","feedback trial","",""
"html-button-response-esp","41","398060","0.0-11.0-0.15","4049","Te bizony sokat ruslasz. Én is sokat...","0","ruslok","[""ruslok"",""ruslom""]","ruslom","esp trial","0","false"
"html-button-response","42","401591","0.0-11.0-1.15","null","<p>A másik játékos ezt választotta: <b>ruslom</b>.</p><p>&#10060;</p><p>A válaszaitok <b>nem</b> egyeznek meg.</p>","null","","","","feedback trial","",""
"html-button-response-esp","43","410002","0.0-11.0-0.16","4628","Te bizony sokat prilegzel. Én is sokat...","1","prilegzem","[""prilegzek"",""prilegzem""]","prilegzek","esp trial","0","false"
"html-button-response","44","413523","0.0-11.0-1.16","null","<p>A másik játékos ezt választotta: <b>prilegzek</b>.</p><p>&#10060;</p><p>A válaszaitok <b>nem</b> egyeznek meg.</p>","null","","","","feedback trial","",""
"html-button-response-esp","45","427156","0.0-11.0-0.17","13125","Te bizony sokat bölszöl. Én is sokat...","1","bölszöm","[""bölszök"",""bölszöm""]","bölszök","esp trial","0","false"
"html-button-response","46","430671","0.0-11.0-1.17","null","<p>A másik játékos ezt választotta: <b>bölszök</b>.</p><p>&#10060;</p><p>A válaszaitok <b>nem</b> egyeznek meg.</p>","null","","","","feedback trial","",""
"html-button-response-esp","47","439091","0.0-11.0-0.18","4895","Te bizony sokat flűröklesz. Én is sokat...","0","flűröklök","[""flűröklök"",""flűröklöm""]","flűröklök","esp trial","0","true"
"html-button-response","48","442610","0.0-11.0-1.18","null","<p>A másik játékos ezt választotta: <b>flűröklök</b>.</p><p>&#x2705;</p><p>A te válaszod és a másik játékos válasza <b>megegyeznek</b>.</p>","null","","","","feedback trial","",""
"html-button-response-esp","49","451017","0.0-11.0-0.19","3326","Te bizony sokat juszlasz. Én is sokat...","1","juszlom","[""juszlok"",""juszlom""]","juszlok","esp trial","0","false"
"html-button-response","50","454541","0.0-11.0-1.19","null","<p>A másik játékos ezt választotta: <b>juszlok</b>.</p><p>&#10060;</p><p>A válaszaitok <b>nem</b> egyeznek meg.</p>","null","","","","feedback trial","",""
"html-button-response-esp","51","462964","0.0-11.0-0.20","5813","Te bizony sokat siladzol. Én is sokat...","0","siladzok","[""siladzok"",""siladzom""]","siladzok","esp trial","0","true"
"html-button-response","52","466497","0.0-11.0-1.20","null","<p>A másik játékos ezt választotta: <b>siladzok</b>.</p><p>&#x2705;</p><p>A te válaszod és a másik játékos válasza <b>megegyeznek</b>.</p>","null","","","","feedback trial","",""
"html-button-response-esp","53","474896","0.0-11.0-0.21","3529","Te bizony sokat femlesz. Én is sokat...","1","femlek","[""femlem"",""femlek""]","femlem","esp trial","0","false"
"html-button-response","54","478417","0.0-11.0-1.21","null","<p>A másik játékos ezt választotta: <b>femlem</b>.</p><p>&#10060;</p><p>A válaszaitok <b>nem</b> egyeznek meg.</p>","null","","","","feedback trial","",""
"html-button-response-esp","55","486822","0.0-11.0-0.22","5099","Te bizony sokat sűzlesz. Én is sokat...","1","sűzlöm","[""sűzlök"",""sűzlöm""]","sűzlök","esp trial","0","false"
"html-button-response","56","490336","0.0-11.0-1.22","null","<p>A másik játékos ezt választotta: <b>sűzlök</b>.</p><p>&#10060;</p><p>A válaszaitok <b>nem</b> egyeznek meg.</p>","null","","","","feedback trial","",""
"html-button-response-esp","57","498757","0.0-11.0-0.23","5053","Te bizony sokat tiregzel. Én is sokat...","1","tiregzem","[""tiregzek"",""tiregzem""]","tiregzek","esp trial","0","false"
"html-button-response","58","502284","0.0-11.0-1.23","null","<p>A másik játékos ezt választotta: <b>tiregzek</b>.</p><p>&#10060;</p><p>A válaszaitok <b>nem</b> egyeznek meg.</p>","null","","","","feedback trial","",""
"html-button-response-esp","59","510707","0.0-11.0-0.24","3383","Te bizony sokat csíszlasz. Én is sokat...","0","csíszlom","[""csíszlom"",""csíszlok""]","csíszlok","esp trial","0","false"
"html-button-response","60","514246","0.0-11.0-1.24","null","<p>A másik játékos ezt választotta: <b>csíszlok</b>.</p><p>&#10060;</p><p>A válaszaitok <b>nem</b> egyeznek meg.</p>","null","","","","feedback trial","",""
"html-button-response-esp","61","522663","0.0-11.0-0.25","6697","Te bizony sokat spatárzol. Én is sokat...","1","spatárzom","[""spatárzok"",""spatárzom""]","spatárzok","esp trial","0","false"
"html-button-response","62","526185","0.0-11.0-1.25","null","<p>A másik játékos ezt választotta: <b>spatárzok</b>.</p><p>&#10060;</p><p>A válaszaitok <b>nem</b> egyeznek meg.</p>","null","","","","feedback trial","",""
"html-button-response-esp","63","534595","0.0-11.0-0.26","5114","Te bizony sokat sojzol. Én is sokat...","1","sojzom","[""sojzok"",""sojzom""]","sojzok","esp trial","0","false"
"html-button-response","64","538110","0.0-11.0-1.26","null","<p>A másik játékos ezt választotta: <b>sojzok</b>.</p><p>&#10060;</p><p>A válaszaitok <b>nem</b> egyeznek meg.</p>","null","","","","feedback trial","",""
"html-button-response-esp","65","546526","0.0-11.0-0.27","7287","Te bizony sokat trilszol. Én is sokat...","1","trilszom","[""trilszok"",""trilszom""]","trilszok","esp trial","0","false"
"html-button-response","66","550050","0.0-11.0-1.27","null","<p>A másik játékos ezt választotta: <b>trilszok</b>.</p><p>&#10060;</p><p>A válaszaitok <b>nem</b> egyeznek meg.</p>","null","","","","feedback trial","",""
"html-button-response-esp","67","558461","0.0-11.0-0.28","4950","Te bizony sokat prűrlesz. Én is sokat...","0","prűrlök","[""prűrlök"",""prűrlöm""]","prűrlöm","esp trial","0","false"
"html-button-response","68","561991","0.0-11.0-1.28","null","<p>A másik játékos ezt választotta: <b>prűrlöm</b>.</p><p>&#10060;</p><p>A válaszaitok <b>nem</b> egyeznek meg.</p>","null","","","","feedback trial","",""
"html-button-response-esp","69","570398","0.0-11.0-0.29","7445","Te bizony sokat sprogzol. Én is sokat...","1","sprogzom","[""sprogzok"",""sprogzom""]","sprogzok","esp trial","0","false"
"html-button-response","70","573917","0.0-11.0-1.29","null","<p>A másik játékos ezt választotta: <b>sprogzok</b>.</p><p>&#10060;</p><p>A válaszaitok <b>nem</b> egyeznek meg.</p>","null","","","","feedback trial","",""
"html-button-response-esp","71","582332","0.0-11.0-0.30","3448","Te bizony sokat jüslesz. Én is sokat...","0","jüslöm","[""jüslöm"",""jüslök""]","jüslöm","esp trial","0","true"
"html-button-response","72","585859","0.0-11.0-1.30","null","<p>A másik játékos ezt választotta: <b>jüslöm</b>.</p><p>&#x2705;</p><p>A te válaszod és a másik játékos válasza <b>megegyeznek</b>.</p>","null","","","","feedback trial","",""
"html-button-response-esp","73","594258","0.0-11.0-0.31","4991","Te bizony sokat hilarzol. Én is sokat...","1","hilarzok","[""hilarzom"",""hilarzok""]","hilarzok","esp trial","0","true"
"html-button-response","74","597771","0.0-11.0-1.31","null","<p>A másik játékos ezt választotta: <b>hilarzok</b>.</p><p>&#x2705;</p><p>A te válaszod és a másik játékos válasza <b>megegyeznek</b>.</p>","null","","","","feedback trial","",""
"html-button-response-esp","75","606184","0.0-11.0-0.32","3065","Te bizony sokat spilágzol. Én is sokat...","1","spilágzok","[""spilágzom"",""spilágzok""]","spilágzok","esp trial","0","true"
"html-button-response","76","609711","0.0-11.0-1.32","null","<p>A másik játékos ezt választotta: <b>spilágzok</b>.</p><p>&#x2705;</p><p>A te válaszod és a másik játékos válasza <b>megegyeznek</b>.</p>","null","","","","feedback trial","",""
"html-button-response-esp","77","618122","0.0-11.0-0.33","5027","Te bizony sokat sprökszöl. Én is sokat...","0","sprökszöm","[""sprökszöm"",""sprökszök""]","sprökszök","esp trial","0","false"
"html-button-response","78","621645","0.0-11.0-1.33","null","<p>A másik játékos ezt választotta: <b>sprökszök</b>.</p><p>&#10060;</p><p>A válaszaitok <b>nem</b> egyeznek meg.</p>","null","","","","feedback trial","",""
"html-button-response-esp","79","630077","0.0-11.0-0.34","5210","Te bizony sokat fretszel. Én is sokat...","0","fretszem","[""fretszem"",""fretszek""]","fretszek","esp trial","0","false"
"html-button-response","80","633612","0.0-11.0-1.34","null","<p>A másik játékos ezt választotta: <b>fretszek</b>.</p><p>&#10060;</p><p>A válaszaitok <b>nem</b> egyeznek meg.</p>","null","","","","feedback trial","",""
"html-button-response-esp","81","642035","0.0-11.0-0.35","5622","Te bizony sokat nyáslasz. Én is sokat...","1","nyáslok","[""nyáslom"",""nyáslok""]","nyáslok","esp trial","0","true"
"html-button-response","82","645565","0.0-11.0-1.35","null","<p>A másik játékos ezt választotta: <b>nyáslok</b>.</p><p>&#x2705;</p><p>A te válaszod és a másik játékos válasza <b>megegyeznek</b>.</p>","null","","","","feedback trial","",""
"html-button-response-esp","83","653983","0.0-11.0-0.36","4413","Te bizony sokat vilakszol. Én is sokat...","0","vilakszom","[""vilakszom"",""vilakszok""]","vilakszok","esp trial","0","false"
"html-button-response","84","657502","0.0-11.0-1.36","null","<p>A másik játékos ezt választotta: <b>vilakszok</b>.</p><p>&#10060;</p><p>A válaszaitok <b>nem</b> egyeznek meg.</p>","null","","","","feedback trial","",""
"html-button-response-esp","85","665926","0.0-11.0-0.37","4561","Te bizony sokat lorjódzol. Én is sokat...","1","lorjódzom","[""lorjódzok"",""lorjódzom""]","lorjódzok","esp trial","0","false"
"html-button-response","86","669443","0.0-11.0-1.37","null","<p>A másik játékos ezt választotta: <b>lorjódzok</b>.</p><p>&#10060;</p><p>A válaszaitok <b>nem</b> egyeznek meg.</p>","null","","","","feedback trial","",""
"html-button-response-esp","87","677853","0.0-11.0-0.38","6207","Te bizony sokat feténylesz. Én is sokat...","0","feténylek","[""feténylek"",""feténylem""]","feténylem","esp trial","0","false"
"html-button-response","88","681387","0.0-11.0-1.38","null","<p>A másik játékos ezt választotta: <b>feténylem</b>.</p><p>&#10060;</p><p>A válaszaitok <b>nem</b> egyeznek meg.</p>","null","","","","feedback trial","",""
"html-button-response-esp","89","689795","0.0-11.0-0.39","5134","Te bizony sokat spűmlesz. Én is sokat...","1","spűmlök","[""spűmlöm"",""spűmlök""]","spűmlöm","esp trial","0","false"
"html-button-response","90","693315","0.0-11.0-1.39","null","<p>A másik játékos ezt választotta: <b>spűmlöm</b>.</p><p>&#10060;</p><p>A válaszaitok <b>nem</b> egyeznek meg.</p>","null","","","","feedback trial","",""
"html-button-response-esp","91","701730","0.0-11.0-0.40","4198","Te bizony sokat klörlesz. Én is sokat...","1","klörlök","[""klörlöm"",""klörlök""]","klörlök","esp trial","0","true"
"html-button-response","92","705252","0.0-11.0-1.40","null","<p>A másik játékos ezt választotta: <b>klörlök</b>.</p><p>&#x2705;</p><p>A te válaszod és a másik játékos válasza <b>megegyeznek</b>.</p>","null","","","","feedback trial","",""
"html-button-response-esp","93","713672","0.0-11.0-0.41","4789","Te bizony sokat marzol. Én is sokat...","0","marzok","[""marzok"",""marzom""]","marzom","esp trial","0","false"
"html-button-response","94","717190","0.0-11.0-1.41","null","<p>A másik játékos ezt választotta: <b>marzom</b>.</p><p>&#10060;</p><p>A válaszaitok <b>nem</b> egyeznek meg.</p>","null","","","","feedback trial","",""
"html-button-response-esp","95","725615","0.0-11.0-0.42","7379","Te bizony sokat spéslesz. Én is sokat...","1","spéslek","[""spéslem"",""spéslek""]","spéslem","esp trial","0","false"
"html-button-response","96","729138","0.0-11.0-1.42","null","<p>A másik játékos ezt választotta: <b>spéslem</b>.</p><p>&#10060;</p><p>A válaszaitok <b>nem</b> egyeznek meg.</p>","null","","","","feedback trial","",""
"html-button-response-esp","97","737547","0.0-11.0-0.43","5212","Te bizony sokat sztremlesz. Én is sokat...","1","sztremlek","[""sztremlem"",""sztremlek""]","sztremlem","esp trial","0","false"
"html-button-response","98","741078","0.0-11.0-1.43","null","<p>A másik játékos ezt választotta: <b>sztremlem</b>.</p><p>&#10060;</p><p>A válaszaitok <b>nem</b> egyeznek meg.</p>","null","","","","feedback trial","",""
"html-button-response-esp","99","749486","0.0-11.0-0.44","3771","Te bizony sokat fibamlasz. Én is sokat...","1","fibamlok","[""fibamlom"",""fibamlok""]","fibamlom","esp trial","0","false"
"html-button-response","100","753020","0.0-11.0-1.44","null","<p>A másik játékos ezt választotta: <b>fibamlom</b>.</p><p>&#10060;</p><p>A válaszaitok <b>nem</b> egyeznek meg.</p>","null","","","","feedback trial","",""
"html-button-response-esp","101","761425","0.0-11.0-0.45","4719","Te bizony sokat drubódzol. Én is sokat...","0","drubódzom","[""drubódzom"",""drubódzok""]","drubódzok","esp trial","0","false"
"html-button-response","102","764959","0.0-11.0-1.45","null","<p>A másik játékos ezt választotta: <b>drubódzok</b>.</p><p>&#10060;</p><p>A válaszaitok <b>nem</b> egyeznek meg.</p>","null","","","","feedback trial","",""
"html-button-response-esp","103","773381","0.0-11.0-0.46","3731","Te bizony sokat driládzol. Én is sokat...","1","driládzom","[""driládzok"",""driládzom""]","driládzok","esp trial","0","false"
"html-button-response","104","776909","0.0-11.0-1.46","null","<p>A másik játékos ezt választotta: <b>driládzok</b>.</p><p>&#10060;</p><p>A válaszaitok <b>nem</b> egyeznek meg.</p>","null","","","","feedback trial","",""
"html-button-response-esp","105","785330","0.0-11.0-0.47","6171","Te bizony sokat klibamlasz. Én is sokat...","1","klibamlok","[""klibamlom"",""klibamlok""]","klibamlok","esp trial","0","true"
"html-button-response","106","788852","0.0-11.0-1.47","null","<p>A másik játékos ezt választotta: <b>klibamlok</b>.</p><p>&#x2705;</p><p>A te válaszod és a másik játékos válasza <b>megegyeznek</b>.</p>","null","","","","feedback trial","",""
"html-button-response-esp","107","797265","0.0-11.0-0.48","4389","Te bizony sokat ribegzel. Én is sokat...","1","ribegzem","[""ribegzek"",""ribegzem""]","ribegzek","esp trial","0","false"
"html-button-response","108","800785","0.0-11.0-1.48","null","<p>A másik játékos ezt választotta: <b>ribegzek</b>.</p><p>&#10060;</p><p>A válaszaitok <b>nem</b> egyeznek meg.</p>","null","","","","feedback trial","",""
"html-button-response-esp","109","809204","0.0-11.0-0.49","6610","Te bizony sokat flagárzol. Én is sokat...","1","flagárzom","[""flagárzok"",""flagárzom""]","flagárzok","esp trial","0","false"
"html-button-response","110","812731","0.0-11.0-1.49","null","<p>A másik játékos ezt választotta: <b>flagárzok</b>.</p><p>&#10060;</p><p>A válaszaitok <b>nem</b> egyeznek meg.</p>","null","","","","feedback trial","",""
"html-button-response-esp","111","821539","0.0-11.0-0.50","8303","Te bizony sokat spibaklasz. Én is sokat...","1","spibaklom","[""spibaklok"",""spibaklom""]","spibaklok","esp trial","0","false"
"html-button-response","112","825052","0.0-11.0-1.50","null","<p>A másik játékos ezt választotta: <b>spibaklok</b>.</p><p>&#10060;</p><p>A válaszaitok <b>nem</b> egyeznek meg.</p>","null","","","","feedback trial","",""
"html-button-response-esp","113","833475","0.0-11.0-0.51","4778","Te bizony sokat flüröslesz. Én is sokat...","0","flüröslöm","[""flüröslöm"",""flüröslök""]","flüröslök","esp trial","0","false"
"html-button-response","114","836991","0.0-11.0-1.51","null","<p>A másik játékos ezt választotta: <b>flüröslök</b>.</p><p>&#10060;</p><p>A válaszaitok <b>nem</b> egyeznek meg.</p>","null","","","","feedback trial","",""
"html-button-response-esp","115","846559","0.0-11.0-0.52","9062","Te bizony sokat frilegszel. Én is sokat...","0","frilegszem","[""frilegszem"",""frilegszek""]","frilegszek","esp trial","0","false"
"html-button-response","116","850071","0.0-11.0-1.52","null","<p>A másik játékos ezt választotta: <b>frilegszek</b>.</p><p>&#10060;</p><p>A válaszaitok <b>nem</b> egyeznek meg.</p>","null","","","","feedback trial","",""
"html-button-response-esp","117","858479","0.0-11.0-0.53","5657","Te bizony sokat piragszol. Én is sokat...","1","piragszom","[""piragszok"",""piragszom""]","piragszok","esp trial","0","false"
"html-button-response","118","862007","0.0-11.0-1.53","null","<p>A másik játékos ezt választotta: <b>piragszok</b>.</p><p>&#10060;</p><p>A válaszaitok <b>nem</b> egyeznek meg.</p>","null","","","","feedback trial","",""
"html-button-response","119","873167","0.0-12.0","10639","<p>A közös játék most véget ért.</p><p>Mielőtt eláruljuk a végső pontszámodat, arra kérlek, játszd a szóválasztós játékot néhány percig egyedül is.</p><p>A feladatod ugyanaz lesz, választani két lehetőség közül.</p><p>Most viszont egyedül kell döntened, hogy te melyiket választanád.</p>","0","","","","","",""
"html-button-response-clever","120","879591","0.0-13.0-0.0","5906","Te bizony sokat sztrozlasz. Én is sokat...","1","sztrozlom","[""sztrozlok"",""sztrozlom""]","","posttest trial","4",""
"html-button-response-clever","121","883622","0.0-13.0-0.1","3527","Te bizony sokat filágzol. Én is sokat...","0","filágzom","[""filágzom"",""filágzok""]","","posttest trial","4",""
"html-button-response-clever","122","888109","0.0-13.0-0.2","3967","Te bizony sokat salárzol. Én is sokat...","1","salárzom","[""salárzok"",""salárzom""]","","posttest trial","4",""
"html-button-response-clever","123","892874","0.0-13.0-0.3","4253","Te bizony sokat spüjzöl. Én is sokat...","0","spüjzök","[""spüjzök"",""spüjzöm""]","","posttest trial","4",""
"html-button-response-clever","124","896856","0.0-13.0-0.4","3478","Te bizony sokat pítszol. Én is sokat...","1","pítszom","[""pítszok"",""pítszom""]","","posttest trial","4",""
"html-button-response-clever","125","900845","0.0-13.0-0.5","3484","Te bizony sokat huroslasz. Én is sokat...","0","huroslom","[""huroslom"",""huroslok""]","","posttest trial","4",""
"html-button-response-clever","126","906956","0.0-13.0-0.6","5606","Te bizony sokat hurjorzol. Én is sokat...","1","hurjorzom","[""hurjorzok"",""hurjorzom""]","","posttest trial","4",""
"html-button-response-clever","127","912614","0.0-13.0-0.7","5152","Te bizony sokat trehégszel. Én is sokat...","1","trehégszek","[""trehégszem"",""trehégszek""]","","posttest trial","4",""
"html-button-response-clever","128","919690","0.0-13.0-0.8","6564","Te bizony sokat brubzol. Én is sokat...","0","brubzom","[""brubzom"",""brubzok""]","","posttest trial","4",""
"html-button-response-clever","129","925715","0.0-13.0-0.9","5512","Te bizony sokat spülűdzöl. Én is sokat...","1","spülűdzöm","[""spülűdzök"",""spülűdzöm""]","","posttest trial","4",""
"html-button-response-clever","130","930314","0.0-13.0-0.10","4094","Te bizony sokat ibékszel. Én is sokat...","1","ibékszem","[""ibékszek"",""ibékszem""]","","posttest trial","4",""
"html-button-response-clever","131","941193","0.0-13.0-0.11","10368","Te bizony sokat spihegzel. Én is sokat...","1","spihegzem","[""spihegzek"",""spihegzem""]","","posttest trial","4",""
"html-button-response-clever","132","949147","0.0-13.0-0.12","7445","Te bizony sokat düjzöl. Én is sokat...","0","düjzöm","[""düjzöm"",""düjzök""]","","posttest trial","4",""
"html-button-response-clever","133","953103","0.0-13.0-0.13","3443","Te bizony sokat plűbzöl. Én is sokat...","1","plűbzöm","[""plűbzök"",""plűbzöm""]","","posttest trial","4",""
"html-button-response-clever","134","956610","0.0-13.0-0.14","2989","Te bizony sokat flűmlesz. Én is sokat...","0","flűmlök","[""flűmlök"",""flűmlöm""]","","posttest trial","4",""
"html-button-response-clever","135","961763","0.0-13.0-0.15","4641","Te bizony sokat flehénylesz. Én is sokat...","0","flehénylek","[""flehénylek"",""flehénylem""]","","posttest trial","4",""
"html-button-response-clever","136","965394","0.0-13.0-0.16","3116","Te bizony sokat narádzol. Én is sokat...","0","narádzom","[""narádzom"",""narádzok""]","","posttest trial","4",""
"html-button-response-clever","137","969734","0.0-13.0-0.17","3836","Te bizony sokat gyibeslesz. Én is sokat...","1","gyibeslem","[""gyibeslek"",""gyibeslem""]","","posttest trial","4",""
"html-button-response-clever","138","973635","0.0-13.0-0.18","3391","Te bizony sokat nűröklesz. Én is sokat...","1","nűröklök","[""nűröklöm"",""nűröklök""]","","posttest trial","4",""
"html-button-response-clever","139","976609","0.0-13.0-0.19","2466","Te bizony sokat trádlasz. Én is sokat...","1","trádlom","[""trádlok"",""trádlom""]","","posttest trial","4",""
"html-button-response-clever","140","979985","0.0-13.0-0.20","2870","Te bizony sokat pribemlesz. Én is sokat...","0","pribemlem","[""pribemlem"",""pribemlek""]","","posttest trial","4",""
"html-button-response-clever","141","986426","0.0-13.0-0.21","5939","Te bizony sokat spihemlesz. Én is sokat...","1","spihemlek","[""spihemlem"",""spihemlek""]","","posttest trial","4",""
"html-button-response-clever","142","989657","0.0-13.0-0.22","2714","Te bizony sokat vanylasz. Én is sokat...","1","vanylok","[""vanylom"",""vanylok""]","","posttest trial","4",""
"html-button-response-clever","143","993697","0.0-13.0-0.23","3535","Te bizony sokat sztrijzol. Én is sokat...","1","sztrijzom","[""sztrijzok"",""sztrijzom""]","","posttest trial","4",""
"html-button-response-clever","144","998907","0.0-13.0-0.24","4699","Te bizony sokat brobódzol. Én is sokat...","1","brobódzok","[""brobódzom"",""brobódzok""]","","posttest trial","4",""
"html-button-response-clever","145","1008834","0.0-13.0-0.25","9419","Te bizony sokat pribagszol. Én is sokat...","0","pribagszom","[""pribagszom"",""pribagszok""]","","posttest trial","4",""
"html-button-response-clever","146","1013228","0.0-13.0-0.26","3889","Te bizony sokat szibánylasz. Én is sokat...","1","szibánylok","[""szibánylom"",""szibánylok""]","","posttest trial","4",""
"html-button-response-clever","147","1016106","0.0-13.0-0.27","2372","Te bizony sokat prínylasz. Én is sokat...","1","prínylok","[""prínylom"",""prínylok""]","","posttest trial","4",""
"html-button-response-clever","148","1019599","0.0-13.0-0.28","2978","Te bizony sokat bivégszel. Én is sokat...","1","bivégszem","[""bivégszek"",""bivégszem""]","","posttest trial","4",""
"html-button-response-clever","149","1024367","0.0-13.0-0.29","4256","Te bizony sokat klaráglasz. Én is sokat...","1","klaráglok","[""klaráglom"",""klaráglok""]","","posttest trial","4",""
"html-button-response-clever","150","1030199","0.0-13.0-0.30","5327","Te bizony sokat spubonylasz. Én is sokat...","1","spubonylok","[""spubonylom"",""spubonylok""]","","posttest trial","4",""
"html-button-response-clever","151","1034171","0.0-13.0-0.31","3466","Te bizony sokat flátszol. Én is sokat...","0","flátszom","[""flátszom"",""flátszok""]","","posttest trial","4",""
"html-button-response-clever","152","1038233","0.0-13.0-0.32","3554","Te bizony sokat figlasz. Én is sokat...","1","figlom","[""figlok"",""figlom""]","","posttest trial","4",""
"html-button-response-clever","153","1041949","0.0-13.0-0.33","3202","Te bizony sokat tragzol. Én is sokat...","1","tragzok","[""tragzom"",""tragzok""]","","posttest trial","4",""
"html-button-response-clever","154","1053304","0.0-13.0-0.34","10842","Te bizony sokat spröbzöl. Én is sokat...","0","spröbzöm","[""spröbzöm"",""spröbzök""]","","posttest trial","4",""
"html-button-response-clever","155","1056515","0.0-13.0-0.35","2701","Te bizony sokat rájzol. Én is sokat...","1","rájzok","[""rájzom"",""rájzok""]","","posttest trial","4",""
"html-button-response-clever","156","1060964","0.0-13.0-0.36","3941","Te bizony sokat sztrűkszöl. Én is sokat...","1","sztrűkszöm","[""sztrűkszök"",""sztrűkszöm""]","","posttest trial","4",""
"html-button-response-clever","157","1064423","0.0-13.0-0.37","2956","Te bizony sokat plugzol. Én is sokat...","1","plugzom","[""plugzok"",""plugzom""]","","posttest trial","4",""
"html-button-response-clever","158","1077282","0.0-13.0-0.38","12340","Te bizony sokat flehékszel. Én is sokat...","0","flehékszem","[""flehékszem"",""flehékszek""]","","posttest trial","4",""
"html-button-response-clever","159","1081339","0.0-13.0-0.39","3542","Te bizony sokat treglesz. Én is sokat...","0","treglek","[""treglek"",""treglem""]","","posttest trial","4",""
"html-button-response-clever","160","1085747","0.0-13.0-0.40","3895","Te bizony sokat vülődzöl. Én is sokat...","1","vülődzök","[""vülődzöm"",""vülődzök""]","","posttest trial","4",""
"html-button-response-clever","161","1089719","0.0-13.0-0.41","3462","Te bizony sokat spáraklasz. Én is sokat...","1","spáraklok","[""spáraklom"",""spáraklok""]","","posttest trial","4",""
"html-button-response-clever","162","1092777","0.0-13.0-0.42","2551","Te bizony sokat píjlasz. Én is sokat...","1","píjlom","[""píjlok"",""píjlom""]","","posttest trial","4",""
"html-button-response-clever","163","1095676","0.0-13.0-0.43","2392","Te bizony sokat jonylasz. Én is sokat...","1","jonylom","[""jonylok"",""jonylom""]","","posttest trial","4",""
"html-button-response-clever","164","1099530","0.0-13.0-0.44","3347","Te bizony sokat hűgzöl. Én is sokat...","1","hűgzöm","[""hűgzök"",""hűgzöm""]","","posttest trial","4",""
"html-button-response-clever","165","1105833","0.0-13.0-0.45","5791","Te bizony sokat brivegzel. Én is sokat...","1","brivegzek","[""brivegzem"",""brivegzek""]","","posttest trial","4",""
"html-button-response-clever","166","1110551","0.0-13.0-0.46","4211","Te bizony sokat lörűdzöl. Én is sokat...","1","lörűdzök","[""lörűdzöm"",""lörűdzök""]","","posttest trial","4",""
"html-button-response-clever","167","1114129","0.0-13.0-0.47","3071","Te bizony sokat klivaslasz. Én is sokat...","1","klivaslok","[""klivaslom"",""klivaslok""]","","posttest trial","4",""
"html-button-response-clever","168","1116986","0.0-13.0-0.48","2352","Te bizony sokat rokszol. Én is sokat...","1","rokszom","[""rokszok"",""rokszom""]","","posttest trial","4",""
"html-button-response-clever","169","1120617","0.0-13.0-0.49","3129","Te bizony sokat frodlasz. Én is sokat...","1","frodlok","[""frodlom"",""frodlok""]","","posttest trial","4",""
"html-button-response-clever","170","1124432","0.0-13.0-0.50","3297","Te bizony sokat bűtszöl. Én is sokat...","1","bűtszöm","[""bűtszök"",""bűtszöm""]","","posttest trial","4",""
"html-button-response-clever","171","1128944","0.0-13.0-0.51","4002","Te bizony sokat klétszel. Én is sokat...","1","klétszek","[""klétszem"",""klétszek""]","","posttest trial","4",""
"html-button-response-clever","172","1131954","0.0-13.0-0.52","2501","Te bizony sokat bihánylasz. Én is sokat...","1","bihánylok","[""bihánylom"",""bihánylok""]","","posttest trial","4",""
"html-button-response-clever","173","1135116","0.0-13.0-0.53","2659","Te bizony sokat flitlasz. Én is sokat...","1","flitlok","[""flitlom"",""flitlok""]","","posttest trial","4",""
"html-button-response","174","1141124","0.0-14.0","5499","<p> Vége a játéknak. A teljes pontszámod 13/54.</p><p> Szép munka! &#128526;&#128526;&#128526;</p><p>A Befejezés gomb megnyomása után bezárhatod a böngészőablakot.</p>","0","","","","","",""
"html-keyboard-response","175","1146636","0.0-15.0","null","<div class=""message"">
         <p>Egy kis türelmet kérünk, amíg elmentjük az adatokat...</p>
         </div>","null","","","","","",""
