"trial_type","trial_index","time_elapsed","internal_node_id","rt","stimulus","response","response_string","choices","esp_response","trial_kind","list_number","esp_match"
"pavlovia","0","755","0.0-0.0","","","","","","","","",""
"html-button-response","1","50887","0.0-1.0","49576","<p>Kedves Résztvevő! A Budapesti Műszaki és Gazdaságtudományi Egyetem Kognitív Tudományi Tanszékének kutatásában való részvételed kérjük. A kutatásban azt vizsgáljuk, hogy a magyar anyanyelvűek hogyan használnak bizonyos szóalakokat, és hogy milyen képük van arról, hogy mások hogyan használják, hogyan képzik a szavakat. Ez hozzásegít bennünket ahhoz, hogy jobban megértsük, hogyan dolgozza fel és tárolja a nyelvet az emberi agy, és hogyan működnek, hogyan változnak egy adott közösség nyelvi konvenciói.</p><p>A vizsgálat egy rövid számítógépes feladatból fog állni. A kutatásban való részvétel önkéntes, a részvételi szándék bármikor visszavonható. A résztvevők eredményeit név nélkül kezeljük, így nem beazonosíthatók az adatok feldolgozása során. Minden személyes adatot az EU általános adatvédelmi rendeletének (GDPR) megfelelően kezelünk és legfeljebb öt éven belül megsemmisítünk. A vizsgálat jellemzően húsz percet vesz igénybe.</p><p>Kutatásvezető:</p><p>Dr. Rácz Péter, tudományos munkatárs, BME KTT</p><p>e-mail: racz.peter.marton@ttk.bme.hu</p>","0","","","","","",""
"html-button-response","2","95657","0.0-2.0","44262","<p>A kísérletben szavakat fogsz látni. Ezek között lesznek olyanok, amelyeket ismersz, de előfordulhatnak olyanok is, amelyeket nem ismersz, sőt, vannak köztük kitalált szavak is. Minden szónál látni fogsz toldalékolt alakokat. A te feladatod az lesz, hogy minden szóhoz kiválaszd azt a toldalékolt alakot, amely a te számodra ismerősebben, természetesebben hangzik. Rossz válaszok nincsenek, mert van olyan, hogy különböző embereknek más és más szó tűnik jobb választásnak. A választ úgy tudod majd kiválasztani, ha rákattintasz.</p><p>Ebben a szóválasztós játékban egy másik játékossal együtt veszel majd részt. A másik játékos is minden esetben azok közül a lehetőségek közül válogathat, mint te. Kettőtök feladata az, hogy ugyanazt a lehetőséget válasszátok minden esetben. Ahhoz, hogy ez sikerüljön, neked figyelned kell arra, hogy a másik játékos milyen válaszokat ad, és ennek alapján meg kell tippelned, hogyan választ legközelebb. Ha eltalálod, akkor pontot kapsz.</p>","0","","","","","",""
"html-button-response","3","126471","0.0-3.0","30296","<p>Kérjük, olvasd el az alábbi nyilatkozatot, és amennyiben egyetértesz vele, nyomj a Beleegyezés gombra!</p><p>Kijelentem, hogy magyar anyanyelvű személyként önként veszek részt a BME KTT kísérletében. A kutatás céljával és folyamatával kapcsolatban elegendő tájékoztatást kaptam, lehetőségem volt kérdések feltételére, és esetleges kérdéseimre megfelelő válaszokat kaptam. A tájékoztatás alapján elegendő mennyiségű információ áll a rendelkezésemre, hogy eldönthessem, részt kívánok-e venni a kutatásban.</p><p>Tisztában vagyok vele, hogy részvételi szándékomat és adataimat bármikor, indoklás nélkül visszavonhatom.</p><p>Értem és tudomásul veszem, hogy a kutatás tudományos célokat szolgál, és az általam szolgáltatott adatokat a BME kizárólag kutatási célból használja fel. Tudomásul veszem, hogy eredményeimet a többi résztvevő eredményeivel együtt kezelik, így egyéni teljesítményemről visszajelzést, szakvéleményt nem kapok.</p><p>Megértettem, hogy adataim kezelését illetően a BME az EU általános adatvédelmi rendelete (GDPR), a hatályos adatvédelmi törvény és a nemzetközi kutatás-etikai alapelvek szerint jár el. Eredményeim anonim módon kerülnek feldolgozásra, és a kutatás résztvevői az azonosításomra alkalmas adataimat harmadik félnek nem szolgáltatják ki. Engedélyezem a BME számára a jelen kutatásban felvett adataim feldolgozását és tárolását, beleértve azok későbbi kutatásokhoz való felhasználását is. Személyes adataim kezelésével kapcsolatban tájékoztatást kérhetek a kutatás résztvevőitől, az adatkezelés ellen tiltakozhatok, kérhetem személyes adataim helyesbítését, törlését vagy zárolását, valamint jogorvoslatért a Nemzeti Adatvédelmi és Információszabadság Hatósághoz fordulhatok.</p><p>Kijelentem, hogy a kutatásban való részvételem körülményeiről részletes tájékoztatást kaptam, és a feltételeket elfogadom.</p>","0","","","","","",""
"survey-text","4","183085","0.0-4.0","56073","","{""Q0"":""fmgttz"",""Q1"":""nő"",""Q2"":""1998"",""Q3"":""16""}","","","","","",""
"html-button-response","5","214436","0.0-5.0","30843","<p>Ebben a játékban szavakat kell toldalékolni.</p> <p>Minden körben mutatunk majd egy példamondatot, amiben lesz egy szó.</p> <p>Alatta jön egy második mondat, ezt a mondatot neked kell majd befejezni, ugyanezzel a szóval.</p> <p>Nem biztos, hogy a szó eleve ismerős lesz számodra!</p> <p>Minden mondathoz adunk két lehetőséget, ezeket balra és jobbra látod majd.</p> <p>A játék kb. negyedóráig-húsz percig tart.</p>","0","","","","","",""
"html-button-response","6","288238","0.0-6.0","73292","<p>Nézzünk egy példát!</p> <p>A példamondat: ""János nagyon szeret rancsúrozni.""</p><p>Neked ezt a mondatot kell befejezned: ""Én is szívesen...""</p><p>A lehetőségek pedig ezek:</p>","0","","","","","",""
"html-button-response","7","295463","0.0-7.0","6709","<p>Nagyon jó.</p><p>Ezt a játékot nem egyedül fogod játszani, hanem egy másik játékossal.</p><p>Mielőtt továbblépünk, összekapcsolunk titeket egymással.</p><p>Ez igénybe vehet néhány másodpercet, amihez szíves türelmed kérjük.</p>","0","","","","","",""
"html-button-response","8","301211","0.0-8.0","null","<p>Csatlakozás a másik játékoshoz...</p>","null","","","","","",""
"html-button-response","9","303750","0.0-9.0","null","<p> Sikeres kapcsolódás!</p>","null","","","","","",""
"html-button-response","10","314285","0.0-10.0","null","<p>A következőkben ketten játsszátok a szóválasztós játékot.</p><p>A feladatotok az lesz, hogy minden körben <b>ugyanazt</b> a szót válasszátok.</p><p>Minden ilyen egyező válaszért pontot kaptok.</p><p>Próbáld meg kitalálni, mit választ a másik játékos!</p><p>Bármikor választhatsz, a körnek akkor van vége, ha mindketten döntöttetek.</p><p>Sok sikert!</p>","null","","","","","",""
"html-button-response-esp","11","324016","0.0-11.0-0.0","9215","Te bizony sokat spatszol. Én is sokat...","1","spatszom","[""spatszok"",""spatszom""]","spatszok","esp trial","8","false"
"html-button-response","12","327536","0.0-11.0-1.0","null","<p>A másik játékos ezt választotta: <b>spatszok</b>.</p><p>&#10060;</p><p>A válaszaitok <b>nem</b> egyeznek meg.</p>","null","","","","feedback trial","",""
"html-button-response-esp","13","332260","0.0-11.0-0.1","4042","Te bizony sokat plágadzol. Én is sokat...","1","plágadzok","[""plágadzom"",""plágadzok""]","plágadzok","esp trial","8","true"
"html-button-response","14","335798","0.0-11.0-1.1","null","<p>A másik játékos ezt választotta: <b>plágadzok</b>.</p><p>&#x2705;</p><p>A te válaszod és a másik játékos válasza <b>megegyeznek</b>.</p>","null","","","","feedback trial","",""
"html-button-response-esp","15","340645","0.0-11.0-0.2","4340","Te bizony sokat praslasz. Én is sokat...","1","praslok","[""praslom"",""praslok""]","praslom","esp trial","8","false"
"html-button-response","16","344165","0.0-11.0-1.2","null","<p>A másik játékos ezt választotta: <b>praslom</b>.</p><p>&#10060;</p><p>A válaszaitok <b>nem</b> egyeznek meg.</p>","null","","","","feedback trial","",""
"html-button-response-esp","17","352780","0.0-11.0-0.3","8093","Te bizony sokat gilárzol. Én is sokat...","0","gilárzom","[""gilárzom"",""gilárzok""]","gilárzok","esp trial","8","false"
"html-button-response","18","356314","0.0-11.0-1.3","null","<p>A másik játékos ezt választotta: <b>gilárzok</b>.</p><p>&#10060;</p><p>A válaszaitok <b>nem</b> egyeznek meg.</p>","null","","","","feedback trial","",""
"html-button-response-esp","19","361047","0.0-11.0-0.4","2754","Te bizony sokat táklasz. Én is sokat...","0","táklok","[""táklok"",""táklom""]","táklok","esp trial","8","true"
"html-button-response","20","364571","0.0-11.0-1.4","null","<p>A másik játékos ezt választotta: <b>táklok</b>.</p><p>&#x2705;</p><p>A te válaszod és a másik játékos válasza <b>megegyeznek</b>.</p>","null","","","","feedback trial","",""
"html-button-response-esp","21","369457","0.0-11.0-0.5","4362","Te bizony sokat zödlesz. Én is sokat...","1","zödlök","[""zödlöm"",""zödlök""]","zödlöm","esp trial","8","false"
"html-button-response","22","372974","0.0-11.0-1.5","null","<p>A másik játékos ezt választotta: <b>zödlöm</b>.</p><p>&#10060;</p><p>A válaszaitok <b>nem</b> egyeznek meg.</p>","null","","","","feedback trial","",""
"html-button-response-esp","23","377834","0.0-11.0-0.6","4343","Te bizony sokat drügzöl. Én is sokat...","0","drügzöm","[""drügzöm"",""drügzök""]","drügzök","esp trial","8","false"
"html-button-response","24","381370","0.0-11.0-1.6","null","<p>A másik játékos ezt választotta: <b>drügzök</b>.</p><p>&#10060;</p><p>A válaszaitok <b>nem</b> egyeznek meg.</p>","null","","","","feedback trial","",""
"html-button-response-esp","25","387328","0.0-11.0-0.7","5439","Te bizony sokat ibáglasz. Én is sokat...","0","ibáglom","[""ibáglom"",""ibáglok""]","ibáglok","esp trial","8","false"
"html-button-response","26","390851","0.0-11.0-1.7","null","<p>A másik játékos ezt választotta: <b>ibáglok</b>.</p><p>&#10060;</p><p>A válaszaitok <b>nem</b> egyeznek meg.</p>","null","","","","feedback trial","",""
"html-button-response-esp","27","397398","0.0-11.0-0.8","6029","Te bizony sokat brarlasz. Én is sokat...","0","brarlok","[""brarlok"",""brarlom""]","brarlom","esp trial","8","false"
"html-button-response","28","400928","0.0-11.0-1.8","null","<p>A másik játékos ezt választotta: <b>brarlom</b>.</p><p>&#10060;</p><p>A válaszaitok <b>nem</b> egyeznek meg.</p>","null","","","","feedback trial","",""
"html-button-response-esp","29","406700","0.0-11.0-0.9","5267","Te bizony sokat féjzel. Én is sokat...","0","féjzek","[""féjzek"",""féjzem""]","féjzek","esp trial","8","true"
"html-button-response","30","410227","0.0-11.0-1.9","null","<p>A másik játékos ezt választotta: <b>féjzek</b>.</p><p>&#x2705;</p><p>A te válaszod és a másik játékos válasza <b>megegyeznek</b>.</p>","null","","","","feedback trial","",""
"html-button-response-esp","31","414964","0.0-11.0-0.10","3558","Te bizony sokat floglasz. Én is sokat...","1","floglok","[""floglom"",""floglok""]","floglok","esp trial","8","true"
"html-button-response","32","418491","0.0-11.0-1.10","null","<p>A másik játékos ezt választotta: <b>floglok</b>.</p><p>&#x2705;</p><p>A te válaszod és a másik játékos válasza <b>megegyeznek</b>.</p>","null","","","","feedback trial","",""
"html-button-response-esp","33","423223","0.0-11.0-0.11","2947","Te bizony sokat péleslesz. Én is sokat...","1","péleslem","[""péleslek"",""péleslem""]","péleslek","esp trial","8","false"
"html-button-response","34","426745","0.0-11.0-1.11","null","<p>A másik játékos ezt választotta: <b>péleslek</b>.</p><p>&#10060;</p><p>A válaszaitok <b>nem</b> egyeznek meg.</p>","null","","","","feedback trial","",""
"html-button-response-esp","35","431478","0.0-11.0-0.12","4128","Te bizony sokat spüszlesz. Én is sokat...","1","spüszlöm","[""spüszlök"",""spüszlöm""]","spüszlök","esp trial","8","false"
"html-button-response","36","434999","0.0-11.0-1.12","null","<p>A másik játékos ezt választotta: <b>spüszlök</b>.</p><p>&#10060;</p><p>A válaszaitok <b>nem</b> egyeznek meg.</p>","null","","","","feedback trial","",""
"html-button-response-esp","37","441566","0.0-11.0-0.13","6048","Te bizony sokat sprálszol. Én is sokat...","1","sprálszom","[""sprálszok"",""sprálszom""]","sprálszok","esp trial","8","false"
"html-button-response","38","445097","0.0-11.0-1.13","null","<p>A másik játékos ezt választotta: <b>sprálszok</b>.</p><p>&#10060;</p><p>A válaszaitok <b>nem</b> egyeznek meg.</p>","null","","","","feedback trial","",""
"html-button-response-esp","39","450470","0.0-11.0-0.14","4855","Te bizony sokat sprédlesz. Én is sokat...","1","sprédlem","[""sprédlek"",""sprédlem""]","sprédlem","esp trial","8","true"
"html-button-response","40","453991","0.0-11.0-1.14","null","<p>A másik játékos ezt választotta: <b>sprédlem</b>.</p><p>&#x2705;</p><p>A te válaszod és a másik játékos válasza <b>megegyeznek</b>.</p>","null","","","","feedback trial","",""
"html-button-response-esp","41","460442","0.0-11.0-0.15","5945","Te bizony sokat mékszel. Én is sokat...","0","mékszem","[""mékszem"",""mékszek""]","mékszek","esp trial","8","false"
"html-button-response","42","463980","0.0-11.0-1.15","null","<p>A másik játékos ezt választotta: <b>mékszek</b>.</p><p>&#10060;</p><p>A válaszaitok <b>nem</b> egyeznek meg.</p>","null","","","","feedback trial","",""
"html-button-response-esp","43","470345","0.0-11.0-0.16","5855","Te bizony sokat frágapszol. Én is sokat...","1","frágapszom","[""frágapszok"",""frágapszom""]","frágapszok","esp trial","8","false"
"html-button-response","44","473866","0.0-11.0-1.16","null","<p>A másik játékos ezt választotta: <b>frágapszok</b>.</p><p>&#10060;</p><p>A válaszaitok <b>nem</b> egyeznek meg.</p>","null","","","","feedback trial","",""
"html-button-response-esp","45","479417","0.0-11.0-0.17","5030","Te bizony sokat fliraklasz. Én is sokat...","1","fliraklok","[""fliraklom"",""fliraklok""]","fliraklok","esp trial","8","true"
"html-button-response","46","482946","0.0-11.0-1.17","null","<p>A másik játékos ezt választotta: <b>fliraklok</b>.</p><p>&#x2705;</p><p>A te válaszod és a másik játékos válasza <b>megegyeznek</b>.</p>","null","","","","feedback trial","",""
"html-button-response-esp","47","488162","0.0-11.0-0.18","4693","Te bizony sokat lihadzol. Én is sokat...","0","lihadzok","[""lihadzok"",""lihadzom""]","lihadzok","esp trial","8","true"
"html-button-response","48","491674","0.0-11.0-1.18","null","<p>A másik játékos ezt választotta: <b>lihadzok</b>.</p><p>&#x2705;</p><p>A te válaszod és a másik játékos válasza <b>megegyeznek</b>.</p>","null","","","","feedback trial","",""
"html-button-response-esp","49","497474","0.0-11.0-0.19","5274","Te bizony sokat gerénylesz. Én is sokat...","0","gerénylem","[""gerénylem"",""gerénylek""]","gerénylem","esp trial","8","true"
"html-button-response","50","500995","0.0-11.0-1.19","null","<p>A másik játékos ezt választotta: <b>gerénylem</b>.</p><p>&#x2705;</p><p>A te válaszod és a másik játékos válasza <b>megegyeznek</b>.</p>","null","","","","feedback trial","",""
"html-button-response-esp","51","508079","0.0-11.0-0.20","6561","Te bizony sokat klidlasz. Én is sokat...","1","klidlom","[""klidlok"",""klidlom""]","klidlom","esp trial","8","true"
"html-button-response","52","511605","0.0-11.0-1.20","null","<p>A másik játékos ezt választotta: <b>klidlom</b>.</p><p>&#x2705;</p><p>A te válaszod és a másik játékos válasza <b>megegyeznek</b>.</p>","null","","","","feedback trial","",""
"html-button-response-esp","53","521169","0.0-11.0-0.21","9046","Te bizony sokat spélszel. Én is sokat...","0","spélszek","[""spélszek"",""spélszem""]","spélszek","esp trial","8","true"
"html-button-response","54","524701","0.0-11.0-1.21","null","<p>A másik játékos ezt választotta: <b>spélszek</b>.</p><p>&#x2705;</p><p>A te válaszod és a másik játékos válasza <b>megegyeznek</b>.</p>","null","","","","feedback trial","",""
"html-button-response-esp","55","533861","0.0-11.0-0.22","8641","Te bizony sokat sztruglasz. Én is sokat...","0","sztruglom","[""sztruglom"",""sztruglok""]","sztruglok","esp trial","8","false"
"html-button-response","56","537415","0.0-11.0-1.22","null","<p>A másik játékos ezt választotta: <b>sztruglok</b>.</p><p>&#10060;</p><p>A válaszaitok <b>nem</b> egyeznek meg.</p>","null","","","","feedback trial","",""
"html-button-response-esp","57","543239","0.0-11.0-0.23","5308","Te bizony sokat spírzol. Én is sokat...","1","spírzom","[""spírzok"",""spírzom""]","spírzok","esp trial","8","false"
"html-button-response","58","546760","0.0-11.0-1.23","null","<p>A másik játékos ezt választotta: <b>spírzok</b>.</p><p>&#10060;</p><p>A válaszaitok <b>nem</b> egyeznek meg.</p>","null","","","","feedback trial","",""
"html-button-response-esp","59","552990","0.0-11.0-0.24","5713","Te bizony sokat friszlasz. Én is sokat...","1","friszlom","[""friszlok"",""friszlom""]","friszlok","esp trial","8","false"
"html-button-response","60","556519","0.0-11.0-1.24","null","<p>A másik játékos ezt választotta: <b>friszlok</b>.</p><p>&#10060;</p><p>A válaszaitok <b>nem</b> egyeznek meg.</p>","null","","","","feedback trial","",""
"html-button-response-esp","61","561236","0.0-11.0-0.25","2421","Te bizony sokat flibekszel. Én is sokat...","0","flibekszem","[""flibekszem"",""flibekszek""]","flibekszek","esp trial","8","false"
"html-button-response","62","564762","0.0-11.0-1.25","null","<p>A másik játékos ezt választotta: <b>flibekszek</b>.</p><p>&#10060;</p><p>A válaszaitok <b>nem</b> egyeznek meg.</p>","null","","","","feedback trial","",""
"html-button-response-esp","63","569842","0.0-11.0-0.26","4556","Te bizony sokat prihekszel. Én is sokat...","0","prihekszek","[""prihekszek"",""prihekszem""]","prihekszek","esp trial","8","true"
"html-button-response","64","573370","0.0-11.0-1.26","null","<p>A másik játékos ezt választotta: <b>prihekszek</b>.</p><p>&#x2705;</p><p>A te válaszod és a másik játékos válasza <b>megegyeznek</b>.</p>","null","","","","feedback trial","",""
"html-button-response-esp","65","578101","0.0-11.0-0.27","2227","Te bizony sokat huklasz. Én is sokat...","0","huklom","[""huklom"",""huklok""]","huklok","esp trial","8","false"
"html-button-response","66","581631","0.0-11.0-1.27","null","<p>A másik játékos ezt választotta: <b>huklok</b>.</p><p>&#10060;</p><p>A válaszaitok <b>nem</b> egyeznek meg.</p>","null","","","","feedback trial","",""
"html-button-response-esp","67","586355","0.0-11.0-0.28","4103","Te bizony sokat fivénylesz. Én is sokat...","0","fivénylek","[""fivénylek"",""fivénylem""]","fivénylek","esp trial","8","true"
"html-button-response","68","589895","0.0-11.0-1.28","null","<p>A másik játékos ezt választotta: <b>fivénylek</b>.</p><p>&#x2705;</p><p>A te válaszod és a másik játékos válasza <b>megegyeznek</b>.</p>","null","","","","feedback trial","",""
"html-button-response-esp","69","594608","0.0-11.0-0.29","3968","Te bizony sokat flözlesz. Én is sokat...","1","flözlöm","[""flözlök"",""flözlöm""]","flözlöm","esp trial","8","true"
"html-button-response","70","598141","0.0-11.0-1.29","null","<p>A másik játékos ezt választotta: <b>flözlöm</b>.</p><p>&#x2705;</p><p>A te válaszod és a másik játékos válasza <b>megegyeznek</b>.</p>","null","","","","feedback trial","",""
"html-button-response-esp","71","602866","0.0-11.0-0.30","3370","Te bizony sokat szűslesz. Én is sokat...","0","szűslök","[""szűslök"",""szűslöm""]","szűslöm","esp trial","8","false"
"html-button-response","72","606399","0.0-11.0-1.30","null","<p>A másik játékos ezt választotta: <b>szűslöm</b>.</p><p>&#10060;</p><p>A válaszaitok <b>nem</b> egyeznek meg.</p>","null","","","","feedback trial","",""
"html-button-response-esp","73","611125","0.0-11.0-0.31","2774","Te bizony sokat plövőrzöl. Én is sokat...","0","plövőrzöm","[""plövőrzöm"",""plövőrzök""]","plövőrzök","esp trial","8","false"
"html-button-response","74","614655","0.0-11.0-1.31","null","<p>A másik játékos ezt választotta: <b>plövőrzök</b>.</p><p>&#10060;</p><p>A válaszaitok <b>nem</b> egyeznek meg.</p>","null","","","","feedback trial","",""
"html-button-response-esp","75","619789","0.0-11.0-0.32","4619","Te bizony sokat frivajlasz. Én is sokat...","1","frivajlok","[""frivajlom"",""frivajlok""]","frivajlom","esp trial","8","false"
"html-button-response","76","623318","0.0-11.0-1.32","null","<p>A másik játékos ezt választotta: <b>frivajlom</b>.</p><p>&#10060;</p><p>A válaszaitok <b>nem</b> egyeznek meg.</p>","null","","","","feedback trial","",""
"html-button-response-esp","77","628051","0.0-11.0-0.33","3536","Te bizony sokat vűjlesz. Én is sokat...","0","vűjlöm","[""vűjlöm"",""vűjlök""]","vűjlöm","esp trial","8","true"
"html-button-response","78","631574","0.0-11.0-1.33","null","<p>A másik játékos ezt választotta: <b>vűjlöm</b>.</p><p>&#x2705;</p><p>A te válaszod és a másik játékos válasza <b>megegyeznek</b>.</p>","null","","","","feedback trial","",""
"html-button-response-esp","79","636292","0.0-11.0-0.34","2934","Te bizony sokat prohódzol. Én is sokat...","0","prohódzok","[""prohódzok"",""prohódzom""]","prohódzok","esp trial","8","true"
"html-button-response","80","639828","0.0-11.0-1.34","null","<p>A másik játékos ezt választotta: <b>prohódzok</b>.</p><p>&#x2705;</p><p>A te válaszod és a másik játékos válasza <b>megegyeznek</b>.</p>","null","","","","feedback trial","",""
"html-button-response-esp","81","644555","0.0-11.0-0.35","3677","Te bizony sokat aglasz. Én is sokat...","0","aglok","[""aglok"",""aglom""]","aglok","esp trial","8","true"
"html-button-response","82","648070","0.0-11.0-1.35","null","<p>A másik játékos ezt választotta: <b>aglok</b>.</p><p>&#x2705;</p><p>A te válaszod és a másik játékos válasza <b>megegyeznek</b>.</p>","null","","","","feedback trial","",""
"html-button-response-esp","83","652798","0.0-11.0-0.36","2550","Te bizony sokat klárzol. Én is sokat...","1","klárzom","[""klárzok"",""klárzom""]","klárzok","esp trial","8","false"
"html-button-response","84","656320","0.0-11.0-1.36","null","<p>A másik játékos ezt választotta: <b>klárzok</b>.</p><p>&#10060;</p><p>A válaszaitok <b>nem</b> egyeznek meg.</p>","null","","","","feedback trial","",""
"html-button-response-esp","85","661054","0.0-11.0-0.37","2256","Te bizony sokat fligzol. Én is sokat...","1","fligzok","[""fligzom"",""fligzok""]","fligzok","esp trial","8","true"
"html-button-response","86","664580","0.0-11.0-1.37","null","<p>A másik játékos ezt választotta: <b>fligzok</b>.</p><p>&#x2705;</p><p>A te válaszod és a másik játékos válasza <b>megegyeznek</b>.</p>","null","","","","feedback trial","",""
"html-button-response-esp","87","669312","0.0-11.0-0.38","2163","Te bizony sokat gyibakszol. Én is sokat...","1","gyibakszom","[""gyibakszok"",""gyibakszom""]","gyibakszok","esp trial","8","false"
"html-button-response","88","672823","0.0-11.0-1.38","null","<p>A másik játékos ezt választotta: <b>gyibakszok</b>.</p><p>&#10060;</p><p>A válaszaitok <b>nem</b> egyeznek meg.</p>","null","","","","feedback trial","",""
"html-button-response-esp","89","677539","0.0-11.0-0.39","1933","Te bizony sokat vihepszel. Én is sokat...","1","vihepszem","[""vihepszek"",""vihepszem""]","vihepszek","esp trial","8","false"
"html-button-response","90","681060","0.0-11.0-1.39","null","<p>A másik játékos ezt választotta: <b>vihepszek</b>.</p><p>&#10060;</p><p>A válaszaitok <b>nem</b> egyeznek meg.</p>","null","","","","feedback trial","",""
"html-button-response-esp","91","685796","0.0-11.0-0.40","3019","Te bizony sokat gyivádzol. Én is sokat...","1","gyivádzok","[""gyivádzom"",""gyivádzok""]","gyivádzok","esp trial","8","true"
"html-button-response","92","689319","0.0-11.0-1.40","null","<p>A másik játékos ezt választotta: <b>gyivádzok</b>.</p><p>&#x2705;</p><p>A te válaszod és a másik játékos válasza <b>megegyeznek</b>.</p>","null","","","","feedback trial","",""
"html-button-response-esp","93","694031","0.0-11.0-0.41","3373","Te bizony sokat tuboklasz. Én is sokat...","1","tuboklom","[""tuboklok"",""tuboklom""]","tuboklok","esp trial","8","false"
"html-button-response","94","697555","0.0-11.0-1.41","null","<p>A másik játékos ezt választotta: <b>tuboklok</b>.</p><p>&#10060;</p><p>A válaszaitok <b>nem</b> egyeznek meg.</p>","null","","","","feedback trial","",""
"html-button-response-esp","95","702284","0.0-11.0-0.42","3892","Te bizony sokat flérlesz. Én is sokat...","0","flérlek","[""flérlek"",""flérlem""]","flérlem","esp trial","8","false"
"html-button-response","96","705828","0.0-11.0-1.42","null","<p>A másik játékos ezt választotta: <b>flérlem</b>.</p><p>&#10060;</p><p>A válaszaitok <b>nem</b> egyeznek meg.</p>","null","","","","feedback trial","",""
"html-button-response-esp","97","710550","0.0-11.0-0.43","1929","Te bizony sokat csólorzol. Én is sokat...","1","csólorzom","[""csólorzok"",""csólorzom""]","csólorzok","esp trial","8","false"
"html-button-response","98","714098","0.0-11.0-1.43","null","<p>A másik játékos ezt választotta: <b>csólorzok</b>.</p><p>&#10060;</p><p>A válaszaitok <b>nem</b> egyeznek meg.</p>","null","","","","feedback trial","",""
"html-button-response-esp","99","720736","0.0-11.0-0.44","6119","Te bizony sokat spülöklesz. Én is sokat...","0","spülöklök","[""spülöklök"",""spülöklöm""]","spülöklök","esp trial","8","true"
"html-button-response","100","724263","0.0-11.0-1.44","null","<p>A másik játékos ezt választotta: <b>spülöklök</b>.</p><p>&#x2705;</p><p>A te válaszod és a másik játékos válasza <b>megegyeznek</b>.</p>","null","","","","feedback trial","",""
"html-button-response-esp","101","729000","0.0-11.0-0.45","3808","Te bizony sokat prezlesz. Én is sokat...","1","prezlek","[""prezlem"",""prezlek""]","prezlem","esp trial","8","false"
"html-button-response","102","732527","0.0-11.0-1.45","null","<p>A másik játékos ezt választotta: <b>prezlem</b>.</p><p>&#10060;</p><p>A válaszaitok <b>nem</b> egyeznek meg.</p>","null","","","","feedback trial","",""
"html-button-response-esp","103","739966","0.0-11.0-0.46","6925","Te bizony sokat livaklasz. Én is sokat...","1","livaklok","[""livaklom"",""livaklok""]","livaklok","esp trial","8","true"
"html-button-response","104","743490","0.0-11.0-1.46","null","<p>A másik játékos ezt választotta: <b>livaklok</b>.</p><p>&#x2705;</p><p>A te válaszod és a másik játékos válasza <b>megegyeznek</b>.</p>","null","","","","feedback trial","",""
"html-button-response-esp","105","751201","0.0-11.0-0.47","7195","Te bizony sokat spibádzol. Én is sokat...","0","spibádzom","[""spibádzom"",""spibádzok""]","spibádzok","esp trial","8","false"
"html-button-response","106","754727","0.0-11.0-1.47","null","<p>A másik játékos ezt választotta: <b>spibádzok</b>.</p><p>&#10060;</p><p>A válaszaitok <b>nem</b> egyeznek meg.</p>","null","","","","feedback trial","",""
"html-button-response-esp","107","759446","0.0-11.0-0.48","1987","Te bizony sokat pugoslasz. Én is sokat...","0","pugoslom","[""pugoslom"",""pugoslok""]","pugoslom","esp trial","8","true"
"html-button-response","108","762964","0.0-11.0-1.48","null","<p>A másik játékos ezt választotta: <b>pugoslom</b>.</p><p>&#x2705;</p><p>A te válaszod és a másik játékos válasza <b>megegyeznek</b>.</p>","null","","","","feedback trial","",""
"html-button-response-esp","109","771033","0.0-11.0-0.49","7552","Te bizony sokat spülőrzöl. Én is sokat...","1","spülőrzöm","[""spülőrzök"",""spülőrzöm""]","spülőrzök","esp trial","8","false"
"html-button-response","110","774556","0.0-11.0-1.49","null","<p>A másik játékos ezt választotta: <b>spülőrzök</b>.</p><p>&#10060;</p><p>A válaszaitok <b>nem</b> egyeznek meg.</p>","null","","","","feedback trial","",""
"html-button-response-esp","111","779974","0.0-11.0-0.50","4895","Te bizony sokat trihagzol. Én is sokat...","0","trihagzok","[""trihagzok"",""trihagzom""]","trihagzok","esp trial","8","true"
"html-button-response","112","783504","0.0-11.0-1.50","null","<p>A másik játékos ezt választotta: <b>trihagzok</b>.</p><p>&#x2705;</p><p>A te válaszod és a másik játékos válasza <b>megegyeznek</b>.</p>","null","","","","feedback trial","",""
"html-button-response-esp","113","788230","0.0-11.0-0.51","2701","Te bizony sokat kumlasz. Én is sokat...","1","kumlom","[""kumlok"",""kumlom""]","kumlom","esp trial","8","true"
"html-button-response","114","791773","0.0-11.0-1.51","null","<p>A másik játékos ezt választotta: <b>kumlom</b>.</p><p>&#x2705;</p><p>A te válaszod és a másik játékos válasza <b>megegyeznek</b>.</p>","null","","","","feedback trial","",""
"html-button-response-esp","115","796498","0.0-11.0-0.52","3382","Te bizony sokat préleglesz. Én is sokat...","0","préleglek","[""préleglek"",""préleglem""]","préleglek","esp trial","8","true"
"html-button-response","116","800035","0.0-11.0-1.52","null","<p>A másik játékos ezt választotta: <b>préleglek</b>.</p><p>&#x2705;</p><p>A te válaszod és a másik játékos válasza <b>megegyeznek</b>.</p>","null","","","","feedback trial","",""
"html-button-response-esp","117","804773","0.0-11.0-0.53","3572","Te bizony sokat bivejlesz. Én is sokat...","1","bivejlem","[""bivejlek"",""bivejlem""]","bivejlem","esp trial","8","true"
"html-button-response","118","808311","0.0-11.0-1.53","null","<p>A másik játékos ezt választotta: <b>bivejlem</b>.</p><p>&#x2705;</p><p>A te válaszod és a másik játékos válasza <b>megegyeznek</b>.</p>","null","","","","feedback trial","",""
"html-button-response","119","859145","0.0-12.0","50323","<p>A közös játék most véget ért.</p><p>Mielőtt eláruljuk a végső pontszámodat, arra kérlek, játszd a szóválasztós játékot néhány percig egyedül is.</p><p>A feladatod ugyanaz lesz, választani két lehetőség közül.</p><p>Most viszont egyedül kell döntened, hogy te melyiket választanád.</p>","0","","","","","",""
"html-button-response-clever","120","882109","0.0-13.0-0.0","22453","Te bizony sokat sztremlesz. Én is sokat...","1","sztremlek","[""sztremlem"",""sztremlek""]","","posttest trial","1",""
"html-button-response-clever","121","896164","0.0-13.0-0.1","13533","Te bizony sokat flagánylasz. Én is sokat...","1","flagánylom","[""flagánylok"",""flagánylom""]","","posttest trial","1",""
"html-button-response-clever","122","917128","0.0-13.0-0.2","20457","Te bizony sokat bölszöl. Én is sokat...","0","bölszöm","[""bölszöm"",""bölszök""]","","posttest trial","1",""
"html-button-response-clever","123","926376","0.0-13.0-0.3","8745","Te bizony sokat spéslesz. Én is sokat...","0","spéslek","[""spéslek"",""spéslem""]","","posttest trial","1",""
"html-button-response-clever","124","937715","0.0-13.0-0.4","10829","Te bizony sokat ruslasz. Én is sokat...","1","ruslom","[""ruslok"",""ruslom""]","","posttest trial","1",""
"html-button-response-clever","125","944969","0.0-13.0-0.5","6747","Te bizony sokat fibamlasz. Én is sokat...","0","fibamlok","[""fibamlok"",""fibamlom""]","","posttest trial","1",""
"html-button-response-clever","126","955838","0.0-13.0-0.6","10357","Te bizony sokat marzol. Én is sokat...","1","marzok","[""marzom"",""marzok""]","","posttest trial","1",""
"html-button-response-clever","127","962744","0.0-13.0-0.7","6387","Te bizony sokat szirlasz. Én is sokat...","0","szirlok","[""szirlok"",""szirlom""]","","posttest trial","1",""
"html-button-response-clever","128","969431","0.0-13.0-0.8","6175","Te bizony sokat sűzlesz. Én is sokat...","0","sűzlöm","[""sűzlöm"",""sűzlök""]","","posttest trial","1",""
"html-button-response-clever","129","977638","0.0-13.0-0.9","7703","Te bizony sokat juszlasz. Én is sokat...","1","juszlom","[""juszlok"",""juszlom""]","","posttest trial","1",""
"html-button-response-clever","130","1005824","0.0-13.0-0.10","27680","Te bizony sokat vilakszol. Én is sokat...","0","vilakszom","[""vilakszom"",""vilakszok""]","","posttest trial","1",""
"html-button-response-clever","131","1024420","0.0-13.0-0.11","18075","Te bizony sokat flagárzol. Én is sokat...","1","flagárzom","[""flagárzok"",""flagárzom""]","","posttest trial","1",""
"html-button-response-clever","132","1049292","0.0-13.0-0.12","24366","Te bizony sokat pratánylasz. Én is sokat...","1","pratánylok","[""pratánylom"",""pratánylok""]","","posttest trial","1",""
"html-button-response-clever","133","1057286","0.0-13.0-0.13","7478","Te bizony sokat spűmlesz. Én is sokat...","0","spűmlök","[""spűmlök"",""spűmlöm""]","","posttest trial","1",""
"html-button-response-clever","134","1080937","0.0-13.0-0.14","23133","Te bizony sokat csíszlasz. Én is sokat...","0","csíszlom","[""csíszlom"",""csíszlok""]","","posttest trial","1",""
"html-button-response-clever","135","1093420","0.0-13.0-0.15","11981","Te bizony sokat klörlesz. Én is sokat...","1","klörlök","[""klörlöm"",""klörlök""]","","posttest trial","1",""
"html-button-response-clever","136","1111537","0.0-13.0-0.16","17595","Te bizony sokat málapszol. Én is sokat...","1","málapszom","[""málapszok"",""málapszom""]","","posttest trial","1",""
"html-button-response-clever","137","1123091","0.0-13.0-0.17","11035","Te bizony sokat brüjlesz. Én is sokat...","0","brüjlöm","[""brüjlöm"",""brüjlök""]","","posttest trial","1",""
"html-button-response-clever","138","1128181","0.0-13.0-0.18","4579","Te bizony sokat sojzol. Én is sokat...","0","sojzom","[""sojzom"",""sojzok""]","","posttest trial","1",""
"html-button-response-clever","139","1140855","0.0-13.0-0.19","12156","Te bizony sokat flüröslesz. Én is sokat...","0","flüröslöm","[""flüröslöm"",""flüröslök""]","","posttest trial","1",""
"html-button-response-clever","140","1150662","0.0-13.0-0.20","9289","Te bizony sokat pebzel. Én is sokat...","0","pebzek","[""pebzek"",""pebzem""]","","posttest trial","1",""
"html-button-response-clever","141","1179938","0.0-13.0-0.21","28756","Te bizony sokat jüslesz. Én is sokat...","1","jüslöm","[""jüslök"",""jüslöm""]","","posttest trial","1",""
"html-button-response-clever","142","1185896","0.0-13.0-0.22","5449","Te bizony sokat feténylesz. Én is sokat...","1","feténylem","[""feténylek"",""feténylem""]","","posttest trial","1",""
"html-button-response-clever","143","1196609","0.0-13.0-0.23","10208","Te bizony sokat lorjódzol. Én is sokat...","1","lorjódzom","[""lorjódzok"",""lorjódzom""]","","posttest trial","1",""
"html-button-response-clever","144","1205337","0.0-13.0-0.24","8225","Te bizony sokat sprogzol. Én is sokat...","0","sprogzom","[""sprogzom"",""sprogzok""]","","posttest trial","1",""
"html-button-response-clever","145","1212667","0.0-13.0-0.25","6827","Te bizony sokat siladzol. Én is sokat...","0","siladzom","[""siladzom"",""siladzok""]","","posttest trial","1",""
"html-button-response-clever","146","1220359","0.0-13.0-0.26","7177","Te bizony sokat ribegzel. Én is sokat...","0","ribegzem","[""ribegzem"",""ribegzek""]","","posttest trial","1",""
"html-button-response-clever","147","1224834","0.0-13.0-0.27","3969","Te bizony sokat drubódzol. Én is sokat...","1","drubódzom","[""drubódzok"",""drubódzom""]","","posttest trial","1",""
"html-button-response-clever","148","1229448","0.0-13.0-0.28","4102","Te bizony sokat tínylasz. Én is sokat...","0","tínylom","[""tínylom"",""tínylok""]","","posttest trial","1",""
"html-button-response-clever","149","1246494","0.0-13.0-0.29","16541","Te bizony sokat sprökszöl. Én is sokat...","0","sprökszöm","[""sprökszöm"",""sprökszök""]","","posttest trial","1",""
"html-button-response-clever","150","1262790","0.0-13.0-0.30","15786","Te bizony sokat spibaklasz. Én is sokat...","1","spibaklom","[""spibaklok"",""spibaklom""]","","posttest trial","1",""
"html-button-response-clever","151","1268620","0.0-13.0-0.31","5323","Te bizony sokat piragszol. Én is sokat...","1","piragszom","[""piragszok"",""piragszom""]","","posttest trial","1",""
"html-button-response-clever","152","1280025","0.0-13.0-0.32","10891","Te bizony sokat klibamlasz. Én is sokat...","0","klibamlok","[""klibamlok"",""klibamlom""]","","posttest trial","1",""
"html-button-response-clever","153","1289969","0.0-13.0-0.33","9431","Te bizony sokat herégszel. Én is sokat...","1","herégszem","[""herégszek"",""herégszem""]","","posttest trial","1",""
"html-button-response-clever","154","1296051","0.0-13.0-0.34","5562","Te bizony sokat nyáslasz. Én is sokat...","1","nyáslom","[""nyáslok"",""nyáslom""]","","posttest trial","1",""
"html-button-response-clever","155","1303319","0.0-13.0-0.35","6752","Te bizony sokat driládzol. Én is sokat...","0","driládzom","[""driládzom"",""driládzok""]","","posttest trial","1",""
"html-button-response-clever","156","1310180","0.0-13.0-0.36","6348","Te bizony sokat tomlasz. Én is sokat...","1","tomlok","[""tomlom"",""tomlok""]","","posttest trial","1",""
"html-button-response-clever","157","1314584","0.0-13.0-0.37","3884","Te bizony sokat büglesz. Én is sokat...","0","büglöm","[""büglöm"",""büglök""]","","posttest trial","1",""
"html-button-response-clever","158","1327266","0.0-13.0-0.38","12167","Te bizony sokat frilegszel. Én is sokat...","0","frilegszem","[""frilegszem"",""frilegszek""]","","posttest trial","1",""
"html-button-response-clever","159","1335850","0.0-13.0-0.39","8069","Te bizony sokat fretszel. Én is sokat...","0","fretszek","[""fretszek"",""fretszem""]","","posttest trial","1",""
"html-button-response-clever","160","1345869","0.0-13.0-0.40","9495","Te bizony sokat prilegzel. Én is sokat...","0","prilegzek","[""prilegzek"",""prilegzem""]","","posttest trial","1",""
"html-button-response-clever","161","1349935","0.0-13.0-0.41","3548","Te bizony sokat pivegszel. Én is sokat...","1","pivegszek","[""pivegszem"",""pivegszek""]","","posttest trial","1",""
"html-button-response-clever","162","1354111","0.0-13.0-0.42","3664","Te bizony sokat ribzol. Én is sokat...","0","ribzom","[""ribzom"",""ribzok""]","","posttest trial","1",""
"html-button-response-clever","163","1359052","0.0-13.0-0.43","4433","Te bizony sokat brágaklasz. Én is sokat...","1","brágaklom","[""brágaklok"",""brágaklom""]","","posttest trial","1",""
"html-button-response-clever","164","1366711","0.0-13.0-0.44","7137","Te bizony sokat tiregzel. Én is sokat...","0","tiregzem","[""tiregzem"",""tiregzek""]","","posttest trial","1",""
"html-button-response-clever","165","1377199","0.0-13.0-0.45","9969","Te bizony sokat trilszol. Én is sokat...","0","trilszom","[""trilszom"",""trilszok""]","","posttest trial","1",""
"html-button-response-clever","166","1383026","0.0-13.0-0.46","5319","Te bizony sokat femlesz. Én is sokat...","0","femlek","[""femlek"",""femlem""]","","posttest trial","1",""
"html-button-response-clever","167","1389555","0.0-13.0-0.47","6017","Te bizony sokat böjzöl. Én is sokat...","0","böjzöm","[""böjzöm"",""böjzök""]","","posttest trial","1",""
"html-button-response-clever","168","1393696","0.0-13.0-0.48","3632","Te bizony sokat spilágzol. Én is sokat...","0","spilágzom","[""spilágzom"",""spilágzok""]","","posttest trial","1",""
"html-button-response-clever","169","1397242","0.0-13.0-0.49","3036","Te bizony sokat hilarzol. Én is sokat...","1","hilarzom","[""hilarzok"",""hilarzom""]","","posttest trial","1",""
"html-button-response-clever","170","1400761","0.0-13.0-0.50","3004","Te bizony sokat spatárzol. Én is sokat...","0","spatárzom","[""spatárzom"",""spatárzok""]","","posttest trial","1",""
"html-button-response-clever","171","1405226","0.0-13.0-0.51","3957","Te bizony sokat flűröklesz. Én is sokat...","0","flűröklök","[""flűröklök"",""flűröklöm""]","","posttest trial","1",""
"html-button-response-clever","172","1409755","0.0-13.0-0.52","4005","Te bizony sokat narjárzol. Én is sokat...","0","narjárzom","[""narjárzom"",""narjárzok""]","","posttest trial","1",""
"html-button-response-clever","173","1414046","0.0-13.0-0.53","3775","Te bizony sokat prűrlesz. Én is sokat...","0","prűrlök","[""prűrlök"",""prűrlöm""]","","posttest trial","1",""
"html-button-response","174","1426192","0.0-14.0","11628","<p> Vége a játéknak. A teljes pontszámod 25/54.</p><p> Szép munka! &#128526;&#128526;&#128526;</p><p>A Befejezés gomb megnyomása után bezárhatod a böngészőablakot.</p>","0","","","","","",""
"html-keyboard-response","175","1431716","0.0-15.0","null","<div class=""message"">
         <p>Egy kis türelmet kérünk, amíg elmentjük az adatokat...</p>
         </div>","null","","","","","",""
