"trial_type","trial_index","time_elapsed","internal_node_id","rt","stimulus","response","response_string","choices","esp_response","trial_kind","list_number","esp_match"
"pavlovia","0","828","0.0-0.0","","","","","","","","",""
"html-button-response","1","26391","0.0-1.0","24854","<p>Kedves Résztvevő! A Budapesti Műszaki és Gazdaságtudományi Egyetem Kognitív Tudományi Tanszékének kutatásában való részvételed kérjük. A kutatásban azt vizsgáljuk, hogy a magyar anyanyelvűek hogyan használnak bizonyos szóalakokat, és hogy milyen képük van arról, hogy mások hogyan használják, hogyan képzik a szavakat. Ez hozzásegít bennünket ahhoz, hogy jobban megértsük, hogyan dolgozza fel és tárolja a nyelvet az emberi agy, és hogyan működnek, hogyan változnak egy adott közösség nyelvi konvenciói.</p><p>A vizsgálat egy rövid számítógépes feladatból fog állni. A kutatásban való részvétel önkéntes, a részvételi szándék bármikor visszavonható. A résztvevők eredményeit név nélkül kezeljük, így nem beazonosíthatók az adatok feldolgozása során. Minden személyes adatot az EU általános adatvédelmi rendeletének (GDPR) megfelelően kezelünk és legfeljebb öt éven belül megsemmisítünk. A vizsgálat jellemzően húsz percet vesz igénybe.</p><p>Kutatásvezető:</p><p>Dr. Rácz Péter, tudományos munkatárs, BME KTT</p><p>e-mail: racz.peter.marton@ttk.bme.hu</p>","0","","","","","",""
"html-button-response","2","46965","0.0-2.0","20060","<p>A kísérletben szavakat fogsz látni. Ezek között lesznek olyanok, amelyeket ismersz, de előfordulhatnak olyanok is, amelyeket nem ismersz, sőt, vannak köztük kitalált szavak is. Minden szónál látni fogsz toldalékolt alakokat. A te feladatod az lesz, hogy minden szóhoz kiválaszd azt a toldalékolt alakot, amely a te számodra ismerősebben, természetesebben hangzik. Rossz válaszok nincsenek, mert van olyan, hogy különböző embereknek más és más szó tűnik jobb választásnak. A választ úgy tudod majd kiválasztani, ha rákattintasz.</p><p>Ebben a szóválasztós játékban egy másik játékossal együtt veszel majd részt. A másik játékos is minden esetben azok közül a lehetőségek közül válogathat, mint te. Kettőtök feladata az, hogy ugyanazt a lehetőséget válasszátok minden esetben. Ahhoz, hogy ez sikerüljön, neked figyelned kell arra, hogy a másik játékos milyen válaszokat ad, és ennek alapján meg kell tippelned, hogyan választ legközelebb. Ha eltalálod, akkor pontot kapsz.</p>","0","","","","","",""
"html-button-response","3","53590","0.0-3.0","6106","<p>Kérjük, olvasd el az alábbi nyilatkozatot, és amennyiben egyetértesz vele, nyomj a Beleegyezés gombra!</p><p>Kijelentem, hogy magyar anyanyelvű személyként önként veszek részt a BME KTT kísérletében. A kutatás céljával és folyamatával kapcsolatban elegendő tájékoztatást kaptam, lehetőségem volt kérdések feltételére, és esetleges kérdéseimre megfelelő válaszokat kaptam. A tájékoztatás alapján elegendő mennyiségű információ áll a rendelkezésemre, hogy eldönthessem, részt kívánok-e venni a kutatásban.</p><p>Tisztában vagyok vele, hogy részvételi szándékomat és adataimat bármikor, indoklás nélkül visszavonhatom.</p><p>Értem és tudomásul veszem, hogy a kutatás tudományos célokat szolgál, és az általam szolgáltatott adatokat a BME kizárólag kutatási célból használja fel. Tudomásul veszem, hogy eredményeimet a többi résztvevő eredményeivel együtt kezelik, így egyéni teljesítményemről visszajelzést, szakvéleményt nem kapok.</p><p>Megértettem, hogy adataim kezelését illetően a BME az EU általános adatvédelmi rendelete (GDPR), a hatályos adatvédelmi törvény és a nemzetközi kutatás-etikai alapelvek szerint jár el. Eredményeim anonim módon kerülnek feldolgozásra, és a kutatás résztvevői az azonosításomra alkalmas adataimat harmadik félnek nem szolgáltatják ki. Engedélyezem a BME számára a jelen kutatásban felvett adataim feldolgozását és tárolását, beleértve azok későbbi kutatásokhoz való felhasználását is. Személyes adataim kezelésével kapcsolatban tájékoztatást kérhetek a kutatás résztvevőitől, az adatkezelés ellen tiltakozhatok, kérhetem személyes adataim helyesbítését, törlését vagy zárolását, valamint jogorvoslatért a Nemzeti Adatvédelmi és Információszabadság Hatósághoz fordulhatok.</p><p>Kijelentem, hogy a kutatásban való részvételem körülményeiről részletes tájékoztatást kaptam, és a feltételeket elfogadom.</p>","0","","","","","",""
"survey-text","4","83372","0.0-4.0","29245","","{""Q0"":""N549X4"",""Q1"":""férfi"",""Q2"":""1998"",""Q3"":""12""}","","","","","",""
"html-button-response","5","94892","0.0-5.0","11005","<p>Ebben a játékban szavakat kell toldalékolni.</p> <p>Minden körben mutatunk majd egy példamondatot, amiben lesz egy szó.</p> <p>Alatta jön egy második mondat, ezt a mondatot neked kell majd befejezni, ugyanezzel a szóval.</p> <p>Nem biztos, hogy a szó eleve ismerős lesz számodra!</p> <p>Minden mondathoz adunk két lehetőséget, ezeket balra és jobbra látod majd.</p> <p>A játék kb. negyedóráig-húsz percig tart.</p>","0","","","","","",""
"html-button-response","6","110135","0.0-6.0","14727","<p>Nézzünk egy példát!</p> <p>A példamondat: ""János nagyon szeret rancsúrozni.""</p><p>Neked ezt a mondatot kell befejezned: ""Én is szívesen...""</p><p>A lehetőségek pedig ezek:</p>","1","","","","","",""
"html-button-response","7","122620","0.0-7.0","11970","<p>Nagyon jó.</p><p>Ezt a játékot nem egyedül fogod játszani, hanem egy másik játékossal.</p><p>Mielőtt továbblépünk, összekapcsolunk titeket egymással.</p><p>Ez igénybe vehet néhány másodpercet, amihez szíves türelmed kérjük.</p>","0","","","","","",""
"html-button-response","8","128382","0.0-8.0","null","<p>Csatlakozás a másik játékoshoz...</p>","null","","","","","",""
"html-button-response","9","130907","0.0-9.0","null","<p> Sikeres kapcsolódás!</p>","null","","","","","",""
"html-button-response","10","141134","0.0-10.0","9709","<p>A következőkben ketten játsszátok a szóválasztós játékot.</p><p>A feladatotok az lesz, hogy minden körben <b>ugyanazt</b> a szót válasszátok.</p><p>Minden ilyen egyező válaszért pontot kaptok.</p><p>Próbáld meg kitalálni, mit választ a másik játékos!</p><p>Bármikor választhatsz, a körnek akkor van vége, ha mindketten döntöttetek.</p><p>Sok sikert!</p>","0","","","","","",""
"html-button-response-esp","11","150691","0.0-11.0-0.0","5184","Te bizony sokat féjzel. Én is sokat...","1","féjzek","[""féjzem"",""féjzek""]","féjzek","esp trial","9","true"
"html-button-response","12","154215","0.0-11.0-1.0","null","<p>A másik játékos ezt választotta: <b>féjzek</b>.</p><p>&#x2705;</p><p>A te válaszod és a másik játékos válasza <b>megegyeznek</b>.</p>","null","","","","feedback trial","",""
"html-button-response-esp","13","163769","0.0-11.0-0.1","7546","Te bizony sokat prihekszel. Én is sokat...","1","prihekszek","[""prihekszem"",""prihekszek""]","prihekszek","esp trial","9","true"
"html-button-response","14","167287","0.0-11.0-1.1","null","<p>A másik játékos ezt választotta: <b>prihekszek</b>.</p><p>&#x2705;</p><p>A te válaszod és a másik játékos válasza <b>megegyeznek</b>.</p>","null","","","","feedback trial","",""
"html-button-response-esp","15","176858","0.0-11.0-0.2","6004","Te bizony sokat csólorzol. Én is sokat...","1","csólorzok","[""csólorzom"",""csólorzok""]","csólorzom","esp trial","9","false"
"html-button-response","16","180384","0.0-11.0-1.2","null","<p>A másik játékos ezt választotta: <b>csólorzom</b>.</p><p>&#10060;</p><p>A válaszaitok <b>nem</b> egyeznek meg.</p>","null","","","","feedback trial","",""
"html-button-response-esp","17","189928","0.0-11.0-0.3","2821","Te bizony sokat aglasz. Én is sokat...","1","aglok","[""aglom"",""aglok""]","aglok","esp trial","9","true"
"html-button-response","18","193452","0.0-11.0-1.3","null","<p>A másik játékos ezt választotta: <b>aglok</b>.</p><p>&#x2705;</p><p>A te válaszod és a másik játékos válasza <b>megegyeznek</b>.</p>","null","","","","feedback trial","",""
"html-button-response-esp","19","203009","0.0-11.0-0.4","4739","Te bizony sokat frágapszol. Én is sokat...","0","frágapszok","[""frágapszok"",""frágapszom""]","frágapszom","esp trial","9","false"
"html-button-response","20","206539","0.0-11.0-1.4","null","<p>A másik játékos ezt választotta: <b>frágapszom</b>.</p><p>&#10060;</p><p>A válaszaitok <b>nem</b> egyeznek meg.</p>","null","","","","feedback trial","",""
"html-button-response-esp","21","216094","0.0-11.0-0.5","4161","Te bizony sokat kumlasz. Én is sokat...","0","kumlok","[""kumlok"",""kumlom""]","kumlok","esp trial","9","true"
"html-button-response","22","219620","0.0-11.0-1.5","null","<p>A másik játékos ezt választotta: <b>kumlok</b>.</p><p>&#x2705;</p><p>A te válaszod és a másik játékos válasza <b>megegyeznek</b>.</p>","null","","","","feedback trial","",""
"html-button-response-esp","23","229183","0.0-11.0-0.6","5496","Te bizony sokat klárzol. Én is sokat...","0","klárzom","[""klárzom"",""klárzok""]","klárzok","esp trial","9","false"
"html-button-response","24","232717","0.0-11.0-1.6","null","<p>A másik játékos ezt választotta: <b>klárzok</b>.</p><p>&#10060;</p><p>A válaszaitok <b>nem</b> egyeznek meg.</p>","null","","","","feedback trial","",""
"html-button-response-esp","25","242266","0.0-11.0-0.7","4472","Te bizony sokat ibáglasz. Én is sokat...","1","ibáglok","[""ibáglom"",""ibáglok""]","ibáglok","esp trial","9","true"
"html-button-response","26","245795","0.0-11.0-1.7","null","<p>A másik játékos ezt választotta: <b>ibáglok</b>.</p><p>&#x2705;</p><p>A te válaszod és a másik játékos válasza <b>megegyeznek</b>.</p>","null","","","","feedback trial","",""
"html-button-response-esp","27","255357","0.0-11.0-0.8","2807","Te bizony sokat prezlesz. Én is sokat...","1","prezlek","[""prezlem"",""prezlek""]","prezlek","esp trial","9","true"
"html-button-response","28","258890","0.0-11.0-1.8","null","<p>A másik játékos ezt választotta: <b>prezlek</b>.</p><p>&#x2705;</p><p>A te válaszod és a másik játékos válasza <b>megegyeznek</b>.</p>","null","","","","feedback trial","",""
"html-button-response-esp","29","268446","0.0-11.0-0.9","3152","Te bizony sokat spatszol. Én is sokat...","0","spatszok","[""spatszok"",""spatszom""]","spatszom","esp trial","9","false"
"html-button-response","30","271986","0.0-11.0-1.9","null","<p>A másik játékos ezt választotta: <b>spatszom</b>.</p><p>&#10060;</p><p>A válaszaitok <b>nem</b> egyeznek meg.</p>","null","","","","feedback trial","",""
"html-button-response-esp","31","281548","0.0-11.0-0.10","2239","Te bizony sokat préleglesz. Én is sokat...","0","préleglek","[""préleglek"",""préleglem""]","préleglek","esp trial","9","true"
"html-button-response","32","285070","0.0-11.0-1.10","null","<p>A másik játékos ezt választotta: <b>préleglek</b>.</p><p>&#x2705;</p><p>A te válaszod és a másik játékos válasza <b>megegyeznek</b>.</p>","null","","","","feedback trial","",""
"html-button-response-esp","33","294624","0.0-11.0-0.11","1915","Te bizony sokat péleslesz. Én is sokat...","1","péleslek","[""péleslem"",""péleslek""]","péleslek","esp trial","9","true"
"html-button-response","34","298158","0.0-11.0-1.11","null","<p>A másik játékos ezt választotta: <b>péleslek</b>.</p><p>&#x2705;</p><p>A te válaszod és a másik játékos válasza <b>megegyeznek</b>.</p>","null","","","","feedback trial","",""
"html-button-response-esp","35","307715","0.0-11.0-0.12","2540","Te bizony sokat spüszlesz. Én is sokat...","1","spüszlök","[""spüszlöm"",""spüszlök""]","spüszlök","esp trial","9","true"
"html-button-response","36","311255","0.0-11.0-1.12","null","<p>A másik játékos ezt választotta: <b>spüszlök</b>.</p><p>&#x2705;</p><p>A te válaszod és a másik játékos válasza <b>megegyeznek</b>.</p>","null","","","","feedback trial","",""
"html-button-response-esp","37","320810","0.0-11.0-0.13","2048","Te bizony sokat drügzöl. Én is sokat...","0","drügzök","[""drügzök"",""drügzöm""]","drügzök","esp trial","9","true"
"html-button-response","38","324347","0.0-11.0-1.13","null","<p>A másik játékos ezt választotta: <b>drügzök</b>.</p><p>&#x2705;</p><p>A te válaszod és a másik játékos válasza <b>megegyeznek</b>.</p>","null","","","","feedback trial","",""
"html-button-response-esp","39","334527","0.0-11.0-0.14","2084","Te bizony sokat fligzol. Én is sokat...","0","fligzok","[""fligzok"",""fligzom""]","fligzom","esp trial","9","false"
"html-button-response","40","338538","0.0-11.0-1.14","null","<p>A másik játékos ezt választotta: <b>fligzom</b>.</p><p>&#10060;</p><p>A válaszaitok <b>nem</b> egyeznek meg.</p>","null","","","","feedback trial","",""
"html-button-response-esp","41","348098","0.0-11.0-0.15","2756","Te bizony sokat gilárzol. Én is sokat...","0","gilárzok","[""gilárzok"",""gilárzom""]","gilárzom","esp trial","9","false"
"html-button-response","42","351637","0.0-11.0-1.15","null","<p>A másik játékos ezt választotta: <b>gilárzom</b>.</p><p>&#10060;</p><p>A válaszaitok <b>nem</b> egyeznek meg.</p>","null","","","","feedback trial","",""
"html-button-response-esp","43","361186","0.0-11.0-0.16","2022","Te bizony sokat gerénylesz. Én is sokat...","1","gerénylek","[""gerénylem"",""gerénylek""]","gerénylek","esp trial","9","true"
"html-button-response","44","365033","0.0-11.0-1.16","null","<p>A másik játékos ezt választotta: <b>gerénylek</b>.</p><p>&#x2705;</p><p>A te válaszod és a másik játékos válasza <b>megegyeznek</b>.</p>","null","","","","feedback trial","",""
"html-button-response-esp","45","374590","0.0-11.0-0.17","1696","Te bizony sokat flérlesz. Én is sokat...","0","flérlek","[""flérlek"",""flérlem""]","flérlek","esp trial","9","true"
"html-button-response","46","378120","0.0-11.0-1.17","null","<p>A másik játékos ezt választotta: <b>flérlek</b>.</p><p>&#x2705;</p><p>A te válaszod és a másik játékos válasza <b>megegyeznek</b>.</p>","null","","","","feedback trial","",""
"html-button-response-esp","47","387676","0.0-11.0-0.18","3154","Te bizony sokat gyibakszol. Én is sokat...","0","gyibakszok","[""gyibakszok"",""gyibakszom""]","gyibakszom","esp trial","9","false"
"html-button-response","48","391211","0.0-11.0-1.18","null","<p>A másik játékos ezt választotta: <b>gyibakszom</b>.</p><p>&#10060;</p><p>A válaszaitok <b>nem</b> egyeznek meg.</p>","null","","","","feedback trial","",""
"html-button-response-esp","49","401441","0.0-11.0-0.19","1631","Te bizony sokat huklasz. Én is sokat...","1","huklok","[""huklom"",""huklok""]","huklok","esp trial","9","true"
"html-button-response","50","404967","0.0-11.0-1.19","null","<p>A másik játékos ezt választotta: <b>huklok</b>.</p><p>&#x2705;</p><p>A te válaszod és a másik játékos válasza <b>megegyeznek</b>.</p>","null","","","","feedback trial","",""
"html-button-response-esp","51","414517","0.0-11.0-0.20","788","Te bizony sokat plágadzol. Én is sokat...","1","plágadzok","[""plágadzom"",""plágadzok""]","plágadzom","esp trial","9","false"
"html-button-response","52","418053","0.0-11.0-1.20","null","<p>A másik játékos ezt választotta: <b>plágadzom</b>.</p><p>&#10060;</p><p>A válaszaitok <b>nem</b> egyeznek meg.</p>","null","","","","feedback trial","",""
"html-button-response-esp","53","427628","0.0-11.0-0.21","1950","Te bizony sokat floglasz. Én is sokat...","1","floglok","[""floglom"",""floglok""]","floglok","esp trial","9","true"
"html-button-response","54","431150","0.0-11.0-1.21","null","<p>A másik játékos ezt választotta: <b>floglok</b>.</p><p>&#x2705;</p><p>A te válaszod és a másik játékos válasza <b>megegyeznek</b>.</p>","null","","","","feedback trial","",""
"html-button-response-esp","55","440715","0.0-11.0-0.22","4187","Te bizony sokat trihagzol. Én is sokat...","0","trihagzok","[""trihagzok"",""trihagzom""]","trihagzom","esp trial","9","false"
"html-button-response","56","444246","0.0-11.0-1.22","null","<p>A másik játékos ezt választotta: <b>trihagzom</b>.</p><p>&#10060;</p><p>A válaszaitok <b>nem</b> egyeznek meg.</p>","null","","","","feedback trial","",""
"html-button-response-esp","57","453799","0.0-11.0-0.23","1163","Te bizony sokat spélszel. Én is sokat...","0","spélszek","[""spélszek"",""spélszem""]","spélszek","esp trial","9","true"
"html-button-response","58","457325","0.0-11.0-1.23","null","<p>A másik játékos ezt választotta: <b>spélszek</b>.</p><p>&#x2705;</p><p>A te válaszod és a másik játékos válasza <b>megegyeznek</b>.</p>","null","","","","feedback trial","",""
"html-button-response-esp","59","466886","0.0-11.0-0.24","1461","Te bizony sokat spírzol. Én is sokat...","1","spírzok","[""spírzom"",""spírzok""]","spírzok","esp trial","9","true"
"html-button-response","60","470430","0.0-11.0-1.24","null","<p>A másik játékos ezt választotta: <b>spírzok</b>.</p><p>&#x2705;</p><p>A te válaszod és a másik játékos válasza <b>megegyeznek</b>.</p>","null","","","","feedback trial","",""
"html-button-response-esp","61","479988","0.0-11.0-0.25","1338","Te bizony sokat frivajlasz. Én is sokat...","1","frivajlok","[""frivajlom"",""frivajlok""]","frivajlok","esp trial","9","true"
"html-button-response","62","483521","0.0-11.0-1.25","null","<p>A másik játékos ezt választotta: <b>frivajlok</b>.</p><p>&#x2705;</p><p>A te válaszod és a másik játékos válasza <b>megegyeznek</b>.</p>","null","","","","feedback trial","",""
"html-button-response-esp","63","493090","0.0-11.0-0.26","1260","Te bizony sokat lihadzol. Én is sokat...","1","lihadzok","[""lihadzom"",""lihadzok""]","lihadzok","esp trial","9","true"
"html-button-response","64","496619","0.0-11.0-1.26","null","<p>A másik játékos ezt választotta: <b>lihadzok</b>.</p><p>&#x2705;</p><p>A te válaszod és a másik játékos válasza <b>megegyeznek</b>.</p>","null","","","","feedback trial","",""
"html-button-response-esp","65","506185","0.0-11.0-0.27","936","Te bizony sokat brarlasz. Én is sokat...","1","brarlok","[""brarlom"",""brarlok""]","brarlok","esp trial","9","true"
"html-button-response","66","509711","0.0-11.0-1.27","null","<p>A másik játékos ezt választotta: <b>brarlok</b>.</p><p>&#x2705;</p><p>A te válaszod és a másik játékos válasza <b>megegyeznek</b>.</p>","null","","","","feedback trial","",""
"html-button-response-esp","67","519277","0.0-11.0-0.28","1342","Te bizony sokat sprédlesz. Én is sokat...","0","sprédlek","[""sprédlek"",""sprédlem""]","sprédlek","esp trial","9","true"
"html-button-response","68","522818","0.0-11.0-1.28","null","<p>A másik játékos ezt választotta: <b>sprédlek</b>.</p><p>&#x2705;</p><p>A te válaszod és a másik játékos válasza <b>megegyeznek</b>.</p>","null","","","","feedback trial","",""
"html-button-response-esp","69","532374","0.0-11.0-0.29","1480","Te bizony sokat vűjlesz. Én is sokat...","0","vűjlök","[""vűjlök"",""vűjlöm""]","vűjlök","esp trial","9","true"
"html-button-response","70","535906","0.0-11.0-1.29","null","<p>A másik játékos ezt választotta: <b>vűjlök</b>.</p><p>&#x2705;</p><p>A te válaszod és a másik játékos válasza <b>megegyeznek</b>.</p>","null","","","","feedback trial","",""
"html-button-response-esp","71","545465","0.0-11.0-0.30","653","Te bizony sokat flözlesz. Én is sokat...","0","flözlök","[""flözlök"",""flözlöm""]","flözlök","esp trial","9","true"
"html-button-response","72","549014","0.0-11.0-1.30","null","<p>A másik játékos ezt választotta: <b>flözlök</b>.</p><p>&#x2705;</p><p>A te válaszod és a másik játékos válasza <b>megegyeznek</b>.</p>","null","","","","feedback trial","",""
"html-button-response-esp","73","558578","0.0-11.0-0.31","1126","Te bizony sokat sztruglasz. Én is sokat...","1","sztruglok","[""sztruglom"",""sztruglok""]","sztruglok","esp trial","9","true"
"html-button-response","74","562112","0.0-11.0-1.31","null","<p>A másik játékos ezt választotta: <b>sztruglok</b>.</p><p>&#x2705;</p><p>A te válaszod és a másik játékos válasza <b>megegyeznek</b>.</p>","null","","","","feedback trial","",""
"html-button-response-esp","75","571662","0.0-11.0-0.32","1046","Te bizony sokat praslasz. Én is sokat...","0","praslok","[""praslok"",""praslom""]","praslok","esp trial","9","true"
"html-button-response","76","575208","0.0-11.0-1.32","null","<p>A másik játékos ezt választotta: <b>praslok</b>.</p><p>&#x2705;</p><p>A te válaszod és a másik játékos válasza <b>megegyeznek</b>.</p>","null","","","","feedback trial","",""
"html-button-response-esp","77","584756","0.0-11.0-0.33","1035","Te bizony sokat tuboklasz. Én is sokat...","0","tuboklok","[""tuboklok"",""tuboklom""]","tuboklok","esp trial","9","true"
"html-button-response","78","588283","0.0-11.0-1.33","null","<p>A másik játékos ezt választotta: <b>tuboklok</b>.</p><p>&#x2705;</p><p>A te válaszod és a másik játékos válasza <b>megegyeznek</b>.</p>","null","","","","feedback trial","",""
"html-button-response-esp","79","597842","0.0-11.0-0.34","823","Te bizony sokat prohódzol. Én is sokat...","1","prohódzok","[""prohódzom"",""prohódzok""]","prohódzom","esp trial","9","false"
"html-button-response","80","601367","0.0-11.0-1.34","null","<p>A másik játékos ezt választotta: <b>prohódzom</b>.</p><p>&#10060;</p><p>A válaszaitok <b>nem</b> egyeznek meg.</p>","null","","","","feedback trial","",""
"html-button-response-esp","81","610917","0.0-11.0-0.35","2088","Te bizony sokat szűslesz. Én is sokat...","1","szűslök","[""szűslöm"",""szűslök""]","szűslök","esp trial","9","true"
"html-button-response","82","614453","0.0-11.0-1.35","null","<p>A másik játékos ezt választotta: <b>szűslök</b>.</p><p>&#x2705;</p><p>A te válaszod és a másik játékos válasza <b>megegyeznek</b>.</p>","null","","","","feedback trial","",""
"html-button-response-esp","83","624012","0.0-11.0-0.36","1975","Te bizony sokat spülőrzöl. Én is sokat...","0","spülőrzök","[""spülőrzök"",""spülőrzöm""]","spülőrzök","esp trial","9","true"
"html-button-response","84","627546","0.0-11.0-1.36","null","<p>A másik játékos ezt választotta: <b>spülőrzök</b>.</p><p>&#x2705;</p><p>A te válaszod és a másik játékos válasza <b>megegyeznek</b>.</p>","null","","","","feedback trial","",""
"html-button-response-esp","85","637102","0.0-11.0-0.37","2093","Te bizony sokat pugoslasz. Én is sokat...","1","pugoslok","[""pugoslom"",""pugoslok""]","pugoslok","esp trial","9","true"
"html-button-response","86","640622","0.0-11.0-1.37","null","<p>A másik játékos ezt választotta: <b>pugoslok</b>.</p><p>&#x2705;</p><p>A te válaszod és a másik játékos válasza <b>megegyeznek</b>.</p>","null","","","","feedback trial","",""
"html-button-response-esp","87","650179","0.0-11.0-0.38","1014","Te bizony sokat gyivádzol. Én is sokat...","1","gyivádzok","[""gyivádzom"",""gyivádzok""]","gyivádzom","esp trial","9","false"
"html-button-response","88","653714","0.0-11.0-1.38","null","<p>A másik játékos ezt választotta: <b>gyivádzom</b>.</p><p>&#10060;</p><p>A válaszaitok <b>nem</b> egyeznek meg.</p>","null","","","","feedback trial","",""
"html-button-response-esp","89","663258","0.0-11.0-0.39","1181","Te bizony sokat spibádzol. Én is sokat...","0","spibádzok","[""spibádzok"",""spibádzom""]","spibádzok","esp trial","9","true"
"html-button-response","90","666789","0.0-11.0-1.39","null","<p>A másik játékos ezt választotta: <b>spibádzok</b>.</p><p>&#x2705;</p><p>A te válaszod és a másik játékos válasza <b>megegyeznek</b>.</p>","null","","","","feedback trial","",""
"html-button-response-esp","91","676350","0.0-11.0-0.40","1542","Te bizony sokat mékszel. Én is sokat...","0","mékszek","[""mékszek"",""mékszem""]","mékszek","esp trial","9","true"
"html-button-response","92","679866","0.0-11.0-1.40","null","<p>A másik játékos ezt választotta: <b>mékszek</b>.</p><p>&#x2705;</p><p>A te válaszod és a másik játékos válasza <b>megegyeznek</b>.</p>","null","","","","feedback trial","",""
"html-button-response-esp","93","689431","0.0-11.0-0.41","904","Te bizony sokat livaklasz. Én is sokat...","0","livaklom","[""livaklom"",""livaklok""]","livaklom","esp trial","9","true"
"html-button-response","94","692957","0.0-11.0-1.41","null","<p>A másik játékos ezt választotta: <b>livaklom</b>.</p><p>&#x2705;</p><p>A te válaszod és a másik játékos válasza <b>megegyeznek</b>.</p>","null","","","","feedback trial","",""
"html-button-response-esp","95","702520","0.0-11.0-0.42","2081","Te bizony sokat táklasz. Én is sokat...","0","táklom","[""táklom"",""táklok""]","táklom","esp trial","9","true"
"html-button-response","96","706043","0.0-11.0-1.42","null","<p>A másik játékos ezt választotta: <b>táklom</b>.</p><p>&#x2705;</p><p>A te válaszod és a másik játékos válasza <b>megegyeznek</b>.</p>","null","","","","feedback trial","",""
"html-button-response-esp","97","715605","0.0-11.0-0.43","646","Te bizony sokat sprálszol. Én is sokat...","0","sprálszom","[""sprálszom"",""sprálszok""]","sprálszom","esp trial","9","true"
"html-button-response","98","719128","0.0-11.0-1.43","null","<p>A másik játékos ezt választotta: <b>sprálszom</b>.</p><p>&#x2705;</p><p>A te válaszod és a másik játékos válasza <b>megegyeznek</b>.</p>","null","","","","feedback trial","",""
"html-button-response-esp","99","728672","0.0-11.0-0.44","2159","Te bizony sokat friszlasz. Én is sokat...","1","friszlok","[""friszlom"",""friszlok""]","friszlok","esp trial","9","true"
"html-button-response","100","732197","0.0-11.0-1.44","null","<p>A másik játékos ezt választotta: <b>friszlok</b>.</p><p>&#x2705;</p><p>A te válaszod és a másik játékos válasza <b>megegyeznek</b>.</p>","null","","","","feedback trial","",""
"html-button-response-esp","101","749700","0.0-11.0-0.45","16983","Te bizony sokat vihepszel. Én is sokat...","1","vihepszek","[""vihepszem"",""vihepszek""]","vihepszem","esp trial","9","false"
"html-button-response","102","753224","0.0-11.0-1.45","null","<p>A másik játékos ezt választotta: <b>vihepszem</b>.</p><p>&#10060;</p><p>A válaszaitok <b>nem</b> egyeznek meg.</p>","null","","","","feedback trial","",""
"html-button-response-esp","103","762774","0.0-11.0-0.46","1546","Te bizony sokat fliraklasz. Én is sokat...","0","fliraklom","[""fliraklom"",""fliraklok""]","fliraklok","esp trial","9","false"
"html-button-response","104","766298","0.0-11.0-1.46","null","<p>A másik játékos ezt választotta: <b>fliraklok</b>.</p><p>&#10060;</p><p>A válaszaitok <b>nem</b> egyeznek meg.</p>","null","","","","feedback trial","",""
"html-button-response-esp","105","775849","0.0-11.0-0.47","2241","Te bizony sokat plövőrzöl. Én is sokat...","0","plövőrzök","[""plövőrzök"",""plövőrzöm""]","plövőrzök","esp trial","9","true"
"html-button-response","106","779372","0.0-11.0-1.47","null","<p>A másik játékos ezt választotta: <b>plövőrzök</b>.</p><p>&#x2705;</p><p>A te válaszod és a másik játékos válasza <b>megegyeznek</b>.</p>","null","","","","feedback trial","",""
"html-button-response-esp","107","788929","0.0-11.0-0.48","2187","Te bizony sokat flibekszel. Én is sokat...","1","flibekszek","[""flibekszem"",""flibekszek""]","flibekszem","esp trial","9","false"
"html-button-response","108","792460","0.0-11.0-1.48","null","<p>A másik játékos ezt választotta: <b>flibekszem</b>.</p><p>&#10060;</p><p>A válaszaitok <b>nem</b> egyeznek meg.</p>","null","","","","feedback trial","",""
"html-button-response-esp","109","802029","0.0-11.0-0.49","1791","Te bizony sokat spülöklesz. Én is sokat...","0","spülöklöm","[""spülöklöm"",""spülöklök""]","spülöklök","esp trial","9","false"
"html-button-response","110","805564","0.0-11.0-1.49","null","<p>A másik játékos ezt választotta: <b>spülöklök</b>.</p><p>&#10060;</p><p>A válaszaitok <b>nem</b> egyeznek meg.</p>","null","","","","feedback trial","",""
"html-button-response-esp","111","815125","0.0-11.0-0.50","877","Te bizony sokat fivénylesz. Én is sokat...","1","fivénylek","[""fivénylem"",""fivénylek""]","fivénylek","esp trial","9","true"
"html-button-response","112","818668","0.0-11.0-1.50","null","<p>A másik játékos ezt választotta: <b>fivénylek</b>.</p><p>&#x2705;</p><p>A te válaszod és a másik játékos válasza <b>megegyeznek</b>.</p>","null","","","","feedback trial","",""
"html-button-response-esp","113","828234","0.0-11.0-0.51","1106","Te bizony sokat klidlasz. Én is sokat...","1","klidlok","[""klidlom"",""klidlok""]","klidlok","esp trial","9","true"
"html-button-response","114","831766","0.0-11.0-1.51","null","<p>A másik játékos ezt választotta: <b>klidlok</b>.</p><p>&#x2705;</p><p>A te válaszod és a másik játékos válasza <b>megegyeznek</b>.</p>","null","","","","feedback trial","",""
"html-button-response-esp","115","841333","0.0-11.0-0.52","1091","Te bizony sokat zödlesz. Én is sokat...","0","zödlök","[""zödlök"",""zödlöm""]","zödlök","esp trial","9","true"
"html-button-response","116","844857","0.0-11.0-1.52","null","<p>A másik játékos ezt választotta: <b>zödlök</b>.</p><p>&#x2705;</p><p>A te válaszod és a másik játékos válasza <b>megegyeznek</b>.</p>","null","","","","feedback trial","",""
"html-button-response-esp","117","854395","0.0-11.0-0.53","3030","Te bizony sokat bivejlesz. Én is sokat...","1","bivejlek","[""bivejlem"",""bivejlek""]","bivejlek","esp trial","9","true"
"html-button-response","118","857923","0.0-11.0-1.53","null","<p>A másik játékos ezt választotta: <b>bivejlek</b>.</p><p>&#x2705;</p><p>A te válaszod és a másik játékos válasza <b>megegyeznek</b>.</p>","null","","","","feedback trial","",""
"html-button-response","119","863432","0.0-12.0","4993","<p>A közös játék most véget ért.</p><p>Mielőtt eláruljuk a végső pontszámodat, arra kérlek, játszd a szóválasztós játékot néhány percig egyedül is.</p><p>A feladatod ugyanaz lesz, választani két lehetőség közül.</p><p>Most viszont egyedül kell döntened, hogy te melyiket választanád.</p>","0","","","","","",""
"html-button-response-clever","120","865433","0.0-13.0-0.0","1485","Te bizony sokat tiregzel. Én is sokat...","0","tiregzek","[""tiregzek"",""tiregzem""]","","posttest trial","1",""
"html-button-response-clever","121","868046","0.0-13.0-0.1","2090","Te bizony sokat klibamlasz. Én is sokat...","0","klibamlok","[""klibamlok"",""klibamlom""]","","posttest trial","1",""
"html-button-response-clever","122","869801","0.0-13.0-0.2","1251","Te bizony sokat pivegszel. Én is sokat...","1","pivegszem","[""pivegszek"",""pivegszem""]","","posttest trial","1",""
"html-button-response-clever","123","871051","0.0-13.0-0.3","739","Te bizony sokat spibaklasz. Én is sokat...","0","spibaklok","[""spibaklok"",""spibaklom""]","","posttest trial","1",""
"html-button-response-clever","124","872304","0.0-13.0-0.4","740","Te bizony sokat flűröklesz. Én is sokat...","1","flűröklöm","[""flűröklök"",""flűröklöm""]","","posttest trial","1",""
"html-button-response-clever","125","873793","0.0-13.0-0.5","957","Te bizony sokat lorjódzol. Én is sokat...","1","lorjódzok","[""lorjódzom"",""lorjódzok""]","","posttest trial","1",""
"html-button-response-clever","126","874899","0.0-13.0-0.6","589","Te bizony sokat prilegzel. Én is sokat...","0","prilegzek","[""prilegzek"",""prilegzem""]","","posttest trial","1",""
"html-button-response-clever","127","876348","0.0-13.0-0.7","937","Te bizony sokat feténylesz. Én is sokat...","0","feténylek","[""feténylek"",""feténylem""]","","posttest trial","1",""
"html-button-response-clever","128","877494","0.0-13.0-0.8","632","Te bizony sokat spilágzol. Én is sokat...","1","spilágzom","[""spilágzok"",""spilágzom""]","","posttest trial","1",""
"html-button-response-clever","129","878489","0.0-13.0-0.9","487","Te bizony sokat tínylasz. Én is sokat...","0","tínylom","[""tínylom"",""tínylok""]","","posttest trial","1",""
"html-button-response-clever","130","879869","0.0-13.0-0.10","864","Te bizony sokat siladzol. Én is sokat...","1","siladzok","[""siladzom"",""siladzok""]","","posttest trial","1",""
"html-button-response-clever","131","880945","0.0-13.0-0.11","556","Te bizony sokat piragszol. Én is sokat...","0","piragszom","[""piragszom"",""piragszok""]","","posttest trial","1",""
"html-button-response-clever","132","882189","0.0-13.0-0.12","726","Te bizony sokat tomlasz. Én is sokat...","1","tomlok","[""tomlom"",""tomlok""]","","posttest trial","1",""
"html-button-response-clever","133","883815","0.0-13.0-0.13","1118","Te bizony sokat sprogzol. Én is sokat...","0","sprogzok","[""sprogzok"",""sprogzom""]","","posttest trial","1",""
"html-button-response-clever","134","885217","0.0-13.0-0.14","895","Te bizony sokat fretszel. Én is sokat...","0","fretszek","[""fretszek"",""fretszem""]","","posttest trial","1",""
"html-button-response-clever","135","887081","0.0-13.0-0.15","1356","Te bizony sokat femlesz. Én is sokat...","1","femlek","[""femlem"",""femlek""]","","posttest trial","1",""
"html-button-response-clever","136","888324","0.0-13.0-0.16","726","Te bizony sokat spatárzol. Én is sokat...","0","spatárzok","[""spatárzok"",""spatárzom""]","","posttest trial","1",""
"html-button-response-clever","137","889401","0.0-13.0-0.17","562","Te bizony sokat juszlasz. Én is sokat...","1","juszlok","[""juszlom"",""juszlok""]","","posttest trial","1",""
"html-button-response-clever","138","890665","0.0-13.0-0.18","754","Te bizony sokat flüröslesz. Én is sokat...","0","flüröslöm","[""flüröslöm"",""flüröslök""]","","posttest trial","1",""
"html-button-response-clever","139","892389","0.0-13.0-0.19","1210","Te bizony sokat klörlesz. Én is sokat...","0","klörlök","[""klörlök"",""klörlöm""]","","posttest trial","1",""
"html-button-response-clever","140","893684","0.0-13.0-0.20","777","Te bizony sokat fibamlasz. Én is sokat...","1","fibamlok","[""fibamlom"",""fibamlok""]","","posttest trial","1",""
"html-button-response-clever","141","895154","0.0-13.0-0.21","964","Te bizony sokat pebzel. Én is sokat...","1","pebzek","[""pebzem"",""pebzek""]","","posttest trial","1",""
"html-button-response-clever","142","896437","0.0-13.0-0.22","779","Te bizony sokat herégszel. Én is sokat...","0","herégszek","[""herégszek"",""herégszem""]","","posttest trial","1",""
"html-button-response-clever","143","897768","0.0-13.0-0.23","825","Te bizony sokat frilegszel. Én is sokat...","1","frilegszek","[""frilegszem"",""frilegszek""]","","posttest trial","1",""
"html-button-response-clever","144","899544","0.0-13.0-0.24","1257","Te bizony sokat marzol. Én is sokat...","1","marzom","[""marzok"",""marzom""]","","posttest trial","1",""
"html-button-response-clever","145","901379","0.0-13.0-0.25","1326","Te bizony sokat driládzol. Én is sokat...","1","driládzok","[""driládzom"",""driládzok""]","","posttest trial","1",""
"html-button-response-clever","146","902753","0.0-13.0-0.26","857","Te bizony sokat flagánylasz. Én is sokat...","1","flagánylok","[""flagánylom"",""flagánylok""]","","posttest trial","1",""
"html-button-response-clever","147","904093","0.0-13.0-0.27","831","Te bizony sokat böjzöl. Én is sokat...","1","böjzök","[""böjzöm"",""böjzök""]","","posttest trial","1",""
"html-button-response-clever","148","905207","0.0-13.0-0.28","603","Te bizony sokat brágaklasz. Én is sokat...","0","brágaklom","[""brágaklom"",""brágaklok""]","","posttest trial","1",""
"html-button-response-clever","149","906441","0.0-13.0-0.29","718","Te bizony sokat csíszlasz. Én is sokat...","1","csíszlok","[""csíszlom"",""csíszlok""]","","posttest trial","1",""
"html-button-response-clever","150","907851","0.0-13.0-0.30","896","Te bizony sokat drubódzol. Én is sokat...","1","drubódzok","[""drubódzom"",""drubódzok""]","","posttest trial","1",""
"html-button-response-clever","151","909063","0.0-13.0-0.31","710","Te bizony sokat spűmlesz. Én is sokat...","1","spűmlök","[""spűmlöm"",""spűmlök""]","","posttest trial","1",""
"html-button-response-clever","152","910662","0.0-13.0-0.32","1091","Te bizony sokat szirlasz. Én is sokat...","0","szirlok","[""szirlok"",""szirlom""]","","posttest trial","1",""
"html-button-response-clever","153","912321","0.0-13.0-0.33","1148","Te bizony sokat pratánylasz. Én is sokat...","0","pratánylok","[""pratánylok"",""pratánylom""]","","posttest trial","1",""
"html-button-response-clever","154","913672","0.0-13.0-0.34","835","Te bizony sokat brüjlesz. Én is sokat...","1","brüjlöm","[""brüjlök"",""brüjlöm""]","","posttest trial","1",""
"html-button-response-clever","155","914944","0.0-13.0-0.35","755","Te bizony sokat sprökszöl. Én is sokat...","1","sprökszök","[""sprökszöm"",""sprökszök""]","","posttest trial","1",""
"html-button-response-clever","156","916098","0.0-13.0-0.36","634","Te bizony sokat nyáslasz. Én is sokat...","0","nyáslok","[""nyáslok"",""nyáslom""]","","posttest trial","1",""
"html-button-response-clever","157","917163","0.0-13.0-0.37","559","Te bizony sokat jüslesz. Én is sokat...","0","jüslök","[""jüslök"",""jüslöm""]","","posttest trial","1",""
"html-button-response-clever","158","917854","0.0-13.0-0.38","179","Te bizony sokat narjárzol. Én is sokat...","0","narjárzom","[""narjárzom"",""narjárzok""]","","posttest trial","1",""
"html-button-response-clever","159","918563","0.0-13.0-0.39","200","Te bizony sokat ribzol. Én is sokat...","0","ribzok","[""ribzok"",""ribzom""]","","posttest trial","1",""
"html-button-response-clever","160","919450","0.0-13.0-0.40","375","Te bizony sokat prűrlesz. Én is sokat...","0","prűrlök","[""prűrlök"",""prűrlöm""]","","posttest trial","1",""
"html-button-response-clever","161","920147","0.0-13.0-0.41","179","Te bizony sokat ribegzel. Én is sokat...","0","ribegzek","[""ribegzek"",""ribegzem""]","","posttest trial","1",""
"html-button-response-clever","162","920840","0.0-13.0-0.42","173","Te bizony sokat ruslasz. Én is sokat...","0","ruslom","[""ruslom"",""ruslok""]","","posttest trial","1",""
"html-button-response-clever","163","921552","0.0-13.0-0.43","203","Te bizony sokat hilarzol. Én is sokat...","0","hilarzom","[""hilarzom"",""hilarzok""]","","posttest trial","1",""
"html-button-response-clever","164","922764","0.0-13.0-0.44","697","Te bizony sokat spéslesz. Én is sokat...","1","spéslek","[""spéslem"",""spéslek""]","","posttest trial","1",""
"html-button-response-clever","165","923914","0.0-13.0-0.45","630","Te bizony sokat sűzlesz. Én is sokat...","1","sűzlök","[""sűzlöm"",""sűzlök""]","","posttest trial","1",""
"html-button-response-clever","166","925042","0.0-13.0-0.46","623","Te bizony sokat vilakszol. Én is sokat...","0","vilakszok","[""vilakszok"",""vilakszom""]","","posttest trial","1",""
"html-button-response-clever","167","926197","0.0-13.0-0.47","651","Te bizony sokat flagárzol. Én is sokat...","0","flagárzok","[""flagárzok"",""flagárzom""]","","posttest trial","1",""
"html-button-response-clever","168","927232","0.0-13.0-0.48","523","Te bizony sokat sztremlesz. Én is sokat...","1","sztremlek","[""sztremlem"",""sztremlek""]","","posttest trial","1",""
"html-button-response-clever","169","928553","0.0-13.0-0.49","809","Te bizony sokat málapszol. Én is sokat...","0","málapszok","[""málapszok"",""málapszom""]","","posttest trial","1",""
"html-button-response-clever","170","929805","0.0-13.0-0.50","745","Te bizony sokat büglesz. Én is sokat...","1","büglök","[""büglöm"",""büglök""]","","posttest trial","1",""
"html-button-response-clever","171","931226","0.0-13.0-0.51","903","Te bizony sokat bölszöl. Én is sokat...","1","bölszök","[""bölszöm"",""bölszök""]","","posttest trial","1",""
"html-button-response-clever","172","932241","0.0-13.0-0.52","501","Te bizony sokat trilszol. Én is sokat...","0","trilszok","[""trilszok"",""trilszom""]","","posttest trial","1",""
"html-button-response-clever","173","933147","0.0-13.0-0.53","399","Te bizony sokat sojzol. Én is sokat...","1","sojzom","[""sojzok"",""sojzom""]","","posttest trial","1",""
"html-button-response","174","938747","0.0-14.0","5085","<p> Vége a játéknak. A teljes pontszámod 39/54.</p><p> Szép munka! &#128526;&#128526;&#128526;</p><p>A Befejezés gomb megnyomása után bezárhatod a böngészőablakot.</p>","0","","","","","",""
"html-keyboard-response","175","944529","0.0-15.0","null","<div class=""message"">
         <p>Egy kis türelmet kérünk, amíg elmentjük az adatokat...</p>
         </div>","null","","","","","",""
