"trial_type","trial_index","time_elapsed","internal_node_id","rt","stimulus","response","response_string","choices","esp_response","trial_kind","list_number","esp_match"
"pavlovia","0","676","0.0-0.0","","","","","","","","",""
"html-button-response","1","4193","0.0-1.0","3014","<p>Kedves Résztvevő! A Budapesti Műszaki és Gazdaságtudományi Egyetem Kognitív Tudományi Tanszékének kutatásában való részvételed kérjük. A kutatásban azt vizsgáljuk, hogy a magyar anyanyelvűek hogyan használnak bizonyos szóalakokat, és hogy milyen képük van arról, hogy mások hogyan használják, hogyan képzik a szavakat. Ez hozzásegít bennünket ahhoz, hogy jobban megértsük, hogyan dolgozza fel és tárolja a nyelvet az emberi agy, és hogyan működnek, hogyan változnak egy adott közösség nyelvi konvenciói.</p><p>A vizsgálat egy rövid számítógépes feladatból fog állni. A kutatásban való részvétel önkéntes, a részvételi szándék bármikor visszavonható. A résztvevők eredményeit név nélkül kezeljük, így nem beazonosíthatók az adatok feldolgozása során. Minden személyes adatot az EU általános adatvédelmi rendeletének (GDPR) megfelelően kezelünk és legfeljebb öt éven belül megsemmisítünk. A vizsgálat jellemzően húsz percet vesz igénybe.</p><p>Kutatásvezető:</p><p>Dr. Rácz Péter, tudományos munkatárs, BME KTT</p><p>e-mail: racz.peter.marton@ttk.bme.hu</p>","0","","","","","",""
"html-button-response","2","5915","0.0-2.0","1220","<p>A kísérletben szavakat fogsz látni. Ezek között lesznek olyanok, amelyeket ismersz, de előfordulhatnak olyanok is, amelyeket nem ismersz, sőt, vannak köztük kitalált szavak is. Minden szónál látni fogsz toldalékolt alakokat. A te feladatod az lesz, hogy minden szóhoz kiválaszd azt a toldalékolt alakot, amely a te számodra ismerősebben, természetesebben hangzik. Rossz válaszok nincsenek, mert van olyan, hogy különböző embereknek más és más szó tűnik jobb választásnak. A választ úgy tudod majd kiválasztani, ha rákattintasz.</p><p>Ebben a szóválasztós játékban egy másik játékossal együtt veszel majd részt. A másik játékos is minden esetben azok közül a lehetőségek közül válogathat, mint te. Kettőtök feladata az, hogy ugyanazt a lehetőséget válasszátok minden esetben. Ahhoz, hogy ez sikerüljön, neked figyelned kell arra, hogy a másik játékos milyen válaszokat ad, és ennek alapján meg kell tippelned, hogyan választ legközelebb. Ha eltalálod, akkor pontot kapsz.</p>","0","","","","","",""
"html-button-response","3","7724","0.0-3.0","1305","<p>Kérjük, olvasd el az alábbi nyilatkozatot, és amennyiben egyetértesz vele, nyomj a Beleegyezés gombra!</p><p>Kijelentem, hogy magyar anyanyelvű személyként önként veszek részt a BME KTT kísérletében. A kutatás céljával és folyamatával kapcsolatban elegendő tájékoztatást kaptam, lehetőségem volt kérdések feltételére, és esetleges kérdéseimre megfelelő válaszokat kaptam. A tájékoztatás alapján elegendő mennyiségű információ áll a rendelkezésemre, hogy eldönthessem, részt kívánok-e venni a kutatásban.</p><p>Tisztában vagyok vele, hogy részvételi szándékomat és adataimat bármikor, indoklás nélkül visszavonhatom.</p><p>Értem és tudomásul veszem, hogy a kutatás tudományos célokat szolgál, és az általam szolgáltatott adatokat a BME kizárólag kutatási célból használja fel. Tudomásul veszem, hogy eredményeimet a többi résztvevő eredményeivel együtt kezelik, így egyéni teljesítményemről visszajelzést, szakvéleményt nem kapok.</p><p>Megértettem, hogy adataim kezelését illetően a BME az EU általános adatvédelmi rendelete (GDPR), a hatályos adatvédelmi törvény és a nemzetközi kutatás-etikai alapelvek szerint jár el. Eredményeim anonim módon kerülnek feldolgozásra, és a kutatás résztvevői az azonosításomra alkalmas adataimat harmadik félnek nem szolgáltatják ki. Engedélyezem a BME számára a jelen kutatásban felvett adataim feldolgozását és tárolását, beleértve azok későbbi kutatásokhoz való felhasználását is. Személyes adataim kezelésével kapcsolatban tájékoztatást kérhetek a kutatás résztvevőitől, az adatkezelés ellen tiltakozhatok, kérhetem személyes adataim helyesbítését, törlését vagy zárolását, valamint jogorvoslatért a Nemzeti Adatvédelmi és Információszabadság Hatósághoz fordulhatok.</p><p>Kijelentem, hogy a kutatásban való részvételem körülményeiről részletes tájékoztatást kaptam, és a feltételeket elfogadom.</p>","0","","","","","",""
"survey-text","4","21223","0.0-4.0","12955","","{""Q0"":""KJOS9T"",""Q1"":""nő"",""Q2"":""2000"",""Q3"":""12""}","","","","","",""
"html-button-response","5","26951","0.0-5.0","5226","<p>Ebben a játékban szavakat kell toldalékolni.</p> <p>Minden körben mutatunk majd egy példamondatot, amiben lesz egy szó.</p> <p>Alatta jön egy második mondat, ezt a mondatot neked kell majd befejezni, ugyanezzel a szóval.</p> <p>Nem biztos, hogy a szó eleve ismerős lesz számodra!</p> <p>Minden mondathoz adunk két lehetőséget, ezeket balra és jobbra látod majd.</p> <p>A játék kb. negyedóráig-húsz percig tart.</p>","0","","","","","",""
"html-button-response","6","28891","0.0-6.0","1437","<p>Nézzünk egy példát!</p> <p>A példamondat: ""János nagyon szeret rancsúrozni.""</p><p>Neked ezt a mondatot kell befejezned: ""Én is szívesen...""</p><p>A lehetőségek pedig ezek:</p>","1","","","","","",""
"html-button-response","7","30345","0.0-7.0","951","<p>Nagyon jó.</p><p>Ezt a játékot nem egyedül fogod játszani, hanem egy másik játékossal.</p><p>Mielőtt továbblépünk, összekapcsolunk titeket egymással.</p><p>Ez igénybe vehet néhány másodpercet, amihez szíves türelmed kérjük.</p>","0","","","","","",""
"html-button-response","8","36071","0.0-8.0","null","<p>Csatlakozás a másik játékoshoz...</p>","null","","","","","",""
"html-button-response","9","38573","0.0-9.0","null","<p> Sikeres kapcsolódás!</p>","null","","","","","",""
"html-button-response","10","40075","0.0-10.0","994","<p>A következőkben ketten játsszátok a szóválasztós játékot.</p><p>A feladatotok az lesz, hogy minden körben <b>ugyanazt</b> a szót válasszátok.</p><p>Minden ilyen egyező válaszért pontot kaptok.</p><p>Próbáld meg kitalálni, mit választ a másik játékos!</p><p>Bármikor választhatsz, a körnek akkor van vége, ha mindketten döntöttetek.</p><p>Sok sikert!</p>","0","","","","","",""
"html-button-response-esp","11","46943","0.0-11.0-0.0","1379","Te bizony sokat herégszel. Én is sokat...","0","herégszek","[""herégszek"",""herégszem""]","herégszek","esp trial","0","true"
"html-button-response","12","50450","0.0-11.0-1.0","null","<p>A másik játékos ezt választotta: <b>herégszek</b>.</p><p>&#x2705;</p><p>A te válaszod és a másik játékos válasza <b>megegyeznek</b>.</p>","null","","","","feedback trial","",""
"html-button-response-esp","13","57306","0.0-11.0-0.1","1077","Te bizony sokat klibamlasz. Én is sokat...","1","klibamlok","[""klibamlom"",""klibamlok""]","klibamlok","esp trial","0","true"
"html-button-response","14","60810","0.0-11.0-1.1","null","<p>A másik játékos ezt választotta: <b>klibamlok</b>.</p><p>&#x2705;</p><p>A te válaszod és a másik játékos válasza <b>megegyeznek</b>.</p>","null","","","","feedback trial","",""
"html-button-response-esp","15","67663","0.0-11.0-0.2","1587","Te bizony sokat frilegszel. Én is sokat...","0","frilegszek","[""frilegszek"",""frilegszem""]","frilegszek","esp trial","0","true"
"html-button-response","16","71167","0.0-11.0-1.2","null","<p>A másik játékos ezt választotta: <b>frilegszek</b>.</p><p>&#x2705;</p><p>A te válaszod és a másik játékos válasza <b>megegyeznek</b>.</p>","null","","","","feedback trial","",""
"html-button-response-esp","17","78021","0.0-11.0-0.3","1595","Te bizony sokat pivegszel. Én is sokat...","0","pivegszek","[""pivegszek"",""pivegszem""]","pivegszek","esp trial","0","true"
"html-button-response","18","81527","0.0-11.0-1.3","null","<p>A másik játékos ezt választotta: <b>pivegszek</b>.</p><p>&#x2705;</p><p>A te válaszod és a másik játékos válasza <b>megegyeznek</b>.</p>","null","","","","feedback trial","",""
"html-button-response-esp","19","88386","0.0-11.0-0.4","2350","Te bizony sokat pebzel. Én is sokat...","1","pebzek","[""pebzem"",""pebzek""]","pebzek","esp trial","0","true"
"html-button-response","20","91891","0.0-11.0-1.4","null","<p>A másik játékos ezt választotta: <b>pebzek</b>.</p><p>&#x2705;</p><p>A te válaszod és a másik játékos válasza <b>megegyeznek</b>.</p>","null","","","","feedback trial","",""
"html-button-response-esp","21","98747","0.0-11.0-0.5","3766","Te bizony sokat sojzol. Én is sokat...","0","sojzok","[""sojzok"",""sojzom""]","sojzok","esp trial","0","true"
"html-button-response","22","102252","0.0-11.0-1.5","null","<p>A másik játékos ezt választotta: <b>sojzok</b>.</p><p>&#x2705;</p><p>A te válaszod és a másik játékos válasza <b>megegyeznek</b>.</p>","null","","","","feedback trial","",""
"html-button-response-esp","23","109110","0.0-11.0-0.6","3357","Te bizony sokat piragszol. Én is sokat...","1","piragszok","[""piragszom"",""piragszok""]","piragszok","esp trial","0","true"
"html-button-response","24","112618","0.0-11.0-1.6","null","<p>A másik játékos ezt választotta: <b>piragszok</b>.</p><p>&#x2705;</p><p>A te válaszod és a másik játékos válasza <b>megegyeznek</b>.</p>","null","","","","feedback trial","",""
"html-button-response-esp","25","119479","0.0-11.0-0.7","2834","Te bizony sokat jüslesz. Én is sokat...","1","jüslök","[""jüslöm"",""jüslök""]","jüslöm","esp trial","0","false"
"html-button-response","26","122982","0.0-11.0-1.7","null","<p>A másik játékos ezt választotta: <b>jüslöm</b>.</p><p>&#10060;</p><p>A válaszaitok <b>nem</b> egyeznek meg.</p>","null","","","","feedback trial","",""
"html-button-response-esp","27","129836","0.0-11.0-0.8","1475","Te bizony sokat szirlasz. Én is sokat...","1","szirlok","[""szirlom"",""szirlok""]","szirlok","esp trial","0","true"
"html-button-response","28","133342","0.0-11.0-1.8","null","<p>A másik játékos ezt választotta: <b>szirlok</b>.</p><p>&#x2705;</p><p>A te válaszod és a másik játékos válasza <b>megegyeznek</b>.</p>","null","","","","feedback trial","",""
"html-button-response-esp","29","140198","0.0-11.0-0.9","1815","Te bizony sokat feténylesz. Én is sokat...","1","feténylek","[""feténylem"",""feténylek""]","feténylem","esp trial","0","false"
"html-button-response","30","143708","0.0-11.0-1.9","null","<p>A másik játékos ezt választotta: <b>feténylem</b>.</p><p>&#10060;</p><p>A válaszaitok <b>nem</b> egyeznek meg.</p>","null","","","","feedback trial","",""
"html-button-response-esp","31","150566","0.0-11.0-0.10","1131","Te bizony sokat spibaklasz. Én is sokat...","1","spibaklok","[""spibaklom"",""spibaklok""]","spibaklok","esp trial","0","true"
"html-button-response","32","154070","0.0-11.0-1.10","null","<p>A másik játékos ezt választotta: <b>spibaklok</b>.</p><p>&#x2705;</p><p>A te válaszod és a másik játékos válasza <b>megegyeznek</b>.</p>","null","","","","feedback trial","",""
"html-button-response-esp","33","160927","0.0-11.0-0.11","860","Te bizony sokat sűzlesz. Én is sokat...","0","sűzlök","[""sűzlök"",""sűzlöm""]","sűzlök","esp trial","0","true"
"html-button-response","34","164436","0.0-11.0-1.11","null","<p>A másik játékos ezt választotta: <b>sűzlök</b>.</p><p>&#x2705;</p><p>A te válaszod és a másik játékos válasza <b>megegyeznek</b>.</p>","null","","","","feedback trial","",""
"html-button-response-esp","35","171293","0.0-11.0-0.12","1804","Te bizony sokat drubódzol. Én is sokat...","1","drubódzok","[""drubódzom"",""drubódzok""]","drubódzok","esp trial","0","true"
"html-button-response","36","174796","0.0-11.0-1.12","null","<p>A másik játékos ezt választotta: <b>drubódzok</b>.</p><p>&#x2705;</p><p>A te válaszod és a másik játékos válasza <b>megegyeznek</b>.</p>","null","","","","feedback trial","",""
"html-button-response-esp","37","181648","0.0-11.0-0.13","1916","Te bizony sokat tiregzel. Én is sokat...","1","tiregzek","[""tiregzem"",""tiregzek""]","tiregzek","esp trial","0","true"
"html-button-response","38","185152","0.0-11.0-1.13","null","<p>A másik játékos ezt választotta: <b>tiregzek</b>.</p><p>&#x2705;</p><p>A te válaszod és a másik játékos válasza <b>megegyeznek</b>.</p>","null","","","","feedback trial","",""
"html-button-response-esp","39","192006","0.0-11.0-0.14","1048","Te bizony sokat spéslesz. Én is sokat...","0","spéslek","[""spéslek"",""spéslem""]","spéslem","esp trial","0","false"
"html-button-response","40","195508","0.0-11.0-1.14","null","<p>A másik játékos ezt választotta: <b>spéslem</b>.</p><p>&#10060;</p><p>A válaszaitok <b>nem</b> egyeznek meg.</p>","null","","","","feedback trial","",""
"html-button-response-esp","41","202361","0.0-11.0-0.15","1757","Te bizony sokat ribegzel. Én is sokat...","1","ribegzek","[""ribegzem"",""ribegzek""]","ribegzek","esp trial","0","true"
"html-button-response","42","205865","0.0-11.0-1.15","null","<p>A másik játékos ezt választotta: <b>ribegzek</b>.</p><p>&#x2705;</p><p>A te válaszod és a másik játékos válasza <b>megegyeznek</b>.</p>","null","","","","feedback trial","",""
"html-button-response-esp","43","212728","0.0-11.0-0.16","1645","Te bizony sokat vilakszol. Én is sokat...","1","vilakszok","[""vilakszom"",""vilakszok""]","vilakszok","esp trial","0","true"
"html-button-response","44","216235","0.0-11.0-1.16","null","<p>A másik játékos ezt választotta: <b>vilakszok</b>.</p><p>&#x2705;</p><p>A te válaszod és a másik játékos válasza <b>megegyeznek</b>.</p>","null","","","","feedback trial","",""
"html-button-response-esp","45","223088","0.0-11.0-0.17","1749","Te bizony sokat nyáslasz. Én is sokat...","1","nyáslok","[""nyáslom"",""nyáslok""]","nyáslok","esp trial","0","true"
"html-button-response","46","226593","0.0-11.0-1.17","null","<p>A másik játékos ezt választotta: <b>nyáslok</b>.</p><p>&#x2705;</p><p>A te válaszod és a másik játékos válasza <b>megegyeznek</b>.</p>","null","","","","feedback trial","",""
"html-button-response-esp","47","233446","0.0-11.0-0.18","1300","Te bizony sokat böjzöl. Én is sokat...","1","böjzök","[""böjzöm"",""böjzök""]","böjzök","esp trial","0","true"
"html-button-response","48","236952","0.0-11.0-1.18","null","<p>A másik játékos ezt választotta: <b>böjzök</b>.</p><p>&#x2705;</p><p>A te válaszod és a másik játékos válasza <b>megegyeznek</b>.</p>","null","","","","feedback trial","",""
"html-button-response-esp","49","243807","0.0-11.0-0.19","2833","Te bizony sokat csíszlasz. Én is sokat...","1","csíszlok","[""csíszlom"",""csíszlok""]","csíszlok","esp trial","0","true"
"html-button-response","50","247311","0.0-11.0-1.19","null","<p>A másik játékos ezt választotta: <b>csíszlok</b>.</p><p>&#x2705;</p><p>A te válaszod és a másik játékos válasza <b>megegyeznek</b>.</p>","null","","","","feedback trial","",""
"html-button-response-esp","51","254165","0.0-11.0-0.20","1519","Te bizony sokat siladzol. Én is sokat...","1","siladzok","[""siladzom"",""siladzok""]","siladzok","esp trial","0","true"
"html-button-response","52","257669","0.0-11.0-1.20","null","<p>A másik játékos ezt választotta: <b>siladzok</b>.</p><p>&#x2705;</p><p>A te válaszod és a másik játékos válasza <b>megegyeznek</b>.</p>","null","","","","feedback trial","",""
"html-button-response-esp","53","264523","0.0-11.0-0.21","1410","Te bizony sokat büglesz. Én is sokat...","1","büglök","[""büglöm"",""büglök""]","büglöm","esp trial","0","false"
"html-button-response","54","268026","0.0-11.0-1.21","null","<p>A másik játékos ezt választotta: <b>büglöm</b>.</p><p>&#10060;</p><p>A válaszaitok <b>nem</b> egyeznek meg.</p>","null","","","","feedback trial","",""
"html-button-response-esp","55","274879","0.0-11.0-0.22","1437","Te bizony sokat sprökszöl. Én is sokat...","1","sprökszök","[""sprökszöm"",""sprökszök""]","sprökszök","esp trial","0","true"
"html-button-response","56","278383","0.0-11.0-1.22","null","<p>A másik játékos ezt választotta: <b>sprökszök</b>.</p><p>&#x2705;</p><p>A te válaszod és a másik játékos válasza <b>megegyeznek</b>.</p>","null","","","","feedback trial","",""
"html-button-response-esp","57","285237","0.0-11.0-0.23","2432","Te bizony sokat ruslasz. Én is sokat...","0","ruslok","[""ruslok"",""ruslom""]","ruslom","esp trial","0","false"
"html-button-response","58","288741","0.0-11.0-1.23","null","<p>A másik játékos ezt választotta: <b>ruslom</b>.</p><p>&#10060;</p><p>A válaszaitok <b>nem</b> egyeznek meg.</p>","null","","","","feedback trial","",""
"html-button-response-esp","59","295595","0.0-11.0-0.24","3732","Te bizony sokat prilegzel. Én is sokat...","0","prilegzek","[""prilegzek"",""prilegzem""]","prilegzek","esp trial","0","true"
"html-button-response","60","299103","0.0-11.0-1.24","null","<p>A másik játékos ezt választotta: <b>prilegzek</b>.</p><p>&#x2705;</p><p>A te válaszod és a másik játékos válasza <b>megegyeznek</b>.</p>","null","","","","feedback trial","",""
"html-button-response-esp","61","305957","0.0-11.0-0.25","2066","Te bizony sokat prűrlesz. Én is sokat...","0","prűrlök","[""prűrlök"",""prűrlöm""]","prűrlöm","esp trial","0","false"
"html-button-response","62","309461","0.0-11.0-1.25","null","<p>A másik játékos ezt választotta: <b>prűrlöm</b>.</p><p>&#10060;</p><p>A válaszaitok <b>nem</b> egyeznek meg.</p>","null","","","","feedback trial","",""
"html-button-response-esp","63","316316","0.0-11.0-0.26","4191","Te bizony sokat hilarzol. Én is sokat...","1","hilarzok","[""hilarzom"",""hilarzok""]","hilarzok","esp trial","0","true"
"html-button-response","64","319824","0.0-11.0-1.26","null","<p>A másik játékos ezt választotta: <b>hilarzok</b>.</p><p>&#x2705;</p><p>A te válaszod és a másik játékos válasza <b>megegyeznek</b>.</p>","null","","","","feedback trial","",""
"html-button-response-esp","65","326679","0.0-11.0-0.27","1814","Te bizony sokat juszlasz. Én is sokat...","1","juszlok","[""juszlom"",""juszlok""]","juszlok","esp trial","0","true"
"html-button-response","66","330183","0.0-11.0-1.27","null","<p>A másik játékos ezt választotta: <b>juszlok</b>.</p><p>&#x2705;</p><p>A te válaszod és a másik játékos válasza <b>megegyeznek</b>.</p>","null","","","","feedback trial","",""
"html-button-response-esp","67","337037","0.0-11.0-0.28","1413","Te bizony sokat pratánylasz. Én is sokat...","1","pratánylok","[""pratánylom"",""pratánylok""]","pratánylom","esp trial","0","false"
"html-button-response","68","340541","0.0-11.0-1.28","null","<p>A másik játékos ezt választotta: <b>pratánylom</b>.</p><p>&#10060;</p><p>A válaszaitok <b>nem</b> egyeznek meg.</p>","null","","","","feedback trial","",""
"html-button-response-esp","69","347395","0.0-11.0-0.29","3119","Te bizony sokat fibamlasz. Én is sokat...","1","fibamlok","[""fibamlom"",""fibamlok""]","fibamlom","esp trial","0","false"
"html-button-response","70","350898","0.0-11.0-1.29","null","<p>A másik játékos ezt választotta: <b>fibamlom</b>.</p><p>&#10060;</p><p>A válaszaitok <b>nem</b> egyeznek meg.</p>","null","","","","feedback trial","",""
"html-button-response-esp","71","357751","0.0-11.0-0.30","1352","Te bizony sokat spatárzol. Én is sokat...","0","spatárzok","[""spatárzok"",""spatárzom""]","spatárzok","esp trial","0","true"
"html-button-response","72","361259","0.0-11.0-1.30","null","<p>A másik játékos ezt választotta: <b>spatárzok</b>.</p><p>&#x2705;</p><p>A te válaszod és a másik játékos válasza <b>megegyeznek</b>.</p>","null","","","","feedback trial","",""
"html-button-response-esp","73","368113","0.0-11.0-0.31","1403","Te bizony sokat fretszel. Én is sokat...","0","fretszek","[""fretszek"",""fretszem""]","fretszek","esp trial","0","true"
"html-button-response","74","371616","0.0-11.0-1.31","null","<p>A másik játékos ezt választotta: <b>fretszek</b>.</p><p>&#x2705;</p><p>A te válaszod és a másik játékos válasza <b>megegyeznek</b>.</p>","null","","","","feedback trial","",""
"html-button-response-esp","75","378469","0.0-11.0-0.32","1908","Te bizony sokat sprogzol. Én is sokat...","0","sprogzok","[""sprogzok"",""sprogzom""]","sprogzok","esp trial","0","true"
"html-button-response","76","381972","0.0-11.0-1.32","null","<p>A másik játékos ezt választotta: <b>sprogzok</b>.</p><p>&#x2705;</p><p>A te válaszod és a másik játékos válasza <b>megegyeznek</b>.</p>","null","","","","feedback trial","",""
"html-button-response-esp","77","388903","0.0-11.0-0.33","1870","Te bizony sokat brágaklasz. Én is sokat...","0","brágaklok","[""brágaklok"",""brágaklom""]","brágaklok","esp trial","0","true"
"html-button-response","78","392407","0.0-11.0-1.33","null","<p>A másik játékos ezt választotta: <b>brágaklok</b>.</p><p>&#x2705;</p><p>A te válaszod és a másik játékos válasza <b>megegyeznek</b>.</p>","null","","","","feedback trial","",""
"html-button-response-esp","79","399261","0.0-11.0-0.34","3587","Te bizony sokat málapszol. Én is sokat...","1","málapszok","[""málapszom"",""málapszok""]","málapszok","esp trial","0","true"
"html-button-response","80","402768","0.0-11.0-1.34","null","<p>A másik játékos ezt választotta: <b>málapszok</b>.</p><p>&#x2705;</p><p>A te válaszod és a másik játékos válasza <b>megegyeznek</b>.</p>","null","","","","feedback trial","",""
"html-button-response-esp","81","409622","0.0-11.0-0.35","1168","Te bizony sokat bölszöl. Én is sokat...","1","bölszök","[""bölszöm"",""bölszök""]","bölszök","esp trial","0","true"
"html-button-response","82","413125","0.0-11.0-1.35","null","<p>A másik játékos ezt választotta: <b>bölszök</b>.</p><p>&#x2705;</p><p>A te válaszod és a másik játékos válasza <b>megegyeznek</b>.</p>","null","","","","feedback trial","",""
"html-button-response-esp","83","419979","0.0-11.0-0.36","984","Te bizony sokat brüjlesz. Én is sokat...","1","brüjlök","[""brüjlöm"",""brüjlök""]","brüjlöm","esp trial","0","false"
"html-button-response","84","423482","0.0-11.0-1.36","null","<p>A másik játékos ezt választotta: <b>brüjlöm</b>.</p><p>&#10060;</p><p>A válaszaitok <b>nem</b> egyeznek meg.</p>","null","","","","feedback trial","",""
"html-button-response-esp","85","430335","0.0-11.0-0.37","6109","Te bizony sokat flagárzol. Én is sokat...","1","flagárzok","[""flagárzom"",""flagárzok""]","flagárzok","esp trial","0","true"
"html-button-response","86","433839","0.0-11.0-1.37","null","<p>A másik játékos ezt választotta: <b>flagárzok</b>.</p><p>&#x2705;</p><p>A te válaszod és a másik játékos válasza <b>megegyeznek</b>.</p>","null","","","","feedback trial","",""
"html-button-response-esp","87","440693","0.0-11.0-0.38","2726","Te bizony sokat sztremlesz. Én is sokat...","0","sztremlek","[""sztremlek"",""sztremlem""]","sztremlem","esp trial","0","false"
"html-button-response","88","444196","0.0-11.0-1.38","null","<p>A másik játékos ezt választotta: <b>sztremlem</b>.</p><p>&#10060;</p><p>A válaszaitok <b>nem</b> egyeznek meg.</p>","null","","","","feedback trial","",""
"html-button-response-esp","89","451049","0.0-11.0-0.39","2188","Te bizony sokat spűmlesz. Én is sokat...","0","spűmlök","[""spűmlök"",""spűmlöm""]","spűmlöm","esp trial","0","false"
"html-button-response","90","454551","0.0-11.0-1.39","null","<p>A másik játékos ezt választotta: <b>spűmlöm</b>.</p><p>&#10060;</p><p>A válaszaitok <b>nem</b> egyeznek meg.</p>","null","","","","feedback trial","",""
"html-button-response-esp","91","461404","0.0-11.0-0.40","815","Te bizony sokat flűröklesz. Én is sokat...","0","flűröklök","[""flűröklök"",""flűröklöm""]","flűröklök","esp trial","0","true"
"html-button-response","92","464908","0.0-11.0-1.40","null","<p>A másik játékos ezt választotta: <b>flűröklök</b>.</p><p>&#x2705;</p><p>A te válaszod és a másik játékos válasza <b>megegyeznek</b>.</p>","null","","","","feedback trial","",""
"html-button-response-esp","93","471760","0.0-11.0-0.41","1502","Te bizony sokat driládzol. Én is sokat...","0","driládzok","[""driládzok"",""driládzom""]","driládzok","esp trial","0","true"
"html-button-response","94","475263","0.0-11.0-1.41","null","<p>A másik játékos ezt választotta: <b>driládzok</b>.</p><p>&#x2705;</p><p>A te válaszod és a másik játékos válasza <b>megegyeznek</b>.</p>","null","","","","feedback trial","",""
"html-button-response-esp","95","482115","0.0-11.0-0.42","3618","Te bizony sokat tínylasz. Én is sokat...","1","tínylok","[""tínylom"",""tínylok""]","tínylok","esp trial","0","true"
"html-button-response","96","485618","0.0-11.0-1.42","null","<p>A másik játékos ezt választotta: <b>tínylok</b>.</p><p>&#x2705;</p><p>A te válaszod és a másik játékos válasza <b>megegyeznek</b>.</p>","null","","","","feedback trial","",""
"html-button-response-esp","97","492473","0.0-11.0-0.43","1402","Te bizony sokat flüröslesz. Én is sokat...","0","flüröslök","[""flüröslök"",""flüröslöm""]","flüröslök","esp trial","0","true"
"html-button-response","98","495975","0.0-11.0-1.43","null","<p>A másik játékos ezt választotta: <b>flüröslök</b>.</p><p>&#x2705;</p><p>A te válaszod és a másik játékos válasza <b>megegyeznek</b>.</p>","null","","","","feedback trial","",""
"html-button-response-esp","99","502829","0.0-11.0-0.44","743","Te bizony sokat femlesz. Én is sokat...","0","femlek","[""femlek"",""femlem""]","femlem","esp trial","0","false"
"html-button-response","100","506332","0.0-11.0-1.44","null","<p>A másik játékos ezt választotta: <b>femlem</b>.</p><p>&#10060;</p><p>A válaszaitok <b>nem</b> egyeznek meg.</p>","null","","","","feedback trial","",""
"html-button-response-esp","101","513185","0.0-11.0-0.45","1016","Te bizony sokat marzol. Én is sokat...","1","marzok","[""marzom"",""marzok""]","marzom","esp trial","0","false"
"html-button-response","102","516689","0.0-11.0-1.45","null","<p>A másik játékos ezt választotta: <b>marzom</b>.</p><p>&#10060;</p><p>A válaszaitok <b>nem</b> egyeznek meg.</p>","null","","","","feedback trial","",""
"html-button-response-esp","103","523542","0.0-11.0-0.46","1545","Te bizony sokat klörlesz. Én is sokat...","1","klörlök","[""klörlöm"",""klörlök""]","klörlök","esp trial","0","true"
"html-button-response","104","527045","0.0-11.0-1.46","null","<p>A másik játékos ezt választotta: <b>klörlök</b>.</p><p>&#x2705;</p><p>A te válaszod és a másik játékos válasza <b>megegyeznek</b>.</p>","null","","","","feedback trial","",""
"html-button-response-esp","105","533900","0.0-11.0-0.47","1125","Te bizony sokat ribzol. Én is sokat...","0","ribzom","[""ribzom"",""ribzok""]","ribzok","esp trial","0","false"
"html-button-response","106","537404","0.0-11.0-1.47","null","<p>A másik játékos ezt választotta: <b>ribzok</b>.</p><p>&#10060;</p><p>A válaszaitok <b>nem</b> egyeznek meg.</p>","null","","","","feedback trial","",""
"html-button-response-esp","107","544260","0.0-11.0-0.48","1427","Te bizony sokat spilágzol. Én is sokat...","0","spilágzom","[""spilágzom"",""spilágzok""]","spilágzok","esp trial","0","false"
"html-button-response","108","547764","0.0-11.0-1.48","null","<p>A másik játékos ezt választotta: <b>spilágzok</b>.</p><p>&#10060;</p><p>A válaszaitok <b>nem</b> egyeznek meg.</p>","null","","","","feedback trial","",""
"html-button-response-esp","109","554617","0.0-11.0-0.49","1619","Te bizony sokat flagánylasz. Én is sokat...","1","flagánylok","[""flagánylom"",""flagánylok""]","flagánylom","esp trial","0","false"
"html-button-response","110","558120","0.0-11.0-1.49","null","<p>A másik játékos ezt választotta: <b>flagánylom</b>.</p><p>&#10060;</p><p>A válaszaitok <b>nem</b> egyeznek meg.</p>","null","","","","feedback trial","",""
"html-button-response-esp","111","564973","0.0-11.0-0.50","878","Te bizony sokat tomlasz. Én is sokat...","1","tomlok","[""tomlom"",""tomlok""]","tomlom","esp trial","0","false"
"html-button-response","112","568477","0.0-11.0-1.50","null","<p>A másik játékos ezt választotta: <b>tomlom</b>.</p><p>&#10060;</p><p>A válaszaitok <b>nem</b> egyeznek meg.</p>","null","","","","feedback trial","",""
"html-button-response-esp","113","575330","0.0-11.0-0.51","3879","Te bizony sokat trilszol. Én is sokat...","0","trilszok","[""trilszok"",""trilszom""]","trilszok","esp trial","0","true"
"html-button-response","114","578836","0.0-11.0-1.51","null","<p>A másik játékos ezt választotta: <b>trilszok</b>.</p><p>&#x2705;</p><p>A te válaszod és a másik játékos válasza <b>megegyeznek</b>.</p>","null","","","","feedback trial","",""
"html-button-response-esp","115","585689","0.0-11.0-0.52","1640","Te bizony sokat lorjódzol. Én is sokat...","1","lorjódzok","[""lorjódzom"",""lorjódzok""]","lorjódzok","esp trial","0","true"
"html-button-response","116","589194","0.0-11.0-1.52","null","<p>A másik játékos ezt választotta: <b>lorjódzok</b>.</p><p>&#x2705;</p><p>A te válaszod és a másik játékos válasza <b>megegyeznek</b>.</p>","null","","","","feedback trial","",""
"html-button-response-esp","117","596047","0.0-11.0-0.53","3530","Te bizony sokat narjárzol. Én is sokat...","1","narjárzok","[""narjárzom"",""narjárzok""]","narjárzok","esp trial","0","true"
"html-button-response","118","599549","0.0-11.0-1.53","null","<p>A másik játékos ezt választotta: <b>narjárzok</b>.</p><p>&#x2705;</p><p>A te válaszod és a másik játékos válasza <b>megegyeznek</b>.</p>","null","","","","feedback trial","",""
"html-button-response","119","606806","0.0-12.0","6754","<p>A közös játék most véget ért.</p><p>Mielőtt eláruljuk a végső pontszámodat, arra kérlek, játszd a szóválasztós játékot néhány percig egyedül is.</p><p>A feladatod ugyanaz lesz, választani két lehetőség közül.</p><p>Most viszont egyedül kell döntened, hogy te melyiket választanád.</p>","0","","","","","",""
"html-button-response-clever","120","608735","0.0-13.0-0.0","1422","Te bizony sokat hurjorzol. Én is sokat...","1","hurjorzok","[""hurjorzom"",""hurjorzok""]","","posttest trial","4",""
"html-button-response-clever","121","610537","0.0-13.0-0.1","1296","Te bizony sokat spülűdzöl. Én is sokat...","0","spülűdzök","[""spülűdzök"",""spülűdzöm""]","","posttest trial","4",""
"html-button-response-clever","122","612583","0.0-13.0-0.2","1543","Te bizony sokat flátszol. Én is sokat...","0","flátszok","[""flátszok"",""flátszom""]","","posttest trial","4",""
"html-button-response-clever","123","614145","0.0-13.0-0.3","1060","Te bizony sokat brubzol. Én is sokat...","1","brubzok","[""brubzom"",""brubzok""]","","posttest trial","4",""
"html-button-response-clever","124","615735","0.0-13.0-0.4","1088","Te bizony sokat spröbzöl. Én is sokat...","0","spröbzök","[""spröbzök"",""spröbzöm""]","","posttest trial","4",""
"html-button-response-clever","125","617110","0.0-13.0-0.5","872","Te bizony sokat vanylasz. Én is sokat...","1","vanylok","[""vanylom"",""vanylok""]","","posttest trial","4",""
"html-button-response-clever","126","618460","0.0-13.0-0.6","845","Te bizony sokat filágzol. Én is sokat...","1","filágzok","[""filágzom"",""filágzok""]","","posttest trial","4",""
"html-button-response-clever","127","620072","0.0-13.0-0.7","1110","Te bizony sokat spüjzöl. Én is sokat...","1","spüjzök","[""spüjzöm"",""spüjzök""]","","posttest trial","4",""
"html-button-response-clever","128","621495","0.0-13.0-0.8","912","Te bizony sokat rájzol. Én is sokat...","0","rájzok","[""rájzok"",""rájzom""]","","posttest trial","4",""
"html-button-response-clever","129","623022","0.0-13.0-0.9","1025","Te bizony sokat ibékszel. Én is sokat...","0","ibékszek","[""ibékszek"",""ibékszem""]","","posttest trial","4",""
"html-button-response-clever","130","624546","0.0-13.0-0.10","1022","Te bizony sokat sztrűkszöl. Én is sokat...","0","sztrűkszök","[""sztrűkszök"",""sztrűkszöm""]","","posttest trial","4",""
"html-button-response-clever","131","625894","0.0-13.0-0.11","846","Te bizony sokat rokszol. Én is sokat...","1","rokszok","[""rokszom"",""rokszok""]","","posttest trial","4",""
"html-button-response-clever","132","627242","0.0-13.0-0.12","845","Te bizony sokat düjzöl. Én is sokat...","1","düjzök","[""düjzöm"",""düjzök""]","","posttest trial","4",""
"html-button-response-clever","133","628393","0.0-13.0-0.13","649","Te bizony sokat klétszel. Én is sokat...","1","klétszek","[""klétszem"",""klétszek""]","","posttest trial","4",""
"html-button-response-clever","134","629624","0.0-13.0-0.14","728","Te bizony sokat flitlasz. Én is sokat...","1","flitlok","[""flitlom"",""flitlok""]","","posttest trial","4",""
"html-button-response-clever","135","630996","0.0-13.0-0.15","871","Te bizony sokat plűbzöl. Én is sokat...","0","plűbzök","[""plűbzök"",""plűbzöm""]","","posttest trial","4",""
"html-button-response-clever","136","632360","0.0-13.0-0.16","861","Te bizony sokat vülődzöl. Én is sokat...","1","vülődzök","[""vülődzöm"",""vülődzök""]","","posttest trial","4",""
"html-button-response-clever","137","633734","0.0-13.0-0.17","873","Te bizony sokat trádlasz. Én is sokat...","0","trádlok","[""trádlok"",""trádlom""]","","posttest trial","4",""
"html-button-response-clever","138","635360","0.0-13.0-0.18","1124","Te bizony sokat sztrijzol. Én is sokat...","0","sztrijzok","[""sztrijzok"",""sztrijzom""]","","posttest trial","4",""
"html-button-response-clever","139","637273","0.0-13.0-0.19","1411","Te bizony sokat jonylasz. Én is sokat...","1","jonylok","[""jonylom"",""jonylok""]","","posttest trial","4",""
"html-button-response-clever","140","638554","0.0-13.0-0.20","778","Te bizony sokat tragzol. Én is sokat...","0","tragzok","[""tragzok"",""tragzom""]","","posttest trial","4",""
"html-button-response-clever","141","639866","0.0-13.0-0.21","810","Te bizony sokat spubonylasz. Én is sokat...","1","spubonylok","[""spubonylom"",""spubonylok""]","","posttest trial","4",""
"html-button-response-clever","142","641250","0.0-13.0-0.22","881","Te bizony sokat sztrozlasz. Én is sokat...","0","sztrozlok","[""sztrozlok"",""sztrozlom""]","","posttest trial","4",""
"html-button-response-clever","143","642620","0.0-13.0-0.23","867","Te bizony sokat bivégszel. Én is sokat...","0","bivégszek","[""bivégszek"",""bivégszem""]","","posttest trial","4",""
"html-button-response-clever","144","644076","0.0-13.0-0.24","954","Te bizony sokat plugzol. Én is sokat...","1","plugzok","[""plugzom"",""plugzok""]","","posttest trial","4",""
"html-button-response-clever","145","645482","0.0-13.0-0.25","903","Te bizony sokat klaráglasz. Én is sokat...","1","klaráglok","[""klaráglom"",""klaráglok""]","","posttest trial","4",""
"html-button-response-clever","146","646975","0.0-13.0-0.26","990","Te bizony sokat spihemlesz. Én is sokat...","0","spihemlek","[""spihemlek"",""spihemlem""]","","posttest trial","4",""
"html-button-response-clever","147","649071","0.0-13.0-0.27","1595","Te bizony sokat flűmlesz. Én is sokat...","0","flűmlök","[""flűmlök"",""flűmlöm""]","","posttest trial","4",""
"html-button-response-clever","148","650492","0.0-13.0-0.28","917","Te bizony sokat hűgzöl. Én is sokat...","1","hűgzök","[""hűgzöm"",""hűgzök""]","","posttest trial","4",""
"html-button-response-clever","149","651801","0.0-13.0-0.29","808","Te bizony sokat salárzol. Én is sokat...","0","salárzok","[""salárzok"",""salárzom""]","","posttest trial","4",""
"html-button-response-clever","150","653192","0.0-13.0-0.30","886","Te bizony sokat flehénylesz. Én is sokat...","0","flehénylek","[""flehénylek"",""flehénylem""]","","posttest trial","4",""
"html-button-response-clever","151","655013","0.0-13.0-0.31","1318","Te bizony sokat frodlasz. Én is sokat...","1","frodlok","[""frodlom"",""frodlok""]","","posttest trial","4",""
"html-button-response-clever","152","656382","0.0-13.0-0.32","867","Te bizony sokat flehékszel. Én is sokat...","1","flehékszek","[""flehékszem"",""flehékszek""]","","posttest trial","4",""
"html-button-response-clever","153","657924","0.0-13.0-0.33","1040","Te bizony sokat bihánylasz. Én is sokat...","1","bihánylok","[""bihánylom"",""bihánylok""]","","posttest trial","4",""
"html-button-response-clever","154","659754","0.0-13.0-0.34","1327","Te bizony sokat brivegzel. Én is sokat...","1","brivegzek","[""brivegzem"",""brivegzek""]","","posttest trial","4",""
"html-button-response-clever","155","662410","0.0-13.0-0.35","2155","Te bizony sokat treglesz. Én is sokat...","0","treglek","[""treglek"",""treglem""]","","posttest trial","4",""
"html-button-response-clever","156","664673","0.0-13.0-0.36","1758","Te bizony sokat prínylasz. Én is sokat...","1","prínylok","[""prínylom"",""prínylok""]","","posttest trial","4",""
"html-button-response-clever","157","665965","0.0-13.0-0.37","789","Te bizony sokat narádzol. Én is sokat...","1","narádzok","[""narádzom"",""narádzok""]","","posttest trial","4",""
"html-button-response-clever","158","667289","0.0-13.0-0.38","822","Te bizony sokat lörűdzöl. Én is sokat...","1","lörűdzök","[""lörűdzöm"",""lörűdzök""]","","posttest trial","4",""
"html-button-response-clever","159","668607","0.0-13.0-0.39","815","Te bizony sokat klivaslasz. Én is sokat...","0","klivaslok","[""klivaslok"",""klivaslom""]","","posttest trial","4",""
"html-button-response-clever","160","669926","0.0-13.0-0.40","817","Te bizony sokat nűröklesz. Én is sokat...","0","nűröklök","[""nűröklök"",""nűröklöm""]","","posttest trial","4",""
"html-button-response-clever","161","671506","0.0-13.0-0.41","1077","Te bizony sokat brobódzol. Én is sokat...","0","brobódzok","[""brobódzok"",""brobódzom""]","","posttest trial","4",""
"html-button-response-clever","162","673035","0.0-13.0-0.42","1025","Te bizony sokat szibánylasz. Én is sokat...","1","szibánylok","[""szibánylom"",""szibánylok""]","","posttest trial","4",""
"html-button-response-clever","163","674483","0.0-13.0-0.43","944","Te bizony sokat pribemlesz. Én is sokat...","0","pribemlek","[""pribemlek"",""pribemlem""]","","posttest trial","4",""
"html-button-response-clever","164","675948","0.0-13.0-0.44","961","Te bizony sokat spihegzel. Én is sokat...","1","spihegzek","[""spihegzem"",""spihegzek""]","","posttest trial","4",""
"html-button-response-clever","165","677256","0.0-13.0-0.45","805","Te bizony sokat píjlasz. Én is sokat...","0","píjlok","[""píjlok"",""píjlom""]","","posttest trial","4",""
"html-button-response-clever","166","678725","0.0-13.0-0.46","965","Te bizony sokat trehégszel. Én is sokat...","1","trehégszek","[""trehégszem"",""trehégszek""]","","posttest trial","4",""
"html-button-response-clever","167","680277","0.0-13.0-0.47","1049","Te bizony sokat figlasz. Én is sokat...","1","figlok","[""figlom"",""figlok""]","","posttest trial","4",""
"html-button-response-clever","168","681660","0.0-13.0-0.48","881","Te bizony sokat pribagszol. Én is sokat...","0","pribagszok","[""pribagszok"",""pribagszom""]","","posttest trial","4",""
"html-button-response-clever","169","682970","0.0-13.0-0.49","806","Te bizony sokat spáraklasz. Én is sokat...","1","spáraklok","[""spáraklom"",""spáraklok""]","","posttest trial","4",""
"html-button-response-clever","170","684149","0.0-13.0-0.50","676","Te bizony sokat huroslasz. Én is sokat...","0","huroslok","[""huroslok"",""huroslom""]","","posttest trial","4",""
"html-button-response-clever","171","685483","0.0-13.0-0.51","832","Te bizony sokat bűtszöl. Én is sokat...","1","bűtszök","[""bűtszöm"",""bűtszök""]","","posttest trial","4",""
"html-button-response-clever","172","686905","0.0-13.0-0.52","918","Te bizony sokat gyibeslesz. Én is sokat...","0","gyibeslek","[""gyibeslek"",""gyibeslem""]","","posttest trial","4",""
"html-button-response-clever","173","688156","0.0-13.0-0.53","749","Te bizony sokat pítszol. Én is sokat...","1","pítszok","[""pítszom"",""pítszok""]","","posttest trial","4",""
"html-button-response","174","690487","0.0-14.0","1826","<p> Vége a játéknak. A teljes pontszámod 37/54.</p><p> Szép munka! &#128526;&#128526;&#128526;</p><p>A Befejezés gomb megnyomása után bezárhatod a böngészőablakot.</p>","0","","","","","",""
"html-keyboard-response","175","695996","0.0-15.0","null","<div class=""message"">
         <p>Egy kis türelmet kérünk, amíg elmentjük az adatokat...</p>
         </div>","null","","","","","",""
