"trial_type","trial_index","time_elapsed","internal_node_id","rt","stimulus","response","response_string","choices","esp_response","trial_kind","list_number","esp_match"
"pavlovia","0","460","0.0-0.0","","","","","","","","",""
"html-button-response","1","34045","0.0-1.0","33078","<p>Kedves Résztvevő! A Budapesti Műszaki és Gazdaságtudományi Egyetem Kognitív Tudományi Tanszékének kutatásában való részvételed kérjük. A kutatásban azt vizsgáljuk, hogy a magyar anyanyelvűek hogyan használnak bizonyos szóalakokat, és hogy milyen képük van arról, hogy mások hogyan használják, hogyan képzik a szavakat. Ez hozzásegít bennünket ahhoz, hogy jobban megértsük, hogyan dolgozza fel és tárolja a nyelvet az emberi agy, és hogyan működnek, hogyan változnak egy adott közösség nyelvi konvenciói.</p><p>A vizsgálat egy rövid számítógépes feladatból fog állni. A kutatásban való részvétel önkéntes, a részvételi szándék bármikor visszavonható. A résztvevők eredményeit név nélkül kezeljük, így nem beazonosíthatók az adatok feldolgozása során. Minden személyes adatot az EU általános adatvédelmi rendeletének (GDPR) megfelelően kezelünk és legfeljebb öt éven belül megsemmisítünk. A vizsgálat jellemzően húsz percet vesz igénybe.</p><p>Kutatásvezető:</p><p>Dr. Rácz Péter, tudományos munkatárs, BME KTT</p><p>e-mail: racz.peter.marton@ttk.bme.hu</p>","0","","","","","",""
"html-button-response","2","73827","0.0-2.0","39275","<p>A kísérletben szavakat fogsz látni. Ezek között lesznek olyanok, amelyeket ismersz, de előfordulhatnak olyanok is, amelyeket nem ismersz, sőt, vannak köztük kitalált szavak is. Minden szónál látni fogsz toldalékolt alakokat. A te feladatod az lesz, hogy minden szóhoz kiválaszd azt a toldalékolt alakot, amely a te számodra ismerősebben, természetesebben hangzik. Rossz válaszok nincsenek, mert van olyan, hogy különböző embereknek más és más szó tűnik jobb választásnak. A választ úgy tudod majd kiválasztani, ha rákattintasz.</p><p>Ebben a szóválasztós játékban egy másik játékossal együtt veszel majd részt. A másik játékos is minden esetben azok közül a lehetőségek közül válogathat, mint te. Kettőtök feladata az, hogy ugyanazt a lehetőséget válasszátok minden esetben. Ahhoz, hogy ez sikerüljön, neked figyelned kell arra, hogy a másik játékos milyen válaszokat ad, és ennek alapján meg kell tippelned, hogyan választ legközelebb. Ha eltalálod, akkor pontot kapsz.</p>","0","","","","","",""
"html-button-response","3","117447","0.0-3.0","43113","<p>Kérjük, olvasd el az alábbi nyilatkozatot, és amennyiben egyetértesz vele, nyomj a Beleegyezés gombra!</p><p>Kijelentem, hogy magyar anyanyelvű személyként önként veszek részt a BME KTT kísérletében. A kutatás céljával és folyamatával kapcsolatban elegendő tájékoztatást kaptam, lehetőségem volt kérdések feltételére, és esetleges kérdéseimre megfelelő válaszokat kaptam. A tájékoztatás alapján elegendő mennyiségű információ áll a rendelkezésemre, hogy eldönthessem, részt kívánok-e venni a kutatásban.</p><p>Tisztában vagyok vele, hogy részvételi szándékomat és adataimat bármikor, indoklás nélkül visszavonhatom.</p><p>Értem és tudomásul veszem, hogy a kutatás tudományos célokat szolgál, és az általam szolgáltatott adatokat a BME kizárólag kutatási célból használja fel. Tudomásul veszem, hogy eredményeimet a többi résztvevő eredményeivel együtt kezelik, így egyéni teljesítményemről visszajelzést, szakvéleményt nem kapok.</p><p>Megértettem, hogy adataim kezelését illetően a BME az EU általános adatvédelmi rendelete (GDPR), a hatályos adatvédelmi törvény és a nemzetközi kutatás-etikai alapelvek szerint jár el. Eredményeim anonim módon kerülnek feldolgozásra, és a kutatás résztvevői az azonosításomra alkalmas adataimat harmadik félnek nem szolgáltatják ki. Engedélyezem a BME számára a jelen kutatásban felvett adataim feldolgozását és tárolását, beleértve azok későbbi kutatásokhoz való felhasználását is. Személyes adataim kezelésével kapcsolatban tájékoztatást kérhetek a kutatás résztvevőitől, az adatkezelés ellen tiltakozhatok, kérhetem személyes adataim helyesbítését, törlését vagy zárolását, valamint jogorvoslatért a Nemzeti Adatvédelmi és Információszabadság Hatósághoz fordulhatok.</p><p>Kijelentem, hogy a kutatásban való részvételem körülményeiről részletes tájékoztatást kaptam, és a feltételeket elfogadom.</p>","0","","","","","",""
"survey-text","4","128425","0.0-4.0","10468","","{""Q0"":""sara"",""Q1"":"""",""Q2"":"""",""Q3"":""""}","","","","","",""
"html-button-response","5","142244","0.0-5.0","13313","<p>Ebben a játékban szavakat kell toldalékolni.</p> <p>Minden körben mutatunk majd egy példamondatot, amiben lesz egy szó.</p> <p>Alatta jön egy második mondat, ezt a mondatot neked kell majd befejezni, ugyanezzel a szóval.</p> <p>Nem biztos, hogy a szó eleve ismerős lesz számodra!</p> <p>Minden mondathoz adunk két lehetőséget, ezeket balra és jobbra látod majd.</p> <p>A játék kb. negyedóráig-húsz percig tart.</p>","0","","","","","",""
"html-button-response","6","166590","0.0-6.0","23839","<p>Nézzünk egy példát!</p> <p>A példamondat: ""János nagyon szeret rancsúrozni.""</p><p>Neked ezt a mondatot kell befejezned: ""Én is szívesen...""</p><p>A lehetőségek pedig ezek:</p>","1","","","","","",""
"html-button-response","7","177363","0.0-7.0","10266","<p>Nagyon jó.</p><p>Ezt a játékot nem egyedül fogod játszani, hanem egy másik játékossal.</p><p>Mielőtt továbblépünk, összekapcsolunk titeket egymással.</p><p>Ez igénybe vehet néhány másodpercet, amihez szíves türelmed kérjük.</p>","0","","","","","",""
"html-button-response","8","182195","0.0-8.0","null","<p>Csatlakozás a másik játékoshoz...</p>","null","","","","","",""
"html-button-response","9","184702","0.0-9.0","null","<p> Sikeres kapcsolódás!</p>","null","","","","","",""
"html-button-response","10","193117","0.0-10.0","7909","<p>A következőkben ketten játsszátok a szóválasztós játékot.</p><p>A feladatotok az lesz, hogy minden körben <b>ugyanazt</b> a szót válasszátok.</p><p>Minden ilyen egyező válaszért pontot kaptok.</p><p>Sok sikert!</p>","0","","","","","",""
"html-button-response-esp","11","205036","0.0-11.0-0.0","11414","Te bizony sokat vanylasz. Én is sokat...","1","vanylok","[""vanylom"",""vanylok""]","vanylom","esp trial","6","false"
"html-button-response","12","208546","0.0-11.0-1.0","null","<p>A másik játékos ezt választotta: <b>vanylom</b>.</p><p>A válaszaitok <b>nem</b> egyeznek meg. &#10060;</p>","null","","","","feedback trial","",""
"html-button-response-esp","13","218257","0.0-11.0-0.1","9203","Te bizony sokat flátszol. Én is sokat...","1","flátszom","[""flátszok"",""flátszom""]","flátszok","esp trial","6","false"
"html-button-response","14","221762","0.0-11.0-1.1","null","<p>A másik játékos ezt választotta: <b>flátszok</b>.</p><p>A válaszaitok <b>nem</b> egyeznek meg. &#10060;</p>","null","","","","feedback trial","",""
"html-button-response-esp","15","231730","0.0-11.0-0.2","9462","Te bizony sokat sztrijzol. Én is sokat...","1","sztrijzok","[""sztrijzom"",""sztrijzok""]","sztrijzom","esp trial","6","false"
"html-button-response","16","235235","0.0-11.0-1.2","null","<p>A másik játékos ezt választotta: <b>sztrijzom</b>.</p><p>A válaszaitok <b>nem</b> egyeznek meg. &#10060;</p>","null","","","","feedback trial","",""
"html-button-response-esp","17","248336","0.0-11.0-0.3","12595","Te bizony sokat huroslasz. Én is sokat...","1","huroslok","[""huroslom"",""huroslok""]","huroslom","esp trial","6","false"
"html-button-response","18","251839","0.0-11.0-1.3","null","<p>A másik játékos ezt választotta: <b>huroslom</b>.</p><p>A válaszaitok <b>nem</b> egyeznek meg. &#10060;</p>","null","","","","feedback trial","",""
"html-button-response-esp","19","262401","0.0-11.0-0.4","10058","Te bizony sokat lörűdzöl. Én is sokat...","1","lörűdzök","[""lörűdzöm"",""lörűdzök""]","lörűdzöm","esp trial","6","false"
"html-button-response","20","265910","0.0-11.0-1.4","null","<p>A másik játékos ezt választotta: <b>lörűdzöm</b>.</p><p>A válaszaitok <b>nem</b> egyeznek meg. &#10060;</p>","null","","","","feedback trial","",""
"html-button-response-esp","21","274332","0.0-11.0-0.5","7917","Te bizony sokat pribemlesz. Én is sokat...","1","pribemlem","[""pribemlek"",""pribemlem""]","pribemlem","esp trial","6","true"
"html-button-response","22","277842","0.0-11.0-1.5","null","<p>A másik játékos ezt választotta: <b>pribemlem</b>.</p><p>A te válaszod és a másik játékos válasza <b>megegyeznek</b>. &#x2705;</p>","null","","","","feedback trial","",""
"html-button-response-esp","23","287566","0.0-11.0-0.6","9218","Te bizony sokat bűtszöl. Én is sokat...","0","bűtszök","[""bűtszök"",""bűtszöm""]","bűtszöm","esp trial","6","false"
"html-button-response","24","291077","0.0-11.0-1.6","null","<p>A másik játékos ezt választotta: <b>bűtszöm</b>.</p><p>A válaszaitok <b>nem</b> egyeznek meg. &#10060;</p>","null","","","","feedback trial","",""
"html-button-response-esp","25","300096","0.0-11.0-0.7","8513","Te bizony sokat gyibeslesz. Én is sokat...","1","gyibeslem","[""gyibeslek"",""gyibeslem""]","gyibeslem","esp trial","6","true"
"html-button-response","26","303608","0.0-11.0-1.7","null","<p>A másik játékos ezt választotta: <b>gyibeslem</b>.</p><p>A te válaszod és a másik játékos válasza <b>megegyeznek</b>. &#x2705;</p>","null","","","","feedback trial","",""
"html-button-response-esp","27","310465","0.0-11.0-0.8","6003","Te bizony sokat brivegzel. Én is sokat...","1","brivegzek","[""brivegzem"",""brivegzek""]","brivegzek","esp trial","6","true"
"html-button-response","28","313977","0.0-11.0-1.8","null","<p>A másik játékos ezt választotta: <b>brivegzek</b>.</p><p>A te válaszod és a másik játékos válasza <b>megegyeznek</b>. &#x2705;</p>","null","","","","feedback trial","",""
"html-button-response-esp","29","321776","0.0-11.0-0.9","7293","Te bizony sokat brubzol. Én is sokat...","1","brubzok","[""brubzom"",""brubzok""]","brubzom","esp trial","6","false"
"html-button-response","30","325283","0.0-11.0-1.9","null","<p>A másik játékos ezt választotta: <b>brubzom</b>.</p><p>A válaszaitok <b>nem</b> egyeznek meg. &#10060;</p>","null","","","","feedback trial","",""
"html-button-response-esp","31","336551","0.0-11.0-0.10","10762","Te bizony sokat bivégszel. Én is sokat...","1","bivégszek","[""bivégszem"",""bivégszek""]","bivégszek","esp trial","6","true"
"html-button-response","32","340060","0.0-11.0-1.10","null","<p>A másik játékos ezt választotta: <b>bivégszek</b>.</p><p>A te válaszod és a másik játékos válasza <b>megegyeznek</b>. &#x2705;</p>","null","","","","feedback trial","",""
"html-button-response-esp","33","355626","0.0-11.0-0.11","15061","Te bizony sokat píjlasz. Én is sokat...","1","píjlom","[""píjlok"",""píjlom""]","píjlom","esp trial","6","true"
"html-button-response","34","359138","0.0-11.0-1.11","null","<p>A másik játékos ezt választotta: <b>píjlom</b>.</p><p>A te válaszod és a másik játékos válasza <b>megegyeznek</b>. &#x2705;</p>","null","","","","feedback trial","",""
"html-button-response-esp","35","365999","0.0-11.0-0.12","6190","Te bizony sokat bihánylasz. Én is sokat...","1","bihánylok","[""bihánylom"",""bihánylok""]","bihánylom","esp trial","6","false"
"html-button-response","36","369509","0.0-11.0-1.12","null","<p>A másik játékos ezt választotta: <b>bihánylom</b>.</p><p>A válaszaitok <b>nem</b> egyeznek meg. &#10060;</p>","null","","","","feedback trial","",""
"html-button-response-esp","37","376368","0.0-11.0-0.13","4960","Te bizony sokat sztrűkszöl. Én is sokat...","0","sztrűkszök","[""sztrűkszök"",""sztrűkszöm""]","sztrűkszök","esp trial","6","true"
"html-button-response","38","379875","0.0-11.0-1.13","null","<p>A másik játékos ezt választotta: <b>sztrűkszök</b>.</p><p>A te válaszod és a másik játékos válasza <b>megegyeznek</b>. &#x2705;</p>","null","","","","feedback trial","",""
"html-button-response-esp","39","394727","0.0-11.0-0.14","14347","Te bizony sokat klaráglasz. Én is sokat...","1","klaráglok","[""klaráglom"",""klaráglok""]","klaráglom","esp trial","6","false"
"html-button-response","40","398232","0.0-11.0-1.14","null","<p>A másik játékos ezt választotta: <b>klaráglom</b>.</p><p>A válaszaitok <b>nem</b> egyeznek meg. &#10060;</p>","null","","","","feedback trial","",""
"html-button-response-esp","41","406170","0.0-11.0-0.15","7432","Te bizony sokat spülűdzöl. Én is sokat...","0","spülűdzök","[""spülűdzök"",""spülűdzöm""]","spülűdzöm","esp trial","6","false"
"html-button-response","42","409677","0.0-11.0-1.15","null","<p>A másik játékos ezt választotta: <b>spülűdzöm</b>.</p><p>A válaszaitok <b>nem</b> egyeznek meg. &#10060;</p>","null","","","","feedback trial","",""
"html-button-response-esp","43","416534","0.0-11.0-0.16","5071","Te bizony sokat düjzöl. Én is sokat...","1","düjzöm","[""düjzök"",""düjzöm""]","düjzöm","esp trial","6","true"
"html-button-response","44","420039","0.0-11.0-1.16","null","<p>A másik játékos ezt választotta: <b>düjzöm</b>.</p><p>A te válaszod és a másik játékos válasza <b>megegyeznek</b>. &#x2705;</p>","null","","","","feedback trial","",""
"html-button-response-esp","45","426897","0.0-11.0-0.17","4079","Te bizony sokat ibékszel. Én is sokat...","1","ibékszem","[""ibékszek"",""ibékszem""]","ibékszek","esp trial","6","false"
"html-button-response","46","430409","0.0-11.0-1.17","null","<p>A másik játékos ezt választotta: <b>ibékszek</b>.</p><p>A válaszaitok <b>nem</b> egyeznek meg. &#10060;</p>","null","","","","feedback trial","",""
"html-button-response-esp","47","437265","0.0-11.0-0.18","4121","Te bizony sokat flehékszel. Én is sokat...","0","flehékszem","[""flehékszem"",""flehékszek""]","flehékszek","esp trial","6","false"
"html-button-response","48","440775","0.0-11.0-1.18","null","<p>A másik játékos ezt választotta: <b>flehékszek</b>.</p><p>A válaszaitok <b>nem</b> egyeznek meg. &#10060;</p>","null","","","","feedback trial","",""
"html-button-response-esp","49","447631","0.0-11.0-0.19","2987","Te bizony sokat flűmlesz. Én is sokat...","1","flűmlök","[""flűmlöm"",""flűmlök""]","flűmlöm","esp trial","6","false"
"html-button-response","50","451139","0.0-11.0-1.19","null","<p>A másik játékos ezt választotta: <b>flűmlöm</b>.</p><p>A válaszaitok <b>nem</b> egyeznek meg. &#10060;</p>","null","","","","feedback trial","",""
"html-button-response-esp","51","457993","0.0-11.0-0.20","3893","Te bizony sokat plűbzöl. Én is sokat...","1","plűbzöm","[""plűbzök"",""plűbzöm""]","plűbzöm","esp trial","6","true"
"html-button-response","52","461502","0.0-11.0-1.20","null","<p>A másik játékos ezt választotta: <b>plűbzöm</b>.</p><p>A te válaszod és a másik játékos válasza <b>megegyeznek</b>. &#x2705;</p>","null","","","","feedback trial","",""
"html-button-response-esp","53","468360","0.0-11.0-0.21","1531","Te bizony sokat plugzol. Én is sokat...","1","plugzom","[""plugzok"",""plugzom""]","plugzok","esp trial","6","false"
"html-button-response","54","471871","0.0-11.0-1.21","null","<p>A másik játékos ezt választotta: <b>plugzok</b>.</p><p>A válaszaitok <b>nem</b> egyeznek meg. &#10060;</p>","null","","","","feedback trial","",""
"html-button-response-esp","55","478729","0.0-11.0-0.22","3288","Te bizony sokat brobódzol. Én is sokat...","0","brobódzok","[""brobódzok"",""brobódzom""]","brobódzok","esp trial","6","true"
"html-button-response","56","482239","0.0-11.0-1.22","null","<p>A másik játékos ezt választotta: <b>brobódzok</b>.</p><p>A te válaszod és a másik játékos válasza <b>megegyeznek</b>. &#x2705;</p>","null","","","","feedback trial","",""
"html-button-response-esp","57","489096","0.0-11.0-0.23","3284","Te bizony sokat rokszol. Én is sokat...","1","rokszok","[""rokszom"",""rokszok""]","rokszok","esp trial","6","true"
"html-button-response","58","492653","0.0-11.0-1.23","null","<p>A másik játékos ezt választotta: <b>rokszok</b>.</p><p>A te válaszod és a másik játékos válasza <b>megegyeznek</b>. &#x2705;</p>","null","","","","feedback trial","",""
"html-button-response-esp","59","499512","0.0-11.0-0.24","3101","Te bizony sokat jonylasz. Én is sokat...","1","jonylom","[""jonylok"",""jonylom""]","jonylom","esp trial","6","true"
"html-button-response","60","503024","0.0-11.0-1.24","null","<p>A másik játékos ezt választotta: <b>jonylom</b>.</p><p>A te válaszod és a másik játékos válasza <b>megegyeznek</b>. &#x2705;</p>","null","","","","feedback trial","",""
"html-button-response-esp","61","509886","0.0-11.0-0.25","4018","Te bizony sokat trehégszel. Én is sokat...","0","trehégszek","[""trehégszek"",""trehégszem""]","trehégszek","esp trial","6","true"
"html-button-response","62","513397","0.0-11.0-1.25","null","<p>A másik játékos ezt választotta: <b>trehégszek</b>.</p><p>A te válaszod és a másik játékos válasza <b>megegyeznek</b>. &#x2705;</p>","null","","","","feedback trial","",""
"html-button-response-esp","63","521584","0.0-11.0-0.26","7680","Te bizony sokat trádlasz. Én is sokat...","0","trádlok","[""trádlok"",""trádlom""]","trádlom","esp trial","6","false"
"html-button-response","64","525095","0.0-11.0-1.26","null","<p>A másik játékos ezt választotta: <b>trádlom</b>.</p><p>A válaszaitok <b>nem</b> egyeznek meg. &#10060;</p>","null","","","","feedback trial","",""
"html-button-response-esp","65","531946","0.0-11.0-0.27","2597","Te bizony sokat spubonylasz. Én is sokat...","1","spubonylom","[""spubonylok"",""spubonylom""]","spubonylom","esp trial","6","true"
"html-button-response","66","535457","0.0-11.0-1.27","null","<p>A másik játékos ezt választotta: <b>spubonylom</b>.</p><p>A te válaszod és a másik játékos válasza <b>megegyeznek</b>. &#x2705;</p>","null","","","","feedback trial","",""
"html-button-response-esp","67","542315","0.0-11.0-0.28","2750","Te bizony sokat vülődzöl. Én is sokat...","0","vülődzök","[""vülődzök"",""vülődzöm""]","vülődzöm","esp trial","6","false"
"html-button-response","68","545825","0.0-11.0-1.28","null","<p>A másik játékos ezt választotta: <b>vülődzöm</b>.</p><p>A válaszaitok <b>nem</b> egyeznek meg. &#10060;</p>","null","","","","feedback trial","",""
"html-button-response-esp","69","552683","0.0-11.0-0.29","5493","Te bizony sokat flehénylesz. Én is sokat...","0","flehénylem","[""flehénylem"",""flehénylek""]","flehénylem","esp trial","6","true"
"html-button-response","70","556192","0.0-11.0-1.29","null","<p>A másik játékos ezt választotta: <b>flehénylem</b>.</p><p>A te válaszod és a másik játékos válasza <b>megegyeznek</b>. &#x2705;</p>","null","","","","feedback trial","",""
"html-button-response-esp","71","563048","0.0-11.0-0.30","2603","Te bizony sokat frodlasz. Én is sokat...","1","frodlok","[""frodlom"",""frodlok""]","frodlom","esp trial","6","false"
"html-button-response","72","566560","0.0-11.0-1.30","null","<p>A másik játékos ezt választotta: <b>frodlom</b>.</p><p>A válaszaitok <b>nem</b> egyeznek meg. &#10060;</p>","null","","","","feedback trial","",""
"html-button-response-esp","73","578901","0.0-11.0-0.31","11835","Te bizony sokat spihemlesz. Én is sokat...","1","spihemlek","[""spihemlem"",""spihemlek""]","spihemlem","esp trial","6","false"
"html-button-response","74","582411","0.0-11.0-1.31","null","<p>A másik játékos ezt választotta: <b>spihemlem</b>.</p><p>A válaszaitok <b>nem</b> egyeznek meg. &#10060;</p>","null","","","","feedback trial","",""
"html-button-response-esp","75","591852","0.0-11.0-0.32","8940","Te bizony sokat flitlasz. Én is sokat...","1","flitlok","[""flitlom"",""flitlok""]","flitlom","esp trial","6","false"
"html-button-response","76","595362","0.0-11.0-1.32","null","<p>A másik játékos ezt választotta: <b>flitlom</b>.</p><p>A válaszaitok <b>nem</b> egyeznek meg. &#10060;</p>","null","","","","feedback trial","",""
"html-button-response-esp","77","602219","0.0-11.0-0.33","1587","Te bizony sokat prínylasz. Én is sokat...","0","prínylom","[""prínylom"",""prínylok""]","prínylom","esp trial","6","true"
"html-button-response","78","605726","0.0-11.0-1.33","null","<p>A másik játékos ezt választotta: <b>prínylom</b>.</p><p>A te válaszod és a másik játékos válasza <b>megegyeznek</b>. &#x2705;</p>","null","","","","feedback trial","",""
"html-button-response-esp","79","612586","0.0-11.0-0.34","5549","Te bizony sokat salárzol. Én is sokat...","0","salárzok","[""salárzok"",""salárzom""]","salárzom","esp trial","6","false"
"html-button-response","80","616095","0.0-11.0-1.34","null","<p>A másik játékos ezt választotta: <b>salárzom</b>.</p><p>A válaszaitok <b>nem</b> egyeznek meg. &#10060;</p>","null","","","","feedback trial","",""
"html-button-response-esp","81","622951","0.0-11.0-0.35","1960","Te bizony sokat spáraklasz. Én is sokat...","1","spáraklom","[""spáraklok"",""spáraklom""]","spáraklom","esp trial","6","true"
"html-button-response","82","626463","0.0-11.0-1.35","null","<p>A másik játékos ezt választotta: <b>spáraklom</b>.</p><p>A te válaszod és a másik játékos válasza <b>megegyeznek</b>. &#x2705;</p>","null","","","","feedback trial","",""
"html-button-response-esp","83","633321","0.0-11.0-0.36","2904","Te bizony sokat szibánylasz. Én is sokat...","1","szibánylom","[""szibánylok"",""szibánylom""]","szibánylom","esp trial","6","true"
"html-button-response","84","636832","0.0-11.0-1.36","null","<p>A másik játékos ezt választotta: <b>szibánylom</b>.</p><p>A te válaszod és a másik játékos válasza <b>megegyeznek</b>. &#x2705;</p>","null","","","","feedback trial","",""
"html-button-response-esp","85","643691","0.0-11.0-0.37","1316","Te bizony sokat sztrozlasz. Én is sokat...","1","sztrozlom","[""sztrozlok"",""sztrozlom""]","sztrozlom","esp trial","6","true"
"html-button-response","86","647201","0.0-11.0-1.37","null","<p>A másik játékos ezt választotta: <b>sztrozlom</b>.</p><p>A te válaszod és a másik játékos válasza <b>megegyeznek</b>. &#x2705;</p>","null","","","","feedback trial","",""
"html-button-response-esp","87","654062","0.0-11.0-0.38","1780","Te bizony sokat treglesz. Én is sokat...","1","treglem","[""treglek"",""treglem""]","treglem","esp trial","6","true"
"html-button-response","88","657571","0.0-11.0-1.38","null","<p>A másik játékos ezt választotta: <b>treglem</b>.</p><p>A te válaszod és a másik játékos válasza <b>megegyeznek</b>. &#x2705;</p>","null","","","","feedback trial","",""
"html-button-response-esp","89","664432","0.0-11.0-0.39","3064","Te bizony sokat tragzol. Én is sokat...","1","tragzok","[""tragzom"",""tragzok""]","tragzom","esp trial","6","false"
"html-button-response","90","667943","0.0-11.0-1.39","null","<p>A másik játékos ezt választotta: <b>tragzom</b>.</p><p>A válaszaitok <b>nem</b> egyeznek meg. &#10060;</p>","null","","","","feedback trial","",""
"html-button-response-esp","91","674803","0.0-11.0-0.40","1684","Te bizony sokat hurjorzol. Én is sokat...","1","hurjorzom","[""hurjorzok"",""hurjorzom""]","hurjorzom","esp trial","6","true"
"html-button-response","92","678314","0.0-11.0-1.40","null","<p>A másik játékos ezt választotta: <b>hurjorzom</b>.</p><p>A te válaszod és a másik játékos válasza <b>megegyeznek</b>. &#x2705;</p>","null","","","","feedback trial","",""
"html-button-response-esp","93","685172","0.0-11.0-0.41","1800","Te bizony sokat pítszol. Én is sokat...","0","pítszom","[""pítszom"",""pítszok""]","pítszok","esp trial","6","false"
"html-button-response","94","688678","0.0-11.0-1.41","null","<p>A másik játékos ezt választotta: <b>pítszok</b>.</p><p>A válaszaitok <b>nem</b> egyeznek meg. &#10060;</p>","null","","","","feedback trial","",""
"html-button-response-esp","95","695538","0.0-11.0-0.42","5685","Te bizony sokat nűröklesz. Én is sokat...","1","nűröklöm","[""nűröklök"",""nűröklöm""]","nűröklöm","esp trial","6","true"
"html-button-response","96","699049","0.0-11.0-1.42","null","<p>A másik játékos ezt választotta: <b>nűröklöm</b>.</p><p>A te válaszod és a másik játékos válasza <b>megegyeznek</b>. &#x2705;</p>","null","","","","feedback trial","",""
"html-button-response-esp","97","705910","0.0-11.0-0.43","4925","Te bizony sokat narádzol. Én is sokat...","1","narádzok","[""narádzom"",""narádzok""]","narádzok","esp trial","6","true"
"html-button-response","98","709421","0.0-11.0-1.43","null","<p>A másik játékos ezt választotta: <b>narádzok</b>.</p><p>A te válaszod és a másik játékos válasza <b>megegyeznek</b>. &#x2705;</p>","null","","","","feedback trial","",""
"html-button-response-esp","99","716278","0.0-11.0-0.44","2815","Te bizony sokat spihegzel. Én is sokat...","1","spihegzek","[""spihegzem"",""spihegzek""]","spihegzem","esp trial","6","false"
"html-button-response","100","719790","0.0-11.0-1.44","null","<p>A másik játékos ezt választotta: <b>spihegzem</b>.</p><p>A válaszaitok <b>nem</b> egyeznek meg. &#10060;</p>","null","","","","feedback trial","",""
"html-button-response-esp","101","726649","0.0-11.0-0.45","2237","Te bizony sokat spüjzöl. Én is sokat...","1","spüjzöm","[""spüjzök"",""spüjzöm""]","spüjzöm","esp trial","6","true"
"html-button-response","102","730158","0.0-11.0-1.45","null","<p>A másik játékos ezt választotta: <b>spüjzöm</b>.</p><p>A te válaszod és a másik játékos válasza <b>megegyeznek</b>. &#x2705;</p>","null","","","","feedback trial","",""
"html-button-response-esp","103","737015","0.0-11.0-0.46","4302","Te bizony sokat hűgzöl. Én is sokat...","0","hűgzöm","[""hűgzöm"",""hűgzök""]","hűgzöm","esp trial","6","true"
"html-button-response","104","740524","0.0-11.0-1.46","null","<p>A másik játékos ezt választotta: <b>hűgzöm</b>.</p><p>A te válaszod és a másik játékos válasza <b>megegyeznek</b>. &#x2705;</p>","null","","","","feedback trial","",""
"html-button-response-esp","105","747381","0.0-11.0-0.47","2130","Te bizony sokat figlasz. Én is sokat...","1","figlom","[""figlok"",""figlom""]","figlom","esp trial","6","true"
"html-button-response","106","750890","0.0-11.0-1.47","null","<p>A másik játékos ezt választotta: <b>figlom</b>.</p><p>A te válaszod és a másik játékos válasza <b>megegyeznek</b>. &#x2705;</p>","null","","","","feedback trial","",""
"html-button-response-esp","107","757749","0.0-11.0-0.48","1310","Te bizony sokat rájzol. Én is sokat...","0","rájzom","[""rájzom"",""rájzok""]","rájzom","esp trial","6","true"
"html-button-response","108","761254","0.0-11.0-1.48","null","<p>A másik játékos ezt választotta: <b>rájzom</b>.</p><p>A te válaszod és a másik játékos válasza <b>megegyeznek</b>. &#x2705;</p>","null","","","","feedback trial","",""
"html-button-response-esp","109","768111","0.0-11.0-0.49","1219","Te bizony sokat spröbzöl. Én is sokat...","1","spröbzöm","[""spröbzök"",""spröbzöm""]","spröbzöm","esp trial","6","true"
"html-button-response","110","771615","0.0-11.0-1.49","null","<p>A másik játékos ezt választotta: <b>spröbzöm</b>.</p><p>A te válaszod és a másik játékos válasza <b>megegyeznek</b>. &#x2705;</p>","null","","","","feedback trial","",""
"html-button-response-esp","111","778473","0.0-11.0-0.50","1447","Te bizony sokat klivaslasz. Én is sokat...","0","klivaslom","[""klivaslom"",""klivaslok""]","klivaslom","esp trial","6","true"
"html-button-response","112","781976","0.0-11.0-1.50","null","<p>A másik játékos ezt választotta: <b>klivaslom</b>.</p><p>A te válaszod és a másik játékos válasza <b>megegyeznek</b>. &#x2705;</p>","null","","","","feedback trial","",""
"html-button-response-esp","113","788834","0.0-11.0-0.51","2537","Te bizony sokat pribagszol. Én is sokat...","1","pribagszom","[""pribagszok"",""pribagszom""]","pribagszok","esp trial","6","false"
"html-button-response","114","792345","0.0-11.0-1.51","null","<p>A másik játékos ezt választotta: <b>pribagszok</b>.</p><p>A válaszaitok <b>nem</b> egyeznek meg. &#10060;</p>","null","","","","feedback trial","",""
"html-button-response-esp","115","799204","0.0-11.0-0.52","1315","Te bizony sokat klétszel. Én is sokat...","0","klétszem","[""klétszem"",""klétszek""]","klétszek","esp trial","6","false"
"html-button-response","116","802712","0.0-11.0-1.52","null","<p>A másik játékos ezt választotta: <b>klétszek</b>.</p><p>A válaszaitok <b>nem</b> egyeznek meg. &#10060;</p>","null","","","","feedback trial","",""
"html-button-response-esp","117","809573","0.0-11.0-0.53","1103","Te bizony sokat filágzol. Én is sokat...","1","filágzok","[""filágzom"",""filágzok""]","filágzok","esp trial","6","true"
"html-button-response","118","813081","0.0-11.0-1.53","null","<p>A másik játékos ezt választotta: <b>filágzok</b>.</p><p>A te válaszod és a másik játékos válasza <b>megegyeznek</b>. &#x2705;</p>","null","","","","feedback trial","",""
"html-button-response","119","823035","0.0-12.0","9449","<p>A közös játék most véget ért.</p><p>Mielőtt eláruljuk a végső pontszámodat, arra kérlek, játszd a szóválasztós játékot néhány percig egyedül is.</p><p>A feladatod ugyanaz lesz, választani két lehetőség közül.</p><p>Most viszont egyedül kell döntened, hogy te melyiket választanád.</p>","0","","","","","",""
"html-button-response-clever","120","835273","0.0-13.0-0.0","11732","Te bizony sokat spülöklesz. Én is sokat...","0","spülöklöm","[""spülöklöm"",""spülöklök""]","","posttest trial","8",""
"html-button-response-clever","121","849303","0.0-13.0-0.1","13523","Te bizony sokat szűslesz. Én is sokat...","0","szűslöm","[""szűslöm"",""szűslök""]","","posttest trial","8",""
"html-button-response-clever","122","854601","0.0-13.0-0.2","4791","Te bizony sokat livaklasz. Én is sokat...","1","livaklom","[""livaklok"",""livaklom""]","","posttest trial","8",""
"html-button-response-clever","123","858115","0.0-13.0-0.3","3009","Te bizony sokat spibádzol. Én is sokat...","0","spibádzom","[""spibádzom"",""spibádzok""]","","posttest trial","8",""
"html-button-response-clever","124","863893","0.0-13.0-0.4","5270","Te bizony sokat fivénylesz. Én is sokat...","1","fivénylem","[""fivénylek"",""fivénylem""]","","posttest trial","8",""
"html-button-response-clever","125","871234","0.0-13.0-0.5","6836","Te bizony sokat flérlesz. Én is sokat...","1","flérlem","[""flérlek"",""flérlem""]","","posttest trial","8",""
"html-button-response-clever","126","874729","0.0-13.0-0.6","2988","Te bizony sokat brarlasz. Én is sokat...","1","brarlom","[""brarlok"",""brarlom""]","","posttest trial","8",""
"html-button-response-clever","127","880310","0.0-13.0-0.7","5075","Te bizony sokat plágadzol. Én is sokat...","0","plágadzom","[""plágadzom"",""plágadzok""]","","posttest trial","8",""
"html-button-response-clever","128","883925","0.0-13.0-0.8","3108","Te bizony sokat klidlasz. Én is sokat...","1","klidlom","[""klidlok"",""klidlom""]","","posttest trial","8",""
"html-button-response-clever","129","886200","0.0-13.0-0.9","1769","Te bizony sokat táklasz. Én is sokat...","1","táklom","[""táklok"",""táklom""]","","posttest trial","8",""
"html-button-response-clever","130","888643","0.0-13.0-0.10","1937","Te bizony sokat lihadzol. Én is sokat...","0","lihadzom","[""lihadzom"",""lihadzok""]","","posttest trial","8",""
"html-button-response-clever","131","891247","0.0-13.0-0.11","2100","Te bizony sokat fligzol. Én is sokat...","1","fligzom","[""fligzok"",""fligzom""]","","posttest trial","8",""
"html-button-response-clever","132","893648","0.0-13.0-0.12","1896","Te bizony sokat gerénylesz. Én is sokat...","0","gerénylem","[""gerénylem"",""gerénylek""]","","posttest trial","8",""
"html-button-response-clever","133","895807","0.0-13.0-0.13","1656","Te bizony sokat plövőrzöl. Én is sokat...","0","plövőrzöm","[""plövőrzöm"",""plövőrzök""]","","posttest trial","8",""
"html-button-response-clever","134","897911","0.0-13.0-0.14","1601","Te bizony sokat spatszol. Én is sokat...","0","spatszom","[""spatszom"",""spatszok""]","","posttest trial","8",""
"html-button-response-clever","135","901279","0.0-13.0-0.15","2866","Te bizony sokat prihekszel. Én is sokat...","1","prihekszem","[""prihekszek"",""prihekszem""]","","posttest trial","8",""
"html-button-response-clever","136","904176","0.0-13.0-0.16","2391","Te bizony sokat friszlasz. Én is sokat...","0","friszlom","[""friszlom"",""friszlok""]","","posttest trial","8",""
"html-button-response-clever","137","906365","0.0-13.0-0.17","1684","Te bizony sokat spülőrzöl. Én is sokat...","0","spülőrzöm","[""spülőrzöm"",""spülőrzök""]","","posttest trial","8",""
"html-button-response-clever","138","908881","0.0-13.0-0.18","2012","Te bizony sokat pugoslasz. Én is sokat...","1","pugoslom","[""pugoslok"",""pugoslom""]","","posttest trial","8",""
"html-button-response-clever","139","911711","0.0-13.0-0.19","2323","Te bizony sokat zödlesz. Én is sokat...","1","zödlöm","[""zödlök"",""zödlöm""]","","posttest trial","8",""
"html-button-response-clever","140","914702","0.0-13.0-0.20","2485","Te bizony sokat préleglesz. Én is sokat...","1","préleglem","[""préleglek"",""préleglem""]","","posttest trial","8",""
"html-button-response-clever","141","916614","0.0-13.0-0.21","1409","Te bizony sokat bivejlesz. Én is sokat...","0","bivejlem","[""bivejlem"",""bivejlek""]","","posttest trial","8",""
"html-button-response-clever","142","918918","0.0-13.0-0.22","1800","Te bizony sokat praslasz. Én is sokat...","1","praslom","[""praslok"",""praslom""]","","posttest trial","8",""
"html-button-response-clever","143","921778","0.0-13.0-0.23","2354","Te bizony sokat gilárzol. Én is sokat...","1","gilárzom","[""gilárzok"",""gilárzom""]","","posttest trial","8",""
"html-button-response-clever","144","925862","0.0-13.0-0.24","3576","Te bizony sokat sprédlesz. Én is sokat...","0","sprédlem","[""sprédlem"",""sprédlek""]","","posttest trial","8",""
"html-button-response-clever","145","927920","0.0-13.0-0.25","1552","Te bizony sokat vűjlesz. Én is sokat...","0","vűjlöm","[""vűjlöm"",""vűjlök""]","","posttest trial","8",""
"html-button-response-clever","146","931404","0.0-13.0-0.26","2978","Te bizony sokat ibáglasz. Én is sokat...","1","ibáglom","[""ibáglok"",""ibáglom""]","","posttest trial","8",""
"html-button-response-clever","147","933160","0.0-13.0-0.27","1249","Te bizony sokat vihepszel. Én is sokat...","1","vihepszem","[""vihepszek"",""vihepszem""]","","posttest trial","8",""
"html-button-response-clever","148","937899","0.0-13.0-0.28","4233","Te bizony sokat prezlesz. Én is sokat...","0","prezlem","[""prezlem"",""prezlek""]","","posttest trial","8",""
"html-button-response-clever","149","939989","0.0-13.0-0.29","1587","Te bizony sokat fliraklasz. Én is sokat...","0","fliraklom","[""fliraklom"",""fliraklok""]","","posttest trial","8",""
"html-button-response-clever","150","941753","0.0-13.0-0.30","1258","Te bizony sokat prohódzol. Én is sokat...","0","prohódzom","[""prohódzom"",""prohódzok""]","","posttest trial","8",""
"html-button-response-clever","151","943413","0.0-13.0-0.31","1153","Te bizony sokat csólorzol. Én is sokat...","1","csólorzom","[""csólorzok"",""csólorzom""]","","posttest trial","8",""
"html-button-response-clever","152","944746","0.0-13.0-0.32","827","Te bizony sokat floglasz. Én is sokat...","1","floglom","[""floglok"",""floglom""]","","posttest trial","8",""
"html-button-response-clever","153","947089","0.0-13.0-0.33","1837","Te bizony sokat spüszlesz. Én is sokat...","0","spüszlöm","[""spüszlöm"",""spüszlök""]","","posttest trial","8",""
"html-button-response-clever","154","948679","0.0-13.0-0.34","1084","Te bizony sokat klárzol. Én is sokat...","0","klárzom","[""klárzom"",""klárzok""]","","posttest trial","8",""
"html-button-response-clever","155","950589","0.0-13.0-0.35","1409","Te bizony sokat sprálszol. Én is sokat...","1","sprálszom","[""sprálszok"",""sprálszom""]","","posttest trial","8",""
"html-button-response-clever","156","953350","0.0-13.0-0.36","2255","Te bizony sokat kumlasz. Én is sokat...","1","kumlom","[""kumlok"",""kumlom""]","","posttest trial","8",""
"html-button-response-clever","157","954939","0.0-13.0-0.37","1085","Te bizony sokat drügzöl. Én is sokat...","1","drügzöm","[""drügzök"",""drügzöm""]","","posttest trial","8",""
"html-button-response-clever","158","956743","0.0-13.0-0.38","1297","Te bizony sokat huklasz. Én is sokat...","0","huklom","[""huklom"",""huklok""]","","posttest trial","8",""
"html-button-response-clever","159","958568","0.0-13.0-0.39","1318","Te bizony sokat frágapszol. Én is sokat...","1","frágapszom","[""frágapszok"",""frágapszom""]","","posttest trial","8",""
"html-button-response-clever","160","959874","0.0-13.0-0.40","801","Te bizony sokat spélszel. Én is sokat...","0","spélszem","[""spélszem"",""spélszek""]","","posttest trial","8",""
"html-button-response-clever","161","961362","0.0-13.0-0.41","982","Te bizony sokat péleslesz. Én is sokat...","0","péleslem","[""péleslem"",""péleslek""]","","posttest trial","8",""
"html-button-response-clever","162","962586","0.0-13.0-0.42","719","Te bizony sokat sztruglasz. Én is sokat...","0","sztruglom","[""sztruglom"",""sztruglok""]","","posttest trial","8",""
"html-button-response-clever","163","963824","0.0-13.0-0.43","730","Te bizony sokat gyibakszol. Én is sokat...","0","gyibakszom","[""gyibakszom"",""gyibakszok""]","","posttest trial","8",""
"html-button-response-clever","164","965456","0.0-13.0-0.44","1126","Te bizony sokat tuboklasz. Én is sokat...","1","tuboklom","[""tuboklok"",""tuboklom""]","","posttest trial","8",""
"html-button-response-clever","165","966976","0.0-13.0-0.45","1014","Te bizony sokat féjzel. Én is sokat...","0","féjzem","[""féjzem"",""féjzek""]","","posttest trial","8",""
"html-button-response-clever","166","970059","0.0-13.0-0.46","2576","Te bizony sokat gyivádzol. Én is sokat...","1","gyivádzom","[""gyivádzok"",""gyivádzom""]","","posttest trial","8",""
"html-button-response-clever","167","973753","0.0-13.0-0.47","3192","Te bizony sokat aglasz. Én is sokat...","0","aglom","[""aglom"",""aglok""]","","posttest trial","8",""
"html-button-response-clever","168","979873","0.0-13.0-0.48","5613","Te bizony sokat mékszel. Én is sokat...","1","mékszem","[""mékszek"",""mékszem""]","","posttest trial","8",""
"html-button-response-clever","169","981557","0.0-13.0-0.49","1178","Te bizony sokat spírzol. Én is sokat...","1","spírzom","[""spírzok"",""spírzom""]","","posttest trial","8",""
"html-button-response-clever","170","983590","0.0-13.0-0.50","1527","Te bizony sokat trihagzol. Én is sokat...","1","trihagzom","[""trihagzok"",""trihagzom""]","","posttest trial","8",""
"html-button-response-clever","171","985127","0.0-13.0-0.51","1032","Te bizony sokat flibekszel. Én is sokat...","1","flibekszem","[""flibekszek"",""flibekszem""]","","posttest trial","8",""
"html-button-response-clever","172","987850","0.0-13.0-0.52","2220","Te bizony sokat frivajlasz. Én is sokat...","1","frivajlom","[""frivajlok"",""frivajlom""]","","posttest trial","8",""
"html-button-response-clever","173","989710","0.0-13.0-0.53","1353","Te bizony sokat flözlesz. Én is sokat...","0","flözlöm","[""flözlöm"",""flözlök""]","","posttest trial","8",""
"html-button-response","174","999915","0.0-14.0","9702","<p> Vége a játéknak. A teljes pontszámod 29/54.</p><p> Szép munka! &#128526;&#128526;&#128526;</p><p>A Befejezés gomb megnyomása után bezárhatod a böngészőablakot.</p>","0","","","","","",""
