"trial_type","trial_index","time_elapsed","internal_node_id","rt","stimulus","response","response_string","choices","esp_response","trial_kind","list_number","esp_match"
"pavlovia","0","1599","0.0-0.0","","","","","","","","",""
"html-button-response","1","61377","0.0-1.0","59266","<p>Kedves Résztvevő! A Budapesti Műszaki és Gazdaságtudományi Egyetem Kognitív Tudományi Tanszékének kutatásában való részvételed kérjük. A kutatásban azt vizsgáljuk, hogy a magyar anyanyelvűek hogyan használnak bizonyos szóalakokat, és hogy milyen képük van arról, hogy mások hogyan használják, hogyan képzik a szavakat. Ez hozzásegít bennünket ahhoz, hogy jobban megértsük, hogyan dolgozza fel és tárolja a nyelvet az emberi agy, és hogyan működnek, hogyan változnak egy adott közösség nyelvi konvenciói.</p><p>A vizsgálat egy rövid számítógépes feladatból fog állni. A kutatásban való részvétel önkéntes, a részvételi szándék bármikor visszavonható. A résztvevők eredményeit név nélkül kezeljük, így nem beazonosíthatók az adatok feldolgozása során. Minden személyes adatot az EU általános adatvédelmi rendeletének (GDPR) megfelelően kezelünk és legfeljebb öt éven belül megsemmisítünk. A vizsgálat jellemzően húsz percet vesz igénybe.</p><p>Kutatásvezető:</p><p>Dr. Rácz Péter, tudományos munkatárs, BME KTT</p><p>e-mail: racz.peter.marton@ttk.bme.hu</p>","0","","","","","",""
"html-button-response","2","121615","0.0-2.0","59722","<p>A kísérletben szavakat fogsz látni. Ezek között lesznek olyanok, amelyeket ismersz, de előfordulhatnak olyanok is, amelyeket nem ismersz, sőt, vannak köztük kitalált szavak is. Minden szónál látni fogsz toldalékolt alakokat. A te feladatod az lesz, hogy minden szóhoz kiválaszd azt a toldalékolt alakot, amely a te számodra ismerősebben, természetesebben hangzik. Rossz válaszok nincsenek, mert van olyan, hogy különböző embereknek más és más szó tűnik jobb választásnak. A választ úgy tudod majd kiválasztani, ha rákattintasz.</p><p>Ebben a szóválasztós játékban egy másik játékossal együtt veszel majd részt. A másik játékos is minden esetben azok közül a lehetőségek közül válogathat, mint te. Kettőtök feladata az, hogy ugyanazt a lehetőséget válasszátok minden esetben. Ahhoz, hogy ez sikerüljön, neked figyelned kell arra, hogy a másik játékos milyen válaszokat ad, és ennek alapján meg kell tippelned, hogyan választ legközelebb. Ha eltalálod, akkor pontot kapsz.</p>","0","","","","","",""
"html-button-response","3","147628","0.0-3.0","25505","<p>Kérjük, olvasd el az alábbi nyilatkozatot, és amennyiben egyetértesz vele, nyomj a Beleegyezés gombra!</p><p>Kijelentem, hogy magyar anyanyelvű személyként önként veszek részt a BME KTT kísérletében. A kutatás céljával és folyamatával kapcsolatban elegendő tájékoztatást kaptam, lehetőségem volt kérdések feltételére, és esetleges kérdéseimre megfelelő válaszokat kaptam. A tájékoztatás alapján elegendő mennyiségű információ áll a rendelkezésemre, hogy eldönthessem, részt kívánok-e venni a kutatásban.</p><p>Tisztában vagyok vele, hogy részvételi szándékomat és adataimat bármikor, indoklás nélkül visszavonhatom.</p><p>Értem és tudomásul veszem, hogy a kutatás tudományos célokat szolgál, és az általam szolgáltatott adatokat a BME kizárólag kutatási célból használja fel. Tudomásul veszem, hogy eredményeimet a többi résztvevő eredményeivel együtt kezelik, így egyéni teljesítményemről visszajelzést, szakvéleményt nem kapok.</p><p>Megértettem, hogy adataim kezelését illetően a BME az EU általános adatvédelmi rendelete (GDPR), a hatályos adatvédelmi törvény és a nemzetközi kutatás-etikai alapelvek szerint jár el. Eredményeim anonim módon kerülnek feldolgozásra, és a kutatás résztvevői az azonosításomra alkalmas adataimat harmadik félnek nem szolgáltatják ki. Engedélyezem a BME számára a jelen kutatásban felvett adataim feldolgozását és tárolását, beleértve azok későbbi kutatásokhoz való felhasználását is. Személyes adataim kezelésével kapcsolatban tájékoztatást kérhetek a kutatás résztvevőitől, az adatkezelés ellen tiltakozhatok, kérhetem személyes adataim helyesbítését, törlését vagy zárolását, valamint jogorvoslatért a Nemzeti Adatvédelmi és Információszabadság Hatósághoz fordulhatok.</p><p>Kijelentem, hogy a kutatásban való részvételem körülményeiről részletes tájékoztatást kaptam, és a feltételeket elfogadom.</p>","0","","","","","",""
"survey-text","4","220121","0.0-4.0","71976","","{""Q0"":""FWNG3T"",""Q1"":""nő"",""Q2"":""1994"",""Q3"":""22""}","","","","","",""
"html-button-response","5","271409","0.0-5.0","50780","<p>Ebben a játékban szavakat kell toldalékolni.</p> <p>Minden körben mutatunk majd egy példamondatot, amiben lesz egy szó.</p> <p>Alatta jön egy második mondat, ezt a mondatot neked kell majd befejezni, ugyanezzel a szóval.</p> <p>Nem biztos, hogy a szó eleve ismerős lesz számodra!</p> <p>Minden mondathoz adunk két lehetőséget, ezeket balra és jobbra látod majd.</p> <p>A játék kb. negyedóráig-húsz percig tart.</p>","0","","","","","",""
"html-button-response","6","285550","0.0-6.0","13629","<p>Nézzünk egy példát!</p> <p>A példamondat: ""János nagyon szeret rancsúrozni.""</p><p>Neked ezt a mondatot kell befejezned: ""Én is szívesen...""</p><p>A lehetőségek pedig ezek:</p>","0","","","","","",""
"html-button-response","7","296241","0.0-7.0","10179","<p>Nagyon jó.</p><p>Ezt a játékot nem egyedül fogod játszani, hanem egy másik játékossal.</p><p>Mielőtt továbblépünk, összekapcsolunk titeket egymással.</p><p>Ez igénybe vehet néhány másodpercet, amihez szíves türelmed kérjük.</p>","0","","","","","",""
"html-button-response","8","301992","0.0-8.0","null","<p>Csatlakozás a másik játékoshoz...</p>","null","","","","","",""
"html-button-response","9","304518","0.0-9.0","null","<p> Sikeres kapcsolódás!</p>","null","","","","","",""
"html-button-response","10","315035","0.0-10.0","null","<p>A következőkben ketten játsszátok a szóválasztós játékot.</p><p>A feladatotok az lesz, hogy minden körben <b>ugyanazt</b> a szót válasszátok.</p><p>Minden ilyen egyező válaszért pontot kaptok.</p><p>Próbáld meg kitalálni, mit választ a másik játékos!</p><p>Bármikor választhatsz, a körnek akkor van vége, ha mindketten döntöttetek.</p><p>Sok sikert!</p>","null","","","","","",""
"html-button-response-esp","11","323440","0.0-11.0-0.0","7435","Te bizony sokat spéslesz. Én is sokat...","0","spéslek","[""spéslek"",""spéslem""]","spéslem","esp trial","0","false"
"html-button-response","12","326955","0.0-11.0-1.0","null","<p>A másik játékos ezt választotta: <b>spéslem</b>.</p><p>&#10060;</p><p>A válaszaitok <b>nem</b> egyeznek meg.</p>","null","","","","feedback trial","",""
"html-button-response-esp","13","335381","0.0-11.0-0.1","7415","Te bizony sokat flagánylasz. Én is sokat...","0","flagánylom","[""flagánylom"",""flagánylok""]","flagánylom","esp trial","0","true"
"html-button-response","14","338899","0.0-11.0-1.1","null","<p>A másik játékos ezt választotta: <b>flagánylom</b>.</p><p>&#x2705;</p><p>A te válaszod és a másik játékos válasza <b>megegyeznek</b>.</p>","null","","","","feedback trial","",""
"html-button-response-esp","15","347318","0.0-11.0-0.2","4657","Te bizony sokat csíszlasz. Én is sokat...","1","csíszlom","[""csíszlok"",""csíszlom""]","csíszlok","esp trial","0","false"
"html-button-response","16","350843","0.0-11.0-1.2","null","<p>A másik játékos ezt választotta: <b>csíszlok</b>.</p><p>&#10060;</p><p>A válaszaitok <b>nem</b> egyeznek meg.</p>","null","","","","feedback trial","",""
"html-button-response-esp","17","359264","0.0-11.0-0.3","7044","Te bizony sokat klibamlasz. Én is sokat...","1","klibamlok","[""klibamlom"",""klibamlok""]","klibamlok","esp trial","0","true"
"html-button-response","18","362800","0.0-11.0-1.3","null","<p>A másik játékos ezt választotta: <b>klibamlok</b>.</p><p>&#x2705;</p><p>A te válaszod és a másik játékos válasza <b>megegyeznek</b>.</p>","null","","","","feedback trial","",""
"html-button-response-esp","19","371214","0.0-11.0-0.4","4792","Te bizony sokat vilakszol. Én is sokat...","1","vilakszom","[""vilakszok"",""vilakszom""]","vilakszok","esp trial","0","false"
"html-button-response","20","374731","0.0-11.0-1.4","null","<p>A másik játékos ezt választotta: <b>vilakszok</b>.</p><p>&#10060;</p><p>A válaszaitok <b>nem</b> egyeznek meg.</p>","null","","","","feedback trial","",""
"html-button-response-esp","21","383144","0.0-11.0-0.5","3985","Te bizony sokat feténylesz. Én is sokat...","0","feténylek","[""feténylek"",""feténylem""]","feténylem","esp trial","0","false"
"html-button-response","22","386660","0.0-11.0-1.5","null","<p>A másik játékos ezt választotta: <b>feténylem</b>.</p><p>&#10060;</p><p>A válaszaitok <b>nem</b> egyeznek meg.</p>","null","","","","feedback trial","",""
"html-button-response-esp","23","395076","0.0-11.0-0.6","5540","Te bizony sokat spibaklasz. Én is sokat...","1","spibaklom","[""spibaklok"",""spibaklom""]","spibaklok","esp trial","0","false"
"html-button-response","24","398596","0.0-11.0-1.6","null","<p>A másik játékos ezt választotta: <b>spibaklok</b>.</p><p>&#10060;</p><p>A válaszaitok <b>nem</b> egyeznek meg.</p>","null","","","","feedback trial","",""
"html-button-response-esp","25","407794","0.0-11.0-0.7","8685","Te bizony sokat sprökszöl. Én is sokat...","0","sprökszöm","[""sprökszöm"",""sprökszök""]","sprökszök","esp trial","0","false"
"html-button-response","26","411318","0.0-11.0-1.7","null","<p>A másik játékos ezt választotta: <b>sprökszök</b>.</p><p>&#10060;</p><p>A válaszaitok <b>nem</b> egyeznek meg.</p>","null","","","","feedback trial","",""
"html-button-response-esp","27","419729","0.0-11.0-0.8","5098","Te bizony sokat fibamlasz. Én is sokat...","1","fibamlom","[""fibamlok"",""fibamlom""]","fibamlom","esp trial","0","true"
"html-button-response","28","423248","0.0-11.0-1.8","null","<p>A másik játékos ezt választotta: <b>fibamlom</b>.</p><p>&#x2705;</p><p>A te válaszod és a másik játékos válasza <b>megegyeznek</b>.</p>","null","","","","feedback trial","",""
"html-button-response-esp","29","431658","0.0-11.0-0.9","4136","Te bizony sokat spatárzol. Én is sokat...","0","spatárzom","[""spatárzom"",""spatárzok""]","spatárzok","esp trial","0","false"
"html-button-response","30","435178","0.0-11.0-1.9","null","<p>A másik játékos ezt választotta: <b>spatárzok</b>.</p><p>&#10060;</p><p>A válaszaitok <b>nem</b> egyeznek meg.</p>","null","","","","feedback trial","",""
"html-button-response-esp","31","443598","0.0-11.0-0.10","4052","Te bizony sokat siladzol. Én is sokat...","0","siladzom","[""siladzom"",""siladzok""]","siladzok","esp trial","0","false"
"html-button-response","32","447119","0.0-11.0-1.10","null","<p>A másik játékos ezt választotta: <b>siladzok</b>.</p><p>&#10060;</p><p>A válaszaitok <b>nem</b> egyeznek meg.</p>","null","","","","feedback trial","",""
"html-button-response-esp","33","455532","0.0-11.0-0.11","5205","Te bizony sokat prűrlesz. Én is sokat...","1","prűrlök","[""prűrlöm"",""prűrlök""]","prűrlöm","esp trial","0","false"
"html-button-response","34","459056","0.0-11.0-1.11","null","<p>A másik játékos ezt választotta: <b>prűrlöm</b>.</p><p>&#10060;</p><p>A válaszaitok <b>nem</b> egyeznek meg.</p>","null","","","","feedback trial","",""
"html-button-response-esp","35","467473","0.0-11.0-0.12","4979","Te bizony sokat drubódzol. Én is sokat...","1","drubódzom","[""drubódzok"",""drubódzom""]","drubódzok","esp trial","0","false"
"html-button-response","36","470999","0.0-11.0-1.12","null","<p>A másik játékos ezt választotta: <b>drubódzok</b>.</p><p>&#10060;</p><p>A válaszaitok <b>nem</b> egyeznek meg.</p>","null","","","","feedback trial","",""
"html-button-response-esp","37","479405","0.0-11.0-0.13","5328","Te bizony sokat pratánylasz. Én is sokat...","1","pratánylok","[""pratánylom"",""pratánylok""]","pratánylom","esp trial","0","false"
"html-button-response","38","482933","0.0-11.0-1.13","null","<p>A másik játékos ezt választotta: <b>pratánylom</b>.</p><p>&#10060;</p><p>A válaszaitok <b>nem</b> egyeznek meg.</p>","null","","","","feedback trial","",""
"html-button-response-esp","39","491348","0.0-11.0-0.14","2949","Te bizony sokat ruslasz. Én is sokat...","1","ruslom","[""ruslok"",""ruslom""]","ruslom","esp trial","0","true"
"html-button-response","40","494877","0.0-11.0-1.14","null","<p>A másik játékos ezt választotta: <b>ruslom</b>.</p><p>&#x2705;</p><p>A te válaszod és a másik játékos válasza <b>megegyeznek</b>.</p>","null","","","","feedback trial","",""
"html-button-response-esp","41","503294","0.0-11.0-0.15","5073","Te bizony sokat flagárzol. Én is sokat...","1","flagárzom","[""flagárzok"",""flagárzom""]","flagárzok","esp trial","0","false"
"html-button-response","42","506820","0.0-11.0-1.15","null","<p>A másik játékos ezt választotta: <b>flagárzok</b>.</p><p>&#10060;</p><p>A válaszaitok <b>nem</b> egyeznek meg.</p>","null","","","","feedback trial","",""
"html-button-response-esp","43","519057","0.0-11.0-0.16","11723","Te bizony sokat spilágzol. Én is sokat...","0","spilágzok","[""spilágzok"",""spilágzom""]","spilágzok","esp trial","0","true"
"html-button-response","44","522581","0.0-11.0-1.16","null","<p>A másik játékos ezt választotta: <b>spilágzok</b>.</p><p>&#x2705;</p><p>A te válaszod és a másik játékos válasza <b>megegyeznek</b>.</p>","null","","","","feedback trial","",""
"html-button-response-esp","45","535015","0.0-11.0-0.17","11922","Te bizony sokat trilszol. Én is sokat...","1","trilszok","[""trilszom"",""trilszok""]","trilszok","esp trial","0","true"
"html-button-response","46","538561","0.0-11.0-1.17","null","<p>A másik játékos ezt választotta: <b>trilszok</b>.</p><p>&#x2705;</p><p>A te válaszod és a másik játékos válasza <b>megegyeznek</b>.</p>","null","","","","feedback trial","",""
"html-button-response-esp","47","546974","0.0-11.0-0.18","6304","Te bizony sokat flüröslesz. Én is sokat...","1","flüröslök","[""flüröslöm"",""flüröslök""]","flüröslök","esp trial","0","true"
"html-button-response","48","550493","0.0-11.0-1.18","null","<p>A másik játékos ezt választotta: <b>flüröslök</b>.</p><p>&#x2705;</p><p>A te válaszod és a másik játékos válasza <b>megegyeznek</b>.</p>","null","","","","feedback trial","",""
"html-button-response-esp","49","558904","0.0-11.0-0.19","5328","Te bizony sokat ribzol. Én is sokat...","1","ribzom","[""ribzok"",""ribzom""]","ribzok","esp trial","0","false"
"html-button-response","50","562424","0.0-11.0-1.19","null","<p>A másik játékos ezt választotta: <b>ribzok</b>.</p><p>&#10060;</p><p>A válaszaitok <b>nem</b> egyeznek meg.</p>","null","","","","feedback trial","",""
"html-button-response-esp","51","572779","0.0-11.0-0.20","9843","Te bizony sokat frilegszel. Én is sokat...","0","frilegszek","[""frilegszek"",""frilegszem""]","frilegszek","esp trial","0","true"
"html-button-response","52","576294","0.0-11.0-1.20","null","<p>A másik játékos ezt választotta: <b>frilegszek</b>.</p><p>&#x2705;</p><p>A te válaszod és a másik játékos válasza <b>megegyeznek</b>.</p>","null","","","","feedback trial","",""
"html-button-response-esp","53","584702","0.0-11.0-0.21","4013","Te bizony sokat brüjlesz. Én is sokat...","0","brüjlök","[""brüjlök"",""brüjlöm""]","brüjlöm","esp trial","0","false"
"html-button-response","54","588225","0.0-11.0-1.21","null","<p>A másik játékos ezt választotta: <b>brüjlöm</b>.</p><p>&#10060;</p><p>A válaszaitok <b>nem</b> egyeznek meg.</p>","null","","","","feedback trial","",""
"html-button-response-esp","55","596635","0.0-11.0-0.22","3265","Te bizony sokat sojzol. Én is sokat...","1","sojzok","[""sojzom"",""sojzok""]","sojzok","esp trial","0","true"
"html-button-response","56","600157","0.0-11.0-1.22","null","<p>A másik játékos ezt választotta: <b>sojzok</b>.</p><p>&#x2705;</p><p>A te válaszod és a másik játékos válasza <b>megegyeznek</b>.</p>","null","","","","feedback trial","",""
"html-button-response-esp","57","609807","0.0-11.0-0.23","9140","Te bizony sokat flűröklesz. Én is sokat...","1","flűröklök","[""flűröklöm"",""flűröklök""]","flűröklök","esp trial","0","true"
"html-button-response","58","613335","0.0-11.0-1.23","null","<p>A másik játékos ezt választotta: <b>flűröklök</b>.</p><p>&#x2705;</p><p>A te válaszod és a másik játékos válasza <b>megegyeznek</b>.</p>","null","","","","feedback trial","",""
"html-button-response-esp","59","621746","0.0-11.0-0.24","4261","Te bizony sokat sűzlesz. Én is sokat...","0","sűzlöm","[""sűzlöm"",""sűzlök""]","sűzlök","esp trial","0","false"
"html-button-response","60","625279","0.0-11.0-1.24","null","<p>A másik játékos ezt választotta: <b>sűzlök</b>.</p><p>&#10060;</p><p>A válaszaitok <b>nem</b> egyeznek meg.</p>","null","","","","feedback trial","",""
"html-button-response-esp","61","633693","0.0-11.0-0.25","4077","Te bizony sokat narjárzol. Én is sokat...","1","narjárzom","[""narjárzok"",""narjárzom""]","narjárzok","esp trial","0","false"
"html-button-response","62","637225","0.0-11.0-1.25","null","<p>A másik játékos ezt választotta: <b>narjárzok</b>.</p><p>&#10060;</p><p>A válaszaitok <b>nem</b> egyeznek meg.</p>","null","","","","feedback trial","",""
"html-button-response-esp","63","645647","0.0-11.0-0.26","2920","Te bizony sokat böjzöl. Én is sokat...","1","böjzök","[""böjzöm"",""böjzök""]","böjzök","esp trial","0","true"
"html-button-response","64","649168","0.0-11.0-1.26","null","<p>A másik játékos ezt választotta: <b>böjzök</b>.</p><p>&#x2705;</p><p>A te válaszod és a másik játékos válasza <b>megegyeznek</b>.</p>","null","","","","feedback trial","",""
"html-button-response-esp","65","657589","0.0-11.0-0.27","4772","Te bizony sokat sprogzol. Én is sokat...","0","sprogzok","[""sprogzok"",""sprogzom""]","sprogzok","esp trial","0","true"
"html-button-response","66","661120","0.0-11.0-1.27","null","<p>A másik játékos ezt választotta: <b>sprogzok</b>.</p><p>&#x2705;</p><p>A te válaszod és a másik játékos válasza <b>megegyeznek</b>.</p>","null","","","","feedback trial","",""
"html-button-response-esp","67","669535","0.0-11.0-0.28","3297","Te bizony sokat bölszöl. Én is sokat...","0","bölszök","[""bölszök"",""bölszöm""]","bölszök","esp trial","0","true"
"html-button-response","68","673060","0.0-11.0-1.28","null","<p>A másik játékos ezt választotta: <b>bölszök</b>.</p><p>&#x2705;</p><p>A te válaszod és a másik játékos válasza <b>megegyeznek</b>.</p>","null","","","","feedback trial","",""
"html-button-response-esp","69","681470","0.0-11.0-0.29","2635","Te bizony sokat ribegzel. Én is sokat...","0","ribegzek","[""ribegzek"",""ribegzem""]","ribegzek","esp trial","0","true"
"html-button-response","70","684989","0.0-11.0-1.29","null","<p>A másik játékos ezt választotta: <b>ribegzek</b>.</p><p>&#x2705;</p><p>A te válaszod és a másik játékos válasza <b>megegyeznek</b>.</p>","null","","","","feedback trial","",""
"html-button-response-esp","71","693405","0.0-11.0-0.30","2574","Te bizony sokat marzol. Én is sokat...","0","marzok","[""marzok"",""marzom""]","marzom","esp trial","0","false"
"html-button-response","72","696935","0.0-11.0-1.30","null","<p>A másik játékos ezt választotta: <b>marzom</b>.</p><p>&#10060;</p><p>A válaszaitok <b>nem</b> egyeznek meg.</p>","null","","","","feedback trial","",""
"html-button-response-esp","73","705350","0.0-11.0-0.31","2885","Te bizony sokat piragszol. Én is sokat...","0","piragszok","[""piragszok"",""piragszom""]","piragszok","esp trial","0","true"
"html-button-response","74","708880","0.0-11.0-1.31","null","<p>A másik játékos ezt választotta: <b>piragszok</b>.</p><p>&#x2705;</p><p>A te válaszod és a másik játékos válasza <b>megegyeznek</b>.</p>","null","","","","feedback trial","",""
"html-button-response-esp","75","718341","0.0-11.0-0.32","8947","Te bizony sokat herégszel. Én is sokat...","0","herégszem","[""herégszem"",""herégszek""]","herégszek","esp trial","0","false"
"html-button-response","76","721863","0.0-11.0-1.32","null","<p>A másik játékos ezt választotta: <b>herégszek</b>.</p><p>&#10060;</p><p>A válaszaitok <b>nem</b> egyeznek meg.</p>","null","","","","feedback trial","",""
"html-button-response-esp","77","730280","0.0-11.0-0.33","3075","Te bizony sokat tínylasz. Én is sokat...","1","tínylok","[""tínylom"",""tínylok""]","tínylok","esp trial","0","true"
"html-button-response","78","733798","0.0-11.0-1.33","null","<p>A másik játékos ezt választotta: <b>tínylok</b>.</p><p>&#x2705;</p><p>A te válaszod és a másik játékos válasza <b>megegyeznek</b>.</p>","null","","","","feedback trial","",""
"html-button-response-esp","79","742209","0.0-11.0-0.34","5485","Te bizony sokat tiregzel. Én is sokat...","0","tiregzek","[""tiregzek"",""tiregzem""]","tiregzek","esp trial","0","true"
"html-button-response","80","745723","0.0-11.0-1.34","null","<p>A másik játékos ezt választotta: <b>tiregzek</b>.</p><p>&#x2705;</p><p>A te válaszod és a másik játékos válasza <b>megegyeznek</b>.</p>","null","","","","feedback trial","",""
"html-button-response-esp","81","754143","0.0-11.0-0.35","4019","Te bizony sokat jüslesz. Én is sokat...","1","jüslök","[""jüslöm"",""jüslök""]","jüslöm","esp trial","0","false"
"html-button-response","82","757663","0.0-11.0-1.35","null","<p>A másik játékos ezt választotta: <b>jüslöm</b>.</p><p>&#10060;</p><p>A válaszaitok <b>nem</b> egyeznek meg.</p>","null","","","","feedback trial","",""
"html-button-response-esp","83","766075","0.0-11.0-0.36","3078","Te bizony sokat femlesz. Én is sokat...","0","femlek","[""femlek"",""femlem""]","femlem","esp trial","0","false"
"html-button-response","84","769605","0.0-11.0-1.36","null","<p>A másik játékos ezt választotta: <b>femlem</b>.</p><p>&#10060;</p><p>A válaszaitok <b>nem</b> egyeznek meg.</p>","null","","","","feedback trial","",""
"html-button-response-esp","85","778023","0.0-11.0-0.37","4709","Te bizony sokat prilegzel. Én is sokat...","0","prilegzek","[""prilegzek"",""prilegzem""]","prilegzek","esp trial","0","true"
"html-button-response","86","781542","0.0-11.0-1.37","null","<p>A másik játékos ezt választotta: <b>prilegzek</b>.</p><p>&#x2705;</p><p>A te válaszod és a másik játékos válasza <b>megegyeznek</b>.</p>","null","","","","feedback trial","",""
"html-button-response-esp","87","789949","0.0-11.0-0.38","2646","Te bizony sokat pebzel. Én is sokat...","0","pebzek","[""pebzek"",""pebzem""]","pebzek","esp trial","0","true"
"html-button-response","88","793482","0.0-11.0-1.38","null","<p>A másik játékos ezt választotta: <b>pebzek</b>.</p><p>&#x2705;</p><p>A te válaszod és a másik játékos válasza <b>megegyeznek</b>.</p>","null","","","","feedback trial","",""
"html-button-response-esp","89","801897","0.0-11.0-0.39","2618","Te bizony sokat juszlasz. Én is sokat...","0","juszlom","[""juszlom"",""juszlok""]","juszlok","esp trial","0","false"
"html-button-response","90","805428","0.0-11.0-1.39","null","<p>A másik játékos ezt választotta: <b>juszlok</b>.</p><p>&#10060;</p><p>A válaszaitok <b>nem</b> egyeznek meg.</p>","null","","","","feedback trial","",""
"html-button-response-esp","91","813842","0.0-11.0-0.40","2556","Te bizony sokat nyáslasz. Én is sokat...","0","nyáslok","[""nyáslok"",""nyáslom""]","nyáslok","esp trial","0","true"
"html-button-response","92","817367","0.0-11.0-1.40","null","<p>A másik játékos ezt választotta: <b>nyáslok</b>.</p><p>&#x2705;</p><p>A te válaszod és a másik játékos válasza <b>megegyeznek</b>.</p>","null","","","","feedback trial","",""
"html-button-response-esp","93","825784","0.0-11.0-0.41","4732","Te bizony sokat hilarzol. Én is sokat...","1","hilarzok","[""hilarzom"",""hilarzok""]","hilarzok","esp trial","0","true"
"html-button-response","94","829300","0.0-11.0-1.41","null","<p>A másik játékos ezt választotta: <b>hilarzok</b>.</p><p>&#x2705;</p><p>A te válaszod és a másik játékos válasza <b>megegyeznek</b>.</p>","null","","","","feedback trial","",""
"html-button-response-esp","95","837711","0.0-11.0-0.42","3453","Te bizony sokat büglesz. Én is sokat...","0","büglök","[""büglök"",""büglöm""]","büglöm","esp trial","0","false"
"html-button-response","96","841234","0.0-11.0-1.42","null","<p>A másik játékos ezt választotta: <b>büglöm</b>.</p><p>&#10060;</p><p>A válaszaitok <b>nem</b> egyeznek meg.</p>","null","","","","feedback trial","",""
"html-button-response-esp","97","849656","0.0-11.0-0.43","3461","Te bizony sokat klörlesz. Én is sokat...","0","klörlök","[""klörlök"",""klörlöm""]","klörlök","esp trial","0","true"
"html-button-response","98","853176","0.0-11.0-1.43","null","<p>A másik játékos ezt választotta: <b>klörlök</b>.</p><p>&#x2705;</p><p>A te válaszod és a másik játékos válasza <b>megegyeznek</b>.</p>","null","","","","feedback trial","",""
"html-button-response-esp","99","861598","0.0-11.0-0.44","2461","Te bizony sokat fretszel. Én is sokat...","0","fretszek","[""fretszek"",""fretszem""]","fretszek","esp trial","0","true"
"html-button-response","100","865129","0.0-11.0-1.44","null","<p>A másik játékos ezt választotta: <b>fretszek</b>.</p><p>&#x2705;</p><p>A te válaszod és a másik játékos válasza <b>megegyeznek</b>.</p>","null","","","","feedback trial","",""
"html-button-response-esp","101","873541","0.0-11.0-0.45","3855","Te bizony sokat málapszol. Én is sokat...","1","málapszok","[""málapszom"",""málapszok""]","málapszok","esp trial","0","true"
"html-button-response","102","877060","0.0-11.0-1.45","null","<p>A másik játékos ezt választotta: <b>málapszok</b>.</p><p>&#x2705;</p><p>A te válaszod és a másik játékos válasza <b>megegyeznek</b>.</p>","null","","","","feedback trial","",""
"html-button-response-esp","103","885476","0.0-11.0-0.46","2527","Te bizony sokat szirlasz. Én is sokat...","1","szirlok","[""szirlom"",""szirlok""]","szirlok","esp trial","0","true"
"html-button-response","104","888999","0.0-11.0-1.46","null","<p>A másik játékos ezt választotta: <b>szirlok</b>.</p><p>&#x2705;</p><p>A te válaszod és a másik játékos válasza <b>megegyeznek</b>.</p>","null","","","","feedback trial","",""
"html-button-response-esp","105","897418","0.0-11.0-0.47","2368","Te bizony sokat tomlasz. Én is sokat...","0","tomlok","[""tomlok"",""tomlom""]","tomlom","esp trial","0","false"
"html-button-response","106","900947","0.0-11.0-1.47","null","<p>A másik játékos ezt választotta: <b>tomlom</b>.</p><p>&#10060;</p><p>A válaszaitok <b>nem</b> egyeznek meg.</p>","null","","","","feedback trial","",""
"html-button-response-esp","107","909363","0.0-11.0-0.48","2328","Te bizony sokat driládzol. Én is sokat...","1","driládzok","[""driládzom"",""driládzok""]","driládzok","esp trial","0","true"
"html-button-response","108","912882","0.0-11.0-1.48","null","<p>A másik játékos ezt választotta: <b>driládzok</b>.</p><p>&#x2705;</p><p>A te válaszod és a másik játékos válasza <b>megegyeznek</b>.</p>","null","","","","feedback trial","",""
"html-button-response-esp","109","921295","0.0-11.0-0.49","4432","Te bizony sokat pivegszel. Én is sokat...","1","pivegszem","[""pivegszek"",""pivegszem""]","pivegszek","esp trial","0","false"
"html-button-response","110","924824","0.0-11.0-1.49","null","<p>A másik játékos ezt választotta: <b>pivegszek</b>.</p><p>&#10060;</p><p>A válaszaitok <b>nem</b> egyeznek meg.</p>","null","","","","feedback trial","",""
"html-button-response-esp","111","933239","0.0-11.0-0.50","1969","Te bizony sokat lorjódzol. Én is sokat...","1","lorjódzok","[""lorjódzom"",""lorjódzok""]","lorjódzok","esp trial","0","true"
"html-button-response","112","936769","0.0-11.0-1.50","null","<p>A másik játékos ezt választotta: <b>lorjódzok</b>.</p><p>&#x2705;</p><p>A te válaszod és a másik játékos válasza <b>megegyeznek</b>.</p>","null","","","","feedback trial","",""
"html-button-response-esp","113","945179","0.0-11.0-0.51","1968","Te bizony sokat sztremlesz. Én is sokat...","1","sztremlek","[""sztremlem"",""sztremlek""]","sztremlem","esp trial","0","false"
"html-button-response","114","948705","0.0-11.0-1.51","null","<p>A másik játékos ezt választotta: <b>sztremlem</b>.</p><p>&#10060;</p><p>A válaszaitok <b>nem</b> egyeznek meg.</p>","null","","","","feedback trial","",""
"html-button-response-esp","115","957126","0.0-11.0-0.52","1827","Te bizony sokat spűmlesz. Én is sokat...","1","spűmlök","[""spűmlöm"",""spűmlök""]","spűmlöm","esp trial","0","false"
"html-button-response","116","960656","0.0-11.0-1.52","null","<p>A másik játékos ezt választotta: <b>spűmlöm</b>.</p><p>&#10060;</p><p>A válaszaitok <b>nem</b> egyeznek meg.</p>","null","","","","feedback trial","",""
"html-button-response-esp","117","969061","0.0-11.0-0.53","2319","Te bizony sokat brágaklasz. Én is sokat...","1","brágaklok","[""brágaklom"",""brágaklok""]","brágaklok","esp trial","0","true"
"html-button-response","118","972593","0.0-11.0-1.53","null","<p>A másik játékos ezt választotta: <b>brágaklok</b>.</p><p>&#x2705;</p><p>A te válaszod és a másik játékos válasza <b>megegyeznek</b>.</p>","null","","","","feedback trial","",""
"html-button-response","119","985458","0.0-12.0","12355","<p>A közös játék most véget ért.</p><p>Mielőtt eláruljuk a végső pontszámodat, arra kérlek, játszd a szóválasztós játékot néhány percig egyedül is.</p><p>A feladatod ugyanaz lesz, választani két lehetőség közül.</p><p>Most viszont egyedül kell döntened, hogy te melyiket választanád.</p>","0","","","","","",""
"html-button-response-clever","120","994313","0.0-13.0-0.0","8342","Te bizony sokat píjlasz. Én is sokat...","1","píjlok","[""píjlom"",""píjlok""]","","posttest trial","4",""
"html-button-response-clever","121","999308","0.0-13.0-0.1","4484","Te bizony sokat brobódzol. Én is sokat...","0","brobódzom","[""brobódzom"",""brobódzok""]","","posttest trial","4",""
"html-button-response-clever","122","1003502","0.0-13.0-0.2","3683","Te bizony sokat flehékszel. Én is sokat...","0","flehékszem","[""flehékszem"",""flehékszek""]","","posttest trial","4",""
"html-button-response-clever","123","1012974","0.0-13.0-0.3","8961","Te bizony sokat klivaslasz. Én is sokat...","0","klivaslok","[""klivaslok"",""klivaslom""]","","posttest trial","4",""
"html-button-response-clever","124","1016150","0.0-13.0-0.4","2671","Te bizony sokat brivegzel. Én is sokat...","1","brivegzem","[""brivegzek"",""brivegzem""]","","posttest trial","4",""
"html-button-response-clever","125","1021334","0.0-13.0-0.5","4675","Te bizony sokat flitlasz. Én is sokat...","0","flitlok","[""flitlok"",""flitlom""]","","posttest trial","4",""
"html-button-response-clever","126","1026154","0.0-13.0-0.6","4310","Te bizony sokat prínylasz. Én is sokat...","0","prínylok","[""prínylok"",""prínylom""]","","posttest trial","4",""
"html-button-response-clever","127","1029579","0.0-13.0-0.7","2915","Te bizony sokat bivégszel. Én is sokat...","0","bivégszem","[""bivégszem"",""bivégszek""]","","posttest trial","4",""
"html-button-response-clever","128","1034284","0.0-13.0-0.8","4192","Te bizony sokat spülűdzöl. Én is sokat...","0","spülűdzöm","[""spülűdzöm"",""spülűdzök""]","","posttest trial","4",""
"html-button-response-clever","129","1037281","0.0-13.0-0.9","2490","Te bizony sokat narádzol. Én is sokat...","0","narádzom","[""narádzom"",""narádzok""]","","posttest trial","4",""
"html-button-response-clever","130","1040300","0.0-13.0-0.10","2509","Te bizony sokat nűröklesz. Én is sokat...","1","nűröklök","[""nűröklöm"",""nűröklök""]","","posttest trial","4",""
"html-button-response-clever","131","1044976","0.0-13.0-0.11","4167","Te bizony sokat spröbzöl. Én is sokat...","1","spröbzök","[""spröbzöm"",""spröbzök""]","","posttest trial","4",""
"html-button-response-clever","132","1048769","0.0-13.0-0.12","3281","Te bizony sokat spihemlesz. Én is sokat...","1","spihemlek","[""spihemlem"",""spihemlek""]","","posttest trial","4",""
"html-button-response-clever","133","1052858","0.0-13.0-0.13","3580","Te bizony sokat ibékszel. Én is sokat...","1","ibékszek","[""ibékszem"",""ibékszek""]","","posttest trial","4",""
"html-button-response-clever","134","1059118","0.0-13.0-0.14","5751","Te bizony sokat hurjorzol. Én is sokat...","1","hurjorzom","[""hurjorzok"",""hurjorzom""]","","posttest trial","4",""
"html-button-response-clever","135","1065009","0.0-13.0-0.15","5382","Te bizony sokat klétszel. Én is sokat...","0","klétszem","[""klétszem"",""klétszek""]","","posttest trial","4",""
"html-button-response-clever","136","1069487","0.0-13.0-0.16","3964","Te bizony sokat rájzol. Én is sokat...","1","rájzok","[""rájzom"",""rájzok""]","","posttest trial","4",""
"html-button-response-clever","137","1072428","0.0-13.0-0.17","2431","Te bizony sokat pítszol. Én is sokat...","1","pítszom","[""pítszok"",""pítszom""]","","posttest trial","4",""
"html-button-response-clever","138","1075973","0.0-13.0-0.18","3034","Te bizony sokat jonylasz. Én is sokat...","1","jonylok","[""jonylom"",""jonylok""]","","posttest trial","4",""
"html-button-response-clever","139","1085176","0.0-13.0-0.19","8692","Te bizony sokat brubzol. Én is sokat...","0","brubzom","[""brubzom"",""brubzok""]","","posttest trial","4",""
"html-button-response-clever","140","1088585","0.0-13.0-0.20","2898","Te bizony sokat sztrűkszöl. Én is sokat...","0","sztrűkszöm","[""sztrűkszöm"",""sztrűkszök""]","","posttest trial","4",""
"html-button-response-clever","141","1091940","0.0-13.0-0.21","2843","Te bizony sokat spihegzel. Én is sokat...","0","spihegzem","[""spihegzem"",""spihegzek""]","","posttest trial","4",""
"html-button-response-clever","142","1095631","0.0-13.0-0.22","3179","Te bizony sokat klaráglasz. Én is sokat...","1","klaráglok","[""klaráglom"",""klaráglok""]","","posttest trial","4",""
"html-button-response-clever","143","1098958","0.0-13.0-0.23","2816","Te bizony sokat lörűdzöl. Én is sokat...","0","lörűdzöm","[""lörűdzöm"",""lörűdzök""]","","posttest trial","4",""
"html-button-response-clever","144","1103638","0.0-13.0-0.24","4170","Te bizony sokat trehégszel. Én is sokat...","1","trehégszek","[""trehégszem"",""trehégszek""]","","posttest trial","4",""
"html-button-response-clever","145","1107508","0.0-13.0-0.25","3359","Te bizony sokat huroslasz. Én is sokat...","1","huroslok","[""huroslom"",""huroslok""]","","posttest trial","4",""
"html-button-response-clever","146","1110046","0.0-13.0-0.26","2028","Te bizony sokat plugzol. Én is sokat...","1","plugzom","[""plugzok"",""plugzom""]","","posttest trial","4",""
"html-button-response-clever","147","1113145","0.0-13.0-0.27","2591","Te bizony sokat hűgzöl. Én is sokat...","1","hűgzöm","[""hűgzök"",""hűgzöm""]","","posttest trial","4",""
"html-button-response-clever","148","1117045","0.0-13.0-0.28","3389","Te bizony sokat spáraklasz. Én is sokat...","1","spáraklok","[""spáraklom"",""spáraklok""]","","posttest trial","4",""
"html-button-response-clever","149","1122353","0.0-13.0-0.29","4798","Te bizony sokat pribemlesz. Én is sokat...","1","pribemlek","[""pribemlem"",""pribemlek""]","","posttest trial","4",""
"html-button-response-clever","150","1125854","0.0-13.0-0.30","2988","Te bizony sokat vanylasz. Én is sokat...","0","vanylok","[""vanylok"",""vanylom""]","","posttest trial","4",""
"html-button-response-clever","151","1129434","0.0-13.0-0.31","3069","Te bizony sokat sztrijzol. Én is sokat...","1","sztrijzok","[""sztrijzom"",""sztrijzok""]","","posttest trial","4",""
"html-button-response-clever","152","1132984","0.0-13.0-0.32","3039","Te bizony sokat filágzol. Én is sokat...","0","filágzom","[""filágzom"",""filágzok""]","","posttest trial","4",""
"html-button-response-clever","153","1136318","0.0-13.0-0.33","2824","Te bizony sokat gyibeslesz. Én is sokat...","1","gyibeslek","[""gyibeslem"",""gyibeslek""]","","posttest trial","4",""
"html-button-response-clever","154","1139565","0.0-13.0-0.34","2739","Te bizony sokat treglesz. Én is sokat...","0","treglek","[""treglek"",""treglem""]","","posttest trial","4",""
"html-button-response-clever","155","1144471","0.0-13.0-0.35","4396","Te bizony sokat figlasz. Én is sokat...","1","figlok","[""figlom"",""figlok""]","","posttest trial","4",""
"html-button-response-clever","156","1147714","0.0-13.0-0.36","2728","Te bizony sokat frodlasz. Én is sokat...","0","frodlok","[""frodlok"",""frodlom""]","","posttest trial","4",""
"html-button-response-clever","157","1150284","0.0-13.0-0.37","2058","Te bizony sokat vülődzöl. Én is sokat...","0","vülődzök","[""vülődzök"",""vülődzöm""]","","posttest trial","4",""
"html-button-response-clever","158","1160506","0.0-13.0-0.38","9710","Te bizony sokat düjzöl. Én is sokat...","1","düjzök","[""düjzöm"",""düjzök""]","","posttest trial","4",""
"html-button-response-clever","159","1163602","0.0-13.0-0.39","2585","Te bizony sokat flűmlesz. Én is sokat...","0","flűmlök","[""flűmlök"",""flűmlöm""]","","posttest trial","4",""
"html-button-response-clever","160","1166062","0.0-13.0-0.40","1951","Te bizony sokat tragzol. Én is sokat...","0","tragzom","[""tragzom"",""tragzok""]","","posttest trial","4",""
"html-button-response-clever","161","1169439","0.0-13.0-0.41","2865","Te bizony sokat sztrozlasz. Én is sokat...","1","sztrozlok","[""sztrozlom"",""sztrozlok""]","","posttest trial","4",""
"html-button-response-clever","162","1174083","0.0-13.0-0.42","4135","Te bizony sokat spüjzöl. Én is sokat...","1","spüjzök","[""spüjzöm"",""spüjzök""]","","posttest trial","4",""
"html-button-response-clever","163","1176439","0.0-13.0-0.43","1845","Te bizony sokat rokszol. Én is sokat...","0","rokszom","[""rokszom"",""rokszok""]","","posttest trial","4",""
"html-button-response-clever","164","1181321","0.0-13.0-0.44","4372","Te bizony sokat spubonylasz. Én is sokat...","1","spubonylom","[""spubonylok"",""spubonylom""]","","posttest trial","4",""
"html-button-response-clever","165","1185921","0.0-13.0-0.45","4089","Te bizony sokat salárzol. Én is sokat...","1","salárzok","[""salárzom"",""salárzok""]","","posttest trial","4",""
"html-button-response-clever","166","1190316","0.0-13.0-0.46","3885","Te bizony sokat bűtszöl. Én is sokat...","1","bűtszöm","[""bűtszök"",""bűtszöm""]","","posttest trial","4",""
"html-button-response-clever","167","1192813","0.0-13.0-0.47","1987","Te bizony sokat plűbzöl. Én is sokat...","1","plűbzöm","[""plűbzök"",""plűbzöm""]","","posttest trial","4",""
"html-button-response-clever","168","1195934","0.0-13.0-0.48","2604","Te bizony sokat flátszol. Én is sokat...","1","flátszom","[""flátszok"",""flátszom""]","","posttest trial","4",""
"html-button-response-clever","169","1200086","0.0-13.0-0.49","3640","Te bizony sokat pribagszol. Én is sokat...","1","pribagszok","[""pribagszom"",""pribagszok""]","","posttest trial","4",""
"html-button-response-clever","170","1204838","0.0-13.0-0.50","4243","Te bizony sokat szibánylasz. Én is sokat...","1","szibánylok","[""szibánylom"",""szibánylok""]","","posttest trial","4",""
"html-button-response-clever","171","1210632","0.0-13.0-0.51","5283","Te bizony sokat flehénylesz. Én is sokat...","0","flehénylek","[""flehénylek"",""flehénylem""]","","posttest trial","4",""
"html-button-response-clever","172","1214221","0.0-13.0-0.52","3079","Te bizony sokat trádlasz. Én is sokat...","1","trádlok","[""trádlom"",""trádlok""]","","posttest trial","4",""
"html-button-response-clever","173","1217354","0.0-13.0-0.53","2624","Te bizony sokat bihánylasz. Én is sokat...","0","bihánylok","[""bihánylok"",""bihánylom""]","","posttest trial","4",""
"html-button-response","174","1234150","0.0-14.0","16287","<p> Vége a játéknak. A teljes pontszámod 28/54.</p><p> Szép munka! &#128526;&#128526;&#128526;</p><p>A Befejezés gomb megnyomása után bezárhatod a böngészőablakot.</p>","0","","","","","",""
"html-keyboard-response","175","1239675","0.0-15.0","null","<div class=""message"">
         <p>Egy kis türelmet kérünk, amíg elmentjük az adatokat...</p>
         </div>","null","","","","","",""
