"trial_type","trial_index","time_elapsed","internal_node_id","rt","stimulus","response","response_string","choices","esp_response","trial_kind","list_number","esp_match"
"pavlovia","0","629","0.0-0.0","","","","","","","","",""
"html-button-response","1","20031","0.0-1.0","18888","<p>Kedves Résztvevő! A Budapesti Műszaki és Gazdaságtudományi Egyetem Kognitív Tudományi Tanszékének kutatásában való részvételed kérjük. A kutatásban azt vizsgáljuk, hogy a magyar anyanyelvűek hogyan használnak bizonyos szóalakokat, és hogy milyen képük van arról, hogy mások hogyan használják, hogyan képzik a szavakat. Ez hozzásegít bennünket ahhoz, hogy jobban megértsük, hogyan dolgozza fel és tárolja a nyelvet az emberi agy, és hogyan működnek, hogyan változnak egy adott közösség nyelvi konvenciói.</p><p>A vizsgálat egy rövid számítógépes feladatból fog állni. A kutatásban való részvétel önkéntes, a részvételi szándék bármikor visszavonható. A résztvevők eredményeit név nélkül kezeljük, így nem beazonosíthatók az adatok feldolgozása során. Minden személyes adatot az EU általános adatvédelmi rendeletének (GDPR) megfelelően kezelünk és legfeljebb öt éven belül megsemmisítünk. A vizsgálat jellemzően húsz percet vesz igénybe.</p><p>Kutatásvezető:</p><p>Dr. Rácz Péter, tudományos munkatárs, BME KTT</p><p>e-mail: racz.peter.marton@ttk.bme.hu</p>","0","","","","","",""
"html-button-response","2","32290","0.0-2.0","11747","<p>A kísérletben szavakat fogsz látni. Ezek között lesznek olyanok, amelyeket ismersz, de előfordulhatnak olyanok is, amelyeket nem ismersz, sőt, vannak köztük kitalált szavak is. Minden szónál látni fogsz toldalékolt alakokat. A te feladatod az lesz, hogy minden szóhoz kiválaszd azt a toldalékolt alakot, amely a te számodra ismerősebben, természetesebben hangzik. Rossz válaszok nincsenek, mert van olyan, hogy különböző embereknek más és más szó tűnik jobb választásnak. A választ úgy tudod majd kiválasztani, ha rákattintasz.</p><p>Ebben a szóválasztós játékban egy másik játékossal együtt veszel majd részt. A másik játékos is minden esetben azok közül a lehetőségek közül válogathat, mint te. Kettőtök feladata az, hogy ugyanazt a lehetőséget válasszátok minden esetben. Ahhoz, hogy ez sikerüljön, neked figyelned kell arra, hogy a másik játékos milyen válaszokat ad, és ennek alapján meg kell tippelned, hogyan választ legközelebb. Ha eltalálod, akkor pontot kapsz.</p>","0","","","","","",""
"html-button-response","3","35968","0.0-3.0","3174","<p>Kérjük, olvasd el az alábbi nyilatkozatot, és amennyiben egyetértesz vele, nyomj a Beleegyezés gombra!</p><p>Kijelentem, hogy magyar anyanyelvű személyként önként veszek részt a BME KTT kísérletében. A kutatás céljával és folyamatával kapcsolatban elegendő tájékoztatást kaptam, lehetőségem volt kérdések feltételére, és esetleges kérdéseimre megfelelő válaszokat kaptam. A tájékoztatás alapján elegendő mennyiségű információ áll a rendelkezésemre, hogy eldönthessem, részt kívánok-e venni a kutatásban.</p><p>Tisztában vagyok vele, hogy részvételi szándékomat és adataimat bármikor, indoklás nélkül visszavonhatom.</p><p>Értem és tudomásul veszem, hogy a kutatás tudományos célokat szolgál, és az általam szolgáltatott adatokat a BME kizárólag kutatási célból használja fel. Tudomásul veszem, hogy eredményeimet a többi résztvevő eredményeivel együtt kezelik, így egyéni teljesítményemről visszajelzést, szakvéleményt nem kapok.</p><p>Megértettem, hogy adataim kezelését illetően a BME az EU általános adatvédelmi rendelete (GDPR), a hatályos adatvédelmi törvény és a nemzetközi kutatás-etikai alapelvek szerint jár el. Eredményeim anonim módon kerülnek feldolgozásra, és a kutatás résztvevői az azonosításomra alkalmas adataimat harmadik félnek nem szolgáltatják ki. Engedélyezem a BME számára a jelen kutatásban felvett adataim feldolgozását és tárolását, beleértve azok későbbi kutatásokhoz való felhasználását is. Személyes adataim kezelésével kapcsolatban tájékoztatást kérhetek a kutatás résztvevőitől, az adatkezelés ellen tiltakozhatok, kérhetem személyes adataim helyesbítését, törlését vagy zárolását, valamint jogorvoslatért a Nemzeti Adatvédelmi és Információszabadság Hatósághoz fordulhatok.</p><p>Kijelentem, hogy a kutatásban való részvételem körülményeiről részletes tájékoztatást kaptam, és a feltételeket elfogadom.</p>","0","","","","","",""
"survey-text","4","42823","0.0-4.0","6344","","{""Q0"":""petikevagyok"",""Q1"":"""",""Q2"":"""",""Q3"":""""}","","","","","",""
"html-button-response","5","47407","0.0-5.0","4081","<p>Ebben a játékban szavakat kell toldalékolni.</p> <p>Minden körben mutatunk majd egy példamondatot, amiben lesz egy szó.</p> <p>Alatta jön egy második mondat, ezt a mondatot neked kell majd befejezni, ugyanezzel a szóval.</p> <p>Nem biztos, hogy a szó eleve ismerős lesz számodra!</p> <p>Minden mondathoz adunk két lehetőséget, ezeket balra és jobbra látod majd.</p> <p>A játék kb. negyedóráig-húsz percig tart.</p>","0","","","","","",""
"html-button-response","6","49913","0.0-6.0","1999","<p>Nézzünk egy példát!</p> <p>A példamondat: ""János nagyon szeret rancsúrozni.""</p><p>Neked ezt a mondatot kell befejezned: ""Én is szívesen...""</p><p>A lehetőségek pedig ezek:</p>","0","","","","","",""
"html-button-response","7","52590","0.0-7.0","2170","<p>Nagyon jó.</p><p>Ezt a játékot nem egyedül fogod játszani, hanem egy másik játékossal.</p><p>Mielőtt továbblépünk, összekapcsolunk titeket egymással.</p><p>Ez igénybe vehet néhány másodpercet, amihez szíves türelmed kérjük.</p>","0","","","","","",""
"html-button-response","8","58326","0.0-8.0","null","<p>Csatlakozás a másik játékoshoz...</p>","null","","","","","",""
"html-button-response","9","60844","0.0-9.0","null","<p> Sikeres kapcsolódás!</p>","null","","","","","",""
"html-button-response","10","71358","0.0-10.0","null","<p>A következőkben ketten játsszátok a szóválasztós játékot.</p><p>A feladatotok az lesz, hogy minden körben <b>ugyanazt</b> a szót válasszátok.</p><p>Minden ilyen egyező válaszért pontot kaptok.</p><p>Próbáld meg kitalálni, mit választ a másik játékos!</p><p>Bármikor választhatsz, a körnek akkor van vége, ha mindketten döntöttetek.</p><p>Sok sikert!</p>","null","","","","","",""
"html-button-response-esp","11","81580","0.0-11.0-0.0","9709","Te bizony sokat sztruglasz. Én is sokat...","1","sztruglok","[""sztruglom"",""sztruglok""]","sztruglok","esp trial","9","true"
"html-button-response","12","85094","0.0-11.0-1.0","null","<p>A másik játékos ezt választotta: <b>sztruglok</b>.</p><p>&#x2705;</p><p>A te válaszod és a másik játékos válasza <b>megegyeznek</b>.</p>","null","","","","feedback trial","",""
"html-button-response-esp","13","91117","0.0-11.0-0.1","2326","Te bizony sokat flibekszel. Én is sokat...","1","flibekszem","[""flibekszek"",""flibekszem""]","flibekszem","esp trial","9","true"
"html-button-response","14","94637","0.0-11.0-1.1","null","<p>A másik játékos ezt választotta: <b>flibekszem</b>.</p><p>&#x2705;</p><p>A te válaszod és a másik játékos válasza <b>megegyeznek</b>.</p>","null","","","","feedback trial","",""
"html-button-response-esp","15","100661","0.0-11.0-0.2","983","Te bizony sokat mékszel. Én is sokat...","0","mékszem","[""mékszem"",""mékszek""]","mékszek","esp trial","9","false"
"html-button-response","16","104177","0.0-11.0-1.2","null","<p>A másik játékos ezt választotta: <b>mékszek</b>.</p><p>&#10060;</p><p>A válaszaitok <b>nem</b> egyeznek meg.</p>","null","","","","feedback trial","",""
"html-button-response-esp","17","110187","0.0-11.0-0.3","1674","Te bizony sokat fligzol. Én is sokat...","0","fligzok","[""fligzok"",""fligzom""]","fligzom","esp trial","9","false"
"html-button-response","18","113701","0.0-11.0-1.3","null","<p>A másik játékos ezt választotta: <b>fligzom</b>.</p><p>&#10060;</p><p>A válaszaitok <b>nem</b> egyeznek meg.</p>","null","","","","feedback trial","",""
"html-button-response-esp","19","119716","0.0-11.0-0.4","1178","Te bizony sokat sprédlesz. Én is sokat...","0","sprédlek","[""sprédlek"",""sprédlem""]","sprédlek","esp trial","9","true"
"html-button-response","20","123236","0.0-11.0-1.4","null","<p>A másik játékos ezt választotta: <b>sprédlek</b>.</p><p>&#x2705;</p><p>A te válaszod és a másik játékos válasza <b>megegyeznek</b>.</p>","null","","","","feedback trial","",""
"html-button-response-esp","21","129252","0.0-11.0-0.5","1002","Te bizony sokat lihadzol. Én is sokat...","1","lihadzok","[""lihadzom"",""lihadzok""]","lihadzok","esp trial","9","true"
"html-button-response","22","132771","0.0-11.0-1.5","null","<p>A másik játékos ezt választotta: <b>lihadzok</b>.</p><p>&#x2705;</p><p>A te válaszod és a másik játékos válasza <b>megegyeznek</b>.</p>","null","","","","feedback trial","",""
"html-button-response-esp","23","138778","0.0-11.0-0.6","697","Te bizony sokat gyibakszol. Én is sokat...","0","gyibakszok","[""gyibakszok"",""gyibakszom""]","gyibakszom","esp trial","9","false"
"html-button-response","24","142288","0.0-11.0-1.6","null","<p>A másik játékos ezt választotta: <b>gyibakszom</b>.</p><p>&#10060;</p><p>A válaszaitok <b>nem</b> egyeznek meg.</p>","null","","","","feedback trial","",""
"html-button-response-esp","25","148300","0.0-11.0-0.7","805","Te bizony sokat fliraklasz. Én is sokat...","1","fliraklok","[""fliraklom"",""fliraklok""]","fliraklok","esp trial","9","true"
"html-button-response","26","151816","0.0-11.0-1.7","null","<p>A másik játékos ezt választotta: <b>fliraklok</b>.</p><p>&#x2705;</p><p>A te válaszod és a másik játékos válasza <b>megegyeznek</b>.</p>","null","","","","feedback trial","",""
"html-button-response-esp","27","157836","0.0-11.0-0.8","1129","Te bizony sokat plövőrzöl. Én is sokat...","0","plövőrzöm","[""plövőrzöm"",""plövőrzök""]","plövőrzök","esp trial","9","false"
"html-button-response","28","161348","0.0-11.0-1.8","null","<p>A másik játékos ezt választotta: <b>plövőrzök</b>.</p><p>&#10060;</p><p>A válaszaitok <b>nem</b> egyeznek meg.</p>","null","","","","feedback trial","",""
"html-button-response-esp","29","168634","0.0-11.0-0.9","6774","Te bizony sokat spírzol. Én is sokat...","1","spírzok","[""spírzom"",""spírzok""]","spírzok","esp trial","9","true"
"html-button-response","30","172149","0.0-11.0-1.9","null","<p>A másik játékos ezt választotta: <b>spírzok</b>.</p><p>&#x2705;</p><p>A te válaszod és a másik játékos válasza <b>megegyeznek</b>.</p>","null","","","","feedback trial","",""
"html-button-response-esp","31","178163","0.0-11.0-0.10","1393","Te bizony sokat gilárzol. Én is sokat...","0","gilárzom","[""gilárzom"",""gilárzok""]","gilárzom","esp trial","9","true"
"html-button-response","32","181674","0.0-11.0-1.10","null","<p>A másik játékos ezt választotta: <b>gilárzom</b>.</p><p>&#x2705;</p><p>A te válaszod és a másik játékos válasza <b>megegyeznek</b>.</p>","null","","","","feedback trial","",""
"html-button-response-esp","33","187684","0.0-11.0-0.11","601","Te bizony sokat trihagzol. Én is sokat...","1","trihagzom","[""trihagzok"",""trihagzom""]","trihagzom","esp trial","9","true"
"html-button-response","34","191203","0.0-11.0-1.11","null","<p>A másik játékos ezt választotta: <b>trihagzom</b>.</p><p>&#x2705;</p><p>A te válaszod és a másik játékos válasza <b>megegyeznek</b>.</p>","null","","","","feedback trial","",""
"html-button-response-esp","35","197209","0.0-11.0-0.12","1294","Te bizony sokat zödlesz. Én is sokat...","1","zödlök","[""zödlöm"",""zödlök""]","zödlök","esp trial","9","true"
"html-button-response","36","200721","0.0-11.0-1.12","null","<p>A másik játékos ezt választotta: <b>zödlök</b>.</p><p>&#x2705;</p><p>A te válaszod és a másik játékos válasza <b>megegyeznek</b>.</p>","null","","","","feedback trial","",""
"html-button-response-esp","37","206728","0.0-11.0-0.13","863","Te bizony sokat kumlasz. Én is sokat...","0","kumlok","[""kumlok"",""kumlom""]","kumlok","esp trial","9","true"
"html-button-response","38","210241","0.0-11.0-1.13","null","<p>A másik játékos ezt választotta: <b>kumlok</b>.</p><p>&#x2705;</p><p>A te válaszod és a másik játékos válasza <b>megegyeznek</b>.</p>","null","","","","feedback trial","",""
"html-button-response-esp","39","217419","0.0-11.0-0.14","6674","Te bizony sokat plágadzol. Én is sokat...","1","plágadzom","[""plágadzok"",""plágadzom""]","plágadzom","esp trial","9","true"
"html-button-response","40","220932","0.0-11.0-1.14","null","<p>A másik játékos ezt választotta: <b>plágadzom</b>.</p><p>&#x2705;</p><p>A te válaszod és a másik játékos válasza <b>megegyeznek</b>.</p>","null","","","","feedback trial","",""
"html-button-response-esp","41","226940","0.0-11.0-0.15","3032","Te bizony sokat frivajlasz. Én is sokat...","0","frivajlom","[""frivajlom"",""frivajlok""]","frivajlok","esp trial","9","false"
"html-button-response","42","230456","0.0-11.0-1.15","null","<p>A másik játékos ezt választotta: <b>frivajlok</b>.</p><p>&#10060;</p><p>A válaszaitok <b>nem</b> egyeznek meg.</p>","null","","","","feedback trial","",""
"html-button-response-esp","43","236477","0.0-11.0-0.16","1626","Te bizony sokat ibáglasz. Én is sokat...","1","ibáglok","[""ibáglom"",""ibáglok""]","ibáglok","esp trial","9","true"
"html-button-response","44","239992","0.0-11.0-1.16","null","<p>A másik játékos ezt választotta: <b>ibáglok</b>.</p><p>&#x2705;</p><p>A te válaszod és a másik játékos válasza <b>megegyeznek</b>.</p>","null","","","","feedback trial","",""
"html-button-response-esp","45","246008","0.0-11.0-0.17","1694","Te bizony sokat gyivádzol. Én is sokat...","1","gyivádzok","[""gyivádzom"",""gyivádzok""]","gyivádzom","esp trial","9","false"
"html-button-response","46","249525","0.0-11.0-1.17","null","<p>A másik játékos ezt választotta: <b>gyivádzom</b>.</p><p>&#10060;</p><p>A válaszaitok <b>nem</b> egyeznek meg.</p>","null","","","","feedback trial","",""
"html-button-response-esp","47","255541","0.0-11.0-0.18","2813","Te bizony sokat aglasz. Én is sokat...","0","aglok","[""aglok"",""aglom""]","aglok","esp trial","9","true"
"html-button-response","48","259061","0.0-11.0-1.18","null","<p>A másik játékos ezt választotta: <b>aglok</b>.</p><p>&#x2705;</p><p>A te válaszod és a másik játékos válasza <b>megegyeznek</b>.</p>","null","","","","feedback trial","",""
"html-button-response-esp","49","265077","0.0-11.0-0.19","3627","Te bizony sokat féjzel. Én is sokat...","0","féjzek","[""féjzek"",""féjzem""]","féjzek","esp trial","9","true"
"html-button-response","50","268597","0.0-11.0-1.19","null","<p>A másik játékos ezt választotta: <b>féjzek</b>.</p><p>&#x2705;</p><p>A te válaszod és a másik játékos válasza <b>megegyeznek</b>.</p>","null","","","","feedback trial","",""
"html-button-response-esp","51","274616","0.0-11.0-0.20","2028","Te bizony sokat spülőrzöl. Én is sokat...","0","spülőrzöm","[""spülőrzöm"",""spülőrzök""]","spülőrzök","esp trial","9","false"
"html-button-response","52","278133","0.0-11.0-1.20","null","<p>A másik játékos ezt választotta: <b>spülőrzök</b>.</p><p>&#10060;</p><p>A válaszaitok <b>nem</b> egyeznek meg.</p>","null","","","","feedback trial","",""
"html-button-response-esp","53","284147","0.0-11.0-0.21","938","Te bizony sokat pugoslasz. Én is sokat...","1","pugoslok","[""pugoslom"",""pugoslok""]","pugoslok","esp trial","9","true"
"html-button-response","54","287661","0.0-11.0-1.21","null","<p>A másik játékos ezt választotta: <b>pugoslok</b>.</p><p>&#x2705;</p><p>A te válaszod és a másik játékos válasza <b>megegyeznek</b>.</p>","null","","","","feedback trial","",""
"html-button-response-esp","55","294169","0.0-11.0-0.22","5996","Te bizony sokat fivénylesz. Én is sokat...","1","fivénylem","[""fivénylek"",""fivénylem""]","fivénylek","esp trial","9","false"
"html-button-response","56","297683","0.0-11.0-1.22","null","<p>A másik játékos ezt választotta: <b>fivénylek</b>.</p><p>&#10060;</p><p>A válaszaitok <b>nem</b> egyeznek meg.</p>","null","","","","feedback trial","",""
"html-button-response-esp","57","303699","0.0-11.0-0.23","901","Te bizony sokat spülöklesz. Én is sokat...","1","spülöklöm","[""spülöklök"",""spülöklöm""]","spülöklök","esp trial","9","false"
"html-button-response","58","307217","0.0-11.0-1.23","null","<p>A másik játékos ezt választotta: <b>spülöklök</b>.</p><p>&#10060;</p><p>A válaszaitok <b>nem</b> egyeznek meg.</p>","null","","","","feedback trial","",""
"html-button-response-esp","59","313228","0.0-11.0-0.24","876","Te bizony sokat huklasz. Én is sokat...","0","huklok","[""huklok"",""huklom""]","huklok","esp trial","9","true"
"html-button-response","60","316748","0.0-11.0-1.24","null","<p>A másik játékos ezt választotta: <b>huklok</b>.</p><p>&#x2705;</p><p>A te válaszod és a másik játékos válasza <b>megegyeznek</b>.</p>","null","","","","feedback trial","",""
"html-button-response-esp","61","322772","0.0-11.0-0.25","1411","Te bizony sokat prohódzol. Én is sokat...","1","prohódzom","[""prohódzok"",""prohódzom""]","prohódzom","esp trial","9","true"
"html-button-response","62","326288","0.0-11.0-1.25","null","<p>A másik játékos ezt választotta: <b>prohódzom</b>.</p><p>&#x2705;</p><p>A te válaszod és a másik játékos válasza <b>megegyeznek</b>.</p>","null","","","","feedback trial","",""
"html-button-response-esp","63","332308","0.0-11.0-0.26","1347","Te bizony sokat drügzöl. Én is sokat...","0","drügzöm","[""drügzöm"",""drügzök""]","drügzök","esp trial","9","false"
"html-button-response","64","335825","0.0-11.0-1.26","null","<p>A másik játékos ezt választotta: <b>drügzök</b>.</p><p>&#10060;</p><p>A válaszaitok <b>nem</b> egyeznek meg.</p>","null","","","","feedback trial","",""
"html-button-response-esp","65","341836","0.0-11.0-0.27","1314","Te bizony sokat spélszel. Én is sokat...","1","spélszek","[""spélszem"",""spélszek""]","spélszek","esp trial","9","true"
"html-button-response","66","345356","0.0-11.0-1.27","null","<p>A másik játékos ezt választotta: <b>spélszek</b>.</p><p>&#x2705;</p><p>A te válaszod és a másik játékos válasza <b>megegyeznek</b>.</p>","null","","","","feedback trial","",""
"html-button-response-esp","67","351369","0.0-11.0-0.28","1453","Te bizony sokat prihekszel. Én is sokat...","1","prihekszek","[""prihekszem"",""prihekszek""]","prihekszek","esp trial","9","true"
"html-button-response","68","354881","0.0-11.0-1.28","null","<p>A másik játékos ezt választotta: <b>prihekszek</b>.</p><p>&#x2705;</p><p>A te válaszod és a másik játékos válasza <b>megegyeznek</b>.</p>","null","","","","feedback trial","",""
"html-button-response-esp","69","365758","0.0-11.0-0.29","10370","Te bizony sokat gerénylesz. Én is sokat...","1","gerénylek","[""gerénylem"",""gerénylek""]","gerénylek","esp trial","9","true"
"html-button-response","70","369276","0.0-11.0-1.29","null","<p>A másik játékos ezt választotta: <b>gerénylek</b>.</p><p>&#x2705;</p><p>A te válaszod és a másik játékos válasza <b>megegyeznek</b>.</p>","null","","","","feedback trial","",""
"html-button-response-esp","71","375289","0.0-11.0-0.30","830","Te bizony sokat floglasz. Én is sokat...","1","floglok","[""floglom"",""floglok""]","floglok","esp trial","9","true"
"html-button-response","72","378802","0.0-11.0-1.30","null","<p>A másik játékos ezt választotta: <b>floglok</b>.</p><p>&#x2705;</p><p>A te válaszod és a másik játékos válasza <b>megegyeznek</b>.</p>","null","","","","feedback trial","",""
"html-button-response-esp","73","384815","0.0-11.0-0.31","766","Te bizony sokat spüszlesz. Én is sokat...","0","spüszlök","[""spüszlök"",""spüszlöm""]","spüszlök","esp trial","9","true"
"html-button-response","74","388332","0.0-11.0-1.31","null","<p>A másik játékos ezt választotta: <b>spüszlök</b>.</p><p>&#x2705;</p><p>A te válaszod és a másik játékos válasza <b>megegyeznek</b>.</p>","null","","","","feedback trial","",""
"html-button-response-esp","75","394345","0.0-11.0-0.32","4610","Te bizony sokat vihepszel. Én is sokat...","0","vihepszek","[""vihepszek"",""vihepszem""]","vihepszem","esp trial","9","false"
"html-button-response","76","397860","0.0-11.0-1.32","null","<p>A másik játékos ezt választotta: <b>vihepszem</b>.</p><p>&#10060;</p><p>A válaszaitok <b>nem</b> egyeznek meg.</p>","null","","","","feedback trial","",""
"html-button-response-esp","77","403881","0.0-11.0-0.33","1092","Te bizony sokat szűslesz. Én is sokat...","0","szűslöm","[""szűslöm"",""szűslök""]","szűslök","esp trial","9","false"
"html-button-response","78","407395","0.0-11.0-1.33","null","<p>A másik játékos ezt választotta: <b>szűslök</b>.</p><p>&#10060;</p><p>A válaszaitok <b>nem</b> egyeznek meg.</p>","null","","","","feedback trial","",""
"html-button-response-esp","79","413408","0.0-11.0-0.34","1306","Te bizony sokat csólorzol. Én is sokat...","1","csólorzom","[""csólorzok"",""csólorzom""]","csólorzom","esp trial","9","true"
"html-button-response","80","416924","0.0-11.0-1.34","null","<p>A másik játékos ezt választotta: <b>csólorzom</b>.</p><p>&#x2705;</p><p>A te válaszod és a másik játékos válasza <b>megegyeznek</b>.</p>","null","","","","feedback trial","",""
"html-button-response-esp","81","422936","0.0-11.0-0.35","2794","Te bizony sokat friszlasz. Én is sokat...","1","friszlom","[""friszlok"",""friszlom""]","friszlok","esp trial","9","false"
"html-button-response","82","426447","0.0-11.0-1.35","null","<p>A másik játékos ezt választotta: <b>friszlok</b>.</p><p>&#10060;</p><p>A válaszaitok <b>nem</b> egyeznek meg.</p>","null","","","","feedback trial","",""
"html-button-response-esp","83","432468","0.0-11.0-0.36","1078","Te bizony sokat prezlesz. Én is sokat...","0","prezlek","[""prezlek"",""prezlem""]","prezlek","esp trial","9","true"
"html-button-response","84","435988","0.0-11.0-1.36","null","<p>A másik játékos ezt választotta: <b>prezlek</b>.</p><p>&#x2705;</p><p>A te válaszod és a másik játékos válasza <b>megegyeznek</b>.</p>","null","","","","feedback trial","",""
"html-button-response-esp","85","442012","0.0-11.0-0.37","448","Te bizony sokat spatszol. Én is sokat...","1","spatszok","[""spatszom"",""spatszok""]","spatszom","esp trial","9","false"
"html-button-response","86","445528","0.0-11.0-1.37","null","<p>A másik játékos ezt választotta: <b>spatszom</b>.</p><p>&#10060;</p><p>A válaszaitok <b>nem</b> egyeznek meg.</p>","null","","","","feedback trial","",""
"html-button-response-esp","87","451548","0.0-11.0-0.38","1336","Te bizony sokat táklasz. Én is sokat...","0","táklom","[""táklom"",""táklok""]","táklom","esp trial","9","true"
"html-button-response","88","455068","0.0-11.0-1.38","null","<p>A másik játékos ezt választotta: <b>táklom</b>.</p><p>&#x2705;</p><p>A te válaszod és a másik játékos válasza <b>megegyeznek</b>.</p>","null","","","","feedback trial","",""
"html-button-response-esp","89","461087","0.0-11.0-0.39","901","Te bizony sokat tuboklasz. Én is sokat...","1","tuboklom","[""tuboklok"",""tuboklom""]","tuboklok","esp trial","9","false"
"html-button-response","90","464602","0.0-11.0-1.39","null","<p>A másik játékos ezt választotta: <b>tuboklok</b>.</p><p>&#10060;</p><p>A válaszaitok <b>nem</b> egyeznek meg.</p>","null","","","","feedback trial","",""
"html-button-response-esp","91","470619","0.0-11.0-0.40","1541","Te bizony sokat livaklasz. Én is sokat...","1","livaklok","[""livaklom"",""livaklok""]","livaklom","esp trial","9","false"
"html-button-response","92","474137","0.0-11.0-1.40","null","<p>A másik játékos ezt választotta: <b>livaklom</b>.</p><p>&#10060;</p><p>A válaszaitok <b>nem</b> egyeznek meg.</p>","null","","","","feedback trial","",""
"html-button-response-esp","93","480152","0.0-11.0-0.41","1059","Te bizony sokat klidlasz. Én is sokat...","1","klidlom","[""klidlok"",""klidlom""]","klidlok","esp trial","9","false"
"html-button-response","94","483663","0.0-11.0-1.41","null","<p>A másik játékos ezt választotta: <b>klidlok</b>.</p><p>&#10060;</p><p>A válaszaitok <b>nem</b> egyeznek meg.</p>","null","","","","feedback trial","",""
"html-button-response-esp","95","489673","0.0-11.0-0.42","563","Te bizony sokat vűjlesz. Én is sokat...","0","vűjlök","[""vűjlök"",""vűjlöm""]","vűjlök","esp trial","9","true"
"html-button-response","96","493183","0.0-11.0-1.42","null","<p>A másik játékos ezt választotta: <b>vűjlök</b>.</p><p>&#x2705;</p><p>A te válaszod és a másik játékos válasza <b>megegyeznek</b>.</p>","null","","","","feedback trial","",""
"html-button-response-esp","97","499195","0.0-11.0-0.43","756","Te bizony sokat flözlesz. Én is sokat...","1","flözlöm","[""flözlök"",""flözlöm""]","flözlök","esp trial","9","false"
"html-button-response","98","502711","0.0-11.0-1.43","null","<p>A másik játékos ezt választotta: <b>flözlök</b>.</p><p>&#10060;</p><p>A válaszaitok <b>nem</b> egyeznek meg.</p>","null","","","","feedback trial","",""
"html-button-response-esp","99","508732","0.0-11.0-0.44","2421","Te bizony sokat péleslesz. Én is sokat...","1","péleslek","[""péleslem"",""péleslek""]","péleslek","esp trial","9","true"
"html-button-response","100","512250","0.0-11.0-1.44","null","<p>A másik játékos ezt választotta: <b>péleslek</b>.</p><p>&#x2705;</p><p>A te válaszod és a másik játékos válasza <b>megegyeznek</b>.</p>","null","","","","feedback trial","",""
"html-button-response-esp","101","519547","0.0-11.0-0.45","6795","Te bizony sokat frágapszol. Én is sokat...","1","frágapszok","[""frágapszom"",""frágapszok""]","frágapszom","esp trial","9","false"
"html-button-response","102","523068","0.0-11.0-1.45","null","<p>A másik játékos ezt választotta: <b>frágapszom</b>.</p><p>&#10060;</p><p>A válaszaitok <b>nem</b> egyeznek meg.</p>","null","","","","feedback trial","",""
"html-button-response-esp","103","529079","0.0-11.0-0.46","1952","Te bizony sokat préleglesz. Én is sokat...","0","préleglek","[""préleglek"",""préleglem""]","préleglek","esp trial","9","true"
"html-button-response","104","532593","0.0-11.0-1.46","null","<p>A másik játékos ezt választotta: <b>préleglek</b>.</p><p>&#x2705;</p><p>A te válaszod és a másik játékos válasza <b>megegyeznek</b>.</p>","null","","","","feedback trial","",""
"html-button-response-esp","105","538600","0.0-11.0-0.47","1012","Te bizony sokat praslasz. Én is sokat...","1","praslok","[""praslom"",""praslok""]","praslok","esp trial","9","true"
"html-button-response","106","542114","0.0-11.0-1.47","null","<p>A másik játékos ezt választotta: <b>praslok</b>.</p><p>&#x2705;</p><p>A te válaszod és a másik játékos válasza <b>megegyeznek</b>.</p>","null","","","","feedback trial","",""
"html-button-response-esp","107","548787","0.0-11.0-0.48","6165","Te bizony sokat brarlasz. Én is sokat...","0","brarlom","[""brarlom"",""brarlok""]","brarlok","esp trial","9","false"
"html-button-response","108","552296","0.0-11.0-1.48","null","<p>A másik játékos ezt választotta: <b>brarlok</b>.</p><p>&#10060;</p><p>A válaszaitok <b>nem</b> egyeznek meg.</p>","null","","","","feedback trial","",""
"html-button-response-esp","109","558311","0.0-11.0-0.49","1309","Te bizony sokat sprálszol. Én is sokat...","1","sprálszok","[""sprálszom"",""sprálszok""]","sprálszom","esp trial","9","false"
"html-button-response","110","561822","0.0-11.0-1.49","null","<p>A másik játékos ezt választotta: <b>sprálszom</b>.</p><p>&#10060;</p><p>A válaszaitok <b>nem</b> egyeznek meg.</p>","null","","","","feedback trial","",""
"html-button-response-esp","111","567831","0.0-11.0-0.50","1182","Te bizony sokat flérlesz. Én is sokat...","1","flérlek","[""flérlem"",""flérlek""]","flérlek","esp trial","9","true"
"html-button-response","112","571347","0.0-11.0-1.50","null","<p>A másik játékos ezt választotta: <b>flérlek</b>.</p><p>&#x2705;</p><p>A te válaszod és a másik játékos válasza <b>megegyeznek</b>.</p>","null","","","","feedback trial","",""
"html-button-response-esp","113","577367","0.0-11.0-0.51","887","Te bizony sokat klárzol. Én is sokat...","1","klárzom","[""klárzok"",""klárzom""]","klárzok","esp trial","9","false"
"html-button-response","114","580882","0.0-11.0-1.51","null","<p>A másik játékos ezt választotta: <b>klárzok</b>.</p><p>&#10060;</p><p>A válaszaitok <b>nem</b> egyeznek meg.</p>","null","","","","feedback trial","",""
"html-button-response-esp","115","586903","0.0-11.0-0.52","837","Te bizony sokat spibádzol. Én is sokat...","0","spibádzok","[""spibádzok"",""spibádzom""]","spibádzok","esp trial","9","true"
"html-button-response","116","590418","0.0-11.0-1.52","null","<p>A másik játékos ezt választotta: <b>spibádzok</b>.</p><p>&#x2705;</p><p>A te válaszod és a másik játékos válasza <b>megegyeznek</b>.</p>","null","","","","feedback trial","",""
"html-button-response-esp","117","596443","0.0-11.0-0.53","845","Te bizony sokat bivejlesz. Én is sokat...","0","bivejlek","[""bivejlek"",""bivejlem""]","bivejlek","esp trial","9","true"
"html-button-response","118","599958","0.0-11.0-1.53","null","<p>A másik játékos ezt választotta: <b>bivejlek</b>.</p><p>&#x2705;</p><p>A te válaszod és a másik játékos válasza <b>megegyeznek</b>.</p>","null","","","","feedback trial","",""
"html-button-response","119","605444","0.0-12.0","4981","<p>A közös játék most véget ért.</p><p>Mielőtt eláruljuk a végső pontszámodat, arra kérlek, játszd a szóválasztós játékot néhány percig egyedül is.</p><p>A feladatod ugyanaz lesz, választani két lehetőség közül.</p><p>Most viszont egyedül kell döntened, hogy te melyiket választanád.</p>","0","","","","","",""
"html-button-response-clever","120","606998","0.0-13.0-0.0","1043","Te bizony sokat pratánylasz. Én is sokat...","0","pratánylok","[""pratánylok"",""pratánylom""]","","posttest trial","1",""
"html-button-response-clever","121","607672","0.0-13.0-0.1","169","Te bizony sokat pivegszel. Én is sokat...","0","pivegszem","[""pivegszem"",""pivegszek""]","","posttest trial","1",""
"html-button-response-clever","122","608374","0.0-13.0-0.2","200","Te bizony sokat bölszöl. Én is sokat...","0","bölszök","[""bölszök"",""bölszöm""]","","posttest trial","1",""
"html-button-response-clever","123","608959","0.0-13.0-0.3","80","Te bizony sokat spéslesz. Én is sokat...","0","spéslem","[""spéslem"",""spéslek""]","","posttest trial","1",""
"html-button-response-clever","124","609881","0.0-13.0-0.4","415","Te bizony sokat brágaklasz. Én is sokat...","0","brágaklom","[""brágaklom"",""brágaklok""]","","posttest trial","1",""
"html-button-response-clever","125","610752","0.0-13.0-0.5","369","Te bizony sokat tiregzel. Én is sokat...","0","tiregzem","[""tiregzem"",""tiregzek""]","","posttest trial","1",""
"html-button-response-clever","126","611639","0.0-13.0-0.6","381","Te bizony sokat szirlasz. Én is sokat...","0","szirlom","[""szirlom"",""szirlok""]","","posttest trial","1",""
"html-button-response-clever","127","612496","0.0-13.0-0.7","350","Te bizony sokat sűzlesz. Én is sokat...","0","sűzlök","[""sűzlök"",""sűzlöm""]","","posttest trial","1",""
"html-button-response-clever","128","613285","0.0-13.0-0.8","285","Te bizony sokat drubódzol. Én is sokat...","0","drubódzom","[""drubódzom"",""drubódzok""]","","posttest trial","1",""
"html-button-response-clever","129","614156","0.0-13.0-0.9","360","Te bizony sokat piragszol. Én is sokat...","0","piragszok","[""piragszok"",""piragszom""]","","posttest trial","1",""
"html-button-response-clever","130","615412","0.0-13.0-0.10","750","Te bizony sokat ribegzel. Én is sokat...","0","ribegzek","[""ribegzek"",""ribegzem""]","","posttest trial","1",""
"html-button-response-clever","131","616255","0.0-13.0-0.11","335","Te bizony sokat siladzol. Én is sokat...","0","siladzom","[""siladzom"",""siladzok""]","","posttest trial","1",""
"html-button-response-clever","132","616910","0.0-13.0-0.12","149","Te bizony sokat pebzel. Én is sokat...","0","pebzek","[""pebzek"",""pebzem""]","","posttest trial","1",""
"html-button-response-clever","133","617864","0.0-13.0-0.13","449","Te bizony sokat spilágzol. Én is sokat...","0","spilágzom","[""spilágzom"",""spilágzok""]","","posttest trial","1",""
"html-button-response-clever","134","618786","0.0-13.0-0.14","416","Te bizony sokat sprogzol. Én is sokat...","0","sprogzom","[""sprogzom"",""sprogzok""]","","posttest trial","1",""
"html-button-response-clever","135","619708","0.0-13.0-0.15","417","Te bizony sokat tomlasz. Én is sokat...","0","tomlom","[""tomlom"",""tomlok""]","","posttest trial","1",""
"html-button-response-clever","136","620581","0.0-13.0-0.16","365","Te bizony sokat fretszel. Én is sokat...","0","fretszem","[""fretszem"",""fretszek""]","","posttest trial","1",""
"html-button-response-clever","137","621535","0.0-13.0-0.17","443","Te bizony sokat sojzol. Én is sokat...","0","sojzom","[""sojzom"",""sojzok""]","","posttest trial","1",""
"html-button-response-clever","138","622426","0.0-13.0-0.18","382","Te bizony sokat femlesz. Én is sokat...","0","femlem","[""femlem"",""femlek""]","","posttest trial","1",""
"html-button-response-clever","139","623371","0.0-13.0-0.19","440","Te bizony sokat böjzöl. Én is sokat...","0","böjzöm","[""böjzöm"",""böjzök""]","","posttest trial","1",""
"html-button-response-clever","140","624244","0.0-13.0-0.20","364","Te bizony sokat prűrlesz. Én is sokat...","0","prűrlöm","[""prűrlöm"",""prűrlök""]","","posttest trial","1",""
"html-button-response-clever","141","625135","0.0-13.0-0.21","380","Te bizony sokat trilszol. Én is sokat...","0","trilszok","[""trilszok"",""trilszom""]","","posttest trial","1",""
"html-button-response-clever","142","626025","0.0-13.0-0.22","385","Te bizony sokat jüslesz. Én is sokat...","0","jüslök","[""jüslök"",""jüslöm""]","","posttest trial","1",""
"html-button-response-clever","143","626933","0.0-13.0-0.23","405","Te bizony sokat málapszol. Én is sokat...","0","málapszom","[""málapszom"",""málapszok""]","","posttest trial","1",""
"html-button-response-clever","144","627872","0.0-13.0-0.24","429","Te bizony sokat hilarzol. Én is sokat...","0","hilarzom","[""hilarzom"",""hilarzok""]","","posttest trial","1",""
"html-button-response-clever","145","628799","0.0-13.0-0.25","420","Te bizony sokat nyáslasz. Én is sokat...","0","nyáslok","[""nyáslok"",""nyáslom""]","","posttest trial","1",""
"html-button-response-clever","146","629721","0.0-13.0-0.26","414","Te bizony sokat feténylesz. Én is sokat...","0","feténylem","[""feténylem"",""feténylek""]","","posttest trial","1",""
"html-button-response-clever","147","630676","0.0-13.0-0.27","451","Te bizony sokat büglesz. Én is sokat...","0","büglök","[""büglök"",""büglöm""]","","posttest trial","1",""
"html-button-response-clever","148","631646","0.0-13.0-0.28","462","Te bizony sokat ruslasz. Én is sokat...","0","ruslom","[""ruslom"",""ruslok""]","","posttest trial","1",""
"html-button-response-clever","149","632556","0.0-13.0-0.29","404","Te bizony sokat herégszel. Én is sokat...","0","herégszem","[""herégszem"",""herégszek""]","","posttest trial","1",""
"html-button-response-clever","150","633509","0.0-13.0-0.30","446","Te bizony sokat narjárzol. Én is sokat...","0","narjárzom","[""narjárzom"",""narjárzok""]","","posttest trial","1",""
"html-button-response-clever","151","634501","0.0-13.0-0.31","486","Te bizony sokat lorjódzol. Én is sokat...","0","lorjódzok","[""lorjódzok"",""lorjódzom""]","","posttest trial","1",""
"html-button-response-clever","152","635406","0.0-13.0-0.32","395","Te bizony sokat sprökszöl. Én is sokat...","0","sprökszöm","[""sprökszöm"",""sprökszök""]","","posttest trial","1",""
"html-button-response-clever","153","636349","0.0-13.0-0.33","437","Te bizony sokat csíszlasz. Én is sokat...","0","csíszlok","[""csíszlok"",""csíszlom""]","","posttest trial","1",""
"html-button-response-clever","154","637270","0.0-13.0-0.34","414","Te bizony sokat brüjlesz. Én is sokat...","0","brüjlök","[""brüjlök"",""brüjlöm""]","","posttest trial","1",""
"html-button-response-clever","155","638162","0.0-13.0-0.35","386","Te bizony sokat flűröklesz. Én is sokat...","0","flűröklök","[""flűröklök"",""flűröklöm""]","","posttest trial","1",""
"html-button-response-clever","156","639053","0.0-13.0-0.36","379","Te bizony sokat vilakszol. Én is sokat...","0","vilakszok","[""vilakszok"",""vilakszom""]","","posttest trial","1",""
"html-button-response-clever","157","639963","0.0-13.0-0.37","405","Te bizony sokat klörlesz. Én is sokat...","0","klörlöm","[""klörlöm"",""klörlök""]","","posttest trial","1",""
"html-button-response-clever","158","640954","0.0-13.0-0.38","480","Te bizony sokat frilegszel. Én is sokat...","0","frilegszem","[""frilegszem"",""frilegszek""]","","posttest trial","1",""
"html-button-response-clever","159","641940","0.0-13.0-0.39","482","Te bizony sokat tínylasz. Én is sokat...","0","tínylom","[""tínylom"",""tínylok""]","","posttest trial","1",""
"html-button-response-clever","160","642948","0.0-13.0-0.40","500","Te bizony sokat klibamlasz. Én is sokat...","0","klibamlom","[""klibamlom"",""klibamlok""]","","posttest trial","1",""
"html-button-response-clever","161","643987","0.0-13.0-0.41","532","Te bizony sokat spibaklasz. Én is sokat...","0","spibaklom","[""spibaklom"",""spibaklok""]","","posttest trial","1",""
"html-button-response-clever","162","645011","0.0-13.0-0.42","514","Te bizony sokat fibamlasz. Én is sokat...","0","fibamlom","[""fibamlom"",""fibamlok""]","","posttest trial","1",""
"html-button-response-clever","163","645967","0.0-13.0-0.43","445","Te bizony sokat flagánylasz. Én is sokat...","0","flagánylom","[""flagánylom"",""flagánylok""]","","posttest trial","1",""
"html-button-response-clever","164","646892","0.0-13.0-0.44","417","Te bizony sokat spűmlesz. Én is sokat...","0","spűmlöm","[""spűmlöm"",""spűmlök""]","","posttest trial","1",""
"html-button-response-clever","165","647782","0.0-13.0-0.45","379","Te bizony sokat flüröslesz. Én is sokat...","0","flüröslöm","[""flüröslöm"",""flüröslök""]","","posttest trial","1",""
"html-button-response-clever","166","648706","0.0-13.0-0.46","422","Te bizony sokat marzol. Én is sokat...","0","marzom","[""marzom"",""marzok""]","","posttest trial","1",""
"html-button-response-clever","167","649826","0.0-13.0-0.47","606","Te bizony sokat driládzol. Én is sokat...","0","driládzok","[""driládzok"",""driládzom""]","","posttest trial","1",""
"html-button-response-clever","168","650769","0.0-13.0-0.48","438","Te bizony sokat juszlasz. Én is sokat...","0","juszlok","[""juszlok"",""juszlom""]","","posttest trial","1",""
"html-button-response-clever","169","651707","0.0-13.0-0.49","435","Te bizony sokat flagárzol. Én is sokat...","0","flagárzom","[""flagárzom"",""flagárzok""]","","posttest trial","1",""
"html-button-response-clever","170","652531","0.0-13.0-0.50","313","Te bizony sokat ribzol. Én is sokat...","0","ribzok","[""ribzok"",""ribzom""]","","posttest trial","1",""
"html-button-response-clever","171","653551","0.0-13.0-0.51","509","Te bizony sokat spatárzol. Én is sokat...","0","spatárzom","[""spatárzom"",""spatárzok""]","","posttest trial","1",""
"html-button-response-clever","172","654541","0.0-13.0-0.52","486","Te bizony sokat sztremlesz. Én is sokat...","0","sztremlek","[""sztremlek"",""sztremlem""]","","posttest trial","1",""
"html-button-response-clever","173","655499","0.0-13.0-0.53","451","Te bizony sokat prilegzel. Én is sokat...","0","prilegzek","[""prilegzek"",""prilegzem""]","","posttest trial","1",""
"html-button-response","174","660105","0.0-14.0","4097","<p> Vége a játéknak. A teljes pontszámod 32/54.</p><p> Szép munka! &#128526;&#128526;&#128526;</p><p>A Befejezés gomb megnyomása után bezárhatod a böngészőablakot.</p>","0","","","","","",""
"html-keyboard-response","175","665615","0.0-15.0","null","<div class=""message"">
         <p>Egy kis türelmet kérünk, amíg elmentjük az adatokat...</p>
         </div>","null","","","","","",""
