"trial_type","trial_index","time_elapsed","internal_node_id","rt","stimulus","response","response_string","choices","esp_response","trial_kind","list_number","esp_match"
"pavlovia","0","1034","0.0-0.0","","","","","","","","",""
"html-button-response","1","20426","0.0-1.0","18865","<p>Kedves Résztvevő! A Budapesti Műszaki és Gazdaságtudományi Egyetem Kognitív Tudományi Tanszékének kutatásában való részvételed kérjük. A kutatásban azt vizsgáljuk, hogy a magyar anyanyelvűek hogyan használnak bizonyos szóalakokat, és hogy milyen képük van arról, hogy mások hogyan használják, hogyan képzik a szavakat. Ez hozzásegít bennünket ahhoz, hogy jobban megértsük, hogyan dolgozza fel és tárolja a nyelvet az emberi agy, és hogyan működnek, hogyan változnak egy adott közösség nyelvi konvenciói.</p><p>A vizsgálat egy rövid számítógépes feladatból fog állni. A kutatásban való részvétel önkéntes, a részvételi szándék bármikor visszavonható. A résztvevők eredményeit név nélkül kezeljük, így nem beazonosíthatók az adatok feldolgozása során. Minden személyes adatot az EU általános adatvédelmi rendeletének (GDPR) megfelelően kezelünk és legfeljebb öt éven belül megsemmisítünk. A vizsgálat jellemzően húsz percet vesz igénybe.</p><p>Kutatásvezető:</p><p>Dr. Rácz Péter, tudományos munkatárs, BME KTT</p><p>e-mail: racz.peter.marton@ttk.bme.hu</p>","0","","","","","",""
"html-button-response","2","65017","0.0-2.0","44087","<p>A kísérletben szavakat fogsz látni. Ezek között lesznek olyanok, amelyeket ismersz, de előfordulhatnak olyanok is, amelyeket nem ismersz, sőt, vannak köztük kitalált szavak is. Minden szónál látni fogsz toldalékolt alakokat. A te feladatod az lesz, hogy minden szóhoz kiválaszd azt a toldalékolt alakot, amely a te számodra ismerősebben, természetesebben hangzik. Rossz válaszok nincsenek, mert van olyan, hogy különböző embereknek más és más szó tűnik jobb választásnak. A választ úgy tudod majd kiválasztani, ha rákattintasz.</p><p>Ebben a szóválasztós játékban egy másik játékossal együtt veszel majd részt. A másik játékos is minden esetben azok közül a lehetőségek közül válogathat, mint te. Kettőtök feladata az, hogy ugyanazt a lehetőséget válasszátok minden esetben. Ahhoz, hogy ez sikerüljön, neked figyelned kell arra, hogy a másik játékos milyen válaszokat ad, és ennek alapján meg kell tippelned, hogyan választ legközelebb. Ha eltalálod, akkor pontot kapsz.</p>","0","","","","","",""
"html-button-response","3","73095","0.0-3.0","7566","<p>Kérjük, olvasd el az alábbi nyilatkozatot, és amennyiben egyetértesz vele, nyomj a Beleegyezés gombra!</p><p>Kijelentem, hogy magyar anyanyelvű személyként önként veszek részt a BME KTT kísérletében. A kutatás céljával és folyamatával kapcsolatban elegendő tájékoztatást kaptam, lehetőségem volt kérdések feltételére, és esetleges kérdéseimre megfelelő válaszokat kaptam. A tájékoztatás alapján elegendő mennyiségű információ áll a rendelkezésemre, hogy eldönthessem, részt kívánok-e venni a kutatásban.</p><p>Tisztában vagyok vele, hogy részvételi szándékomat és adataimat bármikor, indoklás nélkül visszavonhatom.</p><p>Értem és tudomásul veszem, hogy a kutatás tudományos célokat szolgál, és az általam szolgáltatott adatokat a BME kizárólag kutatási célból használja fel. Tudomásul veszem, hogy eredményeimet a többi résztvevő eredményeivel együtt kezelik, így egyéni teljesítményemről visszajelzést, szakvéleményt nem kapok.</p><p>Megértettem, hogy adataim kezelését illetően a BME az EU általános adatvédelmi rendelete (GDPR), a hatályos adatvédelmi törvény és a nemzetközi kutatás-etikai alapelvek szerint jár el. Eredményeim anonim módon kerülnek feldolgozásra, és a kutatás résztvevői az azonosításomra alkalmas adataimat harmadik félnek nem szolgáltatják ki. Engedélyezem a BME számára a jelen kutatásban felvett adataim feldolgozását és tárolását, beleértve azok későbbi kutatásokhoz való felhasználását is. Személyes adataim kezelésével kapcsolatban tájékoztatást kérhetek a kutatás résztvevőitől, az adatkezelés ellen tiltakozhatok, kérhetem személyes adataim helyesbítését, törlését vagy zárolását, valamint jogorvoslatért a Nemzeti Adatvédelmi és Információszabadság Hatósághoz fordulhatok.</p><p>Kijelentem, hogy a kutatásban való részvételem körülményeiről részletes tájékoztatást kaptam, és a feltételeket elfogadom.</p>","0","","","","","",""
"survey-text","4","181536","0.0-4.0","107909","","{""Q0"":""JK0MDQ"",""Q1"":"""",""Q2"":""1999"",""Q3"":""16""}","","","","","",""
"html-button-response","5","207542","0.0-5.0","25498","<p>Ebben a játékban szavakat kell toldalékolni.</p> <p>Minden körben mutatunk majd egy példamondatot, amiben lesz egy szó.</p> <p>Alatta jön egy második mondat, ezt a mondatot neked kell majd befejezni, ugyanezzel a szóval.</p> <p>Nem biztos, hogy a szó eleve ismerős lesz számodra!</p> <p>Minden mondathoz adunk két lehetőséget, ezeket balra és jobbra látod majd.</p> <p>A játék kb. negyedóráig-húsz percig tart.</p>","0","","","","","",""
"html-button-response","6","218220","0.0-6.0","10163","<p>Nézzünk egy példát!</p> <p>A példamondat: ""János nagyon szeret rancsúrozni.""</p><p>Neked ezt a mondatot kell befejezned: ""Én is szívesen...""</p><p>A lehetőségek pedig ezek:</p>","0","","","","","",""
"html-button-response","7","225580","0.0-7.0","6838","<p>Nagyon jó.</p><p>Ezt a játékot nem egyedül fogod játszani, hanem egy másik játékossal.</p><p>Mielőtt továbblépünk, összekapcsolunk titeket egymással.</p><p>Ez igénybe vehet néhány másodpercet, amihez szíves türelmed kérjük.</p>","0","","","","","",""
"html-button-response","8","231330","0.0-8.0","null","<p>Csatlakozás a másik játékoshoz...</p>","null","","","","","",""
"html-button-response","9","233868","0.0-9.0","null","<p> Sikeres kapcsolódás!</p>","null","","","","","",""
"html-button-response","10","244400","0.0-10.0","null","<p>A következőkben ketten játsszátok a szóválasztós játékot.</p><p>A feladatotok az lesz, hogy minden körben <b>ugyanazt</b> a szót válasszátok.</p><p>Minden ilyen egyező válaszért pontot kaptok.</p><p>Próbáld meg kitalálni, mit választ a másik játékos!</p><p>Bármikor választhatsz, a körnek akkor van vége, ha mindketten döntöttetek.</p><p>Sok sikert!</p>","null","","","","","",""
"html-button-response-esp","11","253591","0.0-11.0-0.0","8675","Te bizony sokat spibádzol. Én is sokat...","0","spibádzom","[""spibádzom"",""spibádzok""]","spibádzom","esp trial","11","true"
"html-button-response","12","257118","0.0-11.0-1.0","null","<p>A másik játékos ezt választotta: <b>spibádzom</b>.</p><p>&#x2705;</p><p>A te válaszod és a másik játékos válasza <b>megegyeznek</b>.</p>","null","","","","feedback trial","",""
"html-button-response-esp","13","262081","0.0-11.0-0.1","4443","Te bizony sokat huklasz. Én is sokat...","1","huklom","[""huklok"",""huklom""]","huklom","esp trial","11","true"
"html-button-response","14","265605","0.0-11.0-1.1","null","<p>A másik játékos ezt választotta: <b>huklom</b>.</p><p>&#x2705;</p><p>A te válaszod és a másik játékos válasza <b>megegyeznek</b>.</p>","null","","","","feedback trial","",""
"html-button-response-esp","15","269754","0.0-11.0-0.2","3622","Te bizony sokat lihadzol. Én is sokat...","1","lihadzom","[""lihadzok"",""lihadzom""]","lihadzom","esp trial","11","true"
"html-button-response","16","273268","0.0-11.0-1.2","null","<p>A másik játékos ezt választotta: <b>lihadzom</b>.</p><p>&#x2705;</p><p>A te válaszod és a másik játékos válasza <b>megegyeznek</b>.</p>","null","","","","feedback trial","",""
"html-button-response-esp","17","278545","0.0-11.0-0.3","4758","Te bizony sokat spüszlesz. Én is sokat...","1","spüszlöm","[""spüszlök"",""spüszlöm""]","spüszlöm","esp trial","11","true"
"html-button-response","18","282076","0.0-11.0-1.3","null","<p>A másik játékos ezt választotta: <b>spüszlöm</b>.</p><p>&#x2705;</p><p>A te válaszod és a másik játékos válasza <b>megegyeznek</b>.</p>","null","","","","feedback trial","",""
"html-button-response-esp","19","288629","0.0-11.0-0.4","6031","Te bizony sokat sprálszol. Én is sokat...","0","sprálszom","[""sprálszom"",""sprálszok""]","sprálszom","esp trial","11","true"
"html-button-response","20","292160","0.0-11.0-1.4","null","<p>A másik játékos ezt választotta: <b>sprálszom</b>.</p><p>&#x2705;</p><p>A te válaszod és a másik játékos válasza <b>megegyeznek</b>.</p>","null","","","","feedback trial","",""
"html-button-response-esp","21","296381","0.0-11.0-0.5","3716","Te bizony sokat prihekszel. Én is sokat...","1","prihekszem","[""prihekszek"",""prihekszem""]","prihekszem","esp trial","11","true"
"html-button-response","22","299918","0.0-11.0-1.5","null","<p>A másik játékos ezt választotta: <b>prihekszem</b>.</p><p>&#x2705;</p><p>A te válaszod és a másik játékos válasza <b>megegyeznek</b>.</p>","null","","","","feedback trial","",""
"html-button-response-esp","23","304030","0.0-11.0-0.6","3597","Te bizony sokat pugoslasz. Én is sokat...","1","pugoslom","[""pugoslok"",""pugoslom""]","pugoslok","esp trial","11","false"
"html-button-response","24","307553","0.0-11.0-1.6","null","<p>A másik játékos ezt választotta: <b>pugoslok</b>.</p><p>&#10060;</p><p>A válaszaitok <b>nem</b> egyeznek meg.</p>","null","","","","feedback trial","",""
"html-button-response-esp","25","313136","0.0-11.0-0.7","5064","Te bizony sokat fligzol. Én is sokat...","0","fligzom","[""fligzom"",""fligzok""]","fligzom","esp trial","11","true"
"html-button-response","26","316663","0.0-11.0-1.7","null","<p>A másik játékos ezt választotta: <b>fligzom</b>.</p><p>&#x2705;</p><p>A te válaszod és a másik játékos válasza <b>megegyeznek</b>.</p>","null","","","","feedback trial","",""
"html-button-response-esp","27","320822","0.0-11.0-0.8","3646","Te bizony sokat plövőrzöl. Én is sokat...","0","plövőrzöm","[""plövőrzöm"",""plövőrzök""]","plövőrzöm","esp trial","11","true"
"html-button-response","28","324354","0.0-11.0-1.8","null","<p>A másik játékos ezt választotta: <b>plövőrzöm</b>.</p><p>&#x2705;</p><p>A te válaszod és a másik játékos válasza <b>megegyeznek</b>.</p>","null","","","","feedback trial","",""
"html-button-response-esp","29","328260","0.0-11.0-0.9","3388","Te bizony sokat prohódzol. Én is sokat...","0","prohódzom","[""prohódzom"",""prohódzok""]","prohódzom","esp trial","11","true"
"html-button-response","30","331785","0.0-11.0-1.9","null","<p>A másik játékos ezt választotta: <b>prohódzom</b>.</p><p>&#x2705;</p><p>A te válaszod és a másik játékos válasza <b>megegyeznek</b>.</p>","null","","","","feedback trial","",""
"html-button-response-esp","31","342508","0.0-11.0-0.10","10213","Te bizony sokat spülőrzöl. Én is sokat...","1","spülőrzöm","[""spülőrzök"",""spülőrzöm""]","spülőrzöm","esp trial","11","true"
"html-button-response","32","346033","0.0-11.0-1.10","null","<p>A másik játékos ezt választotta: <b>spülőrzöm</b>.</p><p>&#x2705;</p><p>A te válaszod és a másik játékos válasza <b>megegyeznek</b>.</p>","null","","","","feedback trial","",""
"html-button-response-esp","33","349899","0.0-11.0-0.11","3342","Te bizony sokat flibekszel. Én is sokat...","1","flibekszem","[""flibekszek"",""flibekszem""]","flibekszem","esp trial","11","true"
"html-button-response","34","353430","0.0-11.0-1.11","null","<p>A másik játékos ezt választotta: <b>flibekszem</b>.</p><p>&#x2705;</p><p>A te válaszod és a másik játékos válasza <b>megegyeznek</b>.</p>","null","","","","feedback trial","",""
"html-button-response-esp","35","358732","0.0-11.0-0.12","4786","Te bizony sokat spülöklesz. Én is sokat...","0","spülöklöm","[""spülöklöm"",""spülöklök""]","spülöklöm","esp trial","11","true"
"html-button-response","36","362269","0.0-11.0-1.12","null","<p>A másik játékos ezt választotta: <b>spülöklöm</b>.</p><p>&#x2705;</p><p>A te válaszod és a másik játékos válasza <b>megegyeznek</b>.</p>","null","","","","feedback trial","",""
"html-button-response-esp","37","366838","0.0-11.0-0.13","4059","Te bizony sokat frivajlasz. Én is sokat...","1","frivajlom","[""frivajlok"",""frivajlom""]","frivajlok","esp trial","11","false"
"html-button-response","38","370353","0.0-11.0-1.13","null","<p>A másik játékos ezt választotta: <b>frivajlok</b>.</p><p>&#10060;</p><p>A válaszaitok <b>nem</b> egyeznek meg.</p>","null","","","","feedback trial","",""
"html-button-response-esp","39","378754","0.0-11.0-0.14","7885","Te bizony sokat zödlesz. Én is sokat...","1","zödlöm","[""zödlök"",""zödlöm""]","zödlök","esp trial","11","false"
"html-button-response","40","382275","0.0-11.0-1.14","null","<p>A másik játékos ezt választotta: <b>zödlök</b>.</p><p>&#10060;</p><p>A válaszaitok <b>nem</b> egyeznek meg.</p>","null","","","","feedback trial","",""
"html-button-response-esp","41","388085","0.0-11.0-0.15","5288","Te bizony sokat szűslesz. Én is sokat...","1","szűslök","[""szűslöm"",""szűslök""]","szűslök","esp trial","11","true"
"html-button-response","42","391599","0.0-11.0-1.15","null","<p>A másik játékos ezt választotta: <b>szűslök</b>.</p><p>&#x2705;</p><p>A te válaszod és a másik játékos válasza <b>megegyeznek</b>.</p>","null","","","","feedback trial","",""
"html-button-response-esp","43","396758","0.0-11.0-0.16","4653","Te bizony sokat sztruglasz. Én is sokat...","0","sztruglok","[""sztruglok"",""sztruglom""]","sztruglom","esp trial","11","false"
"html-button-response","44","400278","0.0-11.0-1.16","null","<p>A másik játékos ezt választotta: <b>sztruglom</b>.</p><p>&#10060;</p><p>A válaszaitok <b>nem</b> egyeznek meg.</p>","null","","","","feedback trial","",""
"html-button-response-esp","45","404577","0.0-11.0-0.17","3792","Te bizony sokat gyivádzol. Én is sokat...","1","gyivádzom","[""gyivádzok"",""gyivádzom""]","gyivádzom","esp trial","11","true"
"html-button-response","46","408093","0.0-11.0-1.17","null","<p>A másik játékos ezt választotta: <b>gyivádzom</b>.</p><p>&#x2705;</p><p>A te válaszod és a másik játékos válasza <b>megegyeznek</b>.</p>","null","","","","feedback trial","",""
"html-button-response-esp","47","411864","0.0-11.0-0.18","3139","Te bizony sokat vűjlesz. Én is sokat...","1","vűjlök","[""vűjlöm"",""vűjlök""]","vűjlök","esp trial","11","true"
"html-button-response","48","415391","0.0-11.0-1.18","null","<p>A másik játékos ezt választotta: <b>vűjlök</b>.</p><p>&#x2705;</p><p>A te válaszod és a másik játékos válasza <b>megegyeznek</b>.</p>","null","","","","feedback trial","",""
"html-button-response-esp","49","419154","0.0-11.0-0.19","2579","Te bizony sokat vihepszel. Én is sokat...","1","vihepszem","[""vihepszek"",""vihepszem""]","vihepszem","esp trial","11","true"
"html-button-response","50","422695","0.0-11.0-1.19","null","<p>A másik játékos ezt választotta: <b>vihepszem</b>.</p><p>&#x2705;</p><p>A te válaszod és a másik játékos válasza <b>megegyeznek</b>.</p>","null","","","","feedback trial","",""
"html-button-response-esp","51","430598","0.0-11.0-0.20","7388","Te bizony sokat sprédlesz. Én is sokat...","1","sprédlek","[""sprédlem"",""sprédlek""]","sprédlek","esp trial","11","true"
"html-button-response","52","434120","0.0-11.0-1.20","null","<p>A másik játékos ezt választotta: <b>sprédlek</b>.</p><p>&#x2705;</p><p>A te válaszod és a másik játékos válasza <b>megegyeznek</b>.</p>","null","","","","feedback trial","",""
"html-button-response-esp","53","437882","0.0-11.0-0.21","2743","Te bizony sokat livaklasz. Én is sokat...","1","livaklom","[""livaklok"",""livaklom""]","livaklom","esp trial","11","true"
"html-button-response","54","441415","0.0-11.0-1.21","null","<p>A másik játékos ezt választotta: <b>livaklom</b>.</p><p>&#x2705;</p><p>A te válaszod és a másik játékos válasza <b>megegyeznek</b>.</p>","null","","","","feedback trial","",""
"html-button-response-esp","55","445171","0.0-11.0-0.22","3053","Te bizony sokat plágadzol. Én is sokat...","1","plágadzom","[""plágadzok"",""plágadzom""]","plágadzom","esp trial","11","true"
"html-button-response","56","448696","0.0-11.0-1.22","null","<p>A másik játékos ezt választotta: <b>plágadzom</b>.</p><p>&#x2705;</p><p>A te válaszod és a másik játékos válasza <b>megegyeznek</b>.</p>","null","","","","feedback trial","",""
"html-button-response-esp","57","455752","0.0-11.0-0.23","6527","Te bizony sokat péleslesz. Én is sokat...","1","péleslek","[""péleslem"",""péleslek""]","péleslem","esp trial","11","false"
"html-button-response","58","459283","0.0-11.0-1.23","null","<p>A másik játékos ezt választotta: <b>péleslem</b>.</p><p>&#10060;</p><p>A válaszaitok <b>nem</b> egyeznek meg.</p>","null","","","","feedback trial","",""
"html-button-response-esp","59","463044","0.0-11.0-0.24","2317","Te bizony sokat friszlasz. Én is sokat...","1","friszlok","[""friszlom"",""friszlok""]","friszlom","esp trial","11","false"
"html-button-response","60","466578","0.0-11.0-1.24","null","<p>A másik játékos ezt választotta: <b>friszlom</b>.</p><p>&#10060;</p><p>A válaszaitok <b>nem</b> egyeznek meg.</p>","null","","","","feedback trial","",""
"html-button-response-esp","61","471789","0.0-11.0-0.25","4690","Te bizony sokat spélszel. Én is sokat...","1","spélszem","[""spélszek"",""spélszem""]","spélszem","esp trial","11","true"
"html-button-response","62","475326","0.0-11.0-1.25","null","<p>A másik játékos ezt választotta: <b>spélszem</b>.</p><p>&#x2705;</p><p>A te válaszod és a másik játékos válasza <b>megegyeznek</b>.</p>","null","","","","feedback trial","",""
"html-button-response-esp","63","484247","0.0-11.0-0.26","8408","Te bizony sokat fivénylesz. Én is sokat...","0","fivénylek","[""fivénylek"",""fivénylem""]","fivénylem","esp trial","11","false"
"html-button-response","64","487768","0.0-11.0-1.26","null","<p>A másik játékos ezt választotta: <b>fivénylem</b>.</p><p>&#10060;</p><p>A válaszaitok <b>nem</b> egyeznek meg.</p>","null","","","","feedback trial","",""
"html-button-response-esp","65","493267","0.0-11.0-0.27","4996","Te bizony sokat ibáglasz. Én is sokat...","1","ibáglok","[""ibáglom"",""ibáglok""]","ibáglom","esp trial","11","false"
"html-button-response","66","496776","0.0-11.0-1.27","null","<p>A másik játékos ezt választotta: <b>ibáglom</b>.</p><p>&#10060;</p><p>A válaszaitok <b>nem</b> egyeznek meg.</p>","null","","","","feedback trial","",""
"html-button-response-esp","67","500544","0.0-11.0-0.28","3007","Te bizony sokat drügzöl. Én is sokat...","0","drügzöm","[""drügzöm"",""drügzök""]","drügzöm","esp trial","11","true"
"html-button-response","68","504082","0.0-11.0-1.28","null","<p>A másik játékos ezt választotta: <b>drügzöm</b>.</p><p>&#x2705;</p><p>A te válaszod és a másik játékos válasza <b>megegyeznek</b>.</p>","null","","","","feedback trial","",""
"html-button-response-esp","69","507857","0.0-11.0-0.29","2560","Te bizony sokat flözlesz. Én is sokat...","1","flözlöm","[""flözlök"",""flözlöm""]","flözlök","esp trial","11","false"
"html-button-response","70","511374","0.0-11.0-1.29","null","<p>A másik játékos ezt választotta: <b>flözlök</b>.</p><p>&#10060;</p><p>A válaszaitok <b>nem</b> egyeznek meg.</p>","null","","","","feedback trial","",""
"html-button-response-esp","71","516122","0.0-11.0-0.30","4229","Te bizony sokat aglasz. Én is sokat...","0","aglom","[""aglom"",""aglok""]","aglom","esp trial","11","true"
"html-button-response","72","519647","0.0-11.0-1.30","null","<p>A másik játékos ezt választotta: <b>aglom</b>.</p><p>&#x2705;</p><p>A te válaszod és a másik játékos válasza <b>megegyeznek</b>.</p>","null","","","","feedback trial","",""
"html-button-response-esp","73","526592","0.0-11.0-0.31","6440","Te bizony sokat prezlesz. Én is sokat...","0","prezlem","[""prezlem"",""prezlek""]","prezlek","esp trial","11","false"
"html-button-response","74","530122","0.0-11.0-1.31","null","<p>A másik játékos ezt választotta: <b>prezlek</b>.</p><p>&#10060;</p><p>A válaszaitok <b>nem</b> egyeznek meg.</p>","null","","","","feedback trial","",""
"html-button-response-esp","75","534375","0.0-11.0-0.32","3733","Te bizony sokat frágapszol. Én is sokat...","0","frágapszom","[""frágapszom"",""frágapszok""]","frágapszom","esp trial","11","true"
"html-button-response","76","537890","0.0-11.0-1.32","null","<p>A másik játékos ezt választotta: <b>frágapszom</b>.</p><p>&#x2705;</p><p>A te válaszod és a másik játékos válasza <b>megegyeznek</b>.</p>","null","","","","feedback trial","",""
"html-button-response-esp","77","541681","0.0-11.0-0.33","2389","Te bizony sokat gerénylesz. Én is sokat...","1","gerénylem","[""gerénylek"",""gerénylem""]","gerénylek","esp trial","11","false"
"html-button-response","78","545203","0.0-11.0-1.33","null","<p>A másik játékos ezt választotta: <b>gerénylek</b>.</p><p>&#10060;</p><p>A válaszaitok <b>nem</b> egyeznek meg.</p>","null","","","","feedback trial","",""
"html-button-response-esp","79","549098","0.0-11.0-0.34","3374","Te bizony sokat fliraklasz. Én is sokat...","1","fliraklom","[""fliraklok"",""fliraklom""]","fliraklom","esp trial","11","true"
"html-button-response","80","552623","0.0-11.0-1.34","null","<p>A másik játékos ezt választotta: <b>fliraklom</b>.</p><p>&#x2705;</p><p>A te válaszod és a másik játékos válasza <b>megegyeznek</b>.</p>","null","","","","feedback trial","",""
"html-button-response-esp","81","558545","0.0-11.0-0.35","5406","Te bizony sokat féjzel. Én is sokat...","1","féjzem","[""féjzek"",""féjzem""]","féjzem","esp trial","11","true"
"html-button-response","82","562075","0.0-11.0-1.35","null","<p>A másik játékos ezt választotta: <b>féjzem</b>.</p><p>&#x2705;</p><p>A te válaszod és a másik játékos válasza <b>megegyeznek</b>.</p>","null","","","","feedback trial","",""
"html-button-response-esp","83","567657","0.0-11.0-0.36","5059","Te bizony sokat bivejlesz. Én is sokat...","1","bivejlek","[""bivejlem"",""bivejlek""]","bivejlek","esp trial","11","true"
"html-button-response","84","571166","0.0-11.0-1.36","null","<p>A másik játékos ezt választotta: <b>bivejlek</b>.</p><p>&#x2705;</p><p>A te válaszod és a másik játékos válasza <b>megegyeznek</b>.</p>","null","","","","feedback trial","",""
"html-button-response-esp","85","574930","0.0-11.0-0.37","2137","Te bizony sokat spírzol. Én is sokat...","1","spírzom","[""spírzok"",""spírzom""]","spírzom","esp trial","11","true"
"html-button-response","86","578465","0.0-11.0-1.37","null","<p>A másik játékos ezt választotta: <b>spírzom</b>.</p><p>&#x2705;</p><p>A te válaszod és a másik játékos válasza <b>megegyeznek</b>.</p>","null","","","","feedback trial","",""
"html-button-response-esp","87","582232","0.0-11.0-0.38","2181","Te bizony sokat klárzol. Én is sokat...","1","klárzom","[""klárzok"",""klárzom""]","klárzom","esp trial","11","true"
"html-button-response","88","585774","0.0-11.0-1.38","null","<p>A másik játékos ezt választotta: <b>klárzom</b>.</p><p>&#x2705;</p><p>A te válaszod és a másik játékos válasza <b>megegyeznek</b>.</p>","null","","","","feedback trial","",""
"html-button-response-esp","89","589537","0.0-11.0-0.39","3026","Te bizony sokat gyibakszol. Én is sokat...","1","gyibakszom","[""gyibakszok"",""gyibakszom""]","gyibakszom","esp trial","11","true"
"html-button-response","90","593065","0.0-11.0-1.39","null","<p>A másik játékos ezt választotta: <b>gyibakszom</b>.</p><p>&#x2705;</p><p>A te válaszod és a másik játékos válasza <b>megegyeznek</b>.</p>","null","","","","feedback trial","",""
"html-button-response-esp","91","604589","0.0-11.0-0.40","11002","Te bizony sokat mékszel. Én is sokat...","1","mékszem","[""mékszek"",""mékszem""]","mékszem","esp trial","11","true"
"html-button-response","92","608104","0.0-11.0-1.40","null","<p>A másik játékos ezt választotta: <b>mékszem</b>.</p><p>&#x2705;</p><p>A te válaszod és a másik játékos válasza <b>megegyeznek</b>.</p>","null","","","","feedback trial","",""
"html-button-response-esp","93","611872","0.0-11.0-0.41","2435","Te bizony sokat kumlasz. Én is sokat...","1","kumlom","[""kumlok"",""kumlom""]","kumlok","esp trial","11","false"
"html-button-response","94","615391","0.0-11.0-1.41","null","<p>A másik játékos ezt választotta: <b>kumlok</b>.</p><p>&#10060;</p><p>A válaszaitok <b>nem</b> egyeznek meg.</p>","null","","","","feedback trial","",""
"html-button-response-esp","95","620019","0.0-11.0-0.42","4118","Te bizony sokat préleglesz. Én is sokat...","1","préleglem","[""préleglek"",""préleglem""]","préleglem","esp trial","11","true"
"html-button-response","96","623546","0.0-11.0-1.42","null","<p>A másik játékos ezt választotta: <b>préleglem</b>.</p><p>&#x2705;</p><p>A te válaszod és a másik játékos válasza <b>megegyeznek</b>.</p>","null","","","","feedback trial","",""
"html-button-response-esp","97","627313","0.0-11.0-0.43","2975","Te bizony sokat trihagzol. Én is sokat...","1","trihagzom","[""trihagzok"",""trihagzom""]","trihagzom","esp trial","11","true"
"html-button-response","98","630843","0.0-11.0-1.43","null","<p>A másik játékos ezt választotta: <b>trihagzom</b>.</p><p>&#x2705;</p><p>A te válaszod és a másik játékos válasza <b>megegyeznek</b>.</p>","null","","","","feedback trial","",""
"html-button-response-esp","99","634607","0.0-11.0-0.44","3080","Te bizony sokat floglasz. Én is sokat...","1","floglok","[""floglom"",""floglok""]","floglom","esp trial","11","false"
"html-button-response","100","638131","0.0-11.0-1.44","null","<p>A másik játékos ezt választotta: <b>floglom</b>.</p><p>&#10060;</p><p>A válaszaitok <b>nem</b> egyeznek meg.</p>","null","","","","feedback trial","",""
"html-button-response-esp","101","645536","0.0-11.0-0.45","6887","Te bizony sokat csólorzol. Én is sokat...","0","csólorzok","[""csólorzok"",""csólorzom""]","csólorzom","esp trial","11","false"
"html-button-response","102","649056","0.0-11.0-1.45","null","<p>A másik játékos ezt választotta: <b>csólorzom</b>.</p><p>&#10060;</p><p>A válaszaitok <b>nem</b> egyeznek meg.</p>","null","","","","feedback trial","",""
"html-button-response-esp","103","659085","0.0-11.0-0.46","9519","Te bizony sokat brarlasz. Én is sokat...","1","brarlok","[""brarlom"",""brarlok""]","brarlok","esp trial","11","true"
"html-button-response","104","662604","0.0-11.0-1.46","null","<p>A másik játékos ezt választotta: <b>brarlok</b>.</p><p>&#x2705;</p><p>A te válaszod és a másik játékos válasza <b>megegyeznek</b>.</p>","null","","","","feedback trial","",""
"html-button-response-esp","105","668815","0.0-11.0-0.47","5698","Te bizony sokat klidlasz. Én is sokat...","0","klidlom","[""klidlom"",""klidlok""]","klidlok","esp trial","11","false"
"html-button-response","106","672348","0.0-11.0-1.47","null","<p>A másik játékos ezt választotta: <b>klidlok</b>.</p><p>&#10060;</p><p>A válaszaitok <b>nem</b> egyeznek meg.</p>","null","","","","feedback trial","",""
"html-button-response-esp","107","677972","0.0-11.0-0.48","5109","Te bizony sokat spatszol. Én is sokat...","0","spatszom","[""spatszom"",""spatszok""]","spatszom","esp trial","11","true"
"html-button-response","108","681511","0.0-11.0-1.48","null","<p>A másik játékos ezt választotta: <b>spatszom</b>.</p><p>&#x2705;</p><p>A te válaszod és a másik játékos válasza <b>megegyeznek</b>.</p>","null","","","","feedback trial","",""
"html-button-response-esp","109","686095","0.0-11.0-0.49","4067","Te bizony sokat táklasz. Én is sokat...","1","táklok","[""táklom"",""táklok""]","táklom","esp trial","11","false"
"html-button-response","110","689623","0.0-11.0-1.49","null","<p>A másik játékos ezt választotta: <b>táklom</b>.</p><p>&#10060;</p><p>A válaszaitok <b>nem</b> egyeznek meg.</p>","null","","","","feedback trial","",""
"html-button-response-esp","111","693381","0.0-11.0-0.50","3014","Te bizony sokat praslasz. Én is sokat...","1","praslom","[""praslok"",""praslom""]","praslok","esp trial","11","false"
"html-button-response","112","696903","0.0-11.0-1.50","null","<p>A másik játékos ezt választotta: <b>praslok</b>.</p><p>&#10060;</p><p>A válaszaitok <b>nem</b> egyeznek meg.</p>","null","","","","feedback trial","",""
"html-button-response-esp","113","701721","0.0-11.0-0.51","4299","Te bizony sokat gilárzol. Én is sokat...","1","gilárzom","[""gilárzok"",""gilárzom""]","gilárzom","esp trial","11","true"
"html-button-response","114","705231","0.0-11.0-1.51","null","<p>A másik játékos ezt választotta: <b>gilárzom</b>.</p><p>&#x2705;</p><p>A te válaszod és a másik játékos válasza <b>megegyeznek</b>.</p>","null","","","","feedback trial","",""
"html-button-response-esp","115","709842","0.0-11.0-0.52","4100","Te bizony sokat flérlesz. Én is sokat...","0","flérlek","[""flérlek"",""flérlem""]","flérlek","esp trial","11","true"
"html-button-response","116","713383","0.0-11.0-1.52","null","<p>A másik játékos ezt választotta: <b>flérlek</b>.</p><p>&#x2705;</p><p>A te válaszod és a másik játékos válasza <b>megegyeznek</b>.</p>","null","","","","feedback trial","",""
"html-button-response-esp","117","717144","0.0-11.0-0.53","2266","Te bizony sokat tuboklasz. Én is sokat...","1","tuboklom","[""tuboklok"",""tuboklom""]","tuboklom","esp trial","11","true"
"html-button-response","118","720673","0.0-11.0-1.53","null","<p>A másik játékos ezt választotta: <b>tuboklom</b>.</p><p>&#x2705;</p><p>A te válaszod és a másik játékos válasza <b>megegyeznek</b>.</p>","null","","","","feedback trial","",""
"html-button-response","119","729916","0.0-12.0","8733","<p>A közös játék most véget ért.</p><p>Mielőtt eláruljuk a végső pontszámodat, arra kérlek, játszd a szóválasztós játékot néhány percig egyedül is.</p><p>A feladatod ugyanaz lesz, választani két lehetőség közül.</p><p>Most viszont egyedül kell döntened, hogy te melyiket választanád.</p>","0","","","","","",""
"html-button-response-clever","120","736130","0.0-13.0-0.0","5697","Te bizony sokat marzol. Én is sokat...","0","marzom","[""marzom"",""marzok""]","","posttest trial","1",""
"html-button-response-clever","121","742188","0.0-13.0-0.1","5550","Te bizony sokat klibamlasz. Én is sokat...","0","klibamlok","[""klibamlok"",""klibamlom""]","","posttest trial","1",""
"html-button-response-clever","122","747238","0.0-13.0-0.2","4536","Te bizony sokat tínylasz. Én is sokat...","1","tínylok","[""tínylom"",""tínylok""]","","posttest trial","1",""
"html-button-response-clever","123","751006","0.0-13.0-0.3","3255","Te bizony sokat siladzol. Én is sokat...","1","siladzom","[""siladzok"",""siladzom""]","","posttest trial","1",""
"html-button-response-clever","124","795681","0.0-13.0-0.4","44164","Te bizony sokat büglesz. Én is sokat...","0","büglök","[""büglök"",""büglöm""]","","posttest trial","1",""
"html-button-response-clever","125","799128","0.0-13.0-0.5","2934","Te bizony sokat sztremlesz. Én is sokat...","0","sztremlek","[""sztremlek"",""sztremlem""]","","posttest trial","1",""
"html-button-response-clever","126","807417","0.0-13.0-0.6","7776","Te bizony sokat brüjlesz. Én is sokat...","1","brüjlöm","[""brüjlök"",""brüjlöm""]","","posttest trial","1",""
"html-button-response-clever","127","813433","0.0-13.0-0.7","5513","Te bizony sokat pebzel. Én is sokat...","0","pebzem","[""pebzem"",""pebzek""]","","posttest trial","1",""
"html-button-response-clever","128","816729","0.0-13.0-0.8","2787","Te bizony sokat szirlasz. Én is sokat...","1","szirlom","[""szirlok"",""szirlom""]","","posttest trial","1",""
"html-button-response-clever","129","820484","0.0-13.0-0.9","3244","Te bizony sokat driládzol. Én is sokat...","0","driládzom","[""driládzom"",""driládzok""]","","posttest trial","1",""
"html-button-response-clever","130","825276","0.0-13.0-0.10","4275","Te bizony sokat spéslesz. Én is sokat...","0","spéslek","[""spéslek"",""spéslem""]","","posttest trial","1",""
"html-button-response-clever","131","828539","0.0-13.0-0.11","2737","Te bizony sokat ribegzel. Én is sokat...","1","ribegzem","[""ribegzek"",""ribegzem""]","","posttest trial","1",""
"html-button-response-clever","132","832042","0.0-13.0-0.12","2983","Te bizony sokat spibaklasz. Én is sokat...","0","spibaklom","[""spibaklom"",""spibaklok""]","","posttest trial","1",""
"html-button-response-clever","133","837706","0.0-13.0-0.13","5152","Te bizony sokat böjzöl. Én is sokat...","1","böjzök","[""böjzöm"",""böjzök""]","","posttest trial","1",""
"html-button-response-clever","134","854095","0.0-13.0-0.14","15868","Te bizony sokat sűzlesz. Én is sokat...","0","sűzlöm","[""sűzlöm"",""sűzlök""]","","posttest trial","1",""
"html-button-response-clever","135","908479","0.0-13.0-0.15","53871","Te bizony sokat prilegzel. Én is sokat...","1","prilegzem","[""prilegzek"",""prilegzem""]","","posttest trial","1",""
"html-button-response-clever","136","980927","0.0-13.0-0.16","71931","Te bizony sokat brágaklasz. Én is sokat...","1","brágaklom","[""brágaklok"",""brágaklom""]","","posttest trial","1",""
"html-button-response-clever","137","986467","0.0-13.0-0.17","5032","Te bizony sokat flüröslesz. Én is sokat...","0","flüröslöm","[""flüröslöm"",""flüröslök""]","","posttest trial","1",""
"html-button-response-clever","138","990316","0.0-13.0-0.18","3324","Te bizony sokat hilarzol. Én is sokat...","0","hilarzom","[""hilarzom"",""hilarzok""]","","posttest trial","1",""
"html-button-response-clever","139","992971","0.0-13.0-0.19","2142","Te bizony sokat sojzol. Én is sokat...","1","sojzom","[""sojzok"",""sojzom""]","","posttest trial","1",""
"html-button-response-clever","140","996742","0.0-13.0-0.20","3250","Te bizony sokat fibamlasz. Én is sokat...","1","fibamlok","[""fibamlom"",""fibamlok""]","","posttest trial","1",""
"html-button-response-clever","141","1000238","0.0-13.0-0.21","2988","Te bizony sokat spatárzol. Én is sokat...","0","spatárzom","[""spatárzom"",""spatárzok""]","","posttest trial","1",""
"html-button-response-clever","142","1003372","0.0-13.0-0.22","2623","Te bizony sokat tomlasz. Én is sokat...","0","tomlok","[""tomlok"",""tomlom""]","","posttest trial","1",""
"html-button-response-clever","143","1006339","0.0-13.0-0.23","2458","Te bizony sokat vilakszol. Én is sokat...","0","vilakszom","[""vilakszom"",""vilakszok""]","","posttest trial","1",""
"html-button-response-clever","144","1009198","0.0-13.0-0.24","2347","Te bizony sokat femlesz. Én is sokat...","0","femlek","[""femlek"",""femlem""]","","posttest trial","1",""
"html-button-response-clever","145","1014074","0.0-13.0-0.25","4364","Te bizony sokat prűrlesz. Én is sokat...","0","prűrlök","[""prűrlök"",""prűrlöm""]","","posttest trial","1",""
"html-button-response-clever","146","1019389","0.0-13.0-0.26","4798","Te bizony sokat feténylesz. Én is sokat...","0","feténylek","[""feténylek"",""feténylem""]","","posttest trial","1",""
"html-button-response-clever","147","1021963","0.0-13.0-0.27","2065","Te bizony sokat nyáslasz. Én is sokat...","1","nyáslom","[""nyáslok"",""nyáslom""]","","posttest trial","1",""
"html-button-response-clever","148","1026235","0.0-13.0-0.28","3763","Te bizony sokat trilszol. Én is sokat...","0","trilszom","[""trilszom"",""trilszok""]","","posttest trial","1",""
"html-button-response-clever","149","1029099","0.0-13.0-0.29","2333","Te bizony sokat frilegszel. Én is sokat...","1","frilegszem","[""frilegszek"",""frilegszem""]","","posttest trial","1",""
"html-button-response-clever","150","1032309","0.0-13.0-0.30","2695","Te bizony sokat pivegszel. Én is sokat...","1","pivegszem","[""pivegszek"",""pivegszem""]","","posttest trial","1",""
"html-button-response-clever","151","1035430","0.0-13.0-0.31","2614","Te bizony sokat klörlesz. Én is sokat...","1","klörlöm","[""klörlök"",""klörlöm""]","","posttest trial","1",""
"html-button-response-clever","152","1045606","0.0-13.0-0.32","9664","Te bizony sokat drubódzol. Én is sokat...","0","drubódzom","[""drubódzom"",""drubódzok""]","","posttest trial","1",""
"html-button-response-clever","153","1049961","0.0-13.0-0.33","3844","Te bizony sokat herégszel. Én is sokat...","0","herégszem","[""herégszem"",""herégszek""]","","posttest trial","1",""
"html-button-response-clever","154","1053681","0.0-13.0-0.34","3215","Te bizony sokat ribzol. Én is sokat...","0","ribzom","[""ribzom"",""ribzok""]","","posttest trial","1",""
"html-button-response-clever","155","1057998","0.0-13.0-0.35","3810","Te bizony sokat bölszöl. Én is sokat...","1","bölszök","[""bölszöm"",""bölszök""]","","posttest trial","1",""
"html-button-response-clever","156","1065138","0.0-13.0-0.36","6624","Te bizony sokat ruslasz. Én is sokat...","0","ruslok","[""ruslok"",""ruslom""]","","posttest trial","1",""
"html-button-response-clever","157","1067737","0.0-13.0-0.37","2091","Te bizony sokat spilágzol. Én is sokat...","1","spilágzom","[""spilágzok"",""spilágzom""]","","posttest trial","1",""
"html-button-response-clever","158","1072172","0.0-13.0-0.38","3919","Te bizony sokat sprogzol. Én is sokat...","0","sprogzom","[""sprogzom"",""sprogzok""]","","posttest trial","1",""
"html-button-response-clever","159","1076259","0.0-13.0-0.39","3570","Te bizony sokat flűröklesz. Én is sokat...","0","flűröklöm","[""flűröklöm"",""flűröklök""]","","posttest trial","1",""
"html-button-response-clever","160","1080722","0.0-13.0-0.40","3942","Te bizony sokat sprökszöl. Én is sokat...","0","sprökszöm","[""sprökszöm"",""sprökszök""]","","posttest trial","1",""
"html-button-response-clever","161","1085457","0.0-13.0-0.41","4228","Te bizony sokat fretszel. Én is sokat...","1","fretszem","[""fretszek"",""fretszem""]","","posttest trial","1",""
"html-button-response-clever","162","1089059","0.0-13.0-0.42","3091","Te bizony sokat pratánylasz. Én is sokat...","1","pratánylom","[""pratánylok"",""pratánylom""]","","posttest trial","1",""
"html-button-response-clever","163","1093367","0.0-13.0-0.43","3785","Te bizony sokat narjárzol. Én is sokat...","1","narjárzom","[""narjárzok"",""narjárzom""]","","posttest trial","1",""
"html-button-response-clever","164","1096603","0.0-13.0-0.44","2730","Te bizony sokat piragszol. Én is sokat...","1","piragszom","[""piragszok"",""piragszom""]","","posttest trial","1",""
"html-button-response-clever","165","1106411","0.0-13.0-0.45","9284","Te bizony sokat tiregzel. Én is sokat...","1","tiregzem","[""tiregzek"",""tiregzem""]","","posttest trial","1",""
"html-button-response-clever","166","1112898","0.0-13.0-0.46","5969","Te bizony sokat flagárzol. Én is sokat...","1","flagárzom","[""flagárzok"",""flagárzom""]","","posttest trial","1",""
"html-button-response-clever","167","1117581","0.0-13.0-0.47","4173","Te bizony sokat lorjódzol. Én is sokat...","0","lorjódzom","[""lorjódzom"",""lorjódzok""]","","posttest trial","1",""
"html-button-response-clever","168","1122260","0.0-13.0-0.48","4173","Te bizony sokat spűmlesz. Én is sokat...","0","spűmlök","[""spűmlök"",""spűmlöm""]","","posttest trial","1",""
"html-button-response-clever","169","1128430","0.0-13.0-0.49","5648","Te bizony sokat málapszol. Én is sokat...","1","málapszom","[""málapszok"",""málapszom""]","","posttest trial","1",""
"html-button-response-clever","170","1131369","0.0-13.0-0.50","2431","Te bizony sokat flagánylasz. Én is sokat...","1","flagánylom","[""flagánylok"",""flagánylom""]","","posttest trial","1",""
"html-button-response-clever","171","1135786","0.0-13.0-0.51","3912","Te bizony sokat jüslesz. Én is sokat...","1","jüslök","[""jüslöm"",""jüslök""]","","posttest trial","1",""
"html-button-response-clever","172","1141232","0.0-13.0-0.52","4941","Te bizony sokat juszlasz. Én is sokat...","0","juszlom","[""juszlom"",""juszlok""]","","posttest trial","1",""
"html-button-response-clever","173","1152442","0.0-13.0-0.53","10698","Te bizony sokat csíszlasz. Én is sokat...","0","csíszlom","[""csíszlom"",""csíszlok""]","","posttest trial","1",""
"html-button-response","174","1160530","0.0-14.0","7574","<p> Vége a játéknak. A teljes pontszámod 37/54.</p><p> Szép munka! &#128526;&#128526;&#128526;</p><p>A Befejezés gomb megnyomása után bezárhatod a böngészőablakot.</p>","0","","","","","",""
"html-keyboard-response","175","1166048","0.0-15.0","null","<div class=""message"">
         <p>Egy kis türelmet kérünk, amíg elmentjük az adatokat...</p>
         </div>","null","","","","","",""
