"trial_type","trial_index","time_elapsed","internal_node_id","rt","stimulus","response","response_string","choices","esp_response","trial_kind","list_number","esp_match"
"pavlovia","0","1567","0.0-0.0","","","","","","","","",""
"html-button-response","1","6446","0.0-1.0","4374","<p>Kedves Résztvevő! A Budapesti Műszaki és Gazdaságtudományi Egyetem Kognitív Tudományi Tanszékének kutatásában való részvételed kérjük. A kutatásban azt vizsgáljuk, hogy a magyar anyanyelvűek hogyan használnak bizonyos szóalakokat, és hogy milyen képük van arról, hogy mások hogyan használják, hogyan képzik a szavakat. Ez hozzásegít bennünket ahhoz, hogy jobban megértsük, hogyan dolgozza fel és tárolja a nyelvet az emberi agy, és hogyan működnek, hogyan változnak egy adott közösség nyelvi konvenciói.</p><p>A vizsgálat egy rövid számítógépes feladatból fog állni. A kutatásban való részvétel önkéntes, a részvételi szándék bármikor visszavonható. A résztvevők eredményeit név nélkül kezeljük, így nem beazonosíthatók az adatok feldolgozása során. Minden személyes adatot az EU általános adatvédelmi rendeletének (GDPR) megfelelően kezelünk és legfeljebb öt éven belül megsemmisítünk. A vizsgálat jellemzően húsz percet vesz igénybe.</p><p>Kutatásvezető:</p><p>Dr. Rácz Péter, tudományos munkatárs, BME KTT</p><p>e-mail: racz.peter.marton@ttk.bme.hu</p>","0","","","","","",""
"html-button-response","2","9404","0.0-2.0","2456","<p>A kísérletben szavakat fogsz látni. Ezek között lesznek olyanok, amelyeket ismersz, de előfordulhatnak olyanok is, amelyeket nem ismersz, sőt, vannak köztük kitalált szavak is. Minden szónál látni fogsz toldalékolt alakokat. A te feladatod az lesz, hogy minden szóhoz kiválaszd azt a toldalékolt alakot, amely a te számodra ismerősebben, természetesebben hangzik. Rossz válaszok nincsenek, mert van olyan, hogy különböző embereknek más és más szó tűnik jobb választásnak. A választ úgy tudod majd kiválasztani, ha rákattintasz.</p><p>Ebben a szóválasztós játékban egy másik játékossal együtt veszel majd részt. A másik játékos is minden esetben azok közül a lehetőségek közül válogathat, mint te. Kettőtök feladata az, hogy ugyanazt a lehetőséget válasszátok minden esetben. Ahhoz, hogy ez sikerüljön, neked figyelned kell arra, hogy a másik játékos milyen válaszokat ad, és ennek alapján meg kell tippelned, hogyan választ legközelebb. Ha eltalálod, akkor pontot kapsz.</p>","0","","","","","",""
"html-button-response","3","11627","0.0-3.0","1721","<p>Kérjük, olvasd el az alábbi nyilatkozatot, és amennyiben egyetértesz vele, nyomj a Beleegyezés gombra!</p><p>Kijelentem, hogy magyar anyanyelvű személyként önként veszek részt a BME KTT kísérletében. A kutatás céljával és folyamatával kapcsolatban elegendő tájékoztatást kaptam, lehetőségem volt kérdések feltételére, és esetleges kérdéseimre megfelelő válaszokat kaptam. A tájékoztatás alapján elegendő mennyiségű információ áll a rendelkezésemre, hogy eldönthessem, részt kívánok-e venni a kutatásban.</p><p>Tisztában vagyok vele, hogy részvételi szándékomat és adataimat bármikor, indoklás nélkül visszavonhatom.</p><p>Értem és tudomásul veszem, hogy a kutatás tudományos célokat szolgál, és az általam szolgáltatott adatokat a BME kizárólag kutatási célból használja fel. Tudomásul veszem, hogy eredményeimet a többi résztvevő eredményeivel együtt kezelik, így egyéni teljesítményemről visszajelzést, szakvéleményt nem kapok.</p><p>Megértettem, hogy adataim kezelését illetően a BME az EU általános adatvédelmi rendelete (GDPR), a hatályos adatvédelmi törvény és a nemzetközi kutatás-etikai alapelvek szerint jár el. Eredményeim anonim módon kerülnek feldolgozásra, és a kutatás résztvevői az azonosításomra alkalmas adataimat harmadik félnek nem szolgáltatják ki. Engedélyezem a BME számára a jelen kutatásban felvett adataim feldolgozását és tárolását, beleértve azok későbbi kutatásokhoz való felhasználását is. Személyes adataim kezelésével kapcsolatban tájékoztatást kérhetek a kutatás résztvevőitől, az adatkezelés ellen tiltakozhatok, kérhetem személyes adataim helyesbítését, törlését vagy zárolását, valamint jogorvoslatért a Nemzeti Adatvédelmi és Információszabadság Hatósághoz fordulhatok.</p><p>Kijelentem, hogy a kutatásban való részvételem körülményeiről részletes tájékoztatást kaptam, és a feltételeket elfogadom.</p>","0","","","","","",""
"survey-text","4","126505","0.0-4.0","114352","","{""Q0"":""UNEZ9S"",""Q1"":""nő"",""Q2"":""1997"",""Q3"":""18""}","","","","","",""
"html-button-response","5","268346","0.0-5.0","141340","<p>Ebben a játékban szavakat kell toldalékolni.</p> <p>Minden körben mutatunk majd egy példamondatot, amiben lesz egy szó.</p> <p>Alatta jön egy második mondat, ezt a mondatot neked kell majd befejezni, ugyanezzel a szóval.</p> <p>Nem biztos, hogy a szó eleve ismerős lesz számodra!</p> <p>Minden mondathoz adunk két lehetőséget, ezeket balra és jobbra látod majd.</p> <p>A játék kb. negyedóráig-húsz percig tart.</p>","0","","","","","",""
"html-button-response","6","290116","0.0-6.0","21266","<p>Nézzünk egy példát!</p> <p>A példamondat: ""János nagyon szeret rancsúrozni.""</p><p>Neked ezt a mondatot kell befejezned: ""Én is szívesen...""</p><p>A lehetőségek pedig ezek:</p>","0","","","","","",""
"html-button-response","7","303675","0.0-7.0","13057","<p>Nagyon jó.</p><p>Ezt a játékot nem egyedül fogod játszani, hanem egy másik játékossal.</p><p>Mielőtt továbblépünk, összekapcsolunk titeket egymással.</p><p>Ez igénybe vehet néhány másodpercet, amihez szíves türelmed kérjük.</p>","0","","","","","",""
"html-button-response","8","309399","0.0-8.0","null","<p>Csatlakozás a másik játékoshoz...</p>","null","","","","","",""
"html-button-response","9","311902","0.0-9.0","null","<p> Sikeres kapcsolódás!</p>","null","","","","","",""
"html-button-response","10","322406","0.0-10.0","null","<p>A következőkben ketten játsszátok a szóválasztós játékot.</p><p>A feladatotok az lesz, hogy minden körben <b>ugyanazt</b> a szót válasszátok.</p><p>Minden ilyen egyező válaszért pontot kaptok.</p><p>Próbáld meg kitalálni, mit választ a másik játékos!</p><p>Bármikor választhatsz, a körnek akkor van vége, ha mindketten döntöttetek.</p><p>Sok sikert!</p>","null","","","","","",""
"html-button-response-esp","11","330850","0.0-11.0-0.0","7940","Te bizony sokat féjzel. Én is sokat...","0","féjzem","[""féjzem"",""féjzek""]","féjzem","esp trial","10","true"
"html-button-response","12","334355","0.0-11.0-1.0","null","<p>A másik játékos ezt választotta: <b>féjzem</b>.</p><p>&#x2705;</p><p>A te válaszod és a másik játékos válasza <b>megegyeznek</b>.</p>","null","","","","feedback trial","",""
"html-button-response-esp","13","341967","0.0-11.0-0.1","7109","Te bizony sokat aglasz. Én is sokat...","0","aglom","[""aglom"",""aglok""]","aglom","esp trial","10","true"
"html-button-response","14","345471","0.0-11.0-1.1","null","<p>A másik játékos ezt választotta: <b>aglom</b>.</p><p>&#x2705;</p><p>A te válaszod és a másik játékos válasza <b>megegyeznek</b>.</p>","null","","","","feedback trial","",""
"html-button-response-esp","15","351562","0.0-11.0-0.2","5573","Te bizony sokat flibekszel. Én is sokat...","1","flibekszem","[""flibekszek"",""flibekszem""]","flibekszek","esp trial","10","false"
"html-button-response","16","355066","0.0-11.0-1.2","null","<p>A másik játékos ezt választotta: <b>flibekszek</b>.</p><p>&#10060;</p><p>A válaszaitok <b>nem</b> egyeznek meg.</p>","null","","","","feedback trial","",""
"html-button-response-esp","17","372045","0.0-11.0-0.3","16475","Te bizony sokat gyivádzol. Én is sokat...","1","gyivádzom","[""gyivádzok"",""gyivádzom""]","gyivádzok","esp trial","10","false"
"html-button-response","18","375549","0.0-11.0-1.3","null","<p>A másik játékos ezt választotta: <b>gyivádzok</b>.</p><p>&#10060;</p><p>A válaszaitok <b>nem</b> egyeznek meg.</p>","null","","","","feedback trial","",""
"html-button-response-esp","19","382233","0.0-11.0-0.4","6181","Te bizony sokat szűslesz. Én is sokat...","0","szűslöm","[""szűslöm"",""szűslök""]","szűslöm","esp trial","10","true"
"html-button-response","20","385737","0.0-11.0-1.4","null","<p>A másik játékos ezt választotta: <b>szűslöm</b>.</p><p>&#x2705;</p><p>A te válaszod és a másik játékos válasza <b>megegyeznek</b>.</p>","null","","","","feedback trial","",""
"html-button-response-esp","21","406037","0.0-11.0-0.5","19796","Te bizony sokat vűjlesz. Én is sokat...","0","vűjlöm","[""vűjlöm"",""vűjlök""]","vűjlöm","esp trial","10","true"
"html-button-response","22","409540","0.0-11.0-1.5","null","<p>A másik játékos ezt választotta: <b>vűjlöm</b>.</p><p>&#x2705;</p><p>A te válaszod és a másik játékos válasza <b>megegyeznek</b>.</p>","null","","","","feedback trial","",""
"html-button-response-esp","23","423857","0.0-11.0-0.6","13814","Te bizony sokat spülőrzöl. Én is sokat...","0","spülőrzök","[""spülőrzök"",""spülőrzöm""]","spülőrzöm","esp trial","10","false"
"html-button-response","24","427360","0.0-11.0-1.6","null","<p>A másik játékos ezt választotta: <b>spülőrzöm</b>.</p><p>&#10060;</p><p>A válaszaitok <b>nem</b> egyeznek meg.</p>","null","","","","feedback trial","",""
"html-button-response-esp","25","441310","0.0-11.0-0.7","13448","Te bizony sokat sprédlesz. Én is sokat...","0","sprédlek","[""sprédlek"",""sprédlem""]","sprédlem","esp trial","10","false"
"html-button-response","26","444815","0.0-11.0-1.7","null","<p>A másik játékos ezt választotta: <b>sprédlem</b>.</p><p>&#10060;</p><p>A válaszaitok <b>nem</b> egyeznek meg.</p>","null","","","","feedback trial","",""
"html-button-response-esp","27","459951","0.0-11.0-0.8","14625","Te bizony sokat zödlesz. Én is sokat...","0","zödlök","[""zödlök"",""zödlöm""]","zödlöm","esp trial","10","false"
"html-button-response","28","463457","0.0-11.0-1.8","null","<p>A másik játékos ezt választotta: <b>zödlöm</b>.</p><p>&#10060;</p><p>A válaszaitok <b>nem</b> egyeznek meg.</p>","null","","","","feedback trial","",""
"html-button-response-esp","29","471510","0.0-11.0-0.9","7550","Te bizony sokat préleglesz. Én is sokat...","0","préleglem","[""préleglem"",""préleglek""]","préleglem","esp trial","10","true"
"html-button-response","30","475014","0.0-11.0-1.9","null","<p>A másik játékos ezt választotta: <b>préleglem</b>.</p><p>&#x2705;</p><p>A te válaszod és a másik játékos válasza <b>megegyeznek</b>.</p>","null","","","","feedback trial","",""
"html-button-response-esp","31","481837","0.0-11.0-0.10","6320","Te bizony sokat fliraklasz. Én is sokat...","0","fliraklom","[""fliraklom"",""fliraklok""]","fliraklom","esp trial","10","true"
"html-button-response","32","485340","0.0-11.0-1.10","null","<p>A másik játékos ezt választotta: <b>fliraklom</b>.</p><p>&#x2705;</p><p>A te válaszod és a másik játékos válasza <b>megegyeznek</b>.</p>","null","","","","feedback trial","",""
"html-button-response-esp","33","495843","0.0-11.0-0.11","10001","Te bizony sokat drügzöl. Én is sokat...","1","drügzök","[""drügzöm"",""drügzök""]","drügzöm","esp trial","10","false"
"html-button-response","34","499348","0.0-11.0-1.11","null","<p>A másik játékos ezt választotta: <b>drügzöm</b>.</p><p>&#10060;</p><p>A válaszaitok <b>nem</b> egyeznek meg.</p>","null","","","","feedback trial","",""
"html-button-response-esp","35","505352","0.0-11.0-0.12","5022","Te bizony sokat klárzol. Én is sokat...","1","klárzom","[""klárzok"",""klárzom""]","klárzom","esp trial","10","true"
"html-button-response","36","508856","0.0-11.0-1.12","null","<p>A másik játékos ezt választotta: <b>klárzom</b>.</p><p>&#x2705;</p><p>A te válaszod és a másik játékos válasza <b>megegyeznek</b>.</p>","null","","","","feedback trial","",""
"html-button-response-esp","37","514859","0.0-11.0-0.13","3425","Te bizony sokat táklasz. Én is sokat...","0","táklok","[""táklok"",""táklom""]","táklok","esp trial","10","true"
"html-button-response","38","518363","0.0-11.0-1.13","null","<p>A másik játékos ezt választotta: <b>táklok</b>.</p><p>&#x2705;</p><p>A te válaszod és a másik játékos válasza <b>megegyeznek</b>.</p>","null","","","","feedback trial","",""
"html-button-response-esp","39","524557","0.0-11.0-0.14","5691","Te bizony sokat gerénylesz. Én is sokat...","0","gerénylek","[""gerénylek"",""gerénylem""]","gerénylem","esp trial","10","false"
"html-button-response","40","528061","0.0-11.0-1.14","null","<p>A másik játékos ezt választotta: <b>gerénylem</b>.</p><p>&#10060;</p><p>A válaszaitok <b>nem</b> egyeznek meg.</p>","null","","","","feedback trial","",""
"html-button-response-esp","41","534064","0.0-11.0-0.15","4635","Te bizony sokat kumlasz. Én is sokat...","1","kumlok","[""kumlom"",""kumlok""]","kumlom","esp trial","10","false"
"html-button-response","42","537568","0.0-11.0-1.15","null","<p>A másik játékos ezt választotta: <b>kumlom</b>.</p><p>&#10060;</p><p>A válaszaitok <b>nem</b> egyeznek meg.</p>","null","","","","feedback trial","",""
"html-button-response-esp","43","543573","0.0-11.0-0.16","3755","Te bizony sokat floglasz. Én is sokat...","0","floglom","[""floglom"",""floglok""]","floglom","esp trial","10","true"
"html-button-response","44","547077","0.0-11.0-1.16","null","<p>A másik játékos ezt választotta: <b>floglom</b>.</p><p>&#x2705;</p><p>A te válaszod és a másik játékos válasza <b>megegyeznek</b>.</p>","null","","","","feedback trial","",""
"html-button-response-esp","45","556592","0.0-11.0-0.17","9013","Te bizony sokat trihagzol. Én is sokat...","0","trihagzom","[""trihagzom"",""trihagzok""]","trihagzok","esp trial","10","false"
"html-button-response","46","560095","0.0-11.0-1.17","null","<p>A másik játékos ezt választotta: <b>trihagzok</b>.</p><p>&#10060;</p><p>A válaszaitok <b>nem</b> egyeznek meg.</p>","null","","","","feedback trial","",""
"html-button-response-esp","47","570191","0.0-11.0-0.18","9593","Te bizony sokat brarlasz. Én is sokat...","1","brarlom","[""brarlok"",""brarlom""]","brarlom","esp trial","10","true"
"html-button-response","48","573695","0.0-11.0-1.18","null","<p>A másik játékos ezt választotta: <b>brarlom</b>.</p><p>&#x2705;</p><p>A te válaszod és a másik játékos válasza <b>megegyeznek</b>.</p>","null","","","","feedback trial","",""
"html-button-response-esp","49","588754","0.0-11.0-0.19","14557","Te bizony sokat gilárzol. Én is sokat...","1","gilárzok","[""gilárzom"",""gilárzok""]","gilárzok","esp trial","10","true"
"html-button-response","50","592258","0.0-11.0-1.19","null","<p>A másik játékos ezt választotta: <b>gilárzok</b>.</p><p>&#x2705;</p><p>A te válaszod és a másik játékos válasza <b>megegyeznek</b>.</p>","null","","","","feedback trial","",""
"html-button-response-esp","51","598263","0.0-11.0-0.20","4010","Te bizony sokat bivejlesz. Én is sokat...","0","bivejlem","[""bivejlem"",""bivejlek""]","bivejlem","esp trial","10","true"
"html-button-response","52","601766","0.0-11.0-1.20","null","<p>A másik játékos ezt választotta: <b>bivejlem</b>.</p><p>&#x2705;</p><p>A te válaszod és a másik játékos válasza <b>megegyeznek</b>.</p>","null","","","","feedback trial","",""
"html-button-response-esp","53","608512","0.0-11.0-0.21","6244","Te bizony sokat spatszol. Én is sokat...","1","spatszom","[""spatszok"",""spatszom""]","spatszok","esp trial","10","false"
"html-button-response","54","612017","0.0-11.0-1.21","null","<p>A másik játékos ezt választotta: <b>spatszok</b>.</p><p>&#10060;</p><p>A válaszaitok <b>nem</b> egyeznek meg.</p>","null","","","","feedback trial","",""
"html-button-response-esp","55","618020","0.0-11.0-0.22","5482","Te bizony sokat flérlesz. Én is sokat...","0","flérlek","[""flérlek"",""flérlem""]","flérlem","esp trial","10","false"
"html-button-response","56","621524","0.0-11.0-1.22","null","<p>A másik játékos ezt választotta: <b>flérlem</b>.</p><p>&#10060;</p><p>A válaszaitok <b>nem</b> egyeznek meg.</p>","null","","","","feedback trial","",""
"html-button-response-esp","57","627528","0.0-11.0-0.23","4166","Te bizony sokat prezlesz. Én is sokat...","1","prezlem","[""prezlek"",""prezlem""]","prezlem","esp trial","10","true"
"html-button-response","58","631031","0.0-11.0-1.23","null","<p>A másik játékos ezt választotta: <b>prezlem</b>.</p><p>&#x2705;</p><p>A te válaszod és a másik játékos válasza <b>megegyeznek</b>.</p>","null","","","","feedback trial","",""
"html-button-response-esp","59","637974","0.0-11.0-0.24","6441","Te bizony sokat praslasz. Én is sokat...","0","praslom","[""praslom"",""praslok""]","praslom","esp trial","10","true"
"html-button-response","60","641477","0.0-11.0-1.24","null","<p>A másik játékos ezt választotta: <b>praslom</b>.</p><p>&#x2705;</p><p>A te válaszod és a másik játékos válasza <b>megegyeznek</b>.</p>","null","","","","feedback trial","",""
"html-button-response-esp","61","649846","0.0-11.0-0.25","7865","Te bizony sokat prohódzol. Én is sokat...","1","prohódzok","[""prohódzom"",""prohódzok""]","prohódzok","esp trial","10","true"
"html-button-response","62","653349","0.0-11.0-1.25","null","<p>A másik játékos ezt választotta: <b>prohódzok</b>.</p><p>&#x2705;</p><p>A te válaszod és a másik játékos válasza <b>megegyeznek</b>.</p>","null","","","","feedback trial","",""
"html-button-response-esp","63","660880","0.0-11.0-0.26","7029","Te bizony sokat spülöklesz. Én is sokat...","1","spülöklök","[""spülöklöm"",""spülöklök""]","spülöklöm","esp trial","10","false"
"html-button-response","64","664383","0.0-11.0-1.26","null","<p>A másik játékos ezt választotta: <b>spülöklöm</b>.</p><p>&#10060;</p><p>A válaszaitok <b>nem</b> egyeznek meg.</p>","null","","","","feedback trial","",""
"html-button-response-esp","65","674181","0.0-11.0-0.27","9296","Te bizony sokat péleslesz. Én is sokat...","0","péleslek","[""péleslek"",""péleslem""]","péleslem","esp trial","10","false"
"html-button-response","66","677683","0.0-11.0-1.27","null","<p>A másik játékos ezt választotta: <b>péleslem</b>.</p><p>&#10060;</p><p>A válaszaitok <b>nem</b> egyeznek meg.</p>","null","","","","feedback trial","",""
"html-button-response-esp","67","690796","0.0-11.0-0.28","12611","Te bizony sokat spüszlesz. Én is sokat...","0","spüszlök","[""spüszlök"",""spüszlöm""]","spüszlöm","esp trial","10","false"
"html-button-response","68","694300","0.0-11.0-1.28","null","<p>A másik játékos ezt választotta: <b>spüszlöm</b>.</p><p>&#10060;</p><p>A válaszaitok <b>nem</b> egyeznek meg.</p>","null","","","","feedback trial","",""
"html-button-response-esp","69","705537","0.0-11.0-0.29","10734","Te bizony sokat friszlasz. Én is sokat...","0","friszlok","[""friszlok"",""friszlom""]","friszlom","esp trial","10","false"
"html-button-response","70","709040","0.0-11.0-1.29","null","<p>A másik játékos ezt választotta: <b>friszlom</b>.</p><p>&#10060;</p><p>A válaszaitok <b>nem</b> egyeznek meg.</p>","null","","","","feedback trial","",""
"html-button-response-esp","71","717581","0.0-11.0-0.30","8039","Te bizony sokat klidlasz. Én is sokat...","1","klidlok","[""klidlom"",""klidlok""]","klidlom","esp trial","10","false"
"html-button-response","72","721084","0.0-11.0-1.30","null","<p>A másik játékos ezt választotta: <b>klidlom</b>.</p><p>&#10060;</p><p>A válaszaitok <b>nem</b> egyeznek meg.</p>","null","","","","feedback trial","",""
"html-button-response-esp","73","727087","0.0-11.0-0.31","4558","Te bizony sokat spibádzol. Én is sokat...","0","spibádzom","[""spibádzom"",""spibádzok""]","spibádzom","esp trial","10","true"
"html-button-response","74","730589","0.0-11.0-1.31","null","<p>A másik játékos ezt választotta: <b>spibádzom</b>.</p><p>&#x2705;</p><p>A te válaszod és a másik játékos válasza <b>megegyeznek</b>.</p>","null","","","","feedback trial","",""
"html-button-response-esp","75","737603","0.0-11.0-0.32","6514","Te bizony sokat mékszel. Én is sokat...","1","mékszem","[""mékszek"",""mékszem""]","mékszem","esp trial","10","true"
"html-button-response","76","741105","0.0-11.0-1.32","null","<p>A másik játékos ezt választotta: <b>mékszem</b>.</p><p>&#x2705;</p><p>A te válaszod és a másik játékos válasza <b>megegyeznek</b>.</p>","null","","","","feedback trial","",""
"html-button-response-esp","77","750864","0.0-11.0-0.33","9258","Te bizony sokat vihepszel. Én is sokat...","0","vihepszem","[""vihepszem"",""vihepszek""]","vihepszek","esp trial","10","false"
"html-button-response","78","754367","0.0-11.0-1.33","null","<p>A másik játékos ezt választotta: <b>vihepszek</b>.</p><p>&#10060;</p><p>A válaszaitok <b>nem</b> egyeznek meg.</p>","null","","","","feedback trial","",""
"html-button-response-esp","79","760656","0.0-11.0-0.34","5788","Te bizony sokat spírzol. Én is sokat...","1","spírzom","[""spírzok"",""spírzom""]","spírzom","esp trial","10","true"
"html-button-response","80","764159","0.0-11.0-1.34","null","<p>A másik játékos ezt választotta: <b>spírzom</b>.</p><p>&#x2705;</p><p>A te válaszod és a másik játékos válasza <b>megegyeznek</b>.</p>","null","","","","feedback trial","",""
"html-button-response-esp","81","771213","0.0-11.0-0.35","6551","Te bizony sokat livaklasz. Én is sokat...","0","livaklom","[""livaklom"",""livaklok""]","livaklok","esp trial","10","false"
"html-button-response","82","774716","0.0-11.0-1.35","null","<p>A másik játékos ezt választotta: <b>livaklok</b>.</p><p>&#10060;</p><p>A válaszaitok <b>nem</b> egyeznek meg.</p>","null","","","","feedback trial","",""
"html-button-response-esp","83","780720","0.0-11.0-0.36","2968","Te bizony sokat plágadzol. Én is sokat...","1","plágadzom","[""plágadzok"",""plágadzom""]","plágadzok","esp trial","10","false"
"html-button-response","84","784223","0.0-11.0-1.36","null","<p>A másik játékos ezt választotta: <b>plágadzok</b>.</p><p>&#10060;</p><p>A válaszaitok <b>nem</b> egyeznek meg.</p>","null","","","","feedback trial","",""
"html-button-response-esp","85","790225","0.0-11.0-0.37","2107","Te bizony sokat prihekszel. Én is sokat...","0","prihekszem","[""prihekszem"",""prihekszek""]","prihekszem","esp trial","10","true"
"html-button-response","86","793728","0.0-11.0-1.37","null","<p>A másik játékos ezt választotta: <b>prihekszem</b>.</p><p>&#x2705;</p><p>A te válaszod és a másik játékos válasza <b>megegyeznek</b>.</p>","null","","","","feedback trial","",""
"html-button-response-esp","87","799730","0.0-11.0-0.38","3994","Te bizony sokat sztruglasz. Én is sokat...","0","sztruglom","[""sztruglom"",""sztruglok""]","sztruglom","esp trial","10","true"
"html-button-response","88","803232","0.0-11.0-1.38","null","<p>A másik játékos ezt választotta: <b>sztruglom</b>.</p><p>&#x2705;</p><p>A te válaszod és a másik játékos válasza <b>megegyeznek</b>.</p>","null","","","","feedback trial","",""
"html-button-response-esp","89","809234","0.0-11.0-0.39","3323","Te bizony sokat csólorzol. Én is sokat...","1","csólorzok","[""csólorzom"",""csólorzok""]","csólorzok","esp trial","10","true"
"html-button-response","90","812735","0.0-11.0-1.39","null","<p>A másik játékos ezt választotta: <b>csólorzok</b>.</p><p>&#x2705;</p><p>A te válaszod és a másik játékos válasza <b>megegyeznek</b>.</p>","null","","","","feedback trial","",""
"html-button-response-esp","91","818736","0.0-11.0-0.40","3409","Te bizony sokat ibáglasz. Én is sokat...","0","ibáglom","[""ibáglom"",""ibáglok""]","ibáglom","esp trial","10","true"
"html-button-response","92","822237","0.0-11.0-1.40","null","<p>A másik játékos ezt választotta: <b>ibáglom</b>.</p><p>&#x2705;</p><p>A te válaszod és a másik játékos válasza <b>megegyeznek</b>.</p>","null","","","","feedback trial","",""
"html-button-response-esp","93","829069","0.0-11.0-0.41","6331","Te bizony sokat spélszel. Én is sokat...","1","spélszek","[""spélszem"",""spélszek""]","spélszem","esp trial","10","false"
"html-button-response","94","832573","0.0-11.0-1.41","null","<p>A másik játékos ezt választotta: <b>spélszem</b>.</p><p>&#10060;</p><p>A válaszaitok <b>nem</b> egyeznek meg.</p>","null","","","","feedback trial","",""
"html-button-response-esp","95","838577","0.0-11.0-0.42","3832","Te bizony sokat frivajlasz. Én is sokat...","0","frivajlom","[""frivajlom"",""frivajlok""]","frivajlom","esp trial","10","true"
"html-button-response","96","842080","0.0-11.0-1.42","null","<p>A másik játékos ezt választotta: <b>frivajlom</b>.</p><p>&#x2705;</p><p>A te válaszod és a másik játékos válasza <b>megegyeznek</b>.</p>","null","","","","feedback trial","",""
"html-button-response-esp","97","848476","0.0-11.0-0.43","5893","Te bizony sokat tuboklasz. Én is sokat...","0","tuboklom","[""tuboklom"",""tuboklok""]","tuboklom","esp trial","10","true"
"html-button-response","98","851979","0.0-11.0-1.43","null","<p>A másik játékos ezt választotta: <b>tuboklom</b>.</p><p>&#x2705;</p><p>A te válaszod és a másik játékos válasza <b>megegyeznek</b>.</p>","null","","","","feedback trial","",""
"html-button-response-esp","99","857982","0.0-11.0-0.44","4081","Te bizony sokat pugoslasz. Én is sokat...","1","pugoslok","[""pugoslom"",""pugoslok""]","pugoslom","esp trial","10","false"
"html-button-response","100","861485","0.0-11.0-1.44","null","<p>A másik játékos ezt választotta: <b>pugoslom</b>.</p><p>&#10060;</p><p>A válaszaitok <b>nem</b> egyeznek meg.</p>","null","","","","feedback trial","",""
"html-button-response-esp","101","867487","0.0-11.0-0.45","3875","Te bizony sokat huklasz. Én is sokat...","0","huklom","[""huklom"",""huklok""]","huklom","esp trial","10","true"
"html-button-response","102","870991","0.0-11.0-1.45","null","<p>A másik játékos ezt választotta: <b>huklom</b>.</p><p>&#x2705;</p><p>A te válaszod és a másik játékos válasza <b>megegyeznek</b>.</p>","null","","","","feedback trial","",""
"html-button-response-esp","103","876994","0.0-11.0-0.46","3839","Te bizony sokat sprálszol. Én is sokat...","0","sprálszok","[""sprálszok"",""sprálszom""]","sprálszok","esp trial","10","true"
"html-button-response","104","880497","0.0-11.0-1.46","null","<p>A másik játékos ezt választotta: <b>sprálszok</b>.</p><p>&#x2705;</p><p>A te válaszod és a másik játékos válasza <b>megegyeznek</b>.</p>","null","","","","feedback trial","",""
"html-button-response-esp","105","886503","0.0-11.0-0.47","5250","Te bizony sokat fivénylesz. Én is sokat...","0","fivénylek","[""fivénylek"",""fivénylem""]","fivénylem","esp trial","10","false"
"html-button-response","106","890008","0.0-11.0-1.47","null","<p>A másik játékos ezt választotta: <b>fivénylem</b>.</p><p>&#10060;</p><p>A válaszaitok <b>nem</b> egyeznek meg.</p>","null","","","","feedback trial","",""
"html-button-response-esp","107","896224","0.0-11.0-0.48","5712","Te bizony sokat plövőrzöl. Én is sokat...","1","plövőrzök","[""plövőrzöm"",""plövőrzök""]","plövőrzöm","esp trial","10","false"
"html-button-response","108","899728","0.0-11.0-1.48","null","<p>A másik játékos ezt választotta: <b>plövőrzöm</b>.</p><p>&#10060;</p><p>A válaszaitok <b>nem</b> egyeznek meg.</p>","null","","","","feedback trial","",""
"html-button-response-esp","109","905731","0.0-11.0-0.49","2838","Te bizony sokat lihadzol. Én is sokat...","0","lihadzom","[""lihadzom"",""lihadzok""]","lihadzom","esp trial","10","true"
"html-button-response","110","909235","0.0-11.0-1.49","null","<p>A másik játékos ezt választotta: <b>lihadzom</b>.</p><p>&#x2705;</p><p>A te válaszod és a másik játékos válasza <b>megegyeznek</b>.</p>","null","","","","feedback trial","",""
"html-button-response-esp","111","915239","0.0-11.0-0.50","4381","Te bizony sokat flözlesz. Én is sokat...","1","flözlök","[""flözlöm"",""flözlök""]","flözlöm","esp trial","10","false"
"html-button-response","112","918743","0.0-11.0-1.50","null","<p>A másik játékos ezt választotta: <b>flözlöm</b>.</p><p>&#10060;</p><p>A válaszaitok <b>nem</b> egyeznek meg.</p>","null","","","","feedback trial","",""
"html-button-response-esp","113","941630","0.0-11.0-0.51","22384","Te bizony sokat frágapszol. Én is sokat...","1","frágapszom","[""frágapszok"",""frágapszom""]","frágapszok","esp trial","10","false"
"html-button-response","114","945134","0.0-11.0-1.51","null","<p>A másik játékos ezt választotta: <b>frágapszok</b>.</p><p>&#10060;</p><p>A válaszaitok <b>nem</b> egyeznek meg.</p>","null","","","","feedback trial","",""
"html-button-response-esp","115","951137","0.0-11.0-0.52","3925","Te bizony sokat gyibakszol. Én is sokat...","0","gyibakszom","[""gyibakszom"",""gyibakszok""]","gyibakszok","esp trial","10","false"
"html-button-response","116","954641","0.0-11.0-1.52","null","<p>A másik játékos ezt választotta: <b>gyibakszok</b>.</p><p>&#10060;</p><p>A válaszaitok <b>nem</b> egyeznek meg.</p>","null","","","","feedback trial","",""
"html-button-response-esp","117","960644","0.0-11.0-0.53","2945","Te bizony sokat fligzol. Én is sokat...","1","fligzok","[""fligzom"",""fligzok""]","fligzok","esp trial","10","true"
"html-button-response","118","964148","0.0-11.0-1.53","null","<p>A másik játékos ezt választotta: <b>fligzok</b>.</p><p>&#x2705;</p><p>A te válaszod és a másik játékos válasza <b>megegyeznek</b>.</p>","null","","","","feedback trial","",""
"html-button-response","119","982620","0.0-12.0","17969","<p>A közös játék most véget ért.</p><p>Mielőtt eláruljuk a végső pontszámodat, arra kérlek, játszd a szóválasztós játékot néhány percig egyedül is.</p><p>A feladatod ugyanaz lesz, választani két lehetőség közül.</p><p>Most viszont egyedül kell döntened, hogy te melyiket választanád.</p>","0","","","","","",""
"html-button-response-clever","120","987046","0.0-13.0-0.0","3922","Te bizony sokat femlesz. Én is sokat...","1","femlek","[""femlem"",""femlek""]","","posttest trial","1",""
"html-button-response-clever","121","990165","0.0-13.0-0.1","2615","Te bizony sokat trilszol. Én is sokat...","1","trilszom","[""trilszok"",""trilszom""]","","posttest trial","1",""
"html-button-response-clever","122","993119","0.0-13.0-0.2","2452","Te bizony sokat spéslesz. Én is sokat...","1","spéslek","[""spéslem"",""spéslek""]","","posttest trial","1",""
"html-button-response-clever","123","998655","0.0-13.0-0.3","5034","Te bizony sokat spibaklasz. Én is sokat...","1","spibaklom","[""spibaklok"",""spibaklom""]","","posttest trial","1",""
"html-button-response-clever","124","1009290","0.0-13.0-0.4","10133","Te bizony sokat pebzel. Én is sokat...","1","pebzek","[""pebzem"",""pebzek""]","","posttest trial","1",""
"html-button-response-clever","125","1013018","0.0-13.0-0.5","3226","Te bizony sokat vilakszol. Én is sokat...","0","vilakszom","[""vilakszom"",""vilakszok""]","","posttest trial","1",""
"html-button-response-clever","126","1018445","0.0-13.0-0.6","4924","Te bizony sokat brágaklasz. Én is sokat...","0","brágaklom","[""brágaklom"",""brágaklok""]","","posttest trial","1",""
"html-button-response-clever","127","1022733","0.0-13.0-0.7","3786","Te bizony sokat fibamlasz. Én is sokat...","1","fibamlok","[""fibamlom"",""fibamlok""]","","posttest trial","1",""
"html-button-response-clever","128","1026301","0.0-13.0-0.8","3064","Te bizony sokat hilarzol. Én is sokat...","0","hilarzom","[""hilarzom"",""hilarzok""]","","posttest trial","1",""
"html-button-response-clever","129","1034036","0.0-13.0-0.9","7231","Te bizony sokat tomlasz. Én is sokat...","1","tomlok","[""tomlom"",""tomlok""]","","posttest trial","1",""
"html-button-response-clever","130","1037423","0.0-13.0-0.10","2885","Te bizony sokat nyáslasz. Én is sokat...","0","nyáslok","[""nyáslok"",""nyáslom""]","","posttest trial","1",""
"html-button-response-clever","131","1041388","0.0-13.0-0.11","3462","Te bizony sokat klörlesz. Én is sokat...","0","klörlöm","[""klörlöm"",""klörlök""]","","posttest trial","1",""
"html-button-response-clever","132","1044844","0.0-13.0-0.12","2953","Te bizony sokat tínylasz. Én is sokat...","1","tínylok","[""tínylom"",""tínylok""]","","posttest trial","1",""
"html-button-response-clever","133","1048246","0.0-13.0-0.13","2899","Te bizony sokat prűrlesz. Én is sokat...","0","prűrlök","[""prűrlök"",""prűrlöm""]","","posttest trial","1",""
"html-button-response-clever","134","1051979","0.0-13.0-0.14","3230","Te bizony sokat lorjódzol. Én is sokat...","0","lorjódzom","[""lorjódzom"",""lorjódzok""]","","posttest trial","1",""
"html-button-response-clever","135","1056143","0.0-13.0-0.15","3661","Te bizony sokat sojzol. Én is sokat...","0","sojzok","[""sojzok"",""sojzom""]","","posttest trial","1",""
"html-button-response-clever","136","1058724","0.0-13.0-0.16","2078","Te bizony sokat büglesz. Én is sokat...","1","büglöm","[""büglök"",""büglöm""]","","posttest trial","1",""
"html-button-response-clever","137","1063433","0.0-13.0-0.17","4206","Te bizony sokat ribegzel. Én is sokat...","1","ribegzem","[""ribegzek"",""ribegzem""]","","posttest trial","1",""
"html-button-response-clever","138","1067398","0.0-13.0-0.18","3463","Te bizony sokat juszlasz. Én is sokat...","0","juszlom","[""juszlom"",""juszlok""]","","posttest trial","1",""
"html-button-response-clever","139","1071050","0.0-13.0-0.19","3150","Te bizony sokat piragszol. Én is sokat...","0","piragszom","[""piragszom"",""piragszok""]","","posttest trial","1",""
"html-button-response-clever","140","1074269","0.0-13.0-0.20","2716","Te bizony sokat pivegszel. Én is sokat...","0","pivegszem","[""pivegszem"",""pivegszek""]","","posttest trial","1",""
"html-button-response-clever","141","1077250","0.0-13.0-0.21","2478","Te bizony sokat brüjlesz. Én is sokat...","1","brüjlöm","[""brüjlök"",""brüjlöm""]","","posttest trial","1",""
"html-button-response-clever","142","1084007","0.0-13.0-0.22","6255","Te bizony sokat málapszol. Én is sokat...","1","málapszom","[""málapszok"",""málapszom""]","","posttest trial","1",""
"html-button-response-clever","143","1104248","0.0-13.0-0.23","19739","Te bizony sokat csíszlasz. Én is sokat...","1","csíszlok","[""csíszlom"",""csíszlok""]","","posttest trial","1",""
"html-button-response-clever","144","1108012","0.0-13.0-0.24","3261","Te bizony sokat böjzöl. Én is sokat...","0","böjzök","[""böjzök"",""böjzöm""]","","posttest trial","1",""
"html-button-response-clever","145","1110847","0.0-13.0-0.25","2332","Te bizony sokat siladzol. Én is sokat...","1","siladzom","[""siladzok"",""siladzom""]","","posttest trial","1",""
"html-button-response-clever","146","1115395","0.0-13.0-0.26","4047","Te bizony sokat feténylesz. Én is sokat...","0","feténylek","[""feténylek"",""feténylem""]","","posttest trial","1",""
"html-button-response-clever","147","1118034","0.0-13.0-0.27","2135","Te bizony sokat ruslasz. Én is sokat...","1","ruslom","[""ruslok"",""ruslom""]","","posttest trial","1",""
"html-button-response-clever","148","1122879","0.0-13.0-0.28","4343","Te bizony sokat sprökszöl. Én is sokat...","1","sprökszök","[""sprökszöm"",""sprökszök""]","","posttest trial","1",""
"html-button-response-clever","149","1128858","0.0-13.0-0.29","5476","Te bizony sokat szirlasz. Én is sokat...","1","szirlok","[""szirlom"",""szirlok""]","","posttest trial","1",""
"html-button-response-clever","150","1133286","0.0-13.0-0.30","3926","Te bizony sokat spatárzol. Én is sokat...","1","spatárzok","[""spatárzom"",""spatárzok""]","","posttest trial","1",""
"html-button-response-clever","151","1140543","0.0-13.0-0.31","6754","Te bizony sokat bölszöl. Én is sokat...","1","bölszöm","[""bölszök"",""bölszöm""]","","posttest trial","1",""
"html-button-response-clever","152","1145163","0.0-13.0-0.32","4118","Te bizony sokat frilegszel. Én is sokat...","0","frilegszem","[""frilegszem"",""frilegszek""]","","posttest trial","1",""
"html-button-response-clever","153","1148485","0.0-13.0-0.33","2821","Te bizony sokat ribzol. Én is sokat...","0","ribzok","[""ribzok"",""ribzom""]","","posttest trial","1",""
"html-button-response-clever","154","1152262","0.0-13.0-0.34","3274","Te bizony sokat drubódzol. Én is sokat...","1","drubódzok","[""drubódzom"",""drubódzok""]","","posttest trial","1",""
"html-button-response-clever","155","1156177","0.0-13.0-0.35","3413","Te bizony sokat flüröslesz. Én is sokat...","0","flüröslöm","[""flüröslöm"",""flüröslök""]","","posttest trial","1",""
"html-button-response-clever","156","1159925","0.0-13.0-0.36","3245","Te bizony sokat flűröklesz. Én is sokat...","1","flűröklöm","[""flűröklök"",""flűröklöm""]","","posttest trial","1",""
"html-button-response-clever","157","1162180","0.0-13.0-0.37","1753","Te bizony sokat herégszel. Én is sokat...","1","herégszek","[""herégszem"",""herégszek""]","","posttest trial","1",""
"html-button-response-clever","158","1165379","0.0-13.0-0.38","2696","Te bizony sokat spűmlesz. Én is sokat...","1","spűmlök","[""spűmlöm"",""spűmlök""]","","posttest trial","1",""
"html-button-response-clever","159","1170115","0.0-13.0-0.39","4233","Te bizony sokat prilegzel. Én is sokat...","0","prilegzek","[""prilegzek"",""prilegzem""]","","posttest trial","1",""
"html-button-response-clever","160","1172052","0.0-13.0-0.40","1434","Te bizony sokat spilágzol. Én is sokat...","0","spilágzom","[""spilágzom"",""spilágzok""]","","posttest trial","1",""
"html-button-response-clever","161","1176838","0.0-13.0-0.41","4283","Te bizony sokat driládzol. Én is sokat...","0","driládzom","[""driládzom"",""driládzok""]","","posttest trial","1",""
"html-button-response-clever","162","1180900","0.0-13.0-0.42","3559","Te bizony sokat fretszel. Én is sokat...","0","fretszek","[""fretszek"",""fretszem""]","","posttest trial","1",""
"html-button-response-clever","163","1183404","0.0-13.0-0.43","2002","Te bizony sokat sűzlesz. Én is sokat...","1","sűzlöm","[""sűzlök"",""sűzlöm""]","","posttest trial","1",""
"html-button-response-clever","164","1189805","0.0-13.0-0.44","5899","Te bizony sokat sprogzol. Én is sokat...","1","sprogzok","[""sprogzom"",""sprogzok""]","","posttest trial","1",""
"html-button-response-clever","165","1193669","0.0-13.0-0.45","3361","Te bizony sokat tiregzel. Én is sokat...","0","tiregzem","[""tiregzem"",""tiregzek""]","","posttest trial","1",""
"html-button-response-clever","166","1199764","0.0-13.0-0.46","5592","Te bizony sokat sztremlesz. Én is sokat...","0","sztremlek","[""sztremlek"",""sztremlem""]","","posttest trial","1",""
"html-button-response-clever","167","1203894","0.0-13.0-0.47","3628","Te bizony sokat pratánylasz. Én is sokat...","0","pratánylok","[""pratánylok"",""pratánylom""]","","posttest trial","1",""
"html-button-response-clever","168","1208136","0.0-13.0-0.48","3738","Te bizony sokat flagánylasz. Én is sokat...","1","flagánylok","[""flagánylom"",""flagánylok""]","","posttest trial","1",""
"html-button-response-clever","169","1211303","0.0-13.0-0.49","2665","Te bizony sokat marzol. Én is sokat...","1","marzom","[""marzok"",""marzom""]","","posttest trial","1",""
"html-button-response-clever","170","1215238","0.0-13.0-0.50","3432","Te bizony sokat klibamlasz. Én is sokat...","0","klibamlom","[""klibamlom"",""klibamlok""]","","posttest trial","1",""
"html-button-response-clever","171","1218981","0.0-13.0-0.51","3242","Te bizony sokat narjárzol. Én is sokat...","1","narjárzok","[""narjárzom"",""narjárzok""]","","posttest trial","1",""
"html-button-response-clever","172","1227755","0.0-13.0-0.52","8270","Te bizony sokat flagárzol. Én is sokat...","0","flagárzok","[""flagárzok"",""flagárzom""]","","posttest trial","1",""
"html-button-response-clever","173","1233309","0.0-13.0-0.53","5052","Te bizony sokat jüslesz. Én is sokat...","0","jüslök","[""jüslök"",""jüslöm""]","","posttest trial","1",""
"html-button-response","174","1242477","0.0-14.0","8663","<p> Vége a játéknak. A teljes pontszámod 28/54.</p><p> Szép munka! &#128526;&#128526;&#128526;</p><p>A Befejezés gomb megnyomása után bezárhatod a böngészőablakot.</p>","0","","","","","",""
"html-keyboard-response","175","1247982","0.0-15.0","null","<div class=""message"">
         <p>Egy kis türelmet kérünk, amíg elmentjük az adatokat...</p>
         </div>","null","","","","","",""
