"trial_type","trial_index","time_elapsed","internal_node_id","rt","stimulus","response","response_string","choices","esp_response","trial_kind","list_number","esp_match"
"pavlovia","0","625","0.0-0.0","","","","","","","","",""
"html-button-response","1","158903","0.0-1.0","157777","<p>Kedves Résztvevő! A Budapesti Műszaki és Gazdaságtudományi Egyetem Kognitív Tudományi Tanszékének kutatásában való részvételed kérjük. A kutatásban azt vizsgáljuk, hogy a magyar anyanyelvűek hogyan használnak bizonyos szóalakokat, és hogy milyen képük van arról, hogy mások hogyan használják, hogyan képzik a szavakat. Ez hozzásegít bennünket ahhoz, hogy jobban megértsük, hogyan dolgozza fel és tárolja a nyelvet az emberi agy, és hogyan működnek, hogyan változnak egy adott közösség nyelvi konvenciói.</p><p>A vizsgálat egy rövid számítógépes feladatból fog állni. A kutatásban való részvétel önkéntes, a részvételi szándék bármikor visszavonható. A résztvevők eredményeit név nélkül kezeljük, így nem beazonosíthatók az adatok feldolgozása során. Minden személyes adatot az EU általános adatvédelmi rendeletének (GDPR) megfelelően kezelünk és legfeljebb öt éven belül megsemmisítünk. A vizsgálat jellemzően húsz percet vesz igénybe.</p><p>Kutatásvezető:</p><p>Dr. Rácz Péter, tudományos munkatárs, BME KTT</p><p>e-mail: racz.peter.marton@ttk.bme.hu</p>","0","","","","","",""
"html-button-response","2","191059","0.0-2.0","31654","<p>A kísérletben szavakat fogsz látni. Ezek között lesznek olyanok, amelyeket ismersz, de előfordulhatnak olyanok is, amelyeket nem ismersz, sőt, vannak köztük kitalált szavak is. Minden szónál látni fogsz toldalékolt alakokat. A te feladatod az lesz, hogy minden szóhoz kiválaszd azt a toldalékolt alakot, amely a te számodra ismerősebben, természetesebben hangzik. Rossz válaszok nincsenek, mert van olyan, hogy különböző embereknek más és más szó tűnik jobb választásnak. A választ úgy tudod majd kiválasztani, ha rákattintasz.</p><p>Ebben a szóválasztós játékban egy másik játékossal együtt veszel majd részt. A másik játékos is minden esetben azok közül a lehetőségek közül válogathat, mint te. Kettőtök feladata az, hogy ugyanazt a lehetőséget válasszátok minden esetben. Ahhoz, hogy ez sikerüljön, neked figyelned kell arra, hogy a másik játékos milyen válaszokat ad, és ennek alapján meg kell tippelned, hogyan választ legközelebb. Ha eltalálod, akkor pontot kapsz.</p>","0","","","","","",""
"html-button-response","3","196606","0.0-3.0","5040","<p>Kérjük, olvasd el az alábbi nyilatkozatot, és amennyiben egyetértesz vele, nyomj a Beleegyezés gombra!</p><p>Kijelentem, hogy magyar anyanyelvű személyként önként veszek részt a BME KTT kísérletében. A kutatás céljával és folyamatával kapcsolatban elegendő tájékoztatást kaptam, lehetőségem volt kérdések feltételére, és esetleges kérdéseimre megfelelő válaszokat kaptam. A tájékoztatás alapján elegendő mennyiségű információ áll a rendelkezésemre, hogy eldönthessem, részt kívánok-e venni a kutatásban.</p><p>Tisztában vagyok vele, hogy részvételi szándékomat és adataimat bármikor, indoklás nélkül visszavonhatom.</p><p>Értem és tudomásul veszem, hogy a kutatás tudományos célokat szolgál, és az általam szolgáltatott adatokat a BME kizárólag kutatási célból használja fel. Tudomásul veszem, hogy eredményeimet a többi résztvevő eredményeivel együtt kezelik, így egyéni teljesítményemről visszajelzést, szakvéleményt nem kapok.</p><p>Megértettem, hogy adataim kezelését illetően a BME az EU általános adatvédelmi rendelete (GDPR), a hatályos adatvédelmi törvény és a nemzetközi kutatás-etikai alapelvek szerint jár el. Eredményeim anonim módon kerülnek feldolgozásra, és a kutatás résztvevői az azonosításomra alkalmas adataimat harmadik félnek nem szolgáltatják ki. Engedélyezem a BME számára a jelen kutatásban felvett adataim feldolgozását és tárolását, beleértve azok későbbi kutatásokhoz való felhasználását is. Személyes adataim kezelésével kapcsolatban tájékoztatást kérhetek a kutatás résztvevőitől, az adatkezelés ellen tiltakozhatok, kérhetem személyes adataim helyesbítését, törlését vagy zárolását, valamint jogorvoslatért a Nemzeti Adatvédelmi és Információszabadság Hatósághoz fordulhatok.</p><p>Kijelentem, hogy a kutatásban való részvételem körülményeiről részletes tájékoztatást kaptam, és a feltételeket elfogadom.</p>","0","","","","","",""
"survey-text","4","264998","0.0-4.0","67886","","{""Q0"":""HVOMDH"",""Q1"":""férfi"",""Q2"":""2000"",""Q3"":""17""}","","","","","",""
"html-button-response","5","280990","0.0-5.0","15475","<p>Ebben a játékban szavakat kell toldalékolni.</p> <p>Minden körben mutatunk majd egy példamondatot, amiben lesz egy szó.</p> <p>Alatta jön egy második mondat, ezt a mondatot neked kell majd befejezni, ugyanezzel a szóval.</p> <p>Nem biztos, hogy a szó eleve ismerős lesz számodra!</p> <p>Minden mondathoz adunk két lehetőséget, ezeket balra és jobbra látod majd.</p> <p>A játék kb. negyedóráig-húsz percig tart.</p>","0","","","","","",""
"html-button-response","6","303404","0.0-6.0","21904","<p>Nézzünk egy példát!</p> <p>A példamondat: ""János nagyon szeret rancsúrozni.""</p><p>Neked ezt a mondatot kell befejezned: ""Én is szívesen...""</p><p>A lehetőségek pedig ezek:</p>","1","","","","","",""
"html-button-response","7","312678","0.0-7.0","8764","<p>Nagyon jó.</p><p>Ezt a játékot nem egyedül fogod játszani, hanem egy másik játékossal.</p><p>Mielőtt továbblépünk, összekapcsolunk titeket egymással.</p><p>Ez igénybe vehet néhány másodpercet, amihez szíves türelmed kérjük.</p>","0","","","","","",""
"html-button-response","8","318415","0.0-8.0","null","<p>Csatlakozás a másik játékoshoz...</p>","null","","","","","",""
"html-button-response","9","320933","0.0-9.0","null","<p> Sikeres kapcsolódás!</p>","null","","","","","",""
"html-button-response","10","331456","0.0-10.0","null","<p>A következőkben ketten játsszátok a szóválasztós játékot.</p><p>A feladatotok az lesz, hogy minden körben <b>ugyanazt</b> a szót válasszátok.</p><p>Minden ilyen egyező válaszért pontot kaptok.</p><p>Próbáld meg kitalálni, mit választ a másik játékos!</p><p>Bármikor választhatsz, a körnek akkor van vége, ha mindketten döntöttetek.</p><p>Sok sikert!</p>","null","","","","","",""
"html-button-response-esp","11","348552","0.0-11.0-0.0","16578","Te bizony sokat klörlesz. Én is sokat...","1","klörlök","[""klörlöm"",""klörlök""]","klörlök","esp trial","0","true"
"html-button-response","12","352063","0.0-11.0-1.0","null","<p>A másik játékos ezt választotta: <b>klörlök</b>.</p><p>&#x2705;</p><p>A te válaszod és a másik játékos válasza <b>megegyeznek</b>.</p>","null","","","","feedback trial","",""
"html-button-response-esp","13","359854","0.0-11.0-0.1","7275","Te bizony sokat driládzol. Én is sokat...","1","driládzok","[""driládzom"",""driládzok""]","driládzok","esp trial","0","true"
"html-button-response","14","363378","0.0-11.0-1.1","null","<p>A másik játékos ezt választotta: <b>driládzok</b>.</p><p>&#x2705;</p><p>A te válaszod és a másik játékos válasza <b>megegyeznek</b>.</p>","null","","","","feedback trial","",""
"html-button-response-esp","15","369673","0.0-11.0-0.2","5787","Te bizony sokat jüslesz. Én is sokat...","1","jüslök","[""jüslöm"",""jüslök""]","jüslöm","esp trial","0","false"
"html-button-response","16","373181","0.0-11.0-1.2","null","<p>A másik játékos ezt választotta: <b>jüslöm</b>.</p><p>&#10060;</p><p>A válaszaitok <b>nem</b> egyeznek meg.</p>","null","","","","feedback trial","",""
"html-button-response-esp","17","383612","0.0-11.0-0.3","9926","Te bizony sokat spéslesz. Én is sokat...","1","spéslek","[""spéslem"",""spéslek""]","spéslem","esp trial","0","false"
"html-button-response","18","387130","0.0-11.0-1.3","null","<p>A másik játékos ezt választotta: <b>spéslem</b>.</p><p>&#10060;</p><p>A válaszaitok <b>nem</b> egyeznek meg.</p>","null","","","","feedback trial","",""
"html-button-response-esp","19","394040","0.0-11.0-0.4","6399","Te bizony sokat nyáslasz. Én is sokat...","1","nyáslok","[""nyáslom"",""nyáslok""]","nyáslok","esp trial","0","true"
"html-button-response","20","397553","0.0-11.0-1.4","null","<p>A másik játékos ezt választotta: <b>nyáslok</b>.</p><p>&#x2705;</p><p>A te válaszod és a másik játékos válasza <b>megegyeznek</b>.</p>","null","","","","feedback trial","",""
"html-button-response-esp","21","408958","0.0-11.0-0.5","10896","Te bizony sokat spatárzol. Én is sokat...","1","spatárzom","[""spatárzok"",""spatárzom""]","spatárzok","esp trial","0","false"
"html-button-response","22","412469","0.0-11.0-1.5","null","<p>A másik játékos ezt választotta: <b>spatárzok</b>.</p><p>&#10060;</p><p>A válaszaitok <b>nem</b> egyeznek meg.</p>","null","","","","feedback trial","",""
"html-button-response-esp","23","417810","0.0-11.0-0.6","4822","Te bizony sokat büglesz. Én is sokat...","0","büglök","[""büglök"",""büglöm""]","büglöm","esp trial","0","false"
"html-button-response","24","421317","0.0-11.0-1.6","null","<p>A másik játékos ezt választotta: <b>büglöm</b>.</p><p>&#10060;</p><p>A válaszaitok <b>nem</b> egyeznek meg.</p>","null","","","","feedback trial","",""
"html-button-response-esp","25","429904","0.0-11.0-0.7","8073","Te bizony sokat prűrlesz. Én is sokat...","0","prűrlök","[""prűrlök"",""prűrlöm""]","prűrlöm","esp trial","0","false"
"html-button-response","26","433421","0.0-11.0-1.7","null","<p>A másik játékos ezt választotta: <b>prűrlöm</b>.</p><p>&#10060;</p><p>A válaszaitok <b>nem</b> egyeznek meg.</p>","null","","","","feedback trial","",""
"html-button-response-esp","27","442540","0.0-11.0-0.8","8607","Te bizony sokat piragszol. Én is sokat...","1","piragszok","[""piragszom"",""piragszok""]","piragszok","esp trial","0","true"
"html-button-response","28","446045","0.0-11.0-1.8","null","<p>A másik játékos ezt választotta: <b>piragszok</b>.</p><p>&#x2705;</p><p>A te válaszod és a másik játékos válasza <b>megegyeznek</b>.</p>","null","","","","feedback trial","",""
"html-button-response-esp","29","451377","0.0-11.0-0.9","4831","Te bizony sokat hilarzol. Én is sokat...","1","hilarzom","[""hilarzok"",""hilarzom""]","hilarzok","esp trial","0","false"
"html-button-response","30","454894","0.0-11.0-1.9","null","<p>A másik játékos ezt választotta: <b>hilarzok</b>.</p><p>&#10060;</p><p>A válaszaitok <b>nem</b> egyeznek meg.</p>","null","","","","feedback trial","",""
"html-button-response-esp","31","466730","0.0-11.0-0.10","11333","Te bizony sokat drubódzol. Én is sokat...","0","drubódzom","[""drubódzom"",""drubódzok""]","drubódzok","esp trial","0","false"
"html-button-response","32","470268","0.0-11.0-1.10","null","<p>A másik játékos ezt választotta: <b>drubódzok</b>.</p><p>&#10060;</p><p>A válaszaitok <b>nem</b> egyeznek meg.</p>","null","","","","feedback trial","",""
"html-button-response-esp","33","475969","0.0-11.0-0.11","5188","Te bizony sokat sojzol. Én is sokat...","1","sojzok","[""sojzom"",""sojzok""]","sojzok","esp trial","0","true"
"html-button-response","34","479499","0.0-11.0-1.11","null","<p>A másik játékos ezt választotta: <b>sojzok</b>.</p><p>&#x2705;</p><p>A te válaszod és a másik játékos válasza <b>megegyeznek</b>.</p>","null","","","","feedback trial","",""
"html-button-response-esp","35","484213","0.0-11.0-0.12","1294","Te bizony sokat flüröslesz. Én is sokat...","1","flüröslök","[""flüröslöm"",""flüröslök""]","flüröslök","esp trial","0","true"
"html-button-response","36","487733","0.0-11.0-1.12","null","<p>A másik játékos ezt választotta: <b>flüröslök</b>.</p><p>&#x2705;</p><p>A te válaszod és a másik játékos válasza <b>megegyeznek</b>.</p>","null","","","","feedback trial","",""
"html-button-response-esp","37","492447","0.0-11.0-0.13","1998","Te bizony sokat tomlasz. Én is sokat...","1","tomlok","[""tomlom"",""tomlok""]","tomlom","esp trial","0","false"
"html-button-response","38","495971","0.0-11.0-1.13","null","<p>A másik játékos ezt választotta: <b>tomlom</b>.</p><p>&#10060;</p><p>A válaszaitok <b>nem</b> egyeznek meg.</p>","null","","","","feedback trial","",""
"html-button-response-esp","39","503120","0.0-11.0-0.14","6642","Te bizony sokat klibamlasz. Én is sokat...","1","klibamlok","[""klibamlom"",""klibamlok""]","klibamlok","esp trial","0","true"
"html-button-response","40","506653","0.0-11.0-1.14","null","<p>A másik játékos ezt választotta: <b>klibamlok</b>.</p><p>&#x2705;</p><p>A te válaszod és a másik játékos válasza <b>megegyeznek</b>.</p>","null","","","","feedback trial","",""
"html-button-response-esp","41","511357","0.0-11.0-0.15","3259","Te bizony sokat pebzel. Én is sokat...","1","pebzem","[""pebzek"",""pebzem""]","pebzek","esp trial","0","false"
"html-button-response","42","514870","0.0-11.0-1.15","null","<p>A másik játékos ezt választotta: <b>pebzek</b>.</p><p>&#10060;</p><p>A válaszaitok <b>nem</b> egyeznek meg.</p>","null","","","","feedback trial","",""
"html-button-response-esp","43","519600","0.0-11.0-0.16","3086","Te bizony sokat fretszel. Én is sokat...","0","fretszek","[""fretszek"",""fretszem""]","fretszek","esp trial","0","true"
"html-button-response","44","523128","0.0-11.0-1.16","null","<p>A másik játékos ezt választotta: <b>fretszek</b>.</p><p>&#x2705;</p><p>A te válaszod és a másik játékos válasza <b>megegyeznek</b>.</p>","null","","","","feedback trial","",""
"html-button-response-esp","45","530438","0.0-11.0-0.17","6796","Te bizony sokat fibamlasz. Én is sokat...","0","fibamlok","[""fibamlok"",""fibamlom""]","fibamlom","esp trial","0","false"
"html-button-response","46","533953","0.0-11.0-1.17","null","<p>A másik játékos ezt választotta: <b>fibamlom</b>.</p><p>&#10060;</p><p>A válaszaitok <b>nem</b> egyeznek meg.</p>","null","","","","feedback trial","",""
"html-button-response-esp","47","538670","0.0-11.0-0.18","3948","Te bizony sokat juszlasz. Én is sokat...","0","juszlok","[""juszlok"",""juszlom""]","juszlok","esp trial","0","true"
"html-button-response","48","542189","0.0-11.0-1.18","null","<p>A másik játékos ezt választotta: <b>juszlok</b>.</p><p>&#x2705;</p><p>A te válaszod és a másik játékos válasza <b>megegyeznek</b>.</p>","null","","","","feedback trial","",""
"html-button-response-esp","49","547465","0.0-11.0-0.19","4761","Te bizony sokat pivegszel. Én is sokat...","1","pivegszem","[""pivegszek"",""pivegszem""]","pivegszek","esp trial","0","false"
"html-button-response","50","551001","0.0-11.0-1.19","null","<p>A másik játékos ezt választotta: <b>pivegszek</b>.</p><p>&#10060;</p><p>A válaszaitok <b>nem</b> egyeznek meg.</p>","null","","","","feedback trial","",""
"html-button-response-esp","51","556752","0.0-11.0-0.20","5239","Te bizony sokat flagánylasz. Én is sokat...","1","flagánylok","[""flagánylom"",""flagánylok""]","flagánylom","esp trial","0","false"
"html-button-response","52","560261","0.0-11.0-1.20","null","<p>A másik játékos ezt választotta: <b>flagánylom</b>.</p><p>&#10060;</p><p>A válaszaitok <b>nem</b> egyeznek meg.</p>","null","","","","feedback trial","",""
"html-button-response-esp","53","564965","0.0-11.0-0.21","3251","Te bizony sokat ribzol. Én is sokat...","0","ribzok","[""ribzok"",""ribzom""]","ribzok","esp trial","0","true"
"html-button-response","54","568481","0.0-11.0-1.21","null","<p>A másik játékos ezt választotta: <b>ribzok</b>.</p><p>&#x2705;</p><p>A te válaszod és a másik játékos válasza <b>megegyeznek</b>.</p>","null","","","","feedback trial","",""
"html-button-response-esp","55","573201","0.0-11.0-0.22","3129","Te bizony sokat tínylasz. Én is sokat...","1","tínylom","[""tínylok"",""tínylom""]","tínylok","esp trial","0","false"
"html-button-response","56","576717","0.0-11.0-1.22","null","<p>A másik játékos ezt választotta: <b>tínylok</b>.</p><p>&#10060;</p><p>A válaszaitok <b>nem</b> egyeznek meg.</p>","null","","","","feedback trial","",""
"html-button-response-esp","57","581449","0.0-11.0-0.23","3779","Te bizony sokat flagárzol. Én is sokat...","0","flagárzom","[""flagárzom"",""flagárzok""]","flagárzok","esp trial","0","false"
"html-button-response","58","584970","0.0-11.0-1.23","null","<p>A másik játékos ezt választotta: <b>flagárzok</b>.</p><p>&#10060;</p><p>A válaszaitok <b>nem</b> egyeznek meg.</p>","null","","","","feedback trial","",""
"html-button-response-esp","59","590828","0.0-11.0-0.24","5344","Te bizony sokat prilegzel. Én is sokat...","0","prilegzek","[""prilegzek"",""prilegzem""]","prilegzek","esp trial","0","true"
"html-button-response","60","594334","0.0-11.0-1.24","null","<p>A másik játékos ezt választotta: <b>prilegzek</b>.</p><p>&#x2705;</p><p>A te válaszod és a másik játékos válasza <b>megegyeznek</b>.</p>","null","","","","feedback trial","",""
"html-button-response-esp","61","599172","0.0-11.0-0.25","4330","Te bizony sokat sprökszöl. Én is sokat...","0","sprökszök","[""sprökszök"",""sprökszöm""]","sprökszök","esp trial","0","true"
"html-button-response","62","602695","0.0-11.0-1.25","null","<p>A másik játékos ezt választotta: <b>sprökszök</b>.</p><p>&#x2705;</p><p>A te válaszod és a másik játékos válasza <b>megegyeznek</b>.</p>","null","","","","feedback trial","",""
"html-button-response-esp","63","607406","0.0-11.0-0.26","623","Te bizony sokat vilakszol. Én is sokat...","0","vilakszok","[""vilakszok"",""vilakszom""]","vilakszok","esp trial","0","true"
"html-button-response","64","610929","0.0-11.0-1.26","null","<p>A másik játékos ezt választotta: <b>vilakszok</b>.</p><p>&#x2705;</p><p>A te válaszod és a másik játékos válasza <b>megegyeznek</b>.</p>","null","","","","feedback trial","",""
"html-button-response-esp","65","615640","0.0-11.0-0.27","2535","Te bizony sokat sztremlesz. Én is sokat...","0","sztremlem","[""sztremlem"",""sztremlek""]","sztremlem","esp trial","0","true"
"html-button-response","66","619166","0.0-11.0-1.27","null","<p>A másik játékos ezt választotta: <b>sztremlem</b>.</p><p>&#x2705;</p><p>A te válaszod és a másik játékos válasza <b>megegyeznek</b>.</p>","null","","","","feedback trial","",""
"html-button-response-esp","67","623886","0.0-11.0-0.28","740","Te bizony sokat pratánylasz. Én is sokat...","0","pratánylok","[""pratánylok"",""pratánylom""]","pratánylom","esp trial","0","false"
"html-button-response","68","627408","0.0-11.0-1.28","null","<p>A másik játékos ezt választotta: <b>pratánylom</b>.</p><p>&#10060;</p><p>A válaszaitok <b>nem</b> egyeznek meg.</p>","null","","","","feedback trial","",""
"html-button-response-esp","69","632659","0.0-11.0-0.29","4749","Te bizony sokat tiregzel. Én is sokat...","1","tiregzek","[""tiregzem"",""tiregzek""]","tiregzek","esp trial","0","true"
"html-button-response","70","636189","0.0-11.0-1.29","null","<p>A másik játékos ezt választotta: <b>tiregzek</b>.</p><p>&#x2705;</p><p>A te válaszod és a másik játékos válasza <b>megegyeznek</b>.</p>","null","","","","feedback trial","",""
"html-button-response-esp","71","640921","0.0-11.0-0.30","3081","Te bizony sokat feténylesz. Én is sokat...","1","feténylek","[""feténylem"",""feténylek""]","feténylem","esp trial","0","false"
"html-button-response","72","644442","0.0-11.0-1.30","null","<p>A másik játékos ezt választotta: <b>feténylem</b>.</p><p>&#10060;</p><p>A válaszaitok <b>nem</b> egyeznek meg.</p>","null","","","","feedback trial","",""
"html-button-response-esp","73","649174","0.0-11.0-0.31","2632","Te bizony sokat narjárzol. Én is sokat...","1","narjárzok","[""narjárzom"",""narjárzok""]","narjárzok","esp trial","0","true"
"html-button-response","74","652684","0.0-11.0-1.31","null","<p>A másik játékos ezt választotta: <b>narjárzok</b>.</p><p>&#x2705;</p><p>A te válaszod és a másik játékos válasza <b>megegyeznek</b>.</p>","null","","","","feedback trial","",""
"html-button-response-esp","75","662158","0.0-11.0-0.32","8955","Te bizony sokat szirlasz. Én is sokat...","1","szirlom","[""szirlok"",""szirlom""]","szirlok","esp trial","0","false"
"html-button-response","76","665680","0.0-11.0-1.32","null","<p>A másik játékos ezt választotta: <b>szirlok</b>.</p><p>&#10060;</p><p>A válaszaitok <b>nem</b> egyeznek meg.</p>","null","","","","feedback trial","",""
"html-button-response-esp","77","671866","0.0-11.0-0.33","5672","Te bizony sokat frilegszel. Én is sokat...","1","frilegszek","[""frilegszem"",""frilegszek""]","frilegszek","esp trial","0","true"
"html-button-response","78","675396","0.0-11.0-1.33","null","<p>A másik játékos ezt választotta: <b>frilegszek</b>.</p><p>&#x2705;</p><p>A te válaszod és a másik játékos válasza <b>megegyeznek</b>.</p>","null","","","","feedback trial","",""
"html-button-response-esp","79","680108","0.0-11.0-0.34","3381","Te bizony sokat sűzlesz. Én is sokat...","0","sűzlök","[""sűzlök"",""sűzlöm""]","sűzlök","esp trial","0","true"
"html-button-response","80","683627","0.0-11.0-1.34","null","<p>A másik játékos ezt választotta: <b>sűzlök</b>.</p><p>&#x2705;</p><p>A te válaszod és a másik játékos válasza <b>megegyeznek</b>.</p>","null","","","","feedback trial","",""
"html-button-response-esp","81","688341","0.0-11.0-0.35","3823","Te bizony sokat spilágzol. Én is sokat...","0","spilágzok","[""spilágzok"",""spilágzom""]","spilágzok","esp trial","0","true"
"html-button-response","82","691844","0.0-11.0-1.35","null","<p>A másik játékos ezt választotta: <b>spilágzok</b>.</p><p>&#x2705;</p><p>A te válaszod és a másik játékos válasza <b>megegyeznek</b>.</p>","null","","","","feedback trial","",""
"html-button-response-esp","83","696570","0.0-11.0-0.36","3241","Te bizony sokat bölszöl. Én is sokat...","1","bölszöm","[""bölszök"",""bölszöm""]","bölszök","esp trial","0","false"
"html-button-response","84","700098","0.0-11.0-1.36","null","<p>A másik játékos ezt választotta: <b>bölszök</b>.</p><p>&#10060;</p><p>A válaszaitok <b>nem</b> egyeznek meg.</p>","null","","","","feedback trial","",""
"html-button-response-esp","85","704818","0.0-11.0-0.37","4212","Te bizony sokat siladzol. Én is sokat...","0","siladzok","[""siladzok"",""siladzom""]","siladzok","esp trial","0","true"
"html-button-response","86","708327","0.0-11.0-1.37","null","<p>A másik játékos ezt választotta: <b>siladzok</b>.</p><p>&#x2705;</p><p>A te válaszod és a másik játékos válasza <b>megegyeznek</b>.</p>","null","","","","feedback trial","",""
"html-button-response-esp","87","713035","0.0-11.0-0.38","2543","Te bizony sokat brágaklasz. Én is sokat...","1","brágaklom","[""brágaklok"",""brágaklom""]","brágaklok","esp trial","0","false"
"html-button-response","88","716570","0.0-11.0-1.38","null","<p>A másik játékos ezt választotta: <b>brágaklok</b>.</p><p>&#10060;</p><p>A válaszaitok <b>nem</b> egyeznek meg.</p>","null","","","","feedback trial","",""
"html-button-response-esp","89","721300","0.0-11.0-0.39","2992","Te bizony sokat lorjódzol. Én is sokat...","1","lorjódzom","[""lorjódzok"",""lorjódzom""]","lorjódzok","esp trial","0","false"
"html-button-response","90","724827","0.0-11.0-1.39","null","<p>A másik játékos ezt választotta: <b>lorjódzok</b>.</p><p>&#10060;</p><p>A válaszaitok <b>nem</b> egyeznek meg.</p>","null","","","","feedback trial","",""
"html-button-response-esp","91","729543","0.0-11.0-0.40","1555","Te bizony sokat trilszol. Én is sokat...","0","trilszom","[""trilszom"",""trilszok""]","trilszok","esp trial","0","false"
"html-button-response","92","733064","0.0-11.0-1.40","null","<p>A másik játékos ezt választotta: <b>trilszok</b>.</p><p>&#10060;</p><p>A válaszaitok <b>nem</b> egyeznek meg.</p>","null","","","","feedback trial","",""
"html-button-response-esp","93","737791","0.0-11.0-0.41","3250","Te bizony sokat csíszlasz. Én is sokat...","1","csíszlok","[""csíszlom"",""csíszlok""]","csíszlok","esp trial","0","true"
"html-button-response","94","741309","0.0-11.0-1.41","null","<p>A másik játékos ezt választotta: <b>csíszlok</b>.</p><p>&#x2705;</p><p>A te válaszod és a másik játékos válasza <b>megegyeznek</b>.</p>","null","","","","feedback trial","",""
"html-button-response-esp","95","749358","0.0-11.0-0.42","7547","Te bizony sokat spűmlesz. Én is sokat...","1","spűmlök","[""spűmlöm"",""spűmlök""]","spűmlöm","esp trial","0","false"
"html-button-response","96","752866","0.0-11.0-1.42","null","<p>A másik játékos ezt választotta: <b>spűmlöm</b>.</p><p>&#10060;</p><p>A válaszaitok <b>nem</b> egyeznek meg.</p>","null","","","","feedback trial","",""
"html-button-response-esp","97","757595","0.0-11.0-0.43","3642","Te bizony sokat spibaklasz. Én is sokat...","0","spibaklom","[""spibaklom"",""spibaklok""]","spibaklok","esp trial","0","false"
"html-button-response","98","761111","0.0-11.0-1.43","null","<p>A másik játékos ezt választotta: <b>spibaklok</b>.</p><p>&#10060;</p><p>A válaszaitok <b>nem</b> egyeznek meg.</p>","null","","","","feedback trial","",""
"html-button-response-esp","99","766712","0.0-11.0-0.44","5099","Te bizony sokat flűröklesz. Én is sokat...","0","flűröklök","[""flűröklök"",""flűröklöm""]","flűröklök","esp trial","0","true"
"html-button-response","100","770235","0.0-11.0-1.44","null","<p>A másik játékos ezt választotta: <b>flűröklök</b>.</p><p>&#x2705;</p><p>A te válaszod és a másik játékos válasza <b>megegyeznek</b>.</p>","null","","","","feedback trial","",""
"html-button-response-esp","101","775382","0.0-11.0-0.45","4644","Te bizony sokat herégszel. Én is sokat...","1","herégszek","[""herégszem"",""herégszek""]","herégszek","esp trial","0","true"
"html-button-response","102","778917","0.0-11.0-1.45","null","<p>A másik játékos ezt választotta: <b>herégszek</b>.</p><p>&#x2705;</p><p>A te válaszod és a másik játékos válasza <b>megegyeznek</b>.</p>","null","","","","feedback trial","",""
"html-button-response-esp","103","783638","0.0-11.0-0.46","3286","Te bizony sokat femlesz. Én is sokat...","0","femlem","[""femlem"",""femlek""]","femlem","esp trial","0","true"
"html-button-response","104","787141","0.0-11.0-1.46","null","<p>A másik játékos ezt választotta: <b>femlem</b>.</p><p>&#x2705;</p><p>A te válaszod és a másik játékos válasza <b>megegyeznek</b>.</p>","null","","","","feedback trial","",""
"html-button-response-esp","105","791856","0.0-11.0-0.47","452","Te bizony sokat málapszol. Én is sokat...","1","málapszok","[""málapszom"",""málapszok""]","málapszok","esp trial","0","true"
"html-button-response","106","795362","0.0-11.0-1.47","null","<p>A másik játékos ezt választotta: <b>málapszok</b>.</p><p>&#x2705;</p><p>A te válaszod és a másik játékos válasza <b>megegyeznek</b>.</p>","null","","","","feedback trial","",""
"html-button-response-esp","107","800069","0.0-11.0-0.48","1128","Te bizony sokat böjzöl. Én is sokat...","1","böjzöm","[""böjzök"",""böjzöm""]","böjzök","esp trial","0","false"
"html-button-response","108","803583","0.0-11.0-1.48","null","<p>A másik játékos ezt választotta: <b>böjzök</b>.</p><p>&#10060;</p><p>A válaszaitok <b>nem</b> egyeznek meg.</p>","null","","","","feedback trial","",""
"html-button-response-esp","109","808308","0.0-11.0-0.49","1275","Te bizony sokat ribegzel. Én is sokat...","0","ribegzem","[""ribegzem"",""ribegzek""]","ribegzek","esp trial","0","false"
"html-button-response","110","811830","0.0-11.0-1.49","null","<p>A másik játékos ezt választotta: <b>ribegzek</b>.</p><p>&#10060;</p><p>A válaszaitok <b>nem</b> egyeznek meg.</p>","null","","","","feedback trial","",""
"html-button-response-esp","111","816549","0.0-11.0-0.50","1869","Te bizony sokat marzol. Én is sokat...","1","marzom","[""marzok"",""marzom""]","marzom","esp trial","0","true"
"html-button-response","112","820055","0.0-11.0-1.50","null","<p>A másik játékos ezt választotta: <b>marzom</b>.</p><p>&#x2705;</p><p>A te válaszod és a másik játékos válasza <b>megegyeznek</b>.</p>","null","","","","feedback trial","",""
"html-button-response-esp","113","825353","0.0-11.0-0.51","4795","Te bizony sokat ruslasz. Én is sokat...","1","ruslok","[""ruslom"",""ruslok""]","ruslom","esp trial","0","false"
"html-button-response","114","828880","0.0-11.0-1.51","null","<p>A másik játékos ezt választotta: <b>ruslom</b>.</p><p>&#10060;</p><p>A válaszaitok <b>nem</b> egyeznek meg.</p>","null","","","","feedback trial","",""
"html-button-response-esp","115","833598","0.0-11.0-0.52","1188","Te bizony sokat brüjlesz. Én is sokat...","0","brüjlök","[""brüjlök"",""brüjlöm""]","brüjlöm","esp trial","0","false"
"html-button-response","116","837113","0.0-11.0-1.52","null","<p>A másik játékos ezt választotta: <b>brüjlöm</b>.</p><p>&#10060;</p><p>A válaszaitok <b>nem</b> egyeznek meg.</p>","null","","","","feedback trial","",""
"html-button-response-esp","117","841838","0.0-11.0-0.53","760","Te bizony sokat sprogzol. Én is sokat...","1","sprogzok","[""sprogzom"",""sprogzok""]","sprogzok","esp trial","0","true"
"html-button-response","118","845363","0.0-11.0-1.53","null","<p>A másik játékos ezt választotta: <b>sprogzok</b>.</p><p>&#x2705;</p><p>A te válaszod és a másik játékos válasza <b>megegyeznek</b>.</p>","null","","","","feedback trial","",""
"html-button-response","119","857656","0.0-12.0","11779","<p>A közös játék most véget ért.</p><p>Mielőtt eláruljuk a végső pontszámodat, arra kérlek, játszd a szóválasztós játékot néhány percig egyedül is.</p><p>A feladatod ugyanaz lesz, választani két lehetőség közül.</p><p>Most viszont egyedül kell döntened, hogy te melyiket választanád.</p>","0","","","","","",""
"html-button-response-clever","120","864624","0.0-13.0-0.0","6464","Te bizony sokat spüjzöl. Én is sokat...","0","spüjzök","[""spüjzök"",""spüjzöm""]","","posttest trial","4",""
"html-button-response-clever","121","873334","0.0-13.0-0.1","8202","Te bizony sokat pítszol. Én is sokat...","0","pítszok","[""pítszok"",""pítszom""]","","posttest trial","4",""
"html-button-response-clever","122","880620","0.0-13.0-0.2","6783","Te bizony sokat bivégszel. Én is sokat...","1","bivégszek","[""bivégszem"",""bivégszek""]","","posttest trial","4",""
"html-button-response-clever","123","885054","0.0-13.0-0.3","3929","Te bizony sokat huroslasz. Én is sokat...","1","huroslok","[""huroslom"",""huroslok""]","","posttest trial","4",""
"html-button-response-clever","124","895324","0.0-13.0-0.4","9767","Te bizony sokat ibékszel. Én is sokat...","1","ibékszek","[""ibékszem"",""ibékszek""]","","posttest trial","4",""
"html-button-response-clever","125","896852","0.0-13.0-0.5","1027","Te bizony sokat rokszol. Én is sokat...","1","rokszok","[""rokszom"",""rokszok""]","","posttest trial","4",""
"html-button-response-clever","126","903639","0.0-13.0-0.6","6282","Te bizony sokat brobódzol. Én is sokat...","0","brobódzok","[""brobódzok"",""brobódzom""]","","posttest trial","4",""
"html-button-response-clever","127","905624","0.0-13.0-0.7","1482","Te bizony sokat salárzol. Én is sokat...","0","salárzom","[""salárzom"",""salárzok""]","","posttest trial","4",""
"html-button-response-clever","128","912653","0.0-13.0-0.8","6519","Te bizony sokat spülűdzöl. Én is sokat...","1","spülűdzök","[""spülűdzöm"",""spülűdzök""]","","posttest trial","4",""
"html-button-response-clever","129","914829","0.0-13.0-0.9","1672","Te bizony sokat plűbzöl. Én is sokat...","1","plűbzök","[""plűbzöm"",""plűbzök""]","","posttest trial","4",""
"html-button-response-clever","130","916746","0.0-13.0-0.10","1399","Te bizony sokat flehékszel. Én is sokat...","1","flehékszem","[""flehékszek"",""flehékszem""]","","posttest trial","4",""
"html-button-response-clever","131","920357","0.0-13.0-0.11","3098","Te bizony sokat pribagszol. Én is sokat...","1","pribagszok","[""pribagszom"",""pribagszok""]","","posttest trial","4",""
"html-button-response-clever","132","924404","0.0-13.0-0.12","3544","Te bizony sokat flitlasz. Én is sokat...","1","flitlok","[""flitlom"",""flitlok""]","","posttest trial","4",""
"html-button-response-clever","133","928088","0.0-13.0-0.13","3167","Te bizony sokat sztrozlasz. Én is sokat...","0","sztrozlok","[""sztrozlok"",""sztrozlom""]","","posttest trial","4",""
"html-button-response-clever","134","932267","0.0-13.0-0.14","3678","Te bizony sokat vülődzöl. Én is sokat...","0","vülődzöm","[""vülődzöm"",""vülődzök""]","","posttest trial","4",""
"html-button-response-clever","135","934885","0.0-13.0-0.15","2115","Te bizony sokat lörűdzöl. Én is sokat...","0","lörűdzök","[""lörűdzök"",""lörűdzöm""]","","posttest trial","4",""
"html-button-response-clever","136","937656","0.0-13.0-0.16","2269","Te bizony sokat trádlasz. Én is sokat...","0","trádlok","[""trádlok"",""trádlom""]","","posttest trial","4",""
"html-button-response-clever","137","940133","0.0-13.0-0.17","1963","Te bizony sokat sztrűkszöl. Én is sokat...","0","sztrűkszök","[""sztrűkszök"",""sztrűkszöm""]","","posttest trial","4",""
"html-button-response-clever","138","941783","0.0-13.0-0.18","1147","Te bizony sokat bűtszöl. Én is sokat...","0","bűtszök","[""bűtszök"",""bűtszöm""]","","posttest trial","4",""
"html-button-response-clever","139","942999","0.0-13.0-0.19","713","Te bizony sokat hűgzöl. Én is sokat...","1","hűgzök","[""hűgzöm"",""hűgzök""]","","posttest trial","4",""
"html-button-response-clever","140","944144","0.0-13.0-0.20","642","Te bizony sokat vanylasz. Én is sokat...","1","vanylok","[""vanylom"",""vanylok""]","","posttest trial","4",""
"html-button-response-clever","141","945233","0.0-13.0-0.21","588","Te bizony sokat jonylasz. Én is sokat...","1","jonylok","[""jonylom"",""jonylok""]","","posttest trial","4",""
"html-button-response-clever","142","949762","0.0-13.0-0.22","4019","Te bizony sokat trehégszel. Én is sokat...","1","trehégszek","[""trehégszem"",""trehégszek""]","","posttest trial","4",""
"html-button-response-clever","143","952983","0.0-13.0-0.23","2713","Te bizony sokat szibánylasz. Én is sokat...","1","szibánylok","[""szibánylom"",""szibánylok""]","","posttest trial","4",""
"html-button-response-clever","144","955123","0.0-13.0-0.24","1638","Te bizony sokat figlasz. Én is sokat...","1","figlok","[""figlom"",""figlok""]","","posttest trial","4",""
"html-button-response-clever","145","959110","0.0-13.0-0.25","3482","Te bizony sokat nűröklesz. Én is sokat...","1","nűröklök","[""nűröklöm"",""nűröklök""]","","posttest trial","4",""
"html-button-response-clever","146","961120","0.0-13.0-0.26","1495","Te bizony sokat klaráglasz. Én is sokat...","1","klaráglok","[""klaráglom"",""klaráglok""]","","posttest trial","4",""
"html-button-response-clever","147","965606","0.0-13.0-0.27","3967","Te bizony sokat spáraklasz. Én is sokat...","1","spáraklom","[""spáraklok"",""spáraklom""]","","posttest trial","4",""
"html-button-response-clever","148","967382","0.0-13.0-0.28","1271","Te bizony sokat filágzol. Én is sokat...","1","filágzok","[""filágzom"",""filágzok""]","","posttest trial","4",""
"html-button-response-clever","149","970436","0.0-13.0-0.29","2551","Te bizony sokat pribemlesz. Én is sokat...","1","pribemlem","[""pribemlek"",""pribemlem""]","","posttest trial","4",""
"html-button-response-clever","150","971807","0.0-13.0-0.30","854","Te bizony sokat klivaslasz. Én is sokat...","1","klivaslom","[""klivaslok"",""klivaslom""]","","posttest trial","4",""
"html-button-response-clever","151","977911","0.0-13.0-0.31","5591","Te bizony sokat brivegzel. Én is sokat...","1","brivegzek","[""brivegzem"",""brivegzek""]","","posttest trial","4",""
"html-button-response-clever","152","980097","0.0-13.0-0.32","1684","Te bizony sokat hurjorzol. Én is sokat...","1","hurjorzok","[""hurjorzom"",""hurjorzok""]","","posttest trial","4",""
"html-button-response-clever","153","981144","0.0-13.0-0.33","539","Te bizony sokat frodlasz. Én is sokat...","1","frodlok","[""frodlom"",""frodlok""]","","posttest trial","4",""
"html-button-response-clever","154","982671","0.0-13.0-0.34","1021","Te bizony sokat spihemlesz. Én is sokat...","1","spihemlem","[""spihemlek"",""spihemlem""]","","posttest trial","4",""
"html-button-response-clever","155","993979","0.0-13.0-0.35","10807","Te bizony sokat narádzol. Én is sokat...","1","narádzok","[""narádzom"",""narádzok""]","","posttest trial","4",""
"html-button-response-clever","156","996030","0.0-13.0-0.36","1546","Te bizony sokat treglesz. Én is sokat...","1","treglek","[""treglem"",""treglek""]","","posttest trial","4",""
"html-button-response-clever","157","1006185","0.0-13.0-0.37","9644","Te bizony sokat píjlasz. Én is sokat...","1","píjlok","[""píjlom"",""píjlok""]","","posttest trial","4",""
"html-button-response-clever","158","1011428","0.0-13.0-0.38","4727","Te bizony sokat düjzöl. Én is sokat...","0","düjzök","[""düjzök"",""düjzöm""]","","posttest trial","4",""
"html-button-response-clever","159","1013028","0.0-13.0-0.39","1089","Te bizony sokat prínylasz. Én is sokat...","0","prínylok","[""prínylok"",""prínylom""]","","posttest trial","4",""
"html-button-response-clever","160","1021553","0.0-13.0-0.40","8007","Te bizony sokat spihegzel. Én is sokat...","1","spihegzek","[""spihegzem"",""spihegzek""]","","posttest trial","4",""
"html-button-response-clever","161","1026327","0.0-13.0-0.41","4265","Te bizony sokat gyibeslesz. Én is sokat...","0","gyibeslek","[""gyibeslek"",""gyibeslem""]","","posttest trial","4",""
"html-button-response-clever","162","1028758","0.0-13.0-0.42","1930","Te bizony sokat rájzol. Én is sokat...","0","rájzok","[""rájzok"",""rájzom""]","","posttest trial","4",""
"html-button-response-clever","163","1037372","0.0-13.0-0.43","8096","Te bizony sokat brubzol. Én is sokat...","1","brubzok","[""brubzom"",""brubzok""]","","posttest trial","4",""
"html-button-response-clever","164","1041614","0.0-13.0-0.44","3734","Te bizony sokat spröbzöl. Én is sokat...","0","spröbzök","[""spröbzök"",""spröbzöm""]","","posttest trial","4",""
"html-button-response-clever","165","1048052","0.0-13.0-0.45","5932","Te bizony sokat tragzol. Én is sokat...","1","tragzok","[""tragzom"",""tragzok""]","","posttest trial","4",""
"html-button-response-clever","166","1051573","0.0-13.0-0.46","3015","Te bizony sokat bihánylasz. Én is sokat...","0","bihánylok","[""bihánylok"",""bihánylom""]","","posttest trial","4",""
"html-button-response-clever","167","1054629","0.0-13.0-0.47","2552","Te bizony sokat klétszel. Én is sokat...","0","klétszem","[""klétszem"",""klétszek""]","","posttest trial","4",""
"html-button-response-clever","168","1057058","0.0-13.0-0.48","1913","Te bizony sokat flátszol. Én is sokat...","1","flátszom","[""flátszok"",""flátszom""]","","posttest trial","4",""
"html-button-response-clever","169","1059773","0.0-13.0-0.49","2207","Te bizony sokat flehénylesz. Én is sokat...","0","flehénylek","[""flehénylek"",""flehénylem""]","","posttest trial","4",""
"html-button-response-clever","170","1061771","0.0-13.0-0.50","1497","Te bizony sokat spubonylasz. Én is sokat...","0","spubonylok","[""spubonylok"",""spubonylom""]","","posttest trial","4",""
"html-button-response-clever","171","1066494","0.0-13.0-0.51","4217","Te bizony sokat sztrijzol. Én is sokat...","1","sztrijzok","[""sztrijzom"",""sztrijzok""]","","posttest trial","4",""
"html-button-response-clever","172","1069717","0.0-13.0-0.52","2719","Te bizony sokat flűmlesz. Én is sokat...","1","flűmlök","[""flűmlöm"",""flűmlök""]","","posttest trial","4",""
"html-button-response-clever","173","1072298","0.0-13.0-0.53","2077","Te bizony sokat plugzol. Én is sokat...","1","plugzok","[""plugzom"",""plugzok""]","","posttest trial","4",""
"html-button-response","174","1085873","0.0-14.0","13072","<p> Vége a játéknak. A teljes pontszámod 27/54.</p><p> Szép munka! &#128526;&#128526;&#128526;</p><p>A Befejezés gomb megnyomása után bezárhatod a böngészőablakot.</p>","0","","","","","",""
"html-keyboard-response","175","1091403","0.0-15.0","null","<div class=""message"">
         <p>Egy kis türelmet kérünk, amíg elmentjük az adatokat...</p>
         </div>","null","","","","","",""
