my_list,key.keys,key.rt,key_2.keys,key_2.rt,keyboard_input_2.keys,keyboard_input_2.rt,key_3.keys,key_3.rt,keyboard_input_3.keys,keyboard_input_3.rt,key_4.keys,key_4.rt,keyboard_input_4.keys,keyboard_input_4.rt,key_5.keys,key_5.rt,my_button1,my_button2,keyboard_input.keys,keyboard_input.rt,withinBlock.thisRepN,withinBlock.thisTrialN,withinBlock.thisN,withinBlock.thisIndex,withinBlock.ran,rowname,word,prompt,suffix,vowel,carrier_sentence,target_sentence,target1,target2,category,derivational,nsyl,Azonosító,Melyik évben születtél?,Mi a nemed?,Tanultál nyelvészetet?,date,expName,psychopyVersion,OS,frameRate
list2.csv,space,62.655,space,9.52,right,10.912,space,19.996,left,13.491,space,9.829,left,13.759,space,17.191,ítensban,ítensben,right,8.475,0,0,0,50,1,105,ítens,ítens,ban,e,Ez itt egy ítens.,Ott vagyunk a...,ítensben,ítensban,dzsungel,NA,NA,PR2073,1980,nő,nem,2022-04-18_18h40.17.161,hesp_baseline,2021.2.3,Win32,59.88023952
,,,,,,,,,,,,,,,,,flitlom,flitlok,right,44.923,0,1,1,90,1,91,flitlik,flitlasz,NA,NA,Te bizony sokat flitlasz.,Én is sokat...,flitlok,flitlom,lakik,-lik,1,PR2073,1980,nő,nem,2022-04-18_18h40.17.161,hesp_baseline,2021.2.3,Win32,59.88023952
,,,,,,,,,,,,,,,,,frivamlunk,frivamozunk,left,9.666,0,2,2,122,1,69,frivamlik / frivamozik,"frivamlik, frivamozni",ünk,NA,"János imád frivamozni, ezért sokat frivamlik.",Mi ritkán...,frivamlunk,frivamozunk,cselekszik,-lik,2,PR2073,1980,nő,nem,2022-04-18_18h40.17.161,hesp_baseline,2021.2.3,Win32,59.88023952
,,,,,,,,,,,,,,,,,spubonylok,spubonylom,left,7.365,0,3,3,104,1,105,spubonylik,spubonylasz,NA,NA,Te bizony sokat spubonylasz.,Én is sokat...,spubonylok,spubonylom,lakik,-lik,2,PR2073,1980,nő,nem,2022-04-18_18h40.17.161,hesp_baseline,2021.2.3,Win32,59.88023952
,,,,,,,,,,,,,,,,,praslom,praslok,right,5.709,0,4,4,80,1,81,praslik,praslasz,NA,NA,Te bizony sokat praslasz.,Én is sokat...,praslok,praslom,lakik,-lik,1,PR2073,1980,nő,nem,2022-04-18_18h40.17.161,hesp_baseline,2021.2.3,Win32,59.88023952
,,,,,,,,,,,,,,,,,sprűrlenek,sprűröznek,left,9.158,0,5,5,135,1,82,sprűrlik / sprűrözik,"sprűrlik, sprűrözni",nek,NA,"János imád sprűrözni, ezért sokat sprűrlik.",Ők ritkán...,sprűrlenek,sprűröznek,cselekszik,-lik,1,PR2073,1980,nő,nem,2022-04-18_18h40.17.161,hesp_baseline,2021.2.3,Win32,59.88023952
,,,,,,,,,,,,,,,,,hákszanak,hákodnak,right,7.52,0,6,6,150,1,97,hákszik / hákodik,"hákszik, hákodni",nek,NA,"János imád hákodni, ezért sokat hákszik.",Ők ritkán...,hákszanak,hákodnak,cselekszik,-szik,1,PR2073,1980,nő,nem,2022-04-18_18h40.17.161,hesp_baseline,2021.2.3,Win32,59.88023952
,,,,,,,,,,,,,,,,,gúdenban,gúdenben,right,3.924,0,7,7,4,1,59,gúden,gúden,ban,e,Ez itt egy gúden.,Ott vagyunk a...,gúdenben,gúdenban,dzsungel,NA,NA,PR2073,1980,nő,nem,2022-04-18_18h40.17.161,hesp_baseline,2021.2.3,Win32,59.88023952
,,,,,,,,,,,,,,,,,fájézban,fájézben,right,4.508,0,8,8,7,1,62,fájéz,fájéz,ban,é,Ez itt egy fájéz.,Ott vagyunk a...,fájézben,fájézban,dzsungel,NA,NA,PR2073,1980,nő,nem,2022-04-18_18h40.17.161,hesp_baseline,2021.2.3,Win32,59.88023952
,,,,,,,,,,,,,,,,,csólorzok,csólorzom,right,4.591,0,9,9,102,1,103,csólorzik,csólorzol,NA,NA,Te bizony sokat csólorzol.,Én is sokat...,csólorzok,csólorzom,lakik,-zik,2,PR2073,1980,nő,nem,2022-04-18_18h40.17.161,hesp_baseline,2021.2.3,Win32,59.88023952
,,,,,,,,,,,,,,,,,brágaklom,brágaklok,right,5.038,0,10,10,71,1,72,brágaklik,brágaklasz,NA,NA,Te bizony sokat brágaklasz.,Én is sokat...,brágaklok,brágaklom,lakik,-lik,2,PR2073,1980,nő,nem,2022-04-18_18h40.17.161,hesp_baseline,2021.2.3,Win32,59.88023952
,,,,,,,,,,,,,,,,,prazlunk,prazozunk,right,5.29,0,11,11,119,1,66,prazlik / prazozik,"prazlik, prazozni",ünk,NA,"János imád prazozni, ezért sokat prazlik.",Mi ritkán...,prazlunk,prazozunk,cselekszik,-lik,1,PR2073,1980,nő,nem,2022-04-18_18h40.17.161,hesp_baseline,2021.2.3,Win32,59.88023952
,,,,,,,,,,,,,,,,,trírozunk,trírzunk,left,6.226,0,12,12,116,1,63,trírzik / trírozik,"trírzik, trírozni",ünk,NA,"János imád trírozni, ezért sokat trírzik.",Mi ritkán...,trírzunk,trírozunk,cselekszik,-zik,1,PR2073,1980,nő,nem,2022-04-18_18h40.17.161,hesp_baseline,2021.2.3,Win32,59.88023952
,,,,,,,,,,,,,,,,,gilárzom,gilárzok,left,4.358,0,13,13,94,1,95,gilárzik,gilárzol,NA,NA,Te bizony sokat gilárzol.,Én is sokat...,gilárzok,gilárzom,lakik,-zik,2,PR2073,1980,nő,nem,2022-04-18_18h40.17.161,hesp_baseline,2021.2.3,Win32,59.88023952
,,,,,,,,,,,,,,,,,prihegszenek,prihegednek,left,8.305,0,14,14,155,1,102,prihegszik / prihegedik,"prihegszik, prihegedni",nek,NA,"János imád prihegedni, ezért sokat prihegszik.",Ők ritkán...,prihegszenek,prihegednek,cselekszik,-szik,2,PR2073,1980,nő,nem,2022-04-18_18h40.17.161,hesp_baseline,2021.2.3,Win32,59.88023952
,,,,,,,,,,,,,,,,,klítegynél,klítegynál,left,4.526,0,15,15,5,1,60,klítegy,klítegy,nál,e,Ez itt egy klítegy.,Nincs is jobb egy jó...,klítegynél,klítegynál,dzsungel,NA,NA,PR2073,1980,nő,nem,2022-04-18_18h40.17.161,hesp_baseline,2021.2.3,Win32,59.88023952
,,,,,,,,,,,,,,,,,cságyeltban,cságyeltben,right,4.322,0,16,16,10,1,65,cságyelt,cságyelt,ban,e,Ez itt egy cságyelt.,Ott vagyunk a...,cságyeltben,cságyeltban,dzsungel,NA,NA,PR2073,1980,nő,nem,2022-04-18_18h40.17.161,hesp_baseline,2021.2.3,Win32,59.88023952
,,,,,,,,,,,,,,,,,szirlom,szirlok,left,4.106,0,17,17,62,1,63,szirlik,szirlasz,NA,NA,Te bizony sokat szirlasz.,Én is sokat...,szirlok,szirlom,lakik,-lik,1,PR2073,1980,nő,nem,2022-04-18_18h40.17.161,hesp_baseline,2021.2.3,Win32,59.88023952
,,,,,,,,,,,,,,,,,brivegzem,brivegzek,left,3.898,0,18,18,70,1,71,brivegzik,brivegzel,NA,NA,Te bizony sokat brivegzel.,Én is sokat...,brivegzek,brivegzem,lakik,-zik,2,PR2073,1980,nő,nem,2022-04-18_18h40.17.161,hesp_baseline,2021.2.3,Win32,59.88023952
,,,,,,,,,,,,,,,,,kluhéjnál,kluhéjnél,left,4.893,0,19,19,24,1,79,kluhéj,kluhéj,nál,é,Ez itt egy kluhéj.,Nincs is jobb egy jó...,kluhéjnél,kluhéjnál,dzsungel,NA,NA,PR2073,1980,nő,nem,2022-04-18_18h40.17.161,hesp_baseline,2021.2.3,Win32,59.88023952
,,,,,,,,,,,,,,,,,brágédnak,brágédnek,left,6.432,0,20,20,45,1,100,brágéd,brágéd,nak,é,Ez itt egy brágéd.,Elneveztem a kutyámat...,brágédnek,brágédnak,dzsungel,NA,NA,PR2073,1980,nő,nem,2022-04-18_18h40.17.161,hesp_baseline,2021.2.3,Win32,59.88023952
,,,,,,,,,,,,,,,,,sprigzotok,sprigoztok,right,7.861,0,21,21,129,1,76,sprigzik / sprigozik,"sprigzik, sprigozni",tek,NA,"János imád sprigozni, ezért sokat sprigzik.",Ti ritkán...,sprigzotok,sprigoztok,cselekszik,-zik,1,PR2073,1980,nő,nem,2022-04-18_18h40.17.161,hesp_baseline,2021.2.3,Win32,59.88023952
,,,,,,,,,,,,,,,,,tumélynál,tumélynél,left,3.495,0,22,22,28,1,83,tumély,tumély,nál,é,Ez itt egy tumély.,Nincs is jobb egy jó...,tumélynél,tumélynál,dzsungel,NA,NA,PR2073,1980,nő,nem,2022-04-18_18h40.17.161,hesp_baseline,2021.2.3,Win32,59.88023952
,,,,,,,,,,,,,,,,,pítendben,pítendban,left,3.338,0,23,23,18,1,73,pítend,pítend,ban,e,Ez itt egy pítend.,Ott vagyunk a...,pítendben,pítendban,dzsungel,NA,NA,PR2073,1980,nő,nem,2022-04-18_18h40.17.161,hesp_baseline,2021.2.3,Win32,59.88023952
,,,,,,,,,,,,,,,,,branyoznak,branylanak,left,7.658,0,24,24,136,1,83,branylik / branyozik,"branylik, branyozni",nek,NA,"János imád branyozni, ezért sokat branylik.",Ők ritkán...,branylanak,branyoznak,cselekszik,-lik,1,PR2073,1980,nő,nem,2022-04-18_18h40.17.161,hesp_baseline,2021.2.3,Win32,59.88023952
,,,,,,,,,,,,,,,,,zihencnek,zihencnak,left,3.241,0,25,25,52,1,107,zihenc,zihenc,nak,e,Ez itt egy zihenc.,Elneveztem a kutyámat...,zihencnek,zihencnak,dzsungel,NA,NA,PR2073,1980,nő,nem,2022-04-18_18h40.17.161,hesp_baseline,2021.2.3,Win32,59.88023952
,,,,,,,,,,,,,,,,,forzédnak,forzédnek,left,3.514,0,26,26,46,1,101,forzéd,forzéd,nak,é,Ez itt egy forzéd.,Elneveztem a kutyámat...,forzédnek,forzédnak,dzsungel,NA,NA,PR2073,1980,nő,nem,2022-04-18_18h40.17.161,hesp_baseline,2021.2.3,Win32,59.88023952
,,,,,,,,,,,,,,,,,spáraklok,spáraklom,left,5.047,0,27,27,96,1,97,spáraklik,spáraklasz,NA,NA,Te bizony sokat spáraklasz.,Én is sokat...,spáraklok,spáraklom,lakik,-lik,2,PR2073,1980,nő,nem,2022-04-18_18h40.17.161,hesp_baseline,2021.2.3,Win32,59.88023952
,,,,,,,,,,,,,,,,,spöklünk,spöközünk,left,5.121,0,28,28,130,1,77,spöklik / spöközik,"spöklik, spöközni",ünk,NA,"János imád spöközni, ezért sokat spöklik.",Mi ritkán...,spöklünk,spöközünk,cselekszik,-lik,1,PR2073,1980,nő,nem,2022-04-18_18h40.17.161,hesp_baseline,2021.2.3,Win32,59.88023952
,,,,,,,,,,,,,,,,,dineltben,dineltban,left,4.385,0,29,29,0,1,55,dinelt,dinelt,ban,e,Ez itt egy dinelt.,Ott vagyunk a...,dineltben,dineltban,dzsungel,NA,NA,PR2073,1980,nő,nem,2022-04-18_18h40.17.161,hesp_baseline,2021.2.3,Win32,59.88023952
,,,,,,,,,,,,,,,,,kátédnél,kátédnál,right,4.188,0,30,30,37,1,92,kátéd,kátéd,nál,é,Ez itt egy kátéd.,Nincs is jobb egy jó...,kátédnél,kátédnál,dzsungel,NA,NA,PR2073,1980,nő,nem,2022-04-18_18h40.17.161,hesp_baseline,2021.2.3,Win32,59.88023952
,,,,,,,,,,,,,,,,,spatárzom,spatárzok,right,5.162,0,31,31,69,1,70,spatárzik,spatárzol,NA,NA,Te bizony sokat spatárzol.,Én is sokat...,spatárzok,spatárzom,lakik,-zik,2,PR2073,1980,nő,nem,2022-04-18_18h40.17.161,hesp_baseline,2021.2.3,Win32,59.88023952
,,,,,,,,,,,,,,,,,fröjöztök,fröjzötök,left,5.01,0,32,32,153,1,100,fröjzik / fröjözik,"fröjzik, fröjözni",tek,NA,"János imád fröjözni, ezért sokat fröjzik.",Ti ritkán...,fröjzötök,fröjöztök,cselekszik,-zik,1,PR2073,1980,nő,nem,2022-04-18_18h40.17.161,hesp_baseline,2021.2.3,Win32,59.88023952
,,,,,,,,,,,,,,,,,klazérban,klazérben,left,4.4,0,33,33,51,1,106,klazér,klazér,ban,é,Ez itt egy klazér.,Ott vagyunk a...,klazérben,klazérban,dzsungel,NA,NA,PR2073,1980,nő,nem,2022-04-18_18h40.17.161,hesp_baseline,2021.2.3,Win32,59.88023952
,,,,,,,,,,,,,,,,,hubonyoztok,hubonylotok,left,5.119,0,34,34,157,1,104,hubonylik / hubonyozik,"hubonylik, hubonyozni",tek,NA,"János imád hubonyozni, ezért sokat hubonylik.",Ti ritkán...,hubonylotok,hubonyoztok,cselekszik,-lik,2,PR2073,1980,nő,nem,2022-04-18_18h40.17.161,hesp_baseline,2021.2.3,Win32,59.88023952
,,,,,,,,,,,,,,,,,spihegzem,spihegzek,left,3.746,0,35,35,81,1,82,spihegzik,spihegzel,NA,NA,Te bizony sokat spihegzel.,Én is sokat...,spihegzek,spihegzem,lakik,-zik,2,PR2073,1980,nő,nem,2022-04-18_18h40.17.161,hesp_baseline,2021.2.3,Win32,59.88023952
,,,,,,,,,,,,,,,,,tiregzem,tiregzek,left,3.655,0,36,36,64,1,65,tiregzik,tiregzel,NA,NA,Te bizony sokat tiregzel.,Én is sokat...,tiregzek,tiregzem,lakik,-zik,2,PR2073,1980,nő,nem,2022-04-18_18h40.17.161,hesp_baseline,2021.2.3,Win32,59.88023952
,,,,,,,,,,,,,,,,,posoztok,poslotok,left,5.478,0,37,37,121,1,68,poslik / posozik,"poslik, posozni",tek,NA,"János imád posozni, ezért sokat poslik.",Ti ritkán...,poslotok,posoztok,cselekszik,-lik,1,PR2073,1980,nő,nem,2022-04-18_18h40.17.161,hesp_baseline,2021.2.3,Win32,59.88023952
,,,,,,,,,,,,,,,,,csintékban,csintékben,right,3.342,0,38,38,23,1,78,csinték,csinték,ban,é,Ez itt egy csinték.,Ott vagyunk a...,csintékben,csintékban,dzsungel,NA,NA,PR2073,1980,nő,nem,2022-04-18_18h40.17.161,hesp_baseline,2021.2.3,Win32,59.88023952
,,,,,,,,,,,,,,,,,kluzoztok,kluzlotok,left,5.909,0,39,39,148,1,95,kluzlik / kluzozik,"kluzlik, kluzozni",tek,NA,"János imád kluzozni, ezért sokat kluzlik.",Ti ritkán...,kluzlotok,kluzoztok,cselekszik,-lik,1,PR2073,1980,nő,nem,2022-04-18_18h40.17.161,hesp_baseline,2021.2.3,Win32,59.88023952
,,,,,,,,,,,,,,,,,plugzom,plugzok,left,3.973,0,40,40,60,1,61,plugzik,plugzol,NA,NA,Te bizony sokat plugzol.,Én is sokat...,plugzok,plugzom,lakik,-zik,1,PR2073,1980,nő,nem,2022-04-18_18h40.17.161,hesp_baseline,2021.2.3,Win32,59.88023952
,,,,,,,,,,,,,,,,,bingéjnak,bingéjnek,right,3.922,0,41,41,49,1,104,bingéj,bingéj,nak,é,Ez itt egy bingéj.,Elneveztem a kutyámat...,bingéjnek,bingéjnak,dzsungel,NA,NA,PR2073,1980,nő,nem,2022-04-18_18h40.17.161,hesp_baseline,2021.2.3,Win32,59.88023952
,,,,,,,,,,,,,,,,,fojlegynek,fojlegynak,left,4.69,0,42,42,3,1,58,fojlegy,fojlegy,nak,e,Ez itt egy fojlegy.,Elneveztem a kutyámat...,fojlegynek,fojlegynak,dzsungel,NA,NA,PR2073,1980,nő,nem,2022-04-18_18h40.17.161,hesp_baseline,2021.2.3,Win32,59.88023952
,,,,,,,,,,,,,,,,,bribékszetek,bribékedtek,right,7.633,0,43,43,141,1,88,bribékszik / bribékedik,"bribékszik, bribékedni",tek,NA,"János imád bribékedni, ezért sokat bribékszik.",Ti ritkán...,bribékszetek,bribékedtek,cselekszik,-szik,2,PR2073,1980,nő,nem,2022-04-18_18h40.17.161,hesp_baseline,2021.2.3,Win32,59.88023952
,,,,,,,,,,,,,,,,,spügzünk,spügözünk,right,10.623,0,44,44,143,1,90,spügzik / spügözik,"spügzik, spügözni",ünk,NA,"János imád spügözni, ezért sokat spügzik.",Mi ritkán...,spügzünk,spügözünk,cselekszik,-zik,1,PR2073,1980,nő,nem,2022-04-18_18h40.17.161,hesp_baseline,2021.2.3,Win32,59.88023952
,,,,,,,,,,,,,,,,,fivénylek,fivénylem,left,3.16,0,45,45,78,1,79,fivénylik,fivénylesz,NA,NA,Te bizony sokat fivénylesz.,Én is sokat...,fivénylek,fivénylem,lakik,-lik,2,PR2073,1980,nő,nem,2022-04-18_18h40.17.161,hesp_baseline,2021.2.3,Win32,59.88023952
,,,,,,,,,,,,,,,,,lingéknál,lingéknél,right,4.286,0,46,46,32,1,87,lingék,lingék,nál,é,Ez itt egy lingék.,Nincs is jobb egy jó...,lingéknél,lingéknál,dzsungel,NA,NA,PR2073,1980,nő,nem,2022-04-18_18h40.17.161,hesp_baseline,2021.2.3,Win32,59.88023952
,,,,,,,,,,,,,,,,,lírlanak,líroznak,right,5.311,0,47,47,115,1,62,lírlik / lírozik,"lírlik, lírozni",nek,NA,"János imád lírozni, ezért sokat lírlik.",Ők ritkán...,lírlanak,líroznak,cselekszik,-lik,1,PR2073,1980,nő,nem,2022-04-18_18h40.17.161,hesp_baseline,2021.2.3,Win32,59.88023952
,,,,,,,,,,,,,,,,,fréslünk,frésezünk,left,19.977,0,48,48,138,1,85,fréslik / frésezik,"fréslik, frésezni",ünk,NA,"János imád frésezni, ezért sokat fréslik.",Mi ritkán...,fréslünk,frésezünk,cselekszik,-lik,1,PR2073,1980,nő,nem,2022-04-18_18h40.17.161,hesp_baseline,2021.2.3,Win32,59.88023952
,,,,,,,,,,,,,,,,,flűgözünk,flűgzünk,left,4.127,0,49,49,160,1,107,flűgzik / flűgözik,"flűgzik, flűgözni",ünk,NA,"János imád flűgözni, ezért sokat flűgzik.",Mi ritkán...,flűgzünk,flűgözünk,cselekszik,-zik,1,PR2073,1980,nő,nem,2022-04-18_18h40.17.161,hesp_baseline,2021.2.3,Win32,59.88023952
,,,,,,,,,,,,,,,,,míjzunk,míjozunk,right,4.975,0,50,50,114,1,61,míjzik / míjozik,"míjzik, míjozni",ünk,NA,"János imád míjozni, ezért sokat míjzik.",Mi ritkán...,míjzunk,míjozunk,cselekszik,-zik,1,PR2073,1980,nő,nem,2022-04-18_18h40.17.161,hesp_baseline,2021.2.3,Win32,59.88023952
,,,,,,,,,,,,,,,,,csubozunk,csubzunk,right,4.489,0,51,51,111,1,58,csubzik / csubozik,"csubzik, csubozni",ünk,NA,"János imád csubozni, ezért sokat csubzik.",Mi ritkán...,csubzunk,csubozunk,cselekszik,-zik,1,PR2073,1980,nő,nem,2022-04-18_18h40.17.161,hesp_baseline,2021.2.3,Win32,59.88023952
,,,,,,,,,,,,,,,,,nyádoznak,nyádlanak,left,8.797,0,52,52,120,1,67,nyádlik / nyádozik,"nyádlik, nyádozni",nek,NA,"János imád nyádozni, ezért sokat nyádlik.",Ők ritkán...,nyádlanak,nyádoznak,cselekszik,-lik,1,PR2073,1980,nő,nem,2022-04-18_18h40.17.161,hesp_baseline,2021.2.3,Win32,59.88023952
,,,,,,,,,,,,,,,,,tosélyben,tosélyban,right,3.648,0,53,53,25,1,80,tosély,tosély,ban,é,Ez itt egy tosély.,Ott vagyunk a...,tosélyben,tosélyban,dzsungel,NA,NA,PR2073,1980,nő,nem,2022-04-18_18h40.17.161,hesp_baseline,2021.2.3,Win32,59.88023952
,,,,,,,,,,,,,,,,,flerékedünk,flerékszünk,right,6.866,0,54,54,159,1,106,flerékszik / flerékedik,"flerékszik, flerékedni",ünk,NA,"János imád flerékedni, ezért sokat flerékszik.",Mi ritkán...,flerékszünk,flerékedünk,cselekszik,-szik,2,PR2073,1980,nő,nem,2022-04-18_18h40.17.161,hesp_baseline,2021.2.3,Win32,59.88023952
,,,,,,,,,,,,,,,,,pratánylok,pratánylom,left,4.743,0,55,55,95,1,96,pratánylik,pratánylasz,NA,NA,Te bizony sokat pratánylasz.,Én is sokat...,pratánylok,pratánylom,lakik,-lik,2,PR2073,1980,nő,nem,2022-04-18_18h40.17.161,hesp_baseline,2021.2.3,Win32,59.88023952
,,,,,,,,,,,,,,,,,zutennál,zutennél,left,6.899,0,56,56,43,1,98,zuten,zuten,nál,e,Ez itt egy zuten.,Nincs is jobb egy jó...,zutennél,zutennál,dzsungel,NA,NA,PR2073,1980,nő,nem,2022-04-18_18h40.17.161,hesp_baseline,2021.2.3,Win32,59.88023952
,,,,,,,,,,,,,,,,,nurokozunk,nuroklunk,left,7.149,0,57,57,131,1,78,nuroklik / nurokozik,"nuroklik, nurokozni",ünk,NA,"János imád nurokozni, ezért sokat nuroklik.",Mi ritkán...,nuroklunk,nurokozunk,cselekszik,-lik,2,PR2073,1980,nő,nem,2022-04-18_18h40.17.161,hesp_baseline,2021.2.3,Win32,59.88023952
,,,,,,,,,,,,,,,,,navecben,navecban,left,7.851,0,58,58,8,1,63,navec,navec,ban,e,Ez itt egy navec.,Ott vagyunk a...,navecben,navecban,dzsungel,NA,NA,PR2073,1980,nő,nem,2022-04-18_18h40.17.161,hesp_baseline,2021.2.3,Win32,59.88023952
,,,,,,,,,,,,,,,,,dabzotok,daboztok,left,4.294,0,59,59,109,1,56,dabzik / dabozik,"dabzik, dabozni",tek,NA,"János imád dabozni, ezért sokat dabzik.",Ti ritkán...,dabzotok,daboztok,cselekszik,-zik,1,PR2073,1980,nő,nem,2022-04-18_18h40.17.161,hesp_baseline,2021.2.3,Win32,59.88023952
,,,,,,,,,,,,,,,,,flehékszek,flehékszem,left,4.791,0,60,60,77,1,78,flehékszik,flehékszel,NA,NA,Te bizony sokat flehékszel.,Én is sokat...,flehékszek,flehékszem,lakik,-szik,2,PR2073,1980,nő,nem,2022-04-18_18h40.17.161,hesp_baseline,2021.2.3,Win32,59.88023952
,,,,,,,,,,,,,,,,,spátennek,spátennak,left,5.745,0,61,61,33,1,88,spáten,spáten,nak,e,Ez itt egy spáten.,Elneveztem a kutyámat...,spátennek,spátennak,dzsungel,NA,NA,PR2073,1980,nő,nem,2022-04-18_18h40.17.161,hesp_baseline,2021.2.3,Win32,59.88023952
,,,,,,,,,,,,,,,,,fibamlok,fibamlom,left,3.175,0,62,62,65,1,66,fibamlik,fibamlasz,NA,NA,Te bizony sokat fibamlasz.,Én is sokat...,fibamlok,fibamlom,lakik,-lik,2,PR2073,1980,nő,nem,2022-04-18_18h40.17.161,hesp_baseline,2021.2.3,Win32,59.88023952
,,,,,,,,,,,,,,,,,ribzom,ribzok,left,3.513,0,63,63,58,1,59,ribzik,ribzol,NA,NA,Te bizony sokat ribzol.,Én is sokat...,ribzok,ribzom,lakik,-zik,1,PR2073,1980,nő,nem,2022-04-18_18h40.17.161,hesp_baseline,2021.2.3,Win32,59.88023952
,,,,,,,,,,,,,,,,,rapszeknél,rapszeknál,left,5.493,0,64,64,35,1,90,rapszek,rapszek,nál,e,Ez itt egy rapszek.,Nincs is jobb egy jó...,rapszeknél,rapszeknál,dzsungel,NA,NA,PR2073,1980,nő,nem,2022-04-18_18h40.17.161,hesp_baseline,2021.2.3,Win32,59.88023952
,,,,,,,,,,,,,,,,,flűmlök,flűmlöm,left,4.908,0,65,65,54,1,55,flűmlik,flűmlesz,NA,NA,Te bizony sokat flűmlesz.,Én is sokat...,flűmlök,flűmlöm,lakik,-lik,1,PR2073,1980,nő,nem,2022-04-18_18h40.17.161,hesp_baseline,2021.2.3,Win32,59.88023952
,,,,,,,,,,,,,,,,,flagánylom,flagánylok,right,4.595,0,66,66,82,1,83,flagánylik,flagánylasz,NA,NA,Te bizony sokat flagánylasz.,Én is sokat...,flagánylok,flagánylom,lakik,-lik,2,PR2073,1980,nő,nem,2022-04-18_18h40.17.161,hesp_baseline,2021.2.3,Win32,59.88023952
,,,,,,,,,,,,,,,,,pratelynek,pratelynak,left,4.078,0,67,67,47,1,102,prately,prately,nak,e,Ez itt egy prately.,Elneveztem a kutyámat...,pratelynek,pratelynak,dzsungel,NA,NA,PR2073,1980,nő,nem,2022-04-18_18h40.17.161,hesp_baseline,2021.2.3,Win32,59.88023952
,,,,,,,,,,,,,,,,,lihadzom,lihadzok,left,4.101,0,68,68,101,1,102,lihadzik,lihadzol,NA,NA,Te bizony sokat lihadzol.,Én is sokat...,lihadzok,lihadzom,lakik,-zik,2,PR2073,1980,nő,nem,2022-04-18_18h40.17.161,hesp_baseline,2021.2.3,Win32,59.88023952
,,,,,,,,,,,,,,,,,driládzok,driládzom,left,3.929,0,69,69,67,1,68,driládzik,driládzol,NA,NA,Te bizony sokat driládzol.,Én is sokat...,driládzok,driládzom,lakik,-zik,2,PR2073,1980,nő,nem,2022-04-18_18h40.17.161,hesp_baseline,2021.2.3,Win32,59.88023952
,,,,,,,,,,,,,,,,,bivégszem,bivégszek,left,3.239,0,70,70,68,1,69,bivégszik,bivégszel,NA,NA,Te bizony sokat bivégszel.,Én is sokat...,bivégszek,bivégszem,lakik,-szik,2,PR2073,1980,nő,nem,2022-04-18_18h40.17.161,hesp_baseline,2021.2.3,Win32,59.88023952
,,,,,,,,,,,,,,,,,dárakszunk,dárakodunk,left,6.3,0,71,71,126,1,73,dárakszik / dárakodik,"dárakszik, dárakodni",ünk,NA,"János imád dárakodni, ezért sokat dárakszik.",Mi ritkán...,dárakszunk,dárakodunk,cselekszik,-szik,2,PR2073,1980,nő,nem,2022-04-18_18h40.17.161,hesp_baseline,2021.2.3,Win32,59.88023952
,,,,,,,,,,,,,,,,,drojozunk,drojzunk,left,7.873,0,72,72,140,1,87,drojzik / drojozik,"drojzik, drojozni",ünk,NA,"János imád drojozni, ezért sokat drojzik.",Mi ritkán...,drojzunk,drojozunk,cselekszik,-zik,1,PR2073,1980,nő,nem,2022-04-18_18h40.17.161,hesp_baseline,2021.2.3,Win32,59.88023952
,,,,,,,,,,,,,,,,,gihesztnek,gihesztnak,left,3.747,0,73,73,36,1,91,giheszt,giheszt,nak,e,Ez itt egy giheszt.,Elneveztem a kutyámat...,gihesztnek,gihesztnak,dzsungel,NA,NA,PR2073,1980,nő,nem,2022-04-18_18h40.17.161,hesp_baseline,2021.2.3,Win32,59.88023952
,,,,,,,,,,,,,,,,,ruslom,ruslok,left,2.898,0,74,74,83,1,84,ruslik,ruslasz,NA,NA,Te bizony sokat ruslasz.,Én is sokat...,ruslok,ruslom,lakik,-lik,1,PR2073,1980,nő,nem,2022-04-18_18h40.17.161,hesp_baseline,2021.2.3,Win32,59.88023952
,,,,,,,,,,,,,,,,,fröjözünk,fröjlünk,left,5.607,0,75,75,117,1,64,fröjlik / fröjözik,"fröjlik, fröjözni",ünk,NA,"János imád fröjözni, ezért sokat fröjlik.",Mi ritkán...,fröjlünk,fröjözünk,cselekszik,-lik,1,PR2073,1980,nő,nem,2022-04-18_18h40.17.161,hesp_baseline,2021.2.3,Win32,59.88023952
,,,,,,,,,,,,,,,,,pivegszek,pivegszem,left,4.043,0,76,76,99,1,100,pivegszik,pivegszel,NA,NA,Te bizony sokat pivegszel.,Én is sokat...,pivegszek,pivegszem,lakik,-szik,2,PR2073,1980,nő,nem,2022-04-18_18h40.17.161,hesp_baseline,2021.2.3,Win32,59.88023952
,,,,,,,,,,,,,,,,,sporzemnak,sporzemnek,right,4.186,0,77,77,26,1,81,sporzem,sporzem,nak,e,Ez itt egy sporzem.,Elneveztem a kutyámat...,sporzemnek,sporzemnak,dzsungel,NA,NA,PR2073,1980,nő,nem,2022-04-18_18h40.17.161,hesp_baseline,2021.2.3,Win32,59.88023952
,,,,,,,,,,,,,,,,,tranékben,tranékban,right,5.903,0,78,78,2,1,57,tranék,tranék,ban,é,Ez itt egy tranék.,Ott vagyunk a...,tranékben,tranékban,dzsungel,NA,NA,PR2073,1980,nő,nem,2022-04-18_18h40.17.161,hesp_baseline,2021.2.3,Win32,59.88023952
,,,,,,,,,,,,,,,,,dilakoztok,dilaklotok,left,6.835,0,79,79,158,1,105,dilaklik / dilakozik,"dilaklik, dilakozni",tek,NA,"János imád dilakozni, ezért sokat dilaklik.",Ti ritkán...,dilaklotok,dilakoztok,cselekszik,-lik,2,PR2073,1980,nő,nem,2022-04-18_18h40.17.161,hesp_baseline,2021.2.3,Win32,59.88023952
,,,,,,,,,,,,,,,,,gihamlanak,gihamoznak,left,5.078,0,80,80,133,1,80,gihamlik / gihamozik,"gihamlik, gihamozni",nek,NA,"János imád gihamozni, ezért sokat gihamlik.",Ők ritkán...,gihamlanak,gihamoznak,cselekszik,-lik,2,PR2073,1980,nő,nem,2022-04-18_18h40.17.161,hesp_baseline,2021.2.3,Win32,59.88023952
,,,,,,,,,,,,,,,,,nűröklök,nűröklöm,left,3.923,0,81,81,106,1,107,nűröklik,nűröklesz,NA,NA,Te bizony sokat nűröklesz.,Én is sokat...,nűröklök,nűröklöm,lakik,-lik,2,PR2073,1980,nő,nem,2022-04-18_18h40.17.161,hesp_baseline,2021.2.3,Win32,59.88023952
,,,,,,,,,,,,,,,,,nyöböznek,nyöbzenek,left,9.314,0,82,82,152,1,99,nyöbzik / nyöbözik,"nyöbzik, nyöbözni",nek,NA,"János imád nyöbözni, ezért sokat nyöbzik.",Ők ritkán...,nyöbzenek,nyöböznek,cselekszik,-zik,1,PR2073,1980,nő,nem,2022-04-18_18h40.17.161,hesp_baseline,2021.2.3,Win32,59.88023952
,,,,,,,,,,,,,,,,,tribejeztek,tribejletek,left,5.714,0,83,83,132,1,79,tribejlik / tribejezik,"tribejlik, tribejezni",tek,NA,"János imád tribejezni, ezért sokat tribejlik.",Ti ritkán...,tribejletek,tribejeztek,cselekszik,-lik,2,PR2073,1980,nő,nem,2022-04-18_18h40.17.161,hesp_baseline,2021.2.3,Win32,59.88023952
,,,,,,,,,,,,,,,,,sprebeznek,sprebzenek,right,10.603,0,84,84,139,1,86,sprebzik / sprebezik,"sprebzik, sprebezni",nek,NA,"János imád sprebezni, ezért sokat sprebzik.",Ők ritkán...,sprebzenek,sprebeznek,cselekszik,-zik,1,PR2073,1980,nő,nem,2022-04-18_18h40.17.161,hesp_baseline,2021.2.3,Win32,59.88023952
,,,,,,,,,,,,,,,,,szűslök,szűslöm,left,4.393,0,85,85,85,1,86,szűslik,szűslesz,NA,NA,Te bizony sokat szűslesz.,Én is sokat...,szűslök,szűslöm,lakik,-lik,1,PR2073,1980,nő,nem,2022-04-18_18h40.17.161,hesp_baseline,2021.2.3,Win32,59.88023952
,,,,,,,,,,,,,,,,,nyametben,nyametban,left,5.522,0,86,86,17,1,72,nyamet,nyamet,ban,e,Ez itt egy nyamet.,Ott vagyunk a...,nyametben,nyametban,dzsungel,NA,NA,PR2073,1980,nő,nem,2022-04-18_18h40.17.161,hesp_baseline,2021.2.3,Win32,59.88023952
,,,,,,,,,,,,,,,,,femlek,femlem,left,3.161,0,87,87,57,1,58,femlik,femlesz,NA,NA,Te bizony sokat femlesz.,Én is sokat...,femlek,femlem,lakik,-lik,1,PR2073,1980,nő,nem,2022-04-18_18h40.17.161,hesp_baseline,2021.2.3,Win32,59.88023952
,,,,,,,,,,,,,,,,,szanéjnek,szanéjnak,left,3.58,0,88,88,13,1,68,szanéj,szanéj,nak,é,Ez itt egy szanéj.,Elneveztem a kutyámat...,szanéjnek,szanéjnak,dzsungel,NA,NA,PR2073,1980,nő,nem,2022-04-18_18h40.17.161,hesp_baseline,2021.2.3,Win32,59.88023952
,,,,,,,,,,,,,,,,,csimennál,csimennél,right,3.228,0,89,89,44,1,99,csimen,csimen,nál,e,Ez itt egy csimen.,Nincs is jobb egy jó...,csimennél,csimennál,dzsungel,NA,NA,PR2073,1980,nő,nem,2022-04-18_18h40.17.161,hesp_baseline,2021.2.3,Win32,59.88023952
,,,,,,,,,,,,,,,,,flodlotok,flodoztok,left,5.504,0,90,90,144,1,91,flodlik / flodozik,"flodlik, flodozni",tek,NA,"János imád flodozni, ezért sokat flodlik.",Ti ritkán...,flodlotok,flodoztok,cselekszik,-lik,1,PR2073,1980,nő,nem,2022-04-18_18h40.17.161,hesp_baseline,2021.2.3,Win32,59.88023952
,,,,,,,,,,,,,,,,,pribemlek,pribemlem,left,3.54,0,91,91,107,1,108,pribemlik,pribemlesz,NA,NA,Te bizony sokat pribemlesz.,Én is sokat...,pribemlek,pribemlem,lakik,-lik,2,PR2073,1980,nő,nem,2022-04-18_18h40.17.161,hesp_baseline,2021.2.3,Win32,59.88023952
,,,,,,,,,,,,,,,,,dóbemnak,dóbemnek,right,4.459,0,92,92,48,1,103,dóbem,dóbem,nak,e,Ez itt egy dóbem.,Elneveztem a kutyámat...,dóbemnek,dóbemnak,dzsungel,NA,NA,PR2073,1980,nő,nem,2022-04-18_18h40.17.161,hesp_baseline,2021.2.3,Win32,59.88023952
,,,,,,,,,,,,,,,,,jóbecnak,jóbecnek,right,4.169,0,93,93,11,1,66,jóbec,jóbec,nak,e,Ez itt egy jóbec.,Elneveztem a kutyámat...,jóbecnek,jóbecnak,dzsungel,NA,NA,PR2073,1980,nő,nem,2022-04-18_18h40.17.161,hesp_baseline,2021.2.3,Win32,59.88023952
,,,,,,,,,,,,,,,,,lijeznak,lijeznek,right,3.278,0,94,94,40,1,95,lijez,lijez,nak,e,Ez itt egy lijez.,Elneveztem a kutyámat...,lijeznek,lijeznak,dzsungel,NA,NA,PR2073,1980,nő,nem,2022-04-18_18h40.17.161,hesp_baseline,2021.2.3,Win32,59.88023952
,,,,,,,,,,,,,,,,,sprogzok,sprogzom,right,3.905,0,95,95,89,1,90,sprogzik,sprogzol,NA,NA,Te bizony sokat sprogzol.,Én is sokat...,sprogzok,sprogzom,lakik,-zik,1,PR2073,1980,nő,nem,2022-04-18_18h40.17.161,hesp_baseline,2021.2.3,Win32,59.88023952
,,,,,,,,,,,,,,,,,frálaslanak,frálasoznak,left,8.805,0,96,96,110,1,57,frálaslik / frálasozik,"frálaslik, frálasozni",nek,NA,"János imád frálasozni, ezért sokat frálaslik.",Ők ritkán...,frálaslanak,frálasoznak,cselekszik,-lik,2,PR2073,1980,nő,nem,2022-04-18_18h40.17.161,hesp_baseline,2021.2.3,Win32,59.88023952
,,,,,,,,,,,,,,,,,klingeszban,klingeszben,right,3.749,0,97,97,1,1,56,klingesz,klingesz,ban,e,Ez itt egy klingesz.,Ott vagyunk a...,klingeszben,klingeszban,dzsungel,NA,NA,PR2073,1980,nő,nem,2022-04-18_18h40.17.161,hesp_baseline,2021.2.3,Win32,59.88023952
,,,,,,,,,,,,,,,,,zarcégnál,zarcégnél,left,6.101,0,98,98,29,1,84,zarcég,zarcég,nál,é,Ez itt egy zarcég.,Nincs is jobb egy jó...,zarcégnél,zarcégnál,dzsungel,NA,NA,PR2073,1980,nő,nem,2022-04-18_18h40.17.161,hesp_baseline,2021.2.3,Win32,59.88023952
,,,,,,,,,,,,,,,,,sponyoznak,sponylanak,left,5.367,0,99,99,125,1,72,sponylik / sponyozik,"sponylik, sponyozni",nek,NA,"János imád sponyozni, ezért sokat sponylik.",Ők ritkán...,sponylanak,sponyoznak,cselekszik,-lik,1,PR2073,1980,nő,nem,2022-04-18_18h40.17.161,hesp_baseline,2021.2.3,Win32,59.88023952
,,,,,,,,,,,,,,,,,flűröklök,flűröklöm,left,6.604,0,100,100,91,1,92,flűröklik,flűröklesz,NA,NA,Te bizony sokat flűröklesz.,Én is sokat...,flűröklök,flűröklöm,lakik,-lik,2,PR2073,1980,nő,nem,2022-04-18_18h40.17.161,hesp_baseline,2021.2.3,Win32,59.88023952
,,,,,,,,,,,,,,,,,dingecnek,dingecnak,left,17.685,0,101,101,42,1,97,dingec,dingec,nak,e,Ez itt egy dingec.,Elneveztem a kutyámat...,dingecnek,dingecnak,dzsungel,NA,NA,PR2073,1980,nő,nem,2022-04-18_18h40.17.161,hesp_baseline,2021.2.3,Win32,59.88023952
,,,,,,,,,,,,,,,,,fupétnál,fupétnél,left,5.885,0,102,102,14,1,69,fupét,fupét,nál,é,Ez itt egy fupét.,Nincs is jobb egy jó...,fupétnél,fupétnál,dzsungel,NA,NA,PR2073,1980,nő,nem,2022-04-18_18h40.17.161,hesp_baseline,2021.2.3,Win32,59.88023952
,,,,,,,,,,,,,,,,,flátszom,flátszok,left,3.779,0,103,103,98,1,99,flátszik,flátszol,NA,NA,Te bizony sokat flátszol.,Én is sokat...,flátszok,flátszom,lakik,-szik,1,PR2073,1980,nő,nem,2022-04-18_18h40.17.161,hesp_baseline,2021.2.3,Win32,59.88023952
,,,,,,,,,,,,,,,,,ikszertben,ikszertban,left,3.375,0,104,104,19,1,74,ikszert,ikszert,ban,e,Ez itt egy ikszert.,Ott vagyunk a...,ikszertben,ikszertban,dzsungel,NA,NA,PR2073,1980,nő,nem,2022-04-18_18h40.17.161,hesp_baseline,2021.2.3,Win32,59.88023952
,,,,,,,,,,,,,,,,,júdernak,júdernek,right,4.937,0,105,105,53,1,108,júder,júder,nak,e,Ez itt egy júder.,Elneveztem a kutyámat...,júdernek,júdernak,dzsungel,NA,NA,PR2073,1980,nő,nem,2022-04-18_18h40.17.161,hesp_baseline,2021.2.3,Win32,59.88023952
,,,,,,,,,,,,,,,,,sojzok,sojzom,right,3.977,0,106,106,74,1,75,sojzik,sojzol,NA,NA,Te bizony sokat sojzol.,Én is sokat...,sojzok,sojzom,lakik,-zik,1,PR2073,1980,nő,nem,2022-04-18_18h40.17.161,hesp_baseline,2021.2.3,Win32,59.88023952
,,,,,,,,,,,,,,,,,csíszlok,csíszlom,left,4.95,0,107,107,84,1,85,csíszlik,csíszlasz,NA,NA,Te bizony sokat csíszlasz.,Én is sokat...,csíszlok,csíszlom,lakik,-lik,1,PR2073,1980,nő,nem,2022-04-18_18h40.17.161,hesp_baseline,2021.2.3,Win32,59.88023952
,,,,,,,,,,,,,,,,,metégszenek,metégednek,left,6.573,0,108,108,112,1,59,metégszik / metégedik,"metégszik, metégedni",nek,NA,"János imád metégedni, ezért sokat metégszik.",Ők ritkán...,metégszenek,metégednek,cselekszik,-szik,2,PR2073,1980,nő,nem,2022-04-18_18h40.17.161,hesp_baseline,2021.2.3,Win32,59.88023952
,,,,,,,,,,,,,,,,,floglom,floglok,left,2.8,0,109,109,92,1,93,floglik,floglasz,NA,NA,Te bizony sokat floglasz.,Én is sokat...,floglok,floglom,lakik,-lik,1,PR2073,1980,nő,nem,2022-04-18_18h40.17.161,hesp_baseline,2021.2.3,Win32,59.88023952
,,,,,,,,,,,,,,,,,spibeglünk,spibegezünk,left,9.977,0,110,110,147,1,94,spibeglik / spibegezik,"spibeglik, spibegezni",ünk,NA,"János imád spibegezni, ezért sokat spibeglik.",Mi ritkán...,spibeglünk,spibegezünk,cselekszik,-lik,2,PR2073,1980,nő,nem,2022-04-18_18h40.17.161,hesp_baseline,2021.2.3,Win32,59.88023952
,,,,,,,,,,,,,,,,,sortemnál,sortemnél,left,8.911,0,111,111,15,1,70,sortem,sortem,nál,e,Ez itt egy sortem.,Nincs is jobb egy jó...,sortemnél,sortemnál,dzsungel,NA,NA,PR2073,1980,nő,nem,2022-04-18_18h40.17.161,hesp_baseline,2021.2.3,Win32,59.88023952
,,,,,,,,,,,,,,,,,ribegzek,ribegzem,left,3.861,0,112,112,63,1,64,ribegzik,ribegzel,NA,NA,Te bizony sokat ribegzel.,Én is sokat...,ribegzek,ribegzem,lakik,-zik,2,PR2073,1980,nő,nem,2022-04-18_18h40.17.161,hesp_baseline,2021.2.3,Win32,59.88023952
,,,,,,,,,,,,,,,,,flubokoztok,fluboklotok,left,12.825,0,113,113,151,1,98,fluboklik / flubokozik,"fluboklik, flubokozni",tek,NA,"János imád flubokozni, ezért sokat fluboklik.",Ti ritkán...,fluboklotok,flubokoztok,cselekszik,-lik,2,PR2073,1980,nő,nem,2022-04-18_18h40.17.161,hesp_baseline,2021.2.3,Win32,59.88023952
,,,,,,,,,,,,,,,,,zsigénnél,zsigénnál,left,3.577,0,114,114,12,1,67,zsigén,zsigén,nál,é,Ez itt egy zsigén.,Nincs is jobb egy jó...,zsigénnél,zsigénnál,dzsungel,NA,NA,PR2073,1980,nő,nem,2022-04-18_18h40.17.161,hesp_baseline,2021.2.3,Win32,59.88023952
,,,,,,,,,,,,,,,,,mihágzotok,mihágoztok,right,5.534,0,115,115,118,1,65,mihágzik / mihágozik,"mihágzik, mihágozni",tek,NA,"János imád mihágozni, ezért sokat mihágzik.",Ti ritkán...,mihágzotok,mihágoztok,cselekszik,-zik,2,PR2073,1980,nő,nem,2022-04-18_18h40.17.161,hesp_baseline,2021.2.3,Win32,59.88023952
,,,,,,,,,,,,,,,,,sprízemnél,sprízemnál,left,6.223,0,116,116,22,1,77,sprízem,sprízem,nál,e,Ez itt egy sprízem.,Nincs is jobb egy jó...,sprízemnél,sprízemnál,dzsungel,NA,NA,PR2073,1980,nő,nem,2022-04-18_18h40.17.161,hesp_baseline,2021.2.3,Win32,59.88023952
,,,,,,,,,,,,,,,,,gyihegzetek,gyihegeztek,right,7.204,0,117,117,124,1,71,gyihegzik / gyihegezik,"gyihegzik, gyihegezni",tek,NA,"János imád gyihegezni, ezért sokat gyihegzik.",Ti ritkán...,gyihegzetek,gyihegeztek,cselekszik,-zik,2,PR2073,1980,nő,nem,2022-04-18_18h40.17.161,hesp_baseline,2021.2.3,Win32,59.88023952
,,,,,,,,,,,,,,,,,kalrézban,kalrézben,right,6.383,0,118,118,16,1,71,kalréz,kalréz,ban,é,Ez itt egy kalréz.,Ott vagyunk a...,kalrézben,kalrézban,dzsungel,NA,NA,PR2073,1980,nő,nem,2022-04-18_18h40.17.161,hesp_baseline,2021.2.3,Win32,59.88023952
,,,,,,,,,,,,,,,,,tomlok,tomlom,left,3.916,0,119,119,86,1,87,tomlik,tomlasz,NA,NA,Te bizony sokat tomlasz.,Én is sokat...,tomlok,tomlom,lakik,-lik,1,PR2073,1980,nő,nem,2022-04-18_18h40.17.161,hesp_baseline,2021.2.3,Win32,59.88023952
,,,,,,,,,,,,,,,,,spüjzök,spüjzöm,left,3.731,0,120,120,59,1,60,spüjzik,spüjzöl,NA,NA,Te bizony sokat spüjzöl.,Én is sokat...,spüjzök,spüjzöm,lakik,-zik,1,PR2073,1980,nő,nem,2022-04-18_18h40.17.161,hesp_baseline,2021.2.3,Win32,59.88023952
,,,,,,,,,,,,,,,,,figlom,figlok,right,3.499,0,121,121,75,1,76,figlik,figlasz,NA,NA,Te bizony sokat figlasz.,Én is sokat...,figlok,figlom,lakik,-lik,1,PR2073,1980,nő,nem,2022-04-18_18h40.17.161,hesp_baseline,2021.2.3,Win32,59.88023952
,,,,,,,,,,,,,,,,,trugzanak,trugoznak,right,7.859,0,122,122,146,1,93,trugzik / trugozik,"trugzik, trugozni",nek,NA,"János imád trugozni, ezért sokat trugzik.",Ők ritkán...,trugzanak,trugoznak,cselekszik,-zik,1,PR2073,1980,nő,nem,2022-04-18_18h40.17.161,hesp_baseline,2021.2.3,Win32,59.88023952
,,,,,,,,,,,,,,,,,klűmlötök,klűmöztök,right,7.344,0,123,123,108,1,55,klűmlik / klűmözik,"klűmlik, klűmözni",tek,NA,"János imád klűmözni, ezért sokat klűmlik.",Ti ritkán...,klűmlötök,klűmöztök,cselekszik,-lik,1,PR2073,1980,nő,nem,2022-04-18_18h40.17.161,hesp_baseline,2021.2.3,Win32,59.88023952
,,,,,,,,,,,,,,,,,flemezünk,flemlünk,right,9.123,0,124,124,137,1,84,flemlik / flemezik,"flemlik, flemezni",ünk,NA,"János imád flemezni, ezért sokat flemlik.",Mi ritkán...,flemlünk,flemezünk,cselekszik,-lik,1,PR2073,1980,nő,nem,2022-04-18_18h40.17.161,hesp_baseline,2021.2.3,Win32,59.88023952
,,,,,,,,,,,,,,,,,nyábétben,nyábétban,right,6.98,0,125,125,21,1,76,nyábét,nyábét,ban,é,Ez itt egy nyábét.,Ott vagyunk a...,nyábétben,nyábétban,dzsungel,NA,NA,PR2073,1980,nő,nem,2022-04-18_18h40.17.161,hesp_baseline,2021.2.3,Win32,59.88023952
,,,,,,,,,,,,,,,,,spivélnak,spivélnek,right,9.65,0,126,126,27,1,82,spivél,spivél,nak,é,Ez itt egy spivél.,Elneveztem a kutyámat...,spivélnek,spivélnak,dzsungel,NA,NA,PR2073,1980,nő,nem,2022-04-18_18h40.17.161,hesp_baseline,2021.2.3,Win32,59.88023952
,,,,,,,,,,,,,,,,,tögöznek,töglenek,left,10.437,0,127,127,156,1,103,töglik / tögözik,"töglik, tögözni",nek,NA,"János imád tögözni, ezért sokat töglik.",Ők ritkán...,töglenek,tögöznek,cselekszik,-lik,1,PR2073,1980,nő,nem,2022-04-18_18h40.17.161,hesp_baseline,2021.2.3,Win32,59.88023952
,,,,,,,,,,,,,,,,,prohódzom,prohódzok,left,3.982,0,128,128,66,1,67,prohódzik,prohódzol,NA,NA,Te bizony sokat prohódzol.,Én is sokat...,prohódzok,prohódzom,lakik,-zik,2,PR2073,1980,nő,nem,2022-04-18_18h40.17.161,hesp_baseline,2021.2.3,Win32,59.88023952
,,,,,,,,,,,,,,,,,flüröslök,flüröslöm,left,3.882,0,129,129,87,1,88,flüröslik,flüröslesz,NA,NA,Te bizony sokat flüröslesz.,Én is sokat...,flüröslök,flüröslöm,lakik,-lik,2,PR2073,1980,nő,nem,2022-04-18_18h40.17.161,hesp_baseline,2021.2.3,Win32,59.88023952
,,,,,,,,,,,,,,,,,prilepedünk,prilepszünk,right,9.041,0,130,130,161,1,108,prilepszik / prilepedik,"prilepszik, prilepedni",ünk,NA,"János imád prilepedni, ezért sokat prilepszik.",Mi ritkán...,prilepszünk,prilepedünk,cselekszik,-szik,2,PR2073,1980,nő,nem,2022-04-18_18h40.17.161,hesp_baseline,2021.2.3,Win32,59.88023952
,,,,,,,,,,,,,,,,,huroslom,huroslok,left,3.465,0,131,131,76,1,77,huroslik,huroslasz,NA,NA,Te bizony sokat huroslasz.,Én is sokat...,huroslok,huroslom,lakik,-lik,2,PR2073,1980,nő,nem,2022-04-18_18h40.17.161,hesp_baseline,2021.2.3,Win32,59.88023952
,,,,,,,,,,,,,,,,,péleslek,péleslem,left,5.793,0,132,132,73,1,74,péleslik,péleslesz,NA,NA,Te bizony sokat péleslesz.,Én is sokat...,péleslek,péleslem,lakik,-lik,2,PR2073,1980,nő,nem,2022-04-18_18h40.17.161,hesp_baseline,2021.2.3,Win32,59.88023952
,,,,,,,,,,,,,,,,,dibágoztok,dibáglotok,left,6.693,0,133,133,154,1,101,dibáglik / dibágozik,"dibáglik, dibágozni",tek,NA,"János imád dibágozni, ezért sokat dibáglik.",Ti ritkán...,dibáglotok,dibágoztok,cselekszik,-lik,2,PR2073,1980,nő,nem,2022-04-18_18h40.17.161,hesp_baseline,2021.2.3,Win32,59.88023952
,,,,,,,,,,,,,,,,,jábézban,jábézben,left,3.33,0,134,134,34,1,89,jábéz,jábéz,ban,é,Ez itt egy jábéz.,Ott vagyunk a...,jábézben,jábézban,dzsungel,NA,NA,PR2073,1980,nő,nem,2022-04-18_18h40.17.161,hesp_baseline,2021.2.3,Win32,59.88023952
,,,,,,,,,,,,,,,,,trigencnak,trigencnek,right,5.681,0,135,135,31,1,86,trigenc,trigenc,nak,e,Ez itt egy trigenc.,Elneveztem a kutyámat...,trigencnek,trigencnak,dzsungel,NA,NA,PR2073,1980,nő,nem,2022-04-18_18h40.17.161,hesp_baseline,2021.2.3,Win32,59.88023952
,,,,,,,,,,,,,,,,,kumlom,kumlok,right,3.421,0,136,136,105,1,106,kumlik,kumlasz,NA,NA,Te bizony sokat kumlasz.,Én is sokat...,kumlok,kumlom,lakik,-lik,1,PR2073,1980,nő,nem,2022-04-18_18h40.17.161,hesp_baseline,2021.2.3,Win32,59.88023952
,,,,,,,,,,,,,,,,,klehényletek,klehényeztek,left,9.153,0,137,137,113,1,60,klehénylik / klehényezik,"klehénylik, klehényezni",tek,NA,"János imád klehényezni, ezért sokat klehénylik.",Ti ritkán...,klehényletek,klehényeztek,cselekszik,-lik,2,PR2073,1980,nő,nem,2022-04-18_18h40.17.161,hesp_baseline,2021.2.3,Win32,59.88023952
,,,,,,,,,,,,,,,,,garcépnél,garcépnál,right,3.914,0,138,138,38,1,93,garcép,garcép,nál,é,Ez itt egy garcép.,Nincs is jobb egy jó...,garcépnél,garcépnál,dzsungel,NA,NA,PR2073,1980,nő,nem,2022-04-18_18h40.17.161,hesp_baseline,2021.2.3,Win32,59.88023952
,,,,,,,,,,,,,,,,,juszlok,juszlom,left,3.12,0,139,139,79,1,80,juszlik,juszlasz,NA,NA,Te bizony sokat juszlasz.,Én is sokat...,juszlok,juszlom,lakik,-lik,1,PR2073,1980,nő,nem,2022-04-18_18h40.17.161,hesp_baseline,2021.2.3,Win32,59.88023952
,,,,,,,,,,,,,,,,,jonylom,jonylok,right,5.331,0,140,140,55,1,56,jonylik,jonylasz,NA,NA,Te bizony sokat jonylasz.,Én is sokat...,jonylok,jonylom,lakik,-lik,1,PR2073,1980,nő,nem,2022-04-18_18h40.17.161,hesp_baseline,2021.2.3,Win32,59.88023952
,,,,,,,,,,,,,,,,,ronvetnak,ronvetnek,right,6.648,0,141,141,9,1,64,ronvet,ronvet,nak,e,Ez itt egy ronvet.,Elneveztem a kutyámat...,ronvetnek,ronvetnak,dzsungel,NA,NA,PR2073,1980,nő,nem,2022-04-18_18h40.17.161,hesp_baseline,2021.2.3,Win32,59.88023952
,,,,,,,,,,,,,,,,,molszotok,molodtok,left,7.989,0,142,142,142,1,89,molszik / molodik,"molszik, molodni",tek,NA,"János imád molodni, ezért sokat molszik.",Ti ritkán...,molszotok,molodtok,cselekszik,-szik,1,PR2073,1980,nő,nem,2022-04-18_18h40.17.161,hesp_baseline,2021.2.3,Win32,59.88023952
,,,,,,,,,,,,,,,,,lorjódzom,lorjódzok,right,3.932,0,143,143,88,1,89,lorjódzik,lorjódzol,NA,NA,Te bizony sokat lorjódzol.,Én is sokat...,lorjódzok,lorjódzom,lakik,-zik,2,PR2073,1980,nő,nem,2022-04-18_18h40.17.161,hesp_baseline,2021.2.3,Win32,59.88023952
,,,,,,,,,,,,,,,,,nidétban,nidétben,right,4.51,0,144,144,39,1,94,nidét,nidét,ban,é,Ez itt egy nidét.,Ott vagyunk a...,nidétben,nidétban,dzsungel,NA,NA,PR2073,1980,nő,nem,2022-04-18_18h40.17.161,hesp_baseline,2021.2.3,Win32,59.88023952
,,,,,,,,,,,,,,,,,friszlok,friszlom,left,3.726,0,145,145,97,1,98,friszlik,friszlasz,NA,NA,Te bizony sokat friszlasz.,Én is sokat...,friszlok,friszlom,lakik,-lik,1,PR2073,1980,nő,nem,2022-04-18_18h40.17.161,hesp_baseline,2021.2.3,Win32,59.88023952
,,,,,,,,,,,,,,,,,dihelynak,dihelynek,right,3.608,0,146,146,20,1,75,dihely,dihely,nak,e,Ez itt egy dihely.,Elneveztem a kutyámat...,dihelynek,dihelynak,dzsungel,NA,NA,PR2073,1980,nő,nem,2022-04-18_18h40.17.161,hesp_baseline,2021.2.3,Win32,59.88023952
,,,,,,,,,,,,,,,,,flürököztök,flüröklötök,right,6.927,0,147,147,149,1,96,flüröklik / flüröközik,"flüröklik, flüröközni",tek,NA,"János imád flüröközni, ezért sokat flüröklik.",Ti ritkán...,flüröklötök,flürököztök,cselekszik,-lik,2,PR2073,1980,nő,nem,2022-04-18_18h40.17.161,hesp_baseline,2021.2.3,Win32,59.88023952
,,,,,,,,,,,,,,,,,spizecnek,spizecnak,left,4.307,0,148,148,6,1,61,spizec,spizec,nak,e,Ez itt egy spizec.,Elneveztem a kutyámat...,spizecnek,spizecnak,dzsungel,NA,NA,PR2073,1980,nő,nem,2022-04-18_18h40.17.161,hesp_baseline,2021.2.3,Win32,59.88023952
,,,,,,,,,,,,,,,,,nyürzenek,nyüröznek,left,7.263,0,149,149,123,1,70,nyürzik / nyürözik,"nyürzik, nyürözni",nek,NA,"János imád nyürözni, ezért sokat nyürzik.",Ők ritkán...,nyürzenek,nyüröznek,cselekszik,-zik,1,PR2073,1980,nő,nem,2022-04-18_18h40.17.161,hesp_baseline,2021.2.3,Win32,59.88023952
,,,,,,,,,,,,,,,,,frodlom,frodlok,right,2.975,0,150,150,61,1,62,frodlik,frodlasz,NA,NA,Te bizony sokat frodlasz.,Én is sokat...,frodlok,frodlom,lakik,-lik,1,PR2073,1980,nő,nem,2022-04-18_18h40.17.161,hesp_baseline,2021.2.3,Win32,59.88023952
,,,,,,,,,,,,,,,,,klidlok,klidlom,left,3.621,0,151,151,72,1,73,klidlik,klidlasz,NA,NA,Te bizony sokat klidlasz.,Én is sokat...,klidlok,klidlom,lakik,-lik,1,PR2073,1980,nő,nem,2022-04-18_18h40.17.161,hesp_baseline,2021.2.3,Win32,59.88023952
,,,,,,,,,,,,,,,,,spiharzotok,spiharoztok,right,8.656,0,152,152,127,1,74,spiharzik / spiharozik,"spiharzik, spiharozni",tek,NA,"János imád spiharozni, ezért sokat spiharzik.",Ti ritkán...,spiharzotok,spiharoztok,cselekszik,-zik,2,PR2073,1980,nő,nem,2022-04-18_18h40.17.161,hesp_baseline,2021.2.3,Win32,59.88023952
,,,,,,,,,,,,,,,,,prihekszem,prihekszek,right,4.883,0,153,153,100,1,101,prihekszik,prihekszel,NA,NA,Te bizony sokat prihekszel.,Én is sokat...,prihekszek,prihekszem,lakik,-szik,2,PR2073,1980,nő,nem,2022-04-18_18h40.17.161,hesp_baseline,2021.2.3,Win32,59.88023952
,,,,,,,,,,,,,,,,,spülűdzök,spülűdzöm,right,6.395,0,154,154,56,1,57,spülűdzik,spülűdzöl,NA,NA,Te bizony sokat spülűdzöl.,Én is sokat...,spülűdzök,spülűdzöm,lakik,-zik,2,PR2073,1980,nő,nem,2022-04-18_18h40.17.161,hesp_baseline,2021.2.3,Win32,59.88023952
,,,,,,,,,,,,,,,,,klajrénnek,klajrénnak,left,4.594,0,155,155,41,1,96,klajrén,klajrén,nak,é,Ez itt egy klajrén.,Elneveztem a kutyámat...,klajrénnek,klajrénnak,dzsungel,NA,NA,PR2073,1980,nő,nem,2022-04-18_18h40.17.161,hesp_baseline,2021.2.3,Win32,59.88023952
,,,,,,,,,,,,,,,,,livényezünk,livénylünk,right,6.07,0,156,156,128,1,75,livénylik / livényezik,"livénylik, livényezni",ünk,NA,"János imád livényezni, ezért sokat livénylik.",Mi ritkán...,livénylünk,livényezünk,cselekszik,-lik,2,PR2073,1980,nő,nem,2022-04-18_18h40.17.161,hesp_baseline,2021.2.3,Win32,59.88023952
,,,,,,,,,,,,,,,,,játlunk,játozunk,left,10.005,0,157,157,145,1,92,játlik / játozik,"játlik, játozni",ünk,NA,"János imád játozni, ezért sokat játlik.",Mi ritkán...,játlunk,játozunk,cselekszik,-lik,1,PR2073,1980,nő,nem,2022-04-18_18h40.17.161,hesp_baseline,2021.2.3,Win32,59.88023952
,,,,,,,,,,,,,,,,,flibekszem,flibekszek,left,9.875,0,158,158,93,1,94,flibekszik,flibekszel,NA,NA,Te bizony sokat flibekszel.,Én is sokat...,flibekszek,flibekszem,lakik,-szik,2,PR2073,1980,nő,nem,2022-04-18_18h40.17.161,hesp_baseline,2021.2.3,Win32,59.88023952
,,,,,,,,,,,,,,,,,fligzok,fligzom,left,3.212,0,159,159,103,1,104,fligzik,fligzol,NA,NA,Te bizony sokat fligzol.,Én is sokat...,fligzok,fligzom,lakik,-zik,1,PR2073,1980,nő,nem,2022-04-18_18h40.17.161,hesp_baseline,2021.2.3,Win32,59.88023952
,,,,,,,,,,,,,,,,,flézletek,flézeztek,left,14.373,0,160,160,134,1,81,flézlik / flézezik,"flézlik, flézezni",tek,NA,"János imád flézezni, ezért sokat flézlik.",Ti ritkán...,flézletek,flézeztek,cselekszik,-lik,1,PR2073,1980,nő,nem,2022-04-18_18h40.17.161,hesp_baseline,2021.2.3,Win32,59.88023952
,,,,,,,,,,,,,,,,,vorszennél,vorszennál,left,5.04,0,161,161,30,1,85,vorszen,vorszen,nál,e,Ez itt egy vorszen.,Nincs is jobb egy jó...,vorszennél,vorszennál,dzsungel,NA,NA,PR2073,1980,nő,nem,2022-04-18_18h40.17.161,hesp_baseline,2021.2.3,Win32,59.88023952
