my_list,key.keys,key.rt,key_2.keys,key_2.rt,keyboard_input_2.keys,keyboard_input_2.rt,key_3.keys,key_3.rt,keyboard_input_3.keys,keyboard_input_3.rt,key_4.keys,key_4.rt,keyboard_input_4.keys,keyboard_input_4.rt,key_5.keys,key_5.rt,my_button1,my_button2,keyboard_input.keys,keyboard_input.rt,withinBlock.thisRepN,withinBlock.thisTrialN,withinBlock.thisN,withinBlock.thisIndex,withinBlock.ran,rowname,word,prompt,suffix,vowel,carrier_sentence,target_sentence,target1,target2,category,derivational,nsyl,Azonosító,Melyik évben születtél?,Mi a nemed?,Tanultál nyelvészetet?,date,expName,psychopyVersion,OS,frameRate
list3.csv,space,12.0105,space,7.0192,right,5.9881,space,12.5003,left,7.5454,space,9.3489,left,13.0333,space,13.6534,klétszem,klétszek,left,22.879,0,0,0,60,1,115,klétszik,klétszel,NA,NA,Te bizony sokat klétszel.,Én is sokat...,klétszek,klétszem,lakik,-szik,1,PR2005,2002,nő,nem,2022-04-01_15h26.56.887,hesp_baseline,2021.2.3,Win32,60.62810719
,,,,,,,,,,,,,,,,,lűköznek,lűklenek,right,29.1616,0,1,1,136,1,137,lűklik / lűközik,"lűklik, lűközni",nek,NA,"János imád lűközni, ezért sokat lűklik.",Ők ritkán...,lűklenek,lűköznek,cselekszik,-lik,1,PR2005,2002,nő,nem,2022-04-01_15h26.56.887,hesp_baseline,2021.2.3,Win32,60.62810719
,,,,,,,,,,,,,,,,,fretszem,fretszek,left,7.3725,0,2,2,66,1,121,fretszik,fretszel,NA,NA,Te bizony sokat fretszel.,Én is sokat...,fretszek,fretszem,lakik,-szik,1,PR2005,2002,nő,nem,2022-04-01_15h26.56.887,hesp_baseline,2021.2.3,Win32,60.62810719
,,,,,,,,,,,,,,,,,trádlok,trádlom,left,10.6465,0,3,3,105,1,160,trádlik,trádlasz,NA,NA,Te bizony sokat trádlasz.,Én is sokat...,trádlok,trádlom,lakik,-lik,1,PR2005,2002,nő,nem,2022-04-01_15h26.56.887,hesp_baseline,2021.2.3,Win32,60.62810719
,,,,,,,,,,,,,,,,,lismévben,lismévban,left,8.1491,0,4,4,0,1,109,lismév,lismév,ban,é,Ez itt egy lismév.,Ott vagyunk a...,lismévben,lismévban,dzsungel,NA,NA,PR2005,2002,nő,nem,2022-04-01_15h26.56.887,hesp_baseline,2021.2.3,Win32,60.62810719
,,,,,,,,,,,,,,,,,brivepedünk,brivepszünk,right,14.6118,0,5,5,113,1,114,brivepszik / brivepedik,"brivepszik, brivepedni",ünk,NA,"János imád brivepedni, ezért sokat brivepszik.",Mi ritkán...,brivepszünk,brivepedünk,cselekszik,-szik,2,PR2005,2002,nő,nem,2022-04-01_15h26.56.887,hesp_baseline,2021.2.3,Win32,60.62810719
,,,,,,,,,,,,,,,,,vehékedünk,vehékszünk,right,8.1063,0,6,6,117,1,118,vehékszik / vehékedik,"vehékszik, vehékedni",ünk,NA,"János imád vehékedni, ezért sokat vehékszik.",Mi ritkán...,vehékszünk,vehékedünk,cselekszik,-szik,2,PR2005,2002,nő,nem,2022-04-01_15h26.56.887,hesp_baseline,2021.2.3,Win32,60.62810719
,,,,,,,,,,,,,,,,,bihánylom,bihánylok,right,4.6489,0,7,7,89,1,144,bihánylik,bihánylasz,NA,NA,Te bizony sokat bihánylasz.,Én is sokat...,bihánylok,bihánylom,lakik,-lik,2,PR2005,2002,nő,nem,2022-04-01_15h26.56.887,hesp_baseline,2021.2.3,Win32,60.62810719
,,,,,,,,,,,,,,,,,surnegynál,surnegynél,right,5.2102,0,8,8,8,1,117,surnegy,surnegy,nál,e,Ez itt egy surnegy.,Nincs is jobb egy jó...,surnegynél,surnegynál,dzsungel,NA,NA,PR2005,2002,nő,nem,2022-04-01_15h26.56.887,hesp_baseline,2021.2.3,Win32,60.62810719
,,,,,,,,,,,,,,,,,triképben,triképban,left,4.2483,0,9,9,33,1,142,trikép,trikép,ban,é,Ez itt egy trikép.,Ott vagyunk a...,triképben,triképban,dzsungel,NA,NA,PR2005,2002,nő,nem,2022-04-01_15h26.56.887,hesp_baseline,2021.2.3,Win32,60.62810719
,,,,,,,,,,,,,,,,,briskédnál,briskédnél,right,4.6657,0,10,10,51,1,160,briskéd,briskéd,nál,é,Ez itt egy briskéd.,Nincs is jobb egy jó...,briskédnél,briskédnál,dzsungel,NA,NA,PR2005,2002,nő,nem,2022-04-01_15h26.56.887,hesp_baseline,2021.2.3,Win32,60.62810719
,,,,,,,,,,,,,,,,,sűzlöm,sűzlök,left,3.3991,0,11,11,54,1,109,sűzlik,sűzlesz,NA,NA,Te bizony sokat sűzlesz.,Én is sokat...,sűzlök,sűzlöm,lakik,-lik,1,PR2005,2002,nő,nem,2022-04-01_15h26.56.887,hesp_baseline,2021.2.3,Win32,60.62810719
,,,,,,,,,,,,,,,,,vűjlök,vűjlöm,right,10.4802,0,12,12,94,1,149,vűjlik,vűjlesz,NA,NA,Te bizony sokat vűjlesz.,Én is sokat...,vűjlök,vűjlöm,lakik,-lik,1,PR2005,2002,nő,nem,2022-04-01_15h26.56.887,hesp_baseline,2021.2.3,Win32,60.62810719
,,,,,,,,,,,,,,,,,brűköztök,brűklötök,left,7.0161,0,13,13,153,1,154,brűklik / brűközik,"brűklik, brűközni",tek,NA,"János imád brűközni, ezért sokat brűklik.",Ti ritkán...,brűklötök,brűköztök,cselekszik,-lik,1,PR2005,2002,nő,nem,2022-04-01_15h26.56.887,hesp_baseline,2021.2.3,Win32,60.62810719
,,,,,,,,,,,,,,,,,ronszekban,ronszekben,left,6.5341,0,14,14,18,1,127,ronszek,ronszek,ban,e,Ez itt egy ronszek.,Ott vagyunk a...,ronszekben,ronszekban,dzsungel,NA,NA,PR2005,2002,nő,nem,2022-04-01_15h26.56.887,hesp_baseline,2021.2.3,Win32,60.62810719
,,,,,,,,,,,,,,,,,sztrozlom,sztrozlok,left,7.0354,0,15,15,104,1,159,sztrozlik,sztrozlasz,NA,NA,Te bizony sokat sztrozlasz.,Én is sokat...,sztrozlok,sztrozlom,lakik,-lik,1,PR2005,2002,nő,nem,2022-04-01_15h26.56.887,hesp_baseline,2021.2.3,Win32,60.62810719
,,,,,,,,,,,,,,,,,lumoztok,lumlotok,right,5.7206,0,16,16,149,1,150,lumlik / lumozik,"lumlik, lumozni",tek,NA,"János imád lumozni, ezért sokat lumlik.",Ti ritkán...,lumlotok,lumoztok,cselekszik,-lik,1,PR2005,2002,nő,nem,2022-04-01_15h26.56.887,hesp_baseline,2021.2.3,Win32,60.62810719
,,,,,,,,,,,,,,,,,siladzom,siladzok,left,3.574,0,17,17,93,1,148,siladzik,siladzol,NA,NA,Te bizony sokat siladzol.,Én is sokat...,siladzok,siladzom,lakik,-zik,2,PR2005,2002,nő,nem,2022-04-01_15h26.56.887,hesp_baseline,2021.2.3,Win32,60.62810719
,,,,,,,,,,,,,,,,,virzanak,viroznak,left,10.9764,0,18,18,125,1,126,virzik / virozik,"virzik, virozni",nek,NA,"János imád virozni, ezért sokat virzik.",Ők ritkán...,virzanak,viroznak,cselekszik,-zik,1,PR2005,2002,nő,nem,2022-04-01_15h26.56.887,hesp_baseline,2021.2.3,Win32,60.62810719
,,,,,,,,,,,,,,,,,filányozunk,filánylunk,right,5.8443,0,19,19,134,1,135,filánylik / filányozik,"filánylik, filányozni",ünk,NA,"János imád filányozni, ezért sokat filánylik.",Mi ritkán...,filánylunk,filányozunk,cselekszik,-lik,2,PR2005,2002,nő,nem,2022-04-01_15h26.56.887,hesp_baseline,2021.2.3,Win32,60.62810719
,,,,,,,,,,,,,,,,,brüjlöm,brüjlök,left,9.901,0,20,20,55,1,110,brüjlik,brüjlesz,NA,NA,Te bizony sokat brüjlesz.,Én is sokat...,brüjlök,brüjlöm,lakik,-lik,1,PR2005,2002,nő,nem,2022-04-01_15h26.56.887,hesp_baseline,2021.2.3,Win32,60.62810719
,,,,,,,,,,,,,,,,,nyarcéjnek,nyarcéjnak,right,9.9081,0,21,21,37,1,146,nyarcéj,nyarcéj,nak,é,Ez itt egy nyarcéj.,Elneveztem a kutyámat...,nyarcéjnek,nyarcéjnak,dzsungel,NA,NA,PR2005,2002,nő,nem,2022-04-01_15h26.56.887,hesp_baseline,2021.2.3,Win32,60.62810719
,,,,,,,,,,,,,,,,,nivároztok,nivárzotok,left,6.493,0,22,22,146,1,147,nivárzik / nivározik,"nivárzik, nivározni",tek,NA,"János imád nivározni, ezért sokat nivárzik.",Ti ritkán...,nivárzotok,nivároztok,cselekszik,-zik,2,PR2005,2002,nő,nem,2022-04-01_15h26.56.887,hesp_baseline,2021.2.3,Win32,60.62810719
,,,,,,,,,,,,,,,,,féjzek,féjzem,right,5.582,0,23,23,91,1,146,féjzik,féjzel,NA,NA,Te bizony sokat féjzel.,Én is sokat...,féjzek,féjzem,lakik,-zik,1,PR2005,2002,nő,nem,2022-04-01_15h26.56.887,hesp_baseline,2021.2.3,Win32,60.62810719
,,,,,,,,,,,,,,,,,trivakszunk,trivakodunk,left,5.0183,0,24,24,118,1,119,trivakszik / trivakodik,"trivakszik, trivakodni",ünk,NA,"János imád trivakodni, ezért sokat trivakszik.",Mi ritkán...,trivakszunk,trivakodunk,cselekszik,-szik,2,PR2005,2002,nő,nem,2022-04-01_15h26.56.887,hesp_baseline,2021.2.3,Win32,60.62810719
,,,,,,,,,,,,,,,,,mágamlunk,mágamozunk,left,5.0191,0,25,25,140,1,141,mágamlik / mágamozik,"mágamlik, mágamozni",ünk,NA,"János imád mágamozni, ezért sokat mágamlik.",Mi ritkán...,mágamlunk,mágamozunk,cselekszik,-lik,2,PR2005,2002,nő,nem,2022-04-01_15h26.56.887,hesp_baseline,2021.2.3,Win32,60.62810719
,,,,,,,,,,,,,,,,,brilegzünk,brilegezünk,left,6.0712,0,26,26,124,1,125,brilegzik / brilegezik,"brilegzik, brilegezni",ünk,NA,"János imád brilegezni, ezért sokat brilegzik.",Mi ritkán...,brilegzünk,brilegezünk,cselekszik,-zik,2,PR2005,2002,nő,nem,2022-04-01_15h26.56.887,hesp_baseline,2021.2.3,Win32,60.62810719
,,,,,,,,,,,,,,,,,frivajlom,frivajlok,left,7.7723,0,27,27,78,1,133,frivajlik,frivajlasz,NA,NA,Te bizony sokat frivajlasz.,Én is sokat...,frivajlok,frivajlom,lakik,-lik,2,PR2005,2002,nő,nem,2022-04-01_15h26.56.887,hesp_baseline,2021.2.3,Win32,60.62810719
,,,,,,,,,,,,,,,,,vihepszem,vihepszek,left,3.7709,0,28,28,59,1,114,vihepszik,vihepszel,NA,NA,Te bizony sokat vihepszel.,Én is sokat...,vihepszek,vihepszem,lakik,-szik,2,PR2005,2002,nő,nem,2022-04-01_15h26.56.887,hesp_baseline,2021.2.3,Win32,60.62810719
,,,,,,,,,,,,,,,,,csodegnál,csodegnél,left,7.9413,0,29,29,28,1,137,csodeg,csodeg,nál,e,Ez itt egy csodeg.,Nincs is jobb egy jó...,csodegnél,csodegnál,dzsungel,NA,NA,PR2005,2002,nő,nem,2022-04-01_15h26.56.887,hesp_baseline,2021.2.3,Win32,60.62810719
,,,,,,,,,,,,,,,,,sztrűkszöm,sztrűkszök,left,4.6504,0,30,30,77,1,132,sztrűkszik,sztrűkszöl,NA,NA,Te bizony sokat sztrűkszöl.,Én is sokat...,sztrűkszök,sztrűkszöm,lakik,-szik,1,PR2005,2002,nő,nem,2022-04-01_15h26.56.887,hesp_baseline,2021.2.3,Win32,60.62810719
,,,,,,,,,,,,,,,,,trapszegynél,trapszegynál,left,5.5843,0,31,31,39,1,148,trapszegy,trapszegy,nál,e,Ez itt egy trapszegy.,Nincs is jobb egy jó...,trapszegynél,trapszegynál,dzsungel,NA,NA,PR2005,2002,nő,nem,2022-04-01_15h26.56.887,hesp_baseline,2021.2.3,Win32,60.62810719
,,,,,,,,,,,,,,,,,trilekszetek,trilekedtek,left,6.8044,0,32,32,157,1,158,trilekszik / trilekedik,"trilekszik, trilekedni",tek,NA,"János imád trilekedni, ezért sokat trilekszik.",Ti ritkán...,trilekszetek,trilekedtek,cselekszik,-szik,2,PR2005,2002,nő,nem,2022-04-01_15h26.56.887,hesp_baseline,2021.2.3,Win32,60.62810719
,,,,,,,,,,,,,,,,,trálakoznak,trálaklanak,right,8.5388,0,33,33,116,1,117,trálaklik / trálakozik,"trálaklik, trálakozni",nek,NA,"János imád trálakozni, ezért sokat trálaklik.",Ők ritkán...,trálaklanak,trálakoznak,cselekszik,-lik,2,PR2005,2002,nő,nem,2022-04-01_15h26.56.887,hesp_baseline,2021.2.3,Win32,60.62810719
,,,,,,,,,,,,,,,,,rájzom,rájzok,left,6.1054,0,34,34,70,1,125,rájzik,rájzol,NA,NA,Te bizony sokat rájzol.,Én is sokat...,rájzok,rájzom,lakik,-zik,1,PR2005,2002,nő,nem,2022-04-01_15h26.56.887,hesp_baseline,2021.2.3,Win32,60.62810719
,,,,,,,,,,,,,,,,,danétnél,danétnál,right,3.533,0,35,35,38,1,147,danét,danét,nál,é,Ez itt egy danét.,Nincs is jobb egy jó...,danétnél,danétnál,dzsungel,NA,NA,PR2005,2002,nő,nem,2022-04-01_15h26.56.887,hesp_baseline,2021.2.3,Win32,60.62810719
,,,,,,,,,,,,,,,,,spuboroznak,spuborzanak,right,6.9654,0,36,36,161,1,162,spuborzik / spuborozik,"spuborzik, spuborozni",nek,NA,"János imád spuborozni, ezért sokat spuborzik.",Ők ritkán...,spuborzanak,spuboroznak,cselekszik,-zik,2,PR2005,2002,nő,nem,2022-04-01_15h26.56.887,hesp_baseline,2021.2.3,Win32,60.62810719
,,,,,,,,,,,,,,,,,trugoklanak,trugokoznak,left,5.7869,0,37,37,109,1,110,trugoklik / trugokozik,"trugoklik, trugokozni",nek,NA,"János imád trugokozni, ezért sokat trugoklik.",Ők ritkán...,trugoklanak,trugokoznak,cselekszik,-lik,2,PR2005,2002,nő,nem,2022-04-01_15h26.56.887,hesp_baseline,2021.2.3,Win32,60.62810719
,,,,,,,,,,,,,,,,,prezlem,prezlek,left,6.3884,0,38,38,87,1,142,prezlik,prezlesz,NA,NA,Te bizony sokat prezlesz.,Én is sokat...,prezlek,prezlem,lakik,-lik,1,PR2005,2002,nő,nem,2022-04-01_15h26.56.887,hesp_baseline,2021.2.3,Win32,60.62810719
,,,,,,,,,,,,,,,,,frilegszek,frilegszem,right,3.3409,0,39,39,72,1,127,frilegszik,frilegszel,NA,NA,Te bizony sokat frilegszel.,Én is sokat...,frilegszek,frilegszem,lakik,-szik,2,PR2005,2002,nő,nem,2022-04-01_15h26.56.887,hesp_baseline,2021.2.3,Win32,60.62810719
,,,,,,,,,,,,,,,,,hágyétnak,hágyétnek,left,6.405,0,40,40,42,1,151,hágyét,hágyét,nak,é,Ez itt egy hágyét.,Elneveztem a kutyámat...,hágyétnek,hágyétnak,dzsungel,NA,NA,PR2005,2002,nő,nem,2022-04-01_15h26.56.887,hesp_baseline,2021.2.3,Win32,60.62810719
,,,,,,,,,,,,,,,,,fliraklom,fliraklok,left,4.4168,0,41,41,98,1,153,fliraklik,fliraklasz,NA,NA,Te bizony sokat fliraklasz.,Én is sokat...,fliraklok,fliraklom,lakik,-lik,2,PR2005,2002,nő,nem,2022-04-01_15h26.56.887,hesp_baseline,2021.2.3,Win32,60.62810719
,,,,,,,,,,,,,,,,,vileslünk,vilesezünk,left,6.428,0,42,42,139,1,140,vileslik / vilesezik,"vileslik, vilesezni",ünk,NA,"János imád vilesezni, ezért sokat vileslik.",Mi ritkán...,vileslünk,vilesezünk,cselekszik,-lik,2,PR2005,2002,nő,nem,2022-04-01_15h26.56.887,hesp_baseline,2021.2.3,Win32,60.62810719
,,,,,,,,,,,,,,,,,ibékszem,ibékszek,left,4.4214,0,43,43,95,1,150,ibékszik,ibékszel,NA,NA,Te bizony sokat ibékszel.,Én is sokat...,ibékszek,ibékszem,lakik,-szik,2,PR2005,2002,nő,nem,2022-04-01_15h26.56.887,hesp_baseline,2021.2.3,Win32,60.62810719
,,,,,,,,,,,,,,,,,brároznak,brárlanak,right,4.7718,0,44,44,126,1,127,brárlik / brározik,"brárlik, brározni",nek,NA,"János imád brározni, ezért sokat brárlik.",Ők ritkán...,brárlanak,brároznak,cselekszik,-lik,1,PR2005,2002,nő,nem,2022-04-01_15h26.56.887,hesp_baseline,2021.2.3,Win32,60.62810719
,,,,,,,,,,,,,,,,,spröbzök,spröbzöm,right,3.8519,0,45,45,90,1,145,spröbzik,spröbzöl,NA,NA,Te bizony sokat spröbzöl.,Én is sokat...,spröbzök,spröbzöm,lakik,-zik,1,PR2005,2002,nő,nem,2022-04-01_15h26.56.887,hesp_baseline,2021.2.3,Win32,60.62810719
,,,,,,,,,,,,,,,,,plágadzom,plágadzok,left,4.9586,0,46,46,74,1,129,plágadzik,plágadzol,NA,NA,Te bizony sokat plágadzol.,Én is sokat...,plágadzok,plágadzom,lakik,-zik,2,PR2005,2002,nő,nem,2022-04-01_15h26.56.887,hesp_baseline,2021.2.3,Win32,60.62810719
,,,,,,,,,,,,,,,,,narjárzom,narjárzok,left,6.27,0,47,47,61,1,116,narjárzik,narjárzol,NA,NA,Te bizony sokat narjárzol.,Én is sokat...,narjárzok,narjárzom,lakik,-zik,2,PR2005,2002,nő,nem,2022-04-01_15h26.56.887,hesp_baseline,2021.2.3,Win32,60.62810719
,,,,,,,,,,,,,,,,,böjzöm,böjzök,left,2.2476,0,48,48,80,1,135,böjzik,böjzöl,NA,NA,Te bizony sokat böjzöl.,Én is sokat...,böjzök,böjzöm,lakik,-zik,1,PR2005,2002,nő,nem,2022-04-01_15h26.56.887,hesp_baseline,2021.2.3,Win32,60.62810719
,,,,,,,,,,,,,,,,,flöklötök,flököztök,right,9.7545,0,49,49,121,1,122,flöklik / flöközik,"flöklik, flöközni",tek,NA,"János imád flöközni, ezért sokat flöklik.",Ti ritkán...,flöklötök,flököztök,cselekszik,-lik,1,PR2005,2002,nő,nem,2022-04-01_15h26.56.887,hesp_baseline,2021.2.3,Win32,60.62810719
,,,,,,,,,,,,,,,,,brálamlanak,brálamoznak,left,5.3398,0,50,50,144,1,145,brálamlik / brálamozik,"brálamlik, brálamozni",nek,NA,"János imád brálamozni, ezért sokat brálamlik.",Ők ritkán...,brálamlanak,brálamoznak,cselekszik,-lik,2,PR2005,2002,nő,nem,2022-04-01_15h26.56.887,hesp_baseline,2021.2.3,Win32,60.62810719
,,,,,,,,,,,,,,,,,pehégedtek,pehégszetek,right,8.0945,0,51,51,151,1,152,pehégszik / pehégedik,"pehégszik, pehégedni",tek,NA,"János imád pehégedni, ezért sokat pehégszik.",Ti ritkán...,pehégszetek,pehégedtek,cselekszik,-szik,2,PR2005,2002,nő,nem,2022-04-01_15h26.56.887,hesp_baseline,2021.2.3,Win32,60.62810719
,,,,,,,,,,,,,,,,,spírzom,spírzok,left,4.6919,0,52,52,64,1,119,spírzik,spírzol,NA,NA,Te bizony sokat spírzol.,Én is sokat...,spírzok,spírzom,lakik,-zik,1,PR2005,2002,nő,nem,2022-04-01_15h26.56.887,hesp_baseline,2021.2.3,Win32,60.62810719
,,,,,,,,,,,,,,,,,tínylok,tínylom,right,4.8417,0,53,53,58,1,113,tínylik,tínylasz,NA,NA,Te bizony sokat tínylasz.,Én is sokat...,tínylok,tínylom,lakik,-lik,1,PR2005,2002,nő,nem,2022-04-01_15h26.56.887,hesp_baseline,2021.2.3,Win32,60.62810719
,,,,,,,,,,,,,,,,,treglek,treglem,right,9.9407,0,54,54,81,1,136,treglik,treglesz,NA,NA,Te bizony sokat treglesz.,Én is sokat...,treglek,treglem,lakik,-lik,1,PR2005,2002,nő,nem,2022-04-01_15h26.56.887,hesp_baseline,2021.2.3,Win32,60.62810719
,,,,,,,,,,,,,,,,,flátlotok,flátoztok,right,5.9362,0,55,55,132,1,133,flátlik / flátozik,"flátlik, flátozni",tek,NA,"János imád flátozni, ezért sokat flátlik.",Ti ritkán...,flátlotok,flátoztok,cselekszik,-lik,1,PR2005,2002,nő,nem,2022-04-01_15h26.56.887,hesp_baseline,2021.2.3,Win32,60.62810719
,,,,,,,,,,,,,,,,,kátelnak,kátelnek,left,5.2346,0,56,56,12,1,121,kátel,kátel,nak,e,Ez itt egy kátel.,Elneveztem a kutyámat...,kátelnek,kátelnak,dzsungel,NA,NA,PR2005,2002,nő,nem,2022-04-01_15h26.56.887,hesp_baseline,2021.2.3,Win32,60.62810719
,,,,,,,,,,,,,,,,,trincsegben,trincsegban,left,4.3515,0,57,57,46,1,155,trincseg,trincseg,ban,e,Ez itt egy trincseg.,Ott vagyunk a...,trincsegben,trincsegban,dzsungel,NA,NA,PR2005,2002,nő,nem,2022-04-01_15h26.56.887,hesp_baseline,2021.2.3,Win32,60.62810719
,,,,,,,,,,,,,,,,,sztrijzok,sztrijzom,right,4.3036,0,58,58,68,1,123,sztrijzik,sztrijzol,NA,NA,Te bizony sokat sztrijzol.,Én is sokat...,sztrijzok,sztrijzom,lakik,-zik,1,PR2005,2002,nő,nem,2022-04-01_15h26.56.887,hesp_baseline,2021.2.3,Win32,60.62810719
,,,,,,,,,,,,,,,,,spalárzanak,spalároznak,left,7.5835,0,59,59,137,1,138,spalárzik / spalározik,"spalárzik, spalározni",nek,NA,"János imád spalározni, ezért sokat spalárzik.",Ők ritkán...,spalárzanak,spalároznak,cselekszik,-zik,2,PR2005,2002,nő,nem,2022-04-01_15h26.56.887,hesp_baseline,2021.2.3,Win32,60.62810719
,,,,,,,,,,,,,,,,,frálapszotok,frálapodtok,left,5.6286,0,60,60,150,1,151,frálapszik / frálapodik,"frálapszik, frálapodni",tek,NA,"János imád frálapodni, ezért sokat frálapszik.",Ti ritkán...,frálapszotok,frálapodtok,cselekszik,-szik,2,PR2005,2002,nő,nem,2022-04-01_15h26.56.887,hesp_baseline,2021.2.3,Win32,60.62810719
,,,,,,,,,,,,,,,,,zatéjnél,zatéjnál,right,4.4841,0,61,61,34,1,143,zatéj,zatéj,nál,é,Ez itt egy zatéj.,Nincs is jobb egy jó...,zatéjnél,zatéjnál,dzsungel,NA,NA,PR2005,2002,nő,nem,2022-04-01_15h26.56.887,hesp_baseline,2021.2.3,Win32,60.62810719
,,,,,,,,,,,,,,,,,pristélban,pristélben,right,4.8339,0,62,62,1,1,110,pristél,pristél,ban,é,Ez itt egy pristél.,Ott vagyunk a...,pristélben,pristélban,dzsungel,NA,NA,PR2005,2002,nő,nem,2022-04-01_15h26.56.887,hesp_baseline,2021.2.3,Win32,60.62810719
,,,,,,,,,,,,,,,,,fizendben,fizendban,left,4.2607,0,63,63,49,1,158,fizend,fizend,ban,e,Ez itt egy fizend.,Ott vagyunk a...,fizendben,fizendban,dzsungel,NA,NA,PR2005,2002,nő,nem,2022-04-01_15h26.56.887,hesp_baseline,2021.2.3,Win32,60.62810719
,,,,,,,,,,,,,,,,,klibamlom,klibamlok,left,6.5571,0,64,64,92,1,147,klibamlik,klibamlasz,NA,NA,Te bizony sokat klibamlasz.,Én is sokat...,klibamlok,klibamlom,lakik,-lik,2,PR2005,2002,nő,nem,2022-04-01_15h26.56.887,hesp_baseline,2021.2.3,Win32,60.62810719
,,,,,,,,,,,,,,,,,dorzéjnek,dorzéjnak,right,3.7653,0,65,65,29,1,138,dorzéj,dorzéj,nak,é,Ez itt egy dorzéj.,Elneveztem a kutyámat...,dorzéjnek,dorzéjnak,dzsungel,NA,NA,PR2005,2002,nő,nem,2022-04-01_15h26.56.887,hesp_baseline,2021.2.3,Win32,60.62810719
,,,,,,,,,,,,,,,,,bűtszöm,bűtszök,left,6.4824,0,66,66,82,1,137,bűtszik,bűtszöl,NA,NA,Te bizony sokat bűtszöl.,Én is sokat...,bűtszök,bűtszöm,lakik,-szik,1,PR2005,2002,nő,nem,2022-04-01_15h26.56.887,hesp_baseline,2021.2.3,Win32,60.62810719
,,,,,,,,,,,,,,,,,pibegeznek,pibegzenek,left,10.7167,0,67,67,127,1,128,pibegzik / pibegezik,"pibegzik, pibegezni",nek,NA,"János imád pibegezni, ezért sokat pibegzik.",Ők ritkán...,pibegzenek,pibegeznek,cselekszik,-zik,2,PR2005,2002,nő,nem,2022-04-01_15h26.56.887,hesp_baseline,2021.2.3,Win32,60.62810719
,,,,,,,,,,,,,,,,,trilszok,trilszom,right,3.8539,0,68,68,103,1,158,trilszik,trilszol,NA,NA,Te bizony sokat trilszol.,Én is sokat...,trilszok,trilszom,lakik,-szik,1,PR2005,2002,nő,nem,2022-04-01_15h26.56.887,hesp_baseline,2021.2.3,Win32,60.62810719
,,,,,,,,,,,,,,,,,brürzenek,brüröznek,right,7.275,0,69,69,110,1,111,brürzik / brürözik,"brürzik, brürözni",nek,NA,"János imád brürözni, ezért sokat brürzik.",Ők ritkán...,brürzenek,brüröznek,cselekszik,-zik,1,PR2005,2002,nő,nem,2022-04-01_15h26.56.887,hesp_baseline,2021.2.3,Win32,60.62810719
,,,,,,,,,,,,,,,,,büglöm,büglök,left,2.7157,0,70,70,101,1,156,büglik,büglesz,NA,NA,Te bizony sokat büglesz.,Én is sokat...,büglök,büglöm,lakik,-lik,1,PR2005,2002,nő,nem,2022-04-01_15h26.56.887,hesp_baseline,2021.2.3,Win32,60.62810719
,,,,,,,,,,,,,,,,,ribegedtek,ribegszetek,right,7.6995,0,71,71,141,1,142,ribegszik / ribegedik,"ribegszik, ribegedni",tek,NA,"János imád ribegedni, ezért sokat ribegszik.",Ti ritkán...,ribegszetek,ribegedtek,cselekszik,-szik,2,PR2005,2002,nő,nem,2022-04-01_15h26.56.887,hesp_baseline,2021.2.3,Win32,60.62810719
,,,,,,,,,,,,,,,,,flugonyoznak,flugonylanak,right,5.3954,0,72,72,111,1,112,flugonylik / flugonyozik,"flugonylik, flugonyozni",nek,NA,"János imád flugonyozni, ezért sokat flugonylik.",Ők ritkán...,flugonylanak,flugonyoznak,cselekszik,-lik,2,PR2005,2002,nő,nem,2022-04-01_15h26.56.887,hesp_baseline,2021.2.3,Win32,60.62810719
,,,,,,,,,,,,,,,,,gicéjnál,gicéjnél,right,3.8112,0,73,73,17,1,126,gicéj,gicéj,nál,é,Ez itt egy gicéj.,Nincs is jobb egy jó...,gicéjnél,gicéjnál,dzsungel,NA,NA,PR2005,2002,nő,nem,2022-04-01_15h26.56.887,hesp_baseline,2021.2.3,Win32,60.62810719
,,,,,,,,,,,,,,,,,sprálszok,sprálszom,right,4.2419,0,74,74,65,1,120,sprálszik,sprálszol,NA,NA,Te bizony sokat sprálszol.,Én is sokat...,sprálszok,sprálszom,lakik,-szik,1,PR2005,2002,nő,nem,2022-04-01_15h26.56.887,hesp_baseline,2021.2.3,Win32,60.62810719
,,,,,,,,,,,,,,,,,prínylom,prínylok,left,3.2869,0,75,75,102,1,157,prínylik,prínylasz,NA,NA,Te bizony sokat prínylasz.,Én is sokat...,prínylok,prínylom,lakik,-lik,1,PR2005,2002,nő,nem,2022-04-01_15h26.56.887,hesp_baseline,2021.2.3,Win32,60.62810719
,,,,,,,,,,,,,,,,,kábesznál,kábesznél,left,5.9275,0,76,76,44,1,153,kábesz,kábesz,nál,e,Ez itt egy kábesz.,Nincs is jobb egy jó...,kábesznél,kábesznál,dzsungel,NA,NA,PR2005,2002,nő,nem,2022-04-01_15h26.56.887,hesp_baseline,2021.2.3,Win32,60.62810719
,,,,,,,,,,,,,,,,,kláragszotok,kláragodtok,left,5.481,0,77,77,123,1,124,kláragszik / kláragodik,"kláragszik, kláragodni",tek,NA,"János imád kláragodni, ezért sokat kláragszik.",Ti ritkán...,kláragszotok,kláragodtok,cselekszik,-szik,2,PR2005,2002,nő,nem,2022-04-01_15h26.56.887,hesp_baseline,2021.2.3,Win32,60.62810719
,,,,,,,,,,,,,,,,,mülőrözünk,mülőrzünk,right,11.2886,0,78,78,120,1,121,mülőrzik / mülőrözik,"mülőrzik, mülőrözni",ünk,NA,"János imád mülőrözni, ezért sokat mülőrzik.",Mi ritkán...,mülőrzünk,mülőrözünk,cselekszik,-zik,2,PR2005,2002,nő,nem,2022-04-01_15h26.56.887,hesp_baseline,2021.2.3,Win32,60.62810719
,,,,,,,,,,,,,,,,,drubódzom,drubódzok,left,3.9602,0,79,79,63,1,118,drubódzik,drubódzol,NA,NA,Te bizony sokat drubódzol.,Én is sokat...,drubódzok,drubódzom,lakik,-zik,2,PR2005,2002,nő,nem,2022-04-01_15h26.56.887,hesp_baseline,2021.2.3,Win32,60.62810719
,,,,,,,,,,,,,,,,,vodecnél,vodecnál,left,6.7093,0,80,80,30,1,139,vodec,vodec,nál,e,Ez itt egy vodec.,Nincs is jobb egy jó...,vodecnél,vodecnál,dzsungel,NA,NA,PR2005,2002,nő,nem,2022-04-01_15h26.56.887,hesp_baseline,2021.2.3,Win32,60.62810719
,,,,,,,,,,,,,,,,,zsáderban,zsáderben,right,6.0235,0,81,81,25,1,134,zsáder,zsáder,ban,e,Ez itt egy zsáder.,Ott vagyunk a...,zsáderben,zsáderban,dzsungel,NA,NA,PR2005,2002,nő,nem,2022-04-01_15h26.56.887,hesp_baseline,2021.2.3,Win32,60.62810719
,,,,,,,,,,,,,,,,,jurdentnál,jurdentnél,right,4.5324,0,82,82,16,1,125,jurdent,jurdent,nál,e,Ez itt egy jurdent.,Nincs is jobb egy jó...,jurdentnél,jurdentnál,dzsungel,NA,NA,PR2005,2002,nő,nem,2022-04-01_15h26.56.887,hesp_baseline,2021.2.3,Win32,60.62810719
,,,,,,,,,,,,,,,,,pragánylotok,pragányoztok,right,9.2675,0,83,83,133,1,134,pragánylik / pragányozik,"pragánylik, pragányozni",tek,NA,"János imád pragányozni, ezért sokat pragánylik.",Ti ritkán...,pragánylotok,pragányoztok,cselekszik,-lik,2,PR2005,2002,nő,nem,2022-04-01_15h26.56.887,hesp_baseline,2021.2.3,Win32,60.62810719
,,,,,,,,,,,,,,,,,murdesnál,murdesnél,right,2.6235,0,84,84,47,1,156,murdes,murdes,nál,e,Ez itt egy murdes.,Nincs is jobb egy jó...,murdesnél,murdesnál,dzsungel,NA,NA,PR2005,2002,nő,nem,2022-04-01_15h26.56.887,hesp_baseline,2021.2.3,Win32,60.62810719
,,,,,,,,,,,,,,,,,finceknél,finceknál,left,2.959,0,85,85,9,1,118,fincek,fincek,nál,e,Ez itt egy fincek.,Nincs is jobb egy jó...,finceknél,finceknál,dzsungel,NA,NA,PR2005,2002,nő,nem,2022-04-01_15h26.56.887,hesp_baseline,2021.2.3,Win32,60.62810719
,,,,,,,,,,,,,,,,,zsádévnek,zsádévnak,left,5.5643,0,86,86,20,1,129,zsádév,zsádév,nak,é,Ez itt egy zsádév.,Elneveztem a kutyámat...,zsádévnek,zsádévnak,dzsungel,NA,NA,PR2005,2002,nő,nem,2022-04-01_15h26.56.887,hesp_baseline,2021.2.3,Win32,60.62810719
,,,,,,,,,,,,,,,,,vurnelnak,vurnelnek,right,3.2629,0,87,87,50,1,159,vurnel,vurnel,nak,e,Ez itt egy vurnel.,Elneveztem a kutyámat...,vurnelnek,vurnelnak,dzsungel,NA,NA,PR2005,2002,nő,nem,2022-04-01_15h26.56.887,hesp_baseline,2021.2.3,Win32,60.62810719
,,,,,,,,,,,,,,,,,sztritlanak,sztritoznak,left,7.7015,0,88,88,154,1,155,sztritlik / sztritozik,"sztritlik, sztritozni",nek,NA,"János imád sztritozni, ezért sokat sztritlik.",Ők ritkán...,sztritlanak,sztritoznak,cselekszik,-lik,1,PR2005,2002,nő,nem,2022-04-01_15h26.56.887,hesp_baseline,2021.2.3,Win32,60.62810719
,,,,,,,,,,,,,,,,,dibezben,dibezban,left,3.0787,0,89,89,27,1,136,dibez,dibez,ban,e,Ez itt egy dibez.,Ott vagyunk a...,dibezben,dibezban,dzsungel,NA,NA,PR2005,2002,nő,nem,2022-04-01_15h26.56.887,hesp_baseline,2021.2.3,Win32,60.62810719
,,,,,,,,,,,,,,,,,klarágoztok,klarágzotok,left,9.8356,0,90,90,114,1,115,klarágzik / klarágozik,"klarágzik, klarágozni",tek,NA,"János imád klarágozni, ezért sokat klarágzik.",Ti ritkán...,klarágzotok,klarágoztok,cselekszik,-zik,2,PR2005,2002,nő,nem,2022-04-01_15h26.56.887,hesp_baseline,2021.2.3,Win32,60.62810719
,,,,,,,,,,,,,,,,,bivejlek,bivejlem,right,5.6522,0,91,91,73,1,128,bivejlik,bivejlesz,NA,NA,Te bizony sokat bivejlesz.,Én is sokat...,bivejlek,bivejlem,lakik,-lik,2,PR2005,2002,nő,nem,2022-04-01_15h26.56.887,hesp_baseline,2021.2.3,Win32,60.62810719
,,,,,,,,,,,,,,,,,spülőrzök,spülőrzöm,right,4.7399,0,92,92,69,1,124,spülőrzik,spülőrzöl,NA,NA,Te bizony sokat spülőrzöl.,Én is sokat...,spülőrzök,spülőrzöm,lakik,-zik,2,PR2005,2002,nő,nem,2022-04-01_15h26.56.887,hesp_baseline,2021.2.3,Win32,60.62810719
,,,,,,,,,,,,,,,,,táklom,táklok,left,2.7836,0,93,93,79,1,134,táklik,táklasz,NA,NA,Te bizony sokat táklasz.,Én is sokat...,táklok,táklom,lakik,-lik,1,PR2005,2002,nő,nem,2022-04-01_15h26.56.887,hesp_baseline,2021.2.3,Win32,60.62810719
,,,,,,,,,,,,,,,,,drilarozunk,drilarzunk,right,7.011,0,94,94,131,1,132,drilarzik / drilarozik,"drilarzik, drilarozni",ünk,NA,"János imád drilarozni, ezért sokat drilarzik.",Mi ritkán...,drilarzunk,drilarozunk,cselekszik,-zik,2,PR2005,2002,nő,nem,2022-04-01_15h26.56.887,hesp_baseline,2021.2.3,Win32,60.62810719
,,,,,,,,,,,,,,,,,brindeznek,brindeznak,left,2.9501,0,95,95,6,1,115,brindez,brindez,nak,e,Ez itt egy brindez.,Elneveztem a kutyámat...,brindeznek,brindeznak,dzsungel,NA,NA,PR2005,2002,nő,nem,2022-04-01_15h26.56.887,hesp_baseline,2021.2.3,Win32,60.62810719
,,,,,,,,,,,,,,,,,prűrlök,prűrlöm,right,3.0173,0,96,96,75,1,130,prűrlik,prűrlesz,NA,NA,Te bizony sokat prűrlesz.,Én is sokat...,prűrlök,prűrlöm,lakik,-lik,1,PR2005,2002,nő,nem,2022-04-01_15h26.56.887,hesp_baseline,2021.2.3,Win32,60.62810719
,,,,,,,,,,,,,,,,,pribagszom,pribagszok,left,5.3053,0,97,97,76,1,131,pribagszik,pribagszol,NA,NA,Te bizony sokat pribagszol.,Én is sokat...,pribagszok,pribagszom,lakik,-szik,2,PR2005,2002,nő,nem,2022-04-01_15h26.56.887,hesp_baseline,2021.2.3,Win32,60.62810719
,,,,,,,,,,,,,,,,,sztredeztek,sztredletek,right,10.5034,0,98,98,145,1,146,sztredlik / sztredezik,"sztredlik, sztredezni",tek,NA,"János imád sztredezni, ezért sokat sztredlik.",Ti ritkán...,sztredletek,sztredeztek,cselekszik,-lik,1,PR2005,2002,nő,nem,2022-04-01_15h26.56.887,hesp_baseline,2021.2.3,Win32,60.62810719
,,,,,,,,,,,,,,,,,spülöklöm,spülöklök,left,3.4669,0,99,99,56,1,111,spülöklik,spülöklesz,NA,NA,Te bizony sokat spülöklesz.,Én is sokat...,spülöklök,spülöklöm,lakik,-lik,2,PR2005,2002,nő,nem,2022-04-01_15h26.56.887,hesp_baseline,2021.2.3,Win32,60.62810719
,,,,,,,,,,,,,,,,,sprivencnál,sprivencnél,right,6.7327,0,100,100,13,1,122,sprivenc,sprivenc,nál,e,Ez itt egy sprivenc.,Nincs is jobb egy jó...,sprivencnél,sprivencnál,dzsungel,NA,NA,PR2005,2002,nő,nem,2022-04-01_15h26.56.887,hesp_baseline,2021.2.3,Win32,60.62810719
,,,,,,,,,,,,,,,,,bidemben,bidemban,left,2.5586,0,101,101,2,1,111,bidem,bidem,ban,e,Ez itt egy bidem.,Ott vagyunk a...,bidemben,bidemban,dzsungel,NA,NA,PR2005,2002,nő,nem,2022-04-01_15h26.56.887,hesp_baseline,2021.2.3,Win32,60.62810719
,,,,,,,,,,,,,,,,,vobzotok,voboztok,left,5.4586,0,102,102,158,1,159,vobzik / vobozik,"vobzik, vobozni",tek,NA,"János imád vobozni, ezért sokat vobzik.",Ti ritkán...,vobzotok,voboztok,cselekszik,-zik,1,PR2005,2002,nő,nem,2022-04-01_15h26.56.887,hesp_baseline,2021.2.3,Win32,60.62810719
,,,,,,,,,,,,,,,,,szihétnak,szihétnek,right,3.8079,0,103,103,4,1,113,szihét,szihét,nak,é,Ez itt egy szihét.,Elneveztem a kutyámat...,szihétnek,szihétnak,dzsungel,NA,NA,PR2005,2002,nő,nem,2022-04-01_15h26.56.887,hesp_baseline,2021.2.3,Win32,60.62810719
,,,,,,,,,,,,,,,,,sprozlanak,sprozoznak,left,7.8362,0,104,104,147,1,148,sprozlik / sprozozik,"sprozlik, sprozozni",nek,NA,"János imád sprozozni, ezért sokat sprozlik.",Ők ritkán...,sprozlanak,sprozoznak,cselekszik,-lik,1,PR2005,2002,nő,nem,2022-04-01_15h26.56.887,hesp_baseline,2021.2.3,Win32,60.62810719
,,,,,,,,,,,,,,,,,trehégszem,trehégszek,left,3.4773,0,105,105,86,1,141,trehégszik,trehégszel,NA,NA,Te bizony sokat trehégszel.,Én is sokat...,trehégszek,trehégszem,lakik,-szik,2,PR2005,2002,nő,nem,2022-04-01_15h26.56.887,hesp_baseline,2021.2.3,Win32,60.62810719
,,,,,,,,,,,,,,,,,gyibakszom,gyibakszok,left,3.9546,0,106,106,57,1,112,gyibakszik,gyibakszol,NA,NA,Te bizony sokat gyibakszol.,Én is sokat...,gyibakszok,gyibakszom,lakik,-szik,2,PR2005,2002,nő,nem,2022-04-01_15h26.56.887,hesp_baseline,2021.2.3,Win32,60.62810719
,,,,,,,,,,,,,,,,,tűgöztök,tűgzötök,right,5.5174,0,107,107,143,1,144,tűgzik / tűgözik,"tűgzik, tűgözni",tek,NA,"János imád tűgözni, ezért sokat tűgzik.",Ti ritkán...,tűgzötök,tűgöztök,cselekszik,-zik,1,PR2005,2002,nő,nem,2022-04-01_15h26.56.887,hesp_baseline,2021.2.3,Win32,60.62810719
,,,,,,,,,,,,,,,,,klárzok,klárzom,right,3.8679,0,108,108,85,1,140,klárzik,klárzol,NA,NA,Te bizony sokat klárzol.,Én is sokat...,klárzok,klárzom,lakik,-zik,1,PR2005,2002,nő,nem,2022-04-01_15h26.56.887,hesp_baseline,2021.2.3,Win32,60.62810719
,,,,,,,,,,,,,,,,,sartelyban,sartelyben,left,6.1764,0,109,109,40,1,149,sartely,sartely,ban,e,Ez itt egy sartely.,Ott vagyunk a...,sartelyben,sartelyban,dzsungel,NA,NA,PR2005,2002,nő,nem,2022-04-01_15h26.56.887,hesp_baseline,2021.2.3,Win32,60.62810719
,,,,,,,,,,,,,,,,,nyítemben,nyítemban,left,2.9458,0,110,110,41,1,150,nyítem,nyítem,ban,e,Ez itt egy nyítem.,Ott vagyunk a...,nyítemben,nyítemban,dzsungel,NA,NA,PR2005,2002,nő,nem,2022-04-01_15h26.56.887,hesp_baseline,2021.2.3,Win32,60.62810719
,,,,,,,,,,,,,,,,,nyupérnél,nyupérnál,right,5.2365,0,111,111,52,1,161,nyupér,nyupér,nál,é,Ez itt egy nyupér.,Nincs is jobb egy jó...,nyupérnél,nyupérnál,dzsungel,NA,NA,PR2005,2002,nő,nem,2022-04-01_15h26.56.887,hesp_baseline,2021.2.3,Win32,60.62810719
,,,,,,,,,,,,,,,,,tibarzanak,tibaroznak,right,7.0187,0,112,112,155,1,156,tibarzik / tibarozik,"tibarzik, tibarozni",nek,NA,"János imád tibarozni, ezért sokat tibarzik.",Ők ritkán...,tibarzanak,tibaroznak,cselekszik,-zik,2,PR2005,2002,nő,nem,2022-04-01_15h26.56.887,hesp_baseline,2021.2.3,Win32,60.62810719
,,,,,,,,,,,,,,,,,döjlenek,döjöznek,left,5.4246,0,113,113,129,1,130,döjlik / döjözik,"döjlik, döjözni",nek,NA,"János imád döjözni, ezért sokat döjlik.",Ők ritkán...,döjlenek,döjöznek,cselekszik,-lik,1,PR2005,2002,nő,nem,2022-04-01_15h26.56.887,hesp_baseline,2021.2.3,Win32,60.62810719
,,,,,,,,,,,,,,,,,bratároznak,bratárzanak,left,5.6391,0,114,114,108,1,109,bratárzik / bratározik,"bratárzik, bratározni",nek,NA,"János imád bratározni, ezért sokat bratárzik.",Ők ritkán...,bratárzanak,bratároznak,cselekszik,-zik,2,PR2005,2002,nő,nem,2022-04-01_15h26.56.887,hesp_baseline,2021.2.3,Win32,60.62810719
,,,,,,,,,,,,,,,,,düjzöm,düjzök,left,2.2644,0,115,115,97,1,152,düjzik,düjzöl,NA,NA,Te bizony sokat düjzöl.,Én is sokat...,düjzök,düjzöm,lakik,-zik,1,PR2005,2002,nő,nem,2022-04-01_15h26.56.887,hesp_baseline,2021.2.3,Win32,60.62810719
,,,,,,,,,,,,,,,,,klivaslom,klivaslok,left,3.792,0,116,116,62,1,117,klivaslik,klivaslasz,NA,NA,Te bizony sokat klivaslasz.,Én is sokat...,klivaslok,klivaslom,lakik,-lik,2,PR2005,2002,nő,nem,2022-04-01_15h26.56.887,hesp_baseline,2021.2.3,Win32,60.62810719
,,,,,,,,,,,,,,,,,diroztok,dirlotok,right,7.7875,0,117,117,148,1,149,dirlik / dirozik,"dirlik, dirozni",tek,NA,"János imád dirozni, ezért sokat dirlik.",Ti ritkán...,dirlotok,diroztok,cselekszik,-lik,1,PR2005,2002,nő,nem,2022-04-01_15h26.56.887,hesp_baseline,2021.2.3,Win32,60.62810719
,,,,,,,,,,,,,,,,,zödlök,zödlöm,right,2.7336,0,118,118,106,1,161,zödlik,zödlesz,NA,NA,Te bizony sokat zödlesz.,Én is sokat...,zödlök,zödlöm,lakik,-lik,1,PR2005,2002,nő,nem,2022-04-01_15h26.56.887,hesp_baseline,2021.2.3,Win32,60.62810719
,,,,,,,,,,,,,,,,,gerénylem,gerénylek,left,3.6465,0,119,119,99,1,154,gerénylik,gerénylesz,NA,NA,Te bizony sokat gerénylesz.,Én is sokat...,gerénylek,gerénylem,lakik,-lik,2,PR2005,2002,nő,nem,2022-04-01_15h26.56.887,hesp_baseline,2021.2.3,Win32,60.62810719
,,,,,,,,,,,,,,,,,mékszem,mékszek,left,2.1668,0,120,120,71,1,126,mékszik,mékszel,NA,NA,Te bizony sokat mékszel.,Én is sokat...,mékszek,mékszem,lakik,-szik,1,PR2005,2002,nő,nem,2022-04-01_15h26.56.887,hesp_baseline,2021.2.3,Win32,60.62810719
,,,,,,,,,,,,,,,,,tuboklom,tuboklok,left,3.3607,0,121,121,84,1,139,tuboklik,tuboklasz,NA,NA,Te bizony sokat tuboklasz.,Én is sokat...,tuboklok,tuboklom,lakik,-lik,2,PR2005,2002,nő,nem,2022-04-01_15h26.56.887,hesp_baseline,2021.2.3,Win32,60.62810719
,,,,,,,,,,,,,,,,,trálszunk,trálodunk,left,6.7277,0,122,122,130,1,131,trálszik / trálodik,"trálszik, trálodni",ünk,NA,"János imád trálodni, ezért sokat trálszik.",Mi ritkán...,trálszunk,trálodunk,cselekszik,-szik,1,PR2005,2002,nő,nem,2022-04-01_15h26.56.887,hesp_baseline,2021.2.3,Win32,60.62810719
,,,,,,,,,,,,,,,,,pazévnál,pazévnél,left,4.2104,0,123,123,36,1,145,pazév,pazév,nál,é,Ez itt egy pazév.,Nincs is jobb egy jó...,pazévnél,pazévnál,dzsungel,NA,NA,PR2005,2002,nő,nem,2022-04-01_15h26.56.887,hesp_baseline,2021.2.3,Win32,60.62810719
,,,,,,,,,,,,,,,,,trájegban,trájegben,left,5.2251,0,124,124,14,1,123,trájeg,trájeg,ban,e,Ez itt egy trájeg.,Ott vagyunk a...,trájegben,trájegban,dzsungel,NA,NA,PR2005,2002,nő,nem,2022-04-01_15h26.56.887,hesp_baseline,2021.2.3,Win32,60.62810719
,,,,,,,,,,,,,,,,,spirágoztok,spiráglotok,left,4.6944,0,125,125,135,1,136,spiráglik / spirágozik,"spiráglik, spirágozni",tek,NA,"János imád spirágozni, ezért sokat spiráglik.",Ti ritkán...,spiráglotok,spirágoztok,cselekszik,-lik,2,PR2005,2002,nő,nem,2022-04-01_15h26.56.887,hesp_baseline,2021.2.3,Win32,60.62810719
,,,,,,,,,,,,,,,,,gibemlünk,gibemezünk,left,4.0203,0,126,126,115,1,116,gibemlik / gibemezik,"gibemlik, gibemezni",ünk,NA,"János imád gibemezni, ezért sokat gibemlik.",Mi ritkán...,gibemlünk,gibemezünk,cselekszik,-lik,2,PR2005,2002,nő,nem,2022-04-01_15h26.56.887,hesp_baseline,2021.2.3,Win32,60.62810719
,,,,,,,,,,,,,,,,,briváglanak,brivágoznak,left,3.1871,0,127,127,138,1,139,briváglik / brivágozik,"briváglik, brivágozni",nek,NA,"János imád brivágozni, ezért sokat briváglik.",Ők ritkán...,briváglanak,brivágoznak,cselekszik,-lik,2,PR2005,2002,nő,nem,2022-04-01_15h26.56.887,hesp_baseline,2021.2.3,Win32,60.62810719
,,,,,,,,,,,,,,,,,braszencnél,braszencnál,left,4.1124,0,128,128,7,1,116,braszenc,braszenc,nál,e,Ez itt egy braszenc.,Nincs is jobb egy jó...,braszencnél,braszencnál,dzsungel,NA,NA,PR2005,2002,nő,nem,2022-04-01_15h26.56.887,hesp_baseline,2021.2.3,Win32,60.62810719
,,,,,,,,,,,,,,,,,bródesznek,bródesznak,right,4.3552,0,129,129,32,1,141,bródesz,bródesz,nak,e,Ez itt egy bródesz.,Elneveztem a kutyámat...,bródesznek,bródesznak,dzsungel,NA,NA,PR2005,2002,nő,nem,2022-04-01_15h26.56.887,hesp_baseline,2021.2.3,Win32,60.62810719
,,,,,,,,,,,,,,,,,licegyban,licegyben,right,4.2579,0,130,130,15,1,124,licegy,licegy,ban,e,Ez itt egy licegy.,Ott vagyunk a...,licegyben,licegyban,dzsungel,NA,NA,PR2005,2002,nő,nem,2022-04-01_15h26.56.887,hesp_baseline,2021.2.3,Win32,60.62810719
,,,,,,,,,,,,,,,,,triklotok,trikoztok,left,5.4234,0,131,131,160,1,161,triklik / trikozik,"triklik, trikozni",tek,NA,"János imád trikozni, ezért sokat triklik.",Ti ritkán...,triklotok,trikoztok,cselekszik,-lik,1,PR2005,2002,nő,nem,2022-04-01_15h26.56.887,hesp_baseline,2021.2.3,Win32,60.62810719
,,,,,,,,,,,,,,,,,sűjlünk,sűjözünk,left,7.3527,0,132,132,128,1,129,sűjlik / sűjözik,"sűjlik, sűjözni",ünk,NA,"János imád sűjözni, ezért sokat sűjlik.",Mi ritkán...,sűjlünk,sűjözünk,cselekszik,-lik,1,PR2005,2002,nő,nem,2022-04-01_15h26.56.887,hesp_baseline,2021.2.3,Win32,60.62810719
,,,,,,,,,,,,,,,,,zinednek,zinednak,left,2.8728,0,133,133,22,1,131,zined,zined,nak,e,Ez itt egy zined.,Elneveztem a kutyámat...,zinednek,zinednak,dzsungel,NA,NA,PR2005,2002,nő,nem,2022-04-01_15h26.56.887,hesp_baseline,2021.2.3,Win32,60.62810719
,,,,,,,,,,,,,,,,,klosétnak,klosétnek,left,3.4385,0,134,134,45,1,154,klosét,klosét,nak,é,Ez itt egy klosét.,Elneveztem a kutyámat...,klosétnek,klosétnak,dzsungel,NA,NA,PR2005,2002,nő,nem,2022-04-01_15h26.56.887,hesp_baseline,2021.2.3,Win32,60.62810719
,,,,,,,,,,,,,,,,,dalencnél,dalencnál,right,4.0993,0,135,135,31,1,140,dalenc,dalenc,nál,e,Ez itt egy dalenc.,Nincs is jobb egy jó...,dalencnél,dalencnál,dzsungel,NA,NA,PR2005,2002,nő,nem,2022-04-01_15h26.56.887,hesp_baseline,2021.2.3,Win32,60.62810719
,,,,,,,,,,,,,,,,,klégezünk,kléglünk,right,3.8423,0,136,136,122,1,123,kléglik / klégezik,"kléglik, klégezni",ünk,NA,"János imád klégezni, ezért sokat kléglik.",Mi ritkán...,kléglünk,klégezünk,cselekszik,-lik,1,PR2005,2002,nő,nem,2022-04-01_15h26.56.887,hesp_baseline,2021.2.3,Win32,60.62810719
,,,,,,,,,,,,,,,,,bupézban,bupézben,left,4.2503,0,137,137,48,1,157,bupéz,bupéz,ban,é,Ez itt egy bupéz.,Ott vagyunk a...,bupézben,bupézban,dzsungel,NA,NA,PR2005,2002,nő,nem,2022-04-01_15h26.56.887,hesp_baseline,2021.2.3,Win32,60.62810719
,,,,,,,,,,,,,,,,,nyáslom,nyáslok,left,2.7905,0,138,138,100,1,155,nyáslik,nyáslasz,NA,NA,Te bizony sokat nyáslasz.,Én is sokat...,nyáslok,nyáslom,lakik,-lik,1,PR2005,2002,nő,nem,2022-04-01_15h26.56.887,hesp_baseline,2021.2.3,Win32,60.62810719
,,,,,,,,,,,,,,,,,trűnyöznek,trűnylenek,right,4.1779,0,139,139,119,1,120,trűnylik / trűnyözik,"trűnylik, trűnyözni",nek,NA,"János imád trűnyözni, ezért sokat trűnylik.",Ők ritkán...,trűnylenek,trűnyöznek,cselekszik,-lik,1,PR2005,2002,nő,nem,2022-04-01_15h26.56.887,hesp_baseline,2021.2.3,Win32,60.62810719
,,,,,,,,,,,,,,,,,sprökszök,sprökszöm,right,4.1333,0,140,140,88,1,143,sprökszik,sprökszöl,NA,NA,Te bizony sokat sprökszöl.,Én is sokat...,sprökszök,sprökszöm,lakik,-szik,1,PR2005,2002,nő,nem,2022-04-01_15h26.56.887,hesp_baseline,2021.2.3,Win32,60.62810719
,,,,,,,,,,,,,,,,,vubletnál,vubletnél,right,2.6536,0,141,141,26,1,135,vublet,vublet,nál,e,Ez itt egy vublet.,Nincs is jobb egy jó...,vubletnél,vubletnál,dzsungel,NA,NA,PR2005,2002,nő,nem,2022-04-01_15h26.56.887,hesp_baseline,2021.2.3,Win32,60.62810719
,,,,,,,,,,,,,,,,,spuménynek,spuménynak,left,5.5339,0,142,142,19,1,128,spumény,spumény,nak,é,Ez itt egy spumény.,Elneveztem a kutyámat...,spuménynek,spuménynak,dzsungel,NA,NA,PR2005,2002,nő,nem,2022-04-01_15h26.56.887,hesp_baseline,2021.2.3,Win32,60.62810719
,,,,,,,,,,,,,,,,,piragszom,piragszok,left,2.7793,0,143,143,83,1,138,piragszik,piragszol,NA,NA,Te bizony sokat piragszol.,Én is sokat...,piragszok,piragszom,lakik,-szik,2,PR2005,2002,nő,nem,2022-04-01_15h26.56.887,hesp_baseline,2021.2.3,Win32,60.62810719
,,,,,,,,,,,,,,,,,zábénynak,zábénynek,right,3.3408,0,144,144,43,1,152,zábény,zábény,nak,é,Ez itt egy zábény.,Elneveztem a kutyámat...,zábénynek,zábénynak,dzsungel,NA,NA,PR2005,2002,nő,nem,2022-04-01_15h26.56.887,hesp_baseline,2021.2.3,Win32,60.62810719
,,,,,,,,,,,,,,,,,spanélnál,spanélnél,left,4.3749,0,145,145,24,1,133,spanél,spanél,nál,é,Ez itt egy spanél.,Nincs is jobb egy jó...,spanélnél,spanélnál,dzsungel,NA,NA,PR2005,2002,nő,nem,2022-04-01_15h26.56.887,hesp_baseline,2021.2.3,Win32,60.62810719
,,,,,,,,,,,,,,,,,sztruglom,sztruglok,left,3.6348,0,146,146,67,1,122,sztruglik,sztruglasz,NA,NA,Te bizony sokat sztruglasz.,Én is sokat...,sztruglok,sztruglom,lakik,-lik,1,PR2005,2002,nő,nem,2022-04-01_15h26.56.887,hesp_baseline,2021.2.3,Win32,60.62810719
,,,,,,,,,,,,,,,,,brukésznál,brukésznél,left,3.568,0,147,147,10,1,119,brukész,brukész,nál,é,Ez itt egy brukész.,Nincs is jobb egy jó...,brukésznél,brukésznál,dzsungel,NA,NA,PR2005,2002,nő,nem,2022-04-01_15h26.56.887,hesp_baseline,2021.2.3,Win32,60.62810719
,,,,,,,,,,,,,,,,,drivegeztek,drivegzetek,left,3.1677,0,148,148,112,1,113,drivegzik / drivegezik,"drivegzik, drivegezni",tek,NA,"János imád drivegezni, ezért sokat drivegzik.",Ti ritkán...,drivegzetek,drivegeztek,cselekszik,-zik,2,PR2005,2002,nő,nem,2022-04-01_15h26.56.887,hesp_baseline,2021.2.3,Win32,60.62810719
,,,,,,,,,,,,,,,,,lájoztok,lájzotok,right,4.3751,0,149,149,159,1,160,lájzik / lájozik,"lájzik, lájozni",tek,NA,"János imád lájozni, ezért sokat lájzik.",Ti ritkán...,lájzotok,lájoztok,cselekszik,-zik,1,PR2005,2002,nő,nem,2022-04-01_15h26.56.887,hesp_baseline,2021.2.3,Win32,60.62810719
,,,,,,,,,,,,,,,,,szutendben,szutendban,left,3.5711,0,150,150,11,1,120,szutend,szutend,ban,e,Ez itt egy szutend.,Ott vagyunk a...,szutendben,szutendban,dzsungel,NA,NA,PR2005,2002,nő,nem,2022-04-01_15h26.56.887,hesp_baseline,2021.2.3,Win32,60.62810719
,,,,,,,,,,,,,,,,,spibamlanak,spibamoznak,left,4.2599,0,151,151,142,1,143,spibamlik / spibamozik,"spibamlik, spibamozni",nek,NA,"János imád spibamozni, ezért sokat spibamlik.",Ők ritkán...,spibamlanak,spibamoznak,cselekszik,-lik,2,PR2005,2002,nő,nem,2022-04-01_15h26.56.887,hesp_baseline,2021.2.3,Win32,60.62810719
,,,,,,,,,,,,,,,,,nágapodnak,nágapszanak,right,6.0703,0,152,152,152,1,153,nágapszik / nágapodik,"nágapszik, nágapodni",nek,NA,"János imád nágapodni, ezért sokat nágapszik.",Ők ritkán...,nágapszanak,nágapodnak,cselekszik,-szik,2,PR2005,2002,nő,nem,2022-04-01_15h26.56.887,hesp_baseline,2021.2.3,Win32,60.62810719
,,,,,,,,,,,,,,,,,spüszlöm,spüszlök,left,2.5498,0,153,153,96,1,151,spüszlik,spüszlesz,NA,NA,Te bizony sokat spüszlesz.,Én is sokat...,spüszlök,spüszlöm,lakik,-lik,1,PR2005,2002,nő,nem,2022-04-01_15h26.56.887,hesp_baseline,2021.2.3,Win32,60.62810719
,,,,,,,,,,,,,,,,,brotesban,brotesben,left,1.8844,0,154,154,53,1,162,brotes,brotes,ban,e,Ez itt egy brotes.,Ott vagyunk a...,brotesben,brotesban,dzsungel,NA,NA,PR2005,2002,nő,nem,2022-04-01_15h26.56.887,hesp_baseline,2021.2.3,Win32,60.62810719
,,,,,,,,,,,,,,,,,hűgzöm,hűgzök,left,2.1713,0,155,155,107,1,162,hűgzik,hűgzöl,NA,NA,Te bizony sokat hűgzöl.,Én is sokat...,hűgzök,hűgzöm,lakik,-zik,1,PR2005,2002,nő,nem,2022-04-01_15h26.56.887,hesp_baseline,2021.2.3,Win32,60.62810719
,,,,,,,,,,,,,,,,,trismélnek,trismélnak,left,3.2672,0,156,156,5,1,114,trismél,trismél,nak,é,Ez itt egy trismél.,Elneveztem a kutyámat...,trismélnek,trismélnak,dzsungel,NA,NA,PR2005,2002,nő,nem,2022-04-01_15h26.56.887,hesp_baseline,2021.2.3,Win32,60.62810719
,,,,,,,,,,,,,,,,,pijélnél,pijélnál,left,3.4789,0,157,157,3,1,112,pijél,pijél,nál,é,Ez itt egy pijél.,Nincs is jobb egy jó...,pijélnél,pijélnál,dzsungel,NA,NA,PR2005,2002,nő,nem,2022-04-01_15h26.56.887,hesp_baseline,2021.2.3,Win32,60.62810719
,,,,,,,,,,,,,,,,,dralágozunk,dralágzunk,left,4.2045,0,158,158,156,1,157,dralágzik / dralágozik,"dralágzik, dralágozni",ünk,NA,"János imád dralágozni, ezért sokat dralágzik.",Mi ritkán...,dralágzunk,dralágozunk,cselekszik,-zik,2,PR2005,2002,nő,nem,2022-04-01_15h26.56.887,hesp_baseline,2021.2.3,Win32,60.62810719
,,,,,,,,,,,,,,,,,spatelnek,spatelnak,right,2.8277,0,159,159,21,1,130,spatel,spatel,nak,e,Ez itt egy spatel.,Elneveztem a kutyámat...,spatelnek,spatelnak,dzsungel,NA,NA,PR2005,2002,nő,nem,2022-04-01_15h26.56.887,hesp_baseline,2021.2.3,Win32,60.62810719
,,,,,,,,,,,,,,,,,gótemnak,gótemnek,left,3.6273,0,160,160,35,1,144,gótem,gótem,nak,e,Ez itt egy gótem.,Elneveztem a kutyámat...,gótemnek,gótemnak,dzsungel,NA,NA,PR2005,2002,nő,nem,2022-04-01_15h26.56.887,hesp_baseline,2021.2.3,Win32,60.62810719
,,,,,,,,,,,,,,,,,huméknek,huméknak,right,3.163,0,161,161,23,1,132,humék,humék,nak,é,Ez itt egy humék.,Elneveztem a kutyámat...,huméknek,huméknak,dzsungel,NA,NA,PR2005,2002,nő,nem,2022-04-01_15h26.56.887,hesp_baseline,2021.2.3,Win32,60.62810719
