my_list,key.keys,key.rt,key_2.keys,key_2.rt,keyboard_input_2.keys,keyboard_input_2.rt,key_3.keys,key_3.rt,keyboard_input_3.keys,keyboard_input_3.rt,key_4.keys,key_4.rt,keyboard_input_4.keys,keyboard_input_4.rt,key_5.keys,key_5.rt,my_button1,my_button2,keyboard_input.keys,keyboard_input.rt,withinBlock.thisRepN,withinBlock.thisTrialN,withinBlock.thisN,withinBlock.thisIndex,withinBlock.ran,rowname,word,prompt,suffix,vowel,carrier_sentence,target_sentence,target1,target2,category,derivational,nsyl,Azonosító,Melyik évben születtél?,Mi a nemed?,Tanultál nyelvészetet?,date,expName,psychopyVersion,OS,frameRate
list1.csv,space,31.5195,space,8.3997,right,8.9643,space,28.4083,left,4.174,space,9.8996,left,7.0536,space,30.6081,incéjnek,incéjnak,left,4.3318,0,0,0,30,1,31,incéj,incéj,nak,é,Ez itt egy incéj.,Elneveztem a kutyámat...,incéjnek,incéjnak,dzsungel,NA,NA,PR2034,1998,nő,nem,2022-04-09_21h26.52.156,hesp_baseline,2021.2.3,Win32,120.1201201
,,,,,,,,,,,,,,,,,drűröznek,drűrzenek,left,7.2111,0,1,1,126,1,19,drűrzik / drűrözik,"drűrzik, drűrözni",nek,NA,"János imád drűrözni, ezért sokat drűrzik.",Ők ritkán...,drűrzenek,drűröznek,cselekszik,-zik,1,PR2034,1998,nő,nem,2022-04-09_21h26.52.156,hesp_baseline,2021.2.3,Win32,120.1201201
,,,,,,,,,,,,,,,,,dutecnél,dutecnál,left,4.0892,0,2,2,22,1,23,dutec,dutec,nál,e,Ez itt egy dutec.,Nincs is jobb egy jó...,dutecnél,dutecnál,dzsungel,NA,NA,PR2034,1998,nő,nem,2022-04-09_21h26.52.156,hesp_baseline,2021.2.3,Win32,120.1201201
,,,,,,,,,,,,,,,,,gihejlünk,gihejezünk,right,21.1317,0,3,3,146,1,39,gihejlik / gihejezik,"gihejlik, gihejezni",ünk,NA,"János imád gihejezni, ezért sokat gihejlik.",Mi ritkán...,gihejlünk,gihejezünk,cselekszik,-lik,2,PR2034,1998,nő,nem,2022-04-09_21h26.52.156,hesp_baseline,2021.2.3,Win32,120.1201201
,,,,,,,,,,,,,,,,,klaráglom,klaráglok,right,10.4463,0,4,4,91,1,38,klaráglik,klaráglasz,NA,NA,Te bizony sokat klaráglasz.,Én is sokat...,klaráglok,klaráglom,lakik,-lik,2,PR2034,1998,nő,nem,2022-04-09_21h26.52.156,hesp_baseline,2021.2.3,Win32,120.1201201
,,,,,,,,,,,,,,,,,pugoslom,pugoslok,right,5.5653,0,5,5,84,1,31,pugoslik,pugoslasz,NA,NA,Te bizony sokat pugoslasz.,Én is sokat...,pugoslok,pugoslom,lakik,-lik,2,PR2034,1998,nő,nem,2022-04-09_21h26.52.156,hesp_baseline,2021.2.3,Win32,120.1201201
,,,,,,,,,,,,,,,,,spivejlenek,spivejeznek,right,7.6259,0,6,6,125,1,18,spivejlik / spivejezik,"spivejlik, spivejezni",nek,NA,"János imád spivejezni, ezért sokat spivejlik.",Ők ritkán...,spivejlenek,spivejeznek,cselekszik,-lik,2,PR2034,1998,nő,nem,2022-04-09_21h26.52.156,hesp_baseline,2021.2.3,Win32,120.1201201
,,,,,,,,,,,,,,,,,filágzom,filágzok,left,11.2311,0,7,7,102,1,49,filágzik,filágzol,NA,NA,Te bizony sokat filágzol.,Én is sokat...,filágzok,filágzom,lakik,-zik,2,PR2034,1998,nő,nem,2022-04-09_21h26.52.156,hesp_baseline,2021.2.3,Win32,120.1201201
,,,,,,,,,,,,,,,,,brülöslünk,brülösözünk,right,31.0959,0,8,8,109,1,2,brülöslik / brülösözik,"brülöslik, brülösözni",ünk,NA,"János imád brülösözni, ezért sokat brülöslik.",Mi ritkán...,brülöslünk,brülösözünk,cselekszik,-lik,2,PR2034,1998,nő,nem,2022-04-09_21h26.52.156,hesp_baseline,2021.2.3,Win32,120.1201201
,,,,,,,,,,,,,,,,,friheglünk,frihegezünk,left,16.3191,0,9,9,132,1,25,friheglik / frihegezik,"friheglik, frihegezni",ünk,NA,"János imád frihegezni, ezért sokat friheglik.",Mi ritkán...,friheglünk,frihegezünk,cselekszik,-lik,2,PR2034,1998,nő,nem,2022-04-09_21h26.52.156,hesp_baseline,2021.2.3,Win32,120.1201201
,,,,,,,,,,,,,,,,,bralképben,bralképban,left,6.9192,0,10,10,12,1,13,bralkép,bralkép,ban,é,Ez itt egy bralkép.,Ott vagyunk a...,bralképben,bralképban,dzsungel,NA,NA,PR2034,1998,nő,nem,2022-04-09_21h26.52.156,hesp_baseline,2021.2.3,Win32,120.1201201
,,,,,,,,,,,,,,,,,prugorzotok,prugoroztok,right,17.2853,0,11,11,116,1,9,prugorzik / prugorozik,"prugorzik, prugorozni",tek,NA,"János imád prugorozni, ezért sokat prugorzik.",Ti ritkán...,prugorzotok,prugoroztok,cselekszik,-zik,2,PR2034,1998,nő,nem,2022-04-09_21h26.52.156,hesp_baseline,2021.2.3,Win32,120.1201201
,,,,,,,,,,,,,,,,,jutélynél,jutélynál,right,5.9788,0,12,12,11,1,12,jutély,jutély,nál,é,Ez itt egy jutély.,Nincs is jobb egy jó...,jutélynél,jutélynál,dzsungel,NA,NA,PR2034,1998,nő,nem,2022-04-09_21h26.52.156,hesp_baseline,2021.2.3,Win32,120.1201201
,,,,,,,,,,,,,,,,,bejzünk,bejezünk,left,4.548,0,13,13,148,1,41,bejzik / bejezik,"bejzik, bejezni",ünk,NA,"János imád bejezni, ezért sokat bejzik.",Mi ritkán...,bejzünk,bejezünk,cselekszik,-zik,1,PR2034,1998,nő,nem,2022-04-09_21h26.52.156,hesp_baseline,2021.2.3,Win32,120.1201201
,,,,,,,,,,,,,,,,,frakozunk,fraklunk,left,14.6872,0,14,14,159,1,52,fraklik / frakozik,"fraklik, frakozni",ünk,NA,"János imád frakozni, ezért sokat fraklik.",Mi ritkán...,fraklunk,frakozunk,cselekszik,-lik,1,PR2034,1998,nő,nem,2022-04-09_21h26.52.156,hesp_baseline,2021.2.3,Win32,120.1201201
,,,,,,,,,,,,,,,,,pilégszenek,pilégednek,left,7.5519,0,15,15,150,1,43,pilégszik / pilégedik,"pilégszik, pilégedni",nek,NA,"János imád pilégedni, ezért sokat pilégszik.",Ők ritkán...,pilégszenek,pilégednek,cselekszik,-szik,2,PR2034,1998,nő,nem,2022-04-09_21h26.52.156,hesp_baseline,2021.2.3,Win32,120.1201201
,,,,,,,,,,,,,,,,,hijegynél,hijegynál,left,4.5896,0,16,16,4,1,5,hijegy,hijegy,nál,e,Ez itt egy hijegy.,Nincs is jobb egy jó...,hijegynél,hijegynál,dzsungel,NA,NA,PR2034,1998,nő,nem,2022-04-09_21h26.52.156,hesp_baseline,2021.2.3,Win32,120.1201201
,,,,,,,,,,,,,,,,,brigesztnek,brigesztnak,left,2.7747,0,17,17,48,1,49,brigeszt,brigeszt,nak,e,Ez itt egy brigeszt.,Elneveztem a kutyámat...,brigesztnek,brigesztnak,dzsungel,NA,NA,PR2034,1998,nő,nem,2022-04-09_21h26.52.156,hesp_baseline,2021.2.3,Win32,120.1201201
,,,,,,,,,,,,,,,,,spibaklok,spibaklom,left,5.0211,0,18,18,55,1,2,spibaklik,spibaklasz,NA,NA,Te bizony sokat spibaklasz.,Én is sokat...,spibaklok,spibaklom,lakik,-lik,2,PR2034,1998,nő,nem,2022-04-09_21h26.52.156,hesp_baseline,2021.2.3,Win32,120.1201201
,,,,,,,,,,,,,,,,,jurozunk,jurlunk,left,5.2982,0,19,19,111,1,4,jurlik / jurozik,"jurlik, jurozni",ünk,NA,"János imád jurozni, ezért sokat jurlik.",Mi ritkán...,jurlunk,jurozunk,cselekszik,-lik,1,PR2034,1998,nő,nem,2022-04-09_21h26.52.156,hesp_baseline,2021.2.3,Win32,120.1201201
,,,,,,,,,,,,,,,,,flivegzenek,flivegeznek,right,7.6183,0,20,20,138,1,31,flivegzik / flivegezik,"flivegzik, flivegezni",nek,NA,"János imád flivegezni, ezért sokat flivegzik.",Ők ritkán...,flivegzenek,flivegeznek,cselekszik,-zik,2,PR2034,1998,nő,nem,2022-04-09_21h26.52.156,hesp_baseline,2021.2.3,Win32,120.1201201
,,,,,,,,,,,,,,,,,vanylom,vanylok,right,4.6034,0,21,21,61,1,8,vanylik,vanylasz,NA,NA,Te bizony sokat vanylasz.,Én is sokat...,vanylok,vanylom,lakik,-lik,1,PR2034,1998,nő,nem,2022-04-09_21h26.52.156,hesp_baseline,2021.2.3,Win32,120.1201201
,,,,,,,,,,,,,,,,,spilágzok,spilágzom,right,5.8543,0,22,22,76,1,23,spilágzik,spilágzol,NA,NA,Te bizony sokat spilágzol.,Én is sokat...,spilágzok,spilágzom,lakik,-zik,2,PR2034,1998,nő,nem,2022-04-09_21h26.52.156,hesp_baseline,2021.2.3,Win32,120.1201201
,,,,,,,,,,,,,,,,,hilarzom,hilarzok,left,3.4393,0,23,23,69,1,16,hilarzik,hilarzol,NA,NA,Te bizony sokat hilarzol.,Én is sokat...,hilarzok,hilarzom,lakik,-zik,2,PR2034,1998,nő,nem,2022-04-09_21h26.52.156,hesp_baseline,2021.2.3,Win32,120.1201201
,,,,,,,,,,,,,,,,,sprimlunk,sprimozunk,left,6.7695,0,24,24,127,1,20,sprimlik / sprimozik,"sprimlik, sprimozni",ünk,NA,"János imád sprimozni, ezért sokat sprimlik.",Mi ritkán...,sprimlunk,sprimozunk,cselekszik,-lik,1,PR2034,1998,nő,nem,2022-04-09_21h26.52.156,hesp_baseline,2021.2.3,Win32,120.1201201
,,,,,,,,,,,,,,,,,szibánylom,szibánylok,left,5.8374,0,25,25,67,1,14,szibánylik,szibánylasz,NA,NA,Te bizony sokat szibánylasz.,Én is sokat...,szibánylok,szibánylom,lakik,-lik,2,PR2034,1998,nő,nem,2022-04-09_21h26.52.156,hesp_baseline,2021.2.3,Win32,120.1201201
,,,,,,,,,,,,,,,,,zsopédban,zsopédben,left,4.0946,0,26,26,50,1,51,zsopéd,zsopéd,ban,é,Ez itt egy zsopéd.,Ott vagyunk a...,zsopédben,zsopédban,dzsungel,NA,NA,PR2034,1998,nő,nem,2022-04-09_21h26.52.156,hesp_baseline,2021.2.3,Win32,120.1201201
,,,,,,,,,,,,,,,,,fágyépnál,fágyépnél,left,4.4471,0,27,27,10,1,11,fágyép,fágyép,nál,é,Ez itt egy fágyép.,Nincs is jobb egy jó...,fágyépnél,fágyépnál,dzsungel,NA,NA,PR2034,1998,nő,nem,2022-04-09_21h26.52.156,hesp_baseline,2021.2.3,Win32,120.1201201
,,,,,,,,,,,,,,,,,hurjorzom,hurjorzok,left,7.026,0,28,28,59,1,6,hurjorzik,hurjorzol,NA,NA,Te bizony sokat hurjorzol.,Én is sokat...,hurjorzok,hurjorzom,lakik,-zik,2,PR2034,1998,nő,nem,2022-04-09_21h26.52.156,hesp_baseline,2021.2.3,Win32,120.1201201
,,,,,,,,,,,,,,,,,csublényben,csublényban,right,3.2735,0,29,29,16,1,17,csublény,csublény,ban,é,Ez itt egy csublény.,Ott vagyunk a...,csublényben,csublényban,dzsungel,NA,NA,PR2034,1998,nő,nem,2022-04-09_21h26.52.156,hesp_baseline,2021.2.3,Win32,120.1201201
,,,,,,,,,,,,,,,,,zsúdelnak,zsúdelnek,left,2.9921,0,30,30,14,1,15,zsúdel,zsúdel,nak,e,Ez itt egy zsúdel.,Elneveztem a kutyámat...,zsúdelnek,zsúdelnak,dzsungel,NA,NA,PR2034,1998,nő,nem,2022-04-09_21h26.52.156,hesp_baseline,2021.2.3,Win32,120.1201201
,,,,,,,,,,,,,,,,,píjlok,píjlom,left,3.4999,0,31,31,75,1,22,píjlik,píjlasz,NA,NA,Te bizony sokat píjlasz.,Én is sokat...,píjlok,píjlom,lakik,-lik,1,PR2034,1998,nő,nem,2022-04-09_21h26.52.156,hesp_baseline,2021.2.3,Win32,120.1201201
,,,,,,,,,,,,,,,,,naremban,naremben,left,2.8147,0,32,32,2,1,3,narem,narem,ban,e,Ez itt egy narem.,Ott vagyunk a...,naremben,naremban,dzsungel,NA,NA,PR2034,1998,nő,nem,2022-04-09_21h26.52.156,hesp_baseline,2021.2.3,Win32,120.1201201
,,,,,,,,,,,,,,,,,feténylem,feténylek,right,2.9638,0,33,33,85,1,32,feténylik,feténylesz,NA,NA,Te bizony sokat feténylesz.,Én is sokat...,feténylek,feténylem,lakik,-lik,2,PR2034,1998,nő,nem,2022-04-09_21h26.52.156,hesp_baseline,2021.2.3,Win32,120.1201201
,,,,,,,,,,,,,,,,,kűdlenek,kűdöznek,left,3.7989,0,34,34,142,1,35,kűdlik / kűdözik,"kűdlik, kűdözni",nek,NA,"János imád kűdözni, ezért sokat kűdlik.",Ők ritkán...,kűdlenek,kűdöznek,cselekszik,-lik,1,PR2034,1998,nő,nem,2022-04-09_21h26.52.156,hesp_baseline,2021.2.3,Win32,120.1201201
,,,,,,,,,,,,,,,,,kadérnál,kadérnél,left,9.1793,0,35,35,7,1,8,kadér,kadér,nál,é,Ez itt egy kadér.,Nincs is jobb egy jó...,kadérnél,kadérnál,dzsungel,NA,NA,PR2034,1998,nő,nem,2022-04-09_21h26.52.156,hesp_baseline,2021.2.3,Win32,120.1201201
,,,,,,,,,,,,,,,,,vihapszunk,vihapodunk,left,6.5865,0,36,36,112,1,5,vihapszik / vihapodik,"vihapszik, vihapodni",ünk,NA,"János imád vihapodni, ezért sokat vihapszik.",Mi ritkán...,vihapszunk,vihapodunk,cselekszik,-szik,2,PR2034,1998,nő,nem,2022-04-09_21h26.52.156,hesp_baseline,2021.2.3,Win32,120.1201201
,,,,,,,,,,,,,,,,,pebzem,pebzek,right,5.4724,0,37,37,57,1,4,pebzik,pebzel,NA,NA,Te bizony sokat pebzel.,Én is sokat...,pebzek,pebzem,lakik,-zik,1,PR2034,1998,nő,nem,2022-04-09_21h26.52.156,hesp_baseline,2021.2.3,Win32,120.1201201
,,,,,,,,,,,,,,,,,brözöztök,brözlötök,left,9.4646,0,38,38,145,1,38,brözlik / brözözik,"brözlik, brözözni",tek,NA,"János imád brözözni, ezért sokat brözlik.",Ti ritkán...,brözlötök,brözöztök,cselekszik,-lik,1,PR2034,1998,nő,nem,2022-04-09_21h26.52.156,hesp_baseline,2021.2.3,Win32,120.1201201
,,,,,,,,,,,,,,,,,huklok,huklom,right,3.5005,0,39,39,78,1,25,huklik,huklasz,NA,NA,Te bizony sokat huklasz.,Én is sokat...,huklok,huklom,lakik,-lik,1,PR2034,1998,nő,nem,2022-04-09_21h26.52.156,hesp_baseline,2021.2.3,Win32,120.1201201
,,,,,,,,,,,,,,,,,püzlötök,püzöztök,left,5.0139,0,40,40,152,1,45,püzlik / püzözik,"püzlik, püzözni",tek,NA,"János imád püzözni, ezért sokat püzlik.",Ti ritkán...,püzlötök,püzöztök,cselekszik,-lik,1,PR2034,1998,nő,nem,2022-04-09_21h26.52.156,hesp_baseline,2021.2.3,Win32,120.1201201
,,,,,,,,,,,,,,,,,narádzom,narádzok,right,5.5316,0,41,41,63,1,10,narádzik,narádzol,NA,NA,Te bizony sokat narádzol.,Én is sokat...,narádzok,narádzom,lakik,-zik,2,PR2034,1998,nő,nem,2022-04-09_21h26.52.156,hesp_baseline,2021.2.3,Win32,120.1201201
,,,,,,,,,,,,,,,,,tágarzunk,tágarozunk,left,10.1083,0,42,42,155,1,48,tágarzik / tágarozik,"tágarzik, tágarozni",ünk,NA,"János imád tágarozni, ezért sokat tágarzik.",Mi ritkán...,tágarzunk,tágarozunk,cselekszik,-zik,2,PR2034,1998,nő,nem,2022-04-09_21h26.52.156,hesp_baseline,2021.2.3,Win32,120.1201201
,,,,,,,,,,,,,,,,,bregzünk,bregezünk,right,13.0724,0,43,43,139,1,32,bregzik / bregezik,"bregzik, bregezni",ünk,NA,"János imád bregezni, ezért sokat bregzik.",Mi ritkán...,bregzünk,bregezünk,cselekszik,-zik,1,PR2034,1998,nő,nem,2022-04-09_21h26.52.156,hesp_baseline,2021.2.3,Win32,120.1201201
,,,,,,,,,,,,,,,,,trodélyban,trodélyben,left,3.4225,0,44,44,28,1,29,trodély,trodély,ban,é,Ez itt egy trodély.,Ott vagyunk a...,trodélyben,trodélyban,dzsungel,NA,NA,PR2034,1998,nő,nem,2022-04-09_21h26.52.156,hesp_baseline,2021.2.3,Win32,120.1201201
,,,,,,,,,,,,,,,,,spicetnek,spicetnak,left,3.5921,0,45,45,35,1,36,spicet,spicet,nak,e,Ez itt egy spicet.,Elneveztem a kutyámat...,spicetnek,spicetnak,dzsungel,NA,NA,PR2034,1998,nő,nem,2022-04-09_21h26.52.156,hesp_baseline,2021.2.3,Win32,120.1201201
,,,,,,,,,,,,,,,,,dunkészban,dunkészben,left,2.4143,0,46,46,24,1,25,dunkész,dunkész,ban,é,Ez itt egy dunkész.,Ott vagyunk a...,dunkészben,dunkészban,dzsungel,NA,NA,PR2034,1998,nő,nem,2022-04-09_21h26.52.156,hesp_baseline,2021.2.3,Win32,120.1201201
,,,,,,,,,,,,,,,,,jüslöm,jüslök,right,6.31,0,47,47,56,1,3,jüslik,jüslesz,NA,NA,Te bizony sokat jüslesz.,Én is sokat...,jüslök,jüslöm,lakik,-lik,1,PR2034,1998,nő,nem,2022-04-09_21h26.52.156,hesp_baseline,2021.2.3,Win32,120.1201201
,,,,,,,,,,,,,,,,,tarhézben,tarhézban,right,2.6097,0,48,48,25,1,26,tarhéz,tarhéz,ban,é,Ez itt egy tarhéz.,Ott vagyunk a...,tarhézben,tarhézban,dzsungel,NA,NA,PR2034,1998,nő,nem,2022-04-09_21h26.52.156,hesp_baseline,2021.2.3,Win32,120.1201201
,,,,,,,,,,,,,,,,,vilakszom,vilakszok,left,4.0725,0,49,49,97,1,44,vilakszik,vilakszol,NA,NA,Te bizony sokat vilakszol.,Én is sokat...,vilakszok,vilakszom,lakik,-szik,2,PR2034,1998,nő,nem,2022-04-09_21h26.52.156,hesp_baseline,2021.2.3,Win32,120.1201201
,,,,,,,,,,,,,,,,,gyivepednek,gyivepszenek,left,7.5519,0,50,50,160,1,53,gyivepszik / gyivepedik,"gyivepszik, gyivepedni",nek,NA,"János imád gyivepedni, ezért sokat gyivepszik.",Ők ritkán...,gyivepszenek,gyivepednek,cselekszik,-szik,2,PR2034,1998,nő,nem,2022-04-09_21h26.52.156,hesp_baseline,2021.2.3,Win32,120.1201201
,,,,,,,,,,,,,,,,,tragzok,tragzom,right,4.3217,0,51,51,90,1,37,tragzik,tragzol,NA,NA,Te bizony sokat tragzol.,Én is sokat...,tragzok,tragzom,lakik,-zik,1,PR2034,1998,nő,nem,2022-04-09_21h26.52.156,hesp_baseline,2021.2.3,Win32,120.1201201
,,,,,,,,,,,,,,,,,küslünk,küsözünk,left,11.2093,0,52,52,141,1,34,küslik / küsözik,"küslik, küsözni",ünk,NA,"János imád küsözni, ezért sokat küslik.",Mi ritkán...,küslünk,küsözünk,cselekszik,-lik,1,PR2034,1998,nő,nem,2022-04-09_21h26.52.156,hesp_baseline,2021.2.3,Win32,120.1201201
,,,,,,,,,,,,,,,,,mádépnél,mádépnál,right,3.7559,0,53,53,1,1,2,mádép,mádép,nál,é,Ez itt egy mádép.,Nincs is jobb egy jó...,mádépnél,mádépnál,dzsungel,NA,NA,PR2034,1998,nő,nem,2022-04-09_21h26.52.156,hesp_baseline,2021.2.3,Win32,120.1201201
,,,,,,,,,,,,,,,,,dajrensnál,dajrensnél,right,3.4473,0,54,54,49,1,50,dajrens,dajrens,nál,e,Ez itt egy dajrens.,Nincs is jobb egy jó...,dajrensnél,dajrensnál,dzsungel,NA,NA,PR2034,1998,nő,nem,2022-04-09_21h26.52.156,hesp_baseline,2021.2.3,Win32,120.1201201
,,,,,,,,,,,,,,,,,dujzanak,dujoznak,right,12.8901,0,55,55,128,1,21,dujzik / dujozik,"dujzik, dujozni",nek,NA,"János imád dujozni, ezért sokat dujzik.",Ők ritkán...,dujzanak,dujoznak,cselekszik,-zik,1,PR2034,1998,nő,nem,2022-04-09_21h26.52.156,hesp_baseline,2021.2.3,Win32,120.1201201
,,,,,,,,,,,,,,,,,herégszek,herégszem,right,5.5322,0,56,56,54,1,1,herégszik,herégszel,NA,NA,Te bizony sokat herégszel.,Én is sokat...,herégszek,herégszem,lakik,-szik,2,PR2034,1998,nő,nem,2022-04-09_21h26.52.156,hesp_baseline,2021.2.3,Win32,120.1201201
,,,,,,,,,,,,,,,,,fádensnak,fádensnek,right,3.073,0,57,57,33,1,34,fádens,fádens,nak,e,Ez itt egy fádens.,Elneveztem a kutyámat...,fádensnek,fádensnak,dzsungel,NA,NA,PR2034,1998,nő,nem,2022-04-09_21h26.52.156,hesp_baseline,2021.2.3,Win32,120.1201201
,,,,,,,,,,,,,,,,,spihemlek,spihemlem,left,5.164,0,58,58,94,1,41,spihemlik,spihemlesz,NA,NA,Te bizony sokat spihemlesz.,Én is sokat...,spihemlek,spihemlem,lakik,-lik,2,PR2034,1998,nő,nem,2022-04-09_21h26.52.156,hesp_baseline,2021.2.3,Win32,120.1201201
,,,,,,,,,,,,,,,,,jorzégnek,jorzégnak,left,4.9126,0,59,59,45,1,46,jorzég,jorzég,nak,é,Ez itt egy jorzég.,Elneveztem a kutyámat...,jorzégnek,jorzégnak,dzsungel,NA,NA,PR2034,1998,nő,nem,2022-04-09_21h26.52.156,hesp_baseline,2021.2.3,Win32,120.1201201
,,,,,,,,,,,,,,,,,sihennál,sihennél,right,3.132,0,60,60,18,1,19,sihen,sihen,nál,e,Ez itt egy sihen.,Nincs is jobb egy jó...,sihennél,sihennál,dzsungel,NA,NA,PR2034,1998,nő,nem,2022-04-09_21h26.52.156,hesp_baseline,2021.2.3,Win32,120.1201201
,,,,,,,,,,,,,,,,,pítszok,pítszom,right,6.8861,0,61,61,62,1,9,pítszik,pítszol,NA,NA,Te bizony sokat pítszol.,Én is sokat...,pítszok,pítszom,lakik,-szik,1,PR2034,1998,nő,nem,2022-04-09_21h26.52.156,hesp_baseline,2021.2.3,Win32,120.1201201
,,,,,,,,,,,,,,,,,kaszépnek,kaszépnak,left,4.7824,0,62,62,40,1,41,kaszép,kaszép,nak,é,Ez itt egy kaszép.,Elneveztem a kutyámat...,kaszépnek,kaszépnak,dzsungel,NA,NA,PR2034,1998,nő,nem,2022-04-09_21h26.52.156,hesp_baseline,2021.2.3,Win32,120.1201201
,,,,,,,,,,,,,,,,,gábédnél,gábédnál,right,3.6808,0,63,63,39,1,40,gábéd,gábéd,nál,é,Ez itt egy gábéd.,Nincs is jobb egy jó...,gábédnél,gábédnál,dzsungel,NA,NA,PR2034,1998,nő,nem,2022-04-09_21h26.52.156,hesp_baseline,2021.2.3,Win32,120.1201201
,,,,,,,,,,,,,,,,,klordénynak,klordénynek,left,3.7723,0,64,64,9,1,10,klordény,klordény,nak,é,Ez itt egy klordény.,Elneveztem a kutyámat...,klordénynek,klordénynak,dzsungel,NA,NA,PR2034,1998,nő,nem,2022-04-09_21h26.52.156,hesp_baseline,2021.2.3,Win32,120.1201201
,,,,,,,,,,,,,,,,,privékszenek,privékednek,right,4.4216,0,65,65,149,1,42,privékszik / privékedik,"privékszik, privékedni",nek,NA,"János imád privékedni, ezért sokat privékszik.",Ők ritkán...,privékszenek,privékednek,cselekszik,-szik,2,PR2034,1998,nő,nem,2022-04-09_21h26.52.156,hesp_baseline,2021.2.3,Win32,120.1201201
,,,,,,,,,,,,,,,,,sztremlek,sztremlem,left,4.4961,0,66,66,95,1,42,sztremlik,sztremlesz,NA,NA,Te bizony sokat sztremlesz.,Én is sokat...,sztremlek,sztremlem,lakik,-lik,1,PR2034,1998,nő,nem,2022-04-09_21h26.52.156,hesp_baseline,2021.2.3,Win32,120.1201201
,,,,,,,,,,,,,,,,,pörzötök,pöröztök,right,5.5983,0,67,67,153,1,46,pörzik / pörözik,"pörzik, pörözni",tek,NA,"János imád pörözni, ezért sokat pörzik.",Ti ritkán...,pörzötök,pöröztök,cselekszik,-zik,1,PR2034,1998,nő,nem,2022-04-09_21h26.52.156,hesp_baseline,2021.2.3,Win32,120.1201201
,,,,,,,,,,,,,,,,,froroznak,frorlanak,left,7.613,0,68,68,143,1,36,frorlik / frorozik,"frorlik, frorozni",nek,NA,"János imád frorozni, ezért sokat frorlik.",Ők ritkán...,frorlanak,froroznak,cselekszik,-lik,1,PR2034,1998,nő,nem,2022-04-09_21h26.52.156,hesp_baseline,2021.2.3,Win32,120.1201201
,,,,,,,,,,,,,,,,,nyizlunk,nyizozunk,left,7.9353,0,69,69,135,1,28,nyizlik / nyizozik,"nyizlik, nyizozni",ünk,NA,"János imád nyizozni, ezért sokat nyizlik.",Mi ritkán...,nyizlunk,nyizozunk,cselekszik,-lik,1,PR2034,1998,nő,nem,2022-04-09_21h26.52.156,hesp_baseline,2021.2.3,Win32,120.1201201
,,,,,,,,,,,,,,,,,pivédban,pivédben,left,9.5232,0,70,70,52,1,53,pivéd,pivéd,ban,é,Ez itt egy pivéd.,Ott vagyunk a...,pivédben,pivédban,dzsungel,NA,NA,PR2034,1998,nő,nem,2022-04-09_21h26.52.156,hesp_baseline,2021.2.3,Win32,120.1201201
,,,,,,,,,,,,,,,,,brarlok,brarlom,left,3.964,0,71,71,71,1,18,brarlik,brarlasz,NA,NA,Te bizony sokat brarlasz.,Én is sokat...,brarlok,brarlom,lakik,-lik,1,PR2034,1998,nő,nem,2022-04-09_21h26.52.156,hesp_baseline,2021.2.3,Win32,120.1201201
,,,,,,,,,,,,,,,,,matézban,matézben,left,3.0889,0,72,72,37,1,38,matéz,matéz,ban,é,Ez itt egy matéz.,Ott vagyunk a...,matézben,matézban,dzsungel,NA,NA,PR2034,1998,nő,nem,2022-04-09_21h26.52.156,hesp_baseline,2021.2.3,Win32,120.1201201
,,,,,,,,,,,,,,,,,buhényben,buhényban,right,4.6814,0,73,73,43,1,44,buhény,buhény,ban,é,Ez itt egy buhény.,Ott vagyunk a...,buhényben,buhényban,dzsungel,NA,NA,PR2034,1998,nő,nem,2022-04-09_21h26.52.156,hesp_baseline,2021.2.3,Win32,120.1201201
,,,,,,,,,,,,,,,,,frágapszom,frágapszok,left,4.7801,0,74,74,60,1,7,frágapszik,frágapszol,NA,NA,Te bizony sokat frágapszol.,Én is sokat...,frágapszok,frágapszom,lakik,-szik,2,PR2034,1998,nő,nem,2022-04-09_21h26.52.156,hesp_baseline,2021.2.3,Win32,120.1201201
,,,,,,,,,,,,,,,,,gyivádzok,gyivádzom,right,3.0413,0,75,75,87,1,34,gyivádzik,gyivádzol,NA,NA,Te bizony sokat gyivádzol.,Én is sokat...,gyivádzok,gyivádzom,lakik,-zik,2,PR2034,1998,nő,nem,2022-04-09_21h26.52.156,hesp_baseline,2021.2.3,Win32,120.1201201
,,,,,,,,,,,,,,,,,gonszéknél,gonszéknál,left,4.089,0,76,76,38,1,39,gonszék,gonszék,nál,é,Ez itt egy gonszék.,Nincs is jobb egy jó...,gonszéknél,gonszéknál,dzsungel,NA,NA,PR2034,1998,nő,nem,2022-04-09_21h26.52.156,hesp_baseline,2021.2.3,Win32,120.1201201
,,,,,,,,,,,,,,,,,szibedban,szibedben,right,3.1207,0,77,77,47,1,48,szibed,szibed,ban,e,Ez itt egy szibed.,Ott vagyunk a...,szibedben,szibedban,dzsungel,NA,NA,PR2034,1998,nő,nem,2022-04-09_21h26.52.156,hesp_baseline,2021.2.3,Win32,120.1201201
,,,,,,,,,,,,,,,,,spábétben,spábétban,left,3.6559,0,78,78,51,1,52,spábét,spábét,ban,é,Ez itt egy spábét.,Ott vagyunk a...,spábétben,spábétban,dzsungel,NA,NA,PR2034,1998,nő,nem,2022-04-09_21h26.52.156,hesp_baseline,2021.2.3,Win32,120.1201201
,,,,,,,,,,,,,,,,,drügzöm,drügzök,left,2.9565,0,79,79,72,1,19,drügzik,drügzöl,NA,NA,Te bizony sokat drügzöl.,Én is sokat...,drügzök,drügzöm,lakik,-zik,1,PR2034,1998,nő,nem,2022-04-09_21h26.52.156,hesp_baseline,2021.2.3,Win32,120.1201201
,,,,,,,,,,,,,,,,,spatszok,spatszom,right,6.6775,0,80,80,73,1,20,spatszik,spatszol,NA,NA,Te bizony sokat spatszol.,Én is sokat...,spatszok,spatszom,lakik,-szik,1,PR2034,1998,nő,nem,2022-04-09_21h26.52.156,hesp_baseline,2021.2.3,Win32,120.1201201
,,,,,,,,,,,,,,,,,nuhétnál,nuhétnél,right,4.5296,0,81,81,29,1,30,nuhét,nuhét,nál,é,Ez itt egy nuhét.,Nincs is jobb egy jó...,nuhétnél,nuhétnál,dzsungel,NA,NA,PR2034,1998,nő,nem,2022-04-09_21h26.52.156,hesp_baseline,2021.2.3,Win32,120.1201201
,,,,,,,,,,,,,,,,,prilegzem,prilegzek,left,4.8045,0,82,82,79,1,26,prilegzik,prilegzel,NA,NA,Te bizony sokat prilegzel.,Én is sokat...,prilegzek,prilegzem,lakik,-zik,2,PR2034,1998,nő,nem,2022-04-09_21h26.52.156,hesp_baseline,2021.2.3,Win32,120.1201201
,,,,,,,,,,,,,,,,,spibádzok,spibádzom,right,3.2508,0,83,83,65,1,12,spibádzik,spibádzol,NA,NA,Te bizony sokat spibádzol.,Én is sokat...,spibádzok,spibádzom,lakik,-zik,2,PR2034,1998,nő,nem,2022-04-09_21h26.52.156,hesp_baseline,2021.2.3,Win32,120.1201201
,,,,,,,,,,,,,,,,,lihénynek,lihénynak,left,2.34,0,84,84,23,1,24,lihény,lihény,nak,é,Ez itt egy lihény.,Elneveztem a kutyámat...,lihénynek,lihénynak,dzsungel,NA,NA,PR2034,1998,nő,nem,2022-04-09_21h26.52.156,hesp_baseline,2021.2.3,Win32,120.1201201
,,,,,,,,,,,,,,,,,vodépnek,vodépnak,left,3.549,0,85,85,41,1,42,vodép,vodép,nak,é,Ez itt egy vodép.,Elneveztem a kutyámat...,vodépnek,vodépnak,dzsungel,NA,NA,PR2034,1998,nő,nem,2022-04-09_21h26.52.156,hesp_baseline,2021.2.3,Win32,120.1201201
,,,,,,,,,,,,,,,,,jalrénynél,jalrénynál,left,5.311,0,86,86,0,1,1,jalrény,jalrény,nál,é,Ez itt egy jalrény.,Nincs is jobb egy jó...,jalrénynél,jalrénynál,dzsungel,NA,NA,PR2034,1998,nő,nem,2022-04-09_21h26.52.156,hesp_baseline,2021.2.3,Win32,120.1201201
,,,,,,,,,,,,,,,,,lörűdzöm,lörűdzök,left,6.7113,0,87,87,77,1,24,lörűdzik,lörűdzöl,NA,NA,Te bizony sokat lörűdzöl.,Én is sokat...,lörűdzök,lörűdzöm,lakik,-zik,2,PR2034,1998,nő,nem,2022-04-09_21h26.52.156,hesp_baseline,2021.2.3,Win32,120.1201201
,,,,,,,,,,,,,,,,,pisélyban,pisélyben,left,2.496,0,88,88,21,1,22,pisély,pisély,ban,é,Ez itt egy pisély.,Ott vagyunk a...,pisélyben,pisélyban,dzsungel,NA,NA,PR2034,1998,nő,nem,2022-04-09_21h26.52.156,hesp_baseline,2021.2.3,Win32,120.1201201
,,,,,,,,,,,,,,,,,géregletek,géregeztek,right,5.2064,0,89,89,124,1,17,géreglik / géregezik,"géreglik, géregezni",tek,NA,"János imád géregezni, ezért sokat géreglik.",Ti ritkán...,géregletek,géregeztek,cselekszik,-lik,2,PR2034,1998,nő,nem,2022-04-09_21h26.52.156,hesp_baseline,2021.2.3,Win32,120.1201201
,,,,,,,,,,,,,,,,,kliszernál,kliszernél,right,5.8978,0,90,90,31,1,32,kliszer,kliszer,nál,e,Ez itt egy kliszer.,Nincs is jobb egy jó...,kliszernél,kliszernál,dzsungel,NA,NA,PR2034,1998,nő,nem,2022-04-09_21h26.52.156,hesp_baseline,2021.2.3,Win32,120.1201201
,,,,,,,,,,,,,,,,,lumézben,lumézban,right,3.2227,0,91,91,32,1,33,luméz,luméz,ban,é,Ez itt egy luméz.,Ott vagyunk a...,lumézben,lumézban,dzsungel,NA,NA,PR2034,1998,nő,nem,2022-04-09_21h26.52.156,hesp_baseline,2021.2.3,Win32,120.1201201
,,,,,,,,,,,,,,,,,livaklom,livaklok,left,3.1502,0,92,92,82,1,29,livaklik,livaklasz,NA,NA,Te bizony sokat livaklasz.,Én is sokat...,livaklok,livaklom,lakik,-lik,2,PR2034,1998,nő,nem,2022-04-09_21h26.52.156,hesp_baseline,2021.2.3,Win32,120.1201201
,,,,,,,,,,,,,,,,,zsalrénnek,zsalrénnak,left,2.7564,0,93,93,19,1,20,zsalrén,zsalrén,nak,é,Ez itt egy zsalrén.,Elneveztem a kutyámat...,zsalrénnek,zsalrénnak,dzsungel,NA,NA,PR2034,1998,nő,nem,2022-04-09_21h26.52.156,hesp_baseline,2021.2.3,Win32,120.1201201
,,,,,,,,,,,,,,,,,frinylunk,frinyozunk,left,6.1229,0,94,94,133,1,26,frinylik / frinyozik,"frinylik, frinyozni",ünk,NA,"János imád frinyozni, ezért sokat frinylik.",Mi ritkán...,frinylunk,frinyozunk,cselekszik,-lik,1,PR2034,1998,nő,nem,2022-04-09_21h26.52.156,hesp_baseline,2021.2.3,Win32,120.1201201
,,,,,,,,,,,,,,,,,flérlek,flérlem,left,4.3144,0,95,95,89,1,36,flérlik,flérlesz,NA,NA,Te bizony sokat flérlesz.,Én is sokat...,flérlek,flérlem,lakik,-lik,1,PR2034,1998,nő,nem,2022-04-09_21h26.52.156,hesp_baseline,2021.2.3,Win32,120.1201201
,,,,,,,,,,,,,,,,,klörlök,klörlöm,left,3.3145,0,96,96,80,1,27,klörlik,klörlesz,NA,NA,Te bizony sokat klörlesz.,Én is sokat...,klörlök,klörlöm,lakik,-lik,1,PR2034,1998,nő,nem,2022-04-09_21h26.52.156,hesp_baseline,2021.2.3,Win32,120.1201201
,,,,,,,,,,,,,,,,,vülődzöm,vülődzök,left,4.2134,0,97,97,81,1,28,vülődzik,vülődzöl,NA,NA,Te bizony sokat vülődzöl.,Én is sokat...,vülődzök,vülődzöm,lakik,-zik,2,PR2034,1998,nő,nem,2022-04-09_21h26.52.156,hesp_baseline,2021.2.3,Win32,120.1201201
,,,,,,,,,,,,,,,,,frirzunk,frirozunk,right,4.8643,0,98,98,129,1,22,frirzik / frirozik,"frirzik, frirozni",ünk,NA,"János imád frirozni, ezért sokat frirzik.",Mi ritkán...,frirzunk,frirozunk,cselekszik,-zik,1,PR2034,1998,nő,nem,2022-04-09_21h26.52.156,hesp_baseline,2021.2.3,Win32,120.1201201
,,,,,,,,,,,,,,,,,prögzötök,prögöztök,right,5.5117,0,99,99,151,1,44,prögzik / prögözik,"prögzik, prögözni",tek,NA,"János imád prögözni, ezért sokat prögzik.",Ti ritkán...,prögzötök,prögöztök,cselekszik,-zik,1,PR2034,1998,nő,nem,2022-04-09_21h26.52.156,hesp_baseline,2021.2.3,Win32,120.1201201
,,,,,,,,,,,,,,,,,klihaslotok,klihasoztok,right,5.0291,0,100,100,156,1,49,klihaslik / klihasozik,"klihaslik, klihasozni",tek,NA,"János imád klihasozni, ezért sokat klihaslik.",Ti ritkán...,klihaslotok,klihasoztok,cselekszik,-lik,2,PR2034,1998,nő,nem,2022-04-09_21h26.52.156,hesp_baseline,2021.2.3,Win32,120.1201201
,,,,,,,,,,,,,,,,,jukélnél,jukélnál,right,5.5484,0,101,101,42,1,43,jukél,jukél,nál,é,Ez itt egy jukél.,Nincs is jobb egy jó...,jukélnél,jukélnál,dzsungel,NA,NA,PR2034,1998,nő,nem,2022-04-09_21h26.52.156,hesp_baseline,2021.2.3,Win32,120.1201201
,,,,,,,,,,,,,,,,,sprédlem,sprédlek,right,2.8897,0,102,102,70,1,17,sprédlik,sprédlesz,NA,NA,Te bizony sokat sprédlesz.,Én is sokat...,sprédlek,sprédlem,lakik,-lik,1,PR2034,1998,nő,nem,2022-04-09_21h26.52.156,hesp_baseline,2021.2.3,Win32,120.1201201
,,,,,,,,,,,,,,,,,zopélynél,zopélynál,right,3.3971,0,103,103,5,1,6,zopély,zopély,nál,é,Ez itt egy zopély.,Nincs is jobb egy jó...,zopélynél,zopélynál,dzsungel,NA,NA,PR2034,1998,nő,nem,2022-04-09_21h26.52.156,hesp_baseline,2021.2.3,Win32,120.1201201
,,,,,,,,,,,,,,,,,trihagzok,trihagzom,right,3.339,0,104,104,83,1,30,trihagzik,trihagzol,NA,NA,Te bizony sokat trihagzol.,Én is sokat...,trihagzok,trihagzom,lakik,-zik,2,PR2034,1998,nő,nem,2022-04-09_21h26.52.156,hesp_baseline,2021.2.3,Win32,120.1201201
,,,,,,,,,,,,,,,,,riványoztok,riványlotok,left,5.013,0,105,105,117,1,10,riványlik / riványozik,"riványlik, riványozni",tek,NA,"János imád riványozni, ezért sokat riványlik.",Ti ritkán...,riványlotok,riványoztok,cselekszik,-lik,2,PR2034,1998,nő,nem,2022-04-09_21h26.52.156,hesp_baseline,2021.2.3,Win32,120.1201201
,,,,,,,,,,,,,,,,,sztrajoznak,sztrajlanak,left,6.1202,0,106,106,144,1,37,sztrajlik / sztrajozik,"sztrajlik, sztrajozni",nek,NA,"János imád sztrajozni, ezért sokat sztrajlik.",Ők ritkán...,sztrajlanak,sztrajoznak,cselekszik,-lik,1,PR2034,1998,nő,nem,2022-04-09_21h26.52.156,hesp_baseline,2021.2.3,Win32,120.1201201
,,,,,,,,,,,,,,,,,brobódzok,brobódzom,right,4.964,0,107,107,96,1,43,brobódzik,brobódzol,NA,NA,Te bizony sokat brobódzol.,Én is sokat...,brobódzok,brobódzom,lakik,-zik,2,PR2034,1998,nő,nem,2022-04-09_21h26.52.156,hesp_baseline,2021.2.3,Win32,120.1201201
,,,,,,,,,,,,,,,,,flagárzom,flagárzok,left,3.6139,0,108,108,64,1,11,flagárzik,flagárzol,NA,NA,Te bizony sokat flagárzol.,Én is sokat...,flagárzok,flagárzom,lakik,-zik,2,PR2034,1998,nő,nem,2022-04-09_21h26.52.156,hesp_baseline,2021.2.3,Win32,120.1201201
,,,,,,,,,,,,,,,,,flehénylem,flehénylek,right,3.5817,0,109,109,106,1,53,flehénylik,flehénylesz,NA,NA,Te bizony sokat flehénylesz.,Én is sokat...,flehénylek,flehénylem,lakik,-lik,2,PR2034,1998,nő,nem,2022-04-09_21h26.52.156,hesp_baseline,2021.2.3,Win32,120.1201201
,,,,,,,,,,,,,,,,,spéslek,spéslem,left,4.4298,0,110,110,93,1,40,spéslik,spéslesz,NA,NA,Te bizony sokat spéslesz.,Én is sokat...,spéslek,spéslem,lakik,-lik,1,PR2034,1998,nő,nem,2022-04-09_21h26.52.156,hesp_baseline,2021.2.3,Win32,120.1201201
,,,,,,,,,,,,,,,,,prélemeznek,prélemlenek,left,4.9652,0,111,111,110,1,3,prélemlik / prélemezik,"prélemlik, prélemezni",nek,NA,"János imád prélemezni, ezért sokat prélemlik.",Ők ritkán...,prélemlenek,prélemeznek,cselekszik,-lik,2,PR2034,1998,nő,nem,2022-04-09_21h26.52.156,hesp_baseline,2021.2.3,Win32,120.1201201
,,,,,,,,,,,,,,,,,sprudlunk,sprudozunk,right,5.0128,0,112,112,136,1,29,sprudlik / sprudozik,"sprudlik, sprudozni",ünk,NA,"János imád sprudozni, ezért sokat sprudlik.",Mi ritkán...,sprudlunk,sprudozunk,cselekszik,-lik,1,PR2034,1998,nő,nem,2022-04-09_21h26.52.156,hesp_baseline,2021.2.3,Win32,120.1201201
,,,,,,,,,,,,,,,,,galároznak,galárzanak,left,3.9123,0,113,113,154,1,47,galárzik / galározik,"galárzik, galározni",nek,NA,"János imád galározni, ezért sokat galárzik.",Ők ritkán...,galárzanak,galároznak,cselekszik,-zik,2,PR2034,1998,nő,nem,2022-04-09_21h26.52.156,hesp_baseline,2021.2.3,Win32,120.1201201
,,,,,,,,,,,,,,,,,csibagzotok,csibagoztok,right,8.1781,0,114,114,114,1,7,csibagzik / csibagozik,"csibagzik, csibagozni",tek,NA,"János imád csibagozni, ezért sokat csibagzik.",Ti ritkán...,csibagzotok,csibagoztok,cselekszik,-zik,2,PR2034,1998,nő,nem,2022-04-09_21h26.52.156,hesp_baseline,2021.2.3,Win32,120.1201201
,,,,,,,,,,,,,,,,,plűbzök,plűbzöm,left,6.2277,0,115,115,107,1,54,plűbzik,plűbzöl,NA,NA,Te bizony sokat plűbzöl.,Én is sokat...,plűbzök,plűbzöm,lakik,-zik,1,PR2034,1998,nő,nem,2022-04-09_21h26.52.156,hesp_baseline,2021.2.3,Win32,120.1201201
,,,,,,,,,,,,,,,,,brubzok,brubzom,left,6.2699,0,116,116,92,1,39,brubzik,brubzol,NA,NA,Te bizony sokat brubzol.,Én is sokat...,brubzok,brubzom,lakik,-zik,1,PR2034,1998,nő,nem,2022-04-09_21h26.52.156,hesp_baseline,2021.2.3,Win32,120.1201201
,,,,,,,,,,,,,,,,,brüszöztök,brüszlötök,left,7.7273,0,117,117,130,1,23,brüszlik / brüszözik,"brüszlik, brüszözni",tek,NA,"János imád brüszözni, ezért sokat brüszlik.",Ti ritkán...,brüszlötök,brüszöztök,cselekszik,-lik,1,PR2034,1998,nő,nem,2022-04-09_21h26.52.156,hesp_baseline,2021.2.3,Win32,120.1201201
,,,,,,,,,,,,,,,,,marzok,marzom,left,4.3018,0,118,118,99,1,46,marzik,marzol,NA,NA,Te bizony sokat marzol.,Én is sokat...,marzok,marzom,lakik,-zik,1,PR2034,1998,nő,nem,2022-04-09_21h26.52.156,hesp_baseline,2021.2.3,Win32,120.1201201
,,,,,,,,,,,,,,,,,monvegnál,monvegnél,right,2.9392,0,119,119,26,1,27,monveg,monveg,nál,e,Ez itt egy monveg.,Nincs is jobb egy jó...,monvegnél,monvegnál,dzsungel,NA,NA,PR2034,1998,nő,nem,2022-04-09_21h26.52.156,hesp_baseline,2021.2.3,Win32,120.1201201
,,,,,,,,,,,,,,,,,ibáglom,ibáglok,right,3.0504,0,120,120,88,1,35,ibáglik,ibáglasz,NA,NA,Te bizony sokat ibáglasz.,Én is sokat...,ibáglok,ibáglom,lakik,-lik,2,PR2034,1998,nő,nem,2022-04-09_21h26.52.156,hesp_baseline,2021.2.3,Win32,120.1201201
,,,,,,,,,,,,,,,,,hosétnek,hosétnak,right,2.8648,0,121,121,8,1,9,hosét,hosét,nak,é,Ez itt egy hosét.,Elneveztem a kutyámat...,hosétnek,hosétnak,dzsungel,NA,NA,PR2034,1998,nő,nem,2022-04-09_21h26.52.156,hesp_baseline,2021.2.3,Win32,120.1201201
,,,,,,,,,,,,,,,,,bötőrzünk,bötőrözünk,right,8.2516,0,122,122,158,1,51,bötőrzik / bötőrözik,"bötőrzik, bötőrözni",ünk,NA,"János imád bötőrözni, ezért sokat bötőrzik.",Mi ritkán...,bötőrzünk,bötőrözünk,cselekszik,-zik,2,PR2034,1998,nő,nem,2022-04-09_21h26.52.156,hesp_baseline,2021.2.3,Win32,120.1201201
,,,,,,,,,,,,,,,,,hóbensben,hóbensban,left,3.0236,0,123,123,3,1,4,hóbens,hóbens,ban,e,Ez itt egy hóbens.,Ott vagyunk a...,hóbensben,hóbensban,dzsungel,NA,NA,PR2034,1998,nő,nem,2022-04-09_21h26.52.156,hesp_baseline,2021.2.3,Win32,120.1201201
,,,,,,,,,,,,,,,,,aglom,aglok,left,4.6921,0,124,124,100,1,47,aglik,aglasz,NA,NA,Te bizony sokat aglasz.,Én is sokat...,aglok,aglom,lakik,-lik,1,PR2034,1998,nő,nem,2022-04-09_21h26.52.156,hesp_baseline,2021.2.3,Win32,120.1201201
,,,,,,,,,,,,,,,,,csarténynek,csarténynak,right,7.8804,0,125,125,36,1,37,csartény,csartény,nak,é,Ez itt egy csartény.,Elneveztem a kutyámat...,csarténynek,csarténynak,dzsungel,NA,NA,PR2034,1998,nő,nem,2022-04-09_21h26.52.156,hesp_baseline,2021.2.3,Win32,120.1201201
,,,,,,,,,,,,,,,,,préleglek,préleglem,left,7.7213,0,126,126,104,1,51,préleglik,préleglesz,NA,NA,Te bizony sokat préleglesz.,Én is sokat...,préleglek,préleglem,lakik,-lik,2,PR2034,1998,nő,nem,2022-04-09_21h26.52.156,hesp_baseline,2021.2.3,Win32,120.1201201
,,,,,,,,,,,,,,,,,dirányoznak,diránylanak,right,6.9198,0,127,127,122,1,15,diránylik / dirányozik,"diránylik, dirányozni",nek,NA,"János imád dirányozni, ezért sokat diránylik.",Ők ritkán...,diránylanak,dirányoznak,cselekszik,-lik,2,PR2034,1998,nő,nem,2022-04-09_21h26.52.156,hesp_baseline,2021.2.3,Win32,120.1201201
,,,,,,,,,,,,,,,,,priszecben,priszecban,left,3.3824,0,128,128,15,1,16,priszec,priszec,ban,e,Ez itt egy priszec.,Ott vagyunk a...,priszecben,priszecban,dzsungel,NA,NA,PR2034,1998,nő,nem,2022-04-09_21h26.52.156,hesp_baseline,2021.2.3,Win32,120.1201201
,,,,,,,,,,,,,,,,,kalhésznek,kalhésznak,left,4.3547,0,129,129,46,1,47,kalhész,kalhész,nak,é,Ez itt egy kalhész.,Elneveztem a kutyámat...,kalhésznek,kalhésznak,dzsungel,NA,NA,PR2034,1998,nő,nem,2022-04-09_21h26.52.156,hesp_baseline,2021.2.3,Win32,120.1201201
,,,,,,,,,,,,,,,,,vismernál,vismernél,right,3.7083,0,130,130,13,1,14,vismer,vismer,nál,e,Ez itt egy vismer.,Nincs is jobb egy jó...,vismernél,vismernál,dzsungel,NA,NA,PR2034,1998,nő,nem,2022-04-09_21h26.52.156,hesp_baseline,2021.2.3,Win32,120.1201201
,,,,,,,,,,,,,,,,,pliboztok,plibzotok,left,5.8583,0,131,131,140,1,33,plibzik / plibozik,"plibzik, plibozni",tek,NA,"János imád plibozni, ezért sokat plibzik.",Ti ritkán...,plibzotok,pliboztok,cselekszik,-zik,1,PR2034,1998,nő,nem,2022-04-09_21h26.52.156,hesp_baseline,2021.2.3,Win32,120.1201201
,,,,,,,,,,,,,,,,,fökszenek,föködnek,left,6.12,0,132,132,131,1,24,fökszik / föködik,"fökszik, föködni",nek,NA,"János imád föködni, ezért sokat fökszik.",Ők ritkán...,fökszenek,föködnek,cselekszik,-szik,1,PR2034,1998,nő,nem,2022-04-09_21h26.52.156,hesp_baseline,2021.2.3,Win32,120.1201201
,,,,,,,,,,,,,,,,,dábegyben,dábegyban,right,3.3227,0,133,133,6,1,7,dábegy,dábegy,ban,e,Ez itt egy dábegy.,Ott vagyunk a...,dábegyben,dábegyban,dzsungel,NA,NA,PR2034,1998,nő,nem,2022-04-09_21h26.52.156,hesp_baseline,2021.2.3,Win32,120.1201201
,,,,,,,,,,,,,,,,,lorzensnél,lorzensnál,left,2.8359,0,134,134,34,1,35,lorzens,lorzens,nál,e,Ez itt egy lorzens.,Nincs is jobb egy jó...,lorzensnél,lorzensnál,dzsungel,NA,NA,PR2034,1998,nő,nem,2022-04-09_21h26.52.156,hesp_baseline,2021.2.3,Win32,120.1201201
,,,,,,,,,,,,,,,,,málapszok,málapszom,left,3.6228,0,135,135,66,1,13,málapszik,málapszol,NA,NA,Te bizony sokat málapszol.,Én is sokat...,málapszok,málapszom,lakik,-szik,2,PR2034,1998,nő,nem,2022-04-09_21h26.52.156,hesp_baseline,2021.2.3,Win32,120.1201201
,,,,,,,,,,,,,,,,,míslunk,mísozunk,left,4.8122,0,136,136,123,1,16,míslik / mísozik,"míslik, mísozni",ünk,NA,"János imád mísozni, ezért sokat míslik.",Mi ritkán...,míslunk,mísozunk,cselekszik,-lik,1,PR2034,1998,nő,nem,2022-04-09_21h26.52.156,hesp_baseline,2021.2.3,Win32,120.1201201
,,,,,,,,,,,,,,,,,rokszom,rokszok,right,3.6049,0,137,137,101,1,48,rokszik,rokszol,NA,NA,Te bizony sokat rokszol.,Én is sokat...,rokszok,rokszom,lakik,-szik,1,PR2034,1998,nő,nem,2022-04-09_21h26.52.156,hesp_baseline,2021.2.3,Win32,120.1201201
,,,,,,,,,,,,,,,,,frélegezünk,frélegzünk,left,3.8643,0,138,138,147,1,40,frélegzik / frélegezik,"frélegzik, frélegezni",ünk,NA,"János imád frélegezni, ezért sokat frélegzik.",Mi ritkán...,frélegzünk,frélegezünk,cselekszik,-zik,2,PR2034,1998,nő,nem,2022-04-09_21h26.52.156,hesp_baseline,2021.2.3,Win32,120.1201201
,,,,,,,,,,,,,,,,,trukszotok,trukodtok,right,7.1547,0,139,139,157,1,50,trukszik / trukodik,"trukszik, trukodni",tek,NA,"János imád trukodni, ezért sokat trukszik.",Ti ritkán...,trukszotok,trukodtok,cselekszik,-szik,1,PR2034,1998,nő,nem,2022-04-09_21h26.52.156,hesp_baseline,2021.2.3,Win32,120.1201201
,,,,,,,,,,,,,,,,,bribasoznak,bribaslanak,left,3.6557,0,140,140,121,1,14,bribaslik / bribasozik,"bribaslik, bribasozni",nek,NA,"János imád bribasozni, ezért sokat bribaslik.",Ők ritkán...,bribaslanak,bribasoznak,cselekszik,-lik,2,PR2034,1998,nő,nem,2022-04-09_21h26.52.156,hesp_baseline,2021.2.3,Win32,120.1201201
,,,,,,,,,,,,,,,,,pekedünk,pekszünk,left,4.9546,0,141,141,161,1,54,pekszik / pekedik,"pekszik, pekedni",ünk,NA,"János imád pekedni, ezért sokat pekszik.",Mi ritkán...,pekszünk,pekedünk,cselekszik,-szik,1,PR2034,1998,nő,nem,2022-04-09_21h26.52.156,hesp_baseline,2021.2.3,Win32,120.1201201
,,,,,,,,,,,,,,,,,priszkencnek,priszkencnak,left,2.7315,0,142,142,20,1,21,priszkenc,priszkenc,nak,e,Ez itt egy priszkenc.,Elneveztem a kutyámat...,priszkencnek,priszkencnak,dzsungel,NA,NA,PR2034,1998,nő,nem,2022-04-09_21h26.52.156,hesp_baseline,2021.2.3,Win32,120.1201201
,,,,,,,,,,,,,,,,,tivencban,tivencben,right,2.4172,0,143,143,53,1,54,tivenc,tivenc,ban,e,Ez itt egy tivenc.,Ott vagyunk a...,tivencben,tivencban,dzsungel,NA,NA,PR2034,1998,nő,nem,2022-04-09_21h26.52.156,hesp_baseline,2021.2.3,Win32,120.1201201
,,,,,,,,,,,,,,,,,spélszek,spélszem,left,5.6967,0,144,144,68,1,15,spélszik,spélszel,NA,NA,Te bizony sokat spélszel.,Én is sokat...,spélszek,spélszem,lakik,-szik,1,PR2034,1998,nő,nem,2022-04-09_21h26.52.156,hesp_baseline,2021.2.3,Win32,120.1201201
,,,,,,,,,,,,,,,,,nyülöklenek,nyülököznek,right,6.6305,0,145,145,108,1,1,nyülöklik / nyülöközik,"nyülöklik, nyülöközni",nek,NA,"János imád nyülöközni, ezért sokat nyülöklik.",Ők ritkán...,nyülöklenek,nyülököznek,cselekszik,-lik,2,PR2034,1998,nő,nem,2022-04-09_21h26.52.156,hesp_baseline,2021.2.3,Win32,120.1201201
,,,,,,,,,,,,,,,,,brivaklotok,brivakoztok,right,3.3474,0,146,146,134,1,27,brivaklik / brivakozik,"brivaklik, brivakozni",tek,NA,"János imád brivakozni, ezért sokat brivaklik.",Ti ritkán...,brivaklotok,brivakoztok,cselekszik,-lik,2,PR2034,1998,nő,nem,2022-04-09_21h26.52.156,hesp_baseline,2021.2.3,Win32,120.1201201
,,,,,,,,,,,,,,,,,darhénben,darhénban,right,2.4039,0,147,147,27,1,28,darhén,darhén,ban,é,Ez itt egy darhén.,Ott vagyunk a...,darhénben,darhénban,dzsungel,NA,NA,PR2034,1998,nő,nem,2022-04-09_21h26.52.156,hesp_baseline,2021.2.3,Win32,120.1201201
,,,,,,,,,,,,,,,,,gatáglunk,gatágozunk,right,3.5818,0,148,148,137,1,30,gatáglik / gatágozik,"gatáglik, gatágozni",ünk,NA,"János imád gatágozni, ezért sokat gatáglik.",Mi ritkán...,gatáglunk,gatágozunk,cselekszik,-lik,2,PR2034,1998,nő,nem,2022-04-09_21h26.52.156,hesp_baseline,2021.2.3,Win32,120.1201201
,,,,,,,,,,,,,,,,,breslenek,breseznek,right,5.1877,0,149,149,115,1,8,breslik / bresezik,"breslik, bresezni",nek,NA,"János imád bresezni, ezért sokat breslik.",Ők ritkán...,breslenek,breseznek,cselekszik,-lik,1,PR2034,1998,nő,nem,2022-04-09_21h26.52.156,hesp_baseline,2021.2.3,Win32,120.1201201
,,,,,,,,,,,,,,,,,flözlök,flözlöm,left,26.6364,0,150,150,74,1,21,flözlik,flözlesz,NA,NA,Te bizony sokat flözlesz.,Én is sokat...,flözlök,flözlöm,lakik,-lik,1,PR2034,1998,nő,nem,2022-04-09_21h26.52.156,hesp_baseline,2021.2.3,Win32,120.1201201
,,,,,,,,,,,,,,,,,bügzenek,bügöznek,left,4.2051,0,151,151,118,1,11,bügzik / bügözik,"bügzik, bügözni",nek,NA,"János imád bügözni, ezért sokat bügzik.",Ők ritkán...,bügzenek,bügöznek,cselekszik,-zik,1,PR2034,1998,nő,nem,2022-04-09_21h26.52.156,hesp_baseline,2021.2.3,Win32,120.1201201
,,,,,,,,,,,,,,,,,tránélynak,tránélynek,left,3.8221,0,152,152,17,1,18,tránély,tránély,nak,é,Ez itt egy tránély.,Elneveztem a kutyámat...,tránélynek,tránélynak,dzsungel,NA,NA,PR2034,1998,nő,nem,2022-04-09_21h26.52.156,hesp_baseline,2021.2.3,Win32,120.1201201
,,,,,,,,,,,,,,,,,bölszöm,bölszök,right,4.1155,0,153,153,105,1,52,bölszik,bölszöl,NA,NA,Te bizony sokat bölszöl.,Én is sokat...,bölszök,bölszöm,lakik,-szik,1,PR2034,1998,nő,nem,2022-04-09_21h26.52.156,hesp_baseline,2021.2.3,Win32,120.1201201
,,,,,,,,,,,,,,,,,nyivágzunk,nyivágozunk,left,3.8139,0,154,154,113,1,6,nyivágzik / nyivágozik,"nyivágzik, nyivágozni",ünk,NA,"János imád nyivágozni, ezért sokat nyivágzik.",Mi ritkán...,nyivágzunk,nyivágozunk,cselekszik,-zik,2,PR2034,1998,nő,nem,2022-04-09_21h26.52.156,hesp_baseline,2021.2.3,Win32,120.1201201
,,,,,,,,,,,,,,,,,hiragzanak,hiragoznak,right,4.5476,0,155,155,119,1,12,hiragzik / hiragozik,"hiragzik, hiragozni",nek,NA,"János imád hiragozni, ezért sokat hiragzik.",Ők ritkán...,hiragzanak,hiragoznak,cselekszik,-zik,2,PR2034,1998,nő,nem,2022-04-09_21h26.52.156,hesp_baseline,2021.2.3,Win32,120.1201201
,,,,,,,,,,,,,,,,,plövőrzöm,plövőrzök,right,7.7325,0,156,156,58,1,5,plövőrzik,plövőrzöl,NA,NA,Te bizony sokat plövőrzöl.,Én is sokat...,plövőrzök,plövőrzöm,lakik,-zik,2,PR2034,1998,nő,nem,2022-04-09_21h26.52.156,hesp_baseline,2021.2.3,Win32,120.1201201
,,,,,,,,,,,,,,,,,salárzom,salárzok,left,3.6892,0,157,157,103,1,50,salárzik,salárzol,NA,NA,Te bizony sokat salárzol.,Én is sokat...,salárzok,salárzom,lakik,-zik,2,PR2034,1998,nő,nem,2022-04-09_21h26.52.156,hesp_baseline,2021.2.3,Win32,120.1201201
,,,,,,,,,,,,,,,,,köszöztök,köszlötök,left,5.4805,0,158,158,120,1,13,köszlik / köszözik,"köszlik, köszözni",tek,NA,"János imád köszözni, ezért sokat köszlik.",Ti ritkán...,köszlötök,köszöztök,cselekszik,-lik,1,PR2034,1998,nő,nem,2022-04-09_21h26.52.156,hesp_baseline,2021.2.3,Win32,120.1201201
,,,,,,,,,,,,,,,,,gyibeslek,gyibeslem,left,4.0992,0,159,159,98,1,45,gyibeslik,gyibeslesz,NA,NA,Te bizony sokat gyibeslesz.,Én is sokat...,gyibeslek,gyibeslem,lakik,-lik,2,PR2034,1998,nő,nem,2022-04-09_21h26.52.156,hesp_baseline,2021.2.3,Win32,120.1201201
,,,,,,,,,,,,,,,,,hivépban,hivépben,right,2.7818,0,160,160,44,1,45,hivép,hivép,ban,é,Ez itt egy hivép.,Ott vagyunk a...,hivépben,hivépban,dzsungel,NA,NA,PR2034,1998,nő,nem,2022-04-09_21h26.52.156,hesp_baseline,2021.2.3,Win32,120.1201201
,,,,,,,,,,,,,,,,,spűmlöm,spűmlök,right,5.4052,0,161,161,86,1,33,spűmlik,spűmlesz,NA,NA,Te bizony sokat spűmlesz.,Én is sokat...,spűmlök,spűmlöm,lakik,-lik,1,PR2034,1998,nő,nem,2022-04-09_21h26.52.156,hesp_baseline,2021.2.3,Win32,120.1201201
