my_list,key.keys,key.rt,key_2.keys,key_2.rt,keyboard_input_2.keys,keyboard_input_2.rt,key_3.keys,key_3.rt,keyboard_input_3.keys,keyboard_input_3.rt,key_4.keys,key_4.rt,keyboard_input_4.keys,keyboard_input_4.rt,key_5.keys,key_5.rt,my_button1,my_button2,keyboard_input.keys,keyboard_input.rt,withinBlock.thisRepN,withinBlock.thisTrialN,withinBlock.thisN,withinBlock.thisIndex,withinBlock.ran,rowname,word,prompt,suffix,vowel,carrier_sentence,target_sentence,target1,target2,category,derivational,nsyl,Azonosító,Melyik évben születtél?,Mi a nemed?,Tanultál nyelvészetet?,date,expName,psychopyVersion,OS,frameRate
list1.csv,space,13.3369,space,6.8894,right,5.601299999,space,11.5735,left,5.056,space,7.596900002,left,7.936200001,space,15.1726,hivépban,hivépben,right,10.5523,0,0,0,44,1,45,hivép,hivép,ban,é,Ez itt egy hivép.,Ott vagyunk a...,hivépben,hivépban,dzsungel,NA,NA,PR2054,1985,nő,nem,2022-04-14_08h51.26.785,hesp_baseline,2021.2.3,Win32,59.67655308
,,,,,,,,,,,,,,,,,sztrajoznak,sztrajlanak,right,16.3831,0,1,1,144,1,37,sztrajlik / sztrajozik,"sztrajlik, sztrajozni",nek,NA,"János imád sztrajozni, ezért sokat sztrajlik.",Ők ritkán...,sztrajlanak,sztrajoznak,cselekszik,-lik,1,PR2054,1985,nő,nem,2022-04-14_08h51.26.785,hesp_baseline,2021.2.3,Win32,59.67655308
,,,,,,,,,,,,,,,,,géregeztek,géregletek,left,18.3111,0,2,2,124,1,17,géreglik / géregezik,"géreglik, géregezni",tek,NA,"János imád géregezni, ezért sokat géreglik.",Ti ritkán...,géregletek,géregeztek,cselekszik,-lik,2,PR2054,1985,nő,nem,2022-04-14_08h51.26.785,hesp_baseline,2021.2.3,Win32,59.67655308
,,,,,,,,,,,,,,,,,klörlök,klörlöm,left,6.2156,0,3,3,80,1,27,klörlik,klörlesz,NA,NA,Te bizony sokat klörlesz.,Én is sokat...,klörlök,klörlöm,lakik,-lik,1,PR2054,1985,nő,nem,2022-04-14_08h51.26.785,hesp_baseline,2021.2.3,Win32,59.67655308
,,,,,,,,,,,,,,,,,lorzensnál,lorzensnél,right,6.149299999,0,4,4,34,1,35,lorzens,lorzens,nál,e,Ez itt egy lorzens.,Nincs is jobb egy jó...,lorzensnél,lorzensnál,dzsungel,NA,NA,PR2054,1985,nő,nem,2022-04-14_08h51.26.785,hesp_baseline,2021.2.3,Win32,59.67655308
,,,,,,,,,,,,,,,,,pebzek,pebzem,left,5.881200001,0,5,5,57,1,4,pebzik,pebzel,NA,NA,Te bizony sokat pebzel.,Én is sokat...,pebzek,pebzem,lakik,-zik,1,PR2054,1985,nő,nem,2022-04-14_08h51.26.785,hesp_baseline,2021.2.3,Win32,59.67655308
,,,,,,,,,,,,,,,,,riványoztok,riványlotok,left,7.3246,0,6,6,117,1,10,riványlik / riványozik,"riványlik, riványozni",tek,NA,"János imád riványozni, ezért sokat riványlik.",Ti ritkán...,riványlotok,riványoztok,cselekszik,-lik,2,PR2054,1985,nő,nem,2022-04-14_08h51.26.785,hesp_baseline,2021.2.3,Win32,59.67655308
,,,,,,,,,,,,,,,,,csibagzotok,csibagoztok,right,5.9965,0,7,7,114,1,7,csibagzik / csibagozik,"csibagzik, csibagozni",tek,NA,"János imád csibagozni, ezért sokat csibagzik.",Ti ritkán...,csibagzotok,csibagoztok,cselekszik,-zik,2,PR2054,1985,nő,nem,2022-04-14_08h51.26.785,hesp_baseline,2021.2.3,Win32,59.67655308
,,,,,,,,,,,,,,,,,marzok,marzom,left,3.418799999,0,8,8,99,1,46,marzik,marzol,NA,NA,Te bizony sokat marzol.,Én is sokat...,marzok,marzom,lakik,-zik,1,PR2054,1985,nő,nem,2022-04-14_08h51.26.785,hesp_baseline,2021.2.3,Win32,59.67655308
,,,,,,,,,,,,,,,,,brivaklotok,brivakoztok,right,8.690200001,0,9,9,134,1,27,brivaklik / brivakozik,"brivaklik, brivakozni",tek,NA,"János imád brivakozni, ezért sokat brivaklik.",Ti ritkán...,brivaklotok,brivakoztok,cselekszik,-lik,2,PR2054,1985,nő,nem,2022-04-14_08h51.26.785,hesp_baseline,2021.2.3,Win32,59.67655308
,,,,,,,,,,,,,,,,,filágzom,filágzok,left,4.3636,0,10,10,102,1,49,filágzik,filágzol,NA,NA,Te bizony sokat filágzol.,Én is sokat...,filágzok,filágzom,lakik,-zik,2,PR2054,1985,nő,nem,2022-04-14_08h51.26.785,hesp_baseline,2021.2.3,Win32,59.67655308
,,,,,,,,,,,,,,,,,plibzotok,pliboztok,right,9.250799999,0,11,11,140,1,33,plibzik / plibozik,"plibzik, plibozni",tek,NA,"János imád plibozni, ezért sokat plibzik.",Ti ritkán...,plibzotok,pliboztok,cselekszik,-zik,1,PR2054,1985,nő,nem,2022-04-14_08h51.26.785,hesp_baseline,2021.2.3,Win32,59.67655308
,,,,,,,,,,,,,,,,,salárzom,salárzok,right,8.5446,0,12,12,103,1,50,salárzik,salárzol,NA,NA,Te bizony sokat salárzol.,Én is sokat...,salárzok,salárzom,lakik,-zik,2,PR2054,1985,nő,nem,2022-04-14_08h51.26.785,hesp_baseline,2021.2.3,Win32,59.67655308
,,,,,,,,,,,,,,,,,dujoznak,dujzanak,left,8.0831,0,13,13,128,1,21,dujzik / dujozik,"dujzik, dujozni",nek,NA,"János imád dujozni, ezért sokat dujzik.",Ők ritkán...,dujzanak,dujoznak,cselekszik,-zik,1,PR2054,1985,nő,nem,2022-04-14_08h51.26.785,hesp_baseline,2021.2.3,Win32,59.67655308
,,,,,,,,,,,,,,,,,zsúdelnek,zsúdelnak,left,6.428300001,0,14,14,14,1,15,zsúdel,zsúdel,nak,e,Ez itt egy zsúdel.,Elneveztem a kutyámat...,zsúdelnek,zsúdelnak,dzsungel,NA,NA,PR2054,1985,nő,nem,2022-04-14_08h51.26.785,hesp_baseline,2021.2.3,Win32,59.67655308
,,,,,,,,,,,,,,,,,bötőrözünk,bötőrzünk,left,6.956199999,0,15,15,158,1,51,bötőrzik / bötőrözik,"bötőrzik, bötőrözni",ünk,NA,"János imád bötőrözni, ezért sokat bötőrzik.",Mi ritkán...,bötőrzünk,bötőrözünk,cselekszik,-zik,2,PR2054,1985,nő,nem,2022-04-14_08h51.26.785,hesp_baseline,2021.2.3,Win32,59.67655308
,,,,,,,,,,,,,,,,,brözöztök,brözlötök,right,12.9043,0,16,16,145,1,38,brözlik / brözözik,"brözlik, brözözni",tek,NA,"János imád brözözni, ezért sokat brözlik.",Ti ritkán...,brözlötök,brözöztök,cselekszik,-lik,1,PR2054,1985,nő,nem,2022-04-14_08h51.26.785,hesp_baseline,2021.2.3,Win32,59.67655308
,,,,,,,,,,,,,,,,,galárzanak,galároznak,right,4.8981,0,17,17,154,1,47,galárzik / galározik,"galárzik, galározni",nek,NA,"János imád galározni, ezért sokat galárzik.",Ők ritkán...,galárzanak,galároznak,cselekszik,-zik,2,PR2054,1985,nő,nem,2022-04-14_08h51.26.785,hesp_baseline,2021.2.3,Win32,59.67655308
,,,,,,,,,,,,,,,,,klaráglom,klaráglok,left,7.592200001,0,18,18,91,1,38,klaráglik,klaráglasz,NA,NA,Te bizony sokat klaráglasz.,Én is sokat...,klaráglok,klaráglom,lakik,-lik,2,PR2054,1985,nő,nem,2022-04-14_08h51.26.785,hesp_baseline,2021.2.3,Win32,59.67655308
,,,,,,,,,,,,,,,,,privékszenek,privékednek,right,8.8761,0,19,19,149,1,42,privékszik / privékedik,"privékszik, privékedni",nek,NA,"János imád privékedni, ezért sokat privékszik.",Ők ritkán...,privékszenek,privékednek,cselekszik,-szik,2,PR2054,1985,nő,nem,2022-04-14_08h51.26.785,hesp_baseline,2021.2.3,Win32,59.67655308
,,,,,,,,,,,,,,,,,brüszlötök,brüszöztök,right,4.9514,0,20,20,130,1,23,brüszlik / brüszözik,"brüszlik, brüszözni",tek,NA,"János imád brüszözni, ezért sokat brüszlik.",Ti ritkán...,brüszlötök,brüszöztök,cselekszik,-lik,1,PR2054,1985,nő,nem,2022-04-14_08h51.26.785,hesp_baseline,2021.2.3,Win32,59.67655308
,,,,,,,,,,,,,,,,,buhényben,buhényban,right,8.2,0,21,21,43,1,44,buhény,buhény,ban,é,Ez itt egy buhény.,Ott vagyunk a...,buhényben,buhényban,dzsungel,NA,NA,PR2054,1985,nő,nem,2022-04-14_08h51.26.785,hesp_baseline,2021.2.3,Win32,59.67655308
,,,,,,,,,,,,,,,,,gatágozunk,gatáglunk,left,6.048799999,0,22,22,137,1,30,gatáglik / gatágozik,"gatáglik, gatágozni",ünk,NA,"János imád gatágozni, ezért sokat gatáglik.",Mi ritkán...,gatáglunk,gatágozunk,cselekszik,-lik,2,PR2054,1985,nő,nem,2022-04-14_08h51.26.785,hesp_baseline,2021.2.3,Win32,59.67655308
,,,,,,,,,,,,,,,,,frorlanak,froroznak,left,7.645200001,0,23,23,143,1,36,frorlik / frorozik,"frorlik, frorozni",nek,NA,"János imád frorozni, ezért sokat frorlik.",Ők ritkán...,frorlanak,froroznak,cselekszik,-lik,1,PR2054,1985,nő,nem,2022-04-14_08h51.26.785,hesp_baseline,2021.2.3,Win32,59.67655308
,,,,,,,,,,,,,,,,,hilarzok,hilarzom,left,3.442700001,0,24,24,69,1,16,hilarzik,hilarzol,NA,NA,Te bizony sokat hilarzol.,Én is sokat...,hilarzok,hilarzom,lakik,-zik,2,PR2054,1985,nő,nem,2022-04-14_08h51.26.785,hesp_baseline,2021.2.3,Win32,59.67655308
,,,,,,,,,,,,,,,,,lihénynek,lihénynak,left,3.3975,0,25,25,23,1,24,lihény,lihény,nak,é,Ez itt egy lihény.,Elneveztem a kutyámat...,lihénynek,lihénynak,dzsungel,NA,NA,PR2054,1985,nő,nem,2022-04-14_08h51.26.785,hesp_baseline,2021.2.3,Win32,59.67655308
,,,,,,,,,,,,,,,,,bralképban,bralképben,right,6.6161,0,26,26,12,1,13,bralkép,bralkép,ban,é,Ez itt egy bralkép.,Ott vagyunk a...,bralképben,bralképban,dzsungel,NA,NA,PR2054,1985,nő,nem,2022-04-14_08h51.26.785,hesp_baseline,2021.2.3,Win32,59.67655308
,,,,,,,,,,,,,,,,,plűbzöm,plűbzök,right,4.007799999,0,27,27,107,1,54,plűbzik,plűbzöl,NA,NA,Te bizony sokat plűbzöl.,Én is sokat...,plűbzök,plűbzöm,lakik,-zik,1,PR2054,1985,nő,nem,2022-04-14_08h51.26.785,hesp_baseline,2021.2.3,Win32,59.67655308
,,,,,,,,,,,,,,,,,spibádzom,spibádzok,right,5.356299999,0,28,28,65,1,12,spibádzik,spibádzol,NA,NA,Te bizony sokat spibádzol.,Én is sokat...,spibádzok,spibádzom,lakik,-zik,2,PR2054,1985,nő,nem,2022-04-14_08h51.26.785,hesp_baseline,2021.2.3,Win32,59.67655308
,,,,,,,,,,,,,,,,,gábédnél,gábédnál,right,6.3939,0,29,29,39,1,40,gábéd,gábéd,nál,é,Ez itt egy gábéd.,Nincs is jobb egy jó...,gábédnél,gábédnál,dzsungel,NA,NA,PR2054,1985,nő,nem,2022-04-14_08h51.26.785,hesp_baseline,2021.2.3,Win32,59.67655308
,,,,,,,,,,,,,,,,,trukodtok,trukszotok,left,4.733,0,30,30,157,1,50,trukszik / trukodik,"trukszik, trukodni",tek,NA,"János imád trukodni, ezért sokat trukszik.",Ti ritkán...,trukszotok,trukodtok,cselekszik,-szik,1,PR2054,1985,nő,nem,2022-04-14_08h51.26.785,hesp_baseline,2021.2.3,Win32,59.67655308
,,,,,,,,,,,,,,,,,zsopédban,zsopédben,left,5.1515,0,31,31,50,1,51,zsopéd,zsopéd,ban,é,Ez itt egy zsopéd.,Ott vagyunk a...,zsopédben,zsopédban,dzsungel,NA,NA,PR2054,1985,nő,nem,2022-04-14_08h51.26.785,hesp_baseline,2021.2.3,Win32,59.67655308
,,,,,,,,,,,,,,,,,sprédlek,sprédlem,left,3.963200001,0,32,32,70,1,17,sprédlik,sprédlesz,NA,NA,Te bizony sokat sprédlesz.,Én is sokat...,sprédlek,sprédlem,lakik,-lik,1,PR2054,1985,nő,nem,2022-04-14_08h51.26.785,hesp_baseline,2021.2.3,Win32,59.67655308
,,,,,,,,,,,,,,,,,gyivepednek,gyivepszenek,right,6.534,0,33,33,160,1,53,gyivepszik / gyivepedik,"gyivepszik, gyivepedni",nek,NA,"János imád gyivepedni, ezért sokat gyivepszik.",Ők ritkán...,gyivepszenek,gyivepednek,cselekszik,-szik,2,PR2054,1985,nő,nem,2022-04-14_08h51.26.785,hesp_baseline,2021.2.3,Win32,59.67655308
,,,,,,,,,,,,,,,,,brülöslünk,brülösözünk,left,4.800099998,0,34,34,109,1,2,brülöslik / brülösözik,"brülöslik, brülösözni",ünk,NA,"János imád brülösözni, ezért sokat brülöslik.",Mi ritkán...,brülöslünk,brülösözünk,cselekszik,-lik,2,PR2054,1985,nő,nem,2022-04-14_08h51.26.785,hesp_baseline,2021.2.3,Win32,59.67655308
,,,,,,,,,,,,,,,,,kűdlenek,kűdöznek,right,4.979199999,0,35,35,142,1,35,kűdlik / kűdözik,"kűdlik, kűdözni",nek,NA,"János imád kűdözni, ezért sokat kűdlik.",Ők ritkán...,kűdlenek,kűdöznek,cselekszik,-lik,1,PR2054,1985,nő,nem,2022-04-14_08h51.26.785,hesp_baseline,2021.2.3,Win32,59.67655308
,,,,,,,,,,,,,,,,,sztremlek,sztremlem,left,4.3305,0,36,36,95,1,42,sztremlik,sztremlesz,NA,NA,Te bizony sokat sztremlesz.,Én is sokat...,sztremlek,sztremlem,lakik,-lik,1,PR2054,1985,nő,nem,2022-04-14_08h51.26.785,hesp_baseline,2021.2.3,Win32,59.67655308
,,,,,,,,,,,,,,,,,hurjorzok,hurjorzom,left,5.599700001,0,37,37,59,1,6,hurjorzik,hurjorzol,NA,NA,Te bizony sokat hurjorzol.,Én is sokat...,hurjorzok,hurjorzom,lakik,-zik,2,PR2054,1985,nő,nem,2022-04-14_08h51.26.785,hesp_baseline,2021.2.3,Win32,59.67655308
,,,,,,,,,,,,,,,,,flehénylek,flehénylem,left,3.4165,0,38,38,106,1,53,flehénylik,flehénylesz,NA,NA,Te bizony sokat flehénylesz.,Én is sokat...,flehénylek,flehénylem,lakik,-lik,2,PR2054,1985,nő,nem,2022-04-14_08h51.26.785,hesp_baseline,2021.2.3,Win32,59.67655308
,,,,,,,,,,,,,,,,,köszöztök,köszlötök,left,5.4641,0,39,39,120,1,13,köszlik / köszözik,"köszlik, köszözni",tek,NA,"János imád köszözni, ezért sokat köszlik.",Ti ritkán...,köszlötök,köszöztök,cselekszik,-lik,1,PR2054,1985,nő,nem,2022-04-14_08h51.26.785,hesp_baseline,2021.2.3,Win32,59.67655308
,,,,,,,,,,,,,,,,,priszecban,priszecben,right,3.6835,0,40,40,15,1,16,priszec,priszec,ban,e,Ez itt egy priszec.,Ott vagyunk a...,priszecben,priszecban,dzsungel,NA,NA,PR2054,1985,nő,nem,2022-04-14_08h51.26.785,hesp_baseline,2021.2.3,Win32,59.67655308
,,,,,,,,,,,,,,,,,lumézben,lumézban,right,4.135200001,0,41,41,32,1,33,luméz,luméz,ban,é,Ez itt egy luméz.,Ott vagyunk a...,lumézben,lumézban,dzsungel,NA,NA,PR2054,1985,nő,nem,2022-04-14_08h51.26.785,hesp_baseline,2021.2.3,Win32,59.67655308
,,,,,,,,,,,,,,,,,pilégszenek,pilégednek,left,6.6075,0,42,42,150,1,43,pilégszik / pilégedik,"pilégszik, pilégedni",nek,NA,"János imád pilégedni, ezért sokat pilégszik.",Ők ritkán...,pilégszenek,pilégednek,cselekszik,-szik,2,PR2054,1985,nő,nem,2022-04-14_08h51.26.785,hesp_baseline,2021.2.3,Win32,59.67655308
,,,,,,,,,,,,,,,,,pörzötök,pöröztök,right,4.858299999,0,43,43,153,1,46,pörzik / pörözik,"pörzik, pörözni",tek,NA,"János imád pörözni, ezért sokat pörzik.",Ti ritkán...,pörzötök,pöröztök,cselekszik,-zik,1,PR2054,1985,nő,nem,2022-04-14_08h51.26.785,hesp_baseline,2021.2.3,Win32,59.67655308
,,,,,,,,,,,,,,,,,pekedünk,pekszünk,right,10.2996,0,44,44,161,1,54,pekszik / pekedik,"pekszik, pekedni",ünk,NA,"János imád pekedni, ezért sokat pekszik.",Mi ritkán...,pekszünk,pekedünk,cselekszik,-szik,1,PR2054,1985,nő,nem,2022-04-14_08h51.26.785,hesp_baseline,2021.2.3,Win32,59.67655308
,,,,,,,,,,,,,,,,,prugoroztok,prugorzotok,left,11.5249,0,45,45,116,1,9,prugorzik / prugorozik,"prugorzik, prugorozni",tek,NA,"János imád prugorozni, ezért sokat prugorzik.",Ti ritkán...,prugorzotok,prugoroztok,cselekszik,-zik,2,PR2054,1985,nő,nem,2022-04-14_08h51.26.785,hesp_baseline,2021.2.3,Win32,59.67655308
,,,,,,,,,,,,,,,,,dirányoznak,diránylanak,left,5.2815,0,46,46,122,1,15,diránylik / dirányozik,"diránylik, dirányozni",nek,NA,"János imád dirányozni, ezért sokat diránylik.",Ők ritkán...,diránylanak,dirányoznak,cselekszik,-lik,2,PR2054,1985,nő,nem,2022-04-14_08h51.26.785,hesp_baseline,2021.2.3,Win32,59.67655308
,,,,,,,,,,,,,,,,,brarlok,brarlom,left,3.5045,0,47,47,71,1,18,brarlik,brarlasz,NA,NA,Te bizony sokat brarlasz.,Én is sokat...,brarlok,brarlom,lakik,-lik,1,PR2054,1985,nő,nem,2022-04-14_08h51.26.785,hesp_baseline,2021.2.3,Win32,59.67655308
,,,,,,,,,,,,,,,,,kliszernél,kliszernál,left,3.838099998,0,48,48,31,1,32,kliszer,kliszer,nál,e,Ez itt egy kliszer.,Nincs is jobb egy jó...,kliszernél,kliszernál,dzsungel,NA,NA,PR2054,1985,nő,nem,2022-04-14_08h51.26.785,hesp_baseline,2021.2.3,Win32,59.67655308
,,,,,,,,,,,,,,,,,frihegezünk,friheglünk,right,7.7039,0,49,49,132,1,25,friheglik / frihegezik,"friheglik, frihegezni",ünk,NA,"János imád frihegezni, ezért sokat friheglik.",Mi ritkán...,friheglünk,frihegezünk,cselekszik,-lik,2,PR2054,1985,nő,nem,2022-04-14_08h51.26.785,hesp_baseline,2021.2.3,Win32,59.67655308
,,,,,,,,,,,,,,,,,vanylom,vanylok,right,2.9509,0,50,50,61,1,8,vanylik,vanylasz,NA,NA,Te bizony sokat vanylasz.,Én is sokat...,vanylok,vanylom,lakik,-lik,1,PR2054,1985,nő,nem,2022-04-14_08h51.26.785,hesp_baseline,2021.2.3,Win32,59.67655308
,,,,,,,,,,,,,,,,,fökszenek,föködnek,left,4.355300001,0,51,51,131,1,24,fökszik / föködik,"fökszik, föködni",nek,NA,"János imád föködni, ezért sokat fökszik.",Ők ritkán...,fökszenek,föködnek,cselekszik,-szik,1,PR2054,1985,nő,nem,2022-04-14_08h51.26.785,hesp_baseline,2021.2.3,Win32,59.67655308
,,,,,,,,,,,,,,,,,rokszom,rokszok,right,2.736199999,0,52,52,101,1,48,rokszik,rokszol,NA,NA,Te bizony sokat rokszol.,Én is sokat...,rokszok,rokszom,lakik,-szik,1,PR2054,1985,nő,nem,2022-04-14_08h51.26.785,hesp_baseline,2021.2.3,Win32,59.67655308
,,,,,,,,,,,,,,,,,trodélyban,trodélyben,left,5.1801,0,53,53,28,1,29,trodély,trodély,ban,é,Ez itt egy trodély.,Ott vagyunk a...,trodélyben,trodélyban,dzsungel,NA,NA,PR2054,1985,nő,nem,2022-04-14_08h51.26.785,hesp_baseline,2021.2.3,Win32,59.67655308
,,,,,,,,,,,,,,,,,frinyozunk,frinylunk,right,5.663,0,54,54,133,1,26,frinylik / frinyozik,"frinylik, frinyozni",ünk,NA,"János imád frinyozni, ezért sokat frinylik.",Mi ritkán...,frinylunk,frinyozunk,cselekszik,-lik,1,PR2054,1985,nő,nem,2022-04-14_08h51.26.785,hesp_baseline,2021.2.3,Win32,59.67655308
,,,,,,,,,,,,,,,,,herégszem,herégszek,right,5.6466,0,55,55,54,1,1,herégszik,herégszel,NA,NA,Te bizony sokat herégszel.,Én is sokat...,herégszek,herégszem,lakik,-szik,2,PR2054,1985,nő,nem,2022-04-14_08h51.26.785,hesp_baseline,2021.2.3,Win32,59.67655308
,,,,,,,,,,,,,,,,,hijegynél,hijegynál,left,3.401700001,0,56,56,4,1,5,hijegy,hijegy,nál,e,Ez itt egy hijegy.,Nincs is jobb egy jó...,hijegynél,hijegynál,dzsungel,NA,NA,PR2054,1985,nő,nem,2022-04-14_08h51.26.785,hesp_baseline,2021.2.3,Win32,59.67655308
,,,,,,,,,,,,,,,,,zopélynál,zopélynél,right,4.267,0,57,57,5,1,6,zopély,zopély,nál,é,Ez itt egy zopély.,Nincs is jobb egy jó...,zopélynél,zopélynál,dzsungel,NA,NA,PR2054,1985,nő,nem,2022-04-14_08h51.26.785,hesp_baseline,2021.2.3,Win32,59.67655308
,,,,,,,,,,,,,,,,,jurozunk,jurlunk,left,6.862299999,0,58,58,111,1,4,jurlik / jurozik,"jurlik, jurozni",ünk,NA,"János imád jurozni, ezért sokat jurlik.",Mi ritkán...,jurlunk,jurozunk,cselekszik,-lik,1,PR2054,1985,nő,nem,2022-04-14_08h51.26.785,hesp_baseline,2021.2.3,Win32,59.67655308
,,,,,,,,,,,,,,,,,klordénynak,klordénynek,left,6.585799999,0,59,59,9,1,10,klordény,klordény,nak,é,Ez itt egy klordény.,Elneveztem a kutyámat...,klordénynek,klordénynak,dzsungel,NA,NA,PR2054,1985,nő,nem,2022-04-14_08h51.26.785,hesp_baseline,2021.2.3,Win32,59.67655308
,,,,,,,,,,,,,,,,,zsalrénnak,zsalrénnek,left,3.823700001,0,60,60,19,1,20,zsalrén,zsalrén,nak,é,Ez itt egy zsalrén.,Elneveztem a kutyámat...,zsalrénnek,zsalrénnak,dzsungel,NA,NA,PR2054,1985,nő,nem,2022-04-14_08h51.26.785,hesp_baseline,2021.2.3,Win32,59.67655308
,,,,,,,,,,,,,,,,,drügzök,drügzöm,left,2.5476,0,61,61,72,1,19,drügzik,drügzöl,NA,NA,Te bizony sokat drügzöl.,Én is sokat...,drügzök,drügzöm,lakik,-zik,1,PR2054,1985,nő,nem,2022-04-14_08h51.26.785,hesp_baseline,2021.2.3,Win32,59.67655308
,,,,,,,,,,,,,,,,,frágapszok,frágapszom,left,6.165199999,0,62,62,60,1,7,frágapszik,frágapszol,NA,NA,Te bizony sokat frágapszol.,Én is sokat...,frágapszok,frágapszom,lakik,-szik,2,PR2054,1985,nő,nem,2022-04-14_08h51.26.785,hesp_baseline,2021.2.3,Win32,59.67655308
,,,,,,,,,,,,,,,,,flagárzok,flagárzom,left,2.877099998,0,63,63,64,1,11,flagárzik,flagárzol,NA,NA,Te bizony sokat flagárzol.,Én is sokat...,flagárzok,flagárzom,lakik,-zik,2,PR2054,1985,nő,nem,2022-04-14_08h51.26.785,hesp_baseline,2021.2.3,Win32,59.67655308
,,,,,,,,,,,,,,,,,nyizozunk,nyizlunk,left,4.790200001,0,64,64,135,1,28,nyizlik / nyizozik,"nyizlik, nyizozni",ünk,NA,"János imád nyizozni, ezért sokat nyizlik.",Mi ritkán...,nyizlunk,nyizozunk,cselekszik,-lik,1,PR2054,1985,nő,nem,2022-04-14_08h51.26.785,hesp_baseline,2021.2.3,Win32,59.67655308
,,,,,,,,,,,,,,,,,kalhésznak,kalhésznek,left,3.6306,0,65,65,46,1,47,kalhész,kalhész,nak,é,Ez itt egy kalhész.,Elneveztem a kutyámat...,kalhésznek,kalhésznak,dzsungel,NA,NA,PR2054,1985,nő,nem,2022-04-14_08h51.26.785,hesp_baseline,2021.2.3,Win32,59.67655308
,,,,,,,,,,,,,,,,,spatszom,spatszok,right,3.0385,0,66,66,73,1,20,spatszik,spatszol,NA,NA,Te bizony sokat spatszol.,Én is sokat...,spatszok,spatszom,lakik,-szik,1,PR2054,1985,nő,nem,2022-04-14_08h51.26.785,hesp_baseline,2021.2.3,Win32,59.67655308
,,,,,,,,,,,,,,,,,fádensnak,fádensnek,right,3.5105,0,67,67,33,1,34,fádens,fádens,nak,e,Ez itt egy fádens.,Elneveztem a kutyámat...,fádensnek,fádensnak,dzsungel,NA,NA,PR2054,1985,nő,nem,2022-04-14_08h51.26.785,hesp_baseline,2021.2.3,Win32,59.67655308
,,,,,,,,,,,,,,,,,brobódzok,brobódzom,right,6.626200001,0,68,68,96,1,43,brobódzik,brobódzol,NA,NA,Te bizony sokat brobódzol.,Én is sokat...,brobódzok,brobódzom,lakik,-zik,2,PR2054,1985,nő,nem,2022-04-14_08h51.26.785,hesp_baseline,2021.2.3,Win32,59.67655308
,,,,,,,,,,,,,,,,,spélszem,spélszek,right,8.932700001,0,69,69,68,1,15,spélszik,spélszel,NA,NA,Te bizony sokat spélszel.,Én is sokat...,spélszek,spélszem,lakik,-szik,1,PR2054,1985,nő,nem,2022-04-14_08h51.26.785,hesp_baseline,2021.2.3,Win32,59.67655308
,,,,,,,,,,,,,,,,,pivédban,pivédben,right,3.705799999,0,70,70,52,1,53,pivéd,pivéd,ban,é,Ez itt egy pivéd.,Ott vagyunk a...,pivédben,pivédban,dzsungel,NA,NA,PR2054,1985,nő,nem,2022-04-14_08h51.26.785,hesp_baseline,2021.2.3,Win32,59.67655308
,,,,,,,,,,,,,,,,,sihennél,sihennál,left,3.360700001,0,71,71,18,1,19,sihen,sihen,nál,e,Ez itt egy sihen.,Nincs is jobb egy jó...,sihennél,sihennál,dzsungel,NA,NA,PR2054,1985,nő,nem,2022-04-14_08h51.26.785,hesp_baseline,2021.2.3,Win32,59.67655308
,,,,,,,,,,,,,,,,,trihagzom,trihagzok,right,3.9696,0,72,72,83,1,30,trihagzik,trihagzol,NA,NA,Te bizony sokat trihagzol.,Én is sokat...,trihagzok,trihagzom,lakik,-zik,2,PR2054,1985,nő,nem,2022-04-14_08h51.26.785,hesp_baseline,2021.2.3,Win32,59.67655308
,,,,,,,,,,,,,,,,,breseznek,breslenek,left,4.213200001,0,73,73,115,1,8,breslik / bresezik,"breslik, bresezni",nek,NA,"János imád bresezni, ezért sokat breslik.",Ők ritkán...,breslenek,breseznek,cselekszik,-lik,1,PR2054,1985,nő,nem,2022-04-14_08h51.26.785,hesp_baseline,2021.2.3,Win32,59.67655308
,,,,,,,,,,,,,,,,,jutélynál,jutélynél,left,4.249299999,0,74,74,11,1,12,jutély,jutély,nál,é,Ez itt egy jutély.,Nincs is jobb egy jó...,jutélynél,jutélynál,dzsungel,NA,NA,PR2054,1985,nő,nem,2022-04-14_08h51.26.785,hesp_baseline,2021.2.3,Win32,59.67655308
,,,,,,,,,,,,,,,,,naremban,naremben,right,7.177199999,0,75,75,2,1,3,narem,narem,ban,e,Ez itt egy narem.,Ott vagyunk a...,naremben,naremban,dzsungel,NA,NA,PR2054,1985,nő,nem,2022-04-14_08h51.26.785,hesp_baseline,2021.2.3,Win32,59.67655308
,,,,,,,,,,,,,,,,,tránélynek,tránélynak,right,4.515,0,76,76,17,1,18,tránély,tránély,nak,é,Ez itt egy tránély.,Elneveztem a kutyámat...,tránélynek,tránélynak,dzsungel,NA,NA,PR2054,1985,nő,nem,2022-04-14_08h51.26.785,hesp_baseline,2021.2.3,Win32,59.67655308
,,,,,,,,,,,,,,,,,kadérnél,kadérnál,right,3.134700001,0,77,77,7,1,8,kadér,kadér,nál,é,Ez itt egy kadér.,Nincs is jobb egy jó...,kadérnél,kadérnál,dzsungel,NA,NA,PR2054,1985,nő,nem,2022-04-14_08h51.26.785,hesp_baseline,2021.2.3,Win32,59.67655308
,,,,,,,,,,,,,,,,,spilágzom,spilágzok,right,3.7984,0,78,78,76,1,23,spilágzik,spilágzol,NA,NA,Te bizony sokat spilágzol.,Én is sokat...,spilágzok,spilágzom,lakik,-zik,2,PR2054,1985,nő,nem,2022-04-14_08h51.26.785,hesp_baseline,2021.2.3,Win32,59.67655308
,,,,,,,,,,,,,,,,,nuhétnél,nuhétnál,right,5.0956,0,79,79,29,1,30,nuhét,nuhét,nál,é,Ez itt egy nuhét.,Nincs is jobb egy jó...,nuhétnél,nuhétnál,dzsungel,NA,NA,PR2054,1985,nő,nem,2022-04-14_08h51.26.785,hesp_baseline,2021.2.3,Win32,59.67655308
,,,,,,,,,,,,,,,,,pisélyben,pisélyban,left,7.4256,0,80,80,21,1,22,pisély,pisély,ban,é,Ez itt egy pisély.,Ott vagyunk a...,pisélyben,pisélyban,dzsungel,NA,NA,PR2054,1985,nő,nem,2022-04-14_08h51.26.785,hesp_baseline,2021.2.3,Win32,59.67655308
,,,,,,,,,,,,,,,,,vismernál,vismernél,right,2.9155,0,81,81,13,1,14,vismer,vismer,nál,e,Ez itt egy vismer.,Nincs is jobb egy jó...,vismernél,vismernál,dzsungel,NA,NA,PR2054,1985,nő,nem,2022-04-14_08h51.26.785,hesp_baseline,2021.2.3,Win32,59.67655308
,,,,,,,,,,,,,,,,,gyivádzok,gyivádzom,left,3.838800001,0,82,82,87,1,34,gyivádzik,gyivádzol,NA,NA,Te bizony sokat gyivádzol.,Én is sokat...,gyivádzok,gyivádzom,lakik,-zik,2,PR2054,1985,nő,nem,2022-04-14_08h51.26.785,hesp_baseline,2021.2.3,Win32,59.67655308
,,,,,,,,,,,,,,,,,pítszom,pítszok,right,3.260099998,0,83,83,62,1,9,pítszik,pítszol,NA,NA,Te bizony sokat pítszol.,Én is sokat...,pítszok,pítszom,lakik,-szik,1,PR2054,1985,nő,nem,2022-04-14_08h51.26.785,hesp_baseline,2021.2.3,Win32,59.67655308
,,,,,,,,,,,,,,,,,spicetnek,spicetnak,left,4.835699999,0,84,84,35,1,36,spicet,spicet,nak,e,Ez itt egy spicet.,Elneveztem a kutyámat...,spicetnek,spicetnak,dzsungel,NA,NA,PR2054,1985,nő,nem,2022-04-14_08h51.26.785,hesp_baseline,2021.2.3,Win32,59.67655308
,,,,,,,,,,,,,,,,,brigesztnek,brigesztnak,left,3.467900002,0,85,85,48,1,49,brigeszt,brigeszt,nak,e,Ez itt egy brigeszt.,Elneveztem a kutyámat...,brigesztnek,brigesztnak,dzsungel,NA,NA,PR2054,1985,nő,nem,2022-04-14_08h51.26.785,hesp_baseline,2021.2.3,Win32,59.67655308
,,,,,,,,,,,,,,,,,bribaslanak,bribasoznak,right,4.449599998,0,86,86,121,1,14,bribaslik / bribasozik,"bribaslik, bribasozni",nek,NA,"János imád bribasozni, ezért sokat bribaslik.",Ők ritkán...,bribaslanak,bribasoznak,cselekszik,-lik,2,PR2054,1985,nő,nem,2022-04-14_08h51.26.785,hesp_baseline,2021.2.3,Win32,59.67655308
,,,,,,,,,,,,,,,,,kaszépnak,kaszépnek,left,5.712900002,0,87,87,40,1,41,kaszép,kaszép,nak,é,Ez itt egy kaszép.,Elneveztem a kutyámat...,kaszépnek,kaszépnak,dzsungel,NA,NA,PR2054,1985,nő,nem,2022-04-14_08h51.26.785,hesp_baseline,2021.2.3,Win32,59.67655308
,,,,,,,,,,,,,,,,,gihejlünk,gihejezünk,right,4.431700001,0,88,88,146,1,39,gihejlik / gihejezik,"gihejlik, gihejezni",ünk,NA,"János imád gihejezni, ezért sokat gihejlik.",Mi ritkán...,gihejlünk,gihejezünk,cselekszik,-lik,2,PR2054,1985,nő,nem,2022-04-14_08h51.26.785,hesp_baseline,2021.2.3,Win32,59.67655308
,,,,,,,,,,,,,,,,,flözlök,flözlöm,left,3.4475,0,89,89,74,1,21,flözlik,flözlesz,NA,NA,Te bizony sokat flözlesz.,Én is sokat...,flözlök,flözlöm,lakik,-lik,1,PR2054,1985,nő,nem,2022-04-14_08h51.26.785,hesp_baseline,2021.2.3,Win32,59.67655308
,,,,,,,,,,,,,,,,,hóbensben,hóbensban,left,4.9995,0,90,90,3,1,4,hóbens,hóbens,ban,e,Ez itt egy hóbens.,Ott vagyunk a...,hóbensben,hóbensban,dzsungel,NA,NA,PR2054,1985,nő,nem,2022-04-14_08h51.26.785,hesp_baseline,2021.2.3,Win32,59.67655308
,,,,,,,,,,,,,,,,,tivencban,tivencben,right,2.9924,0,91,91,53,1,54,tivenc,tivenc,ban,e,Ez itt egy tivenc.,Ott vagyunk a...,tivencben,tivencban,dzsungel,NA,NA,PR2054,1985,nő,nem,2022-04-14_08h51.26.785,hesp_baseline,2021.2.3,Win32,59.67655308
,,,,,,,,,,,,,,,,,ibáglom,ibáglok,right,3.336800001,0,92,92,88,1,35,ibáglik,ibáglasz,NA,NA,Te bizony sokat ibáglasz.,Én is sokat...,ibáglok,ibáglom,lakik,-lik,2,PR2054,1985,nő,nem,2022-04-14_08h51.26.785,hesp_baseline,2021.2.3,Win32,59.67655308
,,,,,,,,,,,,,,,,,spihemlek,spihemlem,left,3.821299999,0,93,93,94,1,41,spihemlik,spihemlesz,NA,NA,Te bizony sokat spihemlesz.,Én is sokat...,spihemlek,spihemlem,lakik,-lik,2,PR2054,1985,nő,nem,2022-04-14_08h51.26.785,hesp_baseline,2021.2.3,Win32,59.67655308
,,,,,,,,,,,,,,,,,préleglem,préleglek,right,3.3065,0,94,94,104,1,51,préleglik,préleglesz,NA,NA,Te bizony sokat préleglesz.,Én is sokat...,préleglek,préleglem,lakik,-lik,2,PR2054,1985,nő,nem,2022-04-14_08h51.26.785,hesp_baseline,2021.2.3,Win32,59.67655308
,,,,,,,,,,,,,,,,,hosétnek,hosétnak,right,3.7895,0,95,95,8,1,9,hosét,hosét,nak,é,Ez itt egy hosét.,Elneveztem a kutyámat...,hosétnek,hosétnak,dzsungel,NA,NA,PR2054,1985,nő,nem,2022-04-14_08h51.26.785,hesp_baseline,2021.2.3,Win32,59.67655308
,,,,,,,,,,,,,,,,,gyibeslem,gyibeslek,right,3.489800001,0,96,96,98,1,45,gyibeslik,gyibeslesz,NA,NA,Te bizony sokat gyibeslesz.,Én is sokat...,gyibeslek,gyibeslem,lakik,-lik,2,PR2054,1985,nő,nem,2022-04-14_08h51.26.785,hesp_baseline,2021.2.3,Win32,59.67655308
,,,,,,,,,,,,,,,,,flivegeznek,flivegzenek,left,4.6531,0,97,97,138,1,31,flivegzik / flivegezik,"flivegzik, flivegezni",nek,NA,"János imád flivegezni, ezért sokat flivegzik.",Ők ritkán...,flivegzenek,flivegeznek,cselekszik,-zik,2,PR2054,1985,nő,nem,2022-04-14_08h51.26.785,hesp_baseline,2021.2.3,Win32,59.67655308
,,,,,,,,,,,,,,,,,bölszöm,bölszök,left,8.266700001,0,98,98,105,1,52,bölszik,bölszöl,NA,NA,Te bizony sokat bölszöl.,Én is sokat...,bölszök,bölszöm,lakik,-szik,1,PR2054,1985,nő,nem,2022-04-14_08h51.26.785,hesp_baseline,2021.2.3,Win32,59.67655308
,,,,,,,,,,,,,,,,,szibánylok,szibánylom,left,4.1479,0,99,99,67,1,14,szibánylik,szibánylasz,NA,NA,Te bizony sokat szibánylasz.,Én is sokat...,szibánylok,szibánylom,lakik,-lik,2,PR2054,1985,nő,nem,2022-04-14_08h51.26.785,hesp_baseline,2021.2.3,Win32,59.67655308
,,,,,,,,,,,,,,,,,pugoslok,pugoslom,left,3.536799999,0,100,100,84,1,31,pugoslik,pugoslasz,NA,NA,Te bizony sokat pugoslasz.,Én is sokat...,pugoslok,pugoslom,lakik,-lik,2,PR2054,1985,nő,nem,2022-04-14_08h51.26.785,hesp_baseline,2021.2.3,Win32,59.67655308
,,,,,,,,,,,,,,,,,gonszéknál,gonszéknél,right,6.878200001,0,101,101,38,1,39,gonszék,gonszék,nál,é,Ez itt egy gonszék.,Nincs is jobb egy jó...,gonszéknél,gonszéknál,dzsungel,NA,NA,PR2054,1985,nő,nem,2022-04-14_08h51.26.785,hesp_baseline,2021.2.3,Win32,59.67655308
,,,,,,,,,,,,,,,,,brubzom,brubzok,right,4.6994,0,102,102,92,1,39,brubzik,brubzol,NA,NA,Te bizony sokat brubzol.,Én is sokat...,brubzok,brubzom,lakik,-zik,1,PR2054,1985,nő,nem,2022-04-14_08h51.26.785,hesp_baseline,2021.2.3,Win32,59.67655308
,,,,,,,,,,,,,,,,,narádzok,narádzom,left,3.5016,0,103,103,63,1,10,narádzik,narádzol,NA,NA,Te bizony sokat narádzol.,Én is sokat...,narádzok,narádzom,lakik,-zik,2,PR2054,1985,nő,nem,2022-04-14_08h51.26.785,hesp_baseline,2021.2.3,Win32,59.67655308
,,,,,,,,,,,,,,,,,frélegezünk,frélegzünk,right,6.4584,0,104,104,147,1,40,frélegzik / frélegezik,"frélegzik, frélegezni",ünk,NA,"János imád frélegezni, ezért sokat frélegzik.",Mi ritkán...,frélegzünk,frélegezünk,cselekszik,-zik,2,PR2054,1985,nő,nem,2022-04-14_08h51.26.785,hesp_baseline,2021.2.3,Win32,59.67655308
,,,,,,,,,,,,,,,,,dábegyben,dábegyban,right,4.6736,0,105,105,6,1,7,dábegy,dábegy,ban,e,Ez itt egy dábegy.,Ott vagyunk a...,dábegyben,dábegyban,dzsungel,NA,NA,PR2054,1985,nő,nem,2022-04-14_08h51.26.785,hesp_baseline,2021.2.3,Win32,59.67655308
,,,,,,,,,,,,,,,,,vilakszom,vilakszok,left,5.6285,0,106,106,97,1,44,vilakszik,vilakszol,NA,NA,Te bizony sokat vilakszol.,Én is sokat...,vilakszok,vilakszom,lakik,-szik,2,PR2054,1985,nő,nem,2022-04-14_08h51.26.785,hesp_baseline,2021.2.3,Win32,59.67655308
,,,,,,,,,,,,,,,,,nyülöklenek,nyülököznek,left,6.1791,0,107,107,108,1,1,nyülöklik / nyülöközik,"nyülöklik, nyülöközni",nek,NA,"János imád nyülöközni, ezért sokat nyülöklik.",Ők ritkán...,nyülöklenek,nyülököznek,cselekszik,-lik,2,PR2054,1985,nő,nem,2022-04-14_08h51.26.785,hesp_baseline,2021.2.3,Win32,59.67655308
,,,,,,,,,,,,,,,,,nyivágozunk,nyivágzunk,right,5.5546,0,108,108,113,1,6,nyivágzik / nyivágozik,"nyivágzik, nyivágozni",ünk,NA,"János imád nyivágozni, ezért sokat nyivágzik.",Mi ritkán...,nyivágzunk,nyivágozunk,cselekszik,-zik,2,PR2054,1985,nő,nem,2022-04-14_08h51.26.785,hesp_baseline,2021.2.3,Win32,59.67655308
,,,,,,,,,,,,,,,,,frirzunk,frirozunk,right,5.340900002,0,109,109,129,1,22,frirzik / frirozik,"frirzik, frirozni",ünk,NA,"János imád frirozni, ezért sokat frirzik.",Mi ritkán...,frirzunk,frirozunk,cselekszik,-zik,1,PR2054,1985,nő,nem,2022-04-14_08h51.26.785,hesp_baseline,2021.2.3,Win32,59.67655308
,,,,,,,,,,,,,,,,,prögzötök,prögöztök,right,7.565799999,0,110,110,151,1,44,prögzik / prögözik,"prögzik, prögözni",tek,NA,"János imád prögözni, ezért sokat prögzik.",Ti ritkán...,prögzötök,prögöztök,cselekszik,-zik,1,PR2054,1985,nő,nem,2022-04-14_08h51.26.785,hesp_baseline,2021.2.3,Win32,59.67655308
,,,,,,,,,,,,,,,,,klihaslotok,klihasoztok,right,6.9656,0,111,111,156,1,49,klihaslik / klihasozik,"klihaslik, klihasozni",tek,NA,"János imád klihasozni, ezért sokat klihaslik.",Ti ritkán...,klihaslotok,klihasoztok,cselekszik,-lik,2,PR2054,1985,nő,nem,2022-04-14_08h51.26.785,hesp_baseline,2021.2.3,Win32,59.67655308
,,,,,,,,,,,,,,,,,priszkencnak,priszkencnek,right,4.423299999,0,112,112,20,1,21,priszkenc,priszkenc,nak,e,Ez itt egy priszkenc.,Elneveztem a kutyámat...,priszkencnek,priszkencnak,dzsungel,NA,NA,PR2054,1985,nő,nem,2022-04-14_08h51.26.785,hesp_baseline,2021.2.3,Win32,59.67655308
,,,,,,,,,,,,,,,,,bügzenek,bügöznek,right,3.819,0,113,113,118,1,11,bügzik / bügözik,"bügzik, bügözni",nek,NA,"János imád bügözni, ezért sokat bügzik.",Ők ritkán...,bügzenek,bügöznek,cselekszik,-zik,1,PR2054,1985,nő,nem,2022-04-14_08h51.26.785,hesp_baseline,2021.2.3,Win32,59.67655308
,,,,,,,,,,,,,,,,,darhénban,darhénben,left,4.608,0,114,114,27,1,28,darhén,darhén,ban,é,Ez itt egy darhén.,Ott vagyunk a...,darhénben,darhénban,dzsungel,NA,NA,PR2054,1985,nő,nem,2022-04-14_08h51.26.785,hesp_baseline,2021.2.3,Win32,59.67655308
,,,,,,,,,,,,,,,,,lörűdzök,lörűdzöm,left,3.5515,0,115,115,77,1,24,lörűdzik,lörűdzöl,NA,NA,Te bizony sokat lörűdzöl.,Én is sokat...,lörűdzök,lörűdzöm,lakik,-zik,2,PR2054,1985,nő,nem,2022-04-14_08h51.26.785,hesp_baseline,2021.2.3,Win32,59.67655308
,,,,,,,,,,,,,,,,,tágarozunk,tágarzunk,left,5.6811,0,116,116,155,1,48,tágarzik / tágarozik,"tágarzik, tágarozni",ünk,NA,"János imád tágarozni, ezért sokat tágarzik.",Mi ritkán...,tágarzunk,tágarozunk,cselekszik,-zik,2,PR2054,1985,nő,nem,2022-04-14_08h51.26.785,hesp_baseline,2021.2.3,Win32,59.67655308
,,,,,,,,,,,,,,,,,jalrénynál,jalrénynél,right,4.818700001,0,117,117,0,1,1,jalrény,jalrény,nál,é,Ez itt egy jalrény.,Nincs is jobb egy jó...,jalrénynél,jalrénynál,dzsungel,NA,NA,PR2054,1985,nő,nem,2022-04-14_08h51.26.785,hesp_baseline,2021.2.3,Win32,59.67655308
,,,,,,,,,,,,,,,,,jüslök,jüslöm,left,2.6895,0,118,118,56,1,3,jüslik,jüslesz,NA,NA,Te bizony sokat jüslesz.,Én is sokat...,jüslök,jüslöm,lakik,-lik,1,PR2054,1985,nő,nem,2022-04-14_08h51.26.785,hesp_baseline,2021.2.3,Win32,59.67655308
,,,,,,,,,,,,,,,,,mádépnál,mádépnél,left,5.1641,0,119,119,1,1,2,mádép,mádép,nál,é,Ez itt egy mádép.,Nincs is jobb egy jó...,mádépnél,mádépnál,dzsungel,NA,NA,PR2054,1985,nő,nem,2022-04-14_08h51.26.785,hesp_baseline,2021.2.3,Win32,59.67655308
,,,,,,,,,,,,,,,,,prilegzem,prilegzek,right,2.738699999,0,120,120,79,1,26,prilegzik,prilegzel,NA,NA,Te bizony sokat prilegzel.,Én is sokat...,prilegzek,prilegzem,lakik,-zik,2,PR2054,1985,nő,nem,2022-04-14_08h51.26.785,hesp_baseline,2021.2.3,Win32,59.67655308
,,,,,,,,,,,,,,,,,plövőrzöm,plövőrzök,right,3.1746,0,121,121,58,1,5,plövőrzik,plövőrzöl,NA,NA,Te bizony sokat plövőrzöl.,Én is sokat...,plövőrzök,plövőrzöm,lakik,-zik,2,PR2054,1985,nő,nem,2022-04-14_08h51.26.785,hesp_baseline,2021.2.3,Win32,59.67655308
,,,,,,,,,,,,,,,,,drűröznek,drűrzenek,left,6.408,0,122,122,126,1,19,drűrzik / drűrözik,"drűrzik, drűrözni",nek,NA,"János imád drűrözni, ezért sokat drűrzik.",Ők ritkán...,drűrzenek,drűröznek,cselekszik,-zik,1,PR2054,1985,nő,nem,2022-04-14_08h51.26.785,hesp_baseline,2021.2.3,Win32,59.67655308
,,,,,,,,,,,,,,,,,tragzom,tragzok,left,4.467,0,123,123,90,1,37,tragzik,tragzol,NA,NA,Te bizony sokat tragzol.,Én is sokat...,tragzok,tragzom,lakik,-zik,1,PR2054,1985,nő,nem,2022-04-14_08h51.26.785,hesp_baseline,2021.2.3,Win32,59.67655308
,,,,,,,,,,,,,,,,,hiragzanak,hiragoznak,right,4.4176,0,124,124,119,1,12,hiragzik / hiragozik,"hiragzik, hiragozni",nek,NA,"János imád hiragozni, ezért sokat hiragzik.",Ők ritkán...,hiragzanak,hiragoznak,cselekszik,-zik,2,PR2054,1985,nő,nem,2022-04-14_08h51.26.785,hesp_baseline,2021.2.3,Win32,59.67655308
,,,,,,,,,,,,,,,,,bejezünk,bejzünk,left,8.5106,0,125,125,148,1,41,bejzik / bejezik,"bejzik, bejezni",ünk,NA,"János imád bejezni, ezért sokat bejzik.",Mi ritkán...,bejzünk,bejezünk,cselekszik,-zik,1,PR2054,1985,nő,nem,2022-04-14_08h51.26.785,hesp_baseline,2021.2.3,Win32,59.67655308
,,,,,,,,,,,,,,,,,jorzégnek,jorzégnak,left,4.032799999,0,126,126,45,1,46,jorzég,jorzég,nak,é,Ez itt egy jorzég.,Elneveztem a kutyámat...,jorzégnek,jorzégnak,dzsungel,NA,NA,PR2054,1985,nő,nem,2022-04-14_08h51.26.785,hesp_baseline,2021.2.3,Win32,59.67655308
,,,,,,,,,,,,,,,,,feténylem,feténylek,right,3.6909,0,127,127,85,1,32,feténylik,feténylesz,NA,NA,Te bizony sokat feténylesz.,Én is sokat...,feténylek,feténylem,lakik,-lik,2,PR2054,1985,nő,nem,2022-04-14_08h51.26.785,hesp_baseline,2021.2.3,Win32,59.67655308
,,,,,,,,,,,,,,,,,mísozunk,míslunk,left,4.533599998,0,128,128,123,1,16,míslik / mísozik,"míslik, mísozni",ünk,NA,"János imád mísozni, ezért sokat míslik.",Mi ritkán...,míslunk,mísozunk,cselekszik,-lik,1,PR2054,1985,nő,nem,2022-04-14_08h51.26.785,hesp_baseline,2021.2.3,Win32,59.67655308
,,,,,,,,,,,,,,,,,spibaklom,spibaklok,left,6.352699999,0,129,129,55,1,2,spibaklik,spibaklasz,NA,NA,Te bizony sokat spibaklasz.,Én is sokat...,spibaklok,spibaklom,lakik,-lik,2,PR2054,1985,nő,nem,2022-04-14_08h51.26.785,hesp_baseline,2021.2.3,Win32,59.67655308
,,,,,,,,,,,,,,,,,püzlötök,püzöztök,right,4.464199999,0,130,130,152,1,45,püzlik / püzözik,"püzlik, püzözni",tek,NA,"János imád püzözni, ezért sokat püzlik.",Ti ritkán...,püzlötök,püzöztök,cselekszik,-lik,1,PR2054,1985,nő,nem,2022-04-14_08h51.26.785,hesp_baseline,2021.2.3,Win32,59.67655308
,,,,,,,,,,,,,,,,,vihapodunk,vihapszunk,right,5.951200001,0,131,131,112,1,5,vihapszik / vihapodik,"vihapszik, vihapodni",ünk,NA,"János imád vihapodni, ezért sokat vihapszik.",Mi ritkán...,vihapszunk,vihapodunk,cselekszik,-szik,2,PR2054,1985,nő,nem,2022-04-14_08h51.26.785,hesp_baseline,2021.2.3,Win32,59.67655308
,,,,,,,,,,,,,,,,,frakozunk,fraklunk,left,6.538799999,0,132,132,159,1,52,fraklik / frakozik,"fraklik, frakozni",ünk,NA,"János imád frakozni, ezért sokat fraklik.",Mi ritkán...,fraklunk,frakozunk,cselekszik,-lik,1,PR2054,1985,nő,nem,2022-04-14_08h51.26.785,hesp_baseline,2021.2.3,Win32,59.67655308
,,,,,,,,,,,,,,,,,aglom,aglok,left,5.8794,0,133,133,100,1,47,aglik,aglasz,NA,NA,Te bizony sokat aglasz.,Én is sokat...,aglok,aglom,lakik,-lik,1,PR2054,1985,nő,nem,2022-04-14_08h51.26.785,hesp_baseline,2021.2.3,Win32,59.67655308
,,,,,,,,,,,,,,,,,tarhézben,tarhézban,right,3.814699999,0,134,134,25,1,26,tarhéz,tarhéz,ban,é,Ez itt egy tarhéz.,Ott vagyunk a...,tarhézben,tarhézban,dzsungel,NA,NA,PR2054,1985,nő,nem,2022-04-14_08h51.26.785,hesp_baseline,2021.2.3,Win32,59.67655308
,,,,,,,,,,,,,,,,,flérlek,flérlem,left,4.7509,0,135,135,89,1,36,flérlik,flérlesz,NA,NA,Te bizony sokat flérlesz.,Én is sokat...,flérlek,flérlem,lakik,-lik,1,PR2054,1985,nő,nem,2022-04-14_08h51.26.785,hesp_baseline,2021.2.3,Win32,59.67655308
,,,,,,,,,,,,,,,,,incéjnak,incéjnek,right,3.4374,0,136,136,30,1,31,incéj,incéj,nak,é,Ez itt egy incéj.,Elneveztem a kutyámat...,incéjnek,incéjnak,dzsungel,NA,NA,PR2054,1985,nő,nem,2022-04-14_08h51.26.785,hesp_baseline,2021.2.3,Win32,59.67655308
,,,,,,,,,,,,,,,,,monvegnál,monvegnél,right,3.1855,0,137,137,26,1,27,monveg,monveg,nál,e,Ez itt egy monveg.,Nincs is jobb egy jó...,monvegnél,monvegnál,dzsungel,NA,NA,PR2054,1985,nő,nem,2022-04-14_08h51.26.785,hesp_baseline,2021.2.3,Win32,59.67655308
,,,,,,,,,,,,,,,,,vülődzöm,vülődzök,right,6.186099998,0,138,138,81,1,28,vülődzik,vülődzöl,NA,NA,Te bizony sokat vülődzöl.,Én is sokat...,vülődzök,vülődzöm,lakik,-zik,2,PR2054,1985,nő,nem,2022-04-14_08h51.26.785,hesp_baseline,2021.2.3,Win32,59.67655308
,,,,,,,,,,,,,,,,,vodépnek,vodépnak,left,2.9441,0,139,139,41,1,42,vodép,vodép,nak,é,Ez itt egy vodép.,Elneveztem a kutyámat...,vodépnek,vodépnak,dzsungel,NA,NA,PR2054,1985,nő,nem,2022-04-14_08h51.26.785,hesp_baseline,2021.2.3,Win32,59.67655308
,,,,,,,,,,,,,,,,,spéslem,spéslek,right,4.6834,0,140,140,93,1,40,spéslik,spéslesz,NA,NA,Te bizony sokat spéslesz.,Én is sokat...,spéslek,spéslem,lakik,-lik,1,PR2054,1985,nő,nem,2022-04-14_08h51.26.785,hesp_baseline,2021.2.3,Win32,59.67655308
,,,,,,,,,,,,,,,,,dunkészban,dunkészben,right,4.679,0,141,141,24,1,25,dunkész,dunkész,ban,é,Ez itt egy dunkész.,Ott vagyunk a...,dunkészben,dunkészban,dzsungel,NA,NA,PR2054,1985,nő,nem,2022-04-14_08h51.26.785,hesp_baseline,2021.2.3,Win32,59.67655308
,,,,,,,,,,,,,,,,,málapszom,málapszok,right,3.318799999,0,142,142,66,1,13,málapszik,málapszol,NA,NA,Te bizony sokat málapszol.,Én is sokat...,málapszok,málapszom,lakik,-szik,2,PR2054,1985,nő,nem,2022-04-14_08h51.26.785,hesp_baseline,2021.2.3,Win32,59.67655308
,,,,,,,,,,,,,,,,,szibedban,szibedben,right,3.522199999,0,143,143,47,1,48,szibed,szibed,ban,e,Ez itt egy szibed.,Ott vagyunk a...,szibedben,szibedban,dzsungel,NA,NA,PR2054,1985,nő,nem,2022-04-14_08h51.26.785,hesp_baseline,2021.2.3,Win32,59.67655308
,,,,,,,,,,,,,,,,,bregzünk,bregezünk,right,3.9809,0,144,144,139,1,32,bregzik / bregezik,"bregzik, bregezni",ünk,NA,"János imád bregezni, ezért sokat bregzik.",Mi ritkán...,bregzünk,bregezünk,cselekszik,-zik,1,PR2054,1985,nő,nem,2022-04-14_08h51.26.785,hesp_baseline,2021.2.3,Win32,59.67655308
,,,,,,,,,,,,,,,,,huklok,huklom,right,6.6944,0,145,145,78,1,25,huklik,huklasz,NA,NA,Te bizony sokat huklasz.,Én is sokat...,huklok,huklom,lakik,-lik,1,PR2054,1985,nő,nem,2022-04-14_08h51.26.785,hesp_baseline,2021.2.3,Win32,59.67655308
,,,,,,,,,,,,,,,,,prélemeznek,prélemlenek,left,6.828299999,0,146,146,110,1,3,prélemlik / prélemezik,"prélemlik, prélemezni",nek,NA,"János imád prélemezni, ezért sokat prélemlik.",Ők ritkán...,prélemlenek,prélemeznek,cselekszik,-lik,2,PR2054,1985,nő,nem,2022-04-14_08h51.26.785,hesp_baseline,2021.2.3,Win32,59.67655308
,,,,,,,,,,,,,,,,,dajrensnál,dajrensnél,right,4.3089,0,147,147,49,1,50,dajrens,dajrens,nál,e,Ez itt egy dajrens.,Nincs is jobb egy jó...,dajrensnél,dajrensnál,dzsungel,NA,NA,PR2054,1985,nő,nem,2022-04-14_08h51.26.785,hesp_baseline,2021.2.3,Win32,59.67655308
,,,,,,,,,,,,,,,,,fágyépnél,fágyépnál,right,6.8856,0,148,148,10,1,11,fágyép,fágyép,nál,é,Ez itt egy fágyép.,Nincs is jobb egy jó...,fágyépnél,fágyépnál,dzsungel,NA,NA,PR2054,1985,nő,nem,2022-04-14_08h51.26.785,hesp_baseline,2021.2.3,Win32,59.67655308
,,,,,,,,,,,,,,,,,spivejeznek,spivejlenek,left,5.1546,0,149,149,125,1,18,spivejlik / spivejezik,"spivejlik, spivejezni",nek,NA,"János imád spivejezni, ezért sokat spivejlik.",Ők ritkán...,spivejlenek,spivejeznek,cselekszik,-lik,2,PR2054,1985,nő,nem,2022-04-14_08h51.26.785,hesp_baseline,2021.2.3,Win32,59.67655308
,,,,,,,,,,,,,,,,,píjlom,píjlok,right,2.9389,0,150,150,75,1,22,píjlik,píjlasz,NA,NA,Te bizony sokat píjlasz.,Én is sokat...,píjlok,píjlom,lakik,-lik,1,PR2054,1985,nő,nem,2022-04-14_08h51.26.785,hesp_baseline,2021.2.3,Win32,59.67655308
,,,,,,,,,,,,,,,,,csublényban,csublényben,left,6.745,0,151,151,16,1,17,csublény,csublény,ban,é,Ez itt egy csublény.,Ott vagyunk a...,csublényben,csublényban,dzsungel,NA,NA,PR2054,1985,nő,nem,2022-04-14_08h51.26.785,hesp_baseline,2021.2.3,Win32,59.67655308
,,,,,,,,,,,,,,,,,sprudlunk,sprudozunk,right,3.5181,0,152,152,136,1,29,sprudlik / sprudozik,"sprudlik, sprudozni",ünk,NA,"János imád sprudozni, ezért sokat sprudlik.",Mi ritkán...,sprudlunk,sprudozunk,cselekszik,-lik,1,PR2054,1985,nő,nem,2022-04-14_08h51.26.785,hesp_baseline,2021.2.3,Win32,59.67655308
,,,,,,,,,,,,,,,,,spűmlök,spűmlöm,left,3.1029,0,153,153,86,1,33,spűmlik,spűmlesz,NA,NA,Te bizony sokat spűmlesz.,Én is sokat...,spűmlök,spűmlöm,lakik,-lik,1,PR2054,1985,nő,nem,2022-04-14_08h51.26.785,hesp_baseline,2021.2.3,Win32,59.67655308
,,,,,,,,,,,,,,,,,dutecnál,dutecnél,right,6.815699999,0,154,154,22,1,23,dutec,dutec,nál,e,Ez itt egy dutec.,Nincs is jobb egy jó...,dutecnél,dutecnál,dzsungel,NA,NA,PR2054,1985,nő,nem,2022-04-14_08h51.26.785,hesp_baseline,2021.2.3,Win32,59.67655308
,,,,,,,,,,,,,,,,,sprimozunk,sprimlunk,left,3.974299999,0,155,155,127,1,20,sprimlik / sprimozik,"sprimlik, sprimozni",ünk,NA,"János imád sprimozni, ezért sokat sprimlik.",Mi ritkán...,sprimlunk,sprimozunk,cselekszik,-lik,1,PR2054,1985,nő,nem,2022-04-14_08h51.26.785,hesp_baseline,2021.2.3,Win32,59.67655308
,,,,,,,,,,,,,,,,,csarténynak,csarténynek,left,4.391,0,156,156,36,1,37,csartény,csartény,nak,é,Ez itt egy csartény.,Elneveztem a kutyámat...,csarténynek,csarténynak,dzsungel,NA,NA,PR2054,1985,nő,nem,2022-04-14_08h51.26.785,hesp_baseline,2021.2.3,Win32,59.67655308
,,,,,,,,,,,,,,,,,küsözünk,küslünk,left,3.438800001,0,157,157,141,1,34,küslik / küsözik,"küslik, küsözni",ünk,NA,"János imád küsözni, ezért sokat küslik.",Mi ritkán...,küslünk,küsözünk,cselekszik,-lik,1,PR2054,1985,nő,nem,2022-04-14_08h51.26.785,hesp_baseline,2021.2.3,Win32,59.67655308
,,,,,,,,,,,,,,,,,spábétban,spábétben,left,3.6326,0,158,158,51,1,52,spábét,spábét,ban,é,Ez itt egy spábét.,Ott vagyunk a...,spábétben,spábétban,dzsungel,NA,NA,PR2054,1985,nő,nem,2022-04-14_08h51.26.785,hesp_baseline,2021.2.3,Win32,59.67655308
,,,,,,,,,,,,,,,,,livaklom,livaklok,left,2.549900002,0,159,159,82,1,29,livaklik,livaklasz,NA,NA,Te bizony sokat livaklasz.,Én is sokat...,livaklok,livaklom,lakik,-lik,2,PR2054,1985,nő,nem,2022-04-14_08h51.26.785,hesp_baseline,2021.2.3,Win32,59.67655308
,,,,,,,,,,,,,,,,,matézban,matézben,left,3.2845,0,160,160,37,1,38,matéz,matéz,ban,é,Ez itt egy matéz.,Ott vagyunk a...,matézben,matézban,dzsungel,NA,NA,PR2054,1985,nő,nem,2022-04-14_08h51.26.785,hesp_baseline,2021.2.3,Win32,59.67655308
,,,,,,,,,,,,,,,,,jukélnél,jukélnál,right,9.091,0,161,161,42,1,43,jukél,jukél,nál,é,Ez itt egy jukél.,Nincs is jobb egy jó...,jukélnél,jukélnál,dzsungel,NA,NA,PR2054,1985,nő,nem,2022-04-14_08h51.26.785,hesp_baseline,2021.2.3,Win32,59.67655308
