my_list,key.keys,key.rt,key_2.keys,key_2.rt,keyboard_input_2.keys,keyboard_input_2.rt,key_3.keys,key_3.rt,keyboard_input_3.keys,keyboard_input_3.rt,key_4.keys,key_4.rt,keyboard_input_4.keys,keyboard_input_4.rt,key_5.keys,key_5.rt,my_button1,my_button2,keyboard_input.keys,keyboard_input.rt,withinBlock.thisRepN,withinBlock.thisTrialN,withinBlock.thisN,withinBlock.thisIndex,withinBlock.ran,rowname,word,prompt,suffix,vowel,carrier_sentence,target_sentence,target1,target2,category,derivational,nsyl,Azonosító,Melyik évben születtél?,Mi a nemed?,Tanultál nyelvészetet?,date,expName,psychopyVersion,OS,frameRate
list1.csv,space,26.4222,space,6.5521,right,5.6387,space,13.0252,left,4.8576,space,8.5229,left,6.073,space,14.6082,nyivágozunk,nyivágzunk,right,9.1683,0,0,0,113,1,6,nyivágzik / nyivágozik,"nyivágzik, nyivágozni",ünk,NA,"János imád nyivágozni, ezért sokat nyivágzik.",Mi ritkán...,nyivágzunk,nyivágozunk,cselekszik,-zik,2,PR2080,1991,nő,igen,2022-04-19_13h43.49.136,hesp_baseline,2021.2.3,Linux x86_64,59.99880002
,,,,,,,,,,,,,,,,,gyivepszenek,gyivepednek,left,14.9333,0,1,1,160,1,53,gyivepszik / gyivepedik,"gyivepszik, gyivepedni",nek,NA,"János imád gyivepedni, ezért sokat gyivepszik.",Ők ritkán...,gyivepszenek,gyivepednek,cselekszik,-szik,2,PR2080,1991,nő,igen,2022-04-19_13h43.49.136,hesp_baseline,2021.2.3,Linux x86_64,59.99880002
,,,,,,,,,,,,,,,,,pliboztok,plibzotok,right,25.1863,0,2,2,140,1,33,plibzik / plibozik,"plibzik, plibozni",tek,NA,"János imád plibozni, ezért sokat plibzik.",Ti ritkán...,plibzotok,pliboztok,cselekszik,-zik,1,PR2080,1991,nő,igen,2022-04-19_13h43.49.136,hesp_baseline,2021.2.3,Linux x86_64,59.99880002
,,,,,,,,,,,,,,,,,fádensnak,fádensnek,right,6.9805,0,3,3,33,1,34,fádens,fádens,nak,e,Ez itt egy fádens.,Elneveztem a kutyámat...,fádensnek,fádensnak,dzsungel,NA,NA,PR2080,1991,nő,igen,2022-04-19_13h43.49.136,hesp_baseline,2021.2.3,Linux x86_64,59.99880002
,,,,,,,,,,,,,,,,,kűdöznek,kűdlenek,right,9.8327,0,4,4,142,1,35,kűdlik / kűdözik,"kűdlik, kűdözni",nek,NA,"János imád kűdözni, ezért sokat kűdlik.",Ők ritkán...,kűdlenek,kűdöznek,cselekszik,-lik,1,PR2080,1991,nő,igen,2022-04-19_13h43.49.136,hesp_baseline,2021.2.3,Linux x86_64,59.99880002
,,,,,,,,,,,,,,,,,bralképben,bralképban,left,7.8262,0,5,5,12,1,13,bralkép,bralkép,ban,é,Ez itt egy bralkép.,Ott vagyunk a...,bralképben,bralképban,dzsungel,NA,NA,PR2080,1991,nő,igen,2022-04-19_13h43.49.136,hesp_baseline,2021.2.3,Linux x86_64,59.99880002
,,,,,,,,,,,,,,,,,filágzom,filágzok,left,14.1592,0,6,6,102,1,49,filágzik,filágzol,NA,NA,Te bizony sokat filágzol.,Én is sokat...,filágzok,filágzom,lakik,-zik,2,PR2080,1991,nő,igen,2022-04-19_13h43.49.136,hesp_baseline,2021.2.3,Linux x86_64,59.99880002
,,,,,,,,,,,,,,,,,píjlok,píjlom,right,17.2835,0,7,7,75,1,22,píjlik,píjlasz,NA,NA,Te bizony sokat píjlasz.,Én is sokat...,píjlok,píjlom,lakik,-lik,1,PR2080,1991,nő,igen,2022-04-19_13h43.49.136,hesp_baseline,2021.2.3,Linux x86_64,59.99880002
,,,,,,,,,,,,,,,,,plűbzök,plűbzöm,left,12.4228,0,8,8,107,1,54,plűbzik,plűbzöl,NA,NA,Te bizony sokat plűbzöl.,Én is sokat...,plűbzök,plűbzöm,lakik,-zik,1,PR2080,1991,nő,igen,2022-04-19_13h43.49.136,hesp_baseline,2021.2.3,Linux x86_64,59.99880002
,,,,,,,,,,,,,,,,,naremben,naremban,left,4.4302,0,9,9,2,1,3,narem,narem,ban,e,Ez itt egy narem.,Ott vagyunk a...,naremben,naremban,dzsungel,NA,NA,PR2080,1991,nő,igen,2022-04-19_13h43.49.136,hesp_baseline,2021.2.3,Linux x86_64,59.99880002
,,,,,,,,,,,,,,,,,sihennél,sihennál,left,4.0171,0,10,10,18,1,19,sihen,sihen,nál,e,Ez itt egy sihen.,Nincs is jobb egy jó...,sihennél,sihennál,dzsungel,NA,NA,PR2080,1991,nő,igen,2022-04-19_13h43.49.136,hesp_baseline,2021.2.3,Linux x86_64,59.99880002
,,,,,,,,,,,,,,,,,vilakszok,vilakszom,right,8.7143,0,11,11,97,1,44,vilakszik,vilakszol,NA,NA,Te bizony sokat vilakszol.,Én is sokat...,vilakszok,vilakszom,lakik,-szik,2,PR2080,1991,nő,igen,2022-04-19_13h43.49.136,hesp_baseline,2021.2.3,Linux x86_64,59.99880002
,,,,,,,,,,,,,,,,,klörlöm,klörlök,right,6.6716,0,12,12,80,1,27,klörlik,klörlesz,NA,NA,Te bizony sokat klörlesz.,Én is sokat...,klörlök,klörlöm,lakik,-lik,1,PR2080,1991,nő,igen,2022-04-19_13h43.49.136,hesp_baseline,2021.2.3,Linux x86_64,59.99880002
,,,,,,,,,,,,,,,,,gyibeslek,gyibeslem,right,21.1214,0,13,13,98,1,45,gyibeslik,gyibeslesz,NA,NA,Te bizony sokat gyibeslesz.,Én is sokat...,gyibeslek,gyibeslem,lakik,-lik,2,PR2080,1991,nő,igen,2022-04-19_13h43.49.136,hesp_baseline,2021.2.3,Linux x86_64,59.99880002
,,,,,,,,,,,,,,,,,brözöztök,brözlötök,right,12.6254,0,14,14,145,1,38,brözlik / brözözik,"brözlik, brözözni",tek,NA,"János imád brözözni, ezért sokat brözlik.",Ti ritkán...,brözlötök,brözöztök,cselekszik,-lik,1,PR2080,1991,nő,igen,2022-04-19_13h43.49.136,hesp_baseline,2021.2.3,Linux x86_64,59.99880002
,,,,,,,,,,,,,,,,,pivédben,pivédban,left,2.8555,0,15,15,52,1,53,pivéd,pivéd,ban,é,Ez itt egy pivéd.,Ott vagyunk a...,pivédben,pivédban,dzsungel,NA,NA,PR2080,1991,nő,igen,2022-04-19_13h43.49.136,hesp_baseline,2021.2.3,Linux x86_64,59.99880002
,,,,,,,,,,,,,,,,,brigesztnak,brigesztnek,right,5.2639,0,16,16,48,1,49,brigeszt,brigeszt,nak,e,Ez itt egy brigeszt.,Elneveztem a kutyámat...,brigesztnek,brigesztnak,dzsungel,NA,NA,PR2080,1991,nő,igen,2022-04-19_13h43.49.136,hesp_baseline,2021.2.3,Linux x86_64,59.99880002
,,,,,,,,,,,,,,,,,lorzensnál,lorzensnél,right,4.4547,0,17,17,34,1,35,lorzens,lorzens,nál,e,Ez itt egy lorzens.,Nincs is jobb egy jó...,lorzensnél,lorzensnál,dzsungel,NA,NA,PR2080,1991,nő,igen,2022-04-19_13h43.49.136,hesp_baseline,2021.2.3,Linux x86_64,59.99880002
,,,,,,,,,,,,,,,,,sprudlunk,sprudozunk,left,6.5134,0,18,18,136,1,29,sprudlik / sprudozik,"sprudlik, sprudozni",ünk,NA,"János imád sprudozni, ezért sokat sprudlik.",Mi ritkán...,sprudlunk,sprudozunk,cselekszik,-lik,1,PR2080,1991,nő,igen,2022-04-19_13h43.49.136,hesp_baseline,2021.2.3,Linux x86_64,59.99880002
,,,,,,,,,,,,,,,,,spatszom,spatszok,right,14.8646,0,19,19,73,1,20,spatszik,spatszol,NA,NA,Te bizony sokat spatszol.,Én is sokat...,spatszok,spatszom,lakik,-szik,1,PR2080,1991,nő,igen,2022-04-19_13h43.49.136,hesp_baseline,2021.2.3,Linux x86_64,59.99880002
,,,,,,,,,,,,,,,,,privékszenek,privékednek,left,7.1155,0,20,20,149,1,42,privékszik / privékedik,"privékszik, privékedni",nek,NA,"János imád privékedni, ezért sokat privékszik.",Ők ritkán...,privékszenek,privékednek,cselekszik,-szik,2,PR2080,1991,nő,igen,2022-04-19_13h43.49.136,hesp_baseline,2021.2.3,Linux x86_64,59.99880002
,,,,,,,,,,,,,,,,,pisélyban,pisélyben,right,3.552,0,21,21,21,1,22,pisély,pisély,ban,é,Ez itt egy pisély.,Ott vagyunk a...,pisélyben,pisélyban,dzsungel,NA,NA,PR2080,1991,nő,igen,2022-04-19_13h43.49.136,hesp_baseline,2021.2.3,Linux x86_64,59.99880002
,,,,,,,,,,,,,,,,,bejzünk,bejezünk,left,4.5779,0,22,22,148,1,41,bejzik / bejezik,"bejzik, bejezni",ünk,NA,"János imád bejezni, ezért sokat bejzik.",Mi ritkán...,bejzünk,bejezünk,cselekszik,-zik,1,PR2080,1991,nő,igen,2022-04-19_13h43.49.136,hesp_baseline,2021.2.3,Linux x86_64,59.99880002
,,,,,,,,,,,,,,,,,jüslök,jüslöm,left,5.1493,0,23,23,56,1,3,jüslik,jüslesz,NA,NA,Te bizony sokat jüslesz.,Én is sokat...,jüslök,jüslöm,lakik,-lik,1,PR2080,1991,nő,igen,2022-04-19_13h43.49.136,hesp_baseline,2021.2.3,Linux x86_64,59.99880002
,,,,,,,,,,,,,,,,,mísozunk,míslunk,right,6.4165,0,24,24,123,1,16,míslik / mísozik,"míslik, mísozni",ünk,NA,"János imád mísozni, ezért sokat míslik.",Mi ritkán...,míslunk,mísozunk,cselekszik,-lik,1,PR2080,1991,nő,igen,2022-04-19_13h43.49.136,hesp_baseline,2021.2.3,Linux x86_64,59.99880002
,,,,,,,,,,,,,,,,,dutecnál,dutecnél,right,3.1314,0,25,25,22,1,23,dutec,dutec,nál,e,Ez itt egy dutec.,Nincs is jobb egy jó...,dutecnél,dutecnál,dzsungel,NA,NA,PR2080,1991,nő,igen,2022-04-19_13h43.49.136,hesp_baseline,2021.2.3,Linux x86_64,59.99880002
,,,,,,,,,,,,,,,,,brarlok,brarlom,left,4.3262,0,26,26,71,1,18,brarlik,brarlasz,NA,NA,Te bizony sokat brarlasz.,Én is sokat...,brarlok,brarlom,lakik,-lik,1,PR2080,1991,nő,igen,2022-04-19_13h43.49.136,hesp_baseline,2021.2.3,Linux x86_64,59.99880002
,,,,,,,,,,,,,,,,,lörűdzöm,lörűdzök,right,12.1514,0,27,27,77,1,24,lörűdzik,lörűdzöl,NA,NA,Te bizony sokat lörűdzöl.,Én is sokat...,lörűdzök,lörűdzöm,lakik,-zik,2,PR2080,1991,nő,igen,2022-04-19_13h43.49.136,hesp_baseline,2021.2.3,Linux x86_64,59.99880002
,,,,,,,,,,,,,,,,,tivencban,tivencben,right,2.552,0,28,28,53,1,54,tivenc,tivenc,ban,e,Ez itt egy tivenc.,Ott vagyunk a...,tivencben,tivencban,dzsungel,NA,NA,PR2080,1991,nő,igen,2022-04-19_13h43.49.136,hesp_baseline,2021.2.3,Linux x86_64,59.99880002
,,,,,,,,,,,,,,,,,zopélynél,zopélynál,left,3.697,0,29,29,5,1,6,zopély,zopély,nál,é,Ez itt egy zopély.,Nincs is jobb egy jó...,zopélynél,zopélynál,dzsungel,NA,NA,PR2080,1991,nő,igen,2022-04-19_13h43.49.136,hesp_baseline,2021.2.3,Linux x86_64,59.99880002
,,,,,,,,,,,,,,,,,rokszom,rokszok,left,4.567,0,30,30,101,1,48,rokszik,rokszol,NA,NA,Te bizony sokat rokszol.,Én is sokat...,rokszok,rokszom,lakik,-szik,1,PR2080,1991,nő,igen,2022-04-19_13h43.49.136,hesp_baseline,2021.2.3,Linux x86_64,59.99880002
,,,,,,,,,,,,,,,,,tágarzunk,tágarozunk,right,13.1995,0,31,31,155,1,48,tágarzik / tágarozik,"tágarzik, tágarozni",ünk,NA,"János imád tágarozni, ezért sokat tágarzik.",Mi ritkán...,tágarzunk,tágarozunk,cselekszik,-zik,2,PR2080,1991,nő,igen,2022-04-19_13h43.49.136,hesp_baseline,2021.2.3,Linux x86_64,59.99880002
,,,,,,,,,,,,,,,,,dajrensnél,dajrensnál,left,4.579,0,32,32,49,1,50,dajrens,dajrens,nál,e,Ez itt egy dajrens.,Nincs is jobb egy jó...,dajrensnél,dajrensnál,dzsungel,NA,NA,PR2080,1991,nő,igen,2022-04-19_13h43.49.136,hesp_baseline,2021.2.3,Linux x86_64,59.99880002
,,,,,,,,,,,,,,,,,trihagzok,trihagzom,right,4.0316,0,33,33,83,1,30,trihagzik,trihagzol,NA,NA,Te bizony sokat trihagzol.,Én is sokat...,trihagzok,trihagzom,lakik,-zik,2,PR2080,1991,nő,igen,2022-04-19_13h43.49.136,hesp_baseline,2021.2.3,Linux x86_64,59.99880002
,,,,,,,,,,,,,,,,,sztremlem,sztremlek,right,3.7884,0,34,34,95,1,42,sztremlik,sztremlesz,NA,NA,Te bizony sokat sztremlesz.,Én is sokat...,sztremlek,sztremlem,lakik,-lik,1,PR2080,1991,nő,igen,2022-04-19_13h43.49.136,hesp_baseline,2021.2.3,Linux x86_64,59.99880002
,,,,,,,,,,,,,,,,,spélszek,spélszem,left,6.0021,0,35,35,68,1,15,spélszik,spélszel,NA,NA,Te bizony sokat spélszel.,Én is sokat...,spélszek,spélszem,lakik,-szik,1,PR2080,1991,nő,igen,2022-04-19_13h43.49.136,hesp_baseline,2021.2.3,Linux x86_64,59.99880002
,,,,,,,,,,,,,,,,,frágapszom,frágapszok,right,10.5391,0,36,36,60,1,7,frágapszik,frágapszol,NA,NA,Te bizony sokat frágapszol.,Én is sokat...,frágapszok,frágapszom,lakik,-szik,2,PR2080,1991,nő,igen,2022-04-19_13h43.49.136,hesp_baseline,2021.2.3,Linux x86_64,59.99880002
,,,,,,,,,,,,,,,,,málapszom,málapszok,right,10.8188,0,37,37,66,1,13,málapszik,málapszol,NA,NA,Te bizony sokat málapszol.,Én is sokat...,málapszok,málapszom,lakik,-szik,2,PR2080,1991,nő,igen,2022-04-19_13h43.49.136,hesp_baseline,2021.2.3,Linux x86_64,59.99880002
,,,,,,,,,,,,,,,,,spéslek,spéslem,left,4.4382,0,38,38,93,1,40,spéslik,spéslesz,NA,NA,Te bizony sokat spéslesz.,Én is sokat...,spéslek,spéslem,lakik,-lik,1,PR2080,1991,nő,igen,2022-04-19_13h43.49.136,hesp_baseline,2021.2.3,Linux x86_64,59.99880002
,,,,,,,,,,,,,,,,,frélegzünk,frélegezünk,left,6.851,0,39,39,147,1,40,frélegzik / frélegezik,"frélegzik, frélegezni",ünk,NA,"János imád frélegezni, ezért sokat frélegzik.",Mi ritkán...,frélegzünk,frélegezünk,cselekszik,-zik,2,PR2080,1991,nő,igen,2022-04-19_13h43.49.136,hesp_baseline,2021.2.3,Linux x86_64,59.99880002
,,,,,,,,,,,,,,,,,kadérnél,kadérnál,left,3.5328,0,40,40,7,1,8,kadér,kadér,nál,é,Ez itt egy kadér.,Nincs is jobb egy jó...,kadérnél,kadérnál,dzsungel,NA,NA,PR2080,1991,nő,igen,2022-04-19_13h43.49.136,hesp_baseline,2021.2.3,Linux x86_64,59.99880002
,,,,,,,,,,,,,,,,,jutélynél,jutélynál,left,3.4878,0,41,41,11,1,12,jutély,jutély,nál,é,Ez itt egy jutély.,Nincs is jobb egy jó...,jutélynél,jutélynál,dzsungel,NA,NA,PR2080,1991,nő,igen,2022-04-19_13h43.49.136,hesp_baseline,2021.2.3,Linux x86_64,59.99880002
,,,,,,,,,,,,,,,,,jurozunk,jurlunk,right,4.1529,0,42,42,111,1,4,jurlik / jurozik,"jurlik, jurozni",ünk,NA,"János imád jurozni, ezért sokat jurlik.",Mi ritkán...,jurlunk,jurozunk,cselekszik,-lik,1,PR2080,1991,nő,igen,2022-04-19_13h43.49.136,hesp_baseline,2021.2.3,Linux x86_64,59.99880002
,,,,,,,,,,,,,,,,,diránylanak,dirányoznak,right,13.7863,0,43,43,122,1,15,diránylik / dirányozik,"diránylik, dirányozni",nek,NA,"János imád dirányozni, ezért sokat diránylik.",Ők ritkán...,diránylanak,dirányoznak,cselekszik,-lik,2,PR2080,1991,nő,igen,2022-04-19_13h43.49.136,hesp_baseline,2021.2.3,Linux x86_64,59.99880002
,,,,,,,,,,,,,,,,,tarhézban,tarhézben,right,4.7518,0,44,44,25,1,26,tarhéz,tarhéz,ban,é,Ez itt egy tarhéz.,Ott vagyunk a...,tarhézben,tarhézban,dzsungel,NA,NA,PR2080,1991,nő,igen,2022-04-19_13h43.49.136,hesp_baseline,2021.2.3,Linux x86_64,59.99880002
,,,,,,,,,,,,,,,,,riványoztok,riványlotok,right,14.3627,0,45,45,117,1,10,riványlik / riványozik,"riványlik, riványozni",tek,NA,"János imád riványozni, ezért sokat riványlik.",Ti ritkán...,riványlotok,riványoztok,cselekszik,-lik,2,PR2080,1991,nő,igen,2022-04-19_13h43.49.136,hesp_baseline,2021.2.3,Linux x86_64,59.99880002
,,,,,,,,,,,,,,,,,brobódzok,brobódzom,right,5.3645,0,46,46,96,1,43,brobódzik,brobódzol,NA,NA,Te bizony sokat brobódzol.,Én is sokat...,brobódzok,brobódzom,lakik,-zik,2,PR2080,1991,nő,igen,2022-04-19_13h43.49.136,hesp_baseline,2021.2.3,Linux x86_64,59.99880002
,,,,,,,,,,,,,,,,,kaszépnak,kaszépnek,right,3.1528,0,47,47,40,1,41,kaszép,kaszép,nak,é,Ez itt egy kaszép.,Elneveztem a kutyámat...,kaszépnek,kaszépnak,dzsungel,NA,NA,PR2080,1991,nő,igen,2022-04-19_13h43.49.136,hesp_baseline,2021.2.3,Linux x86_64,59.99880002
,,,,,,,,,,,,,,,,,drűröznek,drűrzenek,right,10.0864,0,48,48,126,1,19,drűrzik / drűrözik,"drűrzik, drűrözni",nek,NA,"János imád drűrözni, ezért sokat drűrzik.",Ők ritkán...,drűrzenek,drűröznek,cselekszik,-zik,1,PR2080,1991,nő,igen,2022-04-19_13h43.49.136,hesp_baseline,2021.2.3,Linux x86_64,59.99880002
,,,,,,,,,,,,,,,,,hóbensben,hóbensban,left,3.4674,0,49,49,3,1,4,hóbens,hóbens,ban,e,Ez itt egy hóbens.,Ott vagyunk a...,hóbensben,hóbensban,dzsungel,NA,NA,PR2080,1991,nő,igen,2022-04-19_13h43.49.136,hesp_baseline,2021.2.3,Linux x86_64,59.99880002
,,,,,,,,,,,,,,,,,drügzök,drügzöm,right,2.9003,0,50,50,72,1,19,drügzik,drügzöl,NA,NA,Te bizony sokat drügzöl.,Én is sokat...,drügzök,drügzöm,lakik,-zik,1,PR2080,1991,nő,igen,2022-04-19_13h43.49.136,hesp_baseline,2021.2.3,Linux x86_64,59.99880002
,,,,,,,,,,,,,,,,,monvegnál,monvegnél,right,4.5991,0,51,51,26,1,27,monveg,monveg,nál,e,Ez itt egy monveg.,Nincs is jobb egy jó...,monvegnél,monvegnál,dzsungel,NA,NA,PR2080,1991,nő,igen,2022-04-19_13h43.49.136,hesp_baseline,2021.2.3,Linux x86_64,59.99880002
,,,,,,,,,,,,,,,,,priszecben,priszecban,left,2.8028,0,52,52,15,1,16,priszec,priszec,ban,e,Ez itt egy priszec.,Ott vagyunk a...,priszecben,priszecban,dzsungel,NA,NA,PR2080,1991,nő,igen,2022-04-19_13h43.49.136,hesp_baseline,2021.2.3,Linux x86_64,59.99880002
,,,,,,,,,,,,,,,,,hivépban,hivépben,right,2.6895,0,53,53,44,1,45,hivép,hivép,ban,é,Ez itt egy hivép.,Ott vagyunk a...,hivépben,hivépban,dzsungel,NA,NA,PR2080,1991,nő,igen,2022-04-19_13h43.49.136,hesp_baseline,2021.2.3,Linux x86_64,59.99880002
,,,,,,,,,,,,,,,,,vanylok,vanylom,left,3.1521,0,54,54,61,1,8,vanylik,vanylasz,NA,NA,Te bizony sokat vanylasz.,Én is sokat...,vanylok,vanylom,lakik,-lik,1,PR2080,1991,nő,igen,2022-04-19_13h43.49.136,hesp_baseline,2021.2.3,Linux x86_64,59.99880002
,,,,,,,,,,,,,,,,,pebzek,pebzem,left,4.7208,0,55,55,57,1,4,pebzik,pebzel,NA,NA,Te bizony sokat pebzel.,Én is sokat...,pebzek,pebzem,lakik,-zik,1,PR2080,1991,nő,igen,2022-04-19_13h43.49.136,hesp_baseline,2021.2.3,Linux x86_64,59.99880002
,,,,,,,,,,,,,,,,,incéjnek,incéjnak,left,4.151,0,56,56,30,1,31,incéj,incéj,nak,é,Ez itt egy incéj.,Elneveztem a kutyámat...,incéjnek,incéjnak,dzsungel,NA,NA,PR2080,1991,nő,igen,2022-04-19_13h43.49.136,hesp_baseline,2021.2.3,Linux x86_64,59.99880002
,,,,,,,,,,,,,,,,,brubzom,brubzok,left,3.6295,0,57,57,92,1,39,brubzik,brubzol,NA,NA,Te bizony sokat brubzol.,Én is sokat...,brubzok,brubzom,lakik,-zik,1,PR2080,1991,nő,igen,2022-04-19_13h43.49.136,hesp_baseline,2021.2.3,Linux x86_64,59.99880002
,,,,,,,,,,,,,,,,,pekedünk,pekszünk,right,5.1492,0,58,58,161,1,54,pekszik / pekedik,"pekszik, pekedni",ünk,NA,"János imád pekedni, ezért sokat pekszik.",Mi ritkán...,pekszünk,pekedünk,cselekszik,-szik,1,PR2080,1991,nő,igen,2022-04-19_13h43.49.136,hesp_baseline,2021.2.3,Linux x86_64,59.99880002
,,,,,,,,,,,,,,,,,bötőrzünk,bötőrözünk,left,7.6665,0,59,59,158,1,51,bötőrzik / bötőrözik,"bötőrzik, bötőrözni",ünk,NA,"János imád bötőrözni, ezért sokat bötőrzik.",Mi ritkán...,bötőrzünk,bötőrözünk,cselekszik,-zik,2,PR2080,1991,nő,igen,2022-04-19_13h43.49.136,hesp_baseline,2021.2.3,Linux x86_64,59.99880002
,,,,,,,,,,,,,,,,,zsúdelnak,zsúdelnek,right,4.5855,0,60,60,14,1,15,zsúdel,zsúdel,nak,e,Ez itt egy zsúdel.,Elneveztem a kutyámat...,zsúdelnek,zsúdelnak,dzsungel,NA,NA,PR2080,1991,nő,igen,2022-04-19_13h43.49.136,hesp_baseline,2021.2.3,Linux x86_64,59.99880002
,,,,,,,,,,,,,,,,,pítszom,pítszok,left,4.951,0,61,61,62,1,9,pítszik,pítszol,NA,NA,Te bizony sokat pítszol.,Én is sokat...,pítszok,pítszom,lakik,-szik,1,PR2080,1991,nő,igen,2022-04-19_13h43.49.136,hesp_baseline,2021.2.3,Linux x86_64,59.99880002
,,,,,,,,,,,,,,,,,fágyépnél,fágyépnál,left,3.5704,0,62,62,10,1,11,fágyép,fágyép,nál,é,Ez itt egy fágyép.,Nincs is jobb egy jó...,fágyépnél,fágyépnál,dzsungel,NA,NA,PR2080,1991,nő,igen,2022-04-19_13h43.49.136,hesp_baseline,2021.2.3,Linux x86_64,59.99880002
,,,,,,,,,,,,,,,,,flözlök,flözlöm,left,3.8461,0,63,63,74,1,21,flözlik,flözlesz,NA,NA,Te bizony sokat flözlesz.,Én is sokat...,flözlök,flözlöm,lakik,-lik,1,PR2080,1991,nő,igen,2022-04-19_13h43.49.136,hesp_baseline,2021.2.3,Linux x86_64,59.99880002
,,,,,,,,,,,,,,,,,breseznek,breslenek,right,5.8664,0,64,64,115,1,8,breslik / bresezik,"breslik, bresezni",nek,NA,"János imád bresezni, ezért sokat breslik.",Ők ritkán...,breslenek,breseznek,cselekszik,-lik,1,PR2080,1991,nő,igen,2022-04-19_13h43.49.136,hesp_baseline,2021.2.3,Linux x86_64,59.99880002
,,,,,,,,,,,,,,,,,nuhétnál,nuhétnél,right,2.4995,0,65,65,29,1,30,nuhét,nuhét,nál,é,Ez itt egy nuhét.,Nincs is jobb egy jó...,nuhétnél,nuhétnál,dzsungel,NA,NA,PR2080,1991,nő,igen,2022-04-19_13h43.49.136,hesp_baseline,2021.2.3,Linux x86_64,59.99880002
,,,,,,,,,,,,,,,,,brüszlötök,brüszöztök,left,6.698,0,66,66,130,1,23,brüszlik / brüszözik,"brüszlik, brüszözni",tek,NA,"János imád brüszözni, ezért sokat brüszlik.",Ti ritkán...,brüszlötök,brüszöztök,cselekszik,-lik,1,PR2080,1991,nő,igen,2022-04-19_13h43.49.136,hesp_baseline,2021.2.3,Linux x86_64,59.99880002
,,,,,,,,,,,,,,,,,huklok,huklom,right,2.8991,0,67,67,78,1,25,huklik,huklasz,NA,NA,Te bizony sokat huklasz.,Én is sokat...,huklok,huklom,lakik,-lik,1,PR2080,1991,nő,igen,2022-04-19_13h43.49.136,hesp_baseline,2021.2.3,Linux x86_64,59.99880002
,,,,,,,,,,,,,,,,,frinyozunk,frinylunk,left,12.0631,0,68,68,133,1,26,frinylik / frinyozik,"frinylik, frinyozni",ünk,NA,"János imád frinyozni, ezért sokat frinylik.",Mi ritkán...,frinylunk,frinyozunk,cselekszik,-lik,1,PR2080,1991,nő,igen,2022-04-19_13h43.49.136,hesp_baseline,2021.2.3,Linux x86_64,59.99880002
,,,,,,,,,,,,,,,,,vismernél,vismernál,left,2.6661,0,69,69,13,1,14,vismer,vismer,nál,e,Ez itt egy vismer.,Nincs is jobb egy jó...,vismernél,vismernál,dzsungel,NA,NA,PR2080,1991,nő,igen,2022-04-19_13h43.49.136,hesp_baseline,2021.2.3,Linux x86_64,59.99880002
,,,,,,,,,,,,,,,,,bölszöm,bölszök,right,2.7565,0,70,70,105,1,52,bölszik,bölszöl,NA,NA,Te bizony sokat bölszöl.,Én is sokat...,bölszök,bölszöm,lakik,-szik,1,PR2080,1991,nő,igen,2022-04-19_13h43.49.136,hesp_baseline,2021.2.3,Linux x86_64,59.99880002
,,,,,,,,,,,,,,,,,bribaslanak,bribasoznak,left,10.6151,0,71,71,121,1,14,bribaslik / bribasozik,"bribaslik, bribasozni",nek,NA,"János imád bribasozni, ezért sokat bribaslik.",Ők ritkán...,bribaslanak,bribasoznak,cselekszik,-lik,2,PR2080,1991,nő,igen,2022-04-19_13h43.49.136,hesp_baseline,2021.2.3,Linux x86_64,59.99880002
,,,,,,,,,,,,,,,,,prélemeznek,prélemlenek,right,6.6023,0,72,72,110,1,3,prélemlik / prélemezik,"prélemlik, prélemezni",nek,NA,"János imád prélemezni, ezért sokat prélemlik.",Ők ritkán...,prélemlenek,prélemeznek,cselekszik,-lik,2,PR2080,1991,nő,igen,2022-04-19_13h43.49.136,hesp_baseline,2021.2.3,Linux x86_64,59.99880002
,,,,,,,,,,,,,,,,,sprédlek,sprédlem,left,4.3644,0,73,73,70,1,17,sprédlik,sprédlesz,NA,NA,Te bizony sokat sprédlesz.,Én is sokat...,sprédlek,sprédlem,lakik,-lik,1,PR2080,1991,nő,igen,2022-04-19_13h43.49.136,hesp_baseline,2021.2.3,Linux x86_64,59.99880002
,,,,,,,,,,,,,,,,,nyizlunk,nyizozunk,left,6.9324,0,74,74,135,1,28,nyizlik / nyizozik,"nyizlik, nyizozni",ünk,NA,"János imád nyizozni, ezért sokat nyizlik.",Mi ritkán...,nyizlunk,nyizozunk,cselekszik,-lik,1,PR2080,1991,nő,igen,2022-04-19_13h43.49.136,hesp_baseline,2021.2.3,Linux x86_64,59.99880002
,,,,,,,,,,,,,,,,,csarténynek,csarténynak,left,2.8831,0,75,75,36,1,37,csartény,csartény,nak,é,Ez itt egy csartény.,Elneveztem a kutyámat...,csarténynek,csarténynak,dzsungel,NA,NA,PR2080,1991,nő,igen,2022-04-19_13h43.49.136,hesp_baseline,2021.2.3,Linux x86_64,59.99880002
,,,,,,,,,,,,,,,,,spicetnak,spicetnek,right,3.6531,0,76,76,35,1,36,spicet,spicet,nak,e,Ez itt egy spicet.,Elneveztem a kutyámat...,spicetnek,spicetnak,dzsungel,NA,NA,PR2080,1991,nő,igen,2022-04-19_13h43.49.136,hesp_baseline,2021.2.3,Linux x86_64,59.99880002
,,,,,,,,,,,,,,,,,pöröztök,pörzötök,left,5.203,0,77,77,153,1,46,pörzik / pörözik,"pörzik, pörözni",tek,NA,"János imád pörözni, ezért sokat pörzik.",Ti ritkán...,pörzötök,pöröztök,cselekszik,-zik,1,PR2080,1991,nő,igen,2022-04-19_13h43.49.136,hesp_baseline,2021.2.3,Linux x86_64,59.99880002
,,,,,,,,,,,,,,,,,frakozunk,fraklunk,right,4.9505,0,78,78,159,1,52,fraklik / frakozik,"fraklik, frakozni",ünk,NA,"János imád frakozni, ezért sokat fraklik.",Mi ritkán...,fraklunk,frakozunk,cselekszik,-lik,1,PR2080,1991,nő,igen,2022-04-19_13h43.49.136,hesp_baseline,2021.2.3,Linux x86_64,59.99880002
,,,,,,,,,,,,,,,,,szibánylok,szibánylom,left,4.883,0,79,79,67,1,14,szibánylik,szibánylasz,NA,NA,Te bizony sokat szibánylasz.,Én is sokat...,szibánylok,szibánylom,lakik,-lik,2,PR2080,1991,nő,igen,2022-04-19_13h43.49.136,hesp_baseline,2021.2.3,Linux x86_64,59.99880002
,,,,,,,,,,,,,,,,,géregeztek,géregletek,right,6.5128,0,80,80,124,1,17,géreglik / géregezik,"géreglik, géregezni",tek,NA,"János imád géregezni, ezért sokat géreglik.",Ti ritkán...,géregletek,géregeztek,cselekszik,-lik,2,PR2080,1991,nő,igen,2022-04-19_13h43.49.136,hesp_baseline,2021.2.3,Linux x86_64,59.99880002
,,,,,,,,,,,,,,,,,kalhésznek,kalhésznak,left,2.9303,0,81,81,46,1,47,kalhész,kalhész,nak,é,Ez itt egy kalhész.,Elneveztem a kutyámat...,kalhésznek,kalhésznak,dzsungel,NA,NA,PR2080,1991,nő,igen,2022-04-19_13h43.49.136,hesp_baseline,2021.2.3,Linux x86_64,59.99880002
,,,,,,,,,,,,,,,,,prugoroztok,prugorzotok,right,5.0662,0,82,82,116,1,9,prugorzik / prugorozik,"prugorzik, prugorozni",tek,NA,"János imád prugorozni, ezért sokat prugorzik.",Ti ritkán...,prugorzotok,prugoroztok,cselekszik,-zik,2,PR2080,1991,nő,igen,2022-04-19_13h43.49.136,hesp_baseline,2021.2.3,Linux x86_64,59.99880002
,,,,,,,,,,,,,,,,,tránélynak,tránélynek,right,3.1657,0,83,83,17,1,18,tránély,tránély,nak,é,Ez itt egy tránély.,Elneveztem a kutyámat...,tránélynek,tránélynak,dzsungel,NA,NA,PR2080,1991,nő,igen,2022-04-19_13h43.49.136,hesp_baseline,2021.2.3,Linux x86_64,59.99880002
,,,,,,,,,,,,,,,,,matézban,matézben,right,2.5519,0,84,84,37,1,38,matéz,matéz,ban,é,Ez itt egy matéz.,Ott vagyunk a...,matézben,matézban,dzsungel,NA,NA,PR2080,1991,nő,igen,2022-04-19_13h43.49.136,hesp_baseline,2021.2.3,Linux x86_64,59.99880002
,,,,,,,,,,,,,,,,,gábédnél,gábédnál,left,4.1967,0,85,85,39,1,40,gábéd,gábéd,nál,é,Ez itt egy gábéd.,Nincs is jobb egy jó...,gábédnél,gábédnál,dzsungel,NA,NA,PR2080,1991,nő,igen,2022-04-19_13h43.49.136,hesp_baseline,2021.2.3,Linux x86_64,59.99880002
,,,,,,,,,,,,,,,,,zsalrénnek,zsalrénnak,left,2.917,0,86,86,19,1,20,zsalrén,zsalrén,nak,é,Ez itt egy zsalrén.,Elneveztem a kutyámat...,zsalrénnek,zsalrénnak,dzsungel,NA,NA,PR2080,1991,nő,igen,2022-04-19_13h43.49.136,hesp_baseline,2021.2.3,Linux x86_64,59.99880002
,,,,,,,,,,,,,,,,,vülődzöm,vülődzök,right,4.0404,0,87,87,81,1,28,vülődzik,vülődzöl,NA,NA,Te bizony sokat vülődzöl.,Én is sokat...,vülődzök,vülődzöm,lakik,-zik,2,PR2080,1991,nő,igen,2022-04-19_13h43.49.136,hesp_baseline,2021.2.3,Linux x86_64,59.99880002
,,,,,,,,,,,,,,,,,zsopédban,zsopédben,right,2.8573,0,88,88,50,1,51,zsopéd,zsopéd,ban,é,Ez itt egy zsopéd.,Ott vagyunk a...,zsopédben,zsopédban,dzsungel,NA,NA,PR2080,1991,nő,igen,2022-04-19_13h43.49.136,hesp_baseline,2021.2.3,Linux x86_64,59.99880002
,,,,,,,,,,,,,,,,,mádépnél,mádépnál,left,3.5307,0,89,89,1,1,2,mádép,mádép,nál,é,Ez itt egy mádép.,Nincs is jobb egy jó...,mádépnél,mádépnál,dzsungel,NA,NA,PR2080,1991,nő,igen,2022-04-19_13h43.49.136,hesp_baseline,2021.2.3,Linux x86_64,59.99880002
,,,,,,,,,,,,,,,,,livaklok,livaklom,right,6.0201,0,90,90,82,1,29,livaklik,livaklasz,NA,NA,Te bizony sokat livaklasz.,Én is sokat...,livaklok,livaklom,lakik,-lik,2,PR2080,1991,nő,igen,2022-04-19_13h43.49.136,hesp_baseline,2021.2.3,Linux x86_64,59.99880002
,,,,,,,,,,,,,,,,,spűmlök,spűmlöm,left,2.9554,0,91,91,86,1,33,spűmlik,spűmlesz,NA,NA,Te bizony sokat spűmlesz.,Én is sokat...,spűmlök,spűmlöm,lakik,-lik,1,PR2080,1991,nő,igen,2022-04-19_13h43.49.136,hesp_baseline,2021.2.3,Linux x86_64,59.99880002
,,,,,,,,,,,,,,,,,gyivádzok,gyivádzom,left,6.4015,0,92,92,87,1,34,gyivádzik,gyivádzol,NA,NA,Te bizony sokat gyivádzol.,Én is sokat...,gyivádzok,gyivádzom,lakik,-zik,2,PR2080,1991,nő,igen,2022-04-19_13h43.49.136,hesp_baseline,2021.2.3,Linux x86_64,59.99880002
,,,,,,,,,,,,,,,,,csublényban,csublényben,right,2.6313,0,93,93,16,1,17,csublény,csublény,ban,é,Ez itt egy csublény.,Ott vagyunk a...,csublényben,csublényban,dzsungel,NA,NA,PR2080,1991,nő,igen,2022-04-19_13h43.49.136,hesp_baseline,2021.2.3,Linux x86_64,59.99880002
,,,,,,,,,,,,,,,,,darhénban,darhénben,right,2.0432,0,94,94,27,1,28,darhén,darhén,ban,é,Ez itt egy darhén.,Ott vagyunk a...,darhénben,darhénban,dzsungel,NA,NA,PR2080,1991,nő,igen,2022-04-19_13h43.49.136,hesp_baseline,2021.2.3,Linux x86_64,59.99880002
,,,,,,,,,,,,,,,,,jalrénynél,jalrénynál,left,3.2666,0,95,95,0,1,1,jalrény,jalrény,nál,é,Ez itt egy jalrény.,Nincs is jobb egy jó...,jalrénynél,jalrénynál,dzsungel,NA,NA,PR2080,1991,nő,igen,2022-04-19_13h43.49.136,hesp_baseline,2021.2.3,Linux x86_64,59.99880002
,,,,,,,,,,,,,,,,,frorlanak,froroznak,left,8.1671,0,96,96,143,1,36,frorlik / frorozik,"frorlik, frorozni",nek,NA,"János imád frorozni, ezért sokat frorlik.",Ők ritkán...,frorlanak,froroznak,cselekszik,-lik,1,PR2080,1991,nő,igen,2022-04-19_13h43.49.136,hesp_baseline,2021.2.3,Linux x86_64,59.99880002
,,,,,,,,,,,,,,,,,dábegyban,dábegyben,right,3.6368,0,97,97,6,1,7,dábegy,dábegy,ban,e,Ez itt egy dábegy.,Ott vagyunk a...,dábegyben,dábegyban,dzsungel,NA,NA,PR2080,1991,nő,igen,2022-04-19_13h43.49.136,hesp_baseline,2021.2.3,Linux x86_64,59.99880002
,,,,,,,,,,,,,,,,,spábétben,spábétban,left,2.6572,0,98,98,51,1,52,spábét,spábét,ban,é,Ez itt egy spábét.,Ott vagyunk a...,spábétben,spábétban,dzsungel,NA,NA,PR2080,1991,nő,igen,2022-04-19_13h43.49.136,hesp_baseline,2021.2.3,Linux x86_64,59.99880002
,,,,,,,,,,,,,,,,,hijegynél,hijegynál,left,3.4865,0,99,99,4,1,5,hijegy,hijegy,nál,e,Ez itt egy hijegy.,Nincs is jobb egy jó...,hijegynél,hijegynál,dzsungel,NA,NA,PR2080,1991,nő,igen,2022-04-19_13h43.49.136,hesp_baseline,2021.2.3,Linux x86_64,59.99880002
,,,,,,,,,,,,,,,,,feténylek,feténylem,left,3.7806,0,100,100,85,1,32,feténylik,feténylesz,NA,NA,Te bizony sokat feténylesz.,Én is sokat...,feténylek,feténylem,lakik,-lik,2,PR2080,1991,nő,igen,2022-04-19_13h43.49.136,hesp_baseline,2021.2.3,Linux x86_64,59.99880002
,,,,,,,,,,,,,,,,,frihegezünk,friheglünk,right,6.7168,0,101,101,132,1,25,friheglik / frihegezik,"friheglik, frihegezni",ünk,NA,"János imád frihegezni, ezért sokat friheglik.",Mi ritkán...,friheglünk,frihegezünk,cselekszik,-lik,2,PR2080,1991,nő,igen,2022-04-19_13h43.49.136,hesp_baseline,2021.2.3,Linux x86_64,59.99880002
,,,,,,,,,,,,,,,,,buhényban,buhényben,right,5.0304,0,102,102,43,1,44,buhény,buhény,ban,é,Ez itt egy buhény.,Ott vagyunk a...,buhényben,buhényban,dzsungel,NA,NA,PR2080,1991,nő,igen,2022-04-19_13h43.49.136,hesp_baseline,2021.2.3,Linux x86_64,59.99880002
,,,,,,,,,,,,,,,,,flérlem,flérlek,right,3.6182,0,103,103,89,1,36,flérlik,flérlesz,NA,NA,Te bizony sokat flérlesz.,Én is sokat...,flérlek,flérlem,lakik,-lik,1,PR2080,1991,nő,igen,2022-04-19_13h43.49.136,hesp_baseline,2021.2.3,Linux x86_64,59.99880002
,,,,,,,,,,,,,,,,,gatáglunk,gatágozunk,left,6.5031,0,104,104,137,1,30,gatáglik / gatágozik,"gatáglik, gatágozni",ünk,NA,"János imád gatágozni, ezért sokat gatáglik.",Mi ritkán...,gatáglunk,gatágozunk,cselekszik,-lik,2,PR2080,1991,nő,igen,2022-04-19_13h43.49.136,hesp_baseline,2021.2.3,Linux x86_64,59.99880002
,,,,,,,,,,,,,,,,,hosétnak,hosétnek,right,3.1006,0,105,105,8,1,9,hosét,hosét,nak,é,Ez itt egy hosét.,Elneveztem a kutyámat...,hosétnek,hosétnak,dzsungel,NA,NA,PR2080,1991,nő,igen,2022-04-19_13h43.49.136,hesp_baseline,2021.2.3,Linux x86_64,59.99880002
,,,,,,,,,,,,,,,,,prögöztök,prögzötök,left,5.837,0,106,106,151,1,44,prögzik / prögözik,"prögzik, prögözni",tek,NA,"János imád prögözni, ezért sokat prögzik.",Ti ritkán...,prögzötök,prögöztök,cselekszik,-zik,1,PR2080,1991,nő,igen,2022-04-19_13h43.49.136,hesp_baseline,2021.2.3,Linux x86_64,59.99880002
,,,,,,,,,,,,,,,,,pugoslom,pugoslok,right,6.4707,0,107,107,84,1,31,pugoslik,pugoslasz,NA,NA,Te bizony sokat pugoslasz.,Én is sokat...,pugoslok,pugoslom,lakik,-lik,2,PR2080,1991,nő,igen,2022-04-19_13h43.49.136,hesp_baseline,2021.2.3,Linux x86_64,59.99880002
,,,,,,,,,,,,,,,,,fökszenek,föködnek,left,4.8969,0,108,108,131,1,24,fökszik / föködik,"fökszik, föködni",nek,NA,"János imád föködni, ezért sokat fökszik.",Ők ritkán...,fökszenek,föködnek,cselekszik,-szik,1,PR2080,1991,nő,igen,2022-04-19_13h43.49.136,hesp_baseline,2021.2.3,Linux x86_64,59.99880002
,,,,,,,,,,,,,,,,,gonszéknél,gonszéknál,left,3.8372,0,109,109,38,1,39,gonszék,gonszék,nál,é,Ez itt egy gonszék.,Nincs is jobb egy jó...,gonszéknél,gonszéknál,dzsungel,NA,NA,PR2080,1991,nő,igen,2022-04-19_13h43.49.136,hesp_baseline,2021.2.3,Linux x86_64,59.99880002
,,,,,,,,,,,,,,,,,pilégednek,pilégszenek,right,6.6791,0,110,110,150,1,43,pilégszik / pilégedik,"pilégszik, pilégedni",nek,NA,"János imád pilégedni, ezért sokat pilégszik.",Ők ritkán...,pilégszenek,pilégednek,cselekszik,-szik,2,PR2080,1991,nő,igen,2022-04-19_13h43.49.136,hesp_baseline,2021.2.3,Linux x86_64,59.99880002
,,,,,,,,,,,,,,,,,préleglem,préleglek,right,4.2482,0,111,111,104,1,51,préleglik,préleglesz,NA,NA,Te bizony sokat préleglesz.,Én is sokat...,préleglek,préleglem,lakik,-lik,2,PR2080,1991,nő,igen,2022-04-19_13h43.49.136,hesp_baseline,2021.2.3,Linux x86_64,59.99880002
,,,,,,,,,,,,,,,,,trukszotok,trukodtok,right,4.8731,0,112,112,157,1,50,trukszik / trukodik,"trukszik, trukodni",tek,NA,"János imád trukodni, ezért sokat trukszik.",Ti ritkán...,trukszotok,trukodtok,cselekszik,-szik,1,PR2080,1991,nő,igen,2022-04-19_13h43.49.136,hesp_baseline,2021.2.3,Linux x86_64,59.99880002
,,,,,,,,,,,,,,,,,klordénynak,klordénynek,right,2.6009,0,113,113,9,1,10,klordény,klordény,nak,é,Ez itt egy klordény.,Elneveztem a kutyámat...,klordénynek,klordénynak,dzsungel,NA,NA,PR2080,1991,nő,igen,2022-04-19_13h43.49.136,hesp_baseline,2021.2.3,Linux x86_64,59.99880002
,,,,,,,,,,,,,,,,,ibáglom,ibáglok,right,3.5184,0,114,114,88,1,35,ibáglik,ibáglasz,NA,NA,Te bizony sokat ibáglasz.,Én is sokat...,ibáglok,ibáglom,lakik,-lik,2,PR2080,1991,nő,igen,2022-04-19_13h43.49.136,hesp_baseline,2021.2.3,Linux x86_64,59.99880002
,,,,,,,,,,,,,,,,,vihapodunk,vihapszunk,right,5.6783,0,115,115,112,1,5,vihapszik / vihapodik,"vihapszik, vihapodni",ünk,NA,"János imád vihapodni, ezért sokat vihapszik.",Mi ritkán...,vihapszunk,vihapodunk,cselekszik,-szik,2,PR2080,1991,nő,igen,2022-04-19_13h43.49.136,hesp_baseline,2021.2.3,Linux x86_64,59.99880002
,,,,,,,,,,,,,,,,,tragzom,tragzok,right,2.647,0,116,116,90,1,37,tragzik,tragzol,NA,NA,Te bizony sokat tragzol.,Én is sokat...,tragzok,tragzom,lakik,-zik,1,PR2080,1991,nő,igen,2022-04-19_13h43.49.136,hesp_baseline,2021.2.3,Linux x86_64,59.99880002
,,,,,,,,,,,,,,,,,marzok,marzom,left,3.8888,0,117,117,99,1,46,marzik,marzol,NA,NA,Te bizony sokat marzol.,Én is sokat...,marzok,marzom,lakik,-zik,1,PR2080,1991,nő,igen,2022-04-19_13h43.49.136,hesp_baseline,2021.2.3,Linux x86_64,59.99880002
,,,,,,,,,,,,,,,,,klaráglok,klaráglom,left,3.4065,0,118,118,91,1,38,klaráglik,klaráglasz,NA,NA,Te bizony sokat klaráglasz.,Én is sokat...,klaráglok,klaráglom,lakik,-lik,2,PR2080,1991,nő,igen,2022-04-19_13h43.49.136,hesp_baseline,2021.2.3,Linux x86_64,59.99880002
,,,,,,,,,,,,,,,,,flagárzok,flagárzom,right,7.0274,0,119,119,64,1,11,flagárzik,flagárzol,NA,NA,Te bizony sokat flagárzol.,Én is sokat...,flagárzok,flagárzom,lakik,-zik,2,PR2080,1991,nő,igen,2022-04-19_13h43.49.136,hesp_baseline,2021.2.3,Linux x86_64,59.99880002
,,,,,,,,,,,,,,,,,csibagoztok,csibagzotok,right,4.0688,0,120,120,114,1,7,csibagzik / csibagozik,"csibagzik, csibagozni",tek,NA,"János imád csibagozni, ezért sokat csibagzik.",Ti ritkán...,csibagzotok,csibagoztok,cselekszik,-zik,2,PR2080,1991,nő,igen,2022-04-19_13h43.49.136,hesp_baseline,2021.2.3,Linux x86_64,59.99880002
,,,,,,,,,,,,,,,,,priszkencnak,priszkencnek,right,3.5459,0,121,121,20,1,21,priszkenc,priszkenc,nak,e,Ez itt egy priszkenc.,Elneveztem a kutyámat...,priszkencnek,priszkencnak,dzsungel,NA,NA,PR2080,1991,nő,igen,2022-04-19_13h43.49.136,hesp_baseline,2021.2.3,Linux x86_64,59.99880002
,,,,,,,,,,,,,,,,,lihénynek,lihénynak,left,2.5036,0,122,122,23,1,24,lihény,lihény,nak,é,Ez itt egy lihény.,Elneveztem a kutyámat...,lihénynek,lihénynak,dzsungel,NA,NA,PR2080,1991,nő,igen,2022-04-19_13h43.49.136,hesp_baseline,2021.2.3,Linux x86_64,59.99880002
,,,,,,,,,,,,,,,,,flehénylem,flehénylek,right,2.9344,0,123,123,106,1,53,flehénylik,flehénylesz,NA,NA,Te bizony sokat flehénylesz.,Én is sokat...,flehénylek,flehénylem,lakik,-lik,2,PR2080,1991,nő,igen,2022-04-19_13h43.49.136,hesp_baseline,2021.2.3,Linux x86_64,59.99880002
,,,,,,,,,,,,,,,,,sprimozunk,sprimlunk,left,8.0338,0,124,124,127,1,20,sprimlik / sprimozik,"sprimlik, sprimozni",ünk,NA,"János imád sprimozni, ezért sokat sprimlik.",Mi ritkán...,sprimlunk,sprimozunk,cselekszik,-lik,1,PR2080,1991,nő,igen,2022-04-19_13h43.49.136,hesp_baseline,2021.2.3,Linux x86_64,59.99880002
,,,,,,,,,,,,,,,,,jukélnél,jukélnál,left,2.3665,0,125,125,42,1,43,jukél,jukél,nál,é,Ez itt egy jukél.,Nincs is jobb egy jó...,jukélnél,jukélnál,dzsungel,NA,NA,PR2080,1991,nő,igen,2022-04-19_13h43.49.136,hesp_baseline,2021.2.3,Linux x86_64,59.99880002
,,,,,,,,,,,,,,,,,püzöztök,püzlötök,right,4.0358,0,126,126,152,1,45,püzlik / püzözik,"püzlik, püzözni",tek,NA,"János imád püzözni, ezért sokat püzlik.",Ti ritkán...,püzlötök,püzöztök,cselekszik,-lik,1,PR2080,1991,nő,igen,2022-04-19_13h43.49.136,hesp_baseline,2021.2.3,Linux x86_64,59.99880002
,,,,,,,,,,,,,,,,,spibádzok,spibádzom,left,4.6577,0,127,127,65,1,12,spibádzik,spibádzol,NA,NA,Te bizony sokat spibádzol.,Én is sokat...,spibádzok,spibádzom,lakik,-zik,2,PR2080,1991,nő,igen,2022-04-19_13h43.49.136,hesp_baseline,2021.2.3,Linux x86_64,59.99880002
,,,,,,,,,,,,,,,,,galároznak,galárzanak,right,6.5462,0,128,128,154,1,47,galárzik / galározik,"galárzik, galározni",nek,NA,"János imád galározni, ezért sokat galárzik.",Ők ritkán...,galárzanak,galároznak,cselekszik,-zik,2,PR2080,1991,nő,igen,2022-04-19_13h43.49.136,hesp_baseline,2021.2.3,Linux x86_64,59.99880002
,,,,,,,,,,,,,,,,,bügöznek,bügzenek,right,5.1178,0,129,129,118,1,11,bügzik / bügözik,"bügzik, bügözni",nek,NA,"János imád bügözni, ezért sokat bügzik.",Ők ritkán...,bügzenek,bügöznek,cselekszik,-zik,1,PR2080,1991,nő,igen,2022-04-19_13h43.49.136,hesp_baseline,2021.2.3,Linux x86_64,59.99880002
,,,,,,,,,,,,,,,,,bregzünk,bregezünk,left,5.438,0,130,130,139,1,32,bregzik / bregezik,"bregzik, bregezni",ünk,NA,"János imád bregezni, ezért sokat bregzik.",Mi ritkán...,bregzünk,bregezünk,cselekszik,-zik,1,PR2080,1991,nő,igen,2022-04-19_13h43.49.136,hesp_baseline,2021.2.3,Linux x86_64,59.99880002
,,,,,,,,,,,,,,,,,flivegzenek,flivegeznek,left,4.9825,0,131,131,138,1,31,flivegzik / flivegezik,"flivegzik, flivegezni",nek,NA,"János imád flivegezni, ezért sokat flivegzik.",Ők ritkán...,flivegzenek,flivegeznek,cselekszik,-zik,2,PR2080,1991,nő,igen,2022-04-19_13h43.49.136,hesp_baseline,2021.2.3,Linux x86_64,59.99880002
,,,,,,,,,,,,,,,,,klihaslotok,klihasoztok,left,10.9983,0,132,132,156,1,49,klihaslik / klihasozik,"klihaslik, klihasozni",tek,NA,"János imád klihasozni, ezért sokat klihaslik.",Ti ritkán...,klihaslotok,klihasoztok,cselekszik,-lik,2,PR2080,1991,nő,igen,2022-04-19_13h43.49.136,hesp_baseline,2021.2.3,Linux x86_64,59.99880002
,,,,,,,,,,,,,,,,,trodélyben,trodélyban,left,4.1964,0,133,133,28,1,29,trodély,trodély,ban,é,Ez itt egy trodély.,Ott vagyunk a...,trodélyben,trodélyban,dzsungel,NA,NA,PR2080,1991,nő,igen,2022-04-19_13h43.49.136,hesp_baseline,2021.2.3,Linux x86_64,59.99880002
,,,,,,,,,,,,,,,,,hiragoznak,hiragzanak,right,4.2161,0,134,134,119,1,12,hiragzik / hiragozik,"hiragzik, hiragozni",nek,NA,"János imád hiragozni, ezért sokat hiragzik.",Ők ritkán...,hiragzanak,hiragoznak,cselekszik,-zik,2,PR2080,1991,nő,igen,2022-04-19_13h43.49.136,hesp_baseline,2021.2.3,Linux x86_64,59.99880002
,,,,,,,,,,,,,,,,,salárzom,salárzok,left,4.9828,0,135,135,103,1,50,salárzik,salárzol,NA,NA,Te bizony sokat salárzol.,Én is sokat...,salárzok,salárzom,lakik,-zik,2,PR2080,1991,nő,igen,2022-04-19_13h43.49.136,hesp_baseline,2021.2.3,Linux x86_64,59.99880002
,,,,,,,,,,,,,,,,,hilarzom,hilarzok,left,5.439,0,136,136,69,1,16,hilarzik,hilarzol,NA,NA,Te bizony sokat hilarzol.,Én is sokat...,hilarzok,hilarzom,lakik,-zik,2,PR2080,1991,nő,igen,2022-04-19_13h43.49.136,hesp_baseline,2021.2.3,Linux x86_64,59.99880002
,,,,,,,,,,,,,,,,,brülösözünk,brülöslünk,right,5.0371,0,137,137,109,1,2,brülöslik / brülösözik,"brülöslik, brülösözni",ünk,NA,"János imád brülösözni, ezért sokat brülöslik.",Mi ritkán...,brülöslünk,brülösözünk,cselekszik,-lik,2,PR2080,1991,nő,igen,2022-04-19_13h43.49.136,hesp_baseline,2021.2.3,Linux x86_64,59.99880002
,,,,,,,,,,,,,,,,,nyülököznek,nyülöklenek,right,4.4015,0,138,138,108,1,1,nyülöklik / nyülöközik,"nyülöklik, nyülöközni",nek,NA,"János imád nyülöközni, ezért sokat nyülöklik.",Ők ritkán...,nyülöklenek,nyülököznek,cselekszik,-lik,2,PR2080,1991,nő,igen,2022-04-19_13h43.49.136,hesp_baseline,2021.2.3,Linux x86_64,59.99880002
,,,,,,,,,,,,,,,,,spilágzom,spilágzok,right,5.2592,0,139,139,76,1,23,spilágzik,spilágzol,NA,NA,Te bizony sokat spilágzol.,Én is sokat...,spilágzok,spilágzom,lakik,-zik,2,PR2080,1991,nő,igen,2022-04-19_13h43.49.136,hesp_baseline,2021.2.3,Linux x86_64,59.99880002
,,,,,,,,,,,,,,,,,spihemlem,spihemlek,right,5.0909,0,140,140,94,1,41,spihemlik,spihemlesz,NA,NA,Te bizony sokat spihemlesz.,Én is sokat...,spihemlek,spihemlem,lakik,-lik,2,PR2080,1991,nő,igen,2022-04-19_13h43.49.136,hesp_baseline,2021.2.3,Linux x86_64,59.99880002
,,,,,,,,,,,,,,,,,frirozunk,frirzunk,right,10.4131,0,141,141,129,1,22,frirzik / frirozik,"frirzik, frirozni",ünk,NA,"János imád frirozni, ezért sokat frirzik.",Mi ritkán...,frirzunk,frirozunk,cselekszik,-zik,1,PR2080,1991,nő,igen,2022-04-19_13h43.49.136,hesp_baseline,2021.2.3,Linux x86_64,59.99880002
,,,,,,,,,,,,,,,,,lumézban,lumézben,right,3.0831,0,142,142,32,1,33,luméz,luméz,ban,é,Ez itt egy luméz.,Ott vagyunk a...,lumézben,lumézban,dzsungel,NA,NA,PR2080,1991,nő,igen,2022-04-19_13h43.49.136,hesp_baseline,2021.2.3,Linux x86_64,59.99880002
,,,,,,,,,,,,,,,,,kliszernál,kliszernél,right,2.9838,0,143,143,31,1,32,kliszer,kliszer,nál,e,Ez itt egy kliszer.,Nincs is jobb egy jó...,kliszernél,kliszernál,dzsungel,NA,NA,PR2080,1991,nő,igen,2022-04-19_13h43.49.136,hesp_baseline,2021.2.3,Linux x86_64,59.99880002
,,,,,,,,,,,,,,,,,spivejeznek,spivejlenek,left,5.4156,0,144,144,125,1,18,spivejlik / spivejezik,"spivejlik, spivejezni",nek,NA,"János imád spivejezni, ezért sokat spivejlik.",Ők ritkán...,spivejlenek,spivejeznek,cselekszik,-lik,2,PR2080,1991,nő,igen,2022-04-19_13h43.49.136,hesp_baseline,2021.2.3,Linux x86_64,59.99880002
,,,,,,,,,,,,,,,,,spibaklok,spibaklom,right,3.7819,0,145,145,55,1,2,spibaklik,spibaklasz,NA,NA,Te bizony sokat spibaklasz.,Én is sokat...,spibaklok,spibaklom,lakik,-lik,2,PR2080,1991,nő,igen,2022-04-19_13h43.49.136,hesp_baseline,2021.2.3,Linux x86_64,59.99880002
,,,,,,,,,,,,,,,,,sztrajoznak,sztrajlanak,right,9.6973,0,146,146,144,1,37,sztrajlik / sztrajozik,"sztrajlik, sztrajozni",nek,NA,"János imád sztrajozni, ezért sokat sztrajlik.",Ők ritkán...,sztrajlanak,sztrajoznak,cselekszik,-lik,1,PR2080,1991,nő,igen,2022-04-19_13h43.49.136,hesp_baseline,2021.2.3,Linux x86_64,59.99880002
,,,,,,,,,,,,,,,,,aglom,aglok,left,2.7878,0,147,147,100,1,47,aglik,aglasz,NA,NA,Te bizony sokat aglasz.,Én is sokat...,aglok,aglom,lakik,-lik,1,PR2080,1991,nő,igen,2022-04-19_13h43.49.136,hesp_baseline,2021.2.3,Linux x86_64,59.99880002
,,,,,,,,,,,,,,,,,vodépnek,vodépnak,left,3.8676,0,148,148,41,1,42,vodép,vodép,nak,é,Ez itt egy vodép.,Elneveztem a kutyámat...,vodépnek,vodépnak,dzsungel,NA,NA,PR2080,1991,nő,igen,2022-04-19_13h43.49.136,hesp_baseline,2021.2.3,Linux x86_64,59.99880002
,,,,,,,,,,,,,,,,,küsözünk,küslünk,right,4.0203,0,149,149,141,1,34,küslik / küsözik,"küslik, küsözni",ünk,NA,"János imád küsözni, ezért sokat küslik.",Mi ritkán...,küslünk,küsözünk,cselekszik,-lik,1,PR2080,1991,nő,igen,2022-04-19_13h43.49.136,hesp_baseline,2021.2.3,Linux x86_64,59.99880002
,,,,,,,,,,,,,,,,,herégszek,herégszem,right,3.1342,0,150,150,54,1,1,herégszik,herégszel,NA,NA,Te bizony sokat herégszel.,Én is sokat...,herégszek,herégszem,lakik,-szik,2,PR2080,1991,nő,igen,2022-04-19_13h43.49.136,hesp_baseline,2021.2.3,Linux x86_64,59.99880002
,,,,,,,,,,,,,,,,,dunkészban,dunkészben,right,2.2146,0,151,151,24,1,25,dunkész,dunkész,ban,é,Ez itt egy dunkész.,Ott vagyunk a...,dunkészben,dunkészban,dzsungel,NA,NA,PR2080,1991,nő,igen,2022-04-19_13h43.49.136,hesp_baseline,2021.2.3,Linux x86_64,59.99880002
,,,,,,,,,,,,,,,,,narádzom,narádzok,left,2.7982,0,152,152,63,1,10,narádzik,narádzol,NA,NA,Te bizony sokat narádzol.,Én is sokat...,narádzok,narádzom,lakik,-zik,2,PR2080,1991,nő,igen,2022-04-19_13h43.49.136,hesp_baseline,2021.2.3,Linux x86_64,59.99880002
,,,,,,,,,,,,,,,,,prilegzek,prilegzem,right,3.657,0,153,153,79,1,26,prilegzik,prilegzel,NA,NA,Te bizony sokat prilegzel.,Én is sokat...,prilegzek,prilegzem,lakik,-zik,2,PR2080,1991,nő,igen,2022-04-19_13h43.49.136,hesp_baseline,2021.2.3,Linux x86_64,59.99880002
,,,,,,,,,,,,,,,,,köszlötök,köszöztök,left,4.0474,0,154,154,120,1,13,köszlik / köszözik,"köszlik, köszözni",tek,NA,"János imád köszözni, ezért sokat köszlik.",Ti ritkán...,köszlötök,köszöztök,cselekszik,-lik,1,PR2080,1991,nő,igen,2022-04-19_13h43.49.136,hesp_baseline,2021.2.3,Linux x86_64,59.99880002
,,,,,,,,,,,,,,,,,brivaklotok,brivakoztok,left,5.6362,0,155,155,134,1,27,brivaklik / brivakozik,"brivaklik, brivakozni",tek,NA,"János imád brivakozni, ezért sokat brivaklik.",Ti ritkán...,brivaklotok,brivakoztok,cselekszik,-lik,2,PR2080,1991,nő,igen,2022-04-19_13h43.49.136,hesp_baseline,2021.2.3,Linux x86_64,59.99880002
,,,,,,,,,,,,,,,,,gihejlünk,gihejezünk,right,5.4158,0,156,156,146,1,39,gihejlik / gihejezik,"gihejlik, gihejezni",ünk,NA,"János imád gihejezni, ezért sokat gihejlik.",Mi ritkán...,gihejlünk,gihejezünk,cselekszik,-lik,2,PR2080,1991,nő,igen,2022-04-19_13h43.49.136,hesp_baseline,2021.2.3,Linux x86_64,59.99880002
,,,,,,,,,,,,,,,,,hurjorzok,hurjorzom,left,5.3158,0,157,157,59,1,6,hurjorzik,hurjorzol,NA,NA,Te bizony sokat hurjorzol.,Én is sokat...,hurjorzok,hurjorzom,lakik,-zik,2,PR2080,1991,nő,igen,2022-04-19_13h43.49.136,hesp_baseline,2021.2.3,Linux x86_64,59.99880002
,,,,,,,,,,,,,,,,,szibedben,szibedban,left,1.9328,0,158,158,47,1,48,szibed,szibed,ban,e,Ez itt egy szibed.,Ott vagyunk a...,szibedben,szibedban,dzsungel,NA,NA,PR2080,1991,nő,igen,2022-04-19_13h43.49.136,hesp_baseline,2021.2.3,Linux x86_64,59.99880002
,,,,,,,,,,,,,,,,,dujoznak,dujzanak,left,5.3383,0,159,159,128,1,21,dujzik / dujozik,"dujzik, dujozni",nek,NA,"János imád dujozni, ezért sokat dujzik.",Ők ritkán...,dujzanak,dujoznak,cselekszik,-zik,1,PR2080,1991,nő,igen,2022-04-19_13h43.49.136,hesp_baseline,2021.2.3,Linux x86_64,59.99880002
,,,,,,,,,,,,,,,,,plövőrzöm,plövőrzök,right,4.1251,0,160,160,58,1,5,plövőrzik,plövőrzöl,NA,NA,Te bizony sokat plövőrzöl.,Én is sokat...,plövőrzök,plövőrzöm,lakik,-zik,2,PR2080,1991,nő,igen,2022-04-19_13h43.49.136,hesp_baseline,2021.2.3,Linux x86_64,59.99880002
,,,,,,,,,,,,,,,,,jorzégnak,jorzégnek,right,2.8672,0,161,161,45,1,46,jorzég,jorzég,nak,é,Ez itt egy jorzég.,Elneveztem a kutyámat...,jorzégnek,jorzégnak,dzsungel,NA,NA,PR2080,1991,nő,igen,2022-04-19_13h43.49.136,hesp_baseline,2021.2.3,Linux x86_64,59.99880002
