my_list,key.keys,key.rt,key_2.keys,key_2.rt,keyboard_input_2.keys,keyboard_input_2.rt,key_3.keys,key_3.rt,keyboard_input_3.keys,keyboard_input_3.rt,key_4.keys,key_4.rt,keyboard_input_4.keys,keyboard_input_4.rt,key_5.keys,key_5.rt,my_button1,my_button2,keyboard_input.keys,keyboard_input.rt,withinBlock.thisRepN,withinBlock.thisTrialN,withinBlock.thisN,withinBlock.thisIndex,withinBlock.ran,rowname,word,prompt,suffix,vowel,carrier_sentence,target_sentence,target1,target2,category,derivational,nsyl,Azonosító,Melyik évben születtél?,Mi a nemed?,Tanultál nyelvészetet?,date,expName,psychopyVersion,OS,frameRate
list3.csv,space,21.8595,space,8.8617,right,7.4938,space,22.5601,right,16.2302,space,8.9105,left,11.2338,space,19.1885,treglem,treglek,right,10.2883,0,0,0,81,1,136,treglik,treglesz,NA,NA,Te bizony sokat treglesz.,Én is sokat...,treglek,treglem,lakik,-lik,1,PR2013,2001,férfi,nem,2022-04-05_15h38.40.047,hesp_baseline,2021.2.3,Win32,62.56647688
,,,,,,,,,,,,,,,,,gerénylek,gerénylem,left,11.3966,0,1,1,99,1,154,gerénylik,gerénylesz,NA,NA,Te bizony sokat gerénylesz.,Én is sokat...,gerénylek,gerénylem,lakik,-lik,2,PR2013,2001,férfi,nem,2022-04-05_15h38.40.047,hesp_baseline,2021.2.3,Win32,62.56647688
,,,,,,,,,,,,,,,,,mülőrözünk,mülőrzünk,left,27.8145,0,2,2,120,1,121,mülőrzik / mülőrözik,"mülőrzik, mülőrözni",ünk,NA,"János imád mülőrözni, ezért sokat mülőrzik.",Mi ritkán...,mülőrzünk,mülőrözünk,cselekszik,-zik,2,PR2013,2001,férfi,nem,2022-04-05_15h38.40.047,hesp_baseline,2021.2.3,Win32,62.56647688
,,,,,,,,,,,,,,,,,brüröznek,brürzenek,left,11.8029,0,3,3,110,1,111,brürzik / brürözik,"brürzik, brürözni",nek,NA,"János imád brürözni, ezért sokat brürzik.",Ők ritkán...,brürzenek,brüröznek,cselekszik,-zik,1,PR2013,2001,férfi,nem,2022-04-05_15h38.40.047,hesp_baseline,2021.2.3,Win32,62.56647688
,,,,,,,,,,,,,,,,,frivajlok,frivajlom,left,4.6782,0,4,4,78,1,133,frivajlik,frivajlasz,NA,NA,Te bizony sokat frivajlasz.,Én is sokat...,frivajlok,frivajlom,lakik,-lik,2,PR2013,2001,férfi,nem,2022-04-05_15h38.40.047,hesp_baseline,2021.2.3,Win32,62.56647688
,,,,,,,,,,,,,,,,,prűrlöm,prűrlök,right,7.4438,0,5,5,75,1,130,prűrlik,prűrlesz,NA,NA,Te bizony sokat prűrlesz.,Én is sokat...,prűrlök,prűrlöm,lakik,-lik,1,PR2013,2001,férfi,nem,2022-04-05_15h38.40.047,hesp_baseline,2021.2.3,Win32,62.56647688
,,,,,,,,,,,,,,,,,sűjlünk,sűjözünk,right,28.4459,0,6,6,128,1,129,sűjlik / sűjözik,"sűjlik, sűjözni",ünk,NA,"János imád sűjözni, ezért sokat sűjlik.",Mi ritkán...,sűjlünk,sűjözünk,cselekszik,-lik,1,PR2013,2001,férfi,nem,2022-04-05_15h38.40.047,hesp_baseline,2021.2.3,Win32,62.56647688
,,,,,,,,,,,,,,,,,sprökszök,sprökszöm,right,26.2945,0,7,7,88,1,143,sprökszik,sprökszöl,NA,NA,Te bizony sokat sprökszöl.,Én is sokat...,sprökszök,sprökszöm,lakik,-szik,1,PR2013,2001,férfi,nem,2022-04-05_15h38.40.047,hesp_baseline,2021.2.3,Win32,62.56647688
,,,,,,,,,,,,,,,,,pristélben,pristélban,left,6.7737,0,8,8,1,1,110,pristél,pristél,ban,é,Ez itt egy pristél.,Ott vagyunk a...,pristélben,pristélban,dzsungel,NA,NA,PR2013,2001,férfi,nem,2022-04-05_15h38.40.047,hesp_baseline,2021.2.3,Win32,62.56647688
,,,,,,,,,,,,,,,,,klivaslom,klivaslok,right,8.4302,0,9,9,62,1,117,klivaslik,klivaslasz,NA,NA,Te bizony sokat klivaslasz.,Én is sokat...,klivaslok,klivaslom,lakik,-lik,2,PR2013,2001,férfi,nem,2022-04-05_15h38.40.047,hesp_baseline,2021.2.3,Win32,62.56647688
,,,,,,,,,,,,,,,,,lumlotok,lumoztok,left,23.0177,0,10,10,149,1,150,lumlik / lumozik,"lumlik, lumozni",tek,NA,"János imád lumozni, ezért sokat lumlik.",Ti ritkán...,lumlotok,lumoztok,cselekszik,-lik,1,PR2013,2001,férfi,nem,2022-04-05_15h38.40.047,hesp_baseline,2021.2.3,Win32,62.56647688
,,,,,,,,,,,,,,,,,brűklötök,brűköztök,left,16.2462,0,11,11,153,1,154,brűklik / brűközik,"brűklik, brűközni",tek,NA,"János imád brűközni, ezért sokat brűklik.",Ti ritkán...,brűklötök,brűköztök,cselekszik,-lik,1,PR2013,2001,férfi,nem,2022-04-05_15h38.40.047,hesp_baseline,2021.2.3,Win32,62.56647688
,,,,,,,,,,,,,,,,,gótemnek,gótemnak,left,8.6548,0,12,12,35,1,144,gótem,gótem,nak,e,Ez itt egy gótem.,Elneveztem a kutyámat...,gótemnek,gótemnak,dzsungel,NA,NA,PR2013,2001,férfi,nem,2022-04-05_15h38.40.047,hesp_baseline,2021.2.3,Win32,62.56647688
,,,,,,,,,,,,,,,,,dibezban,dibezben,right,3.778,0,13,13,27,1,136,dibez,dibez,ban,e,Ez itt egy dibez.,Ott vagyunk a...,dibezben,dibezban,dzsungel,NA,NA,PR2013,2001,férfi,nem,2022-04-05_15h38.40.047,hesp_baseline,2021.2.3,Win32,62.56647688
,,,,,,,,,,,,,,,,,nyupérnél,nyupérnál,right,8.6573,0,14,14,52,1,161,nyupér,nyupér,nál,é,Ez itt egy nyupér.,Nincs is jobb egy jó...,nyupérnél,nyupérnál,dzsungel,NA,NA,PR2013,2001,férfi,nem,2022-04-05_15h38.40.047,hesp_baseline,2021.2.3,Win32,62.56647688
,,,,,,,,,,,,,,,,,rájzok,rájzom,left,11.4125,0,15,15,70,1,125,rájzik,rájzol,NA,NA,Te bizony sokat rájzol.,Én is sokat...,rájzok,rájzom,lakik,-zik,1,PR2013,2001,férfi,nem,2022-04-05_15h38.40.047,hesp_baseline,2021.2.3,Win32,62.56647688
,,,,,,,,,,,,,,,,,gyibakszom,gyibakszok,left,8.1828,0,16,16,57,1,112,gyibakszik,gyibakszol,NA,NA,Te bizony sokat gyibakszol.,Én is sokat...,gyibakszok,gyibakszom,lakik,-szik,2,PR2013,2001,férfi,nem,2022-04-05_15h38.40.047,hesp_baseline,2021.2.3,Win32,62.56647688
,,,,,,,,,,,,,,,,,briskédnál,briskédnél,right,6.6147,0,17,17,51,1,160,briskéd,briskéd,nál,é,Ez itt egy briskéd.,Nincs is jobb egy jó...,briskédnél,briskédnál,dzsungel,NA,NA,PR2013,2001,férfi,nem,2022-04-05_15h38.40.047,hesp_baseline,2021.2.3,Win32,62.56647688
,,,,,,,,,,,,,,,,,zsádévnak,zsádévnek,left,7.1336,0,18,18,20,1,129,zsádév,zsádév,nak,é,Ez itt egy zsádév.,Elneveztem a kutyámat...,zsádévnek,zsádévnak,dzsungel,NA,NA,PR2013,2001,férfi,nem,2022-04-05_15h38.40.047,hesp_baseline,2021.2.3,Win32,62.56647688
,,,,,,,,,,,,,,,,,bupézben,bupézban,right,13.057,0,19,19,48,1,157,bupéz,bupéz,ban,é,Ez itt egy bupéz.,Ott vagyunk a...,bupézben,bupézban,dzsungel,NA,NA,PR2013,2001,férfi,nem,2022-04-05_15h38.40.047,hesp_baseline,2021.2.3,Win32,62.56647688
,,,,,,,,,,,,,,,,,fliraklom,fliraklok,left,7.4467,0,20,20,98,1,153,fliraklik,fliraklasz,NA,NA,Te bizony sokat fliraklasz.,Én is sokat...,fliraklok,fliraklom,lakik,-lik,2,PR2013,2001,férfi,nem,2022-04-05_15h38.40.047,hesp_baseline,2021.2.3,Win32,62.56647688
,,,,,,,,,,,,,,,,,böjzöm,böjzök,right,3.8989,0,21,21,80,1,135,böjzik,böjzöl,NA,NA,Te bizony sokat böjzöl.,Én is sokat...,böjzök,böjzöm,lakik,-zik,1,PR2013,2001,férfi,nem,2022-04-05_15h38.40.047,hesp_baseline,2021.2.3,Win32,62.56647688
,,,,,,,,,,,,,,,,,viroznak,virzanak,right,10.1305,0,22,22,125,1,126,virzik / virozik,"virzik, virozni",nek,NA,"János imád virozni, ezért sokat virzik.",Ők ritkán...,virzanak,viroznak,cselekszik,-zik,1,PR2013,2001,férfi,nem,2022-04-05_15h38.40.047,hesp_baseline,2021.2.3,Win32,62.56647688
,,,,,,,,,,,,,,,,,pragánylotok,pragányoztok,left,15.0391,0,23,23,133,1,134,pragánylik / pragányozik,"pragánylik, pragányozni",tek,NA,"János imád pragányozni, ezért sokat pragánylik.",Ti ritkán...,pragánylotok,pragányoztok,cselekszik,-lik,2,PR2013,2001,férfi,nem,2022-04-05_15h38.40.047,hesp_baseline,2021.2.3,Win32,62.56647688
,,,,,,,,,,,,,,,,,narjárzok,narjárzom,left,7.9787,0,24,24,61,1,116,narjárzik,narjárzol,NA,NA,Te bizony sokat narjárzol.,Én is sokat...,narjárzok,narjárzom,lakik,-zik,2,PR2013,2001,férfi,nem,2022-04-05_15h38.40.047,hesp_baseline,2021.2.3,Win32,62.56647688
,,,,,,,,,,,,,,,,,brálamoznak,brálamlanak,left,13.8689,0,25,25,144,1,145,brálamlik / brálamozik,"brálamlik, brálamozni",nek,NA,"János imád brálamozni, ezért sokat brálamlik.",Ők ritkán...,brálamlanak,brálamoznak,cselekszik,-lik,2,PR2013,2001,férfi,nem,2022-04-05_15h38.40.047,hesp_baseline,2021.2.3,Win32,62.56647688
,,,,,,,,,,,,,,,,,klárzok,klárzom,right,4.764,0,26,26,85,1,140,klárzik,klárzol,NA,NA,Te bizony sokat klárzol.,Én is sokat...,klárzok,klárzom,lakik,-zik,1,PR2013,2001,férfi,nem,2022-04-05_15h38.40.047,hesp_baseline,2021.2.3,Win32,62.56647688
,,,,,,,,,,,,,,,,,lismévben,lismévban,left,4.1658,0,27,27,0,1,109,lismév,lismév,ban,é,Ez itt egy lismév.,Ott vagyunk a...,lismévben,lismévban,dzsungel,NA,NA,PR2013,2001,férfi,nem,2022-04-05_15h38.40.047,hesp_baseline,2021.2.3,Win32,62.56647688
,,,,,,,,,,,,,,,,,zödlök,zödlöm,left,5.9368,0,28,28,106,1,161,zödlik,zödlesz,NA,NA,Te bizony sokat zödlesz.,Én is sokat...,zödlök,zödlöm,lakik,-lik,1,PR2013,2001,férfi,nem,2022-04-05_15h38.40.047,hesp_baseline,2021.2.3,Win32,62.56647688
,,,,,,,,,,,,,,,,,sűzlöm,sűzlök,left,8.1252,0,29,29,54,1,109,sűzlik,sűzlesz,NA,NA,Te bizony sokat sűzlesz.,Én is sokat...,sűzlök,sűzlöm,lakik,-lik,1,PR2013,2001,férfi,nem,2022-04-05_15h38.40.047,hesp_baseline,2021.2.3,Win32,62.56647688
,,,,,,,,,,,,,,,,,nágapodnak,nágapszanak,left,9.2139,0,30,30,152,1,153,nágapszik / nágapodik,"nágapszik, nágapodni",nek,NA,"János imád nágapodni, ezért sokat nágapszik.",Ők ritkán...,nágapszanak,nágapodnak,cselekszik,-szik,2,PR2013,2001,férfi,nem,2022-04-05_15h38.40.047,hesp_baseline,2021.2.3,Win32,62.56647688
,,,,,,,,,,,,,,,,,spibamoznak,spibamlanak,right,8.3196,0,31,31,142,1,143,spibamlik / spibamozik,"spibamlik, spibamozni",nek,NA,"János imád spibamozni, ezért sokat spibamlik.",Ők ritkán...,spibamlanak,spibamoznak,cselekszik,-lik,2,PR2013,2001,férfi,nem,2022-04-05_15h38.40.047,hesp_baseline,2021.2.3,Win32,62.56647688
,,,,,,,,,,,,,,,,,szutendben,szutendban,left,9.4017,0,32,32,11,1,120,szutend,szutend,ban,e,Ez itt egy szutend.,Ott vagyunk a...,szutendben,szutendban,dzsungel,NA,NA,PR2013,2001,férfi,nem,2022-04-05_15h38.40.047,hesp_baseline,2021.2.3,Win32,62.56647688
,,,,,,,,,,,,,,,,,spülőrzök,spülőrzöm,left,6.2526,0,33,33,69,1,124,spülőrzik,spülőrzöl,NA,NA,Te bizony sokat spülőrzöl.,Én is sokat...,spülőrzök,spülőrzöm,lakik,-zik,2,PR2013,2001,férfi,nem,2022-04-05_15h38.40.047,hesp_baseline,2021.2.3,Win32,62.56647688
,,,,,,,,,,,,,,,,,vurnelnek,vurnelnak,right,5.0749,0,34,34,50,1,159,vurnel,vurnel,nak,e,Ez itt egy vurnel.,Elneveztem a kutyámat...,vurnelnek,vurnelnak,dzsungel,NA,NA,PR2013,2001,férfi,nem,2022-04-05_15h38.40.047,hesp_baseline,2021.2.3,Win32,62.56647688
,,,,,,,,,,,,,,,,,hágyétnek,hágyétnak,right,5.1905,0,35,35,42,1,151,hágyét,hágyét,nak,é,Ez itt egy hágyét.,Elneveztem a kutyámat...,hágyétnek,hágyétnak,dzsungel,NA,NA,PR2013,2001,férfi,nem,2022-04-05_15h38.40.047,hesp_baseline,2021.2.3,Win32,62.56647688
,,,,,,,,,,,,,,,,,nyáslom,nyáslok,right,11.4889,0,36,36,100,1,155,nyáslik,nyáslasz,NA,NA,Te bizony sokat nyáslasz.,Én is sokat...,nyáslok,nyáslom,lakik,-lik,1,PR2013,2001,férfi,nem,2022-04-05_15h38.40.047,hesp_baseline,2021.2.3,Win32,62.56647688
,,,,,,,,,,,,,,,,,finceknál,finceknél,right,5.7397,0,37,37,9,1,118,fincek,fincek,nál,e,Ez itt egy fincek.,Nincs is jobb egy jó...,finceknél,finceknál,dzsungel,NA,NA,PR2013,2001,férfi,nem,2022-04-05_15h38.40.047,hesp_baseline,2021.2.3,Win32,62.56647688
,,,,,,,,,,,,,,,,,frálapszotok,frálapodtok,right,5.6039,0,38,38,150,1,151,frálapszik / frálapodik,"frálapszik, frálapodni",tek,NA,"János imád frálapodni, ezért sokat frálapszik.",Ti ritkán...,frálapszotok,frálapodtok,cselekszik,-szik,2,PR2013,2001,férfi,nem,2022-04-05_15h38.40.047,hesp_baseline,2021.2.3,Win32,62.56647688
,,,,,,,,,,,,,,,,,triképban,triképben,right,5.3793,0,39,39,33,1,142,trikép,trikép,ban,é,Ez itt egy trikép.,Ott vagyunk a...,triképben,triképban,dzsungel,NA,NA,PR2013,2001,férfi,nem,2022-04-05_15h38.40.047,hesp_baseline,2021.2.3,Win32,62.56647688
,,,,,,,,,,,,,,,,,gicéjnál,gicéjnél,right,4.4773,0,40,40,17,1,126,gicéj,gicéj,nál,é,Ez itt egy gicéj.,Nincs is jobb egy jó...,gicéjnél,gicéjnál,dzsungel,NA,NA,PR2013,2001,férfi,nem,2022-04-05_15h38.40.047,hesp_baseline,2021.2.3,Win32,62.56647688
,,,,,,,,,,,,,,,,,dalencnál,dalencnél,left,4.5189,0,41,41,31,1,140,dalenc,dalenc,nál,e,Ez itt egy dalenc.,Nincs is jobb egy jó...,dalencnél,dalencnál,dzsungel,NA,NA,PR2013,2001,férfi,nem,2022-04-05_15h38.40.047,hesp_baseline,2021.2.3,Win32,62.56647688
,,,,,,,,,,,,,,,,,tuboklok,tuboklom,left,15.0837,0,42,42,84,1,139,tuboklik,tuboklasz,NA,NA,Te bizony sokat tuboklasz.,Én is sokat...,tuboklok,tuboklom,lakik,-lik,2,PR2013,2001,férfi,nem,2022-04-05_15h38.40.047,hesp_baseline,2021.2.3,Win32,62.56647688
,,,,,,,,,,,,,,,,,sztrozlom,sztrozlok,right,7.665,0,43,43,104,1,159,sztrozlik,sztrozlasz,NA,NA,Te bizony sokat sztrozlasz.,Én is sokat...,sztrozlok,sztrozlom,lakik,-lik,1,PR2013,2001,férfi,nem,2022-04-05_15h38.40.047,hesp_baseline,2021.2.3,Win32,62.56647688
,,,,,,,,,,,,,,,,,flátoztok,flátlotok,right,7.4541,0,44,44,132,1,133,flátlik / flátozik,"flátlik, flátozni",tek,NA,"János imád flátozni, ezért sokat flátlik.",Ti ritkán...,flátlotok,flátoztok,cselekszik,-lik,1,PR2013,2001,férfi,nem,2022-04-05_15h38.40.047,hesp_baseline,2021.2.3,Win32,62.56647688
,,,,,,,,,,,,,,,,,trájegban,trájegben,right,5.8404,0,45,45,14,1,123,trájeg,trájeg,ban,e,Ez itt egy trájeg.,Ott vagyunk a...,trájegben,trájegban,dzsungel,NA,NA,PR2013,2001,férfi,nem,2022-04-05_15h38.40.047,hesp_baseline,2021.2.3,Win32,62.56647688
,,,,,,,,,,,,,,,,,brukésznél,brukésznál,left,4.3171,0,46,46,10,1,119,brukész,brukész,nál,é,Ez itt egy brukész.,Nincs is jobb egy jó...,brukésznél,brukésznál,dzsungel,NA,NA,PR2013,2001,férfi,nem,2022-04-05_15h38.40.047,hesp_baseline,2021.2.3,Win32,62.56647688
,,,,,,,,,,,,,,,,,drubódzom,drubódzok,left,4.3671,0,47,47,63,1,118,drubódzik,drubódzol,NA,NA,Te bizony sokat drubódzol.,Én is sokat...,drubódzok,drubódzom,lakik,-zik,2,PR2013,2001,férfi,nem,2022-04-05_15h38.40.047,hesp_baseline,2021.2.3,Win32,62.56647688
,,,,,,,,,,,,,,,,,büglök,büglöm,left,8.25,0,48,48,101,1,156,büglik,büglesz,NA,NA,Te bizony sokat büglesz.,Én is sokat...,büglök,büglöm,lakik,-lik,1,PR2013,2001,férfi,nem,2022-04-05_15h38.40.047,hesp_baseline,2021.2.3,Win32,62.56647688
,,,,,,,,,,,,,,,,,spanélnál,spanélnél,right,10.529,0,49,49,24,1,133,spanél,spanél,nál,é,Ez itt egy spanél.,Nincs is jobb egy jó...,spanélnél,spanélnál,dzsungel,NA,NA,PR2013,2001,férfi,nem,2022-04-05_15h38.40.047,hesp_baseline,2021.2.3,Win32,62.56647688
,,,,,,,,,,,,,,,,,lűköznek,lűklenek,left,14.7202,0,50,50,136,1,137,lűklik / lűközik,"lűklik, lűközni",nek,NA,"János imád lűközni, ezért sokat lűklik.",Ők ritkán...,lűklenek,lűköznek,cselekszik,-lik,1,PR2013,2001,férfi,nem,2022-04-05_15h38.40.047,hesp_baseline,2021.2.3,Win32,62.56647688
,,,,,,,,,,,,,,,,,trismélnek,trismélnak,left,3.0361,0,51,51,5,1,114,trismél,trismél,nak,é,Ez itt egy trismél.,Elneveztem a kutyámat...,trismélnek,trismélnak,dzsungel,NA,NA,PR2013,2001,férfi,nem,2022-04-05_15h38.40.047,hesp_baseline,2021.2.3,Win32,62.56647688
,,,,,,,,,,,,,,,,,bidemben,bidemban,left,3.3904,0,52,52,2,1,111,bidem,bidem,ban,e,Ez itt egy bidem.,Ott vagyunk a...,bidemben,bidemban,dzsungel,NA,NA,PR2013,2001,férfi,nem,2022-04-05_15h38.40.047,hesp_baseline,2021.2.3,Win32,62.56647688
,,,,,,,,,,,,,,,,,klibamlom,klibamlok,right,7.4102,0,53,53,92,1,147,klibamlik,klibamlasz,NA,NA,Te bizony sokat klibamlasz.,Én is sokat...,klibamlok,klibamlom,lakik,-lik,2,PR2013,2001,férfi,nem,2022-04-05_15h38.40.047,hesp_baseline,2021.2.3,Win32,62.56647688
,,,,,,,,,,,,,,,,,zinednak,zinednek,right,5.725,0,54,54,22,1,131,zined,zined,nak,e,Ez itt egy zined.,Elneveztem a kutyámat...,zinednek,zinednak,dzsungel,NA,NA,PR2013,2001,férfi,nem,2022-04-05_15h38.40.047,hesp_baseline,2021.2.3,Win32,62.56647688
,,,,,,,,,,,,,,,,,klégezünk,kléglünk,right,4.3285,0,55,55,122,1,123,kléglik / klégezik,"kléglik, klégezni",ünk,NA,"János imád klégezni, ezért sokat kléglik.",Mi ritkán...,kléglünk,klégezünk,cselekszik,-lik,1,PR2013,2001,férfi,nem,2022-04-05_15h38.40.047,hesp_baseline,2021.2.3,Win32,62.56647688
,,,,,,,,,,,,,,,,,brindeznek,brindeznak,left,5.7901,0,56,56,6,1,115,brindez,brindez,nak,e,Ez itt egy brindez.,Elneveztem a kutyámat...,brindeznek,brindeznak,dzsungel,NA,NA,PR2013,2001,férfi,nem,2022-04-05_15h38.40.047,hesp_baseline,2021.2.3,Win32,62.56647688
,,,,,,,,,,,,,,,,,triklotok,trikoztok,left,13.007,0,57,57,160,1,161,triklik / trikozik,"triklik, trikozni",tek,NA,"János imád trikozni, ezért sokat triklik.",Ti ritkán...,triklotok,trikoztok,cselekszik,-lik,1,PR2013,2001,férfi,nem,2022-04-05_15h38.40.047,hesp_baseline,2021.2.3,Win32,62.56647688
,,,,,,,,,,,,,,,,,nyítemban,nyítemben,right,4.6227,0,58,58,41,1,150,nyítem,nyítem,ban,e,Ez itt egy nyítem.,Ott vagyunk a...,nyítemben,nyítemban,dzsungel,NA,NA,PR2013,2001,férfi,nem,2022-04-05_15h38.40.047,hesp_baseline,2021.2.3,Win32,62.56647688
,,,,,,,,,,,,,,,,,ribegszetek,ribegedtek,right,16.036,0,59,59,141,1,142,ribegszik / ribegedik,"ribegszik, ribegedni",tek,NA,"János imád ribegedni, ezért sokat ribegszik.",Ti ritkán...,ribegszetek,ribegedtek,cselekszik,-szik,2,PR2013,2001,férfi,nem,2022-04-05_15h38.40.047,hesp_baseline,2021.2.3,Win32,62.56647688
,,,,,,,,,,,,,,,,,lájzotok,lájoztok,left,28.3008,0,60,60,159,1,160,lájzik / lájozik,"lájzik, lájozni",tek,NA,"János imád lájozni, ezért sokat lájzik.",Ti ritkán...,lájzotok,lájoztok,cselekszik,-zik,1,PR2013,2001,férfi,nem,2022-04-05_15h38.40.047,hesp_baseline,2021.2.3,Win32,62.56647688
,,,,,,,,,,,,,,,,,spüszlök,spüszlöm,right,7.4141,0,61,61,96,1,151,spüszlik,spüszlesz,NA,NA,Te bizony sokat spüszlesz.,Én is sokat...,spüszlök,spüszlöm,lakik,-lik,1,PR2013,2001,férfi,nem,2022-04-05_15h38.40.047,hesp_baseline,2021.2.3,Win32,62.56647688
,,,,,,,,,,,,,,,,,sprivencnál,sprivencnél,right,4.2901,0,62,62,13,1,122,sprivenc,sprivenc,nál,e,Ez itt egy sprivenc.,Nincs is jobb egy jó...,sprivencnél,sprivencnál,dzsungel,NA,NA,PR2013,2001,férfi,nem,2022-04-05_15h38.40.047,hesp_baseline,2021.2.3,Win32,62.56647688
,,,,,,,,,,,,,,,,,brivágoznak,briváglanak,left,6.0087,0,63,63,138,1,139,briváglik / brivágozik,"briváglik, brivágozni",nek,NA,"János imád brivágozni, ezért sokat briváglik.",Ők ritkán...,briváglanak,brivágoznak,cselekszik,-lik,2,PR2013,2001,férfi,nem,2022-04-05_15h38.40.047,hesp_baseline,2021.2.3,Win32,62.56647688
,,,,,,,,,,,,,,,,,trincsegban,trincsegben,right,4.8759,0,64,64,46,1,155,trincseg,trincseg,ban,e,Ez itt egy trincseg.,Ott vagyunk a...,trincsegben,trincsegban,dzsungel,NA,NA,PR2013,2001,férfi,nem,2022-04-05_15h38.40.047,hesp_baseline,2021.2.3,Win32,62.56647688
,,,,,,,,,,,,,,,,,trilekszetek,trilekedtek,right,9.9501,0,65,65,157,1,158,trilekszik / trilekedik,"trilekszik, trilekedni",tek,NA,"János imád trilekedni, ezért sokat trilekszik.",Ti ritkán...,trilekszetek,trilekedtek,cselekszik,-szik,2,PR2013,2001,férfi,nem,2022-04-05_15h38.40.047,hesp_baseline,2021.2.3,Win32,62.56647688
,,,,,,,,,,,,,,,,,bratárzanak,bratároznak,right,19.2876,0,66,66,108,1,109,bratárzik / bratározik,"bratárzik, bratározni",nek,NA,"János imád bratározni, ezért sokat bratárzik.",Ők ritkán...,bratárzanak,bratároznak,cselekszik,-zik,2,PR2013,2001,férfi,nem,2022-04-05_15h38.40.047,hesp_baseline,2021.2.3,Win32,62.56647688
,,,,,,,,,,,,,,,,,huméknak,huméknek,left,6.6202,0,67,67,23,1,132,humék,humék,nak,é,Ez itt egy humék.,Elneveztem a kutyámat...,huméknek,huméknak,dzsungel,NA,NA,PR2013,2001,férfi,nem,2022-04-05_15h38.40.047,hesp_baseline,2021.2.3,Win32,62.56647688
,,,,,,,,,,,,,,,,,bihánylok,bihánylom,left,6.5513,0,68,68,89,1,144,bihánylik,bihánylasz,NA,NA,Te bizony sokat bihánylasz.,Én is sokat...,bihánylok,bihánylom,lakik,-lik,2,PR2013,2001,férfi,nem,2022-04-05_15h38.40.047,hesp_baseline,2021.2.3,Win32,62.56647688
,,,,,,,,,,,,,,,,,ronszekben,ronszekban,left,5.6917,0,69,69,18,1,127,ronszek,ronszek,ban,e,Ez itt egy ronszek.,Ott vagyunk a...,ronszekben,ronszekban,dzsungel,NA,NA,PR2013,2001,férfi,nem,2022-04-05_15h38.40.047,hesp_baseline,2021.2.3,Win32,62.56647688
,,,,,,,,,,,,,,,,,hűgzök,hűgzöm,right,3.8601,0,70,70,107,1,162,hűgzik,hűgzöl,NA,NA,Te bizony sokat hűgzöl.,Én is sokat...,hűgzök,hűgzöm,lakik,-zik,1,PR2013,2001,férfi,nem,2022-04-05_15h38.40.047,hesp_baseline,2021.2.3,Win32,62.56647688
,,,,,,,,,,,,,,,,,spuménynek,spuménynak,right,4.8255,0,71,71,19,1,128,spumény,spumény,nak,é,Ez itt egy spumény.,Elneveztem a kutyámat...,spuménynek,spuménynak,dzsungel,NA,NA,PR2013,2001,férfi,nem,2022-04-05_15h38.40.047,hesp_baseline,2021.2.3,Win32,62.56647688
,,,,,,,,,,,,,,,,,féjzek,féjzem,left,3.7993,0,72,72,91,1,146,féjzik,féjzel,NA,NA,Te bizony sokat féjzel.,Én is sokat...,féjzek,féjzem,lakik,-zik,1,PR2013,2001,férfi,nem,2022-04-05_15h38.40.047,hesp_baseline,2021.2.3,Win32,62.56647688
,,,,,,,,,,,,,,,,,dorzéjnek,dorzéjnak,right,7.1275,0,73,73,29,1,138,dorzéj,dorzéj,nak,é,Ez itt egy dorzéj.,Elneveztem a kutyámat...,dorzéjnek,dorzéjnak,dzsungel,NA,NA,PR2013,2001,férfi,nem,2022-04-05_15h38.40.047,hesp_baseline,2021.2.3,Win32,62.56647688
,,,,,,,,,,,,,,,,,tibarzanak,tibaroznak,right,6.127,0,74,74,155,1,156,tibarzik / tibarozik,"tibarzik, tibarozni",nek,NA,"János imád tibarozni, ezért sokat tibarzik.",Ők ritkán...,tibarzanak,tibaroznak,cselekszik,-zik,2,PR2013,2001,férfi,nem,2022-04-05_15h38.40.047,hesp_baseline,2021.2.3,Win32,62.56647688
,,,,,,,,,,,,,,,,,vodecnél,vodecnál,right,5.7506,0,75,75,30,1,139,vodec,vodec,nál,e,Ez itt egy vodec.,Nincs is jobb egy jó...,vodecnél,vodecnál,dzsungel,NA,NA,PR2013,2001,férfi,nem,2022-04-05_15h38.40.047,hesp_baseline,2021.2.3,Win32,62.56647688
,,,,,,,,,,,,,,,,,klosétnak,klosétnek,left,7.4925,0,76,76,45,1,154,klosét,klosét,nak,é,Ez itt egy klosét.,Elneveztem a kutyámat...,klosétnek,klosétnak,dzsungel,NA,NA,PR2013,2001,férfi,nem,2022-04-05_15h38.40.047,hesp_baseline,2021.2.3,Win32,62.56647688
,,,,,,,,,,,,,,,,,jurdentnél,jurdentnál,right,4.2536,0,77,77,16,1,125,jurdent,jurdent,nál,e,Ez itt egy jurdent.,Nincs is jobb egy jó...,jurdentnél,jurdentnál,dzsungel,NA,NA,PR2013,2001,férfi,nem,2022-04-05_15h38.40.047,hesp_baseline,2021.2.3,Win32,62.56647688
,,,,,,,,,,,,,,,,,vihepszek,vihepszem,right,5.9576,0,78,78,59,1,114,vihepszik,vihepszel,NA,NA,Te bizony sokat vihepszel.,Én is sokat...,vihepszek,vihepszem,lakik,-szik,2,PR2013,2001,férfi,nem,2022-04-05_15h38.40.047,hesp_baseline,2021.2.3,Win32,62.56647688
,,,,,,,,,,,,,,,,,brüjlöm,brüjlök,right,6.7034,0,79,79,55,1,110,brüjlik,brüjlesz,NA,NA,Te bizony sokat brüjlesz.,Én is sokat...,brüjlök,brüjlöm,lakik,-lik,1,PR2013,2001,férfi,nem,2022-04-05_15h38.40.047,hesp_baseline,2021.2.3,Win32,62.56647688
,,,,,,,,,,,,,,,,,ibékszem,ibékszek,left,18.7709,0,80,80,95,1,150,ibékszik,ibékszel,NA,NA,Te bizony sokat ibékszel.,Én is sokat...,ibékszek,ibékszem,lakik,-szik,2,PR2013,2001,férfi,nem,2022-04-05_15h38.40.047,hesp_baseline,2021.2.3,Win32,62.56647688
,,,,,,,,,,,,,,,,,klétszek,klétszem,left,6.0615,0,81,81,60,1,115,klétszik,klétszel,NA,NA,Te bizony sokat klétszel.,Én is sokat...,klétszek,klétszem,lakik,-szik,1,PR2013,2001,férfi,nem,2022-04-05_15h38.40.047,hesp_baseline,2021.2.3,Win32,62.56647688
,,,,,,,,,,,,,,,,,spülöklök,spülöklöm,left,7.7328,0,82,82,56,1,111,spülöklik,spülöklesz,NA,NA,Te bizony sokat spülöklesz.,Én is sokat...,spülöklök,spülöklöm,lakik,-lik,2,PR2013,2001,férfi,nem,2022-04-05_15h38.40.047,hesp_baseline,2021.2.3,Win32,62.56647688
,,,,,,,,,,,,,,,,,trilszok,trilszom,right,6.1578,0,83,83,103,1,158,trilszik,trilszol,NA,NA,Te bizony sokat trilszol.,Én is sokat...,trilszok,trilszom,lakik,-szik,1,PR2013,2001,férfi,nem,2022-04-05_15h38.40.047,hesp_baseline,2021.2.3,Win32,62.56647688
,,,,,,,,,,,,,,,,,sztrűkszöm,sztrűkszök,left,12.7045,0,84,84,77,1,132,sztrűkszik,sztrűkszöl,NA,NA,Te bizony sokat sztrűkszöl.,Én is sokat...,sztrűkszök,sztrűkszöm,lakik,-szik,1,PR2013,2001,férfi,nem,2022-04-05_15h38.40.047,hesp_baseline,2021.2.3,Win32,62.56647688
,,,,,,,,,,,,,,,,,trűnylenek,trűnyöznek,left,8.1691,0,85,85,119,1,120,trűnylik / trűnyözik,"trűnylik, trűnyözni",nek,NA,"János imád trűnyözni, ezért sokat trűnylik.",Ők ritkán...,trűnylenek,trűnyöznek,cselekszik,-lik,1,PR2013,2001,férfi,nem,2022-04-05_15h38.40.047,hesp_baseline,2021.2.3,Win32,62.56647688
,,,,,,,,,,,,,,,,,prezlem,prezlek,right,9.9451,0,86,86,87,1,142,prezlik,prezlesz,NA,NA,Te bizony sokat prezlesz.,Én is sokat...,prezlek,prezlem,lakik,-lik,1,PR2013,2001,férfi,nem,2022-04-05_15h38.40.047,hesp_baseline,2021.2.3,Win32,62.56647688
,,,,,,,,,,,,,,,,,zsáderban,zsáderben,left,4.1494,0,87,87,25,1,134,zsáder,zsáder,ban,e,Ez itt egy zsáder.,Ott vagyunk a...,zsáderben,zsáderban,dzsungel,NA,NA,PR2013,2001,férfi,nem,2022-04-05_15h38.40.047,hesp_baseline,2021.2.3,Win32,62.56647688
,,,,,,,,,,,,,,,,,klarágzotok,klarágoztok,right,9.2726,0,88,88,114,1,115,klarágzik / klarágozik,"klarágzik, klarágozni",tek,NA,"János imád klarágozni, ezért sokat klarágzik.",Ti ritkán...,klarágzotok,klarágoztok,cselekszik,-zik,2,PR2013,2001,férfi,nem,2022-04-05_15h38.40.047,hesp_baseline,2021.2.3,Win32,62.56647688
,,,,,,,,,,,,,,,,,kábesznél,kábesznál,right,9.0478,0,89,89,44,1,153,kábesz,kábesz,nál,e,Ez itt egy kábesz.,Nincs is jobb egy jó...,kábesznél,kábesznál,dzsungel,NA,NA,PR2013,2001,férfi,nem,2022-04-05_15h38.40.047,hesp_baseline,2021.2.3,Win32,62.56647688
,,,,,,,,,,,,,,,,,gibemezünk,gibemlünk,left,7.6897,0,90,90,115,1,116,gibemlik / gibemezik,"gibemlik, gibemezni",ünk,NA,"János imád gibemezni, ezért sokat gibemlik.",Mi ritkán...,gibemlünk,gibemezünk,cselekszik,-lik,2,PR2013,2001,férfi,nem,2022-04-05_15h38.40.047,hesp_baseline,2021.2.3,Win32,62.56647688
,,,,,,,,,,,,,,,,,pribagszok,pribagszom,right,5.9622,0,91,91,76,1,131,pribagszik,pribagszol,NA,NA,Te bizony sokat pribagszol.,Én is sokat...,pribagszok,pribagszom,lakik,-szik,2,PR2013,2001,férfi,nem,2022-04-05_15h38.40.047,hesp_baseline,2021.2.3,Win32,62.56647688
,,,,,,,,,,,,,,,,,spalárzanak,spalároznak,right,7.8308,0,92,92,137,1,138,spalárzik / spalározik,"spalárzik, spalározni",nek,NA,"János imád spalározni, ezért sokat spalárzik.",Ők ritkán...,spalárzanak,spalároznak,cselekszik,-zik,2,PR2013,2001,férfi,nem,2022-04-05_15h38.40.047,hesp_baseline,2021.2.3,Win32,62.56647688
,,,,,,,,,,,,,,,,,vehékszünk,vehékedünk,left,145.7807,0,93,93,117,1,118,vehékszik / vehékedik,"vehékszik, vehékedni",ünk,NA,"János imád vehékedni, ezért sokat vehékszik.",Mi ritkán...,vehékszünk,vehékedünk,cselekszik,-szik,2,PR2013,2001,férfi,nem,2022-04-05_15h38.40.047,hesp_baseline,2021.2.3,Win32,62.56647688
,,,,,,,,,,,,,,,,,vileslünk,vilesezünk,left,275.1019,0,94,94,139,1,140,vileslik / vilesezik,"vileslik, vilesezni",ünk,NA,"János imád vilesezni, ezért sokat vileslik.",Mi ritkán...,vileslünk,vilesezünk,cselekszik,-lik,2,PR2013,2001,férfi,nem,2022-04-05_15h38.40.047,hesp_baseline,2021.2.3,Win32,62.56647688
,,,,,,,,,,,,,,,,,táklom,táklok,left,8.1378,0,95,95,79,1,134,táklik,táklasz,NA,NA,Te bizony sokat táklasz.,Én is sokat...,táklok,táklom,lakik,-lik,1,PR2013,2001,férfi,nem,2022-04-05_15h38.40.047,hesp_baseline,2021.2.3,Win32,62.56647688
,,,,,,,,,,,,,,,,,trivakodunk,trivakszunk,left,14.3372,0,96,96,118,1,119,trivakszik / trivakodik,"trivakszik, trivakodni",ünk,NA,"János imád trivakodni, ezért sokat trivakszik.",Mi ritkán...,trivakszunk,trivakodunk,cselekszik,-szik,2,PR2013,2001,férfi,nem,2022-04-05_15h38.40.047,hesp_baseline,2021.2.3,Win32,62.56647688
,,,,,,,,,,,,,,,,,tűgöztök,tűgzötök,right,22.5765,0,97,97,143,1,144,tűgzik / tűgözik,"tűgzik, tűgözni",tek,NA,"János imád tűgözni, ezért sokat tűgzik.",Ti ritkán...,tűgzötök,tűgöztök,cselekszik,-zik,1,PR2013,2001,férfi,nem,2022-04-05_15h38.40.047,hesp_baseline,2021.2.3,Win32,62.56647688
,,,,,,,,,,,,,,,,,kátelnek,kátelnak,left,3.7793,0,98,98,12,1,121,kátel,kátel,nak,e,Ez itt egy kátel.,Elneveztem a kutyámat...,kátelnek,kátelnak,dzsungel,NA,NA,PR2013,2001,férfi,nem,2022-04-05_15h38.40.047,hesp_baseline,2021.2.3,Win32,62.56647688
,,,,,,,,,,,,,,,,,licegyben,licegyban,left,9.0785,0,99,99,15,1,124,licegy,licegy,ban,e,Ez itt egy licegy.,Ott vagyunk a...,licegyben,licegyban,dzsungel,NA,NA,PR2013,2001,férfi,nem,2022-04-05_15h38.40.047,hesp_baseline,2021.2.3,Win32,62.56647688
,,,,,,,,,,,,,,,,,spatelnek,spatelnak,right,5.4286,0,100,100,21,1,130,spatel,spatel,nak,e,Ez itt egy spatel.,Elneveztem a kutyámat...,spatelnek,spatelnak,dzsungel,NA,NA,PR2013,2001,férfi,nem,2022-04-05_15h38.40.047,hesp_baseline,2021.2.3,Win32,62.56647688
,,,,,,,,,,,,,,,,,trapszegynál,trapszegynél,right,8.7722,0,101,101,39,1,148,trapszegy,trapszegy,nál,e,Ez itt egy trapszegy.,Nincs is jobb egy jó...,trapszegynél,trapszegynál,dzsungel,NA,NA,PR2013,2001,férfi,nem,2022-04-05_15h38.40.047,hesp_baseline,2021.2.3,Win32,62.56647688
,,,,,,,,,,,,,,,,,nivároztok,nivárzotok,left,9.6499,0,102,102,146,1,147,nivárzik / nivározik,"nivárzik, nivározni",tek,NA,"János imád nivározni, ezért sokat nivárzik.",Ti ritkán...,nivárzotok,nivároztok,cselekszik,-zik,2,PR2013,2001,férfi,nem,2022-04-05_15h38.40.047,hesp_baseline,2021.2.3,Win32,62.56647688
,,,,,,,,,,,,,,,,,mágamozunk,mágamlunk,right,8.4962,0,103,103,140,1,141,mágamlik / mágamozik,"mágamlik, mágamozni",ünk,NA,"János imád mágamozni, ezért sokat mágamlik.",Mi ritkán...,mágamlunk,mágamozunk,cselekszik,-lik,2,PR2013,2001,férfi,nem,2022-04-05_15h38.40.047,hesp_baseline,2021.2.3,Win32,62.56647688
,,,,,,,,,,,,,,,,,bivejlem,bivejlek,right,8.4387,0,104,104,73,1,128,bivejlik,bivejlesz,NA,NA,Te bizony sokat bivejlesz.,Én is sokat...,bivejlek,bivejlem,lakik,-lik,2,PR2013,2001,férfi,nem,2022-04-05_15h38.40.047,hesp_baseline,2021.2.3,Win32,62.56647688
,,,,,,,,,,,,,,,,,sartelyban,sartelyben,left,7.9742,0,105,105,40,1,149,sartely,sartely,ban,e,Ez itt egy sartely.,Ott vagyunk a...,sartelyben,sartelyban,dzsungel,NA,NA,PR2013,2001,férfi,nem,2022-04-05_15h38.40.047,hesp_baseline,2021.2.3,Win32,62.56647688
,,,,,,,,,,,,,,,,,fizendben,fizendban,left,11.1416,0,106,106,49,1,158,fizend,fizend,ban,e,Ez itt egy fizend.,Ott vagyunk a...,fizendben,fizendban,dzsungel,NA,NA,PR2013,2001,férfi,nem,2022-04-05_15h38.40.047,hesp_baseline,2021.2.3,Win32,62.56647688
,,,,,,,,,,,,,,,,,bűtszök,bűtszöm,left,7.4916,0,107,107,82,1,137,bűtszik,bűtszöl,NA,NA,Te bizony sokat bűtszöl.,Én is sokat...,bűtszök,bűtszöm,lakik,-szik,1,PR2013,2001,férfi,nem,2022-04-05_15h38.40.047,hesp_baseline,2021.2.3,Win32,62.56647688
,,,,,,,,,,,,,,,,,pazévnél,pazévnál,right,18.2697,0,108,108,36,1,145,pazév,pazév,nál,é,Ez itt egy pazév.,Nincs is jobb egy jó...,pazévnél,pazévnál,dzsungel,NA,NA,PR2013,2001,férfi,nem,2022-04-05_15h38.40.047,hesp_baseline,2021.2.3,Win32,62.56647688
,,,,,,,,,,,,,,,,,sztruglom,sztruglok,right,5.4027,0,109,109,67,1,122,sztruglik,sztruglasz,NA,NA,Te bizony sokat sztruglasz.,Én is sokat...,sztruglok,sztruglom,lakik,-lik,1,PR2013,2001,férfi,nem,2022-04-05_15h38.40.047,hesp_baseline,2021.2.3,Win32,62.56647688
,,,,,,,,,,,,,,,,,csodegnél,csodegnál,right,5.059,0,110,110,28,1,137,csodeg,csodeg,nál,e,Ez itt egy csodeg.,Nincs is jobb egy jó...,csodegnél,csodegnál,dzsungel,NA,NA,PR2013,2001,férfi,nem,2022-04-05_15h38.40.047,hesp_baseline,2021.2.3,Win32,62.56647688
,,,,,,,,,,,,,,,,,drivegzetek,drivegeztek,right,8.3903,0,111,111,112,1,113,drivegzik / drivegezik,"drivegzik, drivegezni",tek,NA,"János imád drivegezni, ezért sokat drivegzik.",Ti ritkán...,drivegzetek,drivegeztek,cselekszik,-zik,2,PR2013,2001,férfi,nem,2022-04-05_15h38.40.047,hesp_baseline,2021.2.3,Win32,62.56647688
,,,,,,,,,,,,,,,,,pijélnél,pijélnál,right,8.4209,0,112,112,3,1,112,pijél,pijél,nál,é,Ez itt egy pijél.,Nincs is jobb egy jó...,pijélnél,pijélnál,dzsungel,NA,NA,PR2013,2001,férfi,nem,2022-04-05_15h38.40.047,hesp_baseline,2021.2.3,Win32,62.56647688
,,,,,,,,,,,,,,,,,zatéjnál,zatéjnél,right,5.8568,0,113,113,34,1,143,zatéj,zatéj,nál,é,Ez itt egy zatéj.,Nincs is jobb egy jó...,zatéjnél,zatéjnál,dzsungel,NA,NA,PR2013,2001,férfi,nem,2022-04-05_15h38.40.047,hesp_baseline,2021.2.3,Win32,62.56647688
,,,,,,,,,,,,,,,,,vobzotok,voboztok,right,6.087,0,114,114,158,1,159,vobzik / vobozik,"vobzik, vobozni",tek,NA,"János imád vobozni, ezért sokat vobzik.",Ti ritkán...,vobzotok,voboztok,cselekszik,-zik,1,PR2013,2001,férfi,nem,2022-04-05_15h38.40.047,hesp_baseline,2021.2.3,Win32,62.56647688
,,,,,,,,,,,,,,,,,dralágzunk,dralágozunk,left,7.2918,0,115,115,156,1,157,dralágzik / dralágozik,"dralágzik, dralágozni",ünk,NA,"János imád dralágozni, ezért sokat dralágzik.",Mi ritkán...,dralágzunk,dralágozunk,cselekszik,-zik,2,PR2013,2001,férfi,nem,2022-04-05_15h38.40.047,hesp_baseline,2021.2.3,Win32,62.56647688
,,,,,,,,,,,,,,,,,sprálszok,sprálszom,right,25.8046,0,116,116,65,1,120,sprálszik,sprálszol,NA,NA,Te bizony sokat sprálszol.,Én is sokat...,sprálszok,sprálszom,lakik,-szik,1,PR2013,2001,férfi,nem,2022-04-05_15h38.40.047,hesp_baseline,2021.2.3,Win32,62.56647688
,,,,,,,,,,,,,,,,,filánylunk,filányozunk,left,11.8409,0,117,117,134,1,135,filánylik / filányozik,"filánylik, filányozni",ünk,NA,"János imád filányozni, ezért sokat filánylik.",Mi ritkán...,filánylunk,filányozunk,cselekszik,-lik,2,PR2013,2001,férfi,nem,2022-04-05_15h38.40.047,hesp_baseline,2021.2.3,Win32,62.56647688
,,,,,,,,,,,,,,,,,dirlotok,diroztok,left,15.0521,0,118,118,148,1,149,dirlik / dirozik,"dirlik, dirozni",tek,NA,"János imád dirozni, ezért sokat dirlik.",Ti ritkán...,dirlotok,diroztok,cselekszik,-lik,1,PR2013,2001,férfi,nem,2022-04-05_15h38.40.047,hesp_baseline,2021.2.3,Win32,62.56647688
,,,,,,,,,,,,,,,,,spirágoztok,spiráglotok,left,5.0159,0,119,119,135,1,136,spiráglik / spirágozik,"spiráglik, spirágozni",tek,NA,"János imád spirágozni, ezért sokat spiráglik.",Ti ritkán...,spiráglotok,spirágoztok,cselekszik,-lik,2,PR2013,2001,férfi,nem,2022-04-05_15h38.40.047,hesp_baseline,2021.2.3,Win32,62.56647688
,,,,,,,,,,,,,,,,,kláragodtok,kláragszotok,right,10.3748,0,120,120,123,1,124,kláragszik / kláragodik,"kláragszik, kláragodni",tek,NA,"János imád kláragodni, ezért sokat kláragszik.",Ti ritkán...,kláragszotok,kláragodtok,cselekszik,-szik,2,PR2013,2001,férfi,nem,2022-04-05_15h38.40.047,hesp_baseline,2021.2.3,Win32,62.56647688
,,,,,,,,,,,,,,,,,siladzom,siladzok,left,4.1292,0,121,121,93,1,148,siladzik,siladzol,NA,NA,Te bizony sokat siladzol.,Én is sokat...,siladzok,siladzom,lakik,-zik,2,PR2013,2001,férfi,nem,2022-04-05_15h38.40.047,hesp_baseline,2021.2.3,Win32,62.56647688
,,,,,,,,,,,,,,,,,murdesnál,murdesnél,left,5.6671,0,122,122,47,1,156,murdes,murdes,nál,e,Ez itt egy murdes.,Nincs is jobb egy jó...,murdesnél,murdesnál,dzsungel,NA,NA,PR2013,2001,férfi,nem,2022-04-05_15h38.40.047,hesp_baseline,2021.2.3,Win32,62.56647688
,,,,,,,,,,,,,,,,,tínylom,tínylok,left,4.6018,0,123,123,58,1,113,tínylik,tínylasz,NA,NA,Te bizony sokat tínylasz.,Én is sokat...,tínylok,tínylom,lakik,-lik,1,PR2013,2001,férfi,nem,2022-04-05_15h38.40.047,hesp_baseline,2021.2.3,Win32,62.56647688
,,,,,,,,,,,,,,,,,spröbzök,spröbzöm,right,4.5815,0,124,124,90,1,145,spröbzik,spröbzöl,NA,NA,Te bizony sokat spröbzöl.,Én is sokat...,spröbzök,spröbzöm,lakik,-zik,1,PR2013,2001,férfi,nem,2022-04-05_15h38.40.047,hesp_baseline,2021.2.3,Win32,62.56647688
,,,,,,,,,,,,,,,,,trálodunk,trálszunk,right,7.9946,0,125,125,130,1,131,trálszik / trálodik,"trálszik, trálodni",ünk,NA,"János imád trálodni, ezért sokat trálszik.",Mi ritkán...,trálszunk,trálodunk,cselekszik,-szik,1,PR2013,2001,férfi,nem,2022-04-05_15h38.40.047,hesp_baseline,2021.2.3,Win32,62.56647688
,,,,,,,,,,,,,,,,,plágadzom,plágadzok,left,4.709,0,126,126,74,1,129,plágadzik,plágadzol,NA,NA,Te bizony sokat plágadzol.,Én is sokat...,plágadzok,plágadzom,lakik,-zik,2,PR2013,2001,férfi,nem,2022-04-05_15h38.40.047,hesp_baseline,2021.2.3,Win32,62.56647688
,,,,,,,,,,,,,,,,,fretszem,fretszek,left,8.5551,0,127,127,66,1,121,fretszik,fretszel,NA,NA,Te bizony sokat fretszel.,Én is sokat...,fretszek,fretszem,lakik,-szik,1,PR2013,2001,férfi,nem,2022-04-05_15h38.40.047,hesp_baseline,2021.2.3,Win32,62.56647688
,,,,,,,,,,,,,,,,,szihétnek,szihétnak,left,5.5791,0,128,128,4,1,113,szihét,szihét,nak,é,Ez itt egy szihét.,Elneveztem a kutyámat...,szihétnek,szihétnak,dzsungel,NA,NA,PR2013,2001,férfi,nem,2022-04-05_15h38.40.047,hesp_baseline,2021.2.3,Win32,62.56647688
,,,,,,,,,,,,,,,,,flököztök,flöklötök,right,8.6612,0,129,129,121,1,122,flöklik / flöközik,"flöklik, flöközni",tek,NA,"János imád flöközni, ezért sokat flöklik.",Ti ritkán...,flöklötök,flököztök,cselekszik,-lik,1,PR2013,2001,férfi,nem,2022-04-05_15h38.40.047,hesp_baseline,2021.2.3,Win32,62.56647688
,,,,,,,,,,,,,,,,,spuboroznak,spuborzanak,left,6.5471,0,130,130,161,1,162,spuborzik / spuborozik,"spuborzik, spuborozni",nek,NA,"János imád spuborozni, ezért sokat spuborzik.",Ők ritkán...,spuborzanak,spuboroznak,cselekszik,-zik,2,PR2013,2001,férfi,nem,2022-04-05_15h38.40.047,hesp_baseline,2021.2.3,Win32,62.56647688
,,,,,,,,,,,,,,,,,trehégszem,trehégszek,left,8.4841,0,131,131,86,1,141,trehégszik,trehégszel,NA,NA,Te bizony sokat trehégszel.,Én is sokat...,trehégszek,trehégszem,lakik,-szik,2,PR2013,2001,férfi,nem,2022-04-05_15h38.40.047,hesp_baseline,2021.2.3,Win32,62.56647688
,,,,,,,,,,,,,,,,,drilarzunk,drilarozunk,left,6.9941,0,132,132,131,1,132,drilarzik / drilarozik,"drilarzik, drilarozni",ünk,NA,"János imád drilarozni, ezért sokat drilarzik.",Mi ritkán...,drilarzunk,drilarozunk,cselekszik,-zik,2,PR2013,2001,férfi,nem,2022-04-05_15h38.40.047,hesp_baseline,2021.2.3,Win32,62.56647688
,,,,,,,,,,,,,,,,,vűjlök,vűjlöm,left,4.5035,0,133,133,94,1,149,vűjlik,vűjlesz,NA,NA,Te bizony sokat vűjlesz.,Én is sokat...,vűjlök,vűjlöm,lakik,-lik,1,PR2013,2001,férfi,nem,2022-04-05_15h38.40.047,hesp_baseline,2021.2.3,Win32,62.56647688
,,,,,,,,,,,,,,,,,surnegynél,surnegynál,right,4.6951,0,134,134,8,1,117,surnegy,surnegy,nál,e,Ez itt egy surnegy.,Nincs is jobb egy jó...,surnegynél,surnegynál,dzsungel,NA,NA,PR2013,2001,férfi,nem,2022-04-05_15h38.40.047,hesp_baseline,2021.2.3,Win32,62.56647688
,,,,,,,,,,,,,,,,,pehégedtek,pehégszetek,left,7.8341,0,135,135,151,1,152,pehégszik / pehégedik,"pehégszik, pehégedni",tek,NA,"János imád pehégedni, ezért sokat pehégszik.",Ti ritkán...,pehégszetek,pehégedtek,cselekszik,-szik,2,PR2013,2001,férfi,nem,2022-04-05_15h38.40.047,hesp_baseline,2021.2.3,Win32,62.56647688
,,,,,,,,,,,,,,,,,trugoklanak,trugokoznak,right,7.1685,0,136,136,109,1,110,trugoklik / trugokozik,"trugoklik, trugokozni",nek,NA,"János imád trugokozni, ezért sokat trugoklik.",Ők ritkán...,trugoklanak,trugokoznak,cselekszik,-lik,2,PR2013,2001,férfi,nem,2022-04-05_15h38.40.047,hesp_baseline,2021.2.3,Win32,62.56647688
,,,,,,,,,,,,,,,,,düjzöm,düjzök,right,4.4897,0,137,137,97,1,152,düjzik,düjzöl,NA,NA,Te bizony sokat düjzöl.,Én is sokat...,düjzök,düjzöm,lakik,-zik,1,PR2013,2001,férfi,nem,2022-04-05_15h38.40.047,hesp_baseline,2021.2.3,Win32,62.56647688
,,,,,,,,,,,,,,,,,piragszok,piragszom,right,3.3262,0,138,138,83,1,138,piragszik,piragszol,NA,NA,Te bizony sokat piragszol.,Én is sokat...,piragszok,piragszom,lakik,-szik,2,PR2013,2001,férfi,nem,2022-04-05_15h38.40.047,hesp_baseline,2021.2.3,Win32,62.56647688
,,,,,,,,,,,,,,,,,mékszem,mékszek,left,7.6238,0,139,139,71,1,126,mékszik,mékszel,NA,NA,Te bizony sokat mékszel.,Én is sokat...,mékszek,mékszem,lakik,-szik,1,PR2013,2001,férfi,nem,2022-04-05_15h38.40.047,hesp_baseline,2021.2.3,Win32,62.56647688
,,,,,,,,,,,,,,,,,danétnál,danétnél,left,4.5284,0,140,140,38,1,147,danét,danét,nál,é,Ez itt egy danét.,Nincs is jobb egy jó...,danétnél,danétnál,dzsungel,NA,NA,PR2013,2001,férfi,nem,2022-04-05_15h38.40.047,hesp_baseline,2021.2.3,Win32,62.56647688
,,,,,,,,,,,,,,,,,nyarcéjnek,nyarcéjnak,right,9.0377,0,141,141,37,1,146,nyarcéj,nyarcéj,nak,é,Ez itt egy nyarcéj.,Elneveztem a kutyámat...,nyarcéjnek,nyarcéjnak,dzsungel,NA,NA,PR2013,2001,férfi,nem,2022-04-05_15h38.40.047,hesp_baseline,2021.2.3,Win32,62.56647688
,,,,,,,,,,,,,,,,,brotesban,brotesben,left,11.2395,0,142,142,53,1,162,brotes,brotes,ban,e,Ez itt egy brotes.,Ott vagyunk a...,brotesben,brotesban,dzsungel,NA,NA,PR2013,2001,férfi,nem,2022-04-05_15h38.40.047,hesp_baseline,2021.2.3,Win32,62.56647688
,,,,,,,,,,,,,,,,,brilegezünk,brilegzünk,right,4.3747,0,143,143,124,1,125,brilegzik / brilegezik,"brilegzik, brilegezni",ünk,NA,"János imád brilegezni, ezért sokat brilegzik.",Mi ritkán...,brilegzünk,brilegezünk,cselekszik,-zik,2,PR2013,2001,férfi,nem,2022-04-05_15h38.40.047,hesp_baseline,2021.2.3,Win32,62.56647688
,,,,,,,,,,,,,,,,,trálaklanak,trálakoznak,right,8.492,0,144,144,116,1,117,trálaklik / trálakozik,"trálaklik, trálakozni",nek,NA,"János imád trálakozni, ezért sokat trálaklik.",Ők ritkán...,trálaklanak,trálakoznak,cselekszik,-lik,2,PR2013,2001,férfi,nem,2022-04-05_15h38.40.047,hesp_baseline,2021.2.3,Win32,62.56647688
,,,,,,,,,,,,,,,,,trádlom,trádlok,right,3.3819,0,145,145,105,1,160,trádlik,trádlasz,NA,NA,Te bizony sokat trádlasz.,Én is sokat...,trádlok,trádlom,lakik,-lik,1,PR2013,2001,férfi,nem,2022-04-05_15h38.40.047,hesp_baseline,2021.2.3,Win32,62.56647688
,,,,,,,,,,,,,,,,,pibegeznek,pibegzenek,left,7.9011,0,146,146,127,1,128,pibegzik / pibegezik,"pibegzik, pibegezni",nek,NA,"János imád pibegezni, ezért sokat pibegzik.",Ők ritkán...,pibegzenek,pibegeznek,cselekszik,-zik,2,PR2013,2001,férfi,nem,2022-04-05_15h38.40.047,hesp_baseline,2021.2.3,Win32,62.56647688
,,,,,,,,,,,,,,,,,sztrijzom,sztrijzok,right,4.3654,0,147,147,68,1,123,sztrijzik,sztrijzol,NA,NA,Te bizony sokat sztrijzol.,Én is sokat...,sztrijzok,sztrijzom,lakik,-zik,1,PR2013,2001,férfi,nem,2022-04-05_15h38.40.047,hesp_baseline,2021.2.3,Win32,62.56647688
,,,,,,,,,,,,,,,,,frilegszem,frilegszek,left,3.7609,0,148,148,72,1,127,frilegszik,frilegszel,NA,NA,Te bizony sokat frilegszel.,Én is sokat...,frilegszek,frilegszem,lakik,-szik,2,PR2013,2001,férfi,nem,2022-04-05_15h38.40.047,hesp_baseline,2021.2.3,Win32,62.56647688
,,,,,,,,,,,,,,,,,sztredeztek,sztredletek,left,8.6793,0,149,149,145,1,146,sztredlik / sztredezik,"sztredlik, sztredezni",tek,NA,"János imád sztredezni, ezért sokat sztredlik.",Ti ritkán...,sztredletek,sztredeztek,cselekszik,-lik,1,PR2013,2001,férfi,nem,2022-04-05_15h38.40.047,hesp_baseline,2021.2.3,Win32,62.56647688
,,,,,,,,,,,,,,,,,brárlanak,brároznak,left,6.0569,0,150,150,126,1,127,brárlik / brározik,"brárlik, brározni",nek,NA,"János imád brározni, ezért sokat brárlik.",Ők ritkán...,brárlanak,brároznak,cselekszik,-lik,1,PR2013,2001,férfi,nem,2022-04-05_15h38.40.047,hesp_baseline,2021.2.3,Win32,62.56647688
,,,,,,,,,,,,,,,,,braszencnál,braszencnél,left,22.8344,0,151,151,7,1,116,braszenc,braszenc,nál,e,Ez itt egy braszenc.,Nincs is jobb egy jó...,braszencnél,braszencnál,dzsungel,NA,NA,PR2013,2001,férfi,nem,2022-04-05_15h38.40.047,hesp_baseline,2021.2.3,Win32,62.56647688
,,,,,,,,,,,,,,,,,sprozlanak,sprozoznak,right,9.4647,0,152,152,147,1,148,sprozlik / sprozozik,"sprozlik, sprozozni",nek,NA,"János imád sprozozni, ezért sokat sprozlik.",Ők ritkán...,sprozlanak,sprozoznak,cselekszik,-lik,1,PR2013,2001,férfi,nem,2022-04-05_15h38.40.047,hesp_baseline,2021.2.3,Win32,62.56647688
,,,,,,,,,,,,,,,,,sztritlanak,sztritoznak,right,18.4495,0,153,153,154,1,155,sztritlik / sztritozik,"sztritlik, sztritozni",nek,NA,"János imád sztritozni, ezért sokat sztritlik.",Ők ritkán...,sztritlanak,sztritoznak,cselekszik,-lik,1,PR2013,2001,férfi,nem,2022-04-05_15h38.40.047,hesp_baseline,2021.2.3,Win32,62.56647688
,,,,,,,,,,,,,,,,,flugonyoznak,flugonylanak,left,30.2794,0,154,154,111,1,112,flugonylik / flugonyozik,"flugonylik, flugonyozni",nek,NA,"János imád flugonyozni, ezért sokat flugonylik.",Ők ritkán...,flugonylanak,flugonyoznak,cselekszik,-lik,2,PR2013,2001,férfi,nem,2022-04-05_15h38.40.047,hesp_baseline,2021.2.3,Win32,62.56647688
,,,,,,,,,,,,,,,,,vubletnál,vubletnél,left,4.4334,0,155,155,26,1,135,vublet,vublet,nál,e,Ez itt egy vublet.,Nincs is jobb egy jó...,vubletnél,vubletnál,dzsungel,NA,NA,PR2013,2001,férfi,nem,2022-04-05_15h38.40.047,hesp_baseline,2021.2.3,Win32,62.56647688
,,,,,,,,,,,,,,,,,zábénynek,zábénynak,right,4.9618,0,156,156,43,1,152,zábény,zábény,nak,é,Ez itt egy zábény.,Elneveztem a kutyámat...,zábénynek,zábénynak,dzsungel,NA,NA,PR2013,2001,férfi,nem,2022-04-05_15h38.40.047,hesp_baseline,2021.2.3,Win32,62.56647688
,,,,,,,,,,,,,,,,,bródesznek,bródesznak,left,4.2674,0,157,157,32,1,141,bródesz,bródesz,nak,e,Ez itt egy bródesz.,Elneveztem a kutyámat...,bródesznek,bródesznak,dzsungel,NA,NA,PR2013,2001,férfi,nem,2022-04-05_15h38.40.047,hesp_baseline,2021.2.3,Win32,62.56647688
,,,,,,,,,,,,,,,,,döjöznek,döjlenek,left,7.7165,0,158,158,129,1,130,döjlik / döjözik,"döjlik, döjözni",nek,NA,"János imád döjözni, ezért sokat döjlik.",Ők ritkán...,döjlenek,döjöznek,cselekszik,-lik,1,PR2013,2001,férfi,nem,2022-04-05_15h38.40.047,hesp_baseline,2021.2.3,Win32,62.56647688
,,,,,,,,,,,,,,,,,spírzok,spírzom,right,4.7763,0,159,159,64,1,119,spírzik,spírzol,NA,NA,Te bizony sokat spírzol.,Én is sokat...,spírzok,spírzom,lakik,-zik,1,PR2013,2001,férfi,nem,2022-04-05_15h38.40.047,hesp_baseline,2021.2.3,Win32,62.56647688
,,,,,,,,,,,,,,,,,prínylok,prínylom,right,7.0622,0,160,160,102,1,157,prínylik,prínylasz,NA,NA,Te bizony sokat prínylasz.,Én is sokat...,prínylok,prínylom,lakik,-lik,1,PR2013,2001,férfi,nem,2022-04-05_15h38.40.047,hesp_baseline,2021.2.3,Win32,62.56647688
,,,,,,,,,,,,,,,,,brivepszünk,brivepedünk,left,5.6325,0,161,161,113,1,114,brivepszik / brivepedik,"brivepszik, brivepedni",ünk,NA,"János imád brivepedni, ezért sokat brivepszik.",Mi ritkán...,brivepszünk,brivepedünk,cselekszik,-szik,2,PR2013,2001,férfi,nem,2022-04-05_15h38.40.047,hesp_baseline,2021.2.3,Win32,62.56647688
