my_list,key.keys,key.rt,key_2.keys,key_2.rt,keyboard_input_2.keys,keyboard_input_2.rt,key_3.keys,key_3.rt,keyboard_input_3.keys,keyboard_input_3.rt,key_4.keys,key_4.rt,keyboard_input_4.keys,keyboard_input_4.rt,key_5.keys,key_5.rt,my_button1,my_button2,keyboard_input.keys,keyboard_input.rt,withinBlock.thisRepN,withinBlock.thisTrialN,withinBlock.thisN,withinBlock.thisIndex,withinBlock.ran,rowname,word,prompt,suffix,vowel,carrier_sentence,target_sentence,target1,target2,category,derivational,nsyl,Azonosító,Melyik évben születtél?,Mi a nemed?,Tanultál nyelvészetet?,date,expName,psychopyVersion,OS,frameRate
list1.csv,space,22.0666,space,10.9006,right,12.143,space,44.8346,left,42.1025,space,13.9653,left,12.8554,space,31.0974,flagárzom,flagárzok,right,12.4987,0,0,0,64,1,11,flagárzik,flagárzol,NA,NA,Te bizony sokat flagárzol.,Én is sokat...,flagárzok,flagárzom,lakik,-zik,2,PR2039,1979,nő,nem,2022-04-18_21h58.02.191,hesp_baseline,2021.2.3,Win32,60.0024001
,,,,,,,,,,,,,,,,,mísozunk,míslunk,left,11.4832,0,1,1,123,1,16,míslik / mísozik,"míslik, mísozni",ünk,NA,"János imád mísozni, ezért sokat míslik.",Mi ritkán...,míslunk,mísozunk,cselekszik,-lik,1,PR2039,1979,nő,nem,2022-04-18_21h58.02.191,hesp_baseline,2021.2.3,Win32,60.0024001
,,,,,,,,,,,,,,,,,brülösözünk,brülöslünk,right,50.6378,0,2,2,109,1,2,brülöslik / brülösözik,"brülöslik, brülösözni",ünk,NA,"János imád brülösözni, ezért sokat brülöslik.",Mi ritkán...,brülöslünk,brülösözünk,cselekszik,-lik,2,PR2039,1979,nő,nem,2022-04-18_21h58.02.191,hesp_baseline,2021.2.3,Win32,60.0024001
,,,,,,,,,,,,,,,,,lumézban,lumézben,left,9.4535,0,3,3,32,1,33,luméz,luméz,ban,é,Ez itt egy luméz.,Ott vagyunk a...,lumézben,lumézban,dzsungel,NA,NA,PR2039,1979,nő,nem,2022-04-18_21h58.02.191,hesp_baseline,2021.2.3,Win32,60.0024001
,,,,,,,,,,,,,,,,,tivencban,tivencben,right,7.144,0,4,4,53,1,54,tivenc,tivenc,ban,e,Ez itt egy tivenc.,Ott vagyunk a...,tivencben,tivencban,dzsungel,NA,NA,PR2039,1979,nő,nem,2022-04-18_21h58.02.191,hesp_baseline,2021.2.3,Win32,60.0024001
,,,,,,,,,,,,,,,,,spihemlek,spihemlem,left,9.9347,0,5,5,94,1,41,spihemlik,spihemlesz,NA,NA,Te bizony sokat spihemlesz.,Én is sokat...,spihemlek,spihemlem,lakik,-lik,2,PR2039,1979,nő,nem,2022-04-18_21h58.02.191,hesp_baseline,2021.2.3,Win32,60.0024001
,,,,,,,,,,,,,,,,,brarlok,brarlom,left,11.3561,0,6,6,71,1,18,brarlik,brarlasz,NA,NA,Te bizony sokat brarlasz.,Én is sokat...,brarlok,brarlom,lakik,-lik,1,PR2039,1979,nő,nem,2022-04-18_21h58.02.191,hesp_baseline,2021.2.3,Win32,60.0024001
,,,,,,,,,,,,,,,,,dutecnál,dutecnél,left,59.2287,0,7,7,22,1,23,dutec,dutec,nál,e,Ez itt egy dutec.,Nincs is jobb egy jó...,dutecnél,dutecnál,dzsungel,NA,NA,PR2039,1979,nő,nem,2022-04-18_21h58.02.191,hesp_baseline,2021.2.3,Win32,60.0024001
,,,,,,,,,,,,,,,,,plűbzöm,plűbzök,right,14.5648,0,8,8,107,1,54,plűbzik,plűbzöl,NA,NA,Te bizony sokat plűbzöl.,Én is sokat...,plűbzök,plűbzöm,lakik,-zik,1,PR2039,1979,nő,nem,2022-04-18_21h58.02.191,hesp_baseline,2021.2.3,Win32,60.0024001
,,,,,,,,,,,,,,,,,jurlunk,jurozunk,left,22.3461,0,9,9,111,1,4,jurlik / jurozik,"jurlik, jurozni",ünk,NA,"János imád jurozni, ezért sokat jurlik.",Mi ritkán...,jurlunk,jurozunk,cselekszik,-lik,1,PR2039,1979,nő,nem,2022-04-18_21h58.02.191,hesp_baseline,2021.2.3,Win32,60.0024001
,,,,,,,,,,,,,,,,,lihénynek,lihénynak,left,19.3477,0,10,10,23,1,24,lihény,lihény,nak,é,Ez itt egy lihény.,Elneveztem a kutyámat...,lihénynek,lihénynak,dzsungel,NA,NA,PR2039,1979,nő,nem,2022-04-18_21h58.02.191,hesp_baseline,2021.2.3,Win32,60.0024001
,,,,,,,,,,,,,,,,,spábétban,spábétben,left,12.1054,0,11,11,51,1,52,spábét,spábét,ban,é,Ez itt egy spábét.,Ott vagyunk a...,spábétben,spábétban,dzsungel,NA,NA,PR2039,1979,nő,nem,2022-04-18_21h58.02.191,hesp_baseline,2021.2.3,Win32,60.0024001
,,,,,,,,,,,,,,,,,rokszok,rokszom,right,20.1326,0,12,12,101,1,48,rokszik,rokszol,NA,NA,Te bizony sokat rokszol.,Én is sokat...,rokszok,rokszom,lakik,-szik,1,PR2039,1979,nő,nem,2022-04-18_21h58.02.191,hesp_baseline,2021.2.3,Win32,60.0024001
,,,,,,,,,,,,,,,,,narádzom,narádzok,right,21.8036,0,13,13,63,1,10,narádzik,narádzol,NA,NA,Te bizony sokat narádzol.,Én is sokat...,narádzok,narádzom,lakik,-zik,2,PR2039,1979,nő,nem,2022-04-18_21h58.02.191,hesp_baseline,2021.2.3,Win32,60.0024001
,,,,,,,,,,,,,,,,,salárzok,salárzom,left,8.7361,0,14,14,103,1,50,salárzik,salárzol,NA,NA,Te bizony sokat salárzol.,Én is sokat...,salárzok,salárzom,lakik,-zik,2,PR2039,1979,nő,nem,2022-04-18_21h58.02.191,hesp_baseline,2021.2.3,Win32,60.0024001
,,,,,,,,,,,,,,,,,breslenek,breseznek,left,20.3993,0,15,15,115,1,8,breslik / bresezik,"breslik, bresezni",nek,NA,"János imád bresezni, ezért sokat breslik.",Ők ritkán...,breslenek,breseznek,cselekszik,-lik,1,PR2039,1979,nő,nem,2022-04-18_21h58.02.191,hesp_baseline,2021.2.3,Win32,60.0024001
,,,,,,,,,,,,,,,,,jüslöm,jüslök,right,11.2001,0,16,16,56,1,3,jüslik,jüslesz,NA,NA,Te bizony sokat jüslesz.,Én is sokat...,jüslök,jüslöm,lakik,-lik,1,PR2039,1979,nő,nem,2022-04-18_21h58.02.191,hesp_baseline,2021.2.3,Win32,60.0024001
,,,,,,,,,,,,,,,,,brubzom,brubzok,right,19.8792,0,17,17,92,1,39,brubzik,brubzol,NA,NA,Te bizony sokat brubzol.,Én is sokat...,brubzok,brubzom,lakik,-zik,1,PR2039,1979,nő,nem,2022-04-18_21h58.02.191,hesp_baseline,2021.2.3,Win32,60.0024001
,,,,,,,,,,,,,,,,,sztremlek,sztremlem,left,14.5303,0,18,18,95,1,42,sztremlik,sztremlesz,NA,NA,Te bizony sokat sztremlesz.,Én is sokat...,sztremlek,sztremlem,lakik,-lik,1,PR2039,1979,nő,nem,2022-04-18_21h58.02.191,hesp_baseline,2021.2.3,Win32,60.0024001
,,,,,,,,,,,,,,,,,spicetnek,spicetnak,left,11.2342,0,19,19,35,1,36,spicet,spicet,nak,e,Ez itt egy spicet.,Elneveztem a kutyámat...,spicetnek,spicetnak,dzsungel,NA,NA,PR2039,1979,nő,nem,2022-04-18_21h58.02.191,hesp_baseline,2021.2.3,Win32,60.0024001
,,,,,,,,,,,,,,,,,frágapszom,frágapszok,right,35.2988,0,20,20,60,1,7,frágapszik,frágapszol,NA,NA,Te bizony sokat frágapszol.,Én is sokat...,frágapszok,frágapszom,lakik,-szik,2,PR2039,1979,nő,nem,2022-04-18_21h58.02.191,hesp_baseline,2021.2.3,Win32,60.0024001
,,,,,,,,,,,,,,,,,kalhésznak,kalhésznek,right,55.9206,0,21,21,46,1,47,kalhész,kalhész,nak,é,Ez itt egy kalhész.,Elneveztem a kutyámat...,kalhésznek,kalhésznak,dzsungel,NA,NA,PR2039,1979,nő,nem,2022-04-18_21h58.02.191,hesp_baseline,2021.2.3,Win32,60.0024001
,,,,,,,,,,,,,,,,,riványlotok,riványoztok,left,12.8145,0,22,22,117,1,10,riványlik / riványozik,"riványlik, riványozni",tek,NA,"János imád riványozni, ezért sokat riványlik.",Ti ritkán...,riványlotok,riványoztok,cselekszik,-lik,2,PR2039,1979,nő,nem,2022-04-18_21h58.02.191,hesp_baseline,2021.2.3,Win32,60.0024001
,,,,,,,,,,,,,,,,,diránylanak,dirányoznak,right,47.8941,0,23,23,122,1,15,diránylik / dirányozik,"diránylik, dirányozni",nek,NA,"János imád dirányozni, ezért sokat diránylik.",Ők ritkán...,diránylanak,dirányoznak,cselekszik,-lik,2,PR2039,1979,nő,nem,2022-04-18_21h58.02.191,hesp_baseline,2021.2.3,Win32,60.0024001
,,,,,,,,,,,,,,,,,csarténynak,csarténynek,left,17.7319,0,24,24,36,1,37,csartény,csartény,nak,é,Ez itt egy csartény.,Elneveztem a kutyámat...,csarténynek,csarténynak,dzsungel,NA,NA,PR2039,1979,nő,nem,2022-04-18_21h58.02.191,hesp_baseline,2021.2.3,Win32,60.0024001
,,,,,,,,,,,,,,,,,bregzünk,bregezünk,left,12.1143,0,25,25,139,1,32,bregzik / bregezik,"bregzik, bregezni",ünk,NA,"János imád bregezni, ezért sokat bregzik.",Mi ritkán...,bregzünk,bregezünk,cselekszik,-zik,1,PR2039,1979,nő,nem,2022-04-18_21h58.02.191,hesp_baseline,2021.2.3,Win32,60.0024001
,,,,,,,,,,,,,,,,,prélemeznek,prélemlenek,right,12.6541,0,26,26,110,1,3,prélemlik / prélemezik,"prélemlik, prélemezni",nek,NA,"János imád prélemezni, ezért sokat prélemlik.",Ők ritkán...,prélemlenek,prélemeznek,cselekszik,-lik,2,PR2039,1979,nő,nem,2022-04-18_21h58.02.191,hesp_baseline,2021.2.3,Win32,60.0024001
,,,,,,,,,,,,,,,,,fökszenek,föködnek,right,59.1006,0,27,27,131,1,24,fökszik / föködik,"fökszik, föködni",nek,NA,"János imád föködni, ezért sokat fökszik.",Ők ritkán...,fökszenek,föködnek,cselekszik,-szik,1,PR2039,1979,nő,nem,2022-04-18_21h58.02.191,hesp_baseline,2021.2.3,Win32,60.0024001
,,,,,,,,,,,,,,,,,feténylem,feténylek,right,11.1906,0,28,28,85,1,32,feténylik,feténylesz,NA,NA,Te bizony sokat feténylesz.,Én is sokat...,feténylek,feténylem,lakik,-lik,2,PR2039,1979,nő,nem,2022-04-18_21h58.02.191,hesp_baseline,2021.2.3,Win32,60.0024001
,,,,,,,,,,,,,,,,,kadérnál,kadérnél,right,8.9064,0,29,29,7,1,8,kadér,kadér,nál,é,Ez itt egy kadér.,Nincs is jobb egy jó...,kadérnél,kadérnál,dzsungel,NA,NA,PR2039,1979,nő,nem,2022-04-18_21h58.02.191,hesp_baseline,2021.2.3,Win32,60.0024001
,,,,,,,,,,,,,,,,,spűmlöm,spűmlök,right,9.2054,0,30,30,86,1,33,spűmlik,spűmlesz,NA,NA,Te bizony sokat spűmlesz.,Én is sokat...,spűmlök,spűmlöm,lakik,-lik,1,PR2039,1979,nő,nem,2022-04-18_21h58.02.191,hesp_baseline,2021.2.3,Win32,60.0024001
,,,,,,,,,,,,,,,,,trihagzok,trihagzom,left,21.3018,0,31,31,83,1,30,trihagzik,trihagzol,NA,NA,Te bizony sokat trihagzol.,Én is sokat...,trihagzok,trihagzom,lakik,-zik,2,PR2039,1979,nő,nem,2022-04-18_21h58.02.191,hesp_baseline,2021.2.3,Win32,60.0024001
,,,,,,,,,,,,,,,,,gihejlünk,gihejezünk,left,13.1513,0,32,32,146,1,39,gihejlik / gihejezik,"gihejlik, gihejezni",ünk,NA,"János imád gihejezni, ezért sokat gihejlik.",Mi ritkán...,gihejlünk,gihejezünk,cselekszik,-lik,2,PR2039,1979,nő,nem,2022-04-18_21h58.02.191,hesp_baseline,2021.2.3,Win32,60.0024001
,,,,,,,,,,,,,,,,,trukszotok,trukodtok,left,33.0583,0,33,33,157,1,50,trukszik / trukodik,"trukszik, trukodni",tek,NA,"János imád trukodni, ezért sokat trukszik.",Ti ritkán...,trukszotok,trukodtok,cselekszik,-szik,1,PR2039,1979,nő,nem,2022-04-18_21h58.02.191,hesp_baseline,2021.2.3,Win32,60.0024001
,,,,,,,,,,,,,,,,,csublényben,csublényban,right,7.6344,0,34,34,16,1,17,csublény,csublény,ban,é,Ez itt egy csublény.,Ott vagyunk a...,csublényben,csublényban,dzsungel,NA,NA,PR2039,1979,nő,nem,2022-04-18_21h58.02.191,hesp_baseline,2021.2.3,Win32,60.0024001
,,,,,,,,,,,,,,,,,incéjnek,incéjnak,left,5.0364,0,35,35,30,1,31,incéj,incéj,nak,é,Ez itt egy incéj.,Elneveztem a kutyámat...,incéjnek,incéjnak,dzsungel,NA,NA,PR2039,1979,nő,nem,2022-04-18_21h58.02.191,hesp_baseline,2021.2.3,Win32,60.0024001
,,,,,,,,,,,,,,,,,kaszépnak,kaszépnek,right,20.5005,0,36,36,40,1,41,kaszép,kaszép,nak,é,Ez itt egy kaszép.,Elneveztem a kutyámat...,kaszépnek,kaszépnak,dzsungel,NA,NA,PR2039,1979,nő,nem,2022-04-18_21h58.02.191,hesp_baseline,2021.2.3,Win32,60.0024001
,,,,,,,,,,,,,,,,,szibánylok,szibánylom,left,8.7019,0,37,37,67,1,14,szibánylik,szibánylasz,NA,NA,Te bizony sokat szibánylasz.,Én is sokat...,szibánylok,szibánylom,lakik,-lik,2,PR2039,1979,nő,nem,2022-04-18_21h58.02.191,hesp_baseline,2021.2.3,Win32,60.0024001
,,,,,,,,,,,,,,,,,vülődzöm,vülődzök,right,7.1714,0,38,38,81,1,28,vülődzik,vülődzöl,NA,NA,Te bizony sokat vülődzöl.,Én is sokat...,vülődzök,vülődzöm,lakik,-zik,2,PR2039,1979,nő,nem,2022-04-18_21h58.02.191,hesp_baseline,2021.2.3,Win32,60.0024001
,,,,,,,,,,,,,,,,,marzom,marzok,right,8.6527,0,39,39,99,1,46,marzik,marzol,NA,NA,Te bizony sokat marzol.,Én is sokat...,marzok,marzom,lakik,-zik,1,PR2039,1979,nő,nem,2022-04-18_21h58.02.191,hesp_baseline,2021.2.3,Win32,60.0024001
,,,,,,,,,,,,,,,,,klaráglom,klaráglok,right,28.8018,0,40,40,91,1,38,klaráglik,klaráglasz,NA,NA,Te bizony sokat klaráglasz.,Én is sokat...,klaráglok,klaráglom,lakik,-lik,2,PR2039,1979,nő,nem,2022-04-18_21h58.02.191,hesp_baseline,2021.2.3,Win32,60.0024001
,,,,,,,,,,,,,,,,,zsalrénnek,zsalrénnak,left,7.4852,0,41,41,19,1,20,zsalrén,zsalrén,nak,é,Ez itt egy zsalrén.,Elneveztem a kutyámat...,zsalrénnek,zsalrénnak,dzsungel,NA,NA,PR2039,1979,nő,nem,2022-04-18_21h58.02.191,hesp_baseline,2021.2.3,Win32,60.0024001
,,,,,,,,,,,,,,,,,prilegzek,prilegzem,left,8.935,0,42,42,79,1,26,prilegzik,prilegzel,NA,NA,Te bizony sokat prilegzel.,Én is sokat...,prilegzek,prilegzem,lakik,-zik,2,PR2039,1979,nő,nem,2022-04-18_21h58.02.191,hesp_baseline,2021.2.3,Win32,60.0024001
,,,,,,,,,,,,,,,,,spélszem,spélszek,right,16.8366,0,43,43,68,1,15,spélszik,spélszel,NA,NA,Te bizony sokat spélszel.,Én is sokat...,spélszek,spélszem,lakik,-szik,1,PR2039,1979,nő,nem,2022-04-18_21h58.02.191,hesp_baseline,2021.2.3,Win32,60.0024001
,,,,,,,,,,,,,,,,,klordénynak,klordénynek,right,21.5818,0,44,44,9,1,10,klordény,klordény,nak,é,Ez itt egy klordény.,Elneveztem a kutyámat...,klordénynek,klordénynak,dzsungel,NA,NA,PR2039,1979,nő,nem,2022-04-18_21h58.02.191,hesp_baseline,2021.2.3,Win32,60.0024001
,,,,,,,,,,,,,,,,,bügzenek,bügöznek,left,52.4632,0,45,45,118,1,11,bügzik / bügözik,"bügzik, bügözni",nek,NA,"János imád bügözni, ezért sokat bügzik.",Ők ritkán...,bügzenek,bügöznek,cselekszik,-zik,1,PR2039,1979,nő,nem,2022-04-18_21h58.02.191,hesp_baseline,2021.2.3,Win32,60.0024001
,,,,,,,,,,,,,,,,,drügzöm,drügzök,right,9.137,0,46,46,72,1,19,drügzik,drügzöl,NA,NA,Te bizony sokat drügzöl.,Én is sokat...,drügzök,drügzöm,lakik,-zik,1,PR2039,1979,nő,nem,2022-04-18_21h58.02.191,hesp_baseline,2021.2.3,Win32,60.0024001
,,,,,,,,,,,,,,,,,préleglem,préleglek,left,23.8584,0,47,47,104,1,51,préleglik,préleglesz,NA,NA,Te bizony sokat préleglesz.,Én is sokat...,préleglek,préleglem,lakik,-lik,2,PR2039,1979,nő,nem,2022-04-18_21h58.02.191,hesp_baseline,2021.2.3,Win32,60.0024001
,,,,,,,,,,,,,,,,,dunkészben,dunkészban,right,19.1126,0,48,48,24,1,25,dunkész,dunkész,ban,é,Ez itt egy dunkész.,Ott vagyunk a...,dunkészben,dunkészban,dzsungel,NA,NA,PR2039,1979,nő,nem,2022-04-18_21h58.02.191,hesp_baseline,2021.2.3,Win32,60.0024001
,,,,,,,,,,,,,,,,,mádépnél,mádépnál,right,14.2342,0,49,49,1,1,2,mádép,mádép,nál,é,Ez itt egy mádép.,Nincs is jobb egy jó...,mádépnél,mádépnál,dzsungel,NA,NA,PR2039,1979,nő,nem,2022-04-18_21h58.02.191,hesp_baseline,2021.2.3,Win32,60.0024001
,,,,,,,,,,,,,,,,,prugoroztok,prugorzotok,right,27.6686,0,50,50,116,1,9,prugorzik / prugorozik,"prugorzik, prugorozni",tek,NA,"János imád prugorozni, ezért sokat prugorzik.",Ti ritkán...,prugorzotok,prugoroztok,cselekszik,-zik,2,PR2039,1979,nő,nem,2022-04-18_21h58.02.191,hesp_baseline,2021.2.3,Win32,60.0024001
,,,,,,,,,,,,,,,,,dajrensnél,dajrensnál,left,11.1857,0,51,51,49,1,50,dajrens,dajrens,nál,e,Ez itt egy dajrens.,Nincs is jobb egy jó...,dajrensnél,dajrensnál,dzsungel,NA,NA,PR2039,1979,nő,nem,2022-04-18_21h58.02.191,hesp_baseline,2021.2.3,Win32,60.0024001
,,,,,,,,,,,,,,,,,lorzensnál,lorzensnél,right,17.4218,0,52,52,34,1,35,lorzens,lorzens,nál,e,Ez itt egy lorzens.,Nincs is jobb egy jó...,lorzensnél,lorzensnál,dzsungel,NA,NA,PR2039,1979,nő,nem,2022-04-18_21h58.02.191,hesp_baseline,2021.2.3,Win32,60.0024001
,,,,,,,,,,,,,,,,,bribaslanak,bribasoznak,left,11.0159,0,53,53,121,1,14,bribaslik / bribasozik,"bribaslik, bribasozni",nek,NA,"János imád bribasozni, ezért sokat bribaslik.",Ők ritkán...,bribaslanak,bribasoznak,cselekszik,-lik,2,PR2039,1979,nő,nem,2022-04-18_21h58.02.191,hesp_baseline,2021.2.3,Win32,60.0024001
,,,,,,,,,,,,,,,,,hosétnek,hosétnak,left,10.7032,0,54,54,8,1,9,hosét,hosét,nak,é,Ez itt egy hosét.,Elneveztem a kutyámat...,hosétnek,hosétnak,dzsungel,NA,NA,PR2039,1979,nő,nem,2022-04-18_21h58.02.191,hesp_baseline,2021.2.3,Win32,60.0024001
,,,,,,,,,,,,,,,,,pliboztok,plibzotok,right,9.2406,0,55,55,140,1,33,plibzik / plibozik,"plibzik, plibozni",tek,NA,"János imád plibozni, ezért sokat plibzik.",Ti ritkán...,plibzotok,pliboztok,cselekszik,-zik,1,PR2039,1979,nő,nem,2022-04-18_21h58.02.191,hesp_baseline,2021.2.3,Win32,60.0024001
,,,,,,,,,,,,,,,,,naremban,naremben,right,4.3886,0,56,56,2,1,3,narem,narem,ban,e,Ez itt egy narem.,Ott vagyunk a...,naremben,naremban,dzsungel,NA,NA,PR2039,1979,nő,nem,2022-04-18_21h58.02.191,hesp_baseline,2021.2.3,Win32,60.0024001
,,,,,,,,,,,,,,,,,fraklunk,frakozunk,left,6.4693,0,57,57,159,1,52,fraklik / frakozik,"fraklik, frakozni",ünk,NA,"János imád frakozni, ezért sokat fraklik.",Mi ritkán...,fraklunk,frakozunk,cselekszik,-lik,1,PR2039,1979,nő,nem,2022-04-18_21h58.02.191,hesp_baseline,2021.2.3,Win32,60.0024001
,,,,,,,,,,,,,,,,,dujzanak,dujoznak,left,7.0734,0,58,58,128,1,21,dujzik / dujozik,"dujzik, dujozni",nek,NA,"János imád dujozni, ezért sokat dujzik.",Ők ritkán...,dujzanak,dujoznak,cselekszik,-zik,1,PR2039,1979,nő,nem,2022-04-18_21h58.02.191,hesp_baseline,2021.2.3,Win32,60.0024001
,,,,,,,,,,,,,,,,,csibagzotok,csibagoztok,right,7.0848,0,59,59,114,1,7,csibagzik / csibagozik,"csibagzik, csibagozni",tek,NA,"János imád csibagozni, ezért sokat csibagzik.",Ti ritkán...,csibagzotok,csibagoztok,cselekszik,-zik,2,PR2039,1979,nő,nem,2022-04-18_21h58.02.191,hesp_baseline,2021.2.3,Win32,60.0024001
,,,,,,,,,,,,,,,,,zopélynál,zopélynél,left,7.2366,0,60,60,5,1,6,zopély,zopély,nál,é,Ez itt egy zopély.,Nincs is jobb egy jó...,zopélynél,zopélynál,dzsungel,NA,NA,PR2039,1979,nő,nem,2022-04-18_21h58.02.191,hesp_baseline,2021.2.3,Win32,60.0024001
,,,,,,,,,,,,,,,,,sztrajlanak,sztrajoznak,left,7.8605,0,61,61,144,1,37,sztrajlik / sztrajozik,"sztrajlik, sztrajozni",nek,NA,"János imád sztrajozni, ezért sokat sztrajlik.",Ők ritkán...,sztrajlanak,sztrajoznak,cselekszik,-lik,1,PR2039,1979,nő,nem,2022-04-18_21h58.02.191,hesp_baseline,2021.2.3,Win32,60.0024001
,,,,,,,,,,,,,,,,,frinyozunk,frinylunk,right,7.7403,0,62,62,133,1,26,frinylik / frinyozik,"frinylik, frinyozni",ünk,NA,"János imád frinyozni, ezért sokat frinylik.",Mi ritkán...,frinylunk,frinyozunk,cselekszik,-lik,1,PR2039,1979,nő,nem,2022-04-18_21h58.02.191,hesp_baseline,2021.2.3,Win32,60.0024001
,,,,,,,,,,,,,,,,,zsopédben,zsopédban,right,5.7885,0,63,63,50,1,51,zsopéd,zsopéd,ban,é,Ez itt egy zsopéd.,Ott vagyunk a...,zsopédben,zsopédban,dzsungel,NA,NA,PR2039,1979,nő,nem,2022-04-18_21h58.02.191,hesp_baseline,2021.2.3,Win32,60.0024001
,,,,,,,,,,,,,,,,,pebzek,pebzem,right,6.7695,0,64,64,57,1,4,pebzik,pebzel,NA,NA,Te bizony sokat pebzel.,Én is sokat...,pebzek,pebzem,lakik,-zik,1,PR2039,1979,nő,nem,2022-04-18_21h58.02.191,hesp_baseline,2021.2.3,Win32,60.0024001
,,,,,,,,,,,,,,,,,hurjorzom,hurjorzok,left,7.7252,0,65,65,59,1,6,hurjorzik,hurjorzol,NA,NA,Te bizony sokat hurjorzol.,Én is sokat...,hurjorzok,hurjorzom,lakik,-zik,2,PR2039,1979,nő,nem,2022-04-18_21h58.02.191,hesp_baseline,2021.2.3,Win32,60.0024001
,,,,,,,,,,,,,,,,,püzöztök,püzlötök,right,9.752,0,66,66,152,1,45,püzlik / püzözik,"püzlik, püzözni",tek,NA,"János imád püzözni, ezért sokat püzlik.",Ti ritkán...,püzlötök,püzöztök,cselekszik,-lik,1,PR2039,1979,nő,nem,2022-04-18_21h58.02.191,hesp_baseline,2021.2.3,Win32,60.0024001
,,,,,,,,,,,,,,,,,spivejeznek,spivejlenek,right,206.9353,0,67,67,125,1,18,spivejlik / spivejezik,"spivejlik, spivejezni",nek,NA,"János imád spivejezni, ezért sokat spivejlik.",Ők ritkán...,spivejlenek,spivejeznek,cselekszik,-lik,2,PR2039,1979,nő,nem,2022-04-18_21h58.02.191,hesp_baseline,2021.2.3,Win32,60.0024001
,,,,,,,,,,,,,,,,,zsúdelnek,zsúdelnak,left,6.8976,0,68,68,14,1,15,zsúdel,zsúdel,nak,e,Ez itt egy zsúdel.,Elneveztem a kutyámat...,zsúdelnek,zsúdelnak,dzsungel,NA,NA,PR2039,1979,nő,nem,2022-04-18_21h58.02.191,hesp_baseline,2021.2.3,Win32,60.0024001
,,,,,,,,,,,,,,,,,buhényban,buhényben,left,16.7036,0,69,69,43,1,44,buhény,buhény,ban,é,Ez itt egy buhény.,Ott vagyunk a...,buhényben,buhényban,dzsungel,NA,NA,PR2039,1979,nő,nem,2022-04-18_21h58.02.191,hesp_baseline,2021.2.3,Win32,60.0024001
,,,,,,,,,,,,,,,,,tragzom,tragzok,right,7.6008,0,70,70,90,1,37,tragzik,tragzol,NA,NA,Te bizony sokat tragzol.,Én is sokat...,tragzok,tragzom,lakik,-zik,1,PR2039,1979,nő,nem,2022-04-18_21h58.02.191,hesp_baseline,2021.2.3,Win32,60.0024001
,,,,,,,,,,,,,,,,,hijegynél,hijegynál,left,10.218,0,71,71,4,1,5,hijegy,hijegy,nál,e,Ez itt egy hijegy.,Nincs is jobb egy jó...,hijegynél,hijegynál,dzsungel,NA,NA,PR2039,1979,nő,nem,2022-04-18_21h58.02.191,hesp_baseline,2021.2.3,Win32,60.0024001
,,,,,,,,,,,,,,,,,vihapodunk,vihapszunk,right,15.1731,0,72,72,112,1,5,vihapszik / vihapodik,"vihapszik, vihapodni",ünk,NA,"János imád vihapodni, ezért sokat vihapszik.",Mi ritkán...,vihapszunk,vihapodunk,cselekszik,-szik,2,PR2039,1979,nő,nem,2022-04-18_21h58.02.191,hesp_baseline,2021.2.3,Win32,60.0024001
,,,,,,,,,,,,,,,,,brivaklotok,brivakoztok,left,11.9793,0,73,73,134,1,27,brivaklik / brivakozik,"brivaklik, brivakozni",tek,NA,"János imád brivakozni, ezért sokat brivaklik.",Ti ritkán...,brivaklotok,brivakoztok,cselekszik,-lik,2,PR2039,1979,nő,nem,2022-04-18_21h58.02.191,hesp_baseline,2021.2.3,Win32,60.0024001
,,,,,,,,,,,,,,,,,spatszok,spatszom,left,20.2449,0,74,74,73,1,20,spatszik,spatszol,NA,NA,Te bizony sokat spatszol.,Én is sokat...,spatszok,spatszom,lakik,-szik,1,PR2039,1979,nő,nem,2022-04-18_21h58.02.191,hesp_baseline,2021.2.3,Win32,60.0024001
,,,,,,,,,,,,,,,,,priszkencnek,priszkencnak,left,9.9567,0,75,75,20,1,21,priszkenc,priszkenc,nak,e,Ez itt egy priszkenc.,Elneveztem a kutyámat...,priszkencnek,priszkencnak,dzsungel,NA,NA,PR2039,1979,nő,nem,2022-04-18_21h58.02.191,hesp_baseline,2021.2.3,Win32,60.0024001
,,,,,,,,,,,,,,,,,pilégednek,pilégszenek,right,27.1477,0,76,76,150,1,43,pilégszik / pilégedik,"pilégszik, pilégedni",nek,NA,"János imád pilégedni, ezért sokat pilégszik.",Ők ritkán...,pilégszenek,pilégednek,cselekszik,-szik,2,PR2039,1979,nő,nem,2022-04-18_21h58.02.191,hesp_baseline,2021.2.3,Win32,60.0024001
,,,,,,,,,,,,,,,,,flérlek,flérlem,left,12.7518,0,77,77,89,1,36,flérlik,flérlesz,NA,NA,Te bizony sokat flérlesz.,Én is sokat...,flérlek,flérlem,lakik,-lik,1,PR2039,1979,nő,nem,2022-04-18_21h58.02.191,hesp_baseline,2021.2.3,Win32,60.0024001
,,,,,,,,,,,,,,,,,gonszéknél,gonszéknál,left,5.9756,0,78,78,38,1,39,gonszék,gonszék,nál,é,Ez itt egy gonszék.,Nincs is jobb egy jó...,gonszéknél,gonszéknál,dzsungel,NA,NA,PR2039,1979,nő,nem,2022-04-18_21h58.02.191,hesp_baseline,2021.2.3,Win32,60.0024001
,,,,,,,,,,,,,,,,,nuhétnél,nuhétnál,left,5.6163,0,79,79,29,1,30,nuhét,nuhét,nál,é,Ez itt egy nuhét.,Nincs is jobb egy jó...,nuhétnél,nuhétnál,dzsungel,NA,NA,PR2039,1979,nő,nem,2022-04-18_21h58.02.191,hesp_baseline,2021.2.3,Win32,60.0024001
,,,,,,,,,,,,,,,,,hilarzom,hilarzok,right,9.5841,0,80,80,69,1,16,hilarzik,hilarzol,NA,NA,Te bizony sokat hilarzol.,Én is sokat...,hilarzok,hilarzom,lakik,-zik,2,PR2039,1979,nő,nem,2022-04-18_21h58.02.191,hesp_baseline,2021.2.3,Win32,60.0024001
,,,,,,,,,,,,,,,,,froroznak,frorlanak,left,24.4486,0,81,81,143,1,36,frorlik / frorozik,"frorlik, frorozni",nek,NA,"János imád frorozni, ezért sokat frorlik.",Ők ritkán...,frorlanak,froroznak,cselekszik,-lik,1,PR2039,1979,nő,nem,2022-04-18_21h58.02.191,hesp_baseline,2021.2.3,Win32,60.0024001
,,,,,,,,,,,,,,,,,priszecben,priszecban,left,16.6564,0,82,82,15,1,16,priszec,priszec,ban,e,Ez itt egy priszec.,Ott vagyunk a...,priszecben,priszecban,dzsungel,NA,NA,PR2039,1979,nő,nem,2022-04-18_21h58.02.191,hesp_baseline,2021.2.3,Win32,60.0024001
,,,,,,,,,,,,,,,,,ibáglok,ibáglom,left,8.8733,0,83,83,88,1,35,ibáglik,ibáglasz,NA,NA,Te bizony sokat ibáglasz.,Én is sokat...,ibáglok,ibáglom,lakik,-lik,2,PR2039,1979,nő,nem,2022-04-18_21h58.02.191,hesp_baseline,2021.2.3,Win32,60.0024001
,,,,,,,,,,,,,,,,,pöröztök,pörzötök,right,11.9831,0,84,84,153,1,46,pörzik / pörözik,"pörzik, pörözni",tek,NA,"János imád pörözni, ezért sokat pörzik.",Ti ritkán...,pörzötök,pöröztök,cselekszik,-zik,1,PR2039,1979,nő,nem,2022-04-18_21h58.02.191,hesp_baseline,2021.2.3,Win32,60.0024001
,,,,,,,,,,,,,,,,,flivegzenek,flivegeznek,left,10.9329,0,85,85,138,1,31,flivegzik / flivegezik,"flivegzik, flivegezni",nek,NA,"János imád flivegezni, ezért sokat flivegzik.",Ők ritkán...,flivegzenek,flivegeznek,cselekszik,-zik,2,PR2039,1979,nő,nem,2022-04-18_21h58.02.191,hesp_baseline,2021.2.3,Win32,60.0024001
,,,,,,,,,,,,,,,,,gyibeslem,gyibeslek,right,18.7141,0,86,86,98,1,45,gyibeslik,gyibeslesz,NA,NA,Te bizony sokat gyibeslesz.,Én is sokat...,gyibeslek,gyibeslem,lakik,-lik,2,PR2039,1979,nő,nem,2022-04-18_21h58.02.191,hesp_baseline,2021.2.3,Win32,60.0024001
,,,,,,,,,,,,,,,,,vismernál,vismernél,right,26.2178,0,87,87,13,1,14,vismer,vismer,nál,e,Ez itt egy vismer.,Nincs is jobb egy jó...,vismernél,vismernál,dzsungel,NA,NA,PR2039,1979,nő,nem,2022-04-18_21h58.02.191,hesp_baseline,2021.2.3,Win32,60.0024001
,,,,,,,,,,,,,,,,,monvegnál,monvegnél,right,17.2115,0,88,88,26,1,27,monveg,monveg,nál,e,Ez itt egy monveg.,Nincs is jobb egy jó...,monvegnél,monvegnál,dzsungel,NA,NA,PR2039,1979,nő,nem,2022-04-18_21h58.02.191,hesp_baseline,2021.2.3,Win32,60.0024001
,,,,,,,,,,,,,,,,,jutélynél,jutélynál,left,16.9055,0,89,89,11,1,12,jutély,jutély,nál,é,Ez itt egy jutély.,Nincs is jobb egy jó...,jutélynél,jutélynál,dzsungel,NA,NA,PR2039,1979,nő,nem,2022-04-18_21h58.02.191,hesp_baseline,2021.2.3,Win32,60.0024001
,,,,,,,,,,,,,,,,,nyülöklenek,nyülököznek,left,13.0011,0,90,90,108,1,1,nyülöklik / nyülöközik,"nyülöklik, nyülöközni",nek,NA,"János imád nyülöközni, ezért sokat nyülöklik.",Ők ritkán...,nyülöklenek,nyülököznek,cselekszik,-lik,2,PR2039,1979,nő,nem,2022-04-18_21h58.02.191,hesp_baseline,2021.2.3,Win32,60.0024001
,,,,,,,,,,,,,,,,,nyizozunk,nyizlunk,right,19.5488,0,91,91,135,1,28,nyizlik / nyizozik,"nyizlik, nyizozni",ünk,NA,"János imád nyizozni, ezért sokat nyizlik.",Mi ritkán...,nyizlunk,nyizozunk,cselekszik,-lik,1,PR2039,1979,nő,nem,2022-04-18_21h58.02.191,hesp_baseline,2021.2.3,Win32,60.0024001
,,,,,,,,,,,,,,,,,pisélyben,pisélyban,left,5.1208,0,92,92,21,1,22,pisély,pisély,ban,é,Ez itt egy pisély.,Ott vagyunk a...,pisélyben,pisélyban,dzsungel,NA,NA,PR2039,1979,nő,nem,2022-04-18_21h58.02.191,hesp_baseline,2021.2.3,Win32,60.0024001
,,,,,,,,,,,,,,,,,gyivádzok,gyivádzom,right,18.2304,0,93,93,87,1,34,gyivádzik,gyivádzol,NA,NA,Te bizony sokat gyivádzol.,Én is sokat...,gyivádzok,gyivádzom,lakik,-zik,2,PR2039,1979,nő,nem,2022-04-18_21h58.02.191,hesp_baseline,2021.2.3,Win32,60.0024001
,,,,,,,,,,,,,,,,,friheglünk,frihegezünk,right,22.2787,0,94,94,132,1,25,friheglik / frihegezik,"friheglik, frihegezni",ünk,NA,"János imád frihegezni, ezért sokat friheglik.",Mi ritkán...,friheglünk,frihegezünk,cselekszik,-lik,2,PR2039,1979,nő,nem,2022-04-18_21h58.02.191,hesp_baseline,2021.2.3,Win32,60.0024001
,,,,,,,,,,,,,,,,,jukélnál,jukélnél,left,6.3057,0,95,95,42,1,43,jukél,jukél,nál,é,Ez itt egy jukél.,Nincs is jobb egy jó...,jukélnél,jukélnál,dzsungel,NA,NA,PR2039,1979,nő,nem,2022-04-18_21h58.02.191,hesp_baseline,2021.2.3,Win32,60.0024001
,,,,,,,,,,,,,,,,,spibádzok,spibádzom,right,9.2231,0,96,96,65,1,12,spibádzik,spibádzol,NA,NA,Te bizony sokat spibádzol.,Én is sokat...,spibádzok,spibádzom,lakik,-zik,2,PR2039,1979,nő,nem,2022-04-18_21h58.02.191,hesp_baseline,2021.2.3,Win32,60.0024001
,,,,,,,,,,,,,,,,,drűröznek,drűrzenek,left,33.8609,0,97,97,126,1,19,drűrzik / drűrözik,"drűrzik, drűrözni",nek,NA,"János imád drűrözni, ezért sokat drűrzik.",Ők ritkán...,drűrzenek,drűröznek,cselekszik,-zik,1,PR2039,1979,nő,nem,2022-04-18_21h58.02.191,hesp_baseline,2021.2.3,Win32,60.0024001
,,,,,,,,,,,,,,,,,küsözünk,küslünk,left,10.9177,0,98,98,141,1,34,küslik / küsözik,"küslik, küsözni",ünk,NA,"János imád küsözni, ezért sokat küslik.",Mi ritkán...,küslünk,küsözünk,cselekszik,-lik,1,PR2039,1979,nő,nem,2022-04-18_21h58.02.191,hesp_baseline,2021.2.3,Win32,60.0024001
,,,,,,,,,,,,,,,,,píjlom,píjlok,right,13.7845,0,99,99,75,1,22,píjlik,píjlasz,NA,NA,Te bizony sokat píjlasz.,Én is sokat...,píjlok,píjlom,lakik,-lik,1,PR2039,1979,nő,nem,2022-04-18_21h58.02.191,hesp_baseline,2021.2.3,Win32,60.0024001
,,,,,,,,,,,,,,,,,spilágzom,spilágzok,left,6.5529,0,100,100,76,1,23,spilágzik,spilágzol,NA,NA,Te bizony sokat spilágzol.,Én is sokat...,spilágzok,spilágzom,lakik,-zik,2,PR2039,1979,nő,nem,2022-04-18_21h58.02.191,hesp_baseline,2021.2.3,Win32,60.0024001
,,,,,,,,,,,,,,,,,jorzégnek,jorzégnak,left,6.1862,0,101,101,45,1,46,jorzég,jorzég,nak,é,Ez itt egy jorzég.,Elneveztem a kutyámat...,jorzégnek,jorzégnak,dzsungel,NA,NA,PR2039,1979,nő,nem,2022-04-18_21h58.02.191,hesp_baseline,2021.2.3,Win32,60.0024001
,,,,,,,,,,,,,,,,,flözlöm,flözlök,right,11.1699,0,102,102,74,1,21,flözlik,flözlesz,NA,NA,Te bizony sokat flözlesz.,Én is sokat...,flözlök,flözlöm,lakik,-lik,1,PR2039,1979,nő,nem,2022-04-18_21h58.02.191,hesp_baseline,2021.2.3,Win32,60.0024001
,,,,,,,,,,,,,,,,,gatágozunk,gatáglunk,left,17.9483,0,103,103,137,1,30,gatáglik / gatágozik,"gatáglik, gatágozni",ünk,NA,"János imád gatágozni, ezért sokat gatáglik.",Mi ritkán...,gatáglunk,gatágozunk,cselekszik,-lik,2,PR2039,1979,nő,nem,2022-04-18_21h58.02.191,hesp_baseline,2021.2.3,Win32,60.0024001
,,,,,,,,,,,,,,,,,hivépben,hivépban,left,4.9525,0,104,104,44,1,45,hivép,hivép,ban,é,Ez itt egy hivép.,Ott vagyunk a...,hivépben,hivépban,dzsungel,NA,NA,PR2039,1979,nő,nem,2022-04-18_21h58.02.191,hesp_baseline,2021.2.3,Win32,60.0024001
,,,,,,,,,,,,,,,,,huklok,huklom,left,8.6691,0,105,105,78,1,25,huklik,huklasz,NA,NA,Te bizony sokat huklasz.,Én is sokat...,huklok,huklom,lakik,-lik,1,PR2039,1979,nő,nem,2022-04-18_21h58.02.191,hesp_baseline,2021.2.3,Win32,60.0024001
,,,,,,,,,,,,,,,,,kliszernél,kliszernál,left,16.576,0,106,106,31,1,32,kliszer,kliszer,nál,e,Ez itt egy kliszer.,Nincs is jobb egy jó...,kliszernél,kliszernál,dzsungel,NA,NA,PR2039,1979,nő,nem,2022-04-18_21h58.02.191,hesp_baseline,2021.2.3,Win32,60.0024001
,,,,,,,,,,,,,,,,,prögöztök,prögzötök,left,8.7074,0,107,107,151,1,44,prögzik / prögözik,"prögzik, prögözni",tek,NA,"János imád prögözni, ezért sokat prögzik.",Ti ritkán...,prögzötök,prögöztök,cselekszik,-zik,1,PR2039,1979,nő,nem,2022-04-18_21h58.02.191,hesp_baseline,2021.2.3,Win32,60.0024001
,,,,,,,,,,,,,,,,,jalrénynél,jalrénynál,right,18.1861,0,108,108,0,1,1,jalrény,jalrény,nál,é,Ez itt egy jalrény.,Nincs is jobb egy jó...,jalrénynél,jalrénynál,dzsungel,NA,NA,PR2039,1979,nő,nem,2022-04-18_21h58.02.191,hesp_baseline,2021.2.3,Win32,60.0024001
,,,,,,,,,,,,,,,,,szibedban,szibedben,right,4.6225,0,109,109,47,1,48,szibed,szibed,ban,e,Ez itt egy szibed.,Ott vagyunk a...,szibedben,szibedban,dzsungel,NA,NA,PR2039,1979,nő,nem,2022-04-18_21h58.02.191,hesp_baseline,2021.2.3,Win32,60.0024001
,,,,,,,,,,,,,,,,,vanylok,vanylom,left,5.7538,0,110,110,61,1,8,vanylik,vanylasz,NA,NA,Te bizony sokat vanylasz.,Én is sokat...,vanylok,vanylom,lakik,-lik,1,PR2039,1979,nő,nem,2022-04-18_21h58.02.191,hesp_baseline,2021.2.3,Win32,60.0024001
,,,,,,,,,,,,,,,,,sihennál,sihennél,right,5.6683,0,111,111,18,1,19,sihen,sihen,nál,e,Ez itt egy sihen.,Nincs is jobb egy jó...,sihennél,sihennál,dzsungel,NA,NA,PR2039,1979,nő,nem,2022-04-18_21h58.02.191,hesp_baseline,2021.2.3,Win32,60.0024001
,,,,,,,,,,,,,,,,,sprudozunk,sprudlunk,left,10.6503,0,112,112,136,1,29,sprudlik / sprudozik,"sprudlik, sprudozni",ünk,NA,"János imád sprudozni, ezért sokat sprudlik.",Mi ritkán...,sprudlunk,sprudozunk,cselekszik,-lik,1,PR2039,1979,nő,nem,2022-04-18_21h58.02.191,hesp_baseline,2021.2.3,Win32,60.0024001
,,,,,,,,,,,,,,,,,matézban,matézben,left,6.6838,0,113,113,37,1,38,matéz,matéz,ban,é,Ez itt egy matéz.,Ott vagyunk a...,matézben,matézban,dzsungel,NA,NA,PR2039,1979,nő,nem,2022-04-18_21h58.02.191,hesp_baseline,2021.2.3,Win32,60.0024001
,,,,,,,,,,,,,,,,,privékednek,privékszenek,left,9.9699,0,114,114,149,1,42,privékszik / privékedik,"privékszik, privékedni",nek,NA,"János imád privékedni, ezért sokat privékszik.",Ők ritkán...,privékszenek,privékednek,cselekszik,-szik,2,PR2039,1979,nő,nem,2022-04-18_21h58.02.191,hesp_baseline,2021.2.3,Win32,60.0024001
,,,,,,,,,,,,,,,,,darhénben,darhénban,right,12.303,0,115,115,27,1,28,darhén,darhén,ban,é,Ez itt egy darhén.,Ott vagyunk a...,darhénben,darhénban,dzsungel,NA,NA,PR2039,1979,nő,nem,2022-04-18_21h58.02.191,hesp_baseline,2021.2.3,Win32,60.0024001
,,,,,,,,,,,,,,,,,vodépnak,vodépnek,left,52.3941,0,116,116,41,1,42,vodép,vodép,nak,é,Ez itt egy vodép.,Elneveztem a kutyámat...,vodépnek,vodépnak,dzsungel,NA,NA,PR2039,1979,nő,nem,2022-04-18_21h58.02.191,hesp_baseline,2021.2.3,Win32,60.0024001
,,,,,,,,,,,,,,,,,fádensnak,fádensnek,left,20.4012,0,117,117,33,1,34,fádens,fádens,nak,e,Ez itt egy fádens.,Elneveztem a kutyámat...,fádensnek,fádensnak,dzsungel,NA,NA,PR2039,1979,nő,nem,2022-04-18_21h58.02.191,hesp_baseline,2021.2.3,Win32,60.0024001
,,,,,,,,,,,,,,,,,pugoslok,pugoslom,left,10.9656,0,118,118,84,1,31,pugoslik,pugoslasz,NA,NA,Te bizony sokat pugoslasz.,Én is sokat...,pugoslok,pugoslom,lakik,-lik,2,PR2039,1979,nő,nem,2022-04-18_21h58.02.191,hesp_baseline,2021.2.3,Win32,60.0024001
,,,,,,,,,,,,,,,,,brigesztnek,brigesztnak,left,6.069,0,119,119,48,1,49,brigeszt,brigeszt,nak,e,Ez itt egy brigeszt.,Elneveztem a kutyámat...,brigesztnek,brigesztnak,dzsungel,NA,NA,PR2039,1979,nő,nem,2022-04-18_21h58.02.191,hesp_baseline,2021.2.3,Win32,60.0024001
,,,,,,,,,,,,,,,,,dábegyben,dábegyban,right,7.395,0,120,120,6,1,7,dábegy,dábegy,ban,e,Ez itt egy dábegy.,Ott vagyunk a...,dábegyben,dábegyban,dzsungel,NA,NA,PR2039,1979,nő,nem,2022-04-18_21h58.02.191,hesp_baseline,2021.2.3,Win32,60.0024001
,,,,,,,,,,,,,,,,,pivédban,pivédben,left,13.7226,0,121,121,52,1,53,pivéd,pivéd,ban,é,Ez itt egy pivéd.,Ott vagyunk a...,pivédben,pivédban,dzsungel,NA,NA,PR2039,1979,nő,nem,2022-04-18_21h58.02.191,hesp_baseline,2021.2.3,Win32,60.0024001
,,,,,,,,,,,,,,,,,sprédlem,sprédlek,right,12.9648,0,122,122,70,1,17,sprédlik,sprédlesz,NA,NA,Te bizony sokat sprédlesz.,Én is sokat...,sprédlek,sprédlem,lakik,-lik,1,PR2039,1979,nő,nem,2022-04-18_21h58.02.191,hesp_baseline,2021.2.3,Win32,60.0024001
,,,,,,,,,,,,,,,,,trodélyben,trodélyban,left,10.7574,0,123,123,28,1,29,trodély,trodély,ban,é,Ez itt egy trodély.,Ott vagyunk a...,trodélyben,trodélyban,dzsungel,NA,NA,PR2039,1979,nő,nem,2022-04-18_21h58.02.191,hesp_baseline,2021.2.3,Win32,60.0024001
,,,,,,,,,,,,,,,,,bötőrzünk,bötőrözünk,right,16.9509,0,124,124,158,1,51,bötőrzik / bötőrözik,"bötőrzik, bötőrözni",ünk,NA,"János imád bötőrözni, ezért sokat bötőrzik.",Mi ritkán...,bötőrzünk,bötőrözünk,cselekszik,-zik,2,PR2039,1979,nő,nem,2022-04-18_21h58.02.191,hesp_baseline,2021.2.3,Win32,60.0024001
,,,,,,,,,,,,,,,,,filágzom,filágzok,left,11.4671,0,125,125,102,1,49,filágzik,filágzol,NA,NA,Te bizony sokat filágzol.,Én is sokat...,filágzok,filágzom,lakik,-zik,2,PR2039,1979,nő,nem,2022-04-18_21h58.02.191,hesp_baseline,2021.2.3,Win32,60.0024001
,,,,,,,,,,,,,,,,,plövőrzöm,plövőrzök,left,6.5058,0,126,126,58,1,5,plövőrzik,plövőrzöl,NA,NA,Te bizony sokat plövőrzöl.,Én is sokat...,plövőrzök,plövőrzöm,lakik,-zik,2,PR2039,1979,nő,nem,2022-04-18_21h58.02.191,hesp_baseline,2021.2.3,Win32,60.0024001
,,,,,,,,,,,,,,,,,pítszom,pítszok,right,15.2003,0,127,127,62,1,9,pítszik,pítszol,NA,NA,Te bizony sokat pítszol.,Én is sokat...,pítszok,pítszom,lakik,-szik,1,PR2039,1979,nő,nem,2022-04-18_21h58.02.191,hesp_baseline,2021.2.3,Win32,60.0024001
,,,,,,,,,,,,,,,,,brobódzom,brobódzok,right,9.0493,0,128,128,96,1,43,brobódzik,brobódzol,NA,NA,Te bizony sokat brobódzol.,Én is sokat...,brobódzok,brobódzom,lakik,-zik,2,PR2039,1979,nő,nem,2022-04-18_21h58.02.191,hesp_baseline,2021.2.3,Win32,60.0024001
,,,,,,,,,,,,,,,,,frirzunk,frirozunk,right,11.4212,0,129,129,129,1,22,frirzik / frirozik,"frirzik, frirozni",ünk,NA,"János imád frirozni, ezért sokat frirzik.",Mi ritkán...,frirzunk,frirozunk,cselekszik,-zik,1,PR2039,1979,nő,nem,2022-04-18_21h58.02.191,hesp_baseline,2021.2.3,Win32,60.0024001
,,,,,,,,,,,,,,,,,livaklom,livaklok,left,7.2085,0,130,130,82,1,29,livaklik,livaklasz,NA,NA,Te bizony sokat livaklasz.,Én is sokat...,livaklok,livaklom,lakik,-lik,2,PR2039,1979,nő,nem,2022-04-18_21h58.02.191,hesp_baseline,2021.2.3,Win32,60.0024001
,,,,,,,,,,,,,,,,,spéslek,spéslem,left,11.2295,0,131,131,93,1,40,spéslik,spéslesz,NA,NA,Te bizony sokat spéslesz.,Én is sokat...,spéslek,spéslem,lakik,-lik,1,PR2039,1979,nő,nem,2022-04-18_21h58.02.191,hesp_baseline,2021.2.3,Win32,60.0024001
,,,,,,,,,,,,,,,,,fágyépnél,fágyépnál,right,15.6842,0,132,132,10,1,11,fágyép,fágyép,nál,é,Ez itt egy fágyép.,Nincs is jobb egy jó...,fágyépnél,fágyépnál,dzsungel,NA,NA,PR2039,1979,nő,nem,2022-04-18_21h58.02.191,hesp_baseline,2021.2.3,Win32,60.0024001
,,,,,,,,,,,,,,,,,spibaklom,spibaklok,left,12.8394,0,133,133,55,1,2,spibaklik,spibaklasz,NA,NA,Te bizony sokat spibaklasz.,Én is sokat...,spibaklok,spibaklom,lakik,-lik,2,PR2039,1979,nő,nem,2022-04-18_21h58.02.191,hesp_baseline,2021.2.3,Win32,60.0024001
,,,,,,,,,,,,,,,,,tarhézben,tarhézban,right,5.253,0,134,134,25,1,26,tarhéz,tarhéz,ban,é,Ez itt egy tarhéz.,Ott vagyunk a...,tarhézben,tarhézban,dzsungel,NA,NA,PR2039,1979,nő,nem,2022-04-18_21h58.02.191,hesp_baseline,2021.2.3,Win32,60.0024001
,,,,,,,,,,,,,,,,,gyivepednek,gyivepszenek,left,7.6882,0,135,135,160,1,53,gyivepszik / gyivepedik,"gyivepszik, gyivepedni",nek,NA,"János imád gyivepedni, ezért sokat gyivepszik.",Ők ritkán...,gyivepszenek,gyivepednek,cselekszik,-szik,2,PR2039,1979,nő,nem,2022-04-18_21h58.02.191,hesp_baseline,2021.2.3,Win32,60.0024001
,,,,,,,,,,,,,,,,,bejezünk,bejzünk,left,15.3997,0,136,136,148,1,41,bejzik / bejezik,"bejzik, bejezni",ünk,NA,"János imád bejezni, ezért sokat bejzik.",Mi ritkán...,bejzünk,bejezünk,cselekszik,-zik,1,PR2039,1979,nő,nem,2022-04-18_21h58.02.191,hesp_baseline,2021.2.3,Win32,60.0024001
,,,,,,,,,,,,,,,,,brüszöztök,brüszlötök,left,11.3234,0,137,137,130,1,23,brüszlik / brüszözik,"brüszlik, brüszözni",tek,NA,"János imád brüszözni, ezért sokat brüszlik.",Ti ritkán...,brüszlötök,brüszöztök,cselekszik,-lik,1,PR2039,1979,nő,nem,2022-04-18_21h58.02.191,hesp_baseline,2021.2.3,Win32,60.0024001
,,,,,,,,,,,,,,,,,brözlötök,brözöztök,right,7.5575,0,138,138,145,1,38,brözlik / brözözik,"brözlik, brözözni",tek,NA,"János imád brözözni, ezért sokat brözlik.",Ti ritkán...,brözlötök,brözöztök,cselekszik,-lik,1,PR2039,1979,nő,nem,2022-04-18_21h58.02.191,hesp_baseline,2021.2.3,Win32,60.0024001
,,,,,,,,,,,,,,,,,frélegzünk,frélegezünk,right,21.3662,0,139,139,147,1,40,frélegzik / frélegezik,"frélegzik, frélegezni",ünk,NA,"János imád frélegezni, ezért sokat frélegzik.",Mi ritkán...,frélegzünk,frélegezünk,cselekszik,-zik,2,PR2039,1979,nő,nem,2022-04-18_21h58.02.191,hesp_baseline,2021.2.3,Win32,60.0024001
,,,,,,,,,,,,,,,,,hóbensban,hóbensben,right,11.4504,0,140,140,3,1,4,hóbens,hóbens,ban,e,Ez itt egy hóbens.,Ott vagyunk a...,hóbensben,hóbensban,dzsungel,NA,NA,PR2039,1979,nő,nem,2022-04-18_21h58.02.191,hesp_baseline,2021.2.3,Win32,60.0024001
,,,,,,,,,,,,,,,,,sprimlunk,sprimozunk,right,9.2169,0,141,141,127,1,20,sprimlik / sprimozik,"sprimlik, sprimozni",ünk,NA,"János imád sprimozni, ezért sokat sprimlik.",Mi ritkán...,sprimlunk,sprimozunk,cselekszik,-lik,1,PR2039,1979,nő,nem,2022-04-18_21h58.02.191,hesp_baseline,2021.2.3,Win32,60.0024001
,,,,,,,,,,,,,,,,,lörűdzöm,lörűdzök,right,8.0036,0,142,142,77,1,24,lörűdzik,lörűdzöl,NA,NA,Te bizony sokat lörűdzöl.,Én is sokat...,lörűdzök,lörűdzöm,lakik,-zik,2,PR2039,1979,nő,nem,2022-04-18_21h58.02.191,hesp_baseline,2021.2.3,Win32,60.0024001
,,,,,,,,,,,,,,,,,flehénylek,flehénylem,left,5.4046,0,143,143,106,1,53,flehénylik,flehénylesz,NA,NA,Te bizony sokat flehénylesz.,Én is sokat...,flehénylek,flehénylem,lakik,-lik,2,PR2039,1979,nő,nem,2022-04-18_21h58.02.191,hesp_baseline,2021.2.3,Win32,60.0024001
,,,,,,,,,,,,,,,,,aglok,aglom,left,6.7057,0,144,144,100,1,47,aglik,aglasz,NA,NA,Te bizony sokat aglasz.,Én is sokat...,aglok,aglom,lakik,-lik,1,PR2039,1979,nő,nem,2022-04-18_21h58.02.191,hesp_baseline,2021.2.3,Win32,60.0024001
,,,,,,,,,,,,,,,,,köszlötök,köszöztök,right,7.8353,0,145,145,120,1,13,köszlik / köszözik,"köszlik, köszözni",tek,NA,"János imád köszözni, ezért sokat köszlik.",Ti ritkán...,köszlötök,köszöztök,cselekszik,-lik,1,PR2039,1979,nő,nem,2022-04-18_21h58.02.191,hesp_baseline,2021.2.3,Win32,60.0024001
,,,,,,,,,,,,,,,,,klihaslotok,klihasoztok,right,7.6047,0,146,146,156,1,49,klihaslik / klihasozik,"klihaslik, klihasozni",tek,NA,"János imád klihasozni, ezért sokat klihaslik.",Ti ritkán...,klihaslotok,klihasoztok,cselekszik,-lik,2,PR2039,1979,nő,nem,2022-04-18_21h58.02.191,hesp_baseline,2021.2.3,Win32,60.0024001
,,,,,,,,,,,,,,,,,tágarzunk,tágarozunk,right,8.989,0,147,147,155,1,48,tágarzik / tágarozik,"tágarzik, tágarozni",ünk,NA,"János imád tágarozni, ezért sokat tágarzik.",Mi ritkán...,tágarzunk,tágarozunk,cselekszik,-zik,2,PR2039,1979,nő,nem,2022-04-18_21h58.02.191,hesp_baseline,2021.2.3,Win32,60.0024001
,,,,,,,,,,,,,,,,,málapszom,málapszok,right,13.4177,0,148,148,66,1,13,málapszik,málapszol,NA,NA,Te bizony sokat málapszol.,Én is sokat...,málapszok,málapszom,lakik,-szik,2,PR2039,1979,nő,nem,2022-04-18_21h58.02.191,hesp_baseline,2021.2.3,Win32,60.0024001
,,,,,,,,,,,,,,,,,hiragzanak,hiragoznak,right,8.4271,0,149,149,119,1,12,hiragzik / hiragozik,"hiragzik, hiragozni",nek,NA,"János imád hiragozni, ezért sokat hiragzik.",Ők ritkán...,hiragzanak,hiragoznak,cselekszik,-zik,2,PR2039,1979,nő,nem,2022-04-18_21h58.02.191,hesp_baseline,2021.2.3,Win32,60.0024001
,,,,,,,,,,,,,,,,,gábédnél,gábédnál,right,16.0171,0,150,150,39,1,40,gábéd,gábéd,nál,é,Ez itt egy gábéd.,Nincs is jobb egy jó...,gábédnél,gábédnál,dzsungel,NA,NA,PR2039,1979,nő,nem,2022-04-18_21h58.02.191,hesp_baseline,2021.2.3,Win32,60.0024001
,,,,,,,,,,,,,,,,,bölszöm,bölszök,right,15.4246,0,151,151,105,1,52,bölszik,bölszöl,NA,NA,Te bizony sokat bölszöl.,Én is sokat...,bölszök,bölszöm,lakik,-szik,1,PR2039,1979,nő,nem,2022-04-18_21h58.02.191,hesp_baseline,2021.2.3,Win32,60.0024001
,,,,,,,,,,,,,,,,,tránélynek,tránélynak,right,9.2843,0,152,152,17,1,18,tránély,tránély,nak,é,Ez itt egy tránély.,Elneveztem a kutyámat...,tránélynek,tránélynak,dzsungel,NA,NA,PR2039,1979,nő,nem,2022-04-18_21h58.02.191,hesp_baseline,2021.2.3,Win32,60.0024001
,,,,,,,,,,,,,,,,,herégszem,herégszek,right,6.1263,0,153,153,54,1,1,herégszik,herégszel,NA,NA,Te bizony sokat herégszel.,Én is sokat...,herégszek,herégszem,lakik,-szik,2,PR2039,1979,nő,nem,2022-04-18_21h58.02.191,hesp_baseline,2021.2.3,Win32,60.0024001
,,,,,,,,,,,,,,,,,pekedünk,pekszünk,left,32.5521,0,154,154,161,1,54,pekszik / pekedik,"pekszik, pekedni",ünk,NA,"János imád pekedni, ezért sokat pekszik.",Mi ritkán...,pekszünk,pekedünk,cselekszik,-szik,1,PR2039,1979,nő,nem,2022-04-18_21h58.02.191,hesp_baseline,2021.2.3,Win32,60.0024001
,,,,,,,,,,,,,,,,,kűdöznek,kűdlenek,left,7.8827,0,155,155,142,1,35,kűdlik / kűdözik,"kűdlik, kűdözni",nek,NA,"János imád kűdözni, ezért sokat kűdlik.",Ők ritkán...,kűdlenek,kűdöznek,cselekszik,-lik,1,PR2039,1979,nő,nem,2022-04-18_21h58.02.191,hesp_baseline,2021.2.3,Win32,60.0024001
,,,,,,,,,,,,,,,,,galárzanak,galároznak,right,8.4079,0,156,156,154,1,47,galárzik / galározik,"galárzik, galározni",nek,NA,"János imád galározni, ezért sokat galárzik.",Ők ritkán...,galárzanak,galároznak,cselekszik,-zik,2,PR2039,1979,nő,nem,2022-04-18_21h58.02.191,hesp_baseline,2021.2.3,Win32,60.0024001
,,,,,,,,,,,,,,,,,klörlöm,klörlök,right,10.1543,0,157,157,80,1,27,klörlik,klörlesz,NA,NA,Te bizony sokat klörlesz.,Én is sokat...,klörlök,klörlöm,lakik,-lik,1,PR2039,1979,nő,nem,2022-04-18_21h58.02.191,hesp_baseline,2021.2.3,Win32,60.0024001
,,,,,,,,,,,,,,,,,nyivágozunk,nyivágzunk,right,10.2872,0,158,158,113,1,6,nyivágzik / nyivágozik,"nyivágzik, nyivágozni",ünk,NA,"János imád nyivágozni, ezért sokat nyivágzik.",Mi ritkán...,nyivágzunk,nyivágozunk,cselekszik,-zik,2,PR2039,1979,nő,nem,2022-04-18_21h58.02.191,hesp_baseline,2021.2.3,Win32,60.0024001
,,,,,,,,,,,,,,,,,bralképban,bralképben,right,4.2947,0,159,159,12,1,13,bralkép,bralkép,ban,é,Ez itt egy bralkép.,Ott vagyunk a...,bralképben,bralképban,dzsungel,NA,NA,PR2039,1979,nő,nem,2022-04-18_21h58.02.191,hesp_baseline,2021.2.3,Win32,60.0024001
,,,,,,,,,,,,,,,,,géregeztek,géregletek,left,13.0515,0,160,160,124,1,17,géreglik / géregezik,"géreglik, géregezni",tek,NA,"János imád géregezni, ezért sokat géreglik.",Ti ritkán...,géregletek,géregeztek,cselekszik,-lik,2,PR2039,1979,nő,nem,2022-04-18_21h58.02.191,hesp_baseline,2021.2.3,Win32,60.0024001
,,,,,,,,,,,,,,,,,vilakszom,vilakszok,right,13.2821,0,161,161,97,1,44,vilakszik,vilakszol,NA,NA,Te bizony sokat vilakszol.,Én is sokat...,vilakszok,vilakszom,lakik,-szik,2,PR2039,1979,nő,nem,2022-04-18_21h58.02.191,hesp_baseline,2021.2.3,Win32,60.0024001
