my_list,key.keys,key.rt,key_2.keys,key_2.rt,keyboard_input_2.keys,keyboard_input_2.rt,key_3.keys,key_3.rt,keyboard_input_3.keys,keyboard_input_3.rt,key_4.keys,key_4.rt,keyboard_input_4.keys,keyboard_input_4.rt,key_5.keys,key_5.rt,my_button1,my_button2,keyboard_input.keys,keyboard_input.rt,withinBlock.thisRepN,withinBlock.thisTrialN,withinBlock.thisN,withinBlock.thisIndex,withinBlock.ran,rowname,word,prompt,suffix,vowel,carrier_sentence,target_sentence,target1,target2,category,derivational,nsyl,Azonosító,Melyik évben születtél?,Mi a nemed?,Tanultál nyelvészetet?,date,expName,psychopyVersion,OS,frameRate
list2.csv,space,16.1024,space,8.0635,right,7.0276,space,11.4642,left,2.2815,space,10.998,left,4.1201,space,14.2738,prohódzom,prohódzok,left,9.1791,0,0,0,66,1,67,prohódzik,prohódzol,NA,NA,Te bizony sokat prohódzol.,Én is sokat...,prohódzok,prohódzom,lakik,-zik,2,PR2008,2000,nő,nem,2022-04-04_11h35.29.019,hesp_baseline,2021.2.3,Win32,59.85156811
,,,,,,,,,,,,,,,,,tribejeztek,tribejletek,right,41.7876,0,1,1,132,1,79,tribejlik / tribejezik,"tribejlik, tribejezni",tek,NA,"János imád tribejezni, ezért sokat tribejlik.",Ti ritkán...,tribejletek,tribejeztek,cselekszik,-lik,2,PR2008,2000,nő,nem,2022-04-04_11h35.29.019,hesp_baseline,2021.2.3,Win32,59.85156811
,,,,,,,,,,,,,,,,,trugoznak,trugzanak,right,20.4651,0,2,2,146,1,93,trugzik / trugozik,"trugzik, trugozni",nek,NA,"János imád trugozni, ezért sokat trugzik.",Ők ritkán...,trugzanak,trugoznak,cselekszik,-zik,1,PR2008,2000,nő,nem,2022-04-04_11h35.29.019,hesp_baseline,2021.2.3,Win32,59.85156811
,,,,,,,,,,,,,,,,,flehékszek,flehékszem,left,10.4466,0,3,3,77,1,78,flehékszik,flehékszel,NA,NA,Te bizony sokat flehékszel.,Én is sokat...,flehékszek,flehékszem,lakik,-szik,2,PR2008,2000,nő,nem,2022-04-04_11h35.29.019,hesp_baseline,2021.2.3,Win32,59.85156811
,,,,,,,,,,,,,,,,,dihelynek,dihelynak,left,5.5421,0,4,4,20,1,75,dihely,dihely,nak,e,Ez itt egy dihely.,Elneveztem a kutyámat...,dihelynek,dihelynak,dzsungel,NA,NA,PR2008,2000,nő,nem,2022-04-04_11h35.29.019,hesp_baseline,2021.2.3,Win32,59.85156811
,,,,,,,,,,,,,,,,,pítendben,pítendban,left,4.0137,0,5,5,18,1,73,pítend,pítend,ban,e,Ez itt egy pítend.,Ott vagyunk a...,pítendben,pítendban,dzsungel,NA,NA,PR2008,2000,nő,nem,2022-04-04_11h35.29.019,hesp_baseline,2021.2.3,Win32,59.85156811
,,,,,,,,,,,,,,,,,flerékszünk,flerékedünk,left,10.2727,0,6,6,159,1,106,flerékszik / flerékedik,"flerékszik, flerékedni",ünk,NA,"János imád flerékedni, ezért sokat flerékszik.",Mi ritkán...,flerékszünk,flerékedünk,cselekszik,-szik,2,PR2008,2000,nő,nem,2022-04-04_11h35.29.019,hesp_baseline,2021.2.3,Win32,59.85156811
,,,,,,,,,,,,,,,,,zihencnek,zihencnak,left,3.7789,0,7,7,52,1,107,zihenc,zihenc,nak,e,Ez itt egy zihenc.,Elneveztem a kutyámat...,zihencnek,zihencnak,dzsungel,NA,NA,PR2008,2000,nő,nem,2022-04-04_11h35.29.019,hesp_baseline,2021.2.3,Win32,59.85156811
,,,,,,,,,,,,,,,,,spüjzök,spüjzöm,left,9.8637,0,8,8,59,1,60,spüjzik,spüjzöl,NA,NA,Te bizony sokat spüjzöl.,Én is sokat...,spüjzök,spüjzöm,lakik,-zik,1,PR2008,2000,nő,nem,2022-04-04_11h35.29.019,hesp_baseline,2021.2.3,Win32,59.85156811
,,,,,,,,,,,,,,,,,prihegednek,prihegszenek,left,17.1963,0,9,9,155,1,102,prihegszik / prihegedik,"prihegszik, prihegedni",nek,NA,"János imád prihegedni, ezért sokat prihegszik.",Ők ritkán...,prihegszenek,prihegednek,cselekszik,-szik,2,PR2008,2000,nő,nem,2022-04-04_11h35.29.019,hesp_baseline,2021.2.3,Win32,59.85156811
,,,,,,,,,,,,,,,,,bingéjnek,bingéjnak,left,5.7311,0,10,10,49,1,104,bingéj,bingéj,nak,é,Ez itt egy bingéj.,Elneveztem a kutyámat...,bingéjnek,bingéjnak,dzsungel,NA,NA,PR2008,2000,nő,nem,2022-04-04_11h35.29.019,hesp_baseline,2021.2.3,Win32,59.85156811
,,,,,,,,,,,,,,,,,csubzunk,csubozunk,left,10.941,0,11,11,111,1,58,csubzik / csubozik,"csubzik, csubozni",ünk,NA,"János imád csubozni, ezért sokat csubzik.",Mi ritkán...,csubzunk,csubozunk,cselekszik,-zik,1,PR2008,2000,nő,nem,2022-04-04_11h35.29.019,hesp_baseline,2021.2.3,Win32,59.85156811
,,,,,,,,,,,,,,,,,kalrézban,kalrézben,left,4.6497,0,12,12,16,1,71,kalréz,kalréz,ban,é,Ez itt egy kalréz.,Ott vagyunk a...,kalrézben,kalrézban,dzsungel,NA,NA,PR2008,2000,nő,nem,2022-04-04_11h35.29.019,hesp_baseline,2021.2.3,Win32,59.85156811
,,,,,,,,,,,,,,,,,pivegszem,pivegszek,left,8.6815,0,13,13,99,1,100,pivegszik,pivegszel,NA,NA,Te bizony sokat pivegszel.,Én is sokat...,pivegszek,pivegszem,lakik,-szik,2,PR2008,2000,nő,nem,2022-04-04_11h35.29.019,hesp_baseline,2021.2.3,Win32,59.85156811
,,,,,,,,,,,,,,,,,csintékban,csintékben,left,10.981,0,14,14,23,1,78,csinték,csinték,ban,é,Ez itt egy csinték.,Ott vagyunk a...,csintékben,csintékban,dzsungel,NA,NA,PR2008,2000,nő,nem,2022-04-04_11h35.29.019,hesp_baseline,2021.2.3,Win32,59.85156811
,,,,,,,,,,,,,,,,,szirlom,szirlok,right,6.9013,0,15,15,62,1,63,szirlik,szirlasz,NA,NA,Te bizony sokat szirlasz.,Én is sokat...,szirlok,szirlom,lakik,-lik,1,PR2008,2000,nő,nem,2022-04-04_11h35.29.019,hesp_baseline,2021.2.3,Win32,59.85156811
,,,,,,,,,,,,,,,,,gilárzom,gilárzok,left,16.9458,0,16,16,94,1,95,gilárzik,gilárzol,NA,NA,Te bizony sokat gilárzol.,Én is sokat...,gilárzok,gilárzom,lakik,-zik,2,PR2008,2000,nő,nem,2022-04-04_11h35.29.019,hesp_baseline,2021.2.3,Win32,59.85156811
,,,,,,,,,,,,,,,,,praslok,praslom,left,5.1758,0,17,17,80,1,81,praslik,praslasz,NA,NA,Te bizony sokat praslasz.,Én is sokat...,praslok,praslom,lakik,-lik,1,PR2008,2000,nő,nem,2022-04-04_11h35.29.019,hesp_baseline,2021.2.3,Win32,59.85156811
,,,,,,,,,,,,,,,,,pratánylom,pratánylok,left,6.527,0,18,18,95,1,96,pratánylik,pratánylasz,NA,NA,Te bizony sokat pratánylasz.,Én is sokat...,pratánylok,pratánylom,lakik,-lik,2,PR2008,2000,nő,nem,2022-04-04_11h35.29.019,hesp_baseline,2021.2.3,Win32,59.85156811
,,,,,,,,,,,,,,,,,lingéknél,lingéknál,left,5.4384,0,19,19,32,1,87,lingék,lingék,nál,é,Ez itt egy lingék.,Nincs is jobb egy jó...,lingéknél,lingéknál,dzsungel,NA,NA,PR2008,2000,nő,nem,2022-04-04_11h35.29.019,hesp_baseline,2021.2.3,Win32,59.85156811
,,,,,,,,,,,,,,,,,huroslom,huroslok,right,8.856,0,20,20,76,1,77,huroslik,huroslasz,NA,NA,Te bizony sokat huroslasz.,Én is sokat...,huroslok,huroslom,lakik,-lik,2,PR2008,2000,nő,nem,2022-04-04_11h35.29.019,hesp_baseline,2021.2.3,Win32,59.85156811
,,,,,,,,,,,,,,,,,nyöbzenek,nyöböznek,left,8.9699,0,21,21,152,1,99,nyöbzik / nyöbözik,"nyöbzik, nyöbözni",nek,NA,"János imád nyöbözni, ezért sokat nyöbzik.",Ők ritkán...,nyöbzenek,nyöböznek,cselekszik,-zik,1,PR2008,2000,nő,nem,2022-04-04_11h35.29.019,hesp_baseline,2021.2.3,Win32,59.85156811
,,,,,,,,,,,,,,,,,spülűdzök,spülűdzöm,right,12.3622,0,22,22,56,1,57,spülűdzik,spülűdzöl,NA,NA,Te bizony sokat spülűdzöl.,Én is sokat...,spülűdzök,spülűdzöm,lakik,-zik,2,PR2008,2000,nő,nem,2022-04-04_11h35.29.019,hesp_baseline,2021.2.3,Win32,59.85156811
,,,,,,,,,,,,,,,,,pribemlem,pribemlek,right,4.8674,0,23,23,107,1,108,pribemlik,pribemlesz,NA,NA,Te bizony sokat pribemlesz.,Én is sokat...,pribemlek,pribemlem,lakik,-lik,2,PR2008,2000,nő,nem,2022-04-04_11h35.29.019,hesp_baseline,2021.2.3,Win32,59.85156811
,,,,,,,,,,,,,,,,,csíszlok,csíszlom,right,5.7928,0,24,24,84,1,85,csíszlik,csíszlasz,NA,NA,Te bizony sokat csíszlasz.,Én is sokat...,csíszlok,csíszlom,lakik,-lik,1,PR2008,2000,nő,nem,2022-04-04_11h35.29.019,hesp_baseline,2021.2.3,Win32,59.85156811
,,,,,,,,,,,,,,,,,figlok,figlom,left,6.1008,0,25,25,75,1,76,figlik,figlasz,NA,NA,Te bizony sokat figlasz.,Én is sokat...,figlok,figlom,lakik,-lik,1,PR2008,2000,nő,nem,2022-04-04_11h35.29.019,hesp_baseline,2021.2.3,Win32,59.85156811
,,,,,,,,,,,,,,,,,trírozunk,trírzunk,right,10.9592,0,26,26,116,1,63,trírzik / trírozik,"trírzik, trírozni",ünk,NA,"János imád trírozni, ezért sokat trírzik.",Mi ritkán...,trírzunk,trírozunk,cselekszik,-zik,1,PR2008,2000,nő,nem,2022-04-04_11h35.29.019,hesp_baseline,2021.2.3,Win32,59.85156811
,,,,,,,,,,,,,,,,,spatárzom,spatárzok,left,9.8646,0,27,27,69,1,70,spatárzik,spatárzol,NA,NA,Te bizony sokat spatárzol.,Én is sokat...,spatárzok,spatárzom,lakik,-zik,2,PR2008,2000,nő,nem,2022-04-04_11h35.29.019,hesp_baseline,2021.2.3,Win32,59.85156811
,,,,,,,,,,,,,,,,,klingeszben,klingeszban,left,6.668,0,28,28,1,1,56,klingesz,klingesz,ban,e,Ez itt egy klingesz.,Ott vagyunk a...,klingeszben,klingeszban,dzsungel,NA,NA,PR2008,2000,nő,nem,2022-04-04_11h35.29.019,hesp_baseline,2021.2.3,Win32,59.85156811
,,,,,,,,,,,,,,,,,dabzotok,daboztok,right,11.2893,0,29,29,109,1,56,dabzik / dabozik,"dabzik, dabozni",tek,NA,"János imád dabozni, ezért sokat dabzik.",Ti ritkán...,dabzotok,daboztok,cselekszik,-zik,1,PR2008,2000,nő,nem,2022-04-04_11h35.29.019,hesp_baseline,2021.2.3,Win32,59.85156811
,,,,,,,,,,,,,,,,,mihágzotok,mihágoztok,left,11.8945,0,30,30,118,1,65,mihágzik / mihágozik,"mihágzik, mihágozni",tek,NA,"János imád mihágozni, ezért sokat mihágzik.",Ti ritkán...,mihágzotok,mihágoztok,cselekszik,-zik,2,PR2008,2000,nő,nem,2022-04-04_11h35.29.019,hesp_baseline,2021.2.3,Win32,59.85156811
,,,,,,,,,,,,,,,,,tiregzem,tiregzek,left,4.343,0,31,31,64,1,65,tiregzik,tiregzel,NA,NA,Te bizony sokat tiregzel.,Én is sokat...,tiregzek,tiregzem,lakik,-zik,2,PR2008,2000,nő,nem,2022-04-04_11h35.29.019,hesp_baseline,2021.2.3,Win32,59.85156811
,,,,,,,,,,,,,,,,,flátszok,flátszom,left,3.75,0,32,32,98,1,99,flátszik,flátszol,NA,NA,Te bizony sokat flátszol.,Én is sokat...,flátszok,flátszom,lakik,-szik,1,PR2008,2000,nő,nem,2022-04-04_11h35.29.019,hesp_baseline,2021.2.3,Win32,59.85156811
,,,,,,,,,,,,,,,,,nűröklöm,nűröklök,left,4.9558,0,33,33,106,1,107,nűröklik,nűröklesz,NA,NA,Te bizony sokat nűröklesz.,Én is sokat...,nűröklök,nűröklöm,lakik,-lik,2,PR2008,2000,nő,nem,2022-04-04_11h35.29.019,hesp_baseline,2021.2.3,Win32,59.85156811
,,,,,,,,,,,,,,,,,frivamozunk,frivamlunk,left,13.2501,0,34,34,122,1,69,frivamlik / frivamozik,"frivamlik, frivamozni",ünk,NA,"János imád frivamozni, ezért sokat frivamlik.",Mi ritkán...,frivamlunk,frivamozunk,cselekszik,-lik,2,PR2008,2000,nő,nem,2022-04-04_11h35.29.019,hesp_baseline,2021.2.3,Win32,59.85156811
,,,,,,,,,,,,,,,,,spáraklok,spáraklom,right,9.0797,0,35,35,96,1,97,spáraklik,spáraklasz,NA,NA,Te bizony sokat spáraklasz.,Én is sokat...,spáraklok,spáraklom,lakik,-lik,2,PR2008,2000,nő,nem,2022-04-04_11h35.29.019,hesp_baseline,2021.2.3,Win32,59.85156811
,,,,,,,,,,,,,,,,,lorjódzok,lorjódzom,left,4.8374,0,36,36,88,1,89,lorjódzik,lorjódzol,NA,NA,Te bizony sokat lorjódzol.,Én is sokat...,lorjódzok,lorjódzom,lakik,-zik,2,PR2008,2000,nő,nem,2022-04-04_11h35.29.019,hesp_baseline,2021.2.3,Win32,59.85156811
,,,,,,,,,,,,,,,,,fojlegynak,fojlegynek,right,4.9598,0,37,37,3,1,58,fojlegy,fojlegy,nak,e,Ez itt egy fojlegy.,Elneveztem a kutyámat...,fojlegynek,fojlegynak,dzsungel,NA,NA,PR2008,2000,nő,nem,2022-04-04_11h35.29.019,hesp_baseline,2021.2.3,Win32,59.85156811
,,,,,,,,,,,,,,,,,spizecnak,spizecnek,left,10.6335,0,38,38,6,1,61,spizec,spizec,nak,e,Ez itt egy spizec.,Elneveztem a kutyámat...,spizecnek,spizecnak,dzsungel,NA,NA,PR2008,2000,nő,nem,2022-04-04_11h35.29.019,hesp_baseline,2021.2.3,Win32,59.85156811
,,,,,,,,,,,,,,,,,gihamoznak,gihamlanak,right,4.7356,0,39,39,133,1,80,gihamlik / gihamozik,"gihamlik, gihamozni",nek,NA,"János imád gihamozni, ezért sokat gihamlik.",Ők ritkán...,gihamlanak,gihamoznak,cselekszik,-lik,2,PR2008,2000,nő,nem,2022-04-04_11h35.29.019,hesp_baseline,2021.2.3,Win32,59.85156811
,,,,,,,,,,,,,,,,,klítegynál,klítegynél,right,6.6681,0,40,40,5,1,60,klítegy,klítegy,nál,e,Ez itt egy klítegy.,Nincs is jobb egy jó...,klítegynél,klítegynál,dzsungel,NA,NA,PR2008,2000,nő,nem,2022-04-04_11h35.29.019,hesp_baseline,2021.2.3,Win32,59.85156811
,,,,,,,,,,,,,,,,,metégednek,metégszenek,left,9.898,0,41,41,112,1,59,metégszik / metégedik,"metégszik, metégedni",nek,NA,"János imád metégedni, ezért sokat metégszik.",Ők ritkán...,metégszenek,metégednek,cselekszik,-szik,2,PR2008,2000,nő,nem,2022-04-04_11h35.29.019,hesp_baseline,2021.2.3,Win32,59.85156811
,,,,,,,,,,,,,,,,,brivegzem,brivegzek,left,5.895,0,42,42,70,1,71,brivegzik,brivegzel,NA,NA,Te bizony sokat brivegzel.,Én is sokat...,brivegzek,brivegzem,lakik,-zik,2,PR2008,2000,nő,nem,2022-04-04_11h35.29.019,hesp_baseline,2021.2.3,Win32,59.85156811
,,,,,,,,,,,,,,,,,kluhéjnál,kluhéjnél,left,6.2439,0,43,43,24,1,79,kluhéj,kluhéj,nál,é,Ez itt egy kluhéj.,Nincs is jobb egy jó...,kluhéjnél,kluhéjnál,dzsungel,NA,NA,PR2008,2000,nő,nem,2022-04-04_11h35.29.019,hesp_baseline,2021.2.3,Win32,59.85156811
,,,,,,,,,,,,,,,,,ribzok,ribzom,right,6.8324,0,44,44,58,1,59,ribzik,ribzol,NA,NA,Te bizony sokat ribzol.,Én is sokat...,ribzok,ribzom,lakik,-zik,1,PR2008,2000,nő,nem,2022-04-04_11h35.29.019,hesp_baseline,2021.2.3,Win32,59.85156811
,,,,,,,,,,,,,,,,,míjozunk,míjzunk,right,7.1851,0,45,45,114,1,61,míjzik / míjozik,"míjzik, míjozni",ünk,NA,"János imád míjozni, ezért sokat míjzik.",Mi ritkán...,míjzunk,míjozunk,cselekszik,-zik,1,PR2008,2000,nő,nem,2022-04-04_11h35.29.019,hesp_baseline,2021.2.3,Win32,59.85156811
,,,,,,,,,,,,,,,,,dingecnak,dingecnek,right,6.5192,0,46,46,42,1,97,dingec,dingec,nak,e,Ez itt egy dingec.,Elneveztem a kutyámat...,dingecnek,dingecnak,dzsungel,NA,NA,PR2008,2000,nő,nem,2022-04-04_11h35.29.019,hesp_baseline,2021.2.3,Win32,59.85156811
,,,,,,,,,,,,,,,,,nurokozunk,nuroklunk,right,15.1548,0,47,47,131,1,78,nuroklik / nurokozik,"nuroklik, nurokozni",ünk,NA,"János imád nurokozni, ezért sokat nuroklik.",Mi ritkán...,nuroklunk,nurokozunk,cselekszik,-lik,2,PR2008,2000,nő,nem,2022-04-04_11h35.29.019,hesp_baseline,2021.2.3,Win32,59.85156811
,,,,,,,,,,,,,,,,,prazozunk,prazlunk,left,15.9787,0,48,48,119,1,66,prazlik / prazozik,"prazlik, prazozni",ünk,NA,"János imád prazozni, ezért sokat prazlik.",Mi ritkán...,prazlunk,prazozunk,cselekszik,-lik,1,PR2008,2000,nő,nem,2022-04-04_11h35.29.019,hesp_baseline,2021.2.3,Win32,59.85156811
,,,,,,,,,,,,,,,,,sprogzok,sprogzom,left,3.6969,0,49,49,89,1,90,sprogzik,sprogzol,NA,NA,Te bizony sokat sprogzol.,Én is sokat...,sprogzok,sprogzom,lakik,-zik,1,PR2008,2000,nő,nem,2022-04-04_11h35.29.019,hesp_baseline,2021.2.3,Win32,59.85156811
,,,,,,,,,,,,,,,,,vorszennál,vorszennél,left,8.6008,0,50,50,30,1,85,vorszen,vorszen,nál,e,Ez itt egy vorszen.,Nincs is jobb egy jó...,vorszennél,vorszennál,dzsungel,NA,NA,PR2008,2000,nő,nem,2022-04-04_11h35.29.019,hesp_baseline,2021.2.3,Win32,59.85156811
,,,,,,,,,,,,,,,,,sojzok,sojzom,left,3.3807,0,51,51,74,1,75,sojzik,sojzol,NA,NA,Te bizony sokat sojzol.,Én is sokat...,sojzok,sojzom,lakik,-zik,1,PR2008,2000,nő,nem,2022-04-04_11h35.29.019,hesp_baseline,2021.2.3,Win32,59.85156811
,,,,,,,,,,,,,,,,,livénylünk,livényezünk,right,7.8677,0,52,52,128,1,75,livénylik / livényezik,"livénylik, livényezni",ünk,NA,"János imád livényezni, ezért sokat livénylik.",Mi ritkán...,livénylünk,livényezünk,cselekszik,-lik,2,PR2008,2000,nő,nem,2022-04-04_11h35.29.019,hesp_baseline,2021.2.3,Win32,59.85156811
,,,,,,,,,,,,,,,,,floglom,floglok,left,4.3667,0,53,53,92,1,93,floglik,floglasz,NA,NA,Te bizony sokat floglasz.,Én is sokat...,floglok,floglom,lakik,-lik,1,PR2008,2000,nő,nem,2022-04-04_11h35.29.019,hesp_baseline,2021.2.3,Win32,59.85156811
,,,,,,,,,,,,,,,,,jonylok,jonylom,left,4.1082,0,54,54,55,1,56,jonylik,jonylasz,NA,NA,Te bizony sokat jonylasz.,Én is sokat...,jonylok,jonylom,lakik,-lik,1,PR2008,2000,nő,nem,2022-04-04_11h35.29.019,hesp_baseline,2021.2.3,Win32,59.85156811
,,,,,,,,,,,,,,,,,klidlok,klidlom,left,4.6277,0,55,55,72,1,73,klidlik,klidlasz,NA,NA,Te bizony sokat klidlasz.,Én is sokat...,klidlok,klidlom,lakik,-lik,1,PR2008,2000,nő,nem,2022-04-04_11h35.29.019,hesp_baseline,2021.2.3,Win32,59.85156811
,,,,,,,,,,,,,,,,,fupétnál,fupétnél,left,8.6948,0,56,56,14,1,69,fupét,fupét,nál,é,Ez itt egy fupét.,Nincs is jobb egy jó...,fupétnél,fupétnál,dzsungel,NA,NA,PR2008,2000,nő,nem,2022-04-04_11h35.29.019,hesp_baseline,2021.2.3,Win32,59.85156811
,,,,,,,,,,,,,,,,,garcépnál,garcépnél,left,7.3663,0,57,57,38,1,93,garcép,garcép,nál,é,Ez itt egy garcép.,Nincs is jobb egy jó...,garcépnél,garcépnál,dzsungel,NA,NA,PR2008,2000,nő,nem,2022-04-04_11h35.29.019,hesp_baseline,2021.2.3,Win32,59.85156811
,,,,,,,,,,,,,,,,,branyoznak,branylanak,left,6.1176,0,58,58,136,1,83,branylik / branyozik,"branylik, branyozni",nek,NA,"János imád branyozni, ezért sokat branylik.",Ők ritkán...,branylanak,branyoznak,cselekszik,-lik,1,PR2008,2000,nő,nem,2022-04-04_11h35.29.019,hesp_baseline,2021.2.3,Win32,59.85156811
,,,,,,,,,,,,,,,,,spivélnek,spivélnak,right,2.2834,0,59,59,27,1,82,spivél,spivél,nak,é,Ez itt egy spivél.,Elneveztem a kutyámat...,spivélnek,spivélnak,dzsungel,NA,NA,PR2008,2000,nő,nem,2022-04-04_11h35.29.019,hesp_baseline,2021.2.3,Win32,59.85156811
,,,,,,,,,,,,,,,,,flüröslök,flüröslöm,left,8.8316,0,60,60,87,1,88,flüröslik,flüröslesz,NA,NA,Te bizony sokat flüröslesz.,Én is sokat...,flüröslök,flüröslöm,lakik,-lik,2,PR2008,2000,nő,nem,2022-04-04_11h35.29.019,hesp_baseline,2021.2.3,Win32,59.85156811
,,,,,,,,,,,,,,,,,trigencnak,trigencnek,right,4.8179,0,61,61,31,1,86,trigenc,trigenc,nak,e,Ez itt egy trigenc.,Elneveztem a kutyámat...,trigencnek,trigencnak,dzsungel,NA,NA,PR2008,2000,nő,nem,2022-04-04_11h35.29.019,hesp_baseline,2021.2.3,Win32,59.85156811
,,,,,,,,,,,,,,,,,klazérben,klazérban,right,3.2849,0,62,62,51,1,106,klazér,klazér,ban,é,Ez itt egy klazér.,Ott vagyunk a...,klazérben,klazérban,dzsungel,NA,NA,PR2008,2000,nő,nem,2022-04-04_11h35.29.019,hesp_baseline,2021.2.3,Win32,59.85156811
,,,,,,,,,,,,,,,,,tomlom,tomlok,right,6.5693,0,63,63,86,1,87,tomlik,tomlasz,NA,NA,Te bizony sokat tomlasz.,Én is sokat...,tomlok,tomlom,lakik,-lik,1,PR2008,2000,nő,nem,2022-04-04_11h35.29.019,hesp_baseline,2021.2.3,Win32,59.85156811
,,,,,,,,,,,,,,,,,zsigénnál,zsigénnél,right,3.1208,0,64,64,12,1,67,zsigén,zsigén,nál,é,Ez itt egy zsigén.,Nincs is jobb egy jó...,zsigénnél,zsigénnál,dzsungel,NA,NA,PR2008,2000,nő,nem,2022-04-04_11h35.29.019,hesp_baseline,2021.2.3,Win32,59.85156811
,,,,,,,,,,,,,,,,,fröjöztök,fröjzötök,left,8.7504,0,65,65,153,1,100,fröjzik / fröjözik,"fröjzik, fröjözni",tek,NA,"János imád fröjözni, ezért sokat fröjzik.",Ti ritkán...,fröjzötök,fröjöztök,cselekszik,-zik,1,PR2008,2000,nő,nem,2022-04-04_11h35.29.019,hesp_baseline,2021.2.3,Win32,59.85156811
,,,,,,,,,,,,,,,,,spihegzek,spihegzem,left,4.7495,0,66,66,81,1,82,spihegzik,spihegzel,NA,NA,Te bizony sokat spihegzel.,Én is sokat...,spihegzek,spihegzem,lakik,-zik,2,PR2008,2000,nő,nem,2022-04-04_11h35.29.019,hesp_baseline,2021.2.3,Win32,59.85156811
,,,,,,,,,,,,,,,,,lijeznak,lijeznek,right,4.4931,0,67,67,40,1,95,lijez,lijez,nak,e,Ez itt egy lijez.,Elneveztem a kutyámat...,lijeznek,lijeznak,dzsungel,NA,NA,PR2008,2000,nő,nem,2022-04-04_11h35.29.019,hesp_baseline,2021.2.3,Win32,59.85156811
,,,,,,,,,,,,,,,,,lihadzok,lihadzom,left,3.9997,0,68,68,101,1,102,lihadzik,lihadzol,NA,NA,Te bizony sokat lihadzol.,Én is sokat...,lihadzok,lihadzom,lakik,-zik,2,PR2008,2000,nő,nem,2022-04-04_11h35.29.019,hesp_baseline,2021.2.3,Win32,59.85156811
,,,,,,,,,,,,,,,,,brágaklok,brágaklom,left,6.611,0,69,69,71,1,72,brágaklik,brágaklasz,NA,NA,Te bizony sokat brágaklasz.,Én is sokat...,brágaklok,brágaklom,lakik,-lik,2,PR2008,2000,nő,nem,2022-04-04_11h35.29.019,hesp_baseline,2021.2.3,Win32,59.85156811
,,,,,,,,,,,,,,,,,spügzünk,spügözünk,left,8.0002,0,70,70,143,1,90,spügzik / spügözik,"spügzik, spügözni",ünk,NA,"János imád spügözni, ezért sokat spügzik.",Mi ritkán...,spügzünk,spügözünk,cselekszik,-zik,1,PR2008,2000,nő,nem,2022-04-04_11h35.29.019,hesp_baseline,2021.2.3,Win32,59.85156811
,,,,,,,,,,,,,,,,,ronvetnak,ronvetnek,left,5.3635,0,71,71,9,1,64,ronvet,ronvet,nak,e,Ez itt egy ronvet.,Elneveztem a kutyámat...,ronvetnek,ronvetnak,dzsungel,NA,NA,PR2008,2000,nő,nem,2022-04-04_11h35.29.019,hesp_baseline,2021.2.3,Win32,59.85156811
,,,,,,,,,,,,,,,,,brágédnek,brágédnak,left,6.6887,0,72,72,45,1,100,brágéd,brágéd,nak,é,Ez itt egy brágéd.,Elneveztem a kutyámat...,brágédnek,brágédnak,dzsungel,NA,NA,PR2008,2000,nő,nem,2022-04-04_11h35.29.019,hesp_baseline,2021.2.3,Win32,59.85156811
,,,,,,,,,,,,,,,,,poslotok,posoztok,left,4.971,0,73,73,121,1,68,poslik / posozik,"poslik, posozni",tek,NA,"János imád posozni, ezért sokat poslik.",Ti ritkán...,poslotok,posoztok,cselekszik,-lik,1,PR2008,2000,nő,nem,2022-04-04_11h35.29.019,hesp_baseline,2021.2.3,Win32,59.85156811
,,,,,,,,,,,,,,,,,sprízemnál,sprízemnél,left,12.6117,0,74,74,22,1,77,sprízem,sprízem,nál,e,Ez itt egy sprízem.,Nincs is jobb egy jó...,sprízemnél,sprízemnál,dzsungel,NA,NA,PR2008,2000,nő,nem,2022-04-04_11h35.29.019,hesp_baseline,2021.2.3,Win32,59.85156811
,,,,,,,,,,,,,,,,,csimennél,csimennál,left,4.4614,0,75,75,44,1,99,csimen,csimen,nál,e,Ez itt egy csimen.,Nincs is jobb egy jó...,csimennél,csimennál,dzsungel,NA,NA,PR2008,2000,nő,nem,2022-04-04_11h35.29.019,hesp_baseline,2021.2.3,Win32,59.85156811
,,,,,,,,,,,,,,,,,flürököztök,flüröklötök,left,14.5795,0,76,76,149,1,96,flüröklik / flüröközik,"flüröklik, flüröközni",tek,NA,"János imád flüröközni, ezért sokat flüröklik.",Ti ritkán...,flüröklötök,flürököztök,cselekszik,-lik,2,PR2008,2000,nő,nem,2022-04-04_11h35.29.019,hesp_baseline,2021.2.3,Win32,59.85156811
,,,,,,,,,,,,,,,,,spiharoztok,spiharzotok,left,6.8323,0,77,77,127,1,74,spiharzik / spiharozik,"spiharzik, spiharozni",tek,NA,"János imád spiharozni, ezért sokat spiharzik.",Ti ritkán...,spiharzotok,spiharoztok,cselekszik,-zik,2,PR2008,2000,nő,nem,2022-04-04_11h35.29.019,hesp_baseline,2021.2.3,Win32,59.85156811
,,,,,,,,,,,,,,,,,nyábétban,nyábétben,left,10.8168,0,78,78,21,1,76,nyábét,nyábét,ban,é,Ez itt egy nyábét.,Ott vagyunk a...,nyábétben,nyábétban,dzsungel,NA,NA,PR2008,2000,nő,nem,2022-04-04_11h35.29.019,hesp_baseline,2021.2.3,Win32,59.85156811
,,,,,,,,,,,,,,,,,dibáglotok,dibágoztok,left,13.1683,0,79,79,154,1,101,dibáglik / dibágozik,"dibáglik, dibágozni",tek,NA,"János imád dibágozni, ezért sokat dibáglik.",Ti ritkán...,dibáglotok,dibágoztok,cselekszik,-lik,2,PR2008,2000,nő,nem,2022-04-04_11h35.29.019,hesp_baseline,2021.2.3,Win32,59.85156811
,,,,,,,,,,,,,,,,,cságyeltben,cságyeltban,right,6.9494,0,80,80,10,1,65,cságyelt,cságyelt,ban,e,Ez itt egy cságyelt.,Ott vagyunk a...,cságyeltben,cságyeltban,dzsungel,NA,NA,PR2008,2000,nő,nem,2022-04-04_11h35.29.019,hesp_baseline,2021.2.3,Win32,59.85156811
,,,,,,,,,,,,,,,,,spöközünk,spöklünk,right,8.4515,0,81,81,130,1,77,spöklik / spöközik,"spöklik, spöközni",ünk,NA,"János imád spöközni, ezért sokat spöklik.",Mi ritkán...,spöklünk,spöközünk,cselekszik,-lik,1,PR2008,2000,nő,nem,2022-04-04_11h35.29.019,hesp_baseline,2021.2.3,Win32,59.85156811
,,,,,,,,,,,,,,,,,játozunk,játlunk,right,9.2562,0,82,82,145,1,92,játlik / játozik,"játlik, játozni",ünk,NA,"János imád játozni, ezért sokat játlik.",Mi ritkán...,játlunk,játozunk,cselekszik,-lik,1,PR2008,2000,nő,nem,2022-04-04_11h35.29.019,hesp_baseline,2021.2.3,Win32,59.85156811
,,,,,,,,,,,,,,,,,bribékedtek,bribékszetek,right,4.7812,0,83,83,141,1,88,bribékszik / bribékedik,"bribékszik, bribékedni",tek,NA,"János imád bribékedni, ezért sokat bribékszik.",Ti ritkán...,bribékszetek,bribékedtek,cselekszik,-szik,2,PR2008,2000,nő,nem,2022-04-04_11h35.29.019,hesp_baseline,2021.2.3,Win32,59.85156811
,,,,,,,,,,,,,,,,,sporzemnek,sporzemnak,right,14.3296,0,84,84,26,1,81,sporzem,sporzem,nak,e,Ez itt egy sporzem.,Elneveztem a kutyámat...,sporzemnek,sporzemnak,dzsungel,NA,NA,PR2008,2000,nő,nem,2022-04-04_11h35.29.019,hesp_baseline,2021.2.3,Win32,59.85156811
,,,,,,,,,,,,,,,,,sortemnál,sortemnél,left,8.3468,0,85,85,15,1,70,sortem,sortem,nál,e,Ez itt egy sortem.,Nincs is jobb egy jó...,sortemnél,sortemnál,dzsungel,NA,NA,PR2008,2000,nő,nem,2022-04-04_11h35.29.019,hesp_baseline,2021.2.3,Win32,59.85156811
,,,,,,,,,,,,,,,,,fájézban,fájézben,left,3.0234,0,86,86,7,1,62,fájéz,fájéz,ban,é,Ez itt egy fájéz.,Ott vagyunk a...,fájézben,fájézban,dzsungel,NA,NA,PR2008,2000,nő,nem,2022-04-04_11h35.29.019,hesp_baseline,2021.2.3,Win32,59.85156811
,,,,,,,,,,,,,,,,,flűgzünk,flűgözünk,left,4.3943,0,87,87,160,1,107,flűgzik / flűgözik,"flűgzik, flűgözni",ünk,NA,"János imád flűgözni, ezért sokat flűgzik.",Mi ritkán...,flűgzünk,flűgözünk,cselekszik,-zik,1,PR2008,2000,nő,nem,2022-04-04_11h35.29.019,hesp_baseline,2021.2.3,Win32,59.85156811
,,,,,,,,,,,,,,,,,juszlok,juszlom,left,4.5682,0,88,88,79,1,80,juszlik,juszlasz,NA,NA,Te bizony sokat juszlasz.,Én is sokat...,juszlok,juszlom,lakik,-lik,1,PR2008,2000,nő,nem,2022-04-04_11h35.29.019,hesp_baseline,2021.2.3,Win32,59.85156811
,,,,,,,,,,,,,,,,,fréslünk,frésezünk,left,9.1067,0,89,89,138,1,85,fréslik / frésezik,"fréslik, frésezni",ünk,NA,"János imád frésezni, ezért sokat fréslik.",Mi ritkán...,fréslünk,frésezünk,cselekszik,-lik,1,PR2008,2000,nő,nem,2022-04-04_11h35.29.019,hesp_baseline,2021.2.3,Win32,59.85156811
,,,,,,,,,,,,,,,,,flibekszek,flibekszem,left,5.0806,0,90,90,93,1,94,flibekszik,flibekszel,NA,NA,Te bizony sokat flibekszel.,Én is sokat...,flibekszek,flibekszem,lakik,-szik,2,PR2008,2000,nő,nem,2022-04-04_11h35.29.019,hesp_baseline,2021.2.3,Win32,59.85156811
,,,,,,,,,,,,,,,,,tosélyban,tosélyben,left,4.1946,0,91,91,25,1,80,tosély,tosély,ban,é,Ez itt egy tosély.,Ott vagyunk a...,tosélyben,tosélyban,dzsungel,NA,NA,PR2008,2000,nő,nem,2022-04-04_11h35.29.019,hesp_baseline,2021.2.3,Win32,59.85156811
,,,,,,,,,,,,,,,,,prilepszünk,prilepedünk,left,5.5668,0,92,92,161,1,108,prilepszik / prilepedik,"prilepszik, prilepedni",ünk,NA,"János imád prilepedni, ezért sokat prilepszik.",Mi ritkán...,prilepszünk,prilepedünk,cselekszik,-szik,2,PR2008,2000,nő,nem,2022-04-04_11h35.29.019,hesp_baseline,2021.2.3,Win32,59.85156811
,,,,,,,,,,,,,,,,,dóbemnek,dóbemnak,left,6.2574,0,93,93,48,1,103,dóbem,dóbem,nak,e,Ez itt egy dóbem.,Elneveztem a kutyámat...,dóbemnek,dóbemnak,dzsungel,NA,NA,PR2008,2000,nő,nem,2022-04-04_11h35.29.019,hesp_baseline,2021.2.3,Win32,59.85156811
,,,,,,,,,,,,,,,,,csólorzom,csólorzok,left,4.5179,0,94,94,102,1,103,csólorzik,csólorzol,NA,NA,Te bizony sokat csólorzol.,Én is sokat...,csólorzok,csólorzom,lakik,-zik,2,PR2008,2000,nő,nem,2022-04-04_11h35.29.019,hesp_baseline,2021.2.3,Win32,59.85156811
,,,,,,,,,,,,,,,,,zutennál,zutennél,left,4.1963,0,95,95,43,1,98,zuten,zuten,nál,e,Ez itt egy zuten.,Nincs is jobb egy jó...,zutennél,zutennál,dzsungel,NA,NA,PR2008,2000,nő,nem,2022-04-04_11h35.29.019,hesp_baseline,2021.2.3,Win32,59.85156811
,,,,,,,,,,,,,,,,,klajrénnak,klajrénnek,left,6.4143,0,96,96,41,1,96,klajrén,klajrén,nak,é,Ez itt egy klajrén.,Elneveztem a kutyámat...,klajrénnek,klajrénnak,dzsungel,NA,NA,PR2008,2000,nő,nem,2022-04-04_11h35.29.019,hesp_baseline,2021.2.3,Win32,59.85156811
,,,,,,,,,,,,,,,,,flűmlöm,flűmlök,right,5.4124,0,97,97,54,1,55,flűmlik,flűmlesz,NA,NA,Te bizony sokat flűmlesz.,Én is sokat...,flűmlök,flűmlöm,lakik,-lik,1,PR2008,2000,nő,nem,2022-04-04_11h35.29.019,hesp_baseline,2021.2.3,Win32,59.85156811
,,,,,,,,,,,,,,,,,péleslem,péleslek,right,4.6623,0,98,98,73,1,74,péleslik,péleslesz,NA,NA,Te bizony sokat péleslesz.,Én is sokat...,péleslek,péleslem,lakik,-lik,2,PR2008,2000,nő,nem,2022-04-04_11h35.29.019,hesp_baseline,2021.2.3,Win32,59.85156811
,,,,,,,,,,,,,,,,,flitlok,flitlom,left,10.8512,0,99,99,90,1,91,flitlik,flitlasz,NA,NA,Te bizony sokat flitlasz.,Én is sokat...,flitlok,flitlom,lakik,-lik,1,PR2008,2000,nő,nem,2022-04-04_11h35.29.019,hesp_baseline,2021.2.3,Win32,59.85156811
,,,,,,,,,,,,,,,,,flemezünk,flemlünk,left,17.7225,0,100,100,137,1,84,flemlik / flemezik,"flemlik, flemezni",ünk,NA,"János imád flemezni, ezért sokat flemlik.",Mi ritkán...,flemlünk,flemezünk,cselekszik,-lik,1,PR2008,2000,nő,nem,2022-04-04_11h35.29.019,hesp_baseline,2021.2.3,Win32,59.85156811
,,,,,,,,,,,,,,,,,forzédnak,forzédnek,left,5.4567,0,101,101,46,1,101,forzéd,forzéd,nak,é,Ez itt egy forzéd.,Elneveztem a kutyámat...,forzédnek,forzédnak,dzsungel,NA,NA,PR2008,2000,nő,nem,2022-04-04_11h35.29.019,hesp_baseline,2021.2.3,Win32,59.85156811
,,,,,,,,,,,,,,,,,flézletek,flézeztek,left,11.9902,0,102,102,134,1,81,flézlik / flézezik,"flézlik, flézezni",tek,NA,"János imád flézezni, ezért sokat flézlik.",Ti ritkán...,flézletek,flézeztek,cselekszik,-lik,1,PR2008,2000,nő,nem,2022-04-04_11h35.29.019,hesp_baseline,2021.2.3,Win32,59.85156811
,,,,,,,,,,,,,,,,,rapszeknál,rapszeknél,left,4.9993,0,103,103,35,1,90,rapszek,rapszek,nál,e,Ez itt egy rapszek.,Nincs is jobb egy jó...,rapszeknél,rapszeknál,dzsungel,NA,NA,PR2008,2000,nő,nem,2022-04-04_11h35.29.019,hesp_baseline,2021.2.3,Win32,59.85156811
,,,,,,,,,,,,,,,,,klűmlötök,klűmöztök,right,9.0655,0,104,104,108,1,55,klűmlik / klűmözik,"klűmlik, klűmözni",tek,NA,"János imád klűmözni, ezért sokat klűmlik.",Ti ritkán...,klűmlötök,klűmöztök,cselekszik,-lik,1,PR2008,2000,nő,nem,2022-04-04_11h35.29.019,hesp_baseline,2021.2.3,Win32,59.85156811
,,,,,,,,,,,,,,,,,ikszertben,ikszertban,left,3.7827,0,105,105,19,1,74,ikszert,ikszert,ban,e,Ez itt egy ikszert.,Ott vagyunk a...,ikszertben,ikszertban,dzsungel,NA,NA,PR2008,2000,nő,nem,2022-04-04_11h35.29.019,hesp_baseline,2021.2.3,Win32,59.85156811
,,,,,,,,,,,,,,,,,gúdenban,gúdenben,right,4.7226,0,106,106,4,1,59,gúden,gúden,ban,e,Ez itt egy gúden.,Ott vagyunk a...,gúdenben,gúdenban,dzsungel,NA,NA,PR2008,2000,nő,nem,2022-04-04_11h35.29.019,hesp_baseline,2021.2.3,Win32,59.85156811
,,,,,,,,,,,,,,,,,lírlanak,líroznak,left,8.2385,0,107,107,115,1,62,lírlik / lírozik,"lírlik, lírozni",nek,NA,"János imád lírozni, ezért sokat lírlik.",Ők ritkán...,lírlanak,líroznak,cselekszik,-lik,1,PR2008,2000,nő,nem,2022-04-04_11h35.29.019,hesp_baseline,2021.2.3,Win32,59.85156811
,,,,,,,,,,,,,,,,,spátennek,spátennak,right,11.163,0,108,108,33,1,88,spáten,spáten,nak,e,Ez itt egy spáten.,Elneveztem a kutyámat...,spátennek,spátennak,dzsungel,NA,NA,PR2008,2000,nő,nem,2022-04-04_11h35.29.019,hesp_baseline,2021.2.3,Win32,59.85156811
,,,,,,,,,,,,,,,,,molszotok,molodtok,left,5.5669,0,109,109,142,1,89,molszik / molodik,"molszik, molodni",tek,NA,"János imád molodni, ezért sokat molszik.",Ti ritkán...,molszotok,molodtok,cselekszik,-szik,1,PR2008,2000,nő,nem,2022-04-04_11h35.29.019,hesp_baseline,2021.2.3,Win32,59.85156811
,,,,,,,,,,,,,,,,,bivégszem,bivégszek,left,23.3972,0,110,110,68,1,69,bivégszik,bivégszel,NA,NA,Te bizony sokat bivégszel.,Én is sokat...,bivégszek,bivégszem,lakik,-szik,2,PR2008,2000,nő,nem,2022-04-04_11h35.29.019,hesp_baseline,2021.2.3,Win32,59.85156811
,,,,,,,,,,,,,,,,,tumélynél,tumélynál,left,5.9525,0,111,111,28,1,83,tumély,tumély,nál,é,Ez itt egy tumély.,Nincs is jobb egy jó...,tumélynél,tumélynál,dzsungel,NA,NA,PR2008,2000,nő,nem,2022-04-04_11h35.29.019,hesp_baseline,2021.2.3,Win32,59.85156811
,,,,,,,,,,,,,,,,,tranékben,tranékban,left,4.1311,0,112,112,2,1,57,tranék,tranék,ban,é,Ez itt egy tranék.,Ott vagyunk a...,tranékben,tranékban,dzsungel,NA,NA,PR2008,2000,nő,nem,2022-04-04_11h35.29.019,hesp_baseline,2021.2.3,Win32,59.85156811
,,,,,,,,,,,,,,,,,sprigzotok,sprigoztok,left,5.4482,0,113,113,129,1,76,sprigzik / sprigozik,"sprigzik, sprigozni",tek,NA,"János imád sprigozni, ezért sokat sprigzik.",Ti ritkán...,sprigzotok,sprigoztok,cselekszik,-zik,1,PR2008,2000,nő,nem,2022-04-04_11h35.29.019,hesp_baseline,2021.2.3,Win32,59.85156811
,,,,,,,,,,,,,,,,,hubonyoztok,hubonylotok,left,6.5419,0,114,114,157,1,104,hubonylik / hubonyozik,"hubonylik, hubonyozni",tek,NA,"János imád hubonyozni, ezért sokat hubonylik.",Ti ritkán...,hubonylotok,hubonyoztok,cselekszik,-lik,2,PR2008,2000,nő,nem,2022-04-04_11h35.29.019,hesp_baseline,2021.2.3,Win32,59.85156811
,,,,,,,,,,,,,,,,,dilakoztok,dilaklotok,right,6.848,0,115,115,158,1,105,dilaklik / dilakozik,"dilaklik, dilakozni",tek,NA,"János imád dilakozni, ezért sokat dilaklik.",Ti ritkán...,dilaklotok,dilakoztok,cselekszik,-lik,2,PR2008,2000,nő,nem,2022-04-04_11h35.29.019,hesp_baseline,2021.2.3,Win32,59.85156811
,,,,,,,,,,,,,,,,,flagánylom,flagánylok,right,6.0485,0,116,116,82,1,83,flagánylik,flagánylasz,NA,NA,Te bizony sokat flagánylasz.,Én is sokat...,flagánylok,flagánylom,lakik,-lik,2,PR2008,2000,nő,nem,2022-04-04_11h35.29.019,hesp_baseline,2021.2.3,Win32,59.85156811
,,,,,,,,,,,,,,,,,navecben,navecban,left,3.9182,0,117,117,8,1,63,navec,navec,ban,e,Ez itt egy navec.,Ott vagyunk a...,navecben,navecban,dzsungel,NA,NA,PR2008,2000,nő,nem,2022-04-04_11h35.29.019,hesp_baseline,2021.2.3,Win32,59.85156811
,,,,,,,,,,,,,,,,,pratelynek,pratelynak,right,4.4839,0,118,118,47,1,102,prately,prately,nak,e,Ez itt egy prately.,Elneveztem a kutyámat...,pratelynek,pratelynak,dzsungel,NA,NA,PR2008,2000,nő,nem,2022-04-04_11h35.29.019,hesp_baseline,2021.2.3,Win32,59.85156811
,,,,,,,,,,,,,,,,,klehényeztek,klehényletek,right,9.38,0,119,119,113,1,60,klehénylik / klehényezik,"klehénylik, klehényezni",tek,NA,"János imád klehényezni, ezért sokat klehénylik.",Ti ritkán...,klehényletek,klehényeztek,cselekszik,-lik,2,PR2008,2000,nő,nem,2022-04-04_11h35.29.019,hesp_baseline,2021.2.3,Win32,59.85156811
,,,,,,,,,,,,,,,,,frodlom,frodlok,right,3.3972,0,120,120,61,1,62,frodlik,frodlasz,NA,NA,Te bizony sokat frodlasz.,Én is sokat...,frodlok,frodlom,lakik,-lik,1,PR2008,2000,nő,nem,2022-04-04_11h35.29.019,hesp_baseline,2021.2.3,Win32,59.85156811
,,,,,,,,,,,,,,,,,nyametban,nyametben,left,4.1139,0,121,121,17,1,72,nyamet,nyamet,ban,e,Ez itt egy nyamet.,Ott vagyunk a...,nyametben,nyametban,dzsungel,NA,NA,PR2008,2000,nő,nem,2022-04-04_11h35.29.019,hesp_baseline,2021.2.3,Win32,59.85156811
,,,,,,,,,,,,,,,,,friszlom,friszlok,right,1.9558,0,122,122,97,1,98,friszlik,friszlasz,NA,NA,Te bizony sokat friszlasz.,Én is sokat...,friszlok,friszlom,lakik,-lik,1,PR2008,2000,nő,nem,2022-04-04_11h35.29.019,hesp_baseline,2021.2.3,Win32,59.85156811
,,,,,,,,,,,,,,,,,flűröklöm,flűröklök,right,7.583,0,123,123,91,1,92,flűröklik,flűröklesz,NA,NA,Te bizony sokat flűröklesz.,Én is sokat...,flűröklök,flűröklöm,lakik,-lik,2,PR2008,2000,nő,nem,2022-04-04_11h35.29.019,hesp_baseline,2021.2.3,Win32,59.85156811
,,,,,,,,,,,,,,,,,kluzoztok,kluzlotok,right,13.6323,0,124,124,148,1,95,kluzlik / kluzozik,"kluzlik, kluzozni",tek,NA,"János imád kluzozni, ezért sokat kluzlik.",Ti ritkán...,kluzlotok,kluzoztok,cselekszik,-lik,1,PR2008,2000,nő,nem,2022-04-04_11h35.29.019,hesp_baseline,2021.2.3,Win32,59.85156811
,,,,,,,,,,,,,,,,,ribegzek,ribegzem,left,10.18,0,125,125,63,1,64,ribegzik,ribegzel,NA,NA,Te bizony sokat ribegzel.,Én is sokat...,ribegzek,ribegzem,lakik,-zik,2,PR2008,2000,nő,nem,2022-04-04_11h35.29.019,hesp_baseline,2021.2.3,Win32,59.85156811
,,,,,,,,,,,,,,,,,flubokoztok,fluboklotok,left,10.7198,0,126,126,151,1,98,fluboklik / flubokozik,"fluboklik, flubokozni",tek,NA,"János imád flubokozni, ezért sokat fluboklik.",Ti ritkán...,fluboklotok,flubokoztok,cselekszik,-lik,2,PR2008,2000,nő,nem,2022-04-04_11h35.29.019,hesp_baseline,2021.2.3,Win32,59.85156811
,,,,,,,,,,,,,,,,,fröjlünk,fröjözünk,left,4.6723,0,127,127,117,1,64,fröjlik / fröjözik,"fröjlik, fröjözni",ünk,NA,"János imád fröjözni, ezért sokat fröjlik.",Mi ritkán...,fröjlünk,fröjözünk,cselekszik,-lik,1,PR2008,2000,nő,nem,2022-04-04_11h35.29.019,hesp_baseline,2021.2.3,Win32,59.85156811
,,,,,,,,,,,,,,,,,szanéjnak,szanéjnek,right,12.3526,0,128,128,13,1,68,szanéj,szanéj,nak,é,Ez itt egy szanéj.,Elneveztem a kutyámat...,szanéjnek,szanéjnak,dzsungel,NA,NA,PR2008,2000,nő,nem,2022-04-04_11h35.29.019,hesp_baseline,2021.2.3,Win32,59.85156811
,,,,,,,,,,,,,,,,,gyihegzetek,gyihegeztek,right,6.8813,0,129,129,124,1,71,gyihegzik / gyihegezik,"gyihegzik, gyihegezni",tek,NA,"János imád gyihegezni, ezért sokat gyihegzik.",Ti ritkán...,gyihegzetek,gyihegeztek,cselekszik,-zik,2,PR2008,2000,nő,nem,2022-04-04_11h35.29.019,hesp_baseline,2021.2.3,Win32,59.85156811
,,,,,,,,,,,,,,,,,spibegezünk,spibeglünk,right,10.1543,0,130,130,147,1,94,spibeglik / spibegezik,"spibeglik, spibegezni",ünk,NA,"János imád spibegezni, ezért sokat spibeglik.",Mi ritkán...,spibeglünk,spibegezünk,cselekszik,-lik,2,PR2008,2000,nő,nem,2022-04-04_11h35.29.019,hesp_baseline,2021.2.3,Win32,59.85156811
,,,,,,,,,,,,,,,,,gihesztnak,gihesztnek,left,7.6053,0,131,131,36,1,91,giheszt,giheszt,nak,e,Ez itt egy giheszt.,Elneveztem a kutyámat...,gihesztnek,gihesztnak,dzsungel,NA,NA,PR2008,2000,nő,nem,2022-04-04_11h35.29.019,hesp_baseline,2021.2.3,Win32,59.85156811
,,,,,,,,,,,,,,,,,jábézban,jábézben,left,3.6675,0,132,132,34,1,89,jábéz,jábéz,ban,é,Ez itt egy jábéz.,Ott vagyunk a...,jábézben,jábézban,dzsungel,NA,NA,PR2008,2000,nő,nem,2022-04-04_11h35.29.019,hesp_baseline,2021.2.3,Win32,59.85156811
,,,,,,,,,,,,,,,,,kumlok,kumlom,left,2.8879,0,133,133,105,1,106,kumlik,kumlasz,NA,NA,Te bizony sokat kumlasz.,Én is sokat...,kumlok,kumlom,lakik,-lik,1,PR2008,2000,nő,nem,2022-04-04_11h35.29.019,hesp_baseline,2021.2.3,Win32,59.85156811
,,,,,,,,,,,,,,,,,fibamlok,fibamlom,left,4.3906,0,134,134,65,1,66,fibamlik,fibamlasz,NA,NA,Te bizony sokat fibamlasz.,Én is sokat...,fibamlok,fibamlom,lakik,-lik,2,PR2008,2000,nő,nem,2022-04-04_11h35.29.019,hesp_baseline,2021.2.3,Win32,59.85156811
,,,,,,,,,,,,,,,,,hákszanak,hákodnak,left,5.3053,0,135,135,150,1,97,hákszik / hákodik,"hákszik, hákodni",nek,NA,"János imád hákodni, ezért sokat hákszik.",Ők ritkán...,hákszanak,hákodnak,cselekszik,-szik,1,PR2008,2000,nő,nem,2022-04-04_11h35.29.019,hesp_baseline,2021.2.3,Win32,59.85156811
,,,,,,,,,,,,,,,,,drojzunk,drojozunk,left,4.377,0,136,136,140,1,87,drojzik / drojozik,"drojzik, drojozni",ünk,NA,"János imád drojozni, ezért sokat drojzik.",Mi ritkán...,drojzunk,drojozunk,cselekszik,-zik,1,PR2008,2000,nő,nem,2022-04-04_11h35.29.019,hesp_baseline,2021.2.3,Win32,59.85156811
,,,,,,,,,,,,,,,,,nidétban,nidétben,left,3.4966,0,137,137,39,1,94,nidét,nidét,ban,é,Ez itt egy nidét.,Ott vagyunk a...,nidétben,nidétban,dzsungel,NA,NA,PR2008,2000,nő,nem,2022-04-04_11h35.29.019,hesp_baseline,2021.2.3,Win32,59.85156811
,,,,,,,,,,,,,,,,,sprebzenek,sprebeznek,left,8.9622,0,138,138,139,1,86,sprebzik / sprebezik,"sprebzik, sprebezni",nek,NA,"János imád sprebezni, ezért sokat sprebzik.",Ők ritkán...,sprebzenek,sprebeznek,cselekszik,-zik,1,PR2008,2000,nő,nem,2022-04-04_11h35.29.019,hesp_baseline,2021.2.3,Win32,59.85156811
,,,,,,,,,,,,,,,,,nyádlanak,nyádoznak,left,6.9521,0,139,139,120,1,67,nyádlik / nyádozik,"nyádlik, nyádozni",nek,NA,"János imád nyádozni, ezért sokat nyádlik.",Ők ritkán...,nyádlanak,nyádoznak,cselekszik,-lik,1,PR2008,2000,nő,nem,2022-04-04_11h35.29.019,hesp_baseline,2021.2.3,Win32,59.85156811
,,,,,,,,,,,,,,,,,zarcégnél,zarcégnál,left,5.1819,0,140,140,29,1,84,zarcég,zarcég,nál,é,Ez itt egy zarcég.,Nincs is jobb egy jó...,zarcégnél,zarcégnál,dzsungel,NA,NA,PR2008,2000,nő,nem,2022-04-04_11h35.29.019,hesp_baseline,2021.2.3,Win32,59.85156811
,,,,,,,,,,,,,,,,,ítensben,ítensban,left,5.2738,0,141,141,50,1,105,ítens,ítens,ban,e,Ez itt egy ítens.,Ott vagyunk a...,ítensben,ítensban,dzsungel,NA,NA,PR2008,2000,nő,nem,2022-04-04_11h35.29.019,hesp_baseline,2021.2.3,Win32,59.85156811
,,,,,,,,,,,,,,,,,prihekszek,prihekszem,right,4.3398,0,142,142,100,1,101,prihekszik,prihekszel,NA,NA,Te bizony sokat prihekszel.,Én is sokat...,prihekszek,prihekszem,lakik,-szik,2,PR2008,2000,nő,nem,2022-04-04_11h35.29.019,hesp_baseline,2021.2.3,Win32,59.85156811
,,,,,,,,,,,,,,,,,kátédnél,kátédnál,right,2.7663,0,143,143,37,1,92,kátéd,kátéd,nál,é,Ez itt egy kátéd.,Nincs is jobb egy jó...,kátédnél,kátédnál,dzsungel,NA,NA,PR2008,2000,nő,nem,2022-04-04_11h35.29.019,hesp_baseline,2021.2.3,Win32,59.85156811
,,,,,,,,,,,,,,,,,júdernek,júdernak,left,4.654,0,144,144,53,1,108,júder,júder,nak,e,Ez itt egy júder.,Elneveztem a kutyámat...,júdernek,júdernak,dzsungel,NA,NA,PR2008,2000,nő,nem,2022-04-04_11h35.29.019,hesp_baseline,2021.2.3,Win32,59.85156811
,,,,,,,,,,,,,,,,,szűslök,szűslöm,left,4.9967,0,145,145,85,1,86,szűslik,szűslesz,NA,NA,Te bizony sokat szűslesz.,Én is sokat...,szűslök,szűslöm,lakik,-lik,1,PR2008,2000,nő,nem,2022-04-04_11h35.29.019,hesp_baseline,2021.2.3,Win32,59.85156811
,,,,,,,,,,,,,,,,,flodoztok,flodlotok,left,6.4224,0,146,146,144,1,91,flodlik / flodozik,"flodlik, flodozni",tek,NA,"János imád flodozni, ezért sokat flodlik.",Ti ritkán...,flodlotok,flodoztok,cselekszik,-lik,1,PR2008,2000,nő,nem,2022-04-04_11h35.29.019,hesp_baseline,2021.2.3,Win32,59.85156811
,,,,,,,,,,,,,,,,,ruslok,ruslom,left,3.5328,0,147,147,83,1,84,ruslik,ruslasz,NA,NA,Te bizony sokat ruslasz.,Én is sokat...,ruslok,ruslom,lakik,-lik,1,PR2008,2000,nő,nem,2022-04-04_11h35.29.019,hesp_baseline,2021.2.3,Win32,59.85156811
,,,,,,,,,,,,,,,,,töglenek,tögöznek,left,5.0573,0,148,148,156,1,103,töglik / tögözik,"töglik, tögözni",nek,NA,"János imád tögözni, ezért sokat töglik.",Ők ritkán...,töglenek,tögöznek,cselekszik,-lik,1,PR2008,2000,nő,nem,2022-04-04_11h35.29.019,hesp_baseline,2021.2.3,Win32,59.85156811
,,,,,,,,,,,,,,,,,spubonylok,spubonylom,left,8.2598,0,149,149,104,1,105,spubonylik,spubonylasz,NA,NA,Te bizony sokat spubonylasz.,Én is sokat...,spubonylok,spubonylom,lakik,-lik,2,PR2008,2000,nő,nem,2022-04-04_11h35.29.019,hesp_baseline,2021.2.3,Win32,59.85156811
,,,,,,,,,,,,,,,,,frálaslanak,frálasoznak,left,3.9119,0,150,150,110,1,57,frálaslik / frálasozik,"frálaslik, frálasozni",nek,NA,"János imád frálasozni, ezért sokat frálaslik.",Ők ritkán...,frálaslanak,frálasoznak,cselekszik,-lik,2,PR2008,2000,nő,nem,2022-04-04_11h35.29.019,hesp_baseline,2021.2.3,Win32,59.85156811
,,,,,,,,,,,,,,,,,dárakszunk,dárakodunk,left,6.2175,0,151,151,126,1,73,dárakszik / dárakodik,"dárakszik, dárakodni",ünk,NA,"János imád dárakodni, ezért sokat dárakszik.",Mi ritkán...,dárakszunk,dárakodunk,cselekszik,-szik,2,PR2008,2000,nő,nem,2022-04-04_11h35.29.019,hesp_baseline,2021.2.3,Win32,59.85156811
,,,,,,,,,,,,,,,,,femlek,femlem,left,4.9211,0,152,152,57,1,58,femlik,femlesz,NA,NA,Te bizony sokat femlesz.,Én is sokat...,femlek,femlem,lakik,-lik,1,PR2008,2000,nő,nem,2022-04-04_11h35.29.019,hesp_baseline,2021.2.3,Win32,59.85156811
,,,,,,,,,,,,,,,,,nyürzenek,nyüröznek,left,42.5076,0,153,153,123,1,70,nyürzik / nyürözik,"nyürzik, nyürözni",nek,NA,"János imád nyürözni, ezért sokat nyürzik.",Ők ritkán...,nyürzenek,nyüröznek,cselekszik,-zik,1,PR2008,2000,nő,nem,2022-04-04_11h35.29.019,hesp_baseline,2021.2.3,Win32,59.85156811
,,,,,,,,,,,,,,,,,fligzom,fligzok,left,5.7591,0,154,154,103,1,104,fligzik,fligzol,NA,NA,Te bizony sokat fligzol.,Én is sokat...,fligzok,fligzom,lakik,-zik,1,PR2008,2000,nő,nem,2022-04-04_11h35.29.019,hesp_baseline,2021.2.3,Win32,59.85156811
,,,,,,,,,,,,,,,,,plugzok,plugzom,left,3.6096,0,155,155,60,1,61,plugzik,plugzol,NA,NA,Te bizony sokat plugzol.,Én is sokat...,plugzok,plugzom,lakik,-zik,1,PR2008,2000,nő,nem,2022-04-04_11h35.29.019,hesp_baseline,2021.2.3,Win32,59.85156811
,,,,,,,,,,,,,,,,,dineltban,dineltben,left,4.4039,0,156,156,0,1,55,dinelt,dinelt,ban,e,Ez itt egy dinelt.,Ott vagyunk a...,dineltben,dineltban,dzsungel,NA,NA,PR2008,2000,nő,nem,2022-04-04_11h35.29.019,hesp_baseline,2021.2.3,Win32,59.85156811
,,,,,,,,,,,,,,,,,fivénylem,fivénylek,left,3.2088,0,157,157,78,1,79,fivénylik,fivénylesz,NA,NA,Te bizony sokat fivénylesz.,Én is sokat...,fivénylek,fivénylem,lakik,-lik,2,PR2008,2000,nő,nem,2022-04-04_11h35.29.019,hesp_baseline,2021.2.3,Win32,59.85156811
,,,,,,,,,,,,,,,,,sprűröznek,sprűrlenek,left,3.3448,0,158,158,135,1,82,sprűrlik / sprűrözik,"sprűrlik, sprűrözni",nek,NA,"János imád sprűrözni, ezért sokat sprűrlik.",Ők ritkán...,sprűrlenek,sprűröznek,cselekszik,-lik,1,PR2008,2000,nő,nem,2022-04-04_11h35.29.019,hesp_baseline,2021.2.3,Win32,59.85156811
,,,,,,,,,,,,,,,,,driládzom,driládzok,left,3.9859,0,159,159,67,1,68,driládzik,driládzol,NA,NA,Te bizony sokat driládzol.,Én is sokat...,driládzok,driládzom,lakik,-zik,2,PR2008,2000,nő,nem,2022-04-04_11h35.29.019,hesp_baseline,2021.2.3,Win32,59.85156811
,,,,,,,,,,,,,,,,,sponyoznak,sponylanak,right,4.744,0,160,160,125,1,72,sponylik / sponyozik,"sponylik, sponyozni",nek,NA,"János imád sponyozni, ezért sokat sponylik.",Ők ritkán...,sponylanak,sponyoznak,cselekszik,-lik,1,PR2008,2000,nő,nem,2022-04-04_11h35.29.019,hesp_baseline,2021.2.3,Win32,59.85156811
,,,,,,,,,,,,,,,,,jóbecnak,jóbecnek,right,3.4058,0,161,161,11,1,66,jóbec,jóbec,nak,e,Ez itt egy jóbec.,Elneveztem a kutyámat...,jóbecnek,jóbecnak,dzsungel,NA,NA,PR2008,2000,nő,nem,2022-04-04_11h35.29.019,hesp_baseline,2021.2.3,Win32,59.85156811
