my_list,key.keys,key.rt,key_2.keys,key_2.rt,keyboard_input_2.keys,keyboard_input_2.rt,key_3.keys,key_3.rt,keyboard_input_3.keys,keyboard_input_3.rt,key_4.keys,key_4.rt,keyboard_input_4.keys,keyboard_input_4.rt,key_5.keys,key_5.rt,my_button1,my_button2,keyboard_input.keys,keyboard_input.rt,withinBlock.thisRepN,withinBlock.thisTrialN,withinBlock.thisN,withinBlock.thisIndex,withinBlock.ran,rowname,word,prompt,suffix,vowel,carrier_sentence,target_sentence,target1,target2,category,derivational,nsyl,Azonosító,Melyik évben születtél?,Mi a nemed?,Tanultál nyelvészetet?,date,expName,psychopyVersion,OS,frameRate
list3.csv,space,20.214,space,6.559,right,5.329,space,10.108,left,7.541,space,7.109,left,9.539,space,11.405,trádlok,trádlom,left,5.525,0,0,0,105,1,160,trádlik,trádlasz,NA,NA,Te bizony sokat trádlasz.,Én is sokat...,trádlok,trádlom,lakik,-lik,1,dye,1972,férfi,igen,2022-03-23_16h54.19.558,hesp_baseline,2021.2.3,Linux x86_64,60.60606061
,,,,,,,,,,,,,,,,,lumoztok,lumlotok,right,33.541,0,1,1,149,1,150,lumlik / lumozik,"lumlik, lumozni",tek,NA,"János imád lumozni, ezért sokat lumlik.",Ti ritkán...,lumlotok,lumoztok,cselekszik,-lik,1,dye,1972,férfi,igen,2022-03-23_16h54.19.558,hesp_baseline,2021.2.3,Linux x86_64,60.60606061
,,,,,,,,,,,,,,,,,brálamlanak,brálamoznak,left,13.554,0,2,2,144,1,145,brálamlik / brálamozik,"brálamlik, brálamozni",nek,NA,"János imád brálamozni, ezért sokat brálamlik.",Ők ritkán...,brálamlanak,brálamoznak,cselekszik,-lik,2,dye,1972,férfi,igen,2022-03-23_16h54.19.558,hesp_baseline,2021.2.3,Linux x86_64,60.60606061
,,,,,,,,,,,,,,,,,nyarcéjnak,nyarcéjnek,left,6.99,0,3,3,37,1,146,nyarcéj,nyarcéj,nak,é,Ez itt egy nyarcéj.,Elneveztem a kutyámat...,nyarcéjnek,nyarcéjnak,dzsungel,NA,NA,dye,1972,férfi,igen,2022-03-23_16h54.19.558,hesp_baseline,2021.2.3,Linux x86_64,60.60606061
,,,,,,,,,,,,,,,,,zábénynek,zábénynak,right,4.268,0,4,4,43,1,152,zábény,zábény,nak,é,Ez itt egy zábény.,Elneveztem a kutyámat...,zábénynek,zábénynak,dzsungel,NA,NA,dye,1972,férfi,igen,2022-03-23_16h54.19.558,hesp_baseline,2021.2.3,Linux x86_64,60.60606061
,,,,,,,,,,,,,,,,,zsáderban,zsáderben,left,7.845,0,5,5,25,1,134,zsáder,zsáder,ban,e,Ez itt egy zsáder.,Ott vagyunk a...,zsáderben,zsáderban,dzsungel,NA,NA,dye,1972,férfi,igen,2022-03-23_16h54.19.558,hesp_baseline,2021.2.3,Linux x86_64,60.60606061
,,,,,,,,,,,,,,,,,fizendben,fizendban,left,2.893,0,6,6,49,1,158,fizend,fizend,ban,e,Ez itt egy fizend.,Ott vagyunk a...,fizendben,fizendban,dzsungel,NA,NA,dye,1972,férfi,igen,2022-03-23_16h54.19.558,hesp_baseline,2021.2.3,Linux x86_64,60.60606061
,,,,,,,,,,,,,,,,,gicéjnál,gicéjnél,right,4.688,0,7,7,17,1,126,gicéj,gicéj,nál,é,Ez itt egy gicéj.,Nincs is jobb egy jó...,gicéjnél,gicéjnál,dzsungel,NA,NA,dye,1972,férfi,igen,2022-03-23_16h54.19.558,hesp_baseline,2021.2.3,Linux x86_64,60.60606061
,,,,,,,,,,,,,,,,,brotesben,brotesban,right,4.244,0,8,8,53,1,162,brotes,brotes,ban,e,Ez itt egy brotes.,Ott vagyunk a...,brotesben,brotesban,dzsungel,NA,NA,dye,1972,férfi,igen,2022-03-23_16h54.19.558,hesp_baseline,2021.2.3,Linux x86_64,60.60606061
,,,,,,,,,,,,,,,,,brukésznél,brukésznál,left,6.194,0,9,9,10,1,119,brukész,brukész,nál,é,Ez itt egy brukész.,Nincs is jobb egy jó...,brukésznél,brukésznál,dzsungel,NA,NA,dye,1972,férfi,igen,2022-03-23_16h54.19.558,hesp_baseline,2021.2.3,Linux x86_64,60.60606061
,,,,,,,,,,,,,,,,,pijélnél,pijélnál,left,3.445,0,10,10,3,1,112,pijél,pijél,nál,é,Ez itt egy pijél.,Nincs is jobb egy jó...,pijélnél,pijélnál,dzsungel,NA,NA,dye,1972,férfi,igen,2022-03-23_16h54.19.558,hesp_baseline,2021.2.3,Linux x86_64,60.60606061
,,,,,,,,,,,,,,,,,féjzek,féjzem,left,4.245,0,11,11,91,1,146,féjzik,féjzel,NA,NA,Te bizony sokat féjzel.,Én is sokat...,féjzek,féjzem,lakik,-zik,1,dye,1972,férfi,igen,2022-03-23_16h54.19.558,hesp_baseline,2021.2.3,Linux x86_64,60.60606061
,,,,,,,,,,,,,,,,,bidemben,bidemban,left,3.607,0,12,12,2,1,111,bidem,bidem,ban,e,Ez itt egy bidem.,Ott vagyunk a...,bidemben,bidemban,dzsungel,NA,NA,dye,1972,férfi,igen,2022-03-23_16h54.19.558,hesp_baseline,2021.2.3,Linux x86_64,60.60606061
,,,,,,,,,,,,,,,,,nyáslom,nyáslok,right,3.497,0,13,13,100,1,155,nyáslik,nyáslasz,NA,NA,Te bizony sokat nyáslasz.,Én is sokat...,nyáslok,nyáslom,lakik,-lik,1,dye,1972,férfi,igen,2022-03-23_16h54.19.558,hesp_baseline,2021.2.3,Linux x86_64,60.60606061
,,,,,,,,,,,,,,,,,gótemnak,gótemnek,right,2.728,0,14,14,35,1,144,gótem,gótem,nak,e,Ez itt egy gótem.,Elneveztem a kutyámat...,gótemnek,gótemnak,dzsungel,NA,NA,dye,1972,férfi,igen,2022-03-23_16h54.19.558,hesp_baseline,2021.2.3,Linux x86_64,60.60606061
,,,,,,,,,,,,,,,,,pazévnál,pazévnél,left,5.428,0,15,15,36,1,145,pazév,pazév,nál,é,Ez itt egy pazév.,Nincs is jobb egy jó...,pazévnél,pazévnál,dzsungel,NA,NA,dye,1972,férfi,igen,2022-03-23_16h54.19.558,hesp_baseline,2021.2.3,Linux x86_64,60.60606061
,,,,,,,,,,,,,,,,,rájzom,rájzok,right,3.512,0,16,16,70,1,125,rájzik,rájzol,NA,NA,Te bizony sokat rájzol.,Én is sokat...,rájzok,rájzom,lakik,-zik,1,dye,1972,férfi,igen,2022-03-23_16h54.19.558,hesp_baseline,2021.2.3,Linux x86_64,60.60606061
,,,,,,,,,,,,,,,,,nágapodnak,nágapszanak,right,6.209,0,17,17,152,1,153,nágapszik / nágapodik,"nágapszik, nágapodni",nek,NA,"János imád nágapodni, ezért sokat nágapszik.",Ők ritkán...,nágapszanak,nágapodnak,cselekszik,-szik,2,dye,1972,férfi,igen,2022-03-23_16h54.19.558,hesp_baseline,2021.2.3,Linux x86_64,60.60606061
,,,,,,,,,,,,,,,,,gyibakszom,gyibakszok,left,4.579,0,18,18,57,1,112,gyibakszik,gyibakszol,NA,NA,Te bizony sokat gyibakszol.,Én is sokat...,gyibakszok,gyibakszom,lakik,-szik,2,dye,1972,férfi,igen,2022-03-23_16h54.19.558,hesp_baseline,2021.2.3,Linux x86_64,60.60606061
,,,,,,,,,,,,,,,,,tibarzanak,tibaroznak,right,9.13,0,19,19,155,1,156,tibarzik / tibarozik,"tibarzik, tibarozni",nek,NA,"János imád tibarozni, ezért sokat tibarzik.",Ők ritkán...,tibarzanak,tibaroznak,cselekszik,-zik,2,dye,1972,férfi,igen,2022-03-23_16h54.19.558,hesp_baseline,2021.2.3,Linux x86_64,60.60606061
,,,,,,,,,,,,,,,,,trilekedtek,trilekszetek,right,4.244,0,20,20,157,1,158,trilekszik / trilekedik,"trilekszik, trilekedni",tek,NA,"János imád trilekedni, ezért sokat trilekszik.",Ti ritkán...,trilekszetek,trilekedtek,cselekszik,-szik,2,dye,1972,férfi,igen,2022-03-23_16h54.19.558,hesp_baseline,2021.2.3,Linux x86_64,60.60606061
,,,,,,,,,,,,,,,,,dalencnél,dalencnál,left,3.446,0,21,21,31,1,140,dalenc,dalenc,nál,e,Ez itt egy dalenc.,Nincs is jobb egy jó...,dalencnél,dalencnál,dzsungel,NA,NA,dye,1972,férfi,igen,2022-03-23_16h54.19.558,hesp_baseline,2021.2.3,Linux x86_64,60.60606061
,,,,,,,,,,,,,,,,,klivaslok,klivaslom,left,4.814,0,22,22,62,1,117,klivaslik,klivaslasz,NA,NA,Te bizony sokat klivaslasz.,Én is sokat...,klivaslok,klivaslom,lakik,-lik,2,dye,1972,férfi,igen,2022-03-23_16h54.19.558,hesp_baseline,2021.2.3,Linux x86_64,60.60606061
,,,,,,,,,,,,,,,,,brüjlöm,brüjlök,right,3.993,0,23,23,55,1,110,brüjlik,brüjlesz,NA,NA,Te bizony sokat brüjlesz.,Én is sokat...,brüjlök,brüjlöm,lakik,-lik,1,dye,1972,férfi,igen,2022-03-23_16h54.19.558,hesp_baseline,2021.2.3,Linux x86_64,60.60606061
,,,,,,,,,,,,,,,,,briváglanak,brivágoznak,right,11.595,0,24,24,138,1,139,briváglik / brivágozik,"briváglik, brivágozni",nek,NA,"János imád brivágozni, ezért sokat briváglik.",Ők ritkán...,briváglanak,brivágoznak,cselekszik,-lik,2,dye,1972,férfi,igen,2022-03-23_16h54.19.558,hesp_baseline,2021.2.3,Linux x86_64,60.60606061
,,,,,,,,,,,,,,,,,sztrozlok,sztrozlom,left,5.88,0,25,25,104,1,159,sztrozlik,sztrozlasz,NA,NA,Te bizony sokat sztrozlasz.,Én is sokat...,sztrozlok,sztrozlom,lakik,-lik,1,dye,1972,férfi,igen,2022-03-23_16h54.19.558,hesp_baseline,2021.2.3,Linux x86_64,60.60606061
,,,,,,,,,,,,,,,,,narjárzom,narjárzok,left,5.369,0,26,26,61,1,116,narjárzik,narjárzol,NA,NA,Te bizony sokat narjárzol.,Én is sokat...,narjárzok,narjárzom,lakik,-zik,2,dye,1972,férfi,igen,2022-03-23_16h54.19.558,hesp_baseline,2021.2.3,Linux x86_64,60.60606061
,,,,,,,,,,,,,,,,,spülöklöm,spülöklök,right,4.829,0,27,27,56,1,111,spülöklik,spülöklesz,NA,NA,Te bizony sokat spülöklesz.,Én is sokat...,spülöklök,spülöklöm,lakik,-lik,2,dye,1972,férfi,igen,2022-03-23_16h54.19.558,hesp_baseline,2021.2.3,Linux x86_64,60.60606061
,,,,,,,,,,,,,,,,,vűjlök,vűjlöm,left,2.64,0,28,28,94,1,149,vűjlik,vűjlesz,NA,NA,Te bizony sokat vűjlesz.,Én is sokat...,vűjlök,vűjlöm,lakik,-lik,1,dye,1972,férfi,igen,2022-03-23_16h54.19.558,hesp_baseline,2021.2.3,Linux x86_64,60.60606061
,,,,,,,,,,,,,,,,,bródesznak,bródesznek,right,3.98,0,29,29,32,1,141,bródesz,bródesz,nak,e,Ez itt egy bródesz.,Elneveztem a kutyámat...,bródesznek,bródesznak,dzsungel,NA,NA,dye,1972,férfi,igen,2022-03-23_16h54.19.558,hesp_baseline,2021.2.3,Linux x86_64,60.60606061
,,,,,,,,,,,,,,,,,spüszlök,spüszlöm,left,2.512,0,30,30,96,1,151,spüszlik,spüszlesz,NA,NA,Te bizony sokat spüszlesz.,Én is sokat...,spüszlök,spüszlöm,lakik,-lik,1,dye,1972,férfi,igen,2022-03-23_16h54.19.558,hesp_baseline,2021.2.3,Linux x86_64,60.60606061
,,,,,,,,,,,,,,,,,mülőrözünk,mülőrzünk,left,5.651,0,31,31,120,1,121,mülőrzik / mülőrözik,"mülőrzik, mülőrözni",ünk,NA,"János imád mülőrözni, ezért sokat mülőrzik.",Mi ritkán...,mülőrzünk,mülőrözünk,cselekszik,-zik,2,dye,1972,férfi,igen,2022-03-23_16h54.19.558,hesp_baseline,2021.2.3,Linux x86_64,60.60606061
,,,,,,,,,,,,,,,,,triképban,triképben,right,3.21,0,32,32,33,1,142,trikép,trikép,ban,é,Ez itt egy trikép.,Ott vagyunk a...,triképben,triképban,dzsungel,NA,NA,dye,1972,férfi,igen,2022-03-23_16h54.19.558,hesp_baseline,2021.2.3,Linux x86_64,60.60606061
,,,,,,,,,,,,,,,,,fretszem,fretszek,right,3.626,0,33,33,66,1,121,fretszik,fretszel,NA,NA,Te bizony sokat fretszel.,Én is sokat...,fretszek,fretszem,lakik,-szik,1,dye,1972,férfi,igen,2022-03-23_16h54.19.558,hesp_baseline,2021.2.3,Linux x86_64,60.60606061
,,,,,,,,,,,,,,,,,lűklenek,lűköznek,right,6.498,0,34,34,136,1,137,lűklik / lűközik,"lűklik, lűközni",nek,NA,"János imád lűközni, ezért sokat lűklik.",Ők ritkán...,lűklenek,lűköznek,cselekszik,-lik,1,dye,1972,férfi,igen,2022-03-23_16h54.19.558,hesp_baseline,2021.2.3,Linux x86_64,60.60606061
,,,,,,,,,,,,,,,,,finceknál,finceknél,right,2.311,0,35,35,9,1,118,fincek,fincek,nál,e,Ez itt egy fincek.,Nincs is jobb egy jó...,finceknél,finceknál,dzsungel,NA,NA,dye,1972,férfi,igen,2022-03-23_16h54.19.558,hesp_baseline,2021.2.3,Linux x86_64,60.60606061
,,,,,,,,,,,,,,,,,kátelnek,kátelnak,left,3.552,0,36,36,12,1,121,kátel,kátel,nak,e,Ez itt egy kátel.,Elneveztem a kutyámat...,kátelnek,kátelnak,dzsungel,NA,NA,dye,1972,férfi,igen,2022-03-23_16h54.19.558,hesp_baseline,2021.2.3,Linux x86_64,60.60606061
,,,,,,,,,,,,,,,,,dirlotok,diroztok,right,7.193,0,37,37,148,1,149,dirlik / dirozik,"dirlik, dirozni",tek,NA,"János imád dirozni, ezért sokat dirlik.",Ti ritkán...,dirlotok,diroztok,cselekszik,-lik,1,dye,1972,férfi,igen,2022-03-23_16h54.19.558,hesp_baseline,2021.2.3,Linux x86_64,60.60606061
,,,,,,,,,,,,,,,,,spanélnél,spanélnál,left,3.772,0,38,38,24,1,133,spanél,spanél,nál,é,Ez itt egy spanél.,Nincs is jobb egy jó...,spanélnél,spanélnál,dzsungel,NA,NA,dye,1972,férfi,igen,2022-03-23_16h54.19.558,hesp_baseline,2021.2.3,Linux x86_64,60.60606061
,,,,,,,,,,,,,,,,,vehékszünk,vehékedünk,left,4.413,0,39,39,117,1,118,vehékszik / vehékedik,"vehékszik, vehékedni",ünk,NA,"János imád vehékedni, ezért sokat vehékszik.",Mi ritkán...,vehékszünk,vehékedünk,cselekszik,-szik,2,dye,1972,férfi,igen,2022-03-23_16h54.19.558,hesp_baseline,2021.2.3,Linux x86_64,60.60606061
,,,,,,,,,,,,,,,,,klarágzotok,klarágoztok,right,6.894,0,40,40,114,1,115,klarágzik / klarágozik,"klarágzik, klarágozni",tek,NA,"János imád klarágozni, ezért sokat klarágzik.",Ti ritkán...,klarágzotok,klarágoztok,cselekszik,-zik,2,dye,1972,férfi,igen,2022-03-23_16h54.19.558,hesp_baseline,2021.2.3,Linux x86_64,60.60606061
,,,,,,,,,,,,,,,,,frivajlom,frivajlok,right,4.503,0,41,41,78,1,133,frivajlik,frivajlasz,NA,NA,Te bizony sokat frivajlasz.,Én is sokat...,frivajlok,frivajlom,lakik,-lik,2,dye,1972,férfi,igen,2022-03-23_16h54.19.558,hesp_baseline,2021.2.3,Linux x86_64,60.60606061
,,,,,,,,,,,,,,,,,plágadzom,plágadzok,left,3.653,0,42,42,74,1,129,plágadzik,plágadzol,NA,NA,Te bizony sokat plágadzol.,Én is sokat...,plágadzok,plágadzom,lakik,-zik,2,dye,1972,férfi,igen,2022-03-23_16h54.19.558,hesp_baseline,2021.2.3,Linux x86_64,60.60606061
,,,,,,,,,,,,,,,,,huméknak,huméknek,left,3.73,0,43,43,23,1,132,humék,humék,nak,é,Ez itt egy humék.,Elneveztem a kutyámat...,huméknek,huméknak,dzsungel,NA,NA,dye,1972,férfi,igen,2022-03-23_16h54.19.558,hesp_baseline,2021.2.3,Linux x86_64,60.60606061
,,,,,,,,,,,,,,,,,sűzlök,sűzlöm,left,3.427,0,44,44,54,1,109,sűzlik,sűzlesz,NA,NA,Te bizony sokat sűzlesz.,Én is sokat...,sűzlök,sűzlöm,lakik,-lik,1,dye,1972,férfi,igen,2022-03-23_16h54.19.558,hesp_baseline,2021.2.3,Linux x86_64,60.60606061
,,,,,,,,,,,,,,,,,frilegszem,frilegszek,left,3.144,0,45,45,72,1,127,frilegszik,frilegszel,NA,NA,Te bizony sokat frilegszel.,Én is sokat...,frilegszek,frilegszem,lakik,-szik,2,dye,1972,férfi,igen,2022-03-23_16h54.19.558,hesp_baseline,2021.2.3,Linux x86_64,60.60606061
,,,,,,,,,,,,,,,,,kláragodtok,kláragszotok,right,7.246,0,46,46,123,1,124,kláragszik / kláragodik,"kláragszik, kláragodni",tek,NA,"János imád kláragodni, ezért sokat kláragszik.",Ti ritkán...,kláragszotok,kláragodtok,cselekszik,-szik,2,dye,1972,férfi,igen,2022-03-23_16h54.19.558,hesp_baseline,2021.2.3,Linux x86_64,60.60606061
,,,,,,,,,,,,,,,,,spiráglotok,spirágoztok,left,6.299,0,47,47,135,1,136,spiráglik / spirágozik,"spiráglik, spirágozni",tek,NA,"János imád spirágozni, ezért sokat spiráglik.",Ti ritkán...,spiráglotok,spirágoztok,cselekszik,-lik,2,dye,1972,férfi,igen,2022-03-23_16h54.19.558,hesp_baseline,2021.2.3,Linux x86_64,60.60606061
,,,,,,,,,,,,,,,,,sprozoznak,sprozlanak,left,5.476,0,48,48,147,1,148,sprozlik / sprozozik,"sprozlik, sprozozni",nek,NA,"János imád sprozozni, ezért sokat sprozlik.",Ők ritkán...,sprozlanak,sprozoznak,cselekszik,-lik,1,dye,1972,férfi,igen,2022-03-23_16h54.19.558,hesp_baseline,2021.2.3,Linux x86_64,60.60606061
,,,,,,,,,,,,,,,,,pibegzenek,pibegeznek,right,4.76,0,49,49,127,1,128,pibegzik / pibegezik,"pibegzik, pibegezni",nek,NA,"János imád pibegezni, ezért sokat pibegzik.",Ők ritkán...,pibegzenek,pibegeznek,cselekszik,-zik,2,dye,1972,férfi,igen,2022-03-23_16h54.19.558,hesp_baseline,2021.2.3,Linux x86_64,60.60606061
,,,,,,,,,,,,,,,,,ibékszek,ibékszem,right,4.111,0,50,50,95,1,150,ibékszik,ibékszel,NA,NA,Te bizony sokat ibékszel.,Én is sokat...,ibékszek,ibékszem,lakik,-szik,2,dye,1972,férfi,igen,2022-03-23_16h54.19.558,hesp_baseline,2021.2.3,Linux x86_64,60.60606061
,,,,,,,,,,,,,,,,,szihétnek,szihétnak,left,3.378,0,51,51,4,1,113,szihét,szihét,nak,é,Ez itt egy szihét.,Elneveztem a kutyámat...,szihétnek,szihétnak,dzsungel,NA,NA,dye,1972,férfi,igen,2022-03-23_16h54.19.558,hesp_baseline,2021.2.3,Linux x86_64,60.60606061
,,,,,,,,,,,,,,,,,düjzöm,düjzök,right,2.832,0,52,52,97,1,152,düjzik,düjzöl,NA,NA,Te bizony sokat düjzöl.,Én is sokat...,düjzök,düjzöm,lakik,-zik,1,dye,1972,férfi,igen,2022-03-23_16h54.19.558,hesp_baseline,2021.2.3,Linux x86_64,60.60606061
,,,,,,,,,,,,,,,,,pehégszetek,pehégedtek,left,5.877,0,53,53,151,1,152,pehégszik / pehégedik,"pehégszik, pehégedni",tek,NA,"János imád pehégedni, ezért sokat pehégszik.",Ti ritkán...,pehégszetek,pehégedtek,cselekszik,-szik,2,dye,1972,férfi,igen,2022-03-23_16h54.19.558,hesp_baseline,2021.2.3,Linux x86_64,60.60606061
,,,,,,,,,,,,,,,,,vurnelnak,vurnelnek,right,3.012,0,54,54,50,1,159,vurnel,vurnel,nak,e,Ez itt egy vurnel.,Elneveztem a kutyámat...,vurnelnek,vurnelnak,dzsungel,NA,NA,dye,1972,férfi,igen,2022-03-23_16h54.19.558,hesp_baseline,2021.2.3,Linux x86_64,60.60606061
,,,,,,,,,,,,,,,,,prínylok,prínylom,left,5.768,0,55,55,102,1,157,prínylik,prínylasz,NA,NA,Te bizony sokat prínylasz.,Én is sokat...,prínylok,prínylom,lakik,-lik,1,dye,1972,férfi,igen,2022-03-23_16h54.19.558,hesp_baseline,2021.2.3,Linux x86_64,60.60606061
,,,,,,,,,,,,,,,,,siladzom,siladzok,right,4.529,0,56,56,93,1,148,siladzik,siladzol,NA,NA,Te bizony sokat siladzol.,Én is sokat...,siladzok,siladzom,lakik,-zik,2,dye,1972,férfi,igen,2022-03-23_16h54.19.558,hesp_baseline,2021.2.3,Linux x86_64,60.60606061
,,,,,,,,,,,,,,,,,spírzom,spírzok,right,5.996,0,57,57,64,1,119,spírzik,spírzol,NA,NA,Te bizony sokat spírzol.,Én is sokat...,spírzok,spírzom,lakik,-zik,1,dye,1972,férfi,igen,2022-03-23_16h54.19.558,hesp_baseline,2021.2.3,Linux x86_64,60.60606061
,,,,,,,,,,,,,,,,,vileslünk,vilesezünk,right,4.977,0,58,58,139,1,140,vileslik / vilesezik,"vileslik, vilesezni",ünk,NA,"János imád vilesezni, ezért sokat vileslik.",Mi ritkán...,vileslünk,vilesezünk,cselekszik,-lik,2,dye,1972,férfi,igen,2022-03-23_16h54.19.558,hesp_baseline,2021.2.3,Linux x86_64,60.60606061
,,,,,,,,,,,,,,,,,sprökszök,sprökszöm,left,4.293,0,59,59,88,1,143,sprökszik,sprökszöl,NA,NA,Te bizony sokat sprökszöl.,Én is sokat...,sprökszök,sprökszöm,lakik,-szik,1,dye,1972,férfi,igen,2022-03-23_16h54.19.558,hesp_baseline,2021.2.3,Linux x86_64,60.60606061
,,,,,,,,,,,,,,,,,flugonylanak,flugonyoznak,left,4.997,0,60,60,111,1,112,flugonylik / flugonyozik,"flugonylik, flugonyozni",nek,NA,"János imád flugonyozni, ezért sokat flugonylik.",Ők ritkán...,flugonylanak,flugonyoznak,cselekszik,-lik,2,dye,1972,férfi,igen,2022-03-23_16h54.19.558,hesp_baseline,2021.2.3,Linux x86_64,60.60606061
,,,,,,,,,,,,,,,,,sztritoznak,sztritlanak,left,7.146,0,61,61,154,1,155,sztritlik / sztritozik,"sztritlik, sztritozni",nek,NA,"János imád sztritozni, ezért sokat sztritlik.",Ők ritkán...,sztritlanak,sztritoznak,cselekszik,-lik,1,dye,1972,férfi,igen,2022-03-23_16h54.19.558,hesp_baseline,2021.2.3,Linux x86_64,60.60606061
,,,,,,,,,,,,,,,,,zödlöm,zödlök,right,2.797,0,62,62,106,1,161,zödlik,zödlesz,NA,NA,Te bizony sokat zödlesz.,Én is sokat...,zödlök,zödlöm,lakik,-lik,1,dye,1972,férfi,igen,2022-03-23_16h54.19.558,hesp_baseline,2021.2.3,Linux x86_64,60.60606061
,,,,,,,,,,,,,,,,,bupézban,bupézben,right,3.26,0,63,63,48,1,157,bupéz,bupéz,ban,é,Ez itt egy bupéz.,Ott vagyunk a...,bupézben,bupézban,dzsungel,NA,NA,dye,1972,férfi,igen,2022-03-23_16h54.19.558,hesp_baseline,2021.2.3,Linux x86_64,60.60606061
,,,,,,,,,,,,,,,,,jurdentnál,jurdentnél,right,8.21,0,64,64,16,1,125,jurdent,jurdent,nál,e,Ez itt egy jurdent.,Nincs is jobb egy jó...,jurdentnél,jurdentnál,dzsungel,NA,NA,dye,1972,férfi,igen,2022-03-23_16h54.19.558,hesp_baseline,2021.2.3,Linux x86_64,60.60606061
,,,,,,,,,,,,,,,,,bratárzanak,bratároznak,left,14.495,0,65,65,108,1,109,bratárzik / bratározik,"bratárzik, bratározni",nek,NA,"János imád bratározni, ezért sokat bratárzik.",Ők ritkán...,bratárzanak,bratároznak,cselekszik,-zik,2,dye,1972,férfi,igen,2022-03-23_16h54.19.558,hesp_baseline,2021.2.3,Linux x86_64,60.60606061
,,,,,,,,,,,,,,,,,viroznak,virzanak,right,4.044,0,66,66,125,1,126,virzik / virozik,"virzik, virozni",nek,NA,"János imád virozni, ezért sokat virzik.",Ők ritkán...,virzanak,viroznak,cselekszik,-zik,1,dye,1972,férfi,igen,2022-03-23_16h54.19.558,hesp_baseline,2021.2.3,Linux x86_64,60.60606061
,,,,,,,,,,,,,,,,,zinednek,zinednak,left,2.844,0,67,67,22,1,131,zined,zined,nak,e,Ez itt egy zined.,Elneveztem a kutyámat...,zinednek,zinednak,dzsungel,NA,NA,dye,1972,férfi,igen,2022-03-23_16h54.19.558,hesp_baseline,2021.2.3,Linux x86_64,60.60606061
,,,,,,,,,,,,,,,,,brürzenek,brüröznek,right,5.545,0,68,68,110,1,111,brürzik / brürözik,"brürzik, brürözni",nek,NA,"János imád brürözni, ezért sokat brürzik.",Ők ritkán...,brürzenek,brüröznek,cselekszik,-zik,1,dye,1972,férfi,igen,2022-03-23_16h54.19.558,hesp_baseline,2021.2.3,Linux x86_64,60.60606061
,,,,,,,,,,,,,,,,,vubletnél,vubletnál,left,2.781,0,69,69,26,1,135,vublet,vublet,nál,e,Ez itt egy vublet.,Nincs is jobb egy jó...,vubletnél,vubletnál,dzsungel,NA,NA,dye,1972,férfi,igen,2022-03-23_16h54.19.558,hesp_baseline,2021.2.3,Linux x86_64,60.60606061
,,,,,,,,,,,,,,,,,brindeznak,brindeznek,right,4.228,0,70,70,6,1,115,brindez,brindez,nak,e,Ez itt egy brindez.,Elneveztem a kutyámat...,brindeznek,brindeznak,dzsungel,NA,NA,dye,1972,férfi,igen,2022-03-23_16h54.19.558,hesp_baseline,2021.2.3,Linux x86_64,60.60606061
,,,,,,,,,,,,,,,,,szutendben,szutendban,left,3.527,0,71,71,11,1,120,szutend,szutend,ban,e,Ez itt egy szutend.,Ott vagyunk a...,szutendben,szutendban,dzsungel,NA,NA,dye,1972,férfi,igen,2022-03-23_16h54.19.558,hesp_baseline,2021.2.3,Linux x86_64,60.60606061
,,,,,,,,,,,,,,,,,treglem,treglek,right,2.763,0,72,72,81,1,136,treglik,treglesz,NA,NA,Te bizony sokat treglesz.,Én is sokat...,treglek,treglem,lakik,-lik,1,dye,1972,férfi,igen,2022-03-23_16h54.19.558,hesp_baseline,2021.2.3,Linux x86_64,60.60606061
,,,,,,,,,,,,,,,,,mékszem,mékszek,right,5.595,0,73,73,71,1,126,mékszik,mékszel,NA,NA,Te bizony sokat mékszel.,Én is sokat...,mékszek,mékszem,lakik,-szik,1,dye,1972,férfi,igen,2022-03-23_16h54.19.558,hesp_baseline,2021.2.3,Linux x86_64,60.60606061
,,,,,,,,,,,,,,,,,brivepszünk,brivepedünk,left,4.653,0,74,74,113,1,114,brivepszik / brivepedik,"brivepszik, brivepedni",ünk,NA,"János imád brivepedni, ezért sokat brivepszik.",Mi ritkán...,brivepszünk,brivepedünk,cselekszik,-szik,2,dye,1972,férfi,igen,2022-03-23_16h54.19.558,hesp_baseline,2021.2.3,Linux x86_64,60.60606061
,,,,,,,,,,,,,,,,,brűköztök,brűklötök,right,4.829,0,75,75,153,1,154,brűklik / brűközik,"brűklik, brűközni",tek,NA,"János imád brűközni, ezért sokat brűklik.",Ti ritkán...,brűklötök,brűköztök,cselekszik,-lik,1,dye,1972,férfi,igen,2022-03-23_16h54.19.558,hesp_baseline,2021.2.3,Linux x86_64,60.60606061
,,,,,,,,,,,,,,,,,trivakodunk,trivakszunk,right,3.861,0,76,76,118,1,119,trivakszik / trivakodik,"trivakszik, trivakodni",ünk,NA,"János imád trivakodni, ezért sokat trivakszik.",Mi ritkán...,trivakszunk,trivakodunk,cselekszik,-szik,2,dye,1972,férfi,igen,2022-03-23_16h54.19.558,hesp_baseline,2021.2.3,Linux x86_64,60.60606061
,,,,,,,,,,,,,,,,,mágamozunk,mágamlunk,right,4.301,0,77,77,140,1,141,mágamlik / mágamozik,"mágamlik, mágamozni",ünk,NA,"János imád mágamozni, ezért sokat mágamlik.",Mi ritkán...,mágamlunk,mágamozunk,cselekszik,-lik,2,dye,1972,férfi,igen,2022-03-23_16h54.19.558,hesp_baseline,2021.2.3,Linux x86_64,60.60606061
,,,,,,,,,,,,,,,,,vodecnál,vodecnél,right,2.493,0,78,78,30,1,139,vodec,vodec,nál,e,Ez itt egy vodec.,Nincs is jobb egy jó...,vodecnél,vodecnál,dzsungel,NA,NA,dye,1972,férfi,igen,2022-03-23_16h54.19.558,hesp_baseline,2021.2.3,Linux x86_64,60.60606061
,,,,,,,,,,,,,,,,,fliraklok,fliraklom,left,5.497,0,79,79,98,1,153,fliraklik,fliraklasz,NA,NA,Te bizony sokat fliraklasz.,Én is sokat...,fliraklok,fliraklom,lakik,-lik,2,dye,1972,férfi,igen,2022-03-23_16h54.19.558,hesp_baseline,2021.2.3,Linux x86_64,60.60606061
,,,,,,,,,,,,,,,,,spülőrzöm,spülőrzök,right,5.631,0,80,80,69,1,124,spülőrzik,spülőrzöl,NA,NA,Te bizony sokat spülőrzöl.,Én is sokat...,spülőrzök,spülőrzöm,lakik,-zik,2,dye,1972,férfi,igen,2022-03-23_16h54.19.558,hesp_baseline,2021.2.3,Linux x86_64,60.60606061
,,,,,,,,,,,,,,,,,nyupérnál,nyupérnél,right,3.296,0,81,81,52,1,161,nyupér,nyupér,nál,é,Ez itt egy nyupér.,Nincs is jobb egy jó...,nyupérnél,nyupérnál,dzsungel,NA,NA,dye,1972,férfi,igen,2022-03-23_16h54.19.558,hesp_baseline,2021.2.3,Linux x86_64,60.60606061
,,,,,,,,,,,,,,,,,sűjözünk,sűjlünk,right,4.515,0,82,82,128,1,129,sűjlik / sűjözik,"sűjlik, sűjözni",ünk,NA,"János imád sűjözni, ezért sokat sűjlik.",Mi ritkán...,sűjlünk,sűjözünk,cselekszik,-lik,1,dye,1972,férfi,igen,2022-03-23_16h54.19.558,hesp_baseline,2021.2.3,Linux x86_64,60.60606061
,,,,,,,,,,,,,,,,,braszencnél,braszencnál,left,4.129,0,83,83,7,1,116,braszenc,braszenc,nál,e,Ez itt egy braszenc.,Nincs is jobb egy jó...,braszencnél,braszencnál,dzsungel,NA,NA,dye,1972,férfi,igen,2022-03-23_16h54.19.558,hesp_baseline,2021.2.3,Linux x86_64,60.60606061
,,,,,,,,,,,,,,,,,flöklötök,flököztök,left,5.269,0,84,84,121,1,122,flöklik / flöközik,"flöklik, flöközni",tek,NA,"János imád flöközni, ezért sokat flöklik.",Ti ritkán...,flöklötök,flököztök,cselekszik,-lik,1,dye,1972,férfi,igen,2022-03-23_16h54.19.558,hesp_baseline,2021.2.3,Linux x86_64,60.60606061
,,,,,,,,,,,,,,,,,spalároznak,spalárzanak,left,5.138,0,85,85,137,1,138,spalárzik / spalározik,"spalárzik, spalározni",nek,NA,"János imád spalározni, ezért sokat spalárzik.",Ők ritkán...,spalárzanak,spalároznak,cselekszik,-zik,2,dye,1972,férfi,igen,2022-03-23_16h54.19.558,hesp_baseline,2021.2.3,Linux x86_64,60.60606061
,,,,,,,,,,,,,,,,,surnegynál,surnegynél,right,2.559,0,86,86,8,1,117,surnegy,surnegy,nál,e,Ez itt egy surnegy.,Nincs is jobb egy jó...,surnegynél,surnegynál,dzsungel,NA,NA,dye,1972,férfi,igen,2022-03-23_16h54.19.558,hesp_baseline,2021.2.3,Linux x86_64,60.60606061
,,,,,,,,,,,,,,,,,trugokoznak,trugoklanak,right,5.828,0,87,87,109,1,110,trugoklik / trugokozik,"trugoklik, trugokozni",nek,NA,"János imád trugokozni, ezért sokat trugoklik.",Ők ritkán...,trugoklanak,trugokoznak,cselekszik,-lik,2,dye,1972,férfi,igen,2022-03-23_16h54.19.558,hesp_baseline,2021.2.3,Linux x86_64,60.60606061
,,,,,,,,,,,,,,,,,sprálszom,sprálszok,right,4.58,0,88,88,65,1,120,sprálszik,sprálszol,NA,NA,Te bizony sokat sprálszol.,Én is sokat...,sprálszok,sprálszom,lakik,-szik,1,dye,1972,férfi,igen,2022-03-23_16h54.19.558,hesp_baseline,2021.2.3,Linux x86_64,60.60606061
,,,,,,,,,,,,,,,,,prezlem,prezlek,right,4.482,0,89,89,87,1,142,prezlik,prezlesz,NA,NA,Te bizony sokat prezlesz.,Én is sokat...,prezlek,prezlem,lakik,-lik,1,dye,1972,férfi,igen,2022-03-23_16h54.19.558,hesp_baseline,2021.2.3,Linux x86_64,60.60606061
,,,,,,,,,,,,,,,,,spuménynak,spuménynek,right,4.162,0,90,90,19,1,128,spumény,spumény,nak,é,Ez itt egy spumény.,Elneveztem a kutyámat...,spuménynek,spuménynak,dzsungel,NA,NA,dye,1972,férfi,igen,2022-03-23_16h54.19.558,hesp_baseline,2021.2.3,Linux x86_64,60.60606061
,,,,,,,,,,,,,,,,,trincsegban,trincsegben,right,2.998,0,91,91,46,1,155,trincseg,trincseg,ban,e,Ez itt egy trincseg.,Ott vagyunk a...,trincsegben,trincsegban,dzsungel,NA,NA,dye,1972,férfi,igen,2022-03-23_16h54.19.558,hesp_baseline,2021.2.3,Linux x86_64,60.60606061
,,,,,,,,,,,,,,,,,bivejlem,bivejlek,right,2.331,0,92,92,73,1,128,bivejlik,bivejlesz,NA,NA,Te bizony sokat bivejlesz.,Én is sokat...,bivejlek,bivejlem,lakik,-lik,2,dye,1972,férfi,igen,2022-03-23_16h54.19.558,hesp_baseline,2021.2.3,Linux x86_64,60.60606061
,,,,,,,,,,,,,,,,,tűgöztök,tűgzötök,left,40.384,0,93,93,143,1,144,tűgzik / tűgözik,"tűgzik, tűgözni",tek,NA,"János imád tűgözni, ezért sokat tűgzik.",Ti ritkán...,tűgzötök,tűgöztök,cselekszik,-zik,1,dye,1972,férfi,igen,2022-03-23_16h54.19.558,hesp_baseline,2021.2.3,Linux x86_64,60.60606061
,,,,,,,,,,,,,,,,,csodegnál,csodegnél,right,3.171,0,94,94,28,1,137,csodeg,csodeg,nál,e,Ez itt egy csodeg.,Nincs is jobb egy jó...,csodegnél,csodegnál,dzsungel,NA,NA,dye,1972,férfi,igen,2022-03-23_16h54.19.558,hesp_baseline,2021.2.3,Linux x86_64,60.60606061
,,,,,,,,,,,,,,,,,trismélnak,trismélnek,right,3.464,0,95,95,5,1,114,trismél,trismél,nak,é,Ez itt egy trismél.,Elneveztem a kutyámat...,trismélnek,trismélnak,dzsungel,NA,NA,dye,1972,férfi,igen,2022-03-23_16h54.19.558,hesp_baseline,2021.2.3,Linux x86_64,60.60606061
,,,,,,,,,,,,,,,,,tuboklom,tuboklok,right,4.131,0,96,96,84,1,139,tuboklik,tuboklasz,NA,NA,Te bizony sokat tuboklasz.,Én is sokat...,tuboklok,tuboklom,lakik,-lik,2,dye,1972,férfi,igen,2022-03-23_16h54.19.558,hesp_baseline,2021.2.3,Linux x86_64,60.60606061
,,,,,,,,,,,,,,,,,hűgzöm,hűgzök,right,3.597,0,97,97,107,1,162,hűgzik,hűgzöl,NA,NA,Te bizony sokat hűgzöl.,Én is sokat...,hűgzök,hűgzöm,lakik,-zik,1,dye,1972,férfi,igen,2022-03-23_16h54.19.558,hesp_baseline,2021.2.3,Linux x86_64,60.60606061
,,,,,,,,,,,,,,,,,klárzom,klárzok,right,3.728,0,98,98,85,1,140,klárzik,klárzol,NA,NA,Te bizony sokat klárzol.,Én is sokat...,klárzok,klárzom,lakik,-zik,1,dye,1972,férfi,igen,2022-03-23_16h54.19.558,hesp_baseline,2021.2.3,Linux x86_64,60.60606061
,,,,,,,,,,,,,,,,,danétnál,danétnél,left,3.677,0,99,99,38,1,147,danét,danét,nál,é,Ez itt egy danét.,Nincs is jobb egy jó...,danétnél,danétnál,dzsungel,NA,NA,dye,1972,férfi,igen,2022-03-23_16h54.19.558,hesp_baseline,2021.2.3,Linux x86_64,60.60606061
,,,,,,,,,,,,,,,,,dralágzunk,dralágozunk,left,6.558,0,100,100,156,1,157,dralágzik / dralágozik,"dralágzik, dralágozni",ünk,NA,"János imád dralágozni, ezért sokat dralágzik.",Mi ritkán...,dralágzunk,dralágozunk,cselekszik,-zik,2,dye,1972,férfi,igen,2022-03-23_16h54.19.558,hesp_baseline,2021.2.3,Linux x86_64,60.60606061
,,,,,,,,,,,,,,,,,zatéjnál,zatéjnél,left,5.478,0,101,101,34,1,143,zatéj,zatéj,nál,é,Ez itt egy zatéj.,Nincs is jobb egy jó...,zatéjnél,zatéjnál,dzsungel,NA,NA,dye,1972,férfi,igen,2022-03-23_16h54.19.558,hesp_baseline,2021.2.3,Linux x86_64,60.60606061
,,,,,,,,,,,,,,,,,brárlanak,brároznak,left,7.161,0,102,102,126,1,127,brárlik / brározik,"brárlik, brározni",nek,NA,"János imád brározni, ezért sokat brárlik.",Ők ritkán...,brárlanak,brároznak,cselekszik,-lik,1,dye,1972,férfi,igen,2022-03-23_16h54.19.558,hesp_baseline,2021.2.3,Linux x86_64,60.60606061
,,,,,,,,,,,,,,,,,nivárzotok,nivároztok,right,7.21,0,103,103,146,1,147,nivárzik / nivározik,"nivárzik, nivározni",tek,NA,"János imád nivározni, ezért sokat nivárzik.",Ti ritkán...,nivárzotok,nivároztok,cselekszik,-zik,2,dye,1972,férfi,igen,2022-03-23_16h54.19.558,hesp_baseline,2021.2.3,Linux x86_64,60.60606061
,,,,,,,,,,,,,,,,,sztruglom,sztruglok,right,2.663,0,104,104,67,1,122,sztruglik,sztruglasz,NA,NA,Te bizony sokat sztruglasz.,Én is sokat...,sztruglok,sztruglom,lakik,-lik,1,dye,1972,férfi,igen,2022-03-23_16h54.19.558,hesp_baseline,2021.2.3,Linux x86_64,60.60606061
,,,,,,,,,,,,,,,,,lájoztok,lájzotok,left,8.362,0,105,105,159,1,160,lájzik / lájozik,"lájzik, lájozni",tek,NA,"János imád lájozni, ezért sokat lájzik.",Ti ritkán...,lájzotok,lájoztok,cselekszik,-zik,1,dye,1972,férfi,igen,2022-03-23_16h54.19.558,hesp_baseline,2021.2.3,Linux x86_64,60.60606061
,,,,,,,,,,,,,,,,,briskédnál,briskédnél,right,2.793,0,106,106,51,1,160,briskéd,briskéd,nál,é,Ez itt egy briskéd.,Nincs is jobb egy jó...,briskédnél,briskédnál,dzsungel,NA,NA,dye,1972,férfi,igen,2022-03-23_16h54.19.558,hesp_baseline,2021.2.3,Linux x86_64,60.60606061
,,,,,,,,,,,,,,,,,trájegben,trájegban,left,10.545,0,107,107,14,1,123,trájeg,trájeg,ban,e,Ez itt egy trájeg.,Ott vagyunk a...,trájegben,trájegban,dzsungel,NA,NA,dye,1972,férfi,igen,2022-03-23_16h54.19.558,hesp_baseline,2021.2.3,Linux x86_64,60.60606061
,,,,,,,,,,,,,,,,,brilegezünk,brilegzünk,left,5.099,0,108,108,124,1,125,brilegzik / brilegezik,"brilegzik, brilegezni",ünk,NA,"János imád brilegezni, ezért sokat brilegzik.",Mi ritkán...,brilegzünk,brilegezünk,cselekszik,-zik,2,dye,1972,férfi,igen,2022-03-23_16h54.19.558,hesp_baseline,2021.2.3,Linux x86_64,60.60606061
,,,,,,,,,,,,,,,,,klibamlok,klibamlom,left,5.806,0,109,109,92,1,147,klibamlik,klibamlasz,NA,NA,Te bizony sokat klibamlasz.,Én is sokat...,klibamlok,klibamlom,lakik,-lik,2,dye,1972,férfi,igen,2022-03-23_16h54.19.558,hesp_baseline,2021.2.3,Linux x86_64,60.60606061
,,,,,,,,,,,,,,,,,dorzéjnak,dorzéjnek,left,4.161,0,110,110,29,1,138,dorzéj,dorzéj,nak,é,Ez itt egy dorzéj.,Elneveztem a kutyámat...,dorzéjnek,dorzéjnak,dzsungel,NA,NA,dye,1972,férfi,igen,2022-03-23_16h54.19.558,hesp_baseline,2021.2.3,Linux x86_64,60.60606061
,,,,,,,,,,,,,,,,,spröbzöm,spröbzök,right,8.312,0,111,111,90,1,145,spröbzik,spröbzöl,NA,NA,Te bizony sokat spröbzöl.,Én is sokat...,spröbzök,spröbzöm,lakik,-zik,1,dye,1972,férfi,igen,2022-03-23_16h54.19.558,hesp_baseline,2021.2.3,Linux x86_64,60.60606061
,,,,,,,,,,,,,,,,,sprivencnál,sprivencnél,right,3.173,0,112,112,13,1,122,sprivenc,sprivenc,nál,e,Ez itt egy sprivenc.,Nincs is jobb egy jó...,sprivencnél,sprivencnál,dzsungel,NA,NA,dye,1972,férfi,igen,2022-03-23_16h54.19.558,hesp_baseline,2021.2.3,Linux x86_64,60.60606061
,,,,,,,,,,,,,,,,,spatelnek,spatelnak,left,3.527,0,113,113,21,1,130,spatel,spatel,nak,e,Ez itt egy spatel.,Elneveztem a kutyámat...,spatelnek,spatelnak,dzsungel,NA,NA,dye,1972,férfi,igen,2022-03-23_16h54.19.558,hesp_baseline,2021.2.3,Linux x86_64,60.60606061
,,,,,,,,,,,,,,,,,trűnyöznek,trűnylenek,left,6.545,0,114,114,119,1,120,trűnylik / trűnyözik,"trűnylik, trűnyözni",nek,NA,"János imád trűnyözni, ezért sokat trűnylik.",Ők ritkán...,trűnylenek,trűnyöznek,cselekszik,-lik,1,dye,1972,férfi,igen,2022-03-23_16h54.19.558,hesp_baseline,2021.2.3,Linux x86_64,60.60606061
,,,,,,,,,,,,,,,,,nyítemban,nyítemben,right,2.911,0,115,115,41,1,150,nyítem,nyítem,ban,e,Ez itt egy nyítem.,Ott vagyunk a...,nyítemben,nyítemban,dzsungel,NA,NA,dye,1972,férfi,igen,2022-03-23_16h54.19.558,hesp_baseline,2021.2.3,Linux x86_64,60.60606061
,,,,,,,,,,,,,,,,,spuborzanak,spuboroznak,left,9.413,0,116,116,161,1,162,spuborzik / spuborozik,"spuborzik, spuborozni",nek,NA,"János imád spuborozni, ezért sokat spuborzik.",Ők ritkán...,spuborzanak,spuboroznak,cselekszik,-zik,2,dye,1972,férfi,igen,2022-03-23_16h54.19.558,hesp_baseline,2021.2.3,Linux x86_64,60.60606061
,,,,,,,,,,,,,,,,,döjlenek,döjöznek,left,4.178,0,117,117,129,1,130,döjlik / döjözik,"döjlik, döjözni",nek,NA,"János imád döjözni, ezért sokat döjlik.",Ők ritkán...,döjlenek,döjöznek,cselekszik,-lik,1,dye,1972,férfi,igen,2022-03-23_16h54.19.558,hesp_baseline,2021.2.3,Linux x86_64,60.60606061
,,,,,,,,,,,,,,,,,büglök,büglöm,left,2.146,0,118,118,101,1,156,büglik,büglesz,NA,NA,Te bizony sokat büglesz.,Én is sokat...,büglök,büglöm,lakik,-lik,1,dye,1972,férfi,igen,2022-03-23_16h54.19.558,hesp_baseline,2021.2.3,Linux x86_64,60.60606061
,,,,,,,,,,,,,,,,,drubódzok,drubódzom,left,3.513,0,119,119,63,1,118,drubódzik,drubódzol,NA,NA,Te bizony sokat drubódzol.,Én is sokat...,drubódzok,drubódzom,lakik,-zik,2,dye,1972,férfi,igen,2022-03-23_16h54.19.558,hesp_baseline,2021.2.3,Linux x86_64,60.60606061
,,,,,,,,,,,,,,,,,filánylunk,filányozunk,left,5.842,0,120,120,134,1,135,filánylik / filányozik,"filánylik, filányozni",ünk,NA,"János imád filányozni, ezért sokat filánylik.",Mi ritkán...,filánylunk,filányozunk,cselekszik,-lik,2,dye,1972,férfi,igen,2022-03-23_16h54.19.558,hesp_baseline,2021.2.3,Linux x86_64,60.60606061
,,,,,,,,,,,,,,,,,kléglünk,klégezünk,left,4.727,0,121,121,122,1,123,kléglik / klégezik,"kléglik, klégezni",ünk,NA,"János imád klégezni, ezért sokat kléglik.",Mi ritkán...,kléglünk,klégezünk,cselekszik,-lik,1,dye,1972,férfi,igen,2022-03-23_16h54.19.558,hesp_baseline,2021.2.3,Linux x86_64,60.60606061
,,,,,,,,,,,,,,,,,tínylom,tínylok,right,2.556,0,122,122,58,1,113,tínylik,tínylasz,NA,NA,Te bizony sokat tínylasz.,Én is sokat...,tínylok,tínylom,lakik,-lik,1,dye,1972,férfi,igen,2022-03-23_16h54.19.558,hesp_baseline,2021.2.3,Linux x86_64,60.60606061
,,,,,,,,,,,,,,,,,hágyétnek,hágyétnak,right,3.813,0,123,123,42,1,151,hágyét,hágyét,nak,é,Ez itt egy hágyét.,Elneveztem a kutyámat...,hágyétnek,hágyétnak,dzsungel,NA,NA,dye,1972,férfi,igen,2022-03-23_16h54.19.558,hesp_baseline,2021.2.3,Linux x86_64,60.60606061
,,,,,,,,,,,,,,,,,spibamoznak,spibamlanak,right,6.045,0,124,124,142,1,143,spibamlik / spibamozik,"spibamlik, spibamozni",nek,NA,"János imád spibamozni, ezért sokat spibamlik.",Ők ritkán...,spibamlanak,spibamoznak,cselekszik,-lik,2,dye,1972,férfi,igen,2022-03-23_16h54.19.558,hesp_baseline,2021.2.3,Linux x86_64,60.60606061
,,,,,,,,,,,,,,,,,piragszom,piragszok,right,3.38,0,125,125,83,1,138,piragszik,piragszol,NA,NA,Te bizony sokat piragszol.,Én is sokat...,piragszok,piragszom,lakik,-szik,2,dye,1972,férfi,igen,2022-03-23_16h54.19.558,hesp_baseline,2021.2.3,Linux x86_64,60.60606061
,,,,,,,,,,,,,,,,,murdesnál,murdesnél,right,3.016,0,126,126,47,1,156,murdes,murdes,nál,e,Ez itt egy murdes.,Nincs is jobb egy jó...,murdesnél,murdesnál,dzsungel,NA,NA,dye,1972,férfi,igen,2022-03-23_16h54.19.558,hesp_baseline,2021.2.3,Linux x86_64,60.60606061
,,,,,,,,,,,,,,,,,prűrlöm,prűrlök,right,3.945,0,127,127,75,1,130,prűrlik,prűrlesz,NA,NA,Te bizony sokat prűrlesz.,Én is sokat...,prűrlök,prűrlöm,lakik,-lik,1,dye,1972,férfi,igen,2022-03-23_16h54.19.558,hesp_baseline,2021.2.3,Linux x86_64,60.60606061
,,,,,,,,,,,,,,,,,ronszekben,ronszekban,left,10.761,0,128,128,18,1,127,ronszek,ronszek,ban,e,Ez itt egy ronszek.,Ott vagyunk a...,ronszekben,ronszekban,dzsungel,NA,NA,dye,1972,férfi,igen,2022-03-23_16h54.19.558,hesp_baseline,2021.2.3,Linux x86_64,60.60606061
,,,,,,,,,,,,,,,,,trehégszek,trehégszem,left,3.161,0,129,129,86,1,141,trehégszik,trehégszel,NA,NA,Te bizony sokat trehégszel.,Én is sokat...,trehégszek,trehégszem,lakik,-szik,2,dye,1972,férfi,igen,2022-03-23_16h54.19.558,hesp_baseline,2021.2.3,Linux x86_64,60.60606061
,,,,,,,,,,,,,,,,,vihepszek,vihepszem,left,3.464,0,130,130,59,1,114,vihepszik,vihepszel,NA,NA,Te bizony sokat vihepszel.,Én is sokat...,vihepszek,vihepszem,lakik,-szik,2,dye,1972,férfi,igen,2022-03-23_16h54.19.558,hesp_baseline,2021.2.3,Linux x86_64,60.60606061
,,,,,,,,,,,,,,,,,trálszunk,trálodunk,right,8.996,0,131,131,130,1,131,trálszik / trálodik,"trálszik, trálodni",ünk,NA,"János imád trálodni, ezért sokat trálszik.",Mi ritkán...,trálszunk,trálodunk,cselekszik,-szik,1,dye,1972,férfi,igen,2022-03-23_16h54.19.558,hesp_baseline,2021.2.3,Linux x86_64,60.60606061
,,,,,,,,,,,,,,,,,pragánylotok,pragányoztok,left,3.806,0,132,132,133,1,134,pragánylik / pragányozik,"pragánylik, pragányozni",tek,NA,"János imád pragányozni, ezért sokat pragánylik.",Ti ritkán...,pragánylotok,pragányoztok,cselekszik,-lik,2,dye,1972,férfi,igen,2022-03-23_16h54.19.558,hesp_baseline,2021.2.3,Linux x86_64,60.60606061
,,,,,,,,,,,,,,,,,ribegedtek,ribegszetek,right,5.477,0,133,133,141,1,142,ribegszik / ribegedik,"ribegszik, ribegedni",tek,NA,"János imád ribegedni, ezért sokat ribegszik.",Ti ritkán...,ribegszetek,ribegedtek,cselekszik,-szik,2,dye,1972,férfi,igen,2022-03-23_16h54.19.558,hesp_baseline,2021.2.3,Linux x86_64,60.60606061
,,,,,,,,,,,,,,,,,flátlotok,flátoztok,left,5.416,0,134,134,132,1,133,flátlik / flátozik,"flátlik, flátozni",tek,NA,"János imád flátozni, ezért sokat flátlik.",Ti ritkán...,flátlotok,flátoztok,cselekszik,-lik,1,dye,1972,férfi,igen,2022-03-23_16h54.19.558,hesp_baseline,2021.2.3,Linux x86_64,60.60606061
,,,,,,,,,,,,,,,,,zsádévnek,zsádévnak,right,4.695,0,135,135,20,1,129,zsádév,zsádév,nak,é,Ez itt egy zsádév.,Elneveztem a kutyámat...,zsádévnek,zsádévnak,dzsungel,NA,NA,dye,1972,férfi,igen,2022-03-23_16h54.19.558,hesp_baseline,2021.2.3,Linux x86_64,60.60606061
,,,,,,,,,,,,,,,,,böjzöm,böjzök,right,2.994,0,136,136,80,1,135,böjzik,böjzöl,NA,NA,Te bizony sokat böjzöl.,Én is sokat...,böjzök,böjzöm,lakik,-zik,1,dye,1972,férfi,igen,2022-03-23_16h54.19.558,hesp_baseline,2021.2.3,Linux x86_64,60.60606061
,,,,,,,,,,,,,,,,,frálapodtok,frálapszotok,right,6.691,0,137,137,150,1,151,frálapszik / frálapodik,"frálapszik, frálapodni",tek,NA,"János imád frálapodni, ezért sokat frálapszik.",Ti ritkán...,frálapszotok,frálapodtok,cselekszik,-szik,2,dye,1972,férfi,igen,2022-03-23_16h54.19.558,hesp_baseline,2021.2.3,Linux x86_64,60.60606061
,,,,,,,,,,,,,,,,,sztrűkszöm,sztrűkszök,right,3.846,0,138,138,77,1,132,sztrűkszik,sztrűkszöl,NA,NA,Te bizony sokat sztrűkszöl.,Én is sokat...,sztrűkszök,sztrűkszöm,lakik,-szik,1,dye,1972,férfi,igen,2022-03-23_16h54.19.558,hesp_baseline,2021.2.3,Linux x86_64,60.60606061
,,,,,,,,,,,,,,,,,pribagszom,pribagszok,right,3.524,0,139,139,76,1,131,pribagszik,pribagszol,NA,NA,Te bizony sokat pribagszol.,Én is sokat...,pribagszok,pribagszom,lakik,-szik,2,dye,1972,férfi,igen,2022-03-23_16h54.19.558,hesp_baseline,2021.2.3,Linux x86_64,60.60606061
,,,,,,,,,,,,,,,,,trálaklanak,trálakoznak,right,6.481,0,140,140,116,1,117,trálaklik / trálakozik,"trálaklik, trálakozni",nek,NA,"János imád trálakozni, ezért sokat trálaklik.",Ők ritkán...,trálaklanak,trálakoznak,cselekszik,-lik,2,dye,1972,férfi,igen,2022-03-23_16h54.19.558,hesp_baseline,2021.2.3,Linux x86_64,60.60606061
,,,,,,,,,,,,,,,,,lismévben,lismévban,left,6.861,0,141,141,0,1,109,lismév,lismév,ban,é,Ez itt egy lismév.,Ott vagyunk a...,lismévben,lismévban,dzsungel,NA,NA,dye,1972,férfi,igen,2022-03-23_16h54.19.558,hesp_baseline,2021.2.3,Linux x86_64,60.60606061
,,,,,,,,,,,,,,,,,sztredeztek,sztredletek,right,4.812,0,142,142,145,1,146,sztredlik / sztredezik,"sztredlik, sztredezni",tek,NA,"János imád sztredezni, ezért sokat sztredlik.",Ti ritkán...,sztredletek,sztredeztek,cselekszik,-lik,1,dye,1972,férfi,igen,2022-03-23_16h54.19.558,hesp_baseline,2021.2.3,Linux x86_64,60.60606061
,,,,,,,,,,,,,,,,,gibemlünk,gibemezünk,right,5.095,0,143,143,115,1,116,gibemlik / gibemezik,"gibemlik, gibemezni",ünk,NA,"János imád gibemezni, ezért sokat gibemlik.",Mi ritkán...,gibemlünk,gibemezünk,cselekszik,-lik,2,dye,1972,férfi,igen,2022-03-23_16h54.19.558,hesp_baseline,2021.2.3,Linux x86_64,60.60606061
,,,,,,,,,,,,,,,,,gerénylem,gerénylek,right,3.228,0,144,144,99,1,154,gerénylik,gerénylesz,NA,NA,Te bizony sokat gerénylesz.,Én is sokat...,gerénylek,gerénylem,lakik,-lik,2,dye,1972,férfi,igen,2022-03-23_16h54.19.558,hesp_baseline,2021.2.3,Linux x86_64,60.60606061
,,,,,,,,,,,,,,,,,kábesznál,kábesznél,right,2.277,0,145,145,44,1,153,kábesz,kábesz,nál,e,Ez itt egy kábesz.,Nincs is jobb egy jó...,kábesznél,kábesznál,dzsungel,NA,NA,dye,1972,férfi,igen,2022-03-23_16h54.19.558,hesp_baseline,2021.2.3,Linux x86_64,60.60606061
,,,,,,,,,,,,,,,,,sartelyben,sartelyban,left,3.343,0,146,146,40,1,149,sartely,sartely,ban,e,Ez itt egy sartely.,Ott vagyunk a...,sartelyben,sartelyban,dzsungel,NA,NA,dye,1972,férfi,igen,2022-03-23_16h54.19.558,hesp_baseline,2021.2.3,Linux x86_64,60.60606061
,,,,,,,,,,,,,,,,,klétszek,klétszem,left,4.481,0,147,147,60,1,115,klétszik,klétszel,NA,NA,Te bizony sokat klétszel.,Én is sokat...,klétszek,klétszem,lakik,-szik,1,dye,1972,férfi,igen,2022-03-23_16h54.19.558,hesp_baseline,2021.2.3,Linux x86_64,60.60606061
,,,,,,,,,,,,,,,,,drilarozunk,drilarzunk,right,7.163,0,148,148,131,1,132,drilarzik / drilarozik,"drilarzik, drilarozni",ünk,NA,"János imád drilarozni, ezért sokat drilarzik.",Mi ritkán...,drilarzunk,drilarozunk,cselekszik,-zik,2,dye,1972,férfi,igen,2022-03-23_16h54.19.558,hesp_baseline,2021.2.3,Linux x86_64,60.60606061
,,,,,,,,,,,,,,,,,trilszok,trilszom,right,4.111,0,149,149,103,1,158,trilszik,trilszol,NA,NA,Te bizony sokat trilszol.,Én is sokat...,trilszok,trilszom,lakik,-szik,1,dye,1972,férfi,igen,2022-03-23_16h54.19.558,hesp_baseline,2021.2.3,Linux x86_64,60.60606061
,,,,,,,,,,,,,,,,,voboztok,vobzotok,right,3.711,0,150,150,158,1,159,vobzik / vobozik,"vobzik, vobozni",tek,NA,"János imád vobozni, ezért sokat vobzik.",Ti ritkán...,vobzotok,voboztok,cselekszik,-zik,1,dye,1972,férfi,igen,2022-03-23_16h54.19.558,hesp_baseline,2021.2.3,Linux x86_64,60.60606061
,,,,,,,,,,,,,,,,,licegyben,licegyban,left,2.439,0,151,151,15,1,124,licegy,licegy,ban,e,Ez itt egy licegy.,Ott vagyunk a...,licegyben,licegyban,dzsungel,NA,NA,dye,1972,férfi,igen,2022-03-23_16h54.19.558,hesp_baseline,2021.2.3,Linux x86_64,60.60606061
,,,,,,,,,,,,,,,,,trapszegynál,trapszegynél,right,3.279,0,152,152,39,1,148,trapszegy,trapszegy,nál,e,Ez itt egy trapszegy.,Nincs is jobb egy jó...,trapszegynél,trapszegynál,dzsungel,NA,NA,dye,1972,férfi,igen,2022-03-23_16h54.19.558,hesp_baseline,2021.2.3,Linux x86_64,60.60606061
,,,,,,,,,,,,,,,,,sztrijzok,sztrijzom,right,3.753,0,153,153,68,1,123,sztrijzik,sztrijzol,NA,NA,Te bizony sokat sztrijzol.,Én is sokat...,sztrijzok,sztrijzom,lakik,-zik,1,dye,1972,férfi,igen,2022-03-23_16h54.19.558,hesp_baseline,2021.2.3,Linux x86_64,60.60606061
,,,,,,,,,,,,,,,,,klosétnek,klosétnak,right,3.595,0,154,154,45,1,154,klosét,klosét,nak,é,Ez itt egy klosét.,Elneveztem a kutyámat...,klosétnek,klosétnak,dzsungel,NA,NA,dye,1972,férfi,igen,2022-03-23_16h54.19.558,hesp_baseline,2021.2.3,Linux x86_64,60.60606061
,,,,,,,,,,,,,,,,,pristélben,pristélban,right,1.795,0,155,155,1,1,110,pristél,pristél,ban,é,Ez itt egy pristél.,Ott vagyunk a...,pristélben,pristélban,dzsungel,NA,NA,dye,1972,férfi,igen,2022-03-23_16h54.19.558,hesp_baseline,2021.2.3,Linux x86_64,60.60606061
,,,,,,,,,,,,,,,,,bihánylok,bihánylom,left,5.452,0,156,156,89,1,144,bihánylik,bihánylasz,NA,NA,Te bizony sokat bihánylasz.,Én is sokat...,bihánylok,bihánylom,lakik,-lik,2,dye,1972,férfi,igen,2022-03-23_16h54.19.558,hesp_baseline,2021.2.3,Linux x86_64,60.60606061
,,,,,,,,,,,,,,,,,bűtszöm,bűtszök,right,5.387,0,157,157,82,1,137,bűtszik,bűtszöl,NA,NA,Te bizony sokat bűtszöl.,Én is sokat...,bűtszök,bűtszöm,lakik,-szik,1,dye,1972,férfi,igen,2022-03-23_16h54.19.558,hesp_baseline,2021.2.3,Linux x86_64,60.60606061
,,,,,,,,,,,,,,,,,táklok,táklom,left,2.363,0,158,158,79,1,134,táklik,táklasz,NA,NA,Te bizony sokat táklasz.,Én is sokat...,táklok,táklom,lakik,-lik,1,dye,1972,férfi,igen,2022-03-23_16h54.19.558,hesp_baseline,2021.2.3,Linux x86_64,60.60606061
,,,,,,,,,,,,,,,,,triklotok,trikoztok,left,11.599,0,159,159,160,1,161,triklik / trikozik,"triklik, trikozni",tek,NA,"János imád trikozni, ezért sokat triklik.",Ti ritkán...,triklotok,trikoztok,cselekszik,-lik,1,dye,1972,férfi,igen,2022-03-23_16h54.19.558,hesp_baseline,2021.2.3,Linux x86_64,60.60606061
,,,,,,,,,,,,,,,,,dibezben,dibezban,left,2.994,0,160,160,27,1,136,dibez,dibez,ban,e,Ez itt egy dibez.,Ott vagyunk a...,dibezben,dibezban,dzsungel,NA,NA,dye,1972,férfi,igen,2022-03-23_16h54.19.558,hesp_baseline,2021.2.3,Linux x86_64,60.60606061
,,,,,,,,,,,,,,,,,drivegeztek,drivegzetek,right,5.778,0,161,161,112,1,113,drivegzik / drivegezik,"drivegzik, drivegezni",tek,NA,"János imád drivegezni, ezért sokat drivegzik.",Ti ritkán...,drivegzetek,drivegeztek,cselekszik,-zik,2,dye,1972,férfi,igen,2022-03-23_16h54.19.558,hesp_baseline,2021.2.3,Linux x86_64,60.60606061
