my_list,key.keys,key.rt,key_2.keys,key_2.rt,keyboard_input_2.keys,keyboard_input_2.rt,key_3.keys,key_3.rt,keyboard_input_3.keys,keyboard_input_3.rt,key_4.keys,key_4.rt,keyboard_input_4.keys,keyboard_input_4.rt,key_5.keys,key_5.rt,my_button1,my_button2,keyboard_input.keys,keyboard_input.rt,withinBlock.thisRepN,withinBlock.thisTrialN,withinBlock.thisN,withinBlock.thisIndex,withinBlock.ran,rowname,word,prompt,suffix,vowel,carrier_sentence,target_sentence,target1,target2,category,derivational,nsyl,Azonosító,Melyik évben születtél?,Mi a nemed?,Tanultál nyelvészetet?,date,expName,psychopyVersion,OS,frameRate
list2.csv,space,51.3097,space,9.1338,right,13.9368,space,11.2329,left,11.2335,space,8.85,left,5.7599,space,14.3492,prihegszenek,prihegednek,right,18.3337,0,0,0,155,1,102,prihegszik / prihegedik,"prihegszik, prihegedni",nek,NA,"János imád prihegedni, ezért sokat prihegszik.",Ők ritkán...,prihegszenek,prihegednek,cselekszik,-szik,2,PR2057,2001,nő,nem,2022-04-14_15h31.23.031,hesp_baseline,2021.2.3,Win32,60.0132029
,,,,,,,,,,,,,,,,,fibamlom,fibamlok,right,11.5206,0,1,1,65,1,66,fibamlik,fibamlasz,NA,NA,Te bizony sokat fibamlasz.,Én is sokat...,fibamlok,fibamlom,lakik,-lik,2,PR2057,2001,nő,nem,2022-04-14_15h31.23.031,hesp_baseline,2021.2.3,Win32,60.0132029
,,,,,,,,,,,,,,,,,fluboklotok,flubokoztok,right,26.9243,0,2,2,151,1,98,fluboklik / flubokozik,"fluboklik, flubokozni",tek,NA,"János imád flubokozni, ezért sokat fluboklik.",Ti ritkán...,fluboklotok,flubokoztok,cselekszik,-lik,2,PR2057,2001,nő,nem,2022-04-14_15h31.23.031,hesp_baseline,2021.2.3,Win32,60.0132029
,,,,,,,,,,,,,,,,,fupétnél,fupétnál,right,16.6503,0,3,3,14,1,69,fupét,fupét,nál,é,Ez itt egy fupét.,Nincs is jobb egy jó...,fupétnél,fupétnál,dzsungel,NA,NA,PR2057,2001,nő,nem,2022-04-14_15h31.23.031,hesp_baseline,2021.2.3,Win32,60.0132029
,,,,,,,,,,,,,,,,,flüröslök,flüröslöm,right,20.2333,0,4,4,87,1,88,flüröslik,flüröslesz,NA,NA,Te bizony sokat flüröslesz.,Én is sokat...,flüröslök,flüröslöm,lakik,-lik,2,PR2057,2001,nő,nem,2022-04-14_15h31.23.031,hesp_baseline,2021.2.3,Win32,60.0132029
,,,,,,,,,,,,,,,,,spügzünk,spügözünk,left,7.2672,0,5,5,143,1,90,spügzik / spügözik,"spügzik, spügözni",ünk,NA,"János imád spügözni, ezért sokat spügzik.",Mi ritkán...,spügzünk,spügözünk,cselekszik,-zik,1,PR2057,2001,nő,nem,2022-04-14_15h31.23.031,hesp_baseline,2021.2.3,Win32,60.0132029
,,,,,,,,,,,,,,,,,pratelynek,pratelynak,left,38.8855,0,6,6,47,1,102,prately,prately,nak,e,Ez itt egy prately.,Elneveztem a kutyámat...,pratelynek,pratelynak,dzsungel,NA,NA,PR2057,2001,nő,nem,2022-04-14_15h31.23.031,hesp_baseline,2021.2.3,Win32,60.0132029
,,,,,,,,,,,,,,,,,branyoznak,branylanak,right,6.0859,0,7,7,136,1,83,branylik / branyozik,"branylik, branyozni",nek,NA,"János imád branyozni, ezért sokat branylik.",Ők ritkán...,branylanak,branyoznak,cselekszik,-lik,1,PR2057,2001,nő,nem,2022-04-14_15h31.23.031,hesp_baseline,2021.2.3,Win32,60.0132029
,,,,,,,,,,,,,,,,,spibegezünk,spibeglünk,right,9.7399,0,8,8,147,1,94,spibeglik / spibegezik,"spibeglik, spibegezni",ünk,NA,"János imád spibegezni, ezért sokat spibeglik.",Mi ritkán...,spibeglünk,spibegezünk,cselekszik,-lik,2,PR2057,2001,nő,nem,2022-04-14_15h31.23.031,hesp_baseline,2021.2.3,Win32,60.0132029
,,,,,,,,,,,,,,,,,szanéjnak,szanéjnek,left,20.7554,0,9,9,13,1,68,szanéj,szanéj,nak,é,Ez itt egy szanéj.,Elneveztem a kutyámat...,szanéjnek,szanéjnak,dzsungel,NA,NA,PR2057,2001,nő,nem,2022-04-14_15h31.23.031,hesp_baseline,2021.2.3,Win32,60.0132029
,,,,,,,,,,,,,,,,,spüjzöm,spüjzök,right,16.8003,0,10,10,59,1,60,spüjzik,spüjzöl,NA,NA,Te bizony sokat spüjzöl.,Én is sokat...,spüjzök,spüjzöm,lakik,-zik,1,PR2057,2001,nő,nem,2022-04-14_15h31.23.031,hesp_baseline,2021.2.3,Win32,60.0132029
,,,,,,,,,,,,,,,,,driládzom,driládzok,left,4.3204,0,11,11,67,1,68,driládzik,driládzol,NA,NA,Te bizony sokat driládzol.,Én is sokat...,driládzok,driládzom,lakik,-zik,2,PR2057,2001,nő,nem,2022-04-14_15h31.23.031,hesp_baseline,2021.2.3,Win32,60.0132029
,,,,,,,,,,,,,,,,,sprűröznek,sprűrlenek,right,5.7683,0,12,12,135,1,82,sprűrlik / sprűrözik,"sprűrlik, sprűrözni",nek,NA,"János imád sprűrözni, ezért sokat sprűrlik.",Ők ritkán...,sprűrlenek,sprűröznek,cselekszik,-lik,1,PR2057,2001,nő,nem,2022-04-14_15h31.23.031,hesp_baseline,2021.2.3,Win32,60.0132029
,,,,,,,,,,,,,,,,,mihágzotok,mihágoztok,right,6.6014,0,13,13,118,1,65,mihágzik / mihágozik,"mihágzik, mihágozni",tek,NA,"János imád mihágozni, ezért sokat mihágzik.",Ti ritkán...,mihágzotok,mihágoztok,cselekszik,-zik,2,PR2057,2001,nő,nem,2022-04-14_15h31.23.031,hesp_baseline,2021.2.3,Win32,60.0132029
,,,,,,,,,,,,,,,,,kátédnál,kátédnél,left,8.1009,0,14,14,37,1,92,kátéd,kátéd,nál,é,Ez itt egy kátéd.,Nincs is jobb egy jó...,kátédnél,kátédnál,dzsungel,NA,NA,PR2057,2001,nő,nem,2022-04-14_15h31.23.031,hesp_baseline,2021.2.3,Win32,60.0132029
,,,,,,,,,,,,,,,,,lorjódzom,lorjódzok,left,3.9842,0,15,15,88,1,89,lorjódzik,lorjódzol,NA,NA,Te bizony sokat lorjódzol.,Én is sokat...,lorjódzok,lorjódzom,lakik,-zik,2,PR2057,2001,nő,nem,2022-04-14_15h31.23.031,hesp_baseline,2021.2.3,Win32,60.0132029
,,,,,,,,,,,,,,,,,spülűdzöm,spülűdzök,left,8.8845,0,16,16,56,1,57,spülűdzik,spülűdzöl,NA,NA,Te bizony sokat spülűdzöl.,Én is sokat...,spülűdzök,spülűdzöm,lakik,-zik,2,PR2057,2001,nő,nem,2022-04-14_15h31.23.031,hesp_baseline,2021.2.3,Win32,60.0132029
,,,,,,,,,,,,,,,,,vorszennél,vorszennál,left,3.3894,0,17,17,30,1,85,vorszen,vorszen,nál,e,Ez itt egy vorszen.,Nincs is jobb egy jó...,vorszennél,vorszennál,dzsungel,NA,NA,PR2057,2001,nő,nem,2022-04-14_15h31.23.031,hesp_baseline,2021.2.3,Win32,60.0132029
,,,,,,,,,,,,,,,,,fröjzötök,fröjöztök,right,14.6557,0,18,18,153,1,100,fröjzik / fröjözik,"fröjzik, fröjözni",tek,NA,"János imád fröjözni, ezért sokat fröjzik.",Ti ritkán...,fröjzötök,fröjöztök,cselekszik,-zik,1,PR2057,2001,nő,nem,2022-04-14_15h31.23.031,hesp_baseline,2021.2.3,Win32,60.0132029
,,,,,,,,,,,,,,,,,ruslok,ruslom,left,8.3407,0,19,19,83,1,84,ruslik,ruslasz,NA,NA,Te bizony sokat ruslasz.,Én is sokat...,ruslok,ruslom,lakik,-lik,1,PR2057,2001,nő,nem,2022-04-14_15h31.23.031,hesp_baseline,2021.2.3,Win32,60.0132029
,,,,,,,,,,,,,,,,,töglenek,tögöznek,left,4.3336,0,20,20,156,1,103,töglik / tögözik,"töglik, tögözni",nek,NA,"János imád tögözni, ezért sokat töglik.",Ők ritkán...,töglenek,tögöznek,cselekszik,-lik,1,PR2057,2001,nő,nem,2022-04-14_15h31.23.031,hesp_baseline,2021.2.3,Win32,60.0132029
,,,,,,,,,,,,,,,,,ítensban,ítensben,right,7.9606,0,21,21,50,1,105,ítens,ítens,ban,e,Ez itt egy ítens.,Ott vagyunk a...,ítensben,ítensban,dzsungel,NA,NA,PR2057,2001,nő,nem,2022-04-14_15h31.23.031,hesp_baseline,2021.2.3,Win32,60.0132029
,,,,,,,,,,,,,,,,,bribékszetek,bribékedtek,right,7.7172,0,22,22,141,1,88,bribékszik / bribékedik,"bribékszik, bribékedni",tek,NA,"János imád bribékedni, ezért sokat bribékszik.",Ti ritkán...,bribékszetek,bribékedtek,cselekszik,-szik,2,PR2057,2001,nő,nem,2022-04-14_15h31.23.031,hesp_baseline,2021.2.3,Win32,60.0132029
,,,,,,,,,,,,,,,,,fröjözünk,fröjlünk,right,10.3505,0,23,23,117,1,64,fröjlik / fröjözik,"fröjlik, fröjözni",ünk,NA,"János imád fröjözni, ezért sokat fröjlik.",Mi ritkán...,fröjlünk,fröjözünk,cselekszik,-lik,1,PR2057,2001,nő,nem,2022-04-14_15h31.23.031,hesp_baseline,2021.2.3,Win32,60.0132029
,,,,,,,,,,,,,,,,,ronvetnek,ronvetnak,left,4.4069,0,24,24,9,1,64,ronvet,ronvet,nak,e,Ez itt egy ronvet.,Elneveztem a kutyámat...,ronvetnek,ronvetnak,dzsungel,NA,NA,PR2057,2001,nő,nem,2022-04-14_15h31.23.031,hesp_baseline,2021.2.3,Win32,60.0132029
,,,,,,,,,,,,,,,,,tumélynél,tumélynál,right,9.2035,0,25,25,28,1,83,tumély,tumély,nál,é,Ez itt egy tumély.,Nincs is jobb egy jó...,tumélynél,tumélynál,dzsungel,NA,NA,PR2057,2001,nő,nem,2022-04-14_15h31.23.031,hesp_baseline,2021.2.3,Win32,60.0132029
,,,,,,,,,,,,,,,,,metégednek,metégszenek,left,7.0918,0,26,26,112,1,59,metégszik / metégedik,"metégszik, metégedni",nek,NA,"János imád metégedni, ezért sokat metégszik.",Ők ritkán...,metégszenek,metégednek,cselekszik,-szik,2,PR2057,2001,nő,nem,2022-04-14_15h31.23.031,hesp_baseline,2021.2.3,Win32,60.0132029
,,,,,,,,,,,,,,,,,spöklünk,spöközünk,left,3.8051,0,27,27,130,1,77,spöklik / spöközik,"spöklik, spöközni",ünk,NA,"János imád spöközni, ezért sokat spöklik.",Mi ritkán...,spöklünk,spöközünk,cselekszik,-lik,1,PR2057,2001,nő,nem,2022-04-14_15h31.23.031,hesp_baseline,2021.2.3,Win32,60.0132029
,,,,,,,,,,,,,,,,,sprízemnél,sprízemnál,left,2.5508,0,28,28,22,1,77,sprízem,sprízem,nál,e,Ez itt egy sprízem.,Nincs is jobb egy jó...,sprízemnél,sprízemnál,dzsungel,NA,NA,PR2057,2001,nő,nem,2022-04-14_15h31.23.031,hesp_baseline,2021.2.3,Win32,60.0132029
,,,,,,,,,,,,,,,,,floglom,floglok,right,19.6382,0,29,29,92,1,93,floglik,floglasz,NA,NA,Te bizony sokat floglasz.,Én is sokat...,floglok,floglom,lakik,-lik,1,PR2057,2001,nő,nem,2022-04-14_15h31.23.031,hesp_baseline,2021.2.3,Win32,60.0132029
,,,,,,,,,,,,,,,,,fájézben,fájézban,right,7.3503,0,30,30,7,1,62,fájéz,fájéz,ban,é,Ez itt egy fájéz.,Ott vagyunk a...,fájézben,fájézban,dzsungel,NA,NA,PR2057,2001,nő,nem,2022-04-14_15h31.23.031,hesp_baseline,2021.2.3,Win32,60.0132029
,,,,,,,,,,,,,,,,,dárakszunk,dárakodunk,right,8.5741,0,31,31,126,1,73,dárakszik / dárakodik,"dárakszik, dárakodni",ünk,NA,"János imád dárakodni, ezért sokat dárakszik.",Mi ritkán...,dárakszunk,dárakodunk,cselekszik,-szik,2,PR2057,2001,nő,nem,2022-04-14_15h31.23.031,hesp_baseline,2021.2.3,Win32,60.0132029
,,,,,,,,,,,,,,,,,míjzunk,míjozunk,left,5.539,0,32,32,114,1,61,míjzik / míjozik,"míjzik, míjozni",ünk,NA,"János imád míjozni, ezért sokat míjzik.",Mi ritkán...,míjzunk,míjozunk,cselekszik,-zik,1,PR2057,2001,nő,nem,2022-04-14_15h31.23.031,hesp_baseline,2021.2.3,Win32,60.0132029
,,,,,,,,,,,,,,,,,flibekszem,flibekszek,left,6.8672,0,33,33,93,1,94,flibekszik,flibekszel,NA,NA,Te bizony sokat flibekszel.,Én is sokat...,flibekszek,flibekszem,lakik,-szik,2,PR2057,2001,nő,nem,2022-04-14_15h31.23.031,hesp_baseline,2021.2.3,Win32,60.0132029
,,,,,,,,,,,,,,,,,sprebzenek,sprebeznek,right,5.5397,0,34,34,139,1,86,sprebzik / sprebezik,"sprebzik, sprebezni",nek,NA,"János imád sprebezni, ezért sokat sprebzik.",Ők ritkán...,sprebzenek,sprebeznek,cselekszik,-zik,1,PR2057,2001,nő,nem,2022-04-14_15h31.23.031,hesp_baseline,2021.2.3,Win32,60.0132029
,,,,,,,,,,,,,,,,,ribzok,ribzom,left,6.3002,0,35,35,58,1,59,ribzik,ribzol,NA,NA,Te bizony sokat ribzol.,Én is sokat...,ribzok,ribzom,lakik,-zik,1,PR2057,2001,nő,nem,2022-04-14_15h31.23.031,hesp_baseline,2021.2.3,Win32,60.0132029
,,,,,,,,,,,,,,,,,drojzunk,drojozunk,left,4.2344,0,36,36,140,1,87,drojzik / drojozik,"drojzik, drojozni",ünk,NA,"János imád drojozni, ezért sokat drojzik.",Mi ritkán...,drojzunk,drojozunk,cselekszik,-zik,1,PR2057,2001,nő,nem,2022-04-14_15h31.23.031,hesp_baseline,2021.2.3,Win32,60.0132029
,,,,,,,,,,,,,,,,,sponyoznak,sponylanak,right,10.9336,0,37,37,125,1,72,sponylik / sponyozik,"sponylik, sponyozni",nek,NA,"János imád sponyozni, ezért sokat sponylik.",Ők ritkán...,sponylanak,sponyoznak,cselekszik,-lik,1,PR2057,2001,nő,nem,2022-04-14_15h31.23.031,hesp_baseline,2021.2.3,Win32,60.0132029
,,,,,,,,,,,,,,,,,plugzok,plugzom,right,7.8362,0,38,38,60,1,61,plugzik,plugzol,NA,NA,Te bizony sokat plugzol.,Én is sokat...,plugzok,plugzom,lakik,-zik,1,PR2057,2001,nő,nem,2022-04-14_15h31.23.031,hesp_baseline,2021.2.3,Win32,60.0132029
,,,,,,,,,,,,,,,,,fligzom,fligzok,left,5.0565,0,39,39,103,1,104,fligzik,fligzol,NA,NA,Te bizony sokat fligzol.,Én is sokat...,fligzok,fligzom,lakik,-zik,1,PR2057,2001,nő,nem,2022-04-14_15h31.23.031,hesp_baseline,2021.2.3,Win32,60.0132029
,,,,,,,,,,,,,,,,,péleslem,péleslek,right,5.3595,0,40,40,73,1,74,péleslik,péleslesz,NA,NA,Te bizony sokat péleslesz.,Én is sokat...,péleslek,péleslem,lakik,-lik,2,PR2057,2001,nő,nem,2022-04-14_15h31.23.031,hesp_baseline,2021.2.3,Win32,60.0132029
,,,,,,,,,,,,,,,,,jonylom,jonylok,right,4.105,0,41,41,55,1,56,jonylik,jonylasz,NA,NA,Te bizony sokat jonylasz.,Én is sokat...,jonylok,jonylom,lakik,-lik,1,PR2057,2001,nő,nem,2022-04-14_15h31.23.031,hesp_baseline,2021.2.3,Win32,60.0132029
,,,,,,,,,,,,,,,,,szirlok,szirlom,left,10.8006,0,42,42,62,1,63,szirlik,szirlasz,NA,NA,Te bizony sokat szirlasz.,Én is sokat...,szirlok,szirlom,lakik,-lik,1,PR2057,2001,nő,nem,2022-04-14_15h31.23.031,hesp_baseline,2021.2.3,Win32,60.0132029
,,,,,,,,,,,,,,,,,lijeznak,lijeznek,right,3.1839,0,43,43,40,1,95,lijez,lijez,nak,e,Ez itt egy lijez.,Elneveztem a kutyámat...,lijeznek,lijeznak,dzsungel,NA,NA,PR2057,2001,nő,nem,2022-04-14_15h31.23.031,hesp_baseline,2021.2.3,Win32,60.0132029
,,,,,,,,,,,,,,,,,tiregzek,tiregzem,left,16.8559,0,44,44,64,1,65,tiregzik,tiregzel,NA,NA,Te bizony sokat tiregzel.,Én is sokat...,tiregzek,tiregzem,lakik,-zik,2,PR2057,2001,nő,nem,2022-04-14_15h31.23.031,hesp_baseline,2021.2.3,Win32,60.0132029
,,,,,,,,,,,,,,,,,prohódzom,prohódzok,right,7.0007,0,45,45,66,1,67,prohódzik,prohódzol,NA,NA,Te bizony sokat prohódzol.,Én is sokat...,prohódzok,prohódzom,lakik,-zik,2,PR2057,2001,nő,nem,2022-04-14_15h31.23.031,hesp_baseline,2021.2.3,Win32,60.0132029
,,,,,,,,,,,,,,,,,lingéknál,lingéknél,right,9.7192,0,46,46,32,1,87,lingék,lingék,nál,é,Ez itt egy lingék.,Nincs is jobb egy jó...,lingéknél,lingéknál,dzsungel,NA,NA,PR2057,2001,nő,nem,2022-04-14_15h31.23.031,hesp_baseline,2021.2.3,Win32,60.0132029
,,,,,,,,,,,,,,,,,ribegzek,ribegzem,right,14.9187,0,47,47,63,1,64,ribegzik,ribegzel,NA,NA,Te bizony sokat ribegzel.,Én is sokat...,ribegzek,ribegzem,lakik,-zik,2,PR2057,2001,nő,nem,2022-04-14_15h31.23.031,hesp_baseline,2021.2.3,Win32,60.0132029
,,,,,,,,,,,,,,,,,ikszertban,ikszertben,right,5.3523,0,48,48,19,1,74,ikszert,ikszert,ban,e,Ez itt egy ikszert.,Ott vagyunk a...,ikszertben,ikszertban,dzsungel,NA,NA,PR2057,2001,nő,nem,2022-04-14_15h31.23.031,hesp_baseline,2021.2.3,Win32,60.0132029
,,,,,,,,,,,,,,,,,tosélyben,tosélyban,right,3.5735,0,49,49,25,1,80,tosély,tosély,ban,é,Ez itt egy tosély.,Ott vagyunk a...,tosélyben,tosélyban,dzsungel,NA,NA,PR2057,2001,nő,nem,2022-04-14_15h31.23.031,hesp_baseline,2021.2.3,Win32,60.0132029
,,,,,,,,,,,,,,,,,nidétban,nidétben,right,2.851,0,50,50,39,1,94,nidét,nidét,ban,é,Ez itt egy nidét.,Ott vagyunk a...,nidétben,nidétban,dzsungel,NA,NA,PR2057,2001,nő,nem,2022-04-14_15h31.23.031,hesp_baseline,2021.2.3,Win32,60.0132029
,,,,,,,,,,,,,,,,,posoztok,poslotok,right,4.2842,0,51,51,121,1,68,poslik / posozik,"poslik, posozni",tek,NA,"János imád posozni, ezért sokat poslik.",Ti ritkán...,poslotok,posoztok,cselekszik,-lik,1,PR2057,2001,nő,nem,2022-04-14_15h31.23.031,hesp_baseline,2021.2.3,Win32,60.0132029
,,,,,,,,,,,,,,,,,livénylünk,livényezünk,left,4.8685,0,52,52,128,1,75,livénylik / livényezik,"livénylik, livényezni",ünk,NA,"János imád livényezni, ezért sokat livénylik.",Mi ritkán...,livénylünk,livényezünk,cselekszik,-lik,2,PR2057,2001,nő,nem,2022-04-14_15h31.23.031,hesp_baseline,2021.2.3,Win32,60.0132029
,,,,,,,,,,,,,,,,,friszlom,friszlok,right,4.8672,0,53,53,97,1,98,friszlik,friszlasz,NA,NA,Te bizony sokat friszlasz.,Én is sokat...,friszlok,friszlom,lakik,-lik,1,PR2057,2001,nő,nem,2022-04-14_15h31.23.031,hesp_baseline,2021.2.3,Win32,60.0132029
,,,,,,,,,,,,,,,,,tribejletek,tribejeztek,right,15.5883,0,54,54,132,1,79,tribejlik / tribejezik,"tribejlik, tribejezni",tek,NA,"János imád tribejezni, ezért sokat tribejlik.",Ti ritkán...,tribejletek,tribejeztek,cselekszik,-lik,2,PR2057,2001,nő,nem,2022-04-14_15h31.23.031,hesp_baseline,2021.2.3,Win32,60.0132029
,,,,,,,,,,,,,,,,,spiharzotok,spiharoztok,right,6.5005,0,55,55,127,1,74,spiharzik / spiharozik,"spiharzik, spiharozni",tek,NA,"János imád spiharozni, ezért sokat spiharzik.",Ti ritkán...,spiharzotok,spiharoztok,cselekszik,-zik,2,PR2057,2001,nő,nem,2022-04-14_15h31.23.031,hesp_baseline,2021.2.3,Win32,60.0132029
,,,,,,,,,,,,,,,,,juszlok,juszlom,left,8.8929,0,56,56,79,1,80,juszlik,juszlasz,NA,NA,Te bizony sokat juszlasz.,Én is sokat...,juszlok,juszlom,lakik,-lik,1,PR2057,2001,nő,nem,2022-04-14_15h31.23.031,hesp_baseline,2021.2.3,Win32,60.0132029
,,,,,,,,,,,,,,,,,pribemlem,pribemlek,left,8.7508,0,57,57,107,1,108,pribemlik,pribemlesz,NA,NA,Te bizony sokat pribemlesz.,Én is sokat...,pribemlek,pribemlem,lakik,-lik,2,PR2057,2001,nő,nem,2022-04-14_15h31.23.031,hesp_baseline,2021.2.3,Win32,60.0132029
,,,,,,,,,,,,,,,,,frodlok,frodlom,left,3.501,0,58,58,61,1,62,frodlik,frodlasz,NA,NA,Te bizony sokat frodlasz.,Én is sokat...,frodlok,frodlom,lakik,-lik,1,PR2057,2001,nő,nem,2022-04-14_15h31.23.031,hesp_baseline,2021.2.3,Win32,60.0132029
,,,,,,,,,,,,,,,,,nyábétben,nyábétban,right,4.8704,0,59,59,21,1,76,nyábét,nyábét,ban,é,Ez itt egy nyábét.,Ott vagyunk a...,nyábétben,nyábétban,dzsungel,NA,NA,PR2057,2001,nő,nem,2022-04-14_15h31.23.031,hesp_baseline,2021.2.3,Win32,60.0132029
,,,,,,,,,,,,,,,,,frálaslanak,frálasoznak,left,6.5361,0,60,60,110,1,57,frálaslik / frálasozik,"frálaslik, frálasozni",nek,NA,"János imád frálasozni, ezért sokat frálaslik.",Ők ritkán...,frálaslanak,frálasoznak,cselekszik,-lik,2,PR2057,2001,nő,nem,2022-04-14_15h31.23.031,hesp_baseline,2021.2.3,Win32,60.0132029
,,,,,,,,,,,,,,,,,flehékszek,flehékszem,right,10.0509,0,61,61,77,1,78,flehékszik,flehékszel,NA,NA,Te bizony sokat flehékszel.,Én is sokat...,flehékszek,flehékszem,lakik,-szik,2,PR2057,2001,nő,nem,2022-04-14_15h31.23.031,hesp_baseline,2021.2.3,Win32,60.0132029
,,,,,,,,,,,,,,,,,csintékben,csintékban,left,6.5839,0,62,62,23,1,78,csinték,csinték,ban,é,Ez itt egy csinték.,Ott vagyunk a...,csintékben,csintékban,dzsungel,NA,NA,PR2057,2001,nő,nem,2022-04-14_15h31.23.031,hesp_baseline,2021.2.3,Win32,60.0132029
,,,,,,,,,,,,,,,,,spivélnak,spivélnek,right,4.2343,0,63,63,27,1,82,spivél,spivél,nak,é,Ez itt egy spivél.,Elneveztem a kutyámat...,spivélnek,spivélnak,dzsungel,NA,NA,PR2057,2001,nő,nem,2022-04-14_15h31.23.031,hesp_baseline,2021.2.3,Win32,60.0132029
,,,,,,,,,,,,,,,,,klazérben,klazérban,right,2.7847,0,64,64,51,1,106,klazér,klazér,ban,é,Ez itt egy klazér.,Ott vagyunk a...,klazérben,klazérban,dzsungel,NA,NA,PR2057,2001,nő,nem,2022-04-14_15h31.23.031,hesp_baseline,2021.2.3,Win32,60.0132029
,,,,,,,,,,,,,,,,,csubozunk,csubzunk,right,4.3843,0,65,65,111,1,58,csubzik / csubozik,"csubzik, csubozni",ünk,NA,"János imád csubozni, ezért sokat csubzik.",Mi ritkán...,csubzunk,csubozunk,cselekszik,-zik,1,PR2057,2001,nő,nem,2022-04-14_15h31.23.031,hesp_baseline,2021.2.3,Win32,60.0132029
,,,,,,,,,,,,,,,,,zutennál,zutennél,right,18.7168,0,66,66,43,1,98,zuten,zuten,nál,e,Ez itt egy zuten.,Nincs is jobb egy jó...,zutennél,zutennál,dzsungel,NA,NA,PR2057,2001,nő,nem,2022-04-14_15h31.23.031,hesp_baseline,2021.2.3,Win32,60.0132029
,,,,,,,,,,,,,,,,,fréslünk,frésezünk,left,6.2014,0,67,67,138,1,85,fréslik / frésezik,"fréslik, frésezni",ünk,NA,"János imád frésezni, ezért sokat fréslik.",Mi ritkán...,fréslünk,frésezünk,cselekszik,-lik,1,PR2057,2001,nő,nem,2022-04-14_15h31.23.031,hesp_baseline,2021.2.3,Win32,60.0132029
,,,,,,,,,,,,,,,,,klajrénnak,klajrénnek,left,10.5086,0,68,68,41,1,96,klajrén,klajrén,nak,é,Ez itt egy klajrén.,Elneveztem a kutyámat...,klajrénnek,klajrénnak,dzsungel,NA,NA,PR2057,2001,nő,nem,2022-04-14_15h31.23.031,hesp_baseline,2021.2.3,Win32,60.0132029
,,,,,,,,,,,,,,,,,garcépnél,garcépnál,right,3.6422,0,69,69,38,1,93,garcép,garcép,nál,é,Ez itt egy garcép.,Nincs is jobb egy jó...,garcépnél,garcépnál,dzsungel,NA,NA,PR2057,2001,nő,nem,2022-04-14_15h31.23.031,hesp_baseline,2021.2.3,Win32,60.0132029
,,,,,,,,,,,,,,,,,fivénylem,fivénylek,right,6.3413,0,70,70,78,1,79,fivénylik,fivénylesz,NA,NA,Te bizony sokat fivénylesz.,Én is sokat...,fivénylek,fivénylem,lakik,-lik,2,PR2057,2001,nő,nem,2022-04-14_15h31.23.031,hesp_baseline,2021.2.3,Win32,60.0132029
,,,,,,,,,,,,,,,,,molszotok,molodtok,left,6.2007,0,71,71,142,1,89,molszik / molodik,"molszik, molodni",tek,NA,"János imád molodni, ezért sokat molszik.",Ti ritkán...,molszotok,molodtok,cselekszik,-szik,1,PR2057,2001,nő,nem,2022-04-14_15h31.23.031,hesp_baseline,2021.2.3,Win32,60.0132029
,,,,,,,,,,,,,,,,,zsigénnél,zsigénnál,left,2.6868,0,72,72,12,1,67,zsigén,zsigén,nál,é,Ez itt egy zsigén.,Nincs is jobb egy jó...,zsigénnél,zsigénnál,dzsungel,NA,NA,PR2057,2001,nő,nem,2022-04-14_15h31.23.031,hesp_baseline,2021.2.3,Win32,60.0132029
,,,,,,,,,,,,,,,,,sporzemnek,sporzemnak,left,3.868,0,73,73,26,1,81,sporzem,sporzem,nak,e,Ez itt egy sporzem.,Elneveztem a kutyámat...,sporzemnek,sporzemnak,dzsungel,NA,NA,PR2057,2001,nő,nem,2022-04-14_15h31.23.031,hesp_baseline,2021.2.3,Win32,60.0132029
,,,,,,,,,,,,,,,,,líroznak,lírlanak,right,5.9392,0,74,74,115,1,62,lírlik / lírozik,"lírlik, lírozni",nek,NA,"János imád lírozni, ezért sokat lírlik.",Ők ritkán...,lírlanak,líroznak,cselekszik,-lik,1,PR2057,2001,nő,nem,2022-04-14_15h31.23.031,hesp_baseline,2021.2.3,Win32,60.0132029
,,,,,,,,,,,,,,,,,prilepedünk,prilepszünk,right,5.5008,0,75,75,161,1,108,prilepszik / prilepedik,"prilepszik, prilepedni",ünk,NA,"János imád prilepedni, ezért sokat prilepszik.",Mi ritkán...,prilepszünk,prilepedünk,cselekszik,-szik,2,PR2057,2001,nő,nem,2022-04-14_15h31.23.031,hesp_baseline,2021.2.3,Win32,60.0132029
,,,,,,,,,,,,,,,,,flűgözünk,flűgzünk,left,10.8883,0,76,76,160,1,107,flűgzik / flűgözik,"flűgzik, flűgözni",ünk,NA,"János imád flűgözni, ezért sokat flűgzik.",Mi ritkán...,flűgzünk,flűgözünk,cselekszik,-zik,1,PR2057,2001,nő,nem,2022-04-14_15h31.23.031,hesp_baseline,2021.2.3,Win32,60.0132029
,,,,,,,,,,,,,,,,,flagánylok,flagánylom,left,9.3839,0,77,77,82,1,83,flagánylik,flagánylasz,NA,NA,Te bizony sokat flagánylasz.,Én is sokat...,flagánylok,flagánylom,lakik,-lik,2,PR2057,2001,nő,nem,2022-04-14_15h31.23.031,hesp_baseline,2021.2.3,Win32,60.0132029
,,,,,,,,,,,,,,,,,femlem,femlek,right,2.8097,0,78,78,57,1,58,femlik,femlesz,NA,NA,Te bizony sokat femlesz.,Én is sokat...,femlek,femlem,lakik,-lik,1,PR2057,2001,nő,nem,2022-04-14_15h31.23.031,hesp_baseline,2021.2.3,Win32,60.0132029
,,,,,,,,,,,,,,,,,gyihegeztek,gyihegzetek,right,23.0498,0,79,79,124,1,71,gyihegzik / gyihegezik,"gyihegzik, gyihegezni",tek,NA,"János imád gyihegezni, ezért sokat gyihegzik.",Ti ritkán...,gyihegzetek,gyihegeztek,cselekszik,-zik,2,PR2057,2001,nő,nem,2022-04-14_15h31.23.031,hesp_baseline,2021.2.3,Win32,60.0132029
,,,,,,,,,,,,,,,,,pítendben,pítendban,left,5.2726,0,80,80,18,1,73,pítend,pítend,ban,e,Ez itt egy pítend.,Ott vagyunk a...,pítendben,pítendban,dzsungel,NA,NA,PR2057,2001,nő,nem,2022-04-14_15h31.23.031,hesp_baseline,2021.2.3,Win32,60.0132029
,,,,,,,,,,,,,,,,,júdernek,júdernak,right,13.9737,0,81,81,53,1,108,júder,júder,nak,e,Ez itt egy júder.,Elneveztem a kutyámat...,júdernek,júdernak,dzsungel,NA,NA,PR2057,2001,nő,nem,2022-04-14_15h31.23.031,hesp_baseline,2021.2.3,Win32,60.0132029
,,,,,,,,,,,,,,,,,játozunk,játlunk,left,14.9352,0,82,82,145,1,92,játlik / játozik,"játlik, játozni",ünk,NA,"János imád játozni, ezért sokat játlik.",Mi ritkán...,játlunk,játozunk,cselekszik,-lik,1,PR2057,2001,nő,nem,2022-04-14_15h31.23.031,hesp_baseline,2021.2.3,Win32,60.0132029
,,,,,,,,,,,,,,,,,hubonyoztok,hubonylotok,left,6.0576,0,83,83,157,1,104,hubonylik / hubonyozik,"hubonylik, hubonyozni",tek,NA,"János imád hubonyozni, ezért sokat hubonylik.",Ti ritkán...,hubonylotok,hubonyoztok,cselekszik,-lik,2,PR2057,2001,nő,nem,2022-04-14_15h31.23.031,hesp_baseline,2021.2.3,Win32,60.0132029
,,,,,,,,,,,,,,,,,brágédnek,brágédnak,right,16.567,0,84,84,45,1,100,brágéd,brágéd,nak,é,Ez itt egy brágéd.,Elneveztem a kutyámat...,brágédnek,brágédnak,dzsungel,NA,NA,PR2057,2001,nő,nem,2022-04-14_15h31.23.031,hesp_baseline,2021.2.3,Win32,60.0132029
,,,,,,,,,,,,,,,,,trugzanak,trugoznak,left,4.2509,0,85,85,146,1,93,trugzik / trugozik,"trugzik, trugozni",nek,NA,"János imád trugozni, ezért sokat trugzik.",Ők ritkán...,trugzanak,trugoznak,cselekszik,-zik,1,PR2057,2001,nő,nem,2022-04-14_15h31.23.031,hesp_baseline,2021.2.3,Win32,60.0132029
,,,,,,,,,,,,,,,,,flézeztek,flézletek,left,4.8915,0,86,86,134,1,81,flézlik / flézezik,"flézlik, flézezni",tek,NA,"János imád flézezni, ezért sokat flézlik.",Ti ritkán...,flézletek,flézeztek,cselekszik,-lik,1,PR2057,2001,nő,nem,2022-04-14_15h31.23.031,hesp_baseline,2021.2.3,Win32,60.0132029
,,,,,,,,,,,,,,,,,spihegzem,spihegzek,left,3.2095,0,87,87,81,1,82,spihegzik,spihegzel,NA,NA,Te bizony sokat spihegzel.,Én is sokat...,spihegzek,spihegzem,lakik,-zik,2,PR2057,2001,nő,nem,2022-04-14_15h31.23.031,hesp_baseline,2021.2.3,Win32,60.0132029
,,,,,,,,,,,,,,,,,jóbecnak,jóbecnek,right,2.9007,0,88,88,11,1,66,jóbec,jóbec,nak,e,Ez itt egy jóbec.,Elneveztem a kutyámat...,jóbecnek,jóbecnak,dzsungel,NA,NA,PR2057,2001,nő,nem,2022-04-14_15h31.23.031,hesp_baseline,2021.2.3,Win32,60.0132029
,,,,,,,,,,,,,,,,,klidlok,klidlom,right,3.373,0,89,89,72,1,73,klidlik,klidlasz,NA,NA,Te bizony sokat klidlasz.,Én is sokat...,klidlok,klidlom,lakik,-lik,1,PR2057,2001,nő,nem,2022-04-14_15h31.23.031,hesp_baseline,2021.2.3,Win32,60.0132029
,,,,,,,,,,,,,,,,,prihekszek,prihekszem,right,3.3014,0,90,90,100,1,101,prihekszik,prihekszel,NA,NA,Te bizony sokat prihekszel.,Én is sokat...,prihekszek,prihekszem,lakik,-szik,2,PR2057,2001,nő,nem,2022-04-14_15h31.23.031,hesp_baseline,2021.2.3,Win32,60.0132029
,,,,,,,,,,,,,,,,,spátennek,spátennak,left,13.5049,0,91,91,33,1,88,spáten,spáten,nak,e,Ez itt egy spáten.,Elneveztem a kutyámat...,spátennek,spátennak,dzsungel,NA,NA,PR2057,2001,nő,nem,2022-04-14_15h31.23.031,hesp_baseline,2021.2.3,Win32,60.0132029
,,,,,,,,,,,,,,,,,gihamoznak,gihamlanak,right,5.251,0,92,92,133,1,80,gihamlik / gihamozik,"gihamlik, gihamozni",nek,NA,"János imád gihamozni, ezért sokat gihamlik.",Ők ritkán...,gihamlanak,gihamoznak,cselekszik,-lik,2,PR2057,2001,nő,nem,2022-04-14_15h31.23.031,hesp_baseline,2021.2.3,Win32,60.0132029
,,,,,,,,,,,,,,,,,kluhéjnál,kluhéjnél,right,4.2372,0,93,93,24,1,79,kluhéj,kluhéj,nál,é,Ez itt egy kluhéj.,Nincs is jobb egy jó...,kluhéjnél,kluhéjnál,dzsungel,NA,NA,PR2057,2001,nő,nem,2022-04-14_15h31.23.031,hesp_baseline,2021.2.3,Win32,60.0132029
,,,,,,,,,,,,,,,,,pivegszek,pivegszem,right,10.1589,0,94,94,99,1,100,pivegszik,pivegszel,NA,NA,Te bizony sokat pivegszel.,Én is sokat...,pivegszek,pivegszem,lakik,-szik,2,PR2057,2001,nő,nem,2022-04-14_15h31.23.031,hesp_baseline,2021.2.3,Win32,60.0132029
,,,,,,,,,,,,,,,,,flűmlök,flűmlöm,left,6.1205,0,95,95,54,1,55,flűmlik,flűmlesz,NA,NA,Te bizony sokat flűmlesz.,Én is sokat...,flűmlök,flűmlöm,lakik,-lik,1,PR2057,2001,nő,nem,2022-04-14_15h31.23.031,hesp_baseline,2021.2.3,Win32,60.0132029
,,,,,,,,,,,,,,,,,szűslöm,szűslök,right,8.954,0,96,96,85,1,86,szűslik,szűslesz,NA,NA,Te bizony sokat szűslesz.,Én is sokat...,szűslök,szűslöm,lakik,-lik,1,PR2057,2001,nő,nem,2022-04-14_15h31.23.031,hesp_baseline,2021.2.3,Win32,60.0132029
,,,,,,,,,,,,,,,,,bingéjnek,bingéjnak,left,6.6544,0,97,97,49,1,104,bingéj,bingéj,nak,é,Ez itt egy bingéj.,Elneveztem a kutyámat...,bingéjnek,bingéjnak,dzsungel,NA,NA,PR2057,2001,nő,nem,2022-04-14_15h31.23.031,hesp_baseline,2021.2.3,Win32,60.0132029
,,,,,,,,,,,,,,,,,brágaklok,brágaklom,right,4.3676,0,98,98,71,1,72,brágaklik,brágaklasz,NA,NA,Te bizony sokat brágaklasz.,Én is sokat...,brágaklok,brágaklom,lakik,-lik,2,PR2057,2001,nő,nem,2022-04-14_15h31.23.031,hesp_baseline,2021.2.3,Win32,60.0132029
,,,,,,,,,,,,,,,,,spizecnak,spizecnek,right,4.6508,0,99,99,6,1,61,spizec,spizec,nak,e,Ez itt egy spizec.,Elneveztem a kutyámat...,spizecnek,spizecnak,dzsungel,NA,NA,PR2057,2001,nő,nem,2022-04-14_15h31.23.031,hesp_baseline,2021.2.3,Win32,60.0132029
,,,,,,,,,,,,,,,,,flitlok,flitlom,left,3.684,0,100,100,90,1,91,flitlik,flitlasz,NA,NA,Te bizony sokat flitlasz.,Én is sokat...,flitlok,flitlom,lakik,-lik,1,PR2057,2001,nő,nem,2022-04-14_15h31.23.031,hesp_baseline,2021.2.3,Win32,60.0132029
,,,,,,,,,,,,,,,,,gilárzom,gilárzok,left,11.9551,0,101,101,94,1,95,gilárzik,gilárzol,NA,NA,Te bizony sokat gilárzol.,Én is sokat...,gilárzok,gilárzom,lakik,-zik,2,PR2057,2001,nő,nem,2022-04-14_15h31.23.031,hesp_baseline,2021.2.3,Win32,60.0132029
,,,,,,,,,,,,,,,,,spubonylok,spubonylom,left,5.151,0,102,102,104,1,105,spubonylik,spubonylasz,NA,NA,Te bizony sokat spubonylasz.,Én is sokat...,spubonylok,spubonylom,lakik,-lik,2,PR2057,2001,nő,nem,2022-04-14_15h31.23.031,hesp_baseline,2021.2.3,Win32,60.0132029
,,,,,,,,,,,,,,,,,fojlegynek,fojlegynak,left,6.3671,0,103,103,3,1,58,fojlegy,fojlegy,nak,e,Ez itt egy fojlegy.,Elneveztem a kutyámat...,fojlegynek,fojlegynak,dzsungel,NA,NA,PR2057,2001,nő,nem,2022-04-14_15h31.23.031,hesp_baseline,2021.2.3,Win32,60.0132029
,,,,,,,,,,,,,,,,,daboztok,dabzotok,right,4.5179,0,104,104,109,1,56,dabzik / dabozik,"dabzik, dabozni",tek,NA,"János imád dabozni, ezért sokat dabzik.",Ti ritkán...,dabzotok,daboztok,cselekszik,-zik,1,PR2057,2001,nő,nem,2022-04-14_15h31.23.031,hesp_baseline,2021.2.3,Win32,60.0132029
,,,,,,,,,,,,,,,,,nűröklöm,nűröklök,left,6.2506,0,105,105,106,1,107,nűröklik,nűröklesz,NA,NA,Te bizony sokat nűröklesz.,Én is sokat...,nűröklök,nűröklöm,lakik,-lik,2,PR2057,2001,nő,nem,2022-04-14_15h31.23.031,hesp_baseline,2021.2.3,Win32,60.0132029
,,,,,,,,,,,,,,,,,klingeszban,klingeszben,right,4.1436,0,106,106,1,1,56,klingesz,klingesz,ban,e,Ez itt egy klingesz.,Ott vagyunk a...,klingeszben,klingeszban,dzsungel,NA,NA,PR2057,2001,nő,nem,2022-04-14_15h31.23.031,hesp_baseline,2021.2.3,Win32,60.0132029
,,,,,,,,,,,,,,,,,dihelynak,dihelynek,right,2.5716,0,107,107,20,1,75,dihely,dihely,nak,e,Ez itt egy dihely.,Elneveztem a kutyámat...,dihelynek,dihelynak,dzsungel,NA,NA,PR2057,2001,nő,nem,2022-04-14_15h31.23.031,hesp_baseline,2021.2.3,Win32,60.0132029
,,,,,,,,,,,,,,,,,spáraklom,spáraklok,left,4.5359,0,108,108,96,1,97,spáraklik,spáraklasz,NA,NA,Te bizony sokat spáraklasz.,Én is sokat...,spáraklok,spáraklom,lakik,-lik,2,PR2057,2001,nő,nem,2022-04-14_15h31.23.031,hesp_baseline,2021.2.3,Win32,60.0132029
,,,,,,,,,,,,,,,,,klűmöztök,klűmlötök,right,7.2869,0,109,109,108,1,55,klűmlik / klűmözik,"klűmlik, klűmözni",tek,NA,"János imád klűmözni, ezért sokat klűmlik.",Ti ritkán...,klűmlötök,klűmöztök,cselekszik,-lik,1,PR2057,2001,nő,nem,2022-04-14_15h31.23.031,hesp_baseline,2021.2.3,Win32,60.0132029
,,,,,,,,,,,,,,,,,flátszok,flátszom,right,4.3049,0,110,110,98,1,99,flátszik,flátszol,NA,NA,Te bizony sokat flátszol.,Én is sokat...,flátszok,flátszom,lakik,-szik,1,PR2057,2001,nő,nem,2022-04-14_15h31.23.031,hesp_baseline,2021.2.3,Win32,60.0132029
,,,,,,,,,,,,,,,,,sprogzok,sprogzom,right,4.3575,0,111,111,89,1,90,sprogzik,sprogzol,NA,NA,Te bizony sokat sprogzol.,Én is sokat...,sprogzok,sprogzom,lakik,-zik,1,PR2057,2001,nő,nem,2022-04-14_15h31.23.031,hesp_baseline,2021.2.3,Win32,60.0132029
,,,,,,,,,,,,,,,,,dóbemnak,dóbemnek,right,4.2567,0,112,112,48,1,103,dóbem,dóbem,nak,e,Ez itt egy dóbem.,Elneveztem a kutyámat...,dóbemnek,dóbemnak,dzsungel,NA,NA,PR2057,2001,nő,nem,2022-04-14_15h31.23.031,hesp_baseline,2021.2.3,Win32,60.0132029
,,,,,,,,,,,,,,,,,huroslom,huroslok,right,4.3176,0,113,113,76,1,77,huroslik,huroslasz,NA,NA,Te bizony sokat huroslasz.,Én is sokat...,huroslok,huroslom,lakik,-lik,2,PR2057,2001,nő,nem,2022-04-14_15h31.23.031,hesp_baseline,2021.2.3,Win32,60.0132029
,,,,,,,,,,,,,,,,,jábézban,jábézben,right,15.4005,0,114,114,34,1,89,jábéz,jábéz,ban,é,Ez itt egy jábéz.,Ott vagyunk a...,jábézben,jábézban,dzsungel,NA,NA,PR2057,2001,nő,nem,2022-04-14_15h31.23.031,hesp_baseline,2021.2.3,Win32,60.0132029
,,,,,,,,,,,,,,,,,brivegzem,brivegzek,left,6.8169,0,115,115,70,1,71,brivegzik,brivegzel,NA,NA,Te bizony sokat brivegzel.,Én is sokat...,brivegzek,brivegzem,lakik,-zik,2,PR2057,2001,nő,nem,2022-04-14_15h31.23.031,hesp_baseline,2021.2.3,Win32,60.0132029
,,,,,,,,,,,,,,,,,flemlünk,flemezünk,right,12.4497,0,116,116,137,1,84,flemlik / flemezik,"flemlik, flemezni",ünk,NA,"János imád flemezni, ezért sokat flemlik.",Mi ritkán...,flemlünk,flemezünk,cselekszik,-lik,1,PR2057,2001,nő,nem,2022-04-14_15h31.23.031,hesp_baseline,2021.2.3,Win32,60.0132029
,,,,,,,,,,,,,,,,,kalrézben,kalrézban,right,4.4342,0,117,117,16,1,71,kalréz,kalréz,ban,é,Ez itt egy kalréz.,Ott vagyunk a...,kalrézben,kalrézban,dzsungel,NA,NA,PR2057,2001,nő,nem,2022-04-14_15h31.23.031,hesp_baseline,2021.2.3,Win32,60.0132029
,,,,,,,,,,,,,,,,,nuroklunk,nurokozunk,left,4.6168,0,118,118,131,1,78,nuroklik / nurokozik,"nuroklik, nurokozni",ünk,NA,"János imád nurokozni, ezért sokat nuroklik.",Mi ritkán...,nuroklunk,nurokozunk,cselekszik,-lik,2,PR2057,2001,nő,nem,2022-04-14_15h31.23.031,hesp_baseline,2021.2.3,Win32,60.0132029
,,,,,,,,,,,,,,,,,trigencnak,trigencnek,right,2.9675,0,119,119,31,1,86,trigenc,trigenc,nak,e,Ez itt egy trigenc.,Elneveztem a kutyámat...,trigencnek,trigencnak,dzsungel,NA,NA,PR2057,2001,nő,nem,2022-04-14_15h31.23.031,hesp_baseline,2021.2.3,Win32,60.0132029
,,,,,,,,,,,,,,,,,klehényeztek,klehényletek,right,4.9668,0,120,120,113,1,60,klehénylik / klehényezik,"klehénylik, klehényezni",tek,NA,"János imád klehényezni, ezért sokat klehénylik.",Ti ritkán...,klehényletek,klehényeztek,cselekszik,-lik,2,PR2057,2001,nő,nem,2022-04-14_15h31.23.031,hesp_baseline,2021.2.3,Win32,60.0132029
,,,,,,,,,,,,,,,,,kluzlotok,kluzoztok,left,10.9391,0,121,121,148,1,95,kluzlik / kluzozik,"kluzlik, kluzozni",tek,NA,"János imád kluzozni, ezért sokat kluzlik.",Ti ritkán...,kluzlotok,kluzoztok,cselekszik,-lik,1,PR2057,2001,nő,nem,2022-04-14_15h31.23.031,hesp_baseline,2021.2.3,Win32,60.0132029
,,,,,,,,,,,,,,,,,tomlok,tomlom,left,3.2679,0,122,122,86,1,87,tomlik,tomlasz,NA,NA,Te bizony sokat tomlasz.,Én is sokat...,tomlok,tomlom,lakik,-lik,1,PR2057,2001,nő,nem,2022-04-14_15h31.23.031,hesp_baseline,2021.2.3,Win32,60.0132029
,,,,,,,,,,,,,,,,,nyametben,nyametban,left,12.1876,0,123,123,17,1,72,nyamet,nyamet,ban,e,Ez itt egy nyamet.,Ott vagyunk a...,nyametben,nyametban,dzsungel,NA,NA,PR2057,2001,nő,nem,2022-04-14_15h31.23.031,hesp_baseline,2021.2.3,Win32,60.0132029
,,,,,,,,,,,,,,,,,gúdenben,gúdenban,left,8.7228,0,124,124,4,1,59,gúden,gúden,ban,e,Ez itt egy gúden.,Ott vagyunk a...,gúdenben,gúdenban,dzsungel,NA,NA,PR2057,2001,nő,nem,2022-04-14_15h31.23.031,hesp_baseline,2021.2.3,Win32,60.0132029
,,,,,,,,,,,,,,,,,hákszanak,hákodnak,left,4.8175,0,125,125,150,1,97,hákszik / hákodik,"hákszik, hákodni",nek,NA,"János imád hákodni, ezért sokat hákszik.",Ők ritkán...,hákszanak,hákodnak,cselekszik,-szik,1,PR2057,2001,nő,nem,2022-04-14_15h31.23.031,hesp_baseline,2021.2.3,Win32,60.0132029
,,,,,,,,,,,,,,,,,klítegynál,klítegynél,right,3.0681,0,126,126,5,1,60,klítegy,klítegy,nál,e,Ez itt egy klítegy.,Nincs is jobb egy jó...,klítegynél,klítegynál,dzsungel,NA,NA,PR2057,2001,nő,nem,2022-04-14_15h31.23.031,hesp_baseline,2021.2.3,Win32,60.0132029
,,,,,,,,,,,,,,,,,frivamozunk,frivamlunk,right,5.2536,0,127,127,122,1,69,frivamlik / frivamozik,"frivamlik, frivamozni",ünk,NA,"János imád frivamozni, ezért sokat frivamlik.",Mi ritkán...,frivamlunk,frivamozunk,cselekszik,-lik,2,PR2057,2001,nő,nem,2022-04-14_15h31.23.031,hesp_baseline,2021.2.3,Win32,60.0132029
,,,,,,,,,,,,,,,,,cságyeltben,cságyeltban,left,12.0515,0,128,128,10,1,65,cságyelt,cságyelt,ban,e,Ez itt egy cságyelt.,Ott vagyunk a...,cságyeltben,cságyeltban,dzsungel,NA,NA,PR2057,2001,nő,nem,2022-04-14_15h31.23.031,hesp_baseline,2021.2.3,Win32,60.0132029
,,,,,,,,,,,,,,,,,csimennél,csimennál,left,3.0432,0,129,129,44,1,99,csimen,csimen,nál,e,Ez itt egy csimen.,Nincs is jobb egy jó...,csimennél,csimennál,dzsungel,NA,NA,PR2057,2001,nő,nem,2022-04-14_15h31.23.031,hesp_baseline,2021.2.3,Win32,60.0132029
,,,,,,,,,,,,,,,,,navecban,navecben,left,7.5014,0,130,130,8,1,63,navec,navec,ban,e,Ez itt egy navec.,Ott vagyunk a...,navecben,navecban,dzsungel,NA,NA,PR2057,2001,nő,nem,2022-04-14_15h31.23.031,hesp_baseline,2021.2.3,Win32,60.0132029
,,,,,,,,,,,,,,,,,pratánylom,pratánylok,right,4.2088,0,131,131,95,1,96,pratánylik,pratánylasz,NA,NA,Te bizony sokat pratánylasz.,Én is sokat...,pratánylok,pratánylom,lakik,-lik,2,PR2057,2001,nő,nem,2022-04-14_15h31.23.031,hesp_baseline,2021.2.3,Win32,60.0132029
,,,,,,,,,,,,,,,,,flürököztök,flüröklötök,right,4.5178,0,132,132,149,1,96,flüröklik / flüröközik,"flüröklik, flüröközni",tek,NA,"János imád flüröközni, ezért sokat flüröklik.",Ti ritkán...,flüröklötök,flürököztök,cselekszik,-lik,2,PR2057,2001,nő,nem,2022-04-14_15h31.23.031,hesp_baseline,2021.2.3,Win32,60.0132029
,,,,,,,,,,,,,,,,,praslom,praslok,right,4.6405,0,133,133,80,1,81,praslik,praslasz,NA,NA,Te bizony sokat praslasz.,Én is sokat...,praslok,praslom,lakik,-lik,1,PR2057,2001,nő,nem,2022-04-14_15h31.23.031,hesp_baseline,2021.2.3,Win32,60.0132029
,,,,,,,,,,,,,,,,,lihadzok,lihadzom,right,3.2754,0,134,134,101,1,102,lihadzik,lihadzol,NA,NA,Te bizony sokat lihadzol.,Én is sokat...,lihadzok,lihadzom,lakik,-zik,2,PR2057,2001,nő,nem,2022-04-14_15h31.23.031,hesp_baseline,2021.2.3,Win32,60.0132029
,,,,,,,,,,,,,,,,,forzédnek,forzédnak,right,19.2848,0,135,135,46,1,101,forzéd,forzéd,nak,é,Ez itt egy forzéd.,Elneveztem a kutyámat...,forzédnek,forzédnak,dzsungel,NA,NA,PR2057,2001,nő,nem,2022-04-14_15h31.23.031,hesp_baseline,2021.2.3,Win32,60.0132029
,,,,,,,,,,,,,,,,,gihesztnek,gihesztnak,left,2.9548,0,136,136,36,1,91,giheszt,giheszt,nak,e,Ez itt egy giheszt.,Elneveztem a kutyámat...,gihesztnek,gihesztnak,dzsungel,NA,NA,PR2057,2001,nő,nem,2022-04-14_15h31.23.031,hesp_baseline,2021.2.3,Win32,60.0132029
,,,,,,,,,,,,,,,,,figlom,figlok,right,4.0706,0,137,137,75,1,76,figlik,figlasz,NA,NA,Te bizony sokat figlasz.,Én is sokat...,figlok,figlom,lakik,-lik,1,PR2057,2001,nő,nem,2022-04-14_15h31.23.031,hesp_baseline,2021.2.3,Win32,60.0132029
,,,,,,,,,,,,,,,,,spatárzok,spatárzom,right,6.3751,0,138,138,69,1,70,spatárzik,spatárzol,NA,NA,Te bizony sokat spatárzol.,Én is sokat...,spatárzok,spatárzom,lakik,-zik,2,PR2057,2001,nő,nem,2022-04-14_15h31.23.031,hesp_baseline,2021.2.3,Win32,60.0132029
,,,,,,,,,,,,,,,,,csíszlom,csíszlok,right,2.7887,0,139,139,84,1,85,csíszlik,csíszlasz,NA,NA,Te bizony sokat csíszlasz.,Én is sokat...,csíszlok,csíszlom,lakik,-lik,1,PR2057,2001,nő,nem,2022-04-14_15h31.23.031,hesp_baseline,2021.2.3,Win32,60.0132029
,,,,,,,,,,,,,,,,,prazozunk,prazlunk,right,3.7538,0,140,140,119,1,66,prazlik / prazozik,"prazlik, prazozni",ünk,NA,"János imád prazozni, ezért sokat prazlik.",Mi ritkán...,prazlunk,prazozunk,cselekszik,-lik,1,PR2057,2001,nő,nem,2022-04-14_15h31.23.031,hesp_baseline,2021.2.3,Win32,60.0132029
,,,,,,,,,,,,,,,,,trírzunk,trírozunk,right,19.0016,0,141,141,116,1,63,trírzik / trírozik,"trírzik, trírozni",ünk,NA,"János imád trírozni, ezért sokat trírzik.",Mi ritkán...,trírzunk,trírozunk,cselekszik,-zik,1,PR2057,2001,nő,nem,2022-04-14_15h31.23.031,hesp_baseline,2021.2.3,Win32,60.0132029
,,,,,,,,,,,,,,,,,dineltben,dineltban,left,3.2174,0,142,142,0,1,55,dinelt,dinelt,ban,e,Ez itt egy dinelt.,Ott vagyunk a...,dineltben,dineltban,dzsungel,NA,NA,PR2057,2001,nő,nem,2022-04-14_15h31.23.031,hesp_baseline,2021.2.3,Win32,60.0132029
,,,,,,,,,,,,,,,,,nyádlanak,nyádoznak,right,20.6506,0,143,143,120,1,67,nyádlik / nyádozik,"nyádlik, nyádozni",nek,NA,"János imád nyádozni, ezért sokat nyádlik.",Ők ritkán...,nyádlanak,nyádoznak,cselekszik,-lik,1,PR2057,2001,nő,nem,2022-04-14_15h31.23.031,hesp_baseline,2021.2.3,Win32,60.0132029
,,,,,,,,,,,,,,,,,sprigzotok,sprigoztok,right,13.484,0,144,144,129,1,76,sprigzik / sprigozik,"sprigzik, sprigozni",tek,NA,"János imád sprigozni, ezért sokat sprigzik.",Ti ritkán...,sprigzotok,sprigoztok,cselekszik,-zik,1,PR2057,2001,nő,nem,2022-04-14_15h31.23.031,hesp_baseline,2021.2.3,Win32,60.0132029
,,,,,,,,,,,,,,,,,tranékben,tranékban,right,10.3502,0,145,145,2,1,57,tranék,tranék,ban,é,Ez itt egy tranék.,Ott vagyunk a...,tranékben,tranékban,dzsungel,NA,NA,PR2057,2001,nő,nem,2022-04-14_15h31.23.031,hesp_baseline,2021.2.3,Win32,60.0132029
,,,,,,,,,,,,,,,,,sortemnál,sortemnél,right,3.005,0,146,146,15,1,70,sortem,sortem,nál,e,Ez itt egy sortem.,Nincs is jobb egy jó...,sortemnél,sortemnál,dzsungel,NA,NA,PR2057,2001,nő,nem,2022-04-14_15h31.23.031,hesp_baseline,2021.2.3,Win32,60.0132029
,,,,,,,,,,,,,,,,,dibágoztok,dibáglotok,left,3.9735,0,147,147,154,1,101,dibáglik / dibágozik,"dibáglik, dibágozni",tek,NA,"János imád dibágozni, ezért sokat dibáglik.",Ti ritkán...,dibáglotok,dibágoztok,cselekszik,-lik,2,PR2057,2001,nő,nem,2022-04-14_15h31.23.031,hesp_baseline,2021.2.3,Win32,60.0132029
,,,,,,,,,,,,,,,,,nyürzenek,nyüröznek,right,8.5576,0,148,148,123,1,70,nyürzik / nyürözik,"nyürzik, nyürözni",nek,NA,"János imád nyürözni, ezért sokat nyürzik.",Ők ritkán...,nyürzenek,nyüröznek,cselekszik,-zik,1,PR2057,2001,nő,nem,2022-04-14_15h31.23.031,hesp_baseline,2021.2.3,Win32,60.0132029
,,,,,,,,,,,,,,,,,flerékszünk,flerékedünk,left,7.1707,0,149,149,159,1,106,flerékszik / flerékedik,"flerékszik, flerékedni",ünk,NA,"János imád flerékedni, ezért sokat flerékszik.",Mi ritkán...,flerékszünk,flerékedünk,cselekszik,-szik,2,PR2057,2001,nő,nem,2022-04-14_15h31.23.031,hesp_baseline,2021.2.3,Win32,60.0132029
,,,,,,,,,,,,,,,,,zarcégnál,zarcégnél,left,4.103,0,150,150,29,1,84,zarcég,zarcég,nál,é,Ez itt egy zarcég.,Nincs is jobb egy jó...,zarcégnél,zarcégnál,dzsungel,NA,NA,PR2057,2001,nő,nem,2022-04-14_15h31.23.031,hesp_baseline,2021.2.3,Win32,60.0132029
,,,,,,,,,,,,,,,,,sojzok,sojzom,right,2.7508,0,151,151,74,1,75,sojzik,sojzol,NA,NA,Te bizony sokat sojzol.,Én is sokat...,sojzok,sojzom,lakik,-zik,1,PR2057,2001,nő,nem,2022-04-14_15h31.23.031,hesp_baseline,2021.2.3,Win32,60.0132029
,,,,,,,,,,,,,,,,,rapszeknél,rapszeknál,left,3.651,0,152,152,35,1,90,rapszek,rapszek,nál,e,Ez itt egy rapszek.,Nincs is jobb egy jó...,rapszeknél,rapszeknál,dzsungel,NA,NA,PR2057,2001,nő,nem,2022-04-14_15h31.23.031,hesp_baseline,2021.2.3,Win32,60.0132029
,,,,,,,,,,,,,,,,,kumlok,kumlom,left,5.7768,0,153,153,105,1,106,kumlik,kumlasz,NA,NA,Te bizony sokat kumlasz.,Én is sokat...,kumlok,kumlom,lakik,-lik,1,PR2057,2001,nő,nem,2022-04-14_15h31.23.031,hesp_baseline,2021.2.3,Win32,60.0132029
,,,,,,,,,,,,,,,,,zihencnek,zihencnak,left,2.4048,0,154,154,52,1,107,zihenc,zihenc,nak,e,Ez itt egy zihenc.,Elneveztem a kutyámat...,zihencnek,zihencnak,dzsungel,NA,NA,PR2057,2001,nő,nem,2022-04-14_15h31.23.031,hesp_baseline,2021.2.3,Win32,60.0132029
,,,,,,,,,,,,,,,,,nyöböznek,nyöbzenek,left,5.118,0,155,155,152,1,99,nyöbzik / nyöbözik,"nyöbzik, nyöbözni",nek,NA,"János imád nyöbözni, ezért sokat nyöbzik.",Ők ritkán...,nyöbzenek,nyöböznek,cselekszik,-zik,1,PR2057,2001,nő,nem,2022-04-14_15h31.23.031,hesp_baseline,2021.2.3,Win32,60.0132029
,,,,,,,,,,,,,,,,,dingecnek,dingecnak,left,2.6011,0,156,156,42,1,97,dingec,dingec,nak,e,Ez itt egy dingec.,Elneveztem a kutyámat...,dingecnek,dingecnak,dzsungel,NA,NA,PR2057,2001,nő,nem,2022-04-14_15h31.23.031,hesp_baseline,2021.2.3,Win32,60.0132029
,,,,,,,,,,,,,,,,,flodoztok,flodlotok,left,5.1084,0,157,157,144,1,91,flodlik / flodozik,"flodlik, flodozni",tek,NA,"János imád flodozni, ezért sokat flodlik.",Ti ritkán...,flodlotok,flodoztok,cselekszik,-lik,1,PR2057,2001,nő,nem,2022-04-14_15h31.23.031,hesp_baseline,2021.2.3,Win32,60.0132029
,,,,,,,,,,,,,,,,,bivégszem,bivégszek,left,15.2204,0,158,158,68,1,69,bivégszik,bivégszel,NA,NA,Te bizony sokat bivégszel.,Én is sokat...,bivégszek,bivégszem,lakik,-szik,2,PR2057,2001,nő,nem,2022-04-14_15h31.23.031,hesp_baseline,2021.2.3,Win32,60.0132029
,,,,,,,,,,,,,,,,,dilaklotok,dilakoztok,left,7.2506,0,159,159,158,1,105,dilaklik / dilakozik,"dilaklik, dilakozni",tek,NA,"János imád dilakozni, ezért sokat dilaklik.",Ti ritkán...,dilaklotok,dilakoztok,cselekszik,-lik,2,PR2057,2001,nő,nem,2022-04-14_15h31.23.031,hesp_baseline,2021.2.3,Win32,60.0132029
,,,,,,,,,,,,,,,,,flűröklöm,flűröklök,left,14.7692,0,160,160,91,1,92,flűröklik,flűröklesz,NA,NA,Te bizony sokat flűröklesz.,Én is sokat...,flűröklök,flűröklöm,lakik,-lik,2,PR2057,2001,nő,nem,2022-04-14_15h31.23.031,hesp_baseline,2021.2.3,Win32,60.0132029
,,,,,,,,,,,,,,,,,csólorzok,csólorzom,left,12.0672,0,161,161,102,1,103,csólorzik,csólorzol,NA,NA,Te bizony sokat csólorzol.,Én is sokat...,csólorzok,csólorzom,lakik,-zik,2,PR2057,2001,nő,nem,2022-04-14_15h31.23.031,hesp_baseline,2021.2.3,Win32,60.0132029
