my_list,key.keys,key.rt,key_2.keys,key_2.rt,keyboard_input_2.keys,keyboard_input_2.rt,key_3.keys,key_3.rt,keyboard_input_3.keys,keyboard_input_3.rt,key_4.keys,key_4.rt,keyboard_input_4.keys,keyboard_input_4.rt,key_5.keys,key_5.rt,my_button1,my_button2,keyboard_input.keys,keyboard_input.rt,withinBlock.thisRepN,withinBlock.thisTrialN,withinBlock.thisN,withinBlock.thisIndex,withinBlock.ran,rowname,word,prompt,suffix,vowel,carrier_sentence,target_sentence,target1,target2,category,derivational,nsyl,Azonosító,Melyik évben születtél?,Mi a nemed?,Tanultál nyelvészetet?,date,expName,psychopyVersion,OS,frameRate
list1.csv,space,10.5845,space,4.5535,right,4.0312,space,7.8865,left,3.0498,space,5.574,left,4.7293,space,7.528,kalhésznek,kalhésznak,right,6.1508,0,0,0,46,1,47,kalhész,kalhész,nak,é,Ez itt egy kalhész.,Elneveztem a kutyámat...,kalhésznek,kalhésznak,dzsungel,NA,NA,PR2003,2000,nő,nem,2022-03-29_23h37.51.858,hesp_baseline,2021.2.3,Win32,60.25185274
,,,,,,,,,,,,,,,,,frirozunk,frirzunk,right,8.4544,0,1,1,129,1,22,frirzik / frirozik,"frirzik, frirozni",ünk,NA,"János imád frirozni, ezért sokat frirzik.",Mi ritkán...,frirzunk,frirozunk,cselekszik,-zik,1,PR2003,2000,nő,nem,2022-03-29_23h37.51.858,hesp_baseline,2021.2.3,Win32,60.25185274
,,,,,,,,,,,,,,,,,tránélynek,tránélynak,right,8.149,0,2,2,17,1,18,tránély,tránély,nak,é,Ez itt egy tránély.,Elneveztem a kutyámat...,tránélynek,tránélynak,dzsungel,NA,NA,PR2003,2000,nő,nem,2022-03-29_23h37.51.858,hesp_baseline,2021.2.3,Win32,60.25185274
,,,,,,,,,,,,,,,,,csarténynak,csarténynek,right,4.1804,0,3,3,36,1,37,csartény,csartény,nak,é,Ez itt egy csartény.,Elneveztem a kutyámat...,csarténynek,csarténynak,dzsungel,NA,NA,PR2003,2000,nő,nem,2022-03-29_23h37.51.858,hesp_baseline,2021.2.3,Win32,60.25185274
,,,,,,,,,,,,,,,,,bölszöm,bölszök,left,3.7611,0,4,4,105,1,52,bölszik,bölszöl,NA,NA,Te bizony sokat bölszöl.,Én is sokat...,bölszök,bölszöm,lakik,-szik,1,PR2003,2000,nő,nem,2022-03-29_23h37.51.858,hesp_baseline,2021.2.3,Win32,60.25185274
,,,,,,,,,,,,,,,,,frélegezünk,frélegzünk,right,12.9432,0,5,5,147,1,40,frélegzik / frélegezik,"frélegzik, frélegezni",ünk,NA,"János imád frélegezni, ezért sokat frélegzik.",Mi ritkán...,frélegzünk,frélegezünk,cselekszik,-zik,2,PR2003,2000,nő,nem,2022-03-29_23h37.51.858,hesp_baseline,2021.2.3,Win32,60.25185274
,,,,,,,,,,,,,,,,,vodépnak,vodépnek,right,8.9926,0,6,6,41,1,42,vodép,vodép,nak,é,Ez itt egy vodép.,Elneveztem a kutyámat...,vodépnek,vodépnak,dzsungel,NA,NA,PR2003,2000,nő,nem,2022-03-29_23h37.51.858,hesp_baseline,2021.2.3,Win32,60.25185274
,,,,,,,,,,,,,,,,,riványoztok,riványlotok,right,70.323,0,7,7,117,1,10,riványlik / riványozik,"riványlik, riványozni",tek,NA,"János imád riványozni, ezért sokat riványlik.",Ti ritkán...,riványlotok,riványoztok,cselekszik,-lik,2,PR2003,2000,nő,nem,2022-03-29_23h37.51.858,hesp_baseline,2021.2.3,Win32,60.25185274
,,,,,,,,,,,,,,,,,narádzok,narádzom,right,3.4412,0,8,8,63,1,10,narádzik,narádzol,NA,NA,Te bizony sokat narádzol.,Én is sokat...,narádzok,narádzom,lakik,-zik,2,PR2003,2000,nő,nem,2022-03-29_23h37.51.858,hesp_baseline,2021.2.3,Win32,60.25185274
,,,,,,,,,,,,,,,,,huklok,huklom,right,3.8575,0,9,9,78,1,25,huklik,huklasz,NA,NA,Te bizony sokat huklasz.,Én is sokat...,huklok,huklom,lakik,-lik,1,PR2003,2000,nő,nem,2022-03-29_23h37.51.858,hesp_baseline,2021.2.3,Win32,60.25185274
,,,,,,,,,,,,,,,,,priszecban,priszecben,right,13.2146,0,10,10,15,1,16,priszec,priszec,ban,e,Ez itt egy priszec.,Ott vagyunk a...,priszecben,priszecban,dzsungel,NA,NA,PR2003,2000,nő,nem,2022-03-29_23h37.51.858,hesp_baseline,2021.2.3,Win32,60.25185274
,,,,,,,,,,,,,,,,,vülődzök,vülődzöm,right,5.2687,0,11,11,81,1,28,vülődzik,vülődzöl,NA,NA,Te bizony sokat vülődzöl.,Én is sokat...,vülődzök,vülődzöm,lakik,-zik,2,PR2003,2000,nő,nem,2022-03-29_23h37.51.858,hesp_baseline,2021.2.3,Win32,60.25185274
,,,,,,,,,,,,,,,,,trodélyban,trodélyben,left,16.3806,0,12,12,28,1,29,trodély,trodély,ban,é,Ez itt egy trodély.,Ott vagyunk a...,trodélyben,trodélyban,dzsungel,NA,NA,PR2003,2000,nő,nem,2022-03-29_23h37.51.858,hesp_baseline,2021.2.3,Win32,60.25185274
,,,,,,,,,,,,,,,,,köszlötök,köszöztök,left,17.1923,0,13,13,120,1,13,köszlik / köszözik,"köszlik, köszözni",tek,NA,"János imád köszözni, ezért sokat köszlik.",Ti ritkán...,köszlötök,köszöztök,cselekszik,-lik,1,PR2003,2000,nő,nem,2022-03-29_23h37.51.858,hesp_baseline,2021.2.3,Win32,60.25185274
,,,,,,,,,,,,,,,,,préleglem,préleglek,left,95.1056,0,14,14,104,1,51,préleglik,préleglesz,NA,NA,Te bizony sokat préleglesz.,Én is sokat...,préleglek,préleglem,lakik,-lik,2,PR2003,2000,nő,nem,2022-03-29_23h37.51.858,hesp_baseline,2021.2.3,Win32,60.25185274
,,,,,,,,,,,,,,,,,jurozunk,jurlunk,right,25.5181,0,15,15,111,1,4,jurlik / jurozik,"jurlik, jurozni",ünk,NA,"János imád jurozni, ezért sokat jurlik.",Mi ritkán...,jurlunk,jurozunk,cselekszik,-lik,1,PR2003,2000,nő,nem,2022-03-29_23h37.51.858,hesp_baseline,2021.2.3,Win32,60.25185274
,,,,,,,,,,,,,,,,,bribasoznak,bribaslanak,left,14.6034,0,16,16,121,1,14,bribaslik / bribasozik,"bribaslik, bribasozni",nek,NA,"János imád bribasozni, ezért sokat bribaslik.",Ők ritkán...,bribaslanak,bribasoznak,cselekszik,-lik,2,PR2003,2000,nő,nem,2022-03-29_23h37.51.858,hesp_baseline,2021.2.3,Win32,60.25185274
,,,,,,,,,,,,,,,,,livaklok,livaklom,right,3.3828,0,17,17,82,1,29,livaklik,livaklasz,NA,NA,Te bizony sokat livaklasz.,Én is sokat...,livaklok,livaklom,lakik,-lik,2,PR2003,2000,nő,nem,2022-03-29_23h37.51.858,hesp_baseline,2021.2.3,Win32,60.25185274
,,,,,,,,,,,,,,,,,nyivágozunk,nyivágzunk,right,6.466,0,18,18,113,1,6,nyivágzik / nyivágozik,"nyivágzik, nyivágozni",ünk,NA,"János imád nyivágozni, ezért sokat nyivágzik.",Mi ritkán...,nyivágzunk,nyivágozunk,cselekszik,-zik,2,PR2003,2000,nő,nem,2022-03-29_23h37.51.858,hesp_baseline,2021.2.3,Win32,60.25185274
,,,,,,,,,,,,,,,,,hilarzom,hilarzok,left,4.3273,0,19,19,69,1,16,hilarzik,hilarzol,NA,NA,Te bizony sokat hilarzol.,Én is sokat...,hilarzok,hilarzom,lakik,-zik,2,PR2003,2000,nő,nem,2022-03-29_23h37.51.858,hesp_baseline,2021.2.3,Win32,60.25185274
,,,,,,,,,,,,,,,,,küslünk,küsözünk,left,37.8776,0,20,20,141,1,34,küslik / küsözik,"küslik, küsözni",ünk,NA,"János imád küsözni, ezért sokat küslik.",Mi ritkán...,küslünk,küsözünk,cselekszik,-lik,1,PR2003,2000,nő,nem,2022-03-29_23h37.51.858,hesp_baseline,2021.2.3,Win32,60.25185274
,,,,,,,,,,,,,,,,,kűdöznek,kűdlenek,right,4.9069,0,21,21,142,1,35,kűdlik / kűdözik,"kűdlik, kűdözni",nek,NA,"János imád kűdözni, ezért sokat kűdlik.",Ők ritkán...,kűdlenek,kűdöznek,cselekszik,-lik,1,PR2003,2000,nő,nem,2022-03-29_23h37.51.858,hesp_baseline,2021.2.3,Win32,60.25185274
,,,,,,,,,,,,,,,,,spibádzom,spibádzok,left,4.4091,0,22,22,65,1,12,spibádzik,spibádzol,NA,NA,Te bizony sokat spibádzol.,Én is sokat...,spibádzok,spibádzom,lakik,-zik,2,PR2003,2000,nő,nem,2022-03-29_23h37.51.858,hesp_baseline,2021.2.3,Win32,60.25185274
,,,,,,,,,,,,,,,,,breslenek,breseznek,left,31.7884,0,23,23,115,1,8,breslik / bresezik,"breslik, bresezni",nek,NA,"János imád bresezni, ezért sokat breslik.",Ők ritkán...,breslenek,breseznek,cselekszik,-lik,1,PR2003,2000,nő,nem,2022-03-29_23h37.51.858,hesp_baseline,2021.2.3,Win32,60.25185274
,,,,,,,,,,,,,,,,,spábétban,spábétben,left,4.5286,0,24,24,51,1,52,spábét,spábét,ban,é,Ez itt egy spábét.,Ott vagyunk a...,spábétben,spábétban,dzsungel,NA,NA,PR2003,2000,nő,nem,2022-03-29_23h37.51.858,hesp_baseline,2021.2.3,Win32,60.25185274
,,,,,,,,,,,,,,,,,vanylok,vanylom,right,8.8012,0,25,25,61,1,8,vanylik,vanylasz,NA,NA,Te bizony sokat vanylasz.,Én is sokat...,vanylok,vanylom,lakik,-lik,1,PR2003,2000,nő,nem,2022-03-29_23h37.51.858,hesp_baseline,2021.2.3,Win32,60.25185274
,,,,,,,,,,,,,,,,,buhényban,buhényben,left,3.2821,0,26,26,43,1,44,buhény,buhény,ban,é,Ez itt egy buhény.,Ott vagyunk a...,buhényben,buhényban,dzsungel,NA,NA,PR2003,2000,nő,nem,2022-03-29_23h37.51.858,hesp_baseline,2021.2.3,Win32,60.25185274
,,,,,,,,,,,,,,,,,ibáglom,ibáglok,left,5.6139,0,27,27,88,1,35,ibáglik,ibáglasz,NA,NA,Te bizony sokat ibáglasz.,Én is sokat...,ibáglok,ibáglom,lakik,-lik,2,PR2003,2000,nő,nem,2022-03-29_23h37.51.858,hesp_baseline,2021.2.3,Win32,60.25185274
,,,,,,,,,,,,,,,,,plűbzöm,plűbzök,left,4.7987,0,28,28,107,1,54,plűbzik,plűbzöl,NA,NA,Te bizony sokat plűbzöl.,Én is sokat...,plűbzök,plűbzöm,lakik,-zik,1,PR2003,2000,nő,nem,2022-03-29_23h37.51.858,hesp_baseline,2021.2.3,Win32,60.25185274
,,,,,,,,,,,,,,,,,prilegzem,prilegzek,left,4.5863,0,29,29,79,1,26,prilegzik,prilegzel,NA,NA,Te bizony sokat prilegzel.,Én is sokat...,prilegzek,prilegzem,lakik,-zik,2,PR2003,2000,nő,nem,2022-03-29_23h37.51.858,hesp_baseline,2021.2.3,Win32,60.25185274
,,,,,,,,,,,,,,,,,prögöztök,prögzötök,right,7.2996,0,30,30,151,1,44,prögzik / prögözik,"prögzik, prögözni",tek,NA,"János imád prögözni, ezért sokat prögzik.",Ti ritkán...,prögzötök,prögöztök,cselekszik,-zik,1,PR2003,2000,nő,nem,2022-03-29_23h37.51.858,hesp_baseline,2021.2.3,Win32,60.25185274
,,,,,,,,,,,,,,,,,zsalrénnek,zsalrénnak,right,3.9873,0,31,31,19,1,20,zsalrén,zsalrén,nak,é,Ez itt egy zsalrén.,Elneveztem a kutyámat...,zsalrénnek,zsalrénnak,dzsungel,NA,NA,PR2003,2000,nő,nem,2022-03-29_23h37.51.858,hesp_baseline,2021.2.3,Win32,60.25185274
,,,,,,,,,,,,,,,,,dirányoznak,diránylanak,right,7.0115,0,32,32,122,1,15,diránylik / dirányozik,"diránylik, dirányozni",nek,NA,"János imád dirányozni, ezért sokat diránylik.",Ők ritkán...,diránylanak,dirányoznak,cselekszik,-lik,2,PR2003,2000,nő,nem,2022-03-29_23h37.51.858,hesp_baseline,2021.2.3,Win32,60.25185274
,,,,,,,,,,,,,,,,,bötőrözünk,bötőrzünk,right,25.6984,0,33,33,158,1,51,bötőrzik / bötőrözik,"bötőrzik, bötőrözni",ünk,NA,"János imád bötőrözni, ezért sokat bötőrzik.",Mi ritkán...,bötőrzünk,bötőrözünk,cselekszik,-zik,2,PR2003,2000,nő,nem,2022-03-29_23h37.51.858,hesp_baseline,2021.2.3,Win32,60.25185274
,,,,,,,,,,,,,,,,,gihejezünk,gihejlünk,right,6.5283,0,34,34,146,1,39,gihejlik / gihejezik,"gihejlik, gihejezni",ünk,NA,"János imád gihejezni, ezért sokat gihejlik.",Mi ritkán...,gihejlünk,gihejezünk,cselekszik,-lik,2,PR2003,2000,nő,nem,2022-03-29_23h37.51.858,hesp_baseline,2021.2.3,Win32,60.25185274
,,,,,,,,,,,,,,,,,gyibeslek,gyibeslem,right,3.4812,0,35,35,98,1,45,gyibeslik,gyibeslesz,NA,NA,Te bizony sokat gyibeslesz.,Én is sokat...,gyibeslek,gyibeslem,lakik,-lik,2,PR2003,2000,nő,nem,2022-03-29_23h37.51.858,hesp_baseline,2021.2.3,Win32,60.25185274
,,,,,,,,,,,,,,,,,plibzotok,pliboztok,left,10.687,0,36,36,140,1,33,plibzik / plibozik,"plibzik, plibozni",tek,NA,"János imád plibozni, ezért sokat plibzik.",Ti ritkán...,plibzotok,pliboztok,cselekszik,-zik,1,PR2003,2000,nő,nem,2022-03-29_23h37.51.858,hesp_baseline,2021.2.3,Win32,60.25185274
,,,,,,,,,,,,,,,,,klörlök,klörlöm,right,4.4576,0,37,37,80,1,27,klörlik,klörlesz,NA,NA,Te bizony sokat klörlesz.,Én is sokat...,klörlök,klörlöm,lakik,-lik,1,PR2003,2000,nő,nem,2022-03-29_23h37.51.858,hesp_baseline,2021.2.3,Win32,60.25185274
,,,,,,,,,,,,,,,,,pebzek,pebzem,right,2.1117,0,38,38,57,1,4,pebzik,pebzel,NA,NA,Te bizony sokat pebzel.,Én is sokat...,pebzek,pebzem,lakik,-zik,1,PR2003,2000,nő,nem,2022-03-29_23h37.51.858,hesp_baseline,2021.2.3,Win32,60.25185274
,,,,,,,,,,,,,,,,,tragzom,tragzok,left,3.4354,0,39,39,90,1,37,tragzik,tragzol,NA,NA,Te bizony sokat tragzol.,Én is sokat...,tragzok,tragzom,lakik,-zik,1,PR2003,2000,nő,nem,2022-03-29_23h37.51.858,hesp_baseline,2021.2.3,Win32,60.25185274
,,,,,,,,,,,,,,,,,darhénben,darhénban,right,4.1103,0,40,40,27,1,28,darhén,darhén,ban,é,Ez itt egy darhén.,Ott vagyunk a...,darhénben,darhénban,dzsungel,NA,NA,PR2003,2000,nő,nem,2022-03-29_23h37.51.858,hesp_baseline,2021.2.3,Win32,60.25185274
,,,,,,,,,,,,,,,,,klihasoztok,klihaslotok,right,10.5427,0,41,41,156,1,49,klihaslik / klihasozik,"klihaslik, klihasozni",tek,NA,"János imád klihasozni, ezért sokat klihaslik.",Ti ritkán...,klihaslotok,klihasoztok,cselekszik,-lik,2,PR2003,2000,nő,nem,2022-03-29_23h37.51.858,hesp_baseline,2021.2.3,Win32,60.25185274
,,,,,,,,,,,,,,,,,kliszernál,kliszernél,right,3.5326,0,42,42,31,1,32,kliszer,kliszer,nál,e,Ez itt egy kliszer.,Nincs is jobb egy jó...,kliszernél,kliszernál,dzsungel,NA,NA,PR2003,2000,nő,nem,2022-03-29_23h37.51.858,hesp_baseline,2021.2.3,Win32,60.25185274
,,,,,,,,,,,,,,,,,zsúdelnak,zsúdelnek,right,5.4037,0,43,43,14,1,15,zsúdel,zsúdel,nak,e,Ez itt egy zsúdel.,Elneveztem a kutyámat...,zsúdelnek,zsúdelnak,dzsungel,NA,NA,PR2003,2000,nő,nem,2022-03-29_23h37.51.858,hesp_baseline,2021.2.3,Win32,60.25185274
,,,,,,,,,,,,,,,,,spihemlem,spihemlek,right,8.3798,0,44,44,94,1,41,spihemlik,spihemlesz,NA,NA,Te bizony sokat spihemlesz.,Én is sokat...,spihemlek,spihemlem,lakik,-lik,2,PR2003,2000,nő,nem,2022-03-29_23h37.51.858,hesp_baseline,2021.2.3,Win32,60.25185274
,,,,,,,,,,,,,,,,,lörűdzök,lörűdzöm,right,5.7072,0,45,45,77,1,24,lörűdzik,lörűdzöl,NA,NA,Te bizony sokat lörűdzöl.,Én is sokat...,lörűdzök,lörűdzöm,lakik,-zik,2,PR2003,2000,nő,nem,2022-03-29_23h37.51.858,hesp_baseline,2021.2.3,Win32,60.25185274
,,,,,,,,,,,,,,,,,spéslem,spéslek,right,7.008,0,46,46,93,1,40,spéslik,spéslesz,NA,NA,Te bizony sokat spéslesz.,Én is sokat...,spéslek,spéslem,lakik,-lik,1,PR2003,2000,nő,nem,2022-03-29_23h37.51.858,hesp_baseline,2021.2.3,Win32,60.25185274
,,,,,,,,,,,,,,,,,tarhézban,tarhézben,right,10.0708,0,47,47,25,1,26,tarhéz,tarhéz,ban,é,Ez itt egy tarhéz.,Ott vagyunk a...,tarhézben,tarhézban,dzsungel,NA,NA,PR2003,2000,nő,nem,2022-03-29_23h37.51.858,hesp_baseline,2021.2.3,Win32,60.25185274
,,,,,,,,,,,,,,,,,mádépnél,mádépnál,left,4.1469,0,48,48,1,1,2,mádép,mádép,nál,é,Ez itt egy mádép.,Nincs is jobb egy jó...,mádépnél,mádépnál,dzsungel,NA,NA,PR2003,2000,nő,nem,2022-03-29_23h37.51.858,hesp_baseline,2021.2.3,Win32,60.25185274
,,,,,,,,,,,,,,,,,bejzünk,bejezünk,right,13.1423,0,49,49,148,1,41,bejzik / bejezik,"bejzik, bejezni",ünk,NA,"János imád bejezni, ezért sokat bejzik.",Mi ritkán...,bejzünk,bejezünk,cselekszik,-zik,1,PR2003,2000,nő,nem,2022-03-29_23h37.51.858,hesp_baseline,2021.2.3,Win32,60.25185274
,,,,,,,,,,,,,,,,,zopélynél,zopélynál,right,4.4331,0,50,50,5,1,6,zopély,zopély,nál,é,Ez itt egy zopély.,Nincs is jobb egy jó...,zopélynél,zopélynál,dzsungel,NA,NA,PR2003,2000,nő,nem,2022-03-29_23h37.51.858,hesp_baseline,2021.2.3,Win32,60.25185274
,,,,,,,,,,,,,,,,,nuhétnál,nuhétnél,right,5.6336,0,51,51,29,1,30,nuhét,nuhét,nál,é,Ez itt egy nuhét.,Nincs is jobb egy jó...,nuhétnél,nuhétnál,dzsungel,NA,NA,PR2003,2000,nő,nem,2022-03-29_23h37.51.858,hesp_baseline,2021.2.3,Win32,60.25185274
,,,,,,,,,,,,,,,,,spivejlenek,spivejeznek,right,6.1083,0,52,52,125,1,18,spivejlik / spivejezik,"spivejlik, spivejezni",nek,NA,"János imád spivejezni, ezért sokat spivejlik.",Ők ritkán...,spivejlenek,spivejeznek,cselekszik,-lik,2,PR2003,2000,nő,nem,2022-03-29_23h37.51.858,hesp_baseline,2021.2.3,Win32,60.25185274
,,,,,,,,,,,,,,,,,friheglünk,frihegezünk,right,7.2279,0,53,53,132,1,25,friheglik / frihegezik,"friheglik, frihegezni",ünk,NA,"János imád frihegezni, ezért sokat friheglik.",Mi ritkán...,friheglünk,frihegezünk,cselekszik,-lik,2,PR2003,2000,nő,nem,2022-03-29_23h37.51.858,hesp_baseline,2021.2.3,Win32,60.25185274
,,,,,,,,,,,,,,,,,pisélyben,pisélyban,left,8.826,0,54,54,21,1,22,pisély,pisély,ban,é,Ez itt egy pisély.,Ott vagyunk a...,pisélyben,pisélyban,dzsungel,NA,NA,PR2003,2000,nő,nem,2022-03-29_23h37.51.858,hesp_baseline,2021.2.3,Win32,60.25185274
,,,,,,,,,,,,,,,,,sprudozunk,sprudlunk,right,57.6997,0,55,55,136,1,29,sprudlik / sprudozik,"sprudlik, sprudozni",ünk,NA,"János imád sprudozni, ezért sokat sprudlik.",Mi ritkán...,sprudlunk,sprudozunk,cselekszik,-lik,1,PR2003,2000,nő,nem,2022-03-29_23h37.51.858,hesp_baseline,2021.2.3,Win32,60.25185274
,,,,,,,,,,,,,,,,,aglok,aglom,right,7.4218,0,56,56,100,1,47,aglik,aglasz,NA,NA,Te bizony sokat aglasz.,Én is sokat...,aglok,aglom,lakik,-lik,1,PR2003,2000,nő,nem,2022-03-29_23h37.51.858,hesp_baseline,2021.2.3,Win32,60.25185274
,,,,,,,,,,,,,,,,,jukélnál,jukélnél,right,4.5369,0,57,57,42,1,43,jukél,jukél,nál,é,Ez itt egy jukél.,Nincs is jobb egy jó...,jukélnél,jukélnál,dzsungel,NA,NA,PR2003,2000,nő,nem,2022-03-29_23h37.51.858,hesp_baseline,2021.2.3,Win32,60.25185274
,,,,,,,,,,,,,,,,,incéjnek,incéjnak,left,4.2731,0,58,58,30,1,31,incéj,incéj,nak,é,Ez itt egy incéj.,Elneveztem a kutyámat...,incéjnek,incéjnak,dzsungel,NA,NA,PR2003,2000,nő,nem,2022-03-29_23h37.51.858,hesp_baseline,2021.2.3,Win32,60.25185274
,,,,,,,,,,,,,,,,,sztrajoznak,sztrajlanak,right,7.4811,0,59,59,144,1,37,sztrajlik / sztrajozik,"sztrajlik, sztrajozni",nek,NA,"János imád sztrajozni, ezért sokat sztrajlik.",Ők ritkán...,sztrajlanak,sztrajoznak,cselekszik,-lik,1,PR2003,2000,nő,nem,2022-03-29_23h37.51.858,hesp_baseline,2021.2.3,Win32,60.25185274
,,,,,,,,,,,,,,,,,klaráglom,klaráglok,right,8.6617,0,60,60,91,1,38,klaráglik,klaráglasz,NA,NA,Te bizony sokat klaráglasz.,Én is sokat...,klaráglok,klaráglom,lakik,-lik,2,PR2003,2000,nő,nem,2022-03-29_23h37.51.858,hesp_baseline,2021.2.3,Win32,60.25185274
,,,,,,,,,,,,,,,,,gyivepszenek,gyivepednek,right,31.994,0,61,61,160,1,53,gyivepszik / gyivepedik,"gyivepszik, gyivepedni",nek,NA,"János imád gyivepedni, ezért sokat gyivepszik.",Ők ritkán...,gyivepszenek,gyivepednek,cselekszik,-szik,2,PR2003,2000,nő,nem,2022-03-29_23h37.51.858,hesp_baseline,2021.2.3,Win32,60.25185274
,,,,,,,,,,,,,,,,,vilakszom,vilakszok,left,3.2765,0,62,62,97,1,44,vilakszik,vilakszol,NA,NA,Te bizony sokat vilakszol.,Én is sokat...,vilakszok,vilakszom,lakik,-szik,2,PR2003,2000,nő,nem,2022-03-29_23h37.51.858,hesp_baseline,2021.2.3,Win32,60.25185274
,,,,,,,,,,,,,,,,,brobódzok,brobódzom,right,135.1955,0,63,63,96,1,43,brobódzik,brobódzol,NA,NA,Te bizony sokat brobódzol.,Én is sokat...,brobódzok,brobódzom,lakik,-zik,2,PR2003,2000,nő,nem,2022-03-29_23h37.51.858,hesp_baseline,2021.2.3,Win32,60.25185274
,,,,,,,,,,,,,,,,,pöröztök,pörzötök,right,13.4226,0,64,64,153,1,46,pörzik / pörözik,"pörzik, pörözni",tek,NA,"János imád pörözni, ezért sokat pörzik.",Ti ritkán...,pörzötök,pöröztök,cselekszik,-zik,1,PR2003,2000,nő,nem,2022-03-29_23h37.51.858,hesp_baseline,2021.2.3,Win32,60.25185274
,,,,,,,,,,,,,,,,,brarlom,brarlok,left,9.7769,0,65,65,71,1,18,brarlik,brarlasz,NA,NA,Te bizony sokat brarlasz.,Én is sokat...,brarlok,brarlom,lakik,-lik,1,PR2003,2000,nő,nem,2022-03-29_23h37.51.858,hesp_baseline,2021.2.3,Win32,60.25185274
,,,,,,,,,,,,,,,,,brivakoztok,brivaklotok,right,4.2971,0,66,66,134,1,27,brivaklik / brivakozik,"brivaklik, brivakozni",tek,NA,"János imád brivakozni, ezért sokat brivaklik.",Ti ritkán...,brivaklotok,brivakoztok,cselekszik,-lik,2,PR2003,2000,nő,nem,2022-03-29_23h37.51.858,hesp_baseline,2021.2.3,Win32,60.25185274
,,,,,,,,,,,,,,,,,pivédban,pivédben,right,6.0668,0,67,67,52,1,53,pivéd,pivéd,ban,é,Ez itt egy pivéd.,Ott vagyunk a...,pivédben,pivédban,dzsungel,NA,NA,PR2003,2000,nő,nem,2022-03-29_23h37.51.858,hesp_baseline,2021.2.3,Win32,60.25185274
,,,,,,,,,,,,,,,,,hijegynél,hijegynál,left,4.7389,0,68,68,4,1,5,hijegy,hijegy,nál,e,Ez itt egy hijegy.,Nincs is jobb egy jó...,hijegynél,hijegynál,dzsungel,NA,NA,PR2003,2000,nő,nem,2022-03-29_23h37.51.858,hesp_baseline,2021.2.3,Win32,60.25185274
,,,,,,,,,,,,,,,,,sztremlem,sztremlek,right,12.5545,0,69,69,95,1,42,sztremlik,sztremlesz,NA,NA,Te bizony sokat sztremlesz.,Én is sokat...,sztremlek,sztremlem,lakik,-lik,1,PR2003,2000,nő,nem,2022-03-29_23h37.51.858,hesp_baseline,2021.2.3,Win32,60.25185274
,,,,,,,,,,,,,,,,,sihennál,sihennél,right,2.9579,0,70,70,18,1,19,sihen,sihen,nál,e,Ez itt egy sihen.,Nincs is jobb egy jó...,sihennél,sihennál,dzsungel,NA,NA,PR2003,2000,nő,nem,2022-03-29_23h37.51.858,hesp_baseline,2021.2.3,Win32,60.25185274
,,,,,,,,,,,,,,,,,klordénynak,klordénynek,right,49.6558,0,71,71,9,1,10,klordény,klordény,nak,é,Ez itt egy klordény.,Elneveztem a kutyámat...,klordénynek,klordénynak,dzsungel,NA,NA,PR2003,2000,nő,nem,2022-03-29_23h37.51.858,hesp_baseline,2021.2.3,Win32,60.25185274
,,,,,,,,,,,,,,,,,vismernál,vismernél,right,2.6706,0,72,72,13,1,14,vismer,vismer,nál,e,Ez itt egy vismer.,Nincs is jobb egy jó...,vismernél,vismernál,dzsungel,NA,NA,PR2003,2000,nő,nem,2022-03-29_23h37.51.858,hesp_baseline,2021.2.3,Win32,60.25185274
,,,,,,,,,,,,,,,,,dutecnál,dutecnél,right,4.5359,0,73,73,22,1,23,dutec,dutec,nál,e,Ez itt egy dutec.,Nincs is jobb egy jó...,dutecnél,dutecnál,dzsungel,NA,NA,PR2003,2000,nő,nem,2022-03-29_23h37.51.858,hesp_baseline,2021.2.3,Win32,60.25185274
,,,,,,,,,,,,,,,,,jalrénynál,jalrénynél,right,4.6603,0,74,74,0,1,1,jalrény,jalrény,nál,é,Ez itt egy jalrény.,Nincs is jobb egy jó...,jalrénynél,jalrénynál,dzsungel,NA,NA,PR2003,2000,nő,nem,2022-03-29_23h37.51.858,hesp_baseline,2021.2.3,Win32,60.25185274
,,,,,,,,,,,,,,,,,gonszéknél,gonszéknál,left,4.4328,0,75,75,38,1,39,gonszék,gonszék,nál,é,Ez itt egy gonszék.,Nincs is jobb egy jó...,gonszéknél,gonszéknál,dzsungel,NA,NA,PR2003,2000,nő,nem,2022-03-29_23h37.51.858,hesp_baseline,2021.2.3,Win32,60.25185274
,,,,,,,,,,,,,,,,,salárzom,salárzok,right,4.8312,0,76,76,103,1,50,salárzik,salárzol,NA,NA,Te bizony sokat salárzol.,Én is sokat...,salárzok,salárzom,lakik,-zik,2,PR2003,2000,nő,nem,2022-03-29_23h37.51.858,hesp_baseline,2021.2.3,Win32,60.25185274
,,,,,,,,,,,,,,,,,dábegyben,dábegyban,left,4.9758,0,77,77,6,1,7,dábegy,dábegy,ban,e,Ez itt egy dábegy.,Ott vagyunk a...,dábegyben,dábegyban,dzsungel,NA,NA,PR2003,2000,nő,nem,2022-03-29_23h37.51.858,hesp_baseline,2021.2.3,Win32,60.25185274
,,,,,,,,,,,,,,,,,privékszenek,privékednek,right,5.3515,0,78,78,149,1,42,privékszik / privékedik,"privékszik, privékedni",nek,NA,"János imád privékedni, ezért sokat privékszik.",Ők ritkán...,privékszenek,privékednek,cselekszik,-szik,2,PR2003,2000,nő,nem,2022-03-29_23h37.51.858,hesp_baseline,2021.2.3,Win32,60.25185274
,,,,,,,,,,,,,,,,,lihénynek,lihénynak,left,5.7214,0,79,79,23,1,24,lihény,lihény,nak,é,Ez itt egy lihény.,Elneveztem a kutyámat...,lihénynek,lihénynak,dzsungel,NA,NA,PR2003,2000,nő,nem,2022-03-29_23h37.51.858,hesp_baseline,2021.2.3,Win32,60.25185274
,,,,,,,,,,,,,,,,,flagárzom,flagárzok,left,4.4625,0,80,80,64,1,11,flagárzik,flagárzol,NA,NA,Te bizony sokat flagárzol.,Én is sokat...,flagárzok,flagárzom,lakik,-zik,2,PR2003,2000,nő,nem,2022-03-29_23h37.51.858,hesp_baseline,2021.2.3,Win32,60.25185274
,,,,,,,,,,,,,,,,,sprimlunk,sprimozunk,right,6.1326,0,81,81,127,1,20,sprimlik / sprimozik,"sprimlik, sprimozni",ünk,NA,"János imád sprimozni, ezért sokat sprimlik.",Mi ritkán...,sprimlunk,sprimozunk,cselekszik,-lik,1,PR2003,2000,nő,nem,2022-03-29_23h37.51.858,hesp_baseline,2021.2.3,Win32,60.25185274
,,,,,,,,,,,,,,,,,hosétnek,hosétnak,left,4.7404,0,82,82,8,1,9,hosét,hosét,nak,é,Ez itt egy hosét.,Elneveztem a kutyámat...,hosétnek,hosétnak,dzsungel,NA,NA,PR2003,2000,nő,nem,2022-03-29_23h37.51.858,hesp_baseline,2021.2.3,Win32,60.25185274
,,,,,,,,,,,,,,,,,frágapszom,frágapszok,left,18.1812,0,83,83,60,1,7,frágapszik,frágapszol,NA,NA,Te bizony sokat frágapszol.,Én is sokat...,frágapszok,frágapszom,lakik,-szik,2,PR2003,2000,nő,nem,2022-03-29_23h37.51.858,hesp_baseline,2021.2.3,Win32,60.25185274
,,,,,,,,,,,,,,,,,dunkészban,dunkészben,right,2.8407,0,84,84,24,1,25,dunkész,dunkész,ban,é,Ez itt egy dunkész.,Ott vagyunk a...,dunkészben,dunkészban,dzsungel,NA,NA,PR2003,2000,nő,nem,2022-03-29_23h37.51.858,hesp_baseline,2021.2.3,Win32,60.25185274
,,,,,,,,,,,,,,,,,marzom,marzok,left,2.5861,0,85,85,99,1,46,marzik,marzol,NA,NA,Te bizony sokat marzol.,Én is sokat...,marzok,marzom,lakik,-zik,1,PR2003,2000,nő,nem,2022-03-29_23h37.51.858,hesp_baseline,2021.2.3,Win32,60.25185274
,,,,,,,,,,,,,,,,,dajrensnél,dajrensnál,left,4.1103,0,86,86,49,1,50,dajrens,dajrens,nál,e,Ez itt egy dajrens.,Nincs is jobb egy jó...,dajrensnél,dajrensnál,dzsungel,NA,NA,PR2003,2000,nő,nem,2022-03-29_23h37.51.858,hesp_baseline,2021.2.3,Win32,60.25185274
,,,,,,,,,,,,,,,,,feténylek,feténylem,right,7.0445,0,87,87,85,1,32,feténylik,feténylesz,NA,NA,Te bizony sokat feténylesz.,Én is sokat...,feténylek,feténylem,lakik,-lik,2,PR2003,2000,nő,nem,2022-03-29_23h37.51.858,hesp_baseline,2021.2.3,Win32,60.25185274
,,,,,,,,,,,,,,,,,bralképban,bralképben,right,3.4466,0,88,88,12,1,13,bralkép,bralkép,ban,é,Ez itt egy bralkép.,Ott vagyunk a...,bralképben,bralképban,dzsungel,NA,NA,PR2003,2000,nő,nem,2022-03-29_23h37.51.858,hesp_baseline,2021.2.3,Win32,60.25185274
,,,,,,,,,,,,,,,,,gábédnál,gábédnél,right,3.5936,0,89,89,39,1,40,gábéd,gábéd,nál,é,Ez itt egy gábéd.,Nincs is jobb egy jó...,gábédnél,gábédnál,dzsungel,NA,NA,PR2003,2000,nő,nem,2022-03-29_23h37.51.858,hesp_baseline,2021.2.3,Win32,60.25185274
,,,,,,,,,,,,,,,,,frakozunk,fraklunk,right,7.8481,0,90,90,159,1,52,fraklik / frakozik,"fraklik, frakozni",ünk,NA,"János imád frakozni, ezért sokat fraklik.",Mi ritkán...,fraklunk,frakozunk,cselekszik,-lik,1,PR2003,2000,nő,nem,2022-03-29_23h37.51.858,hesp_baseline,2021.2.3,Win32,60.25185274
,,,,,,,,,,,,,,,,,tágarozunk,tágarzunk,right,5.6022,0,91,91,155,1,48,tágarzik / tágarozik,"tágarzik, tágarozni",ünk,NA,"János imád tágarozni, ezért sokat tágarzik.",Mi ritkán...,tágarzunk,tágarozunk,cselekszik,-zik,2,PR2003,2000,nő,nem,2022-03-29_23h37.51.858,hesp_baseline,2021.2.3,Win32,60.25185274
,,,,,,,,,,,,,,,,,gatáglunk,gatágozunk,right,9.7672,0,92,92,137,1,30,gatáglik / gatágozik,"gatáglik, gatágozni",ünk,NA,"János imád gatágozni, ezért sokat gatáglik.",Mi ritkán...,gatáglunk,gatágozunk,cselekszik,-lik,2,PR2003,2000,nő,nem,2022-03-29_23h37.51.858,hesp_baseline,2021.2.3,Win32,60.25185274
,,,,,,,,,,,,,,,,,pugoslok,pugoslom,right,3.5056,0,93,93,84,1,31,pugoslik,pugoslasz,NA,NA,Te bizony sokat pugoslasz.,Én is sokat...,pugoslok,pugoslom,lakik,-lik,2,PR2003,2000,nő,nem,2022-03-29_23h37.51.858,hesp_baseline,2021.2.3,Win32,60.25185274
,,,,,,,,,,,,,,,,,jorzégnak,jorzégnek,right,2.363,0,94,94,45,1,46,jorzég,jorzég,nak,é,Ez itt egy jorzég.,Elneveztem a kutyámat...,jorzégnek,jorzégnak,dzsungel,NA,NA,PR2003,2000,nő,nem,2022-03-29_23h37.51.858,hesp_baseline,2021.2.3,Win32,60.25185274
,,,,,,,,,,,,,,,,,naremben,naremban,left,4.575,0,95,95,2,1,3,narem,narem,ban,e,Ez itt egy narem.,Ott vagyunk a...,naremben,naremban,dzsungel,NA,NA,PR2003,2000,nő,nem,2022-03-29_23h37.51.858,hesp_baseline,2021.2.3,Win32,60.25185274
,,,,,,,,,,,,,,,,,hivépben,hivépban,left,2.1886,0,96,96,44,1,45,hivép,hivép,ban,é,Ez itt egy hivép.,Ott vagyunk a...,hivépben,hivépban,dzsungel,NA,NA,PR2003,2000,nő,nem,2022-03-29_23h37.51.858,hesp_baseline,2021.2.3,Win32,60.25185274
,,,,,,,,,,,,,,,,,spélszem,spélszek,left,3.9483,0,97,97,68,1,15,spélszik,spélszel,NA,NA,Te bizony sokat spélszel.,Én is sokat...,spélszek,spélszem,lakik,-szik,1,PR2003,2000,nő,nem,2022-03-29_23h37.51.858,hesp_baseline,2021.2.3,Win32,60.25185274
,,,,,,,,,,,,,,,,,szibedben,szibedban,left,1.8092,0,98,98,47,1,48,szibed,szibed,ban,e,Ez itt egy szibed.,Ott vagyunk a...,szibedben,szibedban,dzsungel,NA,NA,PR2003,2000,nő,nem,2022-03-29_23h37.51.858,hesp_baseline,2021.2.3,Win32,60.25185274
,,,,,,,,,,,,,,,,,jutélynél,jutélynál,left,3.5471,0,99,99,11,1,12,jutély,jutély,nál,é,Ez itt egy jutély.,Nincs is jobb egy jó...,jutélynél,jutélynál,dzsungel,NA,NA,PR2003,2000,nő,nem,2022-03-29_23h37.51.858,hesp_baseline,2021.2.3,Win32,60.25185274
,,,,,,,,,,,,,,,,,froroznak,frorlanak,right,4.0368,0,100,100,143,1,36,frorlik / frorozik,"frorlik, frorozni",nek,NA,"János imád frorozni, ezért sokat frorlik.",Ők ritkán...,frorlanak,froroznak,cselekszik,-lik,1,PR2003,2000,nő,nem,2022-03-29_23h37.51.858,hesp_baseline,2021.2.3,Win32,60.25185274
,,,,,,,,,,,,,,,,,herégszem,herégszek,left,4.5801,0,101,101,54,1,1,herégszik,herégszel,NA,NA,Te bizony sokat herégszel.,Én is sokat...,herégszek,herégszem,lakik,-szik,2,PR2003,2000,nő,nem,2022-03-29_23h37.51.858,hesp_baseline,2021.2.3,Win32,60.25185274
,,,,,,,,,,,,,,,,,spilágzom,spilágzok,left,5.2022,0,102,102,76,1,23,spilágzik,spilágzol,NA,NA,Te bizony sokat spilágzol.,Én is sokat...,spilágzok,spilágzom,lakik,-zik,2,PR2003,2000,nő,nem,2022-03-29_23h37.51.858,hesp_baseline,2021.2.3,Win32,60.25185274
,,,,,,,,,,,,,,,,,spicetnek,spicetnak,left,2.6623,0,103,103,35,1,36,spicet,spicet,nak,e,Ez itt egy spicet.,Elneveztem a kutyámat...,spicetnek,spicetnak,dzsungel,NA,NA,PR2003,2000,nő,nem,2022-03-29_23h37.51.858,hesp_baseline,2021.2.3,Win32,60.25185274
,,,,,,,,,,,,,,,,,gyivádzok,gyivádzom,right,2.8241,0,104,104,87,1,34,gyivádzik,gyivádzol,NA,NA,Te bizony sokat gyivádzol.,Én is sokat...,gyivádzok,gyivádzom,lakik,-zik,2,PR2003,2000,nő,nem,2022-03-29_23h37.51.858,hesp_baseline,2021.2.3,Win32,60.25185274
,,,,,,,,,,,,,,,,,frinylunk,frinyozunk,right,4.5507,0,105,105,133,1,26,frinylik / frinyozik,"frinylik, frinyozni",ünk,NA,"János imád frinyozni, ezért sokat frinylik.",Mi ritkán...,frinylunk,frinyozunk,cselekszik,-lik,1,PR2003,2000,nő,nem,2022-03-29_23h37.51.858,hesp_baseline,2021.2.3,Win32,60.25185274
,,,,,,,,,,,,,,,,,flivegzenek,flivegeznek,right,3.9962,0,106,106,138,1,31,flivegzik / flivegezik,"flivegzik, flivegezni",nek,NA,"János imád flivegezni, ezért sokat flivegzik.",Ők ritkán...,flivegzenek,flivegeznek,cselekszik,-zik,2,PR2003,2000,nő,nem,2022-03-29_23h37.51.858,hesp_baseline,2021.2.3,Win32,60.25185274
,,,,,,,,,,,,,,,,,kaszépnek,kaszépnak,right,8.5704,0,107,107,40,1,41,kaszép,kaszép,nak,é,Ez itt egy kaszép.,Elneveztem a kutyámat...,kaszépnek,kaszépnak,dzsungel,NA,NA,PR2003,2000,nő,nem,2022-03-29_23h37.51.858,hesp_baseline,2021.2.3,Win32,60.25185274
,,,,,,,,,,,,,,,,,szibánylok,szibánylom,right,4.3118,0,108,108,67,1,14,szibánylik,szibánylasz,NA,NA,Te bizony sokat szibánylasz.,Én is sokat...,szibánylok,szibánylom,lakik,-lik,2,PR2003,2000,nő,nem,2022-03-29_23h37.51.858,hesp_baseline,2021.2.3,Win32,60.25185274
,,,,,,,,,,,,,,,,,fágyépnál,fágyépnél,right,3.2674,0,109,109,10,1,11,fágyép,fágyép,nál,é,Ez itt egy fágyép.,Nincs is jobb egy jó...,fágyépnél,fágyépnál,dzsungel,NA,NA,PR2003,2000,nő,nem,2022-03-29_23h37.51.858,hesp_baseline,2021.2.3,Win32,60.25185274
,,,,,,,,,,,,,,,,,csibagzotok,csibagoztok,left,7.1244,0,110,110,114,1,7,csibagzik / csibagozik,"csibagzik, csibagozni",tek,NA,"János imád csibagozni, ezért sokat csibagzik.",Ti ritkán...,csibagzotok,csibagoztok,cselekszik,-zik,2,PR2003,2000,nő,nem,2022-03-29_23h37.51.858,hesp_baseline,2021.2.3,Win32,60.25185274
,,,,,,,,,,,,,,,,,zsopédben,zsopédban,right,5.9988,0,111,111,50,1,51,zsopéd,zsopéd,ban,é,Ez itt egy zsopéd.,Ott vagyunk a...,zsopédben,zsopédban,dzsungel,NA,NA,PR2003,2000,nő,nem,2022-03-29_23h37.51.858,hesp_baseline,2021.2.3,Win32,60.25185274
,,,,,,,,,,,,,,,,,flérlek,flérlem,right,7.5118,0,112,112,89,1,36,flérlik,flérlesz,NA,NA,Te bizony sokat flérlesz.,Én is sokat...,flérlek,flérlem,lakik,-lik,1,PR2003,2000,nő,nem,2022-03-29_23h37.51.858,hesp_baseline,2021.2.3,Win32,60.25185274
,,,,,,,,,,,,,,,,,flehénylem,flehénylek,right,2.8328,0,113,113,106,1,53,flehénylik,flehénylesz,NA,NA,Te bizony sokat flehénylesz.,Én is sokat...,flehénylek,flehénylem,lakik,-lik,2,PR2003,2000,nő,nem,2022-03-29_23h37.51.858,hesp_baseline,2021.2.3,Win32,60.25185274
,,,,,,,,,,,,,,,,,pilégednek,pilégszenek,right,31.4738,0,114,114,150,1,43,pilégszik / pilégedik,"pilégszik, pilégedni",nek,NA,"János imád pilégedni, ezért sokat pilégszik.",Ők ritkán...,pilégszenek,pilégednek,cselekszik,-szik,2,PR2003,2000,nő,nem,2022-03-29_23h37.51.858,hesp_baseline,2021.2.3,Win32,60.25185274
,,,,,,,,,,,,,,,,,csublényben,csublényban,right,2.8652,0,115,115,16,1,17,csublény,csublény,ban,é,Ez itt egy csublény.,Ott vagyunk a...,csublényben,csublényban,dzsungel,NA,NA,PR2003,2000,nő,nem,2022-03-29_23h37.51.858,hesp_baseline,2021.2.3,Win32,60.25185274
,,,,,,,,,,,,,,,,,drügzöm,drügzök,left,4.5764,0,116,116,72,1,19,drügzik,drügzöl,NA,NA,Te bizony sokat drügzöl.,Én is sokat...,drügzök,drügzöm,lakik,-zik,1,PR2003,2000,nő,nem,2022-03-29_23h37.51.858,hesp_baseline,2021.2.3,Win32,60.25185274
,,,,,,,,,,,,,,,,,rokszok,rokszom,right,5.129,0,117,117,101,1,48,rokszik,rokszol,NA,NA,Te bizony sokat rokszol.,Én is sokat...,rokszok,rokszom,lakik,-szik,1,PR2003,2000,nő,nem,2022-03-29_23h37.51.858,hesp_baseline,2021.2.3,Win32,60.25185274
,,,,,,,,,,,,,,,,,tivencben,tivencban,left,1.8502,0,118,118,53,1,54,tivenc,tivenc,ban,e,Ez itt egy tivenc.,Ott vagyunk a...,tivencben,tivencban,dzsungel,NA,NA,PR2003,2000,nő,nem,2022-03-29_23h37.51.858,hesp_baseline,2021.2.3,Win32,60.25185274
,,,,,,,,,,,,,,,,,trukszotok,trukodtok,right,6.1039,0,119,119,157,1,50,trukszik / trukodik,"trukszik, trukodni",tek,NA,"János imád trukodni, ezért sokat trukszik.",Ti ritkán...,trukszotok,trukodtok,cselekszik,-szik,1,PR2003,2000,nő,nem,2022-03-29_23h37.51.858,hesp_baseline,2021.2.3,Win32,60.25185274
,,,,,,,,,,,,,,,,,monvegnál,monvegnél,right,3.7774,0,120,120,26,1,27,monveg,monveg,nál,e,Ez itt egy monveg.,Nincs is jobb egy jó...,monvegnél,monvegnál,dzsungel,NA,NA,PR2003,2000,nő,nem,2022-03-29_23h37.51.858,hesp_baseline,2021.2.3,Win32,60.25185274
,,,,,,,,,,,,,,,,,pítszom,pítszok,left,6.3653,0,121,121,62,1,9,pítszik,pítszol,NA,NA,Te bizony sokat pítszol.,Én is sokat...,pítszok,pítszom,lakik,-szik,1,PR2003,2000,nő,nem,2022-03-29_23h37.51.858,hesp_baseline,2021.2.3,Win32,60.25185274
,,,,,,,,,,,,,,,,,spűmlök,spűmlöm,right,5.1859,0,122,122,86,1,33,spűmlik,spűmlesz,NA,NA,Te bizony sokat spűmlesz.,Én is sokat...,spűmlök,spűmlöm,lakik,-lik,1,PR2003,2000,nő,nem,2022-03-29_23h37.51.858,hesp_baseline,2021.2.3,Win32,60.25185274
,,,,,,,,,,,,,,,,,nyizlunk,nyizozunk,right,4.5523,0,123,123,135,1,28,nyizlik / nyizozik,"nyizlik, nyizozni",ünk,NA,"János imád nyizozni, ezért sokat nyizlik.",Mi ritkán...,nyizlunk,nyizozunk,cselekszik,-lik,1,PR2003,2000,nő,nem,2022-03-29_23h37.51.858,hesp_baseline,2021.2.3,Win32,60.25185274
,,,,,,,,,,,,,,,,,brözöztök,brözlötök,right,25.7336,0,124,124,145,1,38,brözlik / brözözik,"brözlik, brözözni",tek,NA,"János imád brözözni, ezért sokat brözlik.",Ti ritkán...,brözlötök,brözöztök,cselekszik,-lik,1,PR2003,2000,nő,nem,2022-03-29_23h37.51.858,hesp_baseline,2021.2.3,Win32,60.25185274
,,,,,,,,,,,,,,,,,dujzanak,dujoznak,left,4.0546,0,125,125,128,1,21,dujzik / dujozik,"dujzik, dujozni",nek,NA,"János imád dujozni, ezért sokat dujzik.",Ők ritkán...,dujzanak,dujoznak,cselekszik,-zik,1,PR2003,2000,nő,nem,2022-03-29_23h37.51.858,hesp_baseline,2021.2.3,Win32,60.25185274
,,,,,,,,,,,,,,,,,plövőrzök,plövőrzöm,right,16.1872,0,126,126,58,1,5,plövőrzik,plövőrzöl,NA,NA,Te bizony sokat plövőrzöl.,Én is sokat...,plövőrzök,plövőrzöm,lakik,-zik,2,PR2003,2000,nő,nem,2022-03-29_23h37.51.858,hesp_baseline,2021.2.3,Win32,60.25185274
,,,,,,,,,,,,,,,,,lorzensnél,lorzensnál,left,3.2627,0,127,127,34,1,35,lorzens,lorzens,nál,e,Ez itt egy lorzens.,Nincs is jobb egy jó...,lorzensnél,lorzensnál,dzsungel,NA,NA,PR2003,2000,nő,nem,2022-03-29_23h37.51.858,hesp_baseline,2021.2.3,Win32,60.25185274
,,,,,,,,,,,,,,,,,míslunk,mísozunk,left,5.1175,0,128,128,123,1,16,míslik / mísozik,"míslik, mísozni",ünk,NA,"János imád mísozni, ezért sokat míslik.",Mi ritkán...,míslunk,mísozunk,cselekszik,-lik,1,PR2003,2000,nő,nem,2022-03-29_23h37.51.858,hesp_baseline,2021.2.3,Win32,60.25185274
,,,,,,,,,,,,,,,,,spibaklom,spibaklok,right,4.8548,0,129,129,55,1,2,spibaklik,spibaklasz,NA,NA,Te bizony sokat spibaklasz.,Én is sokat...,spibaklok,spibaklom,lakik,-lik,2,PR2003,2000,nő,nem,2022-03-29_23h37.51.858,hesp_baseline,2021.2.3,Win32,60.25185274
,,,,,,,,,,,,,,,,,prélemlenek,prélemeznek,right,25.9761,0,130,130,110,1,3,prélemlik / prélemezik,"prélemlik, prélemezni",nek,NA,"János imád prélemezni, ezért sokat prélemlik.",Ők ritkán...,prélemlenek,prélemeznek,cselekszik,-lik,2,PR2003,2000,nő,nem,2022-03-29_23h37.51.858,hesp_baseline,2021.2.3,Win32,60.25185274
,,,,,,,,,,,,,,,,,filágzom,filágzok,right,1.4854,0,131,131,102,1,49,filágzik,filágzol,NA,NA,Te bizony sokat filágzol.,Én is sokat...,filágzok,filágzom,lakik,-zik,2,PR2003,2000,nő,nem,2022-03-29_23h37.51.858,hesp_baseline,2021.2.3,Win32,60.25185274
,,,,,,,,,,,,,,,,,trihagzom,trihagzok,left,1.8958,0,132,132,83,1,30,trihagzik,trihagzol,NA,NA,Te bizony sokat trihagzol.,Én is sokat...,trihagzok,trihagzom,lakik,-zik,2,PR2003,2000,nő,nem,2022-03-29_23h37.51.858,hesp_baseline,2021.2.3,Win32,60.25185274
,,,,,,,,,,,,,,,,,kadérnál,kadérnél,left,3.8796,0,133,133,7,1,8,kadér,kadér,nál,é,Ez itt egy kadér.,Nincs is jobb egy jó...,kadérnél,kadérnál,dzsungel,NA,NA,PR2003,2000,nő,nem,2022-03-29_23h37.51.858,hesp_baseline,2021.2.3,Win32,60.25185274
,,,,,,,,,,,,,,,,,fádensnak,fádensnek,right,2.0711,0,134,134,33,1,34,fádens,fádens,nak,e,Ez itt egy fádens.,Elneveztem a kutyámat...,fádensnek,fádensnak,dzsungel,NA,NA,PR2003,2000,nő,nem,2022-03-29_23h37.51.858,hesp_baseline,2021.2.3,Win32,60.25185274
,,,,,,,,,,,,,,,,,géregletek,géregeztek,right,4.2896,0,135,135,124,1,17,géreglik / géregezik,"géreglik, géregezni",tek,NA,"János imád géregezni, ezért sokat géreglik.",Ti ritkán...,géregletek,géregeztek,cselekszik,-lik,2,PR2003,2000,nő,nem,2022-03-29_23h37.51.858,hesp_baseline,2021.2.3,Win32,60.25185274
,,,,,,,,,,,,,,,,,hurjorzom,hurjorzok,left,4.1821,0,136,136,59,1,6,hurjorzik,hurjorzol,NA,NA,Te bizony sokat hurjorzol.,Én is sokat...,hurjorzok,hurjorzom,lakik,-zik,2,PR2003,2000,nő,nem,2022-03-29_23h37.51.858,hesp_baseline,2021.2.3,Win32,60.25185274
,,,,,,,,,,,,,,,,,píjlok,píjlom,right,2.6871,0,137,137,75,1,22,píjlik,píjlasz,NA,NA,Te bizony sokat píjlasz.,Én is sokat...,píjlok,píjlom,lakik,-lik,1,PR2003,2000,nő,nem,2022-03-29_23h37.51.858,hesp_baseline,2021.2.3,Win32,60.25185274
,,,,,,,,,,,,,,,,,bügöznek,bügzenek,right,2.5565,0,138,138,118,1,11,bügzik / bügözik,"bügzik, bügözni",nek,NA,"János imád bügözni, ezért sokat bügzik.",Ők ritkán...,bügzenek,bügöznek,cselekszik,-zik,1,PR2003,2000,nő,nem,2022-03-29_23h37.51.858,hesp_baseline,2021.2.3,Win32,60.25185274
,,,,,,,,,,,,,,,,,spatszok,spatszom,right,1.4573,0,139,139,73,1,20,spatszik,spatszol,NA,NA,Te bizony sokat spatszol.,Én is sokat...,spatszok,spatszom,lakik,-szik,1,PR2003,2000,nő,nem,2022-03-29_23h37.51.858,hesp_baseline,2021.2.3,Win32,60.25185274
,,,,,,,,,,,,,,,,,brubzok,brubzom,right,10.2903,0,140,140,92,1,39,brubzik,brubzol,NA,NA,Te bizony sokat brubzol.,Én is sokat...,brubzok,brubzom,lakik,-zik,1,PR2003,2000,nő,nem,2022-03-29_23h37.51.858,hesp_baseline,2021.2.3,Win32,60.25185274
,,,,,,,,,,,,,,,,,püzöztök,püzlötök,right,16.1532,0,141,141,152,1,45,püzlik / püzözik,"püzlik, püzözni",tek,NA,"János imád püzözni, ezért sokat püzlik.",Ti ritkán...,püzlötök,püzöztök,cselekszik,-lik,1,PR2003,2000,nő,nem,2022-03-29_23h37.51.858,hesp_baseline,2021.2.3,Win32,60.25185274
,,,,,,,,,,,,,,,,,hóbensben,hóbensban,left,2.3977,0,142,142,3,1,4,hóbens,hóbens,ban,e,Ez itt egy hóbens.,Ott vagyunk a...,hóbensben,hóbensban,dzsungel,NA,NA,PR2003,2000,nő,nem,2022-03-29_23h37.51.858,hesp_baseline,2021.2.3,Win32,60.25185274
,,,,,,,,,,,,,,,,,brülösözünk,brülöslünk,left,4.8796,0,143,143,109,1,2,brülöslik / brülösözik,"brülöslik, brülösözni",ünk,NA,"János imád brülösözni, ezért sokat brülöslik.",Mi ritkán...,brülöslünk,brülösözünk,cselekszik,-lik,2,PR2003,2000,nő,nem,2022-03-29_23h37.51.858,hesp_baseline,2021.2.3,Win32,60.25185274
,,,,,,,,,,,,,,,,,nyülöklenek,nyülököznek,left,4.2105,0,144,144,108,1,1,nyülöklik / nyülöközik,"nyülöklik, nyülöközni",nek,NA,"János imád nyülöközni, ezért sokat nyülöklik.",Ők ritkán...,nyülöklenek,nyülököznek,cselekszik,-lik,2,PR2003,2000,nő,nem,2022-03-29_23h37.51.858,hesp_baseline,2021.2.3,Win32,60.25185274
,,,,,,,,,,,,,,,,,flözlök,flözlöm,right,3.4605,0,145,145,74,1,21,flözlik,flözlesz,NA,NA,Te bizony sokat flözlesz.,Én is sokat...,flözlök,flözlöm,lakik,-lik,1,PR2003,2000,nő,nem,2022-03-29_23h37.51.858,hesp_baseline,2021.2.3,Win32,60.25185274
,,,,,,,,,,,,,,,,,jüslöm,jüslök,left,2.0261,0,146,146,56,1,3,jüslik,jüslesz,NA,NA,Te bizony sokat jüslesz.,Én is sokat...,jüslök,jüslöm,lakik,-lik,1,PR2003,2000,nő,nem,2022-03-29_23h37.51.858,hesp_baseline,2021.2.3,Win32,60.25185274
,,,,,,,,,,,,,,,,,galároznak,galárzanak,right,5.1886,0,147,147,154,1,47,galárzik / galározik,"galárzik, galározni",nek,NA,"János imád galározni, ezért sokat galárzik.",Ők ritkán...,galárzanak,galároznak,cselekszik,-zik,2,PR2003,2000,nő,nem,2022-03-29_23h37.51.858,hesp_baseline,2021.2.3,Win32,60.25185274
,,,,,,,,,,,,,,,,,hiragoznak,hiragzanak,right,3.4501,0,148,148,119,1,12,hiragzik / hiragozik,"hiragzik, hiragozni",nek,NA,"János imád hiragozni, ezért sokat hiragzik.",Ők ritkán...,hiragzanak,hiragoznak,cselekszik,-zik,2,PR2003,2000,nő,nem,2022-03-29_23h37.51.858,hesp_baseline,2021.2.3,Win32,60.25185274
,,,,,,,,,,,,,,,,,drűröznek,drűrzenek,right,1.2816,0,149,149,126,1,19,drűrzik / drűrözik,"drűrzik, drűrözni",nek,NA,"János imád drűrözni, ezért sokat drűrzik.",Ők ritkán...,drűrzenek,drűröznek,cselekszik,-zik,1,PR2003,2000,nő,nem,2022-03-29_23h37.51.858,hesp_baseline,2021.2.3,Win32,60.25185274
,,,,,,,,,,,,,,,,,sprédlem,sprédlek,right,0.3659,0,150,150,70,1,17,sprédlik,sprédlesz,NA,NA,Te bizony sokat sprédlesz.,Én is sokat...,sprédlek,sprédlem,lakik,-lik,1,PR2003,2000,nő,nem,2022-03-29_23h37.51.858,hesp_baseline,2021.2.3,Win32,60.25185274
,,,,,,,,,,,,,,,,,fökszenek,föködnek,right,0.307,0,151,151,131,1,24,fökszik / föködik,"fökszik, föködni",nek,NA,"János imád föködni, ezért sokat fökszik.",Ők ritkán...,fökszenek,föködnek,cselekszik,-szik,1,PR2003,2000,nő,nem,2022-03-29_23h37.51.858,hesp_baseline,2021.2.3,Win32,60.25185274
,,,,,,,,,,,,,,,,,brüszöztök,brüszlötök,left,0.1425,0,152,152,130,1,23,brüszlik / brüszözik,"brüszlik, brüszözni",tek,NA,"János imád brüszözni, ezért sokat brüszlik.",Ti ritkán...,brüszlötök,brüszöztök,cselekszik,-lik,1,PR2003,2000,nő,nem,2022-03-29_23h37.51.858,hesp_baseline,2021.2.3,Win32,60.25185274
,,,,,,,,,,,,,,,,,pekszünk,pekedünk,left,0.2956,0,153,153,161,1,54,pekszik / pekedik,"pekszik, pekedni",ünk,NA,"János imád pekedni, ezért sokat pekszik.",Mi ritkán...,pekszünk,pekedünk,cselekszik,-szik,1,PR2003,2000,nő,nem,2022-03-29_23h37.51.858,hesp_baseline,2021.2.3,Win32,60.25185274
,,,,,,,,,,,,,,,,,prugoroztok,prugorzotok,right,0.0752,0,154,154,116,1,9,prugorzik / prugorozik,"prugorzik, prugorozni",tek,NA,"János imád prugorozni, ezért sokat prugorzik.",Ti ritkán...,prugorzotok,prugoroztok,cselekszik,-zik,2,PR2003,2000,nő,nem,2022-03-29_23h37.51.858,hesp_baseline,2021.2.3,Win32,60.25185274
,,,,,,,,,,,,,,,,,priszkencnek,priszkencnak,left,0.0536,0,155,155,20,1,21,priszkenc,priszkenc,nak,e,Ez itt egy priszkenc.,Elneveztem a kutyámat...,priszkencnek,priszkencnak,dzsungel,NA,NA,PR2003,2000,nő,nem,2022-03-29_23h37.51.858,hesp_baseline,2021.2.3,Win32,60.25185274
,,,,,,,,,,,,,,,,,brigesztnak,brigesztnek,right,0.5709,0,156,156,48,1,49,brigeszt,brigeszt,nak,e,Ez itt egy brigeszt.,Elneveztem a kutyámat...,brigesztnek,brigesztnak,dzsungel,NA,NA,PR2003,2000,nő,nem,2022-03-29_23h37.51.858,hesp_baseline,2021.2.3,Win32,60.25185274
,,,,,,,,,,,,,,,,,vihapszunk,vihapodunk,right,0.9246,0,157,157,112,1,5,vihapszik / vihapodik,"vihapszik, vihapodni",ünk,NA,"János imád vihapodni, ezért sokat vihapszik.",Mi ritkán...,vihapszunk,vihapodunk,cselekszik,-szik,2,PR2003,2000,nő,nem,2022-03-29_23h37.51.858,hesp_baseline,2021.2.3,Win32,60.25185274
,,,,,,,,,,,,,,,,,lumézban,lumézben,right,0.3603,0,158,158,32,1,33,luméz,luméz,ban,é,Ez itt egy luméz.,Ott vagyunk a...,lumézben,lumézban,dzsungel,NA,NA,PR2003,2000,nő,nem,2022-03-29_23h37.51.858,hesp_baseline,2021.2.3,Win32,60.25185274
,,,,,,,,,,,,,,,,,málapszok,málapszom,left,0.0467,0,159,159,66,1,13,málapszik,málapszol,NA,NA,Te bizony sokat málapszol.,Én is sokat...,málapszok,málapszom,lakik,-szik,2,PR2003,2000,nő,nem,2022-03-29_23h37.51.858,hesp_baseline,2021.2.3,Win32,60.25185274
,,,,,,,,,,,,,,,,,matézben,matézban,left,0.2481,0,160,160,37,1,38,matéz,matéz,ban,é,Ez itt egy matéz.,Ott vagyunk a...,matézben,matézban,dzsungel,NA,NA,PR2003,2000,nő,nem,2022-03-29_23h37.51.858,hesp_baseline,2021.2.3,Win32,60.25185274
,,,,,,,,,,,,,,,,,bregzünk,bregezünk,left,2.7177,0,161,161,139,1,32,bregzik / bregezik,"bregzik, bregezni",ünk,NA,"János imád bregezni, ezért sokat bregzik.",Mi ritkán...,bregzünk,bregezünk,cselekszik,-zik,1,PR2003,2000,nő,nem,2022-03-29_23h37.51.858,hesp_baseline,2021.2.3,Win32,60.25185274
