my_list,key.keys,key.rt,key_2.keys,key_2.rt,keyboard_input_2.keys,keyboard_input_2.rt,key_3.keys,key_3.rt,keyboard_input_3.keys,keyboard_input_3.rt,key_4.keys,key_4.rt,keyboard_input_4.keys,keyboard_input_4.rt,key_5.keys,key_5.rt,my_button1,my_button2,keyboard_input.keys,keyboard_input.rt,withinBlock.thisRepN,withinBlock.thisTrialN,withinBlock.thisN,withinBlock.thisIndex,withinBlock.ran,rowname,word,prompt,suffix,vowel,carrier_sentence,target_sentence,target1,target2,category,derivational,nsyl,Azonosító,Melyik évben születtél?,Mi a nemed?,Tanultál nyelvészetet?,date,expName,psychopyVersion,OS,frameRate
list1.csv,space,23.166,space,9.591,right,10.611,space,12.985,left,8.101,space,57.388,left,14.545,space,19.666,flehénylek,flehénylem,left,15.023,0,0,0,106,1,53,flehénylik,flehénylesz,NA,NA,Te bizony sokat flehénylesz.,Én is sokat...,flehénylek,flehénylem,lakik,-lik,2,PR2033,2001,férfi,nem,2022-04-09_13h16.33.019,hesp_baseline,2021.2.3,Win32,59.95203837
,,,,,,,,,,,,,,,,,prugorzotok,prugoroztok,right,39.033,0,1,1,116,1,9,prugorzik / prugorozik,"prugorzik, prugorozni",tek,NA,"János imád prugorozni, ezért sokat prugorzik.",Ti ritkán...,prugorzotok,prugoroztok,cselekszik,-zik,2,PR2033,2001,férfi,nem,2022-04-09_13h16.33.019,hesp_baseline,2021.2.3,Win32,59.95203837
,,,,,,,,,,,,,,,,,jalrénynál,jalrénynél,right,9.434,0,2,2,0,1,1,jalrény,jalrény,nál,é,Ez itt egy jalrény.,Nincs is jobb egy jó...,jalrénynél,jalrénynál,dzsungel,NA,NA,PR2033,2001,férfi,nem,2022-04-09_13h16.33.019,hesp_baseline,2021.2.3,Win32,59.95203837
,,,,,,,,,,,,,,,,,aglom,aglok,left,22.183,0,3,3,100,1,47,aglik,aglasz,NA,NA,Te bizony sokat aglasz.,Én is sokat...,aglok,aglom,lakik,-lik,1,PR2033,2001,férfi,nem,2022-04-09_13h16.33.019,hesp_baseline,2021.2.3,Win32,59.95203837
,,,,,,,,,,,,,,,,,pliboztok,plibzotok,left,24.854,0,4,4,140,1,33,plibzik / plibozik,"plibzik, plibozni",tek,NA,"János imád plibozni, ezért sokat plibzik.",Ti ritkán...,plibzotok,pliboztok,cselekszik,-zik,1,PR2033,2001,férfi,nem,2022-04-09_13h16.33.019,hesp_baseline,2021.2.3,Win32,59.95203837
,,,,,,,,,,,,,,,,,marzom,marzok,right,15.153,0,5,5,99,1,46,marzik,marzol,NA,NA,Te bizony sokat marzol.,Én is sokat...,marzok,marzom,lakik,-zik,1,PR2033,2001,férfi,nem,2022-04-09_13h16.33.019,hesp_baseline,2021.2.3,Win32,59.95203837
,,,,,,,,,,,,,,,,,flagárzok,flagárzom,right,6.208,0,6,6,64,1,11,flagárzik,flagárzol,NA,NA,Te bizony sokat flagárzol.,Én is sokat...,flagárzok,flagárzom,lakik,-zik,2,PR2033,2001,férfi,nem,2022-04-09_13h16.33.019,hesp_baseline,2021.2.3,Win32,59.95203837
,,,,,,,,,,,,,,,,,köszlötök,köszöztök,right,21.968,0,7,7,120,1,13,köszlik / köszözik,"köszlik, köszözni",tek,NA,"János imád köszözni, ezért sokat köszlik.",Ti ritkán...,köszlötök,köszöztök,cselekszik,-lik,1,PR2033,2001,férfi,nem,2022-04-09_13h16.33.019,hesp_baseline,2021.2.3,Win32,59.95203837
,,,,,,,,,,,,,,,,,zopélynál,zopélynél,right,7.564,0,8,8,5,1,6,zopély,zopély,nál,é,Ez itt egy zopély.,Nincs is jobb egy jó...,zopélynél,zopélynál,dzsungel,NA,NA,PR2033,2001,férfi,nem,2022-04-09_13h16.33.019,hesp_baseline,2021.2.3,Win32,59.95203837
,,,,,,,,,,,,,,,,,pilégednek,pilégszenek,left,17.034,0,9,9,150,1,43,pilégszik / pilégedik,"pilégszik, pilégedni",nek,NA,"János imád pilégedni, ezért sokat pilégszik.",Ők ritkán...,pilégszenek,pilégednek,cselekszik,-szik,2,PR2033,2001,férfi,nem,2022-04-09_13h16.33.019,hesp_baseline,2021.2.3,Win32,59.95203837
,,,,,,,,,,,,,,,,,lihénynek,lihénynak,left,8.451,0,10,10,23,1,24,lihény,lihény,nak,é,Ez itt egy lihény.,Elneveztem a kutyámat...,lihénynek,lihénynak,dzsungel,NA,NA,PR2033,2001,férfi,nem,2022-04-09_13h16.33.019,hesp_baseline,2021.2.3,Win32,59.95203837
,,,,,,,,,,,,,,,,,buhényban,buhényben,left,29.65,0,11,11,43,1,44,buhény,buhény,ban,é,Ez itt egy buhény.,Ott vagyunk a...,buhényben,buhényban,dzsungel,NA,NA,PR2033,2001,férfi,nem,2022-04-09_13h16.33.019,hesp_baseline,2021.2.3,Win32,59.95203837
,,,,,,,,,,,,,,,,,spilágzok,spilágzom,right,10.169,0,12,12,76,1,23,spilágzik,spilágzol,NA,NA,Te bizony sokat spilágzol.,Én is sokat...,spilágzok,spilágzom,lakik,-zik,2,PR2033,2001,férfi,nem,2022-04-09_13h16.33.019,hesp_baseline,2021.2.3,Win32,59.95203837
,,,,,,,,,,,,,,,,,vihapodunk,vihapszunk,left,17.251,0,13,13,112,1,5,vihapszik / vihapodik,"vihapszik, vihapodni",ünk,NA,"János imád vihapodni, ezért sokat vihapszik.",Mi ritkán...,vihapszunk,vihapodunk,cselekszik,-szik,2,PR2033,2001,férfi,nem,2022-04-09_13h16.33.019,hesp_baseline,2021.2.3,Win32,59.95203837
,,,,,,,,,,,,,,,,,kaszépnak,kaszépnek,right,7.871,0,14,14,40,1,41,kaszép,kaszép,nak,é,Ez itt egy kaszép.,Elneveztem a kutyámat...,kaszépnek,kaszépnak,dzsungel,NA,NA,PR2033,2001,férfi,nem,2022-04-09_13h16.33.019,hesp_baseline,2021.2.3,Win32,59.95203837
,,,,,,,,,,,,,,,,,pekszünk,pekedünk,left,12.754,0,15,15,161,1,54,pekszik / pekedik,"pekszik, pekedni",ünk,NA,"János imád pekedni, ezért sokat pekszik.",Mi ritkán...,pekszünk,pekedünk,cselekszik,-szik,1,PR2033,2001,férfi,nem,2022-04-09_13h16.33.019,hesp_baseline,2021.2.3,Win32,59.95203837
,,,,,,,,,,,,,,,,,herégszek,herégszem,right,4.57,0,16,16,54,1,1,herégszik,herégszel,NA,NA,Te bizony sokat herégszel.,Én is sokat...,herégszek,herégszem,lakik,-szik,2,PR2033,2001,férfi,nem,2022-04-09_13h16.33.019,hesp_baseline,2021.2.3,Win32,59.95203837
,,,,,,,,,,,,,,,,,csibagoztok,csibagzotok,left,9.353,0,17,17,114,1,7,csibagzik / csibagozik,"csibagzik, csibagozni",tek,NA,"János imád csibagozni, ezért sokat csibagzik.",Ti ritkán...,csibagzotok,csibagoztok,cselekszik,-zik,2,PR2033,2001,férfi,nem,2022-04-09_13h16.33.019,hesp_baseline,2021.2.3,Win32,59.95203837
,,,,,,,,,,,,,,,,,gonszéknél,gonszéknál,left,4.337,0,18,18,38,1,39,gonszék,gonszék,nál,é,Ez itt egy gonszék.,Nincs is jobb egy jó...,gonszéknél,gonszéknál,dzsungel,NA,NA,PR2033,2001,férfi,nem,2022-04-09_13h16.33.019,hesp_baseline,2021.2.3,Win32,59.95203837
,,,,,,,,,,,,,,,,,tágarzunk,tágarozunk,right,5.205,0,19,19,155,1,48,tágarzik / tágarozik,"tágarzik, tágarozni",ünk,NA,"János imád tágarozni, ezért sokat tágarzik.",Mi ritkán...,tágarzunk,tágarozunk,cselekszik,-zik,2,PR2033,2001,férfi,nem,2022-04-09_13h16.33.019,hesp_baseline,2021.2.3,Win32,59.95203837
,,,,,,,,,,,,,,,,,gihejezünk,gihejlünk,left,16.684,0,20,20,146,1,39,gihejlik / gihejezik,"gihejlik, gihejezni",ünk,NA,"János imád gihejezni, ezért sokat gihejlik.",Mi ritkán...,gihejlünk,gihejezünk,cselekszik,-lik,2,PR2033,2001,férfi,nem,2022-04-09_13h16.33.019,hesp_baseline,2021.2.3,Win32,59.95203837
,,,,,,,,,,,,,,,,,ibáglom,ibáglok,right,7.324,0,21,21,88,1,35,ibáglik,ibáglasz,NA,NA,Te bizony sokat ibáglasz.,Én is sokat...,ibáglok,ibáglom,lakik,-lik,2,PR2033,2001,férfi,nem,2022-04-09_13h16.33.019,hesp_baseline,2021.2.3,Win32,59.95203837
,,,,,,,,,,,,,,,,,klihasoztok,klihaslotok,left,8.551,0,22,22,156,1,49,klihaslik / klihasozik,"klihaslik, klihasozni",tek,NA,"János imád klihasozni, ezért sokat klihaslik.",Ti ritkán...,klihaslotok,klihasoztok,cselekszik,-lik,2,PR2033,2001,férfi,nem,2022-04-09_13h16.33.019,hesp_baseline,2021.2.3,Win32,59.95203837
,,,,,,,,,,,,,,,,,tránélynak,tránélynek,left,25.916,0,23,23,17,1,18,tránély,tránély,nak,é,Ez itt egy tránély.,Elneveztem a kutyámat...,tránélynek,tránélynak,dzsungel,NA,NA,PR2033,2001,férfi,nem,2022-04-09_13h16.33.019,hesp_baseline,2021.2.3,Win32,59.95203837
,,,,,,,,,,,,,,,,,nuhétnál,nuhétnél,right,27.82,0,24,24,29,1,30,nuhét,nuhét,nál,é,Ez itt egy nuhét.,Nincs is jobb egy jó...,nuhétnél,nuhétnál,dzsungel,NA,NA,PR2033,2001,férfi,nem,2022-04-09_13h16.33.019,hesp_baseline,2021.2.3,Win32,59.95203837
,,,,,,,,,,,,,,,,,kadérnál,kadérnél,left,17.207,0,25,25,7,1,8,kadér,kadér,nál,é,Ez itt egy kadér.,Nincs is jobb egy jó...,kadérnél,kadérnál,dzsungel,NA,NA,PR2033,2001,férfi,nem,2022-04-09_13h16.33.019,hesp_baseline,2021.2.3,Win32,59.95203837
,,,,,,,,,,,,,,,,,matézben,matézban,right,8.856,0,26,26,37,1,38,matéz,matéz,ban,é,Ez itt egy matéz.,Ott vagyunk a...,matézben,matézban,dzsungel,NA,NA,PR2033,2001,férfi,nem,2022-04-09_13h16.33.019,hesp_baseline,2021.2.3,Win32,59.95203837
,,,,,,,,,,,,,,,,,priszecben,priszecban,left,7.56,0,27,27,15,1,16,priszec,priszec,ban,e,Ez itt egy priszec.,Ott vagyunk a...,priszecben,priszecban,dzsungel,NA,NA,PR2033,2001,férfi,nem,2022-04-09_13h16.33.019,hesp_baseline,2021.2.3,Win32,59.95203837
,,,,,,,,,,,,,,,,,sprudlunk,sprudozunk,right,26.268,0,28,28,136,1,29,sprudlik / sprudozik,"sprudlik, sprudozni",ünk,NA,"János imád sprudozni, ezért sokat sprudlik.",Mi ritkán...,sprudlunk,sprudozunk,cselekszik,-lik,1,PR2033,2001,férfi,nem,2022-04-09_13h16.33.019,hesp_baseline,2021.2.3,Win32,59.95203837
,,,,,,,,,,,,,,,,,zsopédban,zsopédben,left,6.318,0,29,29,50,1,51,zsopéd,zsopéd,ban,é,Ez itt egy zsopéd.,Ott vagyunk a...,zsopédben,zsopédban,dzsungel,NA,NA,PR2033,2001,férfi,nem,2022-04-09_13h16.33.019,hesp_baseline,2021.2.3,Win32,59.95203837
,,,,,,,,,,,,,,,,,jurlunk,jurozunk,left,11.686,0,30,30,111,1,4,jurlik / jurozik,"jurlik, jurozni",ünk,NA,"János imád jurozni, ezért sokat jurlik.",Mi ritkán...,jurlunk,jurozunk,cselekszik,-lik,1,PR2033,2001,férfi,nem,2022-04-09_13h16.33.019,hesp_baseline,2021.2.3,Win32,59.95203837
,,,,,,,,,,,,,,,,,filágzok,filágzom,right,7.485,0,31,31,102,1,49,filágzik,filágzol,NA,NA,Te bizony sokat filágzol.,Én is sokat...,filágzok,filágzom,lakik,-zik,2,PR2033,2001,férfi,nem,2022-04-09_13h16.33.019,hesp_baseline,2021.2.3,Win32,59.95203837
,,,,,,,,,,,,,,,,,hosétnak,hosétnek,right,12.675,0,32,32,8,1,9,hosét,hosét,nak,é,Ez itt egy hosét.,Elneveztem a kutyámat...,hosétnek,hosétnak,dzsungel,NA,NA,PR2033,2001,férfi,nem,2022-04-09_13h16.33.019,hesp_baseline,2021.2.3,Win32,59.95203837
,,,,,,,,,,,,,,,,,klaráglom,klaráglok,right,8.01,0,33,33,91,1,38,klaráglik,klaráglasz,NA,NA,Te bizony sokat klaráglasz.,Én is sokat...,klaráglok,klaráglom,lakik,-lik,2,PR2033,2001,férfi,nem,2022-04-09_13h16.33.019,hesp_baseline,2021.2.3,Win32,59.95203837
,,,,,,,,,,,,,,,,,mádépnál,mádépnél,left,83.432,0,34,34,1,1,2,mádép,mádép,nál,é,Ez itt egy mádép.,Nincs is jobb egy jó...,mádépnél,mádépnál,dzsungel,NA,NA,PR2033,2001,férfi,nem,2022-04-09_13h16.33.019,hesp_baseline,2021.2.3,Win32,59.95203837
,,,,,,,,,,,,,,,,,gyivádzok,gyivádzom,right,73.316,0,35,35,87,1,34,gyivádzik,gyivádzol,NA,NA,Te bizony sokat gyivádzol.,Én is sokat...,gyivádzok,gyivádzom,lakik,-zik,2,PR2033,2001,férfi,nem,2022-04-09_13h16.33.019,hesp_baseline,2021.2.3,Win32,59.95203837
,,,,,,,,,,,,,,,,,kalhésznek,kalhésznak,left,4.332,0,36,36,46,1,47,kalhész,kalhész,nak,é,Ez itt egy kalhész.,Elneveztem a kutyámat...,kalhésznek,kalhésznak,dzsungel,NA,NA,PR2033,2001,férfi,nem,2022-04-09_13h16.33.019,hesp_baseline,2021.2.3,Win32,59.95203837
,,,,,,,,,,,,,,,,,hóbensben,hóbensban,left,3.654,0,37,37,3,1,4,hóbens,hóbens,ban,e,Ez itt egy hóbens.,Ott vagyunk a...,hóbensben,hóbensban,dzsungel,NA,NA,PR2033,2001,férfi,nem,2022-04-09_13h16.33.019,hesp_baseline,2021.2.3,Win32,59.95203837
,,,,,,,,,,,,,,,,,spatszok,spatszom,right,9.521,0,38,38,73,1,20,spatszik,spatszol,NA,NA,Te bizony sokat spatszol.,Én is sokat...,spatszok,spatszom,lakik,-szik,1,PR2033,2001,férfi,nem,2022-04-09_13h16.33.019,hesp_baseline,2021.2.3,Win32,59.95203837
,,,,,,,,,,,,,,,,,prélemeznek,prélemlenek,left,6.493,0,39,39,110,1,3,prélemlik / prélemezik,"prélemlik, prélemezni",nek,NA,"János imád prélemezni, ezért sokat prélemlik.",Ők ritkán...,prélemlenek,prélemeznek,cselekszik,-lik,2,PR2033,2001,férfi,nem,2022-04-09_13h16.33.019,hesp_baseline,2021.2.3,Win32,59.95203837
,,,,,,,,,,,,,,,,,pugoslom,pugoslok,right,9.106,0,40,40,84,1,31,pugoslik,pugoslasz,NA,NA,Te bizony sokat pugoslasz.,Én is sokat...,pugoslok,pugoslom,lakik,-lik,2,PR2033,2001,férfi,nem,2022-04-09_13h16.33.019,hesp_baseline,2021.2.3,Win32,59.95203837
,,,,,,,,,,,,,,,,,brülösözünk,brülöslünk,right,6.732,0,41,41,109,1,2,brülöslik / brülösözik,"brülöslik, brülösözni",ünk,NA,"János imád brülösözni, ezért sokat brülöslik.",Mi ritkán...,brülöslünk,brülösözünk,cselekszik,-lik,2,PR2033,2001,férfi,nem,2022-04-09_13h16.33.019,hesp_baseline,2021.2.3,Win32,59.95203837
,,,,,,,,,,,,,,,,,klörlöm,klörlök,right,4.754,0,42,42,80,1,27,klörlik,klörlesz,NA,NA,Te bizony sokat klörlesz.,Én is sokat...,klörlök,klörlöm,lakik,-lik,1,PR2033,2001,férfi,nem,2022-04-09_13h16.33.019,hesp_baseline,2021.2.3,Win32,59.95203837
,,,,,,,,,,,,,,,,,jorzégnak,jorzégnek,right,5.269,0,43,43,45,1,46,jorzég,jorzég,nak,é,Ez itt egy jorzég.,Elneveztem a kutyámat...,jorzégnek,jorzégnak,dzsungel,NA,NA,PR2033,2001,férfi,nem,2022-04-09_13h16.33.019,hesp_baseline,2021.2.3,Win32,59.95203837
,,,,,,,,,,,,,,,,,jukélnél,jukélnál,right,9.489,0,44,44,42,1,43,jukél,jukél,nál,é,Ez itt egy jukél.,Nincs is jobb egy jó...,jukélnél,jukélnál,dzsungel,NA,NA,PR2033,2001,férfi,nem,2022-04-09_13h16.33.019,hesp_baseline,2021.2.3,Win32,59.95203837
,,,,,,,,,,,,,,,,,spéslem,spéslek,right,7.231,0,45,45,93,1,40,spéslik,spéslesz,NA,NA,Te bizony sokat spéslesz.,Én is sokat...,spéslek,spéslem,lakik,-lik,1,PR2033,2001,férfi,nem,2022-04-09_13h16.33.019,hesp_baseline,2021.2.3,Win32,59.95203837
,,,,,,,,,,,,,,,,,sihennél,sihennál,left,4.252,0,46,46,18,1,19,sihen,sihen,nál,e,Ez itt egy sihen.,Nincs is jobb egy jó...,sihennél,sihennál,dzsungel,NA,NA,PR2033,2001,férfi,nem,2022-04-09_13h16.33.019,hesp_baseline,2021.2.3,Win32,59.95203837
,,,,,,,,,,,,,,,,,hilarzok,hilarzom,right,4.695,0,47,47,69,1,16,hilarzik,hilarzol,NA,NA,Te bizony sokat hilarzol.,Én is sokat...,hilarzok,hilarzom,lakik,-zik,2,PR2033,2001,férfi,nem,2022-04-09_13h16.33.019,hesp_baseline,2021.2.3,Win32,59.95203837
,,,,,,,,,,,,,,,,,brarlok,brarlom,left,3.998,0,48,48,71,1,18,brarlik,brarlasz,NA,NA,Te bizony sokat brarlasz.,Én is sokat...,brarlok,brarlom,lakik,-lik,1,PR2033,2001,férfi,nem,2022-04-09_13h16.33.019,hesp_baseline,2021.2.3,Win32,59.95203837
,,,,,,,,,,,,,,,,,lumézban,lumézben,right,8.238,0,49,49,32,1,33,luméz,luméz,ban,é,Ez itt egy luméz.,Ott vagyunk a...,lumézben,lumézban,dzsungel,NA,NA,PR2033,2001,férfi,nem,2022-04-09_13h16.33.019,hesp_baseline,2021.2.3,Win32,59.95203837
,,,,,,,,,,,,,,,,,froroznak,frorlanak,right,4.446,0,50,50,143,1,36,frorlik / frorozik,"frorlik, frorozni",nek,NA,"János imád frorozni, ezért sokat frorlik.",Ők ritkán...,frorlanak,froroznak,cselekszik,-lik,1,PR2033,2001,férfi,nem,2022-04-09_13h16.33.019,hesp_baseline,2021.2.3,Win32,59.95203837
,,,,,,,,,,,,,,,,,lorzensnál,lorzensnél,right,5.334,0,51,51,34,1,35,lorzens,lorzens,nál,e,Ez itt egy lorzens.,Nincs is jobb egy jó...,lorzensnél,lorzensnál,dzsungel,NA,NA,PR2033,2001,férfi,nem,2022-04-09_13h16.33.019,hesp_baseline,2021.2.3,Win32,59.95203837
,,,,,,,,,,,,,,,,,zsalrénnek,zsalrénnak,left,3.2,0,52,52,19,1,20,zsalrén,zsalrén,nak,é,Ez itt egy zsalrén.,Elneveztem a kutyámat...,zsalrénnek,zsalrénnak,dzsungel,NA,NA,PR2033,2001,férfi,nem,2022-04-09_13h16.33.019,hesp_baseline,2021.2.3,Win32,59.95203837
,,,,,,,,,,,,,,,,,brözöztök,brözlötök,left,19.024,0,53,53,145,1,38,brözlik / brözözik,"brözlik, brözözni",tek,NA,"János imád brözözni, ezért sokat brözlik.",Ti ritkán...,brözlötök,brözöztök,cselekszik,-lik,1,PR2033,2001,férfi,nem,2022-04-09_13h16.33.019,hesp_baseline,2021.2.3,Win32,59.95203837
,,,,,,,,,,,,,,,,,kliszernél,kliszernál,left,4.39,0,54,54,31,1,32,kliszer,kliszer,nál,e,Ez itt egy kliszer.,Nincs is jobb egy jó...,kliszernél,kliszernál,dzsungel,NA,NA,PR2033,2001,férfi,nem,2022-04-09_13h16.33.019,hesp_baseline,2021.2.3,Win32,59.95203837
,,,,,,,,,,,,,,,,,dunkészben,dunkészban,right,4.791,0,55,55,24,1,25,dunkész,dunkész,ban,é,Ez itt egy dunkész.,Ott vagyunk a...,dunkészben,dunkészban,dzsungel,NA,NA,PR2033,2001,férfi,nem,2022-04-09_13h16.33.019,hesp_baseline,2021.2.3,Win32,59.95203837
,,,,,,,,,,,,,,,,,narádzok,narádzom,right,3.068,0,56,56,63,1,10,narádzik,narádzol,NA,NA,Te bizony sokat narádzol.,Én is sokat...,narádzok,narádzom,lakik,-zik,2,PR2033,2001,férfi,nem,2022-04-09_13h16.33.019,hesp_baseline,2021.2.3,Win32,59.95203837
,,,,,,,,,,,,,,,,,dujzanak,dujoznak,left,3.407,0,57,57,128,1,21,dujzik / dujozik,"dujzik, dujozni",nek,NA,"János imád dujozni, ezért sokat dujzik.",Ők ritkán...,dujzanak,dujoznak,cselekszik,-zik,1,PR2033,2001,férfi,nem,2022-04-09_13h16.33.019,hesp_baseline,2021.2.3,Win32,59.95203837
,,,,,,,,,,,,,,,,,tivencban,tivencben,right,2.589,0,58,58,53,1,54,tivenc,tivenc,ban,e,Ez itt egy tivenc.,Ott vagyunk a...,tivencben,tivencban,dzsungel,NA,NA,PR2033,2001,férfi,nem,2022-04-09_13h16.33.019,hesp_baseline,2021.2.3,Win32,59.95203837
,,,,,,,,,,,,,,,,,spibaklom,spibaklok,right,6.159,0,59,59,55,1,2,spibaklik,spibaklasz,NA,NA,Te bizony sokat spibaklasz.,Én is sokat...,spibaklok,spibaklom,lakik,-lik,2,PR2033,2001,férfi,nem,2022-04-09_13h16.33.019,hesp_baseline,2021.2.3,Win32,59.95203837
,,,,,,,,,,,,,,,,,vodépnek,vodépnak,left,5.249,0,60,60,41,1,42,vodép,vodép,nak,é,Ez itt egy vodép.,Elneveztem a kutyámat...,vodépnek,vodépnak,dzsungel,NA,NA,PR2033,2001,férfi,nem,2022-04-09_13h16.33.019,hesp_baseline,2021.2.3,Win32,59.95203837
,,,,,,,,,,,,,,,,,hijegynál,hijegynél,right,2.519,0,61,61,4,1,5,hijegy,hijegy,nál,e,Ez itt egy hijegy.,Nincs is jobb egy jó...,hijegynél,hijegynál,dzsungel,NA,NA,PR2033,2001,férfi,nem,2022-04-09_13h16.33.019,hesp_baseline,2021.2.3,Win32,59.95203837
,,,,,,,,,,,,,,,,,brigesztnek,brigesztnak,left,3.252,0,62,62,48,1,49,brigeszt,brigeszt,nak,e,Ez itt egy brigeszt.,Elneveztem a kutyámat...,brigesztnek,brigesztnak,dzsungel,NA,NA,PR2033,2001,férfi,nem,2022-04-09_13h16.33.019,hesp_baseline,2021.2.3,Win32,59.95203837
,,,,,,,,,,,,,,,,,flözlöm,flözlök,right,4.108,0,63,63,74,1,21,flözlik,flözlesz,NA,NA,Te bizony sokat flözlesz.,Én is sokat...,flözlök,flözlöm,lakik,-lik,1,PR2033,2001,férfi,nem,2022-04-09_13h16.33.019,hesp_baseline,2021.2.3,Win32,59.95203837
,,,,,,,,,,,,,,,,,plűbzöm,plűbzök,right,3.034,0,64,64,107,1,54,plűbzik,plűbzöl,NA,NA,Te bizony sokat plűbzöl.,Én is sokat...,plűbzök,plűbzöm,lakik,-zik,1,PR2033,2001,férfi,nem,2022-04-09_13h16.33.019,hesp_baseline,2021.2.3,Win32,59.95203837
,,,,,,,,,,,,,,,,,gatágozunk,gatáglunk,left,4.906,0,65,65,137,1,30,gatáglik / gatágozik,"gatáglik, gatágozni",ünk,NA,"János imád gatágozni, ezért sokat gatáglik.",Mi ritkán...,gatáglunk,gatágozunk,cselekszik,-lik,2,PR2033,2001,férfi,nem,2022-04-09_13h16.33.019,hesp_baseline,2021.2.3,Win32,59.95203837
,,,,,,,,,,,,,,,,,bejezünk,bejzünk,right,3.493,0,66,66,148,1,41,bejzik / bejezik,"bejzik, bejezni",ünk,NA,"János imád bejezni, ezért sokat bejzik.",Mi ritkán...,bejzünk,bejezünk,cselekszik,-zik,1,PR2033,2001,férfi,nem,2022-04-09_13h16.33.019,hesp_baseline,2021.2.3,Win32,59.95203837
,,,,,,,,,,,,,,,,,darhénben,darhénban,left,3.408,0,67,67,27,1,28,darhén,darhén,ban,é,Ez itt egy darhén.,Ott vagyunk a...,darhénben,darhénban,dzsungel,NA,NA,PR2033,2001,férfi,nem,2022-04-09_13h16.33.019,hesp_baseline,2021.2.3,Win32,59.95203837
,,,,,,,,,,,,,,,,,gábédnél,gábédnál,right,4.418,0,68,68,39,1,40,gábéd,gábéd,nál,é,Ez itt egy gábéd.,Nincs is jobb egy jó...,gábédnél,gábédnál,dzsungel,NA,NA,PR2033,2001,férfi,nem,2022-04-09_13h16.33.019,hesp_baseline,2021.2.3,Win32,59.95203837
,,,,,,,,,,,,,,,,,gyivepednek,gyivepszenek,left,4.594,0,69,69,160,1,53,gyivepszik / gyivepedik,"gyivepszik, gyivepedni",nek,NA,"János imád gyivepedni, ezért sokat gyivepszik.",Ők ritkán...,gyivepszenek,gyivepednek,cselekszik,-szik,2,PR2033,2001,férfi,nem,2022-04-09_13h16.33.019,hesp_baseline,2021.2.3,Win32,59.95203837
,,,,,,,,,,,,,,,,,huklok,huklom,left,2.138,0,70,70,78,1,25,huklik,huklasz,NA,NA,Te bizony sokat huklasz.,Én is sokat...,huklok,huklom,lakik,-lik,1,PR2033,2001,férfi,nem,2022-04-09_13h16.33.019,hesp_baseline,2021.2.3,Win32,59.95203837
,,,,,,,,,,,,,,,,,spihemlem,spihemlek,right,3.499,0,71,71,94,1,41,spihemlik,spihemlesz,NA,NA,Te bizony sokat spihemlesz.,Én is sokat...,spihemlek,spihemlem,lakik,-lik,2,PR2033,2001,férfi,nem,2022-04-09_13h16.33.019,hesp_baseline,2021.2.3,Win32,59.95203837
,,,,,,,,,,,,,,,,,hurjorzom,hurjorzok,left,5.281,0,72,72,59,1,6,hurjorzik,hurjorzol,NA,NA,Te bizony sokat hurjorzol.,Én is sokat...,hurjorzok,hurjorzom,lakik,-zik,2,PR2033,2001,férfi,nem,2022-04-09_13h16.33.019,hesp_baseline,2021.2.3,Win32,59.95203837
,,,,,,,,,,,,,,,,,fraklunk,frakozunk,left,5.922,0,73,73,159,1,52,fraklik / frakozik,"fraklik, frakozni",ünk,NA,"János imád frakozni, ezért sokat fraklik.",Mi ritkán...,fraklunk,frakozunk,cselekszik,-lik,1,PR2033,2001,férfi,nem,2022-04-09_13h16.33.019,hesp_baseline,2021.2.3,Win32,59.95203837
,,,,,,,,,,,,,,,,,pisélyban,pisélyben,right,3.672,0,74,74,21,1,22,pisély,pisély,ban,é,Ez itt egy pisély.,Ott vagyunk a...,pisélyben,pisélyban,dzsungel,NA,NA,PR2033,2001,férfi,nem,2022-04-09_13h16.33.019,hesp_baseline,2021.2.3,Win32,59.95203837
,,,,,,,,,,,,,,,,,fádensnak,fádensnek,right,4.583,0,75,75,33,1,34,fádens,fádens,nak,e,Ez itt egy fádens.,Elneveztem a kutyámat...,fádensnek,fádensnak,dzsungel,NA,NA,PR2033,2001,férfi,nem,2022-04-09_13h16.33.019,hesp_baseline,2021.2.3,Win32,59.95203837
,,,,,,,,,,,,,,,,,vülődzöm,vülődzök,left,3.651,0,76,76,81,1,28,vülődzik,vülődzöl,NA,NA,Te bizony sokat vülődzöl.,Én is sokat...,vülődzök,vülődzöm,lakik,-zik,2,PR2033,2001,férfi,nem,2022-04-09_13h16.33.019,hesp_baseline,2021.2.3,Win32,59.95203837
,,,,,,,,,,,,,,,,,pöröztök,pörzötök,left,5.88,0,77,77,153,1,46,pörzik / pörözik,"pörzik, pörözni",tek,NA,"János imád pörözni, ezért sokat pörzik.",Ti ritkán...,pörzötök,pöröztök,cselekszik,-zik,1,PR2033,2001,férfi,nem,2022-04-09_13h16.33.019,hesp_baseline,2021.2.3,Win32,59.95203837
,,,,,,,,,,,,,,,,,drűrzenek,drűröznek,right,3.8,0,78,78,126,1,19,drűrzik / drűrözik,"drűrzik, drűrözni",nek,NA,"János imád drűrözni, ezért sokat drűrzik.",Ők ritkán...,drűrzenek,drűröznek,cselekszik,-zik,1,PR2033,2001,férfi,nem,2022-04-09_13h16.33.019,hesp_baseline,2021.2.3,Win32,59.95203837
,,,,,,,,,,,,,,,,,galárzanak,galároznak,left,4.232,0,79,79,154,1,47,galárzik / galározik,"galárzik, galározni",nek,NA,"János imád galározni, ezért sokat galárzik.",Ők ritkán...,galárzanak,galároznak,cselekszik,-zik,2,PR2033,2001,férfi,nem,2022-04-09_13h16.33.019,hesp_baseline,2021.2.3,Win32,59.95203837
,,,,,,,,,,,,,,,,,spábétben,spábétban,right,2.024,0,80,80,51,1,52,spábét,spábét,ban,é,Ez itt egy spábét.,Ott vagyunk a...,spábétben,spábétban,dzsungel,NA,NA,PR2033,2001,férfi,nem,2022-04-09_13h16.33.019,hesp_baseline,2021.2.3,Win32,59.95203837
,,,,,,,,,,,,,,,,,prilegzek,prilegzem,right,4.489,0,81,81,79,1,26,prilegzik,prilegzel,NA,NA,Te bizony sokat prilegzel.,Én is sokat...,prilegzek,prilegzem,lakik,-zik,2,PR2033,2001,férfi,nem,2022-04-09_13h16.33.019,hesp_baseline,2021.2.3,Win32,59.95203837
,,,,,,,,,,,,,,,,,hivépben,hivépban,left,2.083,0,82,82,44,1,45,hivép,hivép,ban,é,Ez itt egy hivép.,Ott vagyunk a...,hivépben,hivépban,dzsungel,NA,NA,PR2033,2001,férfi,nem,2022-04-09_13h16.33.019,hesp_baseline,2021.2.3,Win32,59.95203837
,,,,,,,,,,,,,,,,,kűdöznek,kűdlenek,right,6.13,0,83,83,142,1,35,kűdlik / kűdözik,"kűdlik, kűdözni",nek,NA,"János imád kűdözni, ezért sokat kűdlik.",Ők ritkán...,kűdlenek,kűdöznek,cselekszik,-lik,1,PR2033,2001,férfi,nem,2022-04-09_13h16.33.019,hesp_baseline,2021.2.3,Win32,59.95203837
,,,,,,,,,,,,,,,,,géregletek,géregeztek,left,3.554,0,84,84,124,1,17,géreglik / géregezik,"géreglik, géregezni",tek,NA,"János imád géregezni, ezért sokat géreglik.",Ti ritkán...,géregletek,géregeztek,cselekszik,-lik,2,PR2033,2001,férfi,nem,2022-04-09_13h16.33.019,hesp_baseline,2021.2.3,Win32,59.95203837
,,,,,,,,,,,,,,,,,vanylok,vanylom,left,6.256,0,85,85,61,1,8,vanylik,vanylasz,NA,NA,Te bizony sokat vanylasz.,Én is sokat...,vanylok,vanylom,lakik,-lik,1,PR2033,2001,férfi,nem,2022-04-09_13h16.33.019,hesp_baseline,2021.2.3,Win32,59.95203837
,,,,,,,,,,,,,,,,,gyibeslem,gyibeslek,right,6.014,0,86,86,98,1,45,gyibeslik,gyibeslesz,NA,NA,Te bizony sokat gyibeslesz.,Én is sokat...,gyibeslek,gyibeslem,lakik,-lik,2,PR2033,2001,férfi,nem,2022-04-09_13h16.33.019,hesp_baseline,2021.2.3,Win32,59.95203837
,,,,,,,,,,,,,,,,,bügzenek,bügöznek,right,3.537,0,87,87,118,1,11,bügzik / bügözik,"bügzik, bügözni",nek,NA,"János imád bügözni, ezért sokat bügzik.",Ők ritkán...,bügzenek,bügöznek,cselekszik,-zik,1,PR2033,2001,férfi,nem,2022-04-09_13h16.33.019,hesp_baseline,2021.2.3,Win32,59.95203837
,,,,,,,,,,,,,,,,,sprédlem,sprédlek,right,2.14,0,88,88,70,1,17,sprédlik,sprédlesz,NA,NA,Te bizony sokat sprédlesz.,Én is sokat...,sprédlek,sprédlem,lakik,-lik,1,PR2033,2001,férfi,nem,2022-04-09_13h16.33.019,hesp_baseline,2021.2.3,Win32,59.95203837
,,,,,,,,,,,,,,,,,frágapszom,frágapszok,left,2.48,0,89,89,60,1,7,frágapszik,frágapszol,NA,NA,Te bizony sokat frágapszol.,Én is sokat...,frágapszok,frágapszom,lakik,-szik,2,PR2033,2001,férfi,nem,2022-04-09_13h16.33.019,hesp_baseline,2021.2.3,Win32,59.95203837
,,,,,,,,,,,,,,,,,monvegnál,monvegnél,right,2.472,0,90,90,26,1,27,monveg,monveg,nál,e,Ez itt egy monveg.,Nincs is jobb egy jó...,monvegnél,monvegnál,dzsungel,NA,NA,PR2033,2001,férfi,nem,2022-04-09_13h16.33.019,hesp_baseline,2021.2.3,Win32,59.95203837
,,,,,,,,,,,,,,,,,breseznek,breslenek,left,3.723,0,91,91,115,1,8,breslik / bresezik,"breslik, bresezni",nek,NA,"János imád bresezni, ezért sokat breslik.",Ők ritkán...,breslenek,breseznek,cselekszik,-lik,1,PR2033,2001,férfi,nem,2022-04-09_13h16.33.019,hesp_baseline,2021.2.3,Win32,59.95203837
,,,,,,,,,,,,,,,,,vismernél,vismernál,left,2.982,0,92,92,13,1,14,vismer,vismer,nál,e,Ez itt egy vismer.,Nincs is jobb egy jó...,vismernél,vismernál,dzsungel,NA,NA,PR2033,2001,férfi,nem,2022-04-09_13h16.33.019,hesp_baseline,2021.2.3,Win32,59.95203837
,,,,,,,,,,,,,,,,,friheglünk,frihegezünk,left,2.975,0,93,93,132,1,25,friheglik / frihegezik,"friheglik, frihegezni",ünk,NA,"János imád frihegezni, ezért sokat friheglik.",Mi ritkán...,friheglünk,frihegezünk,cselekszik,-lik,2,PR2033,2001,férfi,nem,2022-04-09_13h16.33.019,hesp_baseline,2021.2.3,Win32,59.95203837
,,,,,,,,,,,,,,,,,pítszok,pítszom,right,2.208,0,94,94,62,1,9,pítszik,pítszol,NA,NA,Te bizony sokat pítszol.,Én is sokat...,pítszok,pítszom,lakik,-szik,1,PR2033,2001,férfi,nem,2022-04-09_13h16.33.019,hesp_baseline,2021.2.3,Win32,59.95203837
,,,,,,,,,,,,,,,,,brobódzok,brobódzom,right,2.195,0,95,95,96,1,43,brobódzik,brobódzol,NA,NA,Te bizony sokat brobódzol.,Én is sokat...,brobódzok,brobódzom,lakik,-zik,2,PR2033,2001,férfi,nem,2022-04-09_13h16.33.019,hesp_baseline,2021.2.3,Win32,59.95203837
,,,,,,,,,,,,,,,,,naremben,naremban,left,3.572,0,96,96,2,1,3,narem,narem,ban,e,Ez itt egy narem.,Ott vagyunk a...,naremben,naremban,dzsungel,NA,NA,PR2033,2001,férfi,nem,2022-04-09_13h16.33.019,hesp_baseline,2021.2.3,Win32,59.95203837
,,,,,,,,,,,,,,,,,sztremlem,sztremlek,right,2.633,0,97,97,95,1,42,sztremlik,sztremlesz,NA,NA,Te bizony sokat sztremlesz.,Én is sokat...,sztremlek,sztremlem,lakik,-lik,1,PR2033,2001,férfi,nem,2022-04-09_13h16.33.019,hesp_baseline,2021.2.3,Win32,59.95203837
,,,,,,,,,,,,,,,,,feténylek,feténylem,left,3.572,0,98,98,85,1,32,feténylik,feténylesz,NA,NA,Te bizony sokat feténylesz.,Én is sokat...,feténylek,feténylem,lakik,-lik,2,PR2033,2001,férfi,nem,2022-04-09_13h16.33.019,hesp_baseline,2021.2.3,Win32,59.95203837
,,,,,,,,,,,,,,,,,bölszöm,bölszök,left,2.282,0,99,99,105,1,52,bölszik,bölszöl,NA,NA,Te bizony sokat bölszöl.,Én is sokat...,bölszök,bölszöm,lakik,-szik,1,PR2033,2001,férfi,nem,2022-04-09_13h16.33.019,hesp_baseline,2021.2.3,Win32,59.95203837
,,,,,,,,,,,,,,,,,flivegeznek,flivegzenek,left,6.819,0,100,100,138,1,31,flivegzik / flivegezik,"flivegzik, flivegezni",nek,NA,"János imád flivegezni, ezért sokat flivegzik.",Ők ritkán...,flivegzenek,flivegeznek,cselekszik,-zik,2,PR2033,2001,férfi,nem,2022-04-09_13h16.33.019,hesp_baseline,2021.2.3,Win32,59.95203837
,,,,,,,,,,,,,,,,,incéjnek,incéjnak,left,6.138,0,101,101,30,1,31,incéj,incéj,nak,é,Ez itt egy incéj.,Elneveztem a kutyámat...,incéjnek,incéjnak,dzsungel,NA,NA,PR2033,2001,férfi,nem,2022-04-09_13h16.33.019,hesp_baseline,2021.2.3,Win32,59.95203837
,,,,,,,,,,,,,,,,,livaklok,livaklom,right,2.959,0,102,102,82,1,29,livaklik,livaklasz,NA,NA,Te bizony sokat livaklasz.,Én is sokat...,livaklok,livaklom,lakik,-lik,2,PR2033,2001,férfi,nem,2022-04-09_13h16.33.019,hesp_baseline,2021.2.3,Win32,59.95203837
,,,,,,,,,,,,,,,,,brivaklotok,brivakoztok,right,10.456,0,103,103,134,1,27,brivaklik / brivakozik,"brivaklik, brivakozni",tek,NA,"János imád brivakozni, ezért sokat brivaklik.",Ti ritkán...,brivaklotok,brivakoztok,cselekszik,-lik,2,PR2033,2001,férfi,nem,2022-04-09_13h16.33.019,hesp_baseline,2021.2.3,Win32,59.95203837
,,,,,,,,,,,,,,,,,spicetnek,spicetnak,left,5.297,0,104,104,35,1,36,spicet,spicet,nak,e,Ez itt egy spicet.,Elneveztem a kutyámat...,spicetnek,spicetnak,dzsungel,NA,NA,PR2033,2001,férfi,nem,2022-04-09_13h16.33.019,hesp_baseline,2021.2.3,Win32,59.95203837
,,,,,,,,,,,,,,,,,spélszem,spélszek,left,3.668,0,105,105,68,1,15,spélszik,spélszel,NA,NA,Te bizony sokat spélszel.,Én is sokat...,spélszek,spélszem,lakik,-szik,1,PR2033,2001,férfi,nem,2022-04-09_13h16.33.019,hesp_baseline,2021.2.3,Win32,59.95203837
,,,,,,,,,,,,,,,,,dirányoznak,diránylanak,left,4.654,0,106,106,122,1,15,diránylik / dirányozik,"diránylik, dirányozni",nek,NA,"János imád dirányozni, ezért sokat diránylik.",Ők ritkán...,diránylanak,dirányoznak,cselekszik,-lik,2,PR2033,2001,férfi,nem,2022-04-09_13h16.33.019,hesp_baseline,2021.2.3,Win32,59.95203837
,,,,,,,,,,,,,,,,,tarhézben,tarhézban,right,2.659,0,107,107,25,1,26,tarhéz,tarhéz,ban,é,Ez itt egy tarhéz.,Ott vagyunk a...,tarhézben,tarhézban,dzsungel,NA,NA,PR2033,2001,férfi,nem,2022-04-09_13h16.33.019,hesp_baseline,2021.2.3,Win32,59.95203837
,,,,,,,,,,,,,,,,,püzöztök,püzlötök,left,3.204,0,108,108,152,1,45,püzlik / püzözik,"püzlik, püzözni",tek,NA,"János imád püzözni, ezért sokat püzlik.",Ti ritkán...,püzlötök,püzöztök,cselekszik,-lik,1,PR2033,2001,férfi,nem,2022-04-09_13h16.33.019,hesp_baseline,2021.2.3,Win32,59.95203837
,,,,,,,,,,,,,,,,,jutélynél,jutélynál,right,2.608,0,109,109,11,1,12,jutély,jutély,nál,é,Ez itt egy jutély.,Nincs is jobb egy jó...,jutélynél,jutélynál,dzsungel,NA,NA,PR2033,2001,férfi,nem,2022-04-09_13h16.33.019,hesp_baseline,2021.2.3,Win32,59.95203837
,,,,,,,,,,,,,,,,,trodélyben,trodélyban,right,0.003,0,110,110,28,1,29,trodély,trodély,ban,é,Ez itt egy trodély.,Ott vagyunk a...,trodélyben,trodélyban,dzsungel,NA,NA,PR2033,2001,férfi,nem,2022-04-09_13h16.33.019,hesp_baseline,2021.2.3,Win32,59.95203837
,,,,,,,,,,,,,,,,,trihagzom,trihagzok,left,3.34,0,111,111,83,1,30,trihagzik,trihagzol,NA,NA,Te bizony sokat trihagzol.,Én is sokat...,trihagzok,trihagzom,lakik,-zik,2,PR2033,2001,férfi,nem,2022-04-09_13h16.33.019,hesp_baseline,2021.2.3,Win32,59.95203837
,,,,,,,,,,,,,,,,,frirozunk,frirzunk,left,4.44,0,112,112,129,1,22,frirzik / frirozik,"frirzik, frirozni",ünk,NA,"János imád frirozni, ezért sokat frirzik.",Mi ritkán...,frirzunk,frirozunk,cselekszik,-zik,1,PR2033,2001,férfi,nem,2022-04-09_13h16.33.019,hesp_baseline,2021.2.3,Win32,59.95203837
,,,,,,,,,,,,,,,,,dajrensnél,dajrensnál,left,2.45,0,113,113,49,1,50,dajrens,dajrens,nál,e,Ez itt egy dajrens.,Nincs is jobb egy jó...,dajrensnél,dajrensnál,dzsungel,NA,NA,PR2033,2001,férfi,nem,2022-04-09_13h16.33.019,hesp_baseline,2021.2.3,Win32,59.95203837
,,,,,,,,,,,,,,,,,dábegyban,dábegyben,right,2.118,0,114,114,6,1,7,dábegy,dábegy,ban,e,Ez itt egy dábegy.,Ott vagyunk a...,dábegyben,dábegyban,dzsungel,NA,NA,PR2033,2001,férfi,nem,2022-04-09_13h16.33.019,hesp_baseline,2021.2.3,Win32,59.95203837
,,,,,,,,,,,,,,,,,priszkencnek,priszkencnak,left,2.434,0,115,115,20,1,21,priszkenc,priszkenc,nak,e,Ez itt egy priszkenc.,Elneveztem a kutyámat...,priszkencnek,priszkencnak,dzsungel,NA,NA,PR2033,2001,férfi,nem,2022-04-09_13h16.33.019,hesp_baseline,2021.2.3,Win32,59.95203837
,,,,,,,,,,,,,,,,,brüszlötök,brüszöztök,right,3.942,0,116,116,130,1,23,brüszlik / brüszözik,"brüszlik, brüszözni",tek,NA,"János imád brüszözni, ezért sokat brüszlik.",Ti ritkán...,brüszlötök,brüszöztök,cselekszik,-lik,1,PR2033,2001,férfi,nem,2022-04-09_13h16.33.019,hesp_baseline,2021.2.3,Win32,59.95203837
,,,,,,,,,,,,,,,,,klordénynak,klordénynek,right,6.991,0,117,117,9,1,10,klordény,klordény,nak,é,Ez itt egy klordény.,Elneveztem a kutyámat...,klordénynek,klordénynak,dzsungel,NA,NA,PR2033,2001,férfi,nem,2022-04-09_13h16.33.019,hesp_baseline,2021.2.3,Win32,59.95203837
,,,,,,,,,,,,,,,,,fágyépnál,fágyépnél,right,2.437,0,118,118,10,1,11,fágyép,fágyép,nál,é,Ez itt egy fágyép.,Nincs is jobb egy jó...,fágyépnél,fágyépnál,dzsungel,NA,NA,PR2033,2001,férfi,nem,2022-04-09_13h16.33.019,hesp_baseline,2021.2.3,Win32,59.95203837
,,,,,,,,,,,,,,,,,brubzok,brubzom,right,2.094,0,119,119,92,1,39,brubzik,brubzol,NA,NA,Te bizony sokat brubzol.,Én is sokat...,brubzok,brubzom,lakik,-zik,1,PR2033,2001,férfi,nem,2022-04-09_13h16.33.019,hesp_baseline,2021.2.3,Win32,59.95203837
,,,,,,,,,,,,,,,,,csarténynek,csarténynak,left,2.991,0,120,120,36,1,37,csartény,csartény,nak,é,Ez itt egy csartény.,Elneveztem a kutyámat...,csarténynek,csarténynak,dzsungel,NA,NA,PR2033,2001,férfi,nem,2022-04-09_13h16.33.019,hesp_baseline,2021.2.3,Win32,59.95203837
,,,,,,,,,,,,,,,,,bötőrzünk,bötőrözünk,right,3.253,0,121,121,158,1,51,bötőrzik / bötőrözik,"bötőrzik, bötőrözni",ünk,NA,"János imád bötőrözni, ezért sokat bötőrzik.",Mi ritkán...,bötőrzünk,bötőrözünk,cselekszik,-zik,2,PR2033,2001,férfi,nem,2022-04-09_13h16.33.019,hesp_baseline,2021.2.3,Win32,59.95203837
,,,,,,,,,,,,,,,,,fökszenek,föködnek,left,3.517,0,122,122,131,1,24,fökszik / föködik,"fökszik, föködni",nek,NA,"János imád föködni, ezért sokat fökszik.",Ők ritkán...,fökszenek,föködnek,cselekszik,-szik,1,PR2033,2001,férfi,nem,2022-04-09_13h16.33.019,hesp_baseline,2021.2.3,Win32,59.95203837
,,,,,,,,,,,,,,,,,píjlom,píjlok,right,2.683,0,123,123,75,1,22,píjlik,píjlasz,NA,NA,Te bizony sokat píjlasz.,Én is sokat...,píjlok,píjlom,lakik,-lik,1,PR2033,2001,férfi,nem,2022-04-09_13h16.33.019,hesp_baseline,2021.2.3,Win32,59.95203837
,,,,,,,,,,,,,,,,,szibedben,szibedban,left,2.885,0,124,124,47,1,48,szibed,szibed,ban,e,Ez itt egy szibed.,Ott vagyunk a...,szibedben,szibedban,dzsungel,NA,NA,PR2033,2001,férfi,nem,2022-04-09_13h16.33.019,hesp_baseline,2021.2.3,Win32,59.95203837
,,,,,,,,,,,,,,,,,spűmlök,spűmlöm,left,4.102,0,125,125,86,1,33,spűmlik,spűmlesz,NA,NA,Te bizony sokat spűmlesz.,Én is sokat...,spűmlök,spűmlöm,lakik,-lik,1,PR2033,2001,férfi,nem,2022-04-09_13h16.33.019,hesp_baseline,2021.2.3,Win32,59.95203837
,,,,,,,,,,,,,,,,,salárzom,salárzok,right,4.365,0,126,126,103,1,50,salárzik,salárzol,NA,NA,Te bizony sokat salárzol.,Én is sokat...,salárzok,salárzom,lakik,-zik,2,PR2033,2001,férfi,nem,2022-04-09_13h16.33.019,hesp_baseline,2021.2.3,Win32,59.95203837
,,,,,,,,,,,,,,,,,trukszotok,trukodtok,right,4.922,0,127,127,157,1,50,trukszik / trukodik,"trukszik, trukodni",tek,NA,"János imád trukodni, ezért sokat trukszik.",Ti ritkán...,trukszotok,trukodtok,cselekszik,-szik,1,PR2033,2001,férfi,nem,2022-04-09_13h16.33.019,hesp_baseline,2021.2.3,Win32,59.95203837
,,,,,,,,,,,,,,,,,hiragzanak,hiragoznak,left,5.689,0,128,128,119,1,12,hiragzik / hiragozik,"hiragzik, hiragozni",nek,NA,"János imád hiragozni, ezért sokat hiragzik.",Ők ritkán...,hiragzanak,hiragoznak,cselekszik,-zik,2,PR2033,2001,férfi,nem,2022-04-09_13h16.33.019,hesp_baseline,2021.2.3,Win32,59.95203837
,,,,,,,,,,,,,,,,,szibánylom,szibánylok,right,3.324,0,129,129,67,1,14,szibánylik,szibánylasz,NA,NA,Te bizony sokat szibánylasz.,Én is sokat...,szibánylok,szibánylom,lakik,-lik,2,PR2033,2001,férfi,nem,2022-04-09_13h16.33.019,hesp_baseline,2021.2.3,Win32,59.95203837
,,,,,,,,,,,,,,,,,nyizozunk,nyizlunk,right,14.14,0,130,130,135,1,28,nyizlik / nyizozik,"nyizlik, nyizozni",ünk,NA,"János imád nyizozni, ezért sokat nyizlik.",Mi ritkán...,nyizlunk,nyizozunk,cselekszik,-lik,1,PR2033,2001,férfi,nem,2022-04-09_13h16.33.019,hesp_baseline,2021.2.3,Win32,59.95203837
,,,,,,,,,,,,,,,,,nyivágozunk,nyivágzunk,right,2.946,0,131,131,113,1,6,nyivágzik / nyivágozik,"nyivágzik, nyivágozni",ünk,NA,"János imád nyivágozni, ezért sokat nyivágzik.",Mi ritkán...,nyivágzunk,nyivágozunk,cselekszik,-zik,2,PR2033,2001,férfi,nem,2022-04-09_13h16.33.019,hesp_baseline,2021.2.3,Win32,59.95203837
,,,,,,,,,,,,,,,,,sztrajoznak,sztrajlanak,right,3.4,0,132,132,144,1,37,sztrajlik / sztrajozik,"sztrajlik, sztrajozni",nek,NA,"János imád sztrajozni, ezért sokat sztrajlik.",Ők ritkán...,sztrajlanak,sztrajoznak,cselekszik,-lik,1,PR2033,2001,férfi,nem,2022-04-09_13h16.33.019,hesp_baseline,2021.2.3,Win32,59.95203837
,,,,,,,,,,,,,,,,,küslünk,küsözünk,left,3.183,0,133,133,141,1,34,küslik / küsözik,"küslik, küsözni",ünk,NA,"János imád küsözni, ezért sokat küslik.",Mi ritkán...,küslünk,küsözünk,cselekszik,-lik,1,PR2033,2001,férfi,nem,2022-04-09_13h16.33.019,hesp_baseline,2021.2.3,Win32,59.95203837
,,,,,,,,,,,,,,,,,jüslöm,jüslök,right,2.507,0,134,134,56,1,3,jüslik,jüslesz,NA,NA,Te bizony sokat jüslesz.,Én is sokat...,jüslök,jüslöm,lakik,-lik,1,PR2033,2001,férfi,nem,2022-04-09_13h16.33.019,hesp_baseline,2021.2.3,Win32,59.95203837
,,,,,,,,,,,,,,,,,bralképben,bralképban,left,3.273,0,135,135,12,1,13,bralkép,bralkép,ban,é,Ez itt egy bralkép.,Ott vagyunk a...,bralképben,bralképban,dzsungel,NA,NA,PR2033,2001,férfi,nem,2022-04-09_13h16.33.019,hesp_baseline,2021.2.3,Win32,59.95203837
,,,,,,,,,,,,,,,,,tragzom,tragzok,left,2.339,0,136,136,90,1,37,tragzik,tragzol,NA,NA,Te bizony sokat tragzol.,Én is sokat...,tragzok,tragzom,lakik,-zik,1,PR2033,2001,férfi,nem,2022-04-09_13h16.33.019,hesp_baseline,2021.2.3,Win32,59.95203837
,,,,,,,,,,,,,,,,,pebzek,pebzem,left,4.573,0,137,137,57,1,4,pebzik,pebzel,NA,NA,Te bizony sokat pebzel.,Én is sokat...,pebzek,pebzem,lakik,-zik,1,PR2033,2001,férfi,nem,2022-04-09_13h16.33.019,hesp_baseline,2021.2.3,Win32,59.95203837
,,,,,,,,,,,,,,,,,spivejeznek,spivejlenek,left,4.034,0,138,138,125,1,18,spivejlik / spivejezik,"spivejlik, spivejezni",nek,NA,"János imád spivejezni, ezért sokat spivejlik.",Ők ritkán...,spivejlenek,spivejeznek,cselekszik,-lik,2,PR2033,2001,férfi,nem,2022-04-09_13h16.33.019,hesp_baseline,2021.2.3,Win32,59.95203837
,,,,,,,,,,,,,,,,,privékednek,privékszenek,right,3.441,0,139,139,149,1,42,privékszik / privékedik,"privékszik, privékedni",nek,NA,"János imád privékedni, ezért sokat privékszik.",Ők ritkán...,privékszenek,privékednek,cselekszik,-szik,2,PR2033,2001,férfi,nem,2022-04-09_13h16.33.019,hesp_baseline,2021.2.3,Win32,59.95203837
,,,,,,,,,,,,,,,,,vilakszok,vilakszom,right,3.158,0,140,140,97,1,44,vilakszik,vilakszol,NA,NA,Te bizony sokat vilakszol.,Én is sokat...,vilakszok,vilakszom,lakik,-szik,2,PR2033,2001,férfi,nem,2022-04-09_13h16.33.019,hesp_baseline,2021.2.3,Win32,59.95203837
,,,,,,,,,,,,,,,,,pivédben,pivédban,left,2.243,0,141,141,52,1,53,pivéd,pivéd,ban,é,Ez itt egy pivéd.,Ott vagyunk a...,pivédben,pivédban,dzsungel,NA,NA,PR2033,2001,férfi,nem,2022-04-09_13h16.33.019,hesp_baseline,2021.2.3,Win32,59.95203837
,,,,,,,,,,,,,,,,,csublényban,csublényben,right,3.668,0,142,142,16,1,17,csublény,csublény,ban,é,Ez itt egy csublény.,Ott vagyunk a...,csublényben,csublényban,dzsungel,NA,NA,PR2033,2001,férfi,nem,2022-04-09_13h16.33.019,hesp_baseline,2021.2.3,Win32,59.95203837
,,,,,,,,,,,,,,,,,frélegzünk,frélegezünk,right,2.806,0,143,143,147,1,40,frélegzik / frélegezik,"frélegzik, frélegezni",ünk,NA,"János imád frélegezni, ezért sokat frélegzik.",Mi ritkán...,frélegzünk,frélegezünk,cselekszik,-zik,2,PR2033,2001,férfi,nem,2022-04-09_13h16.33.019,hesp_baseline,2021.2.3,Win32,59.95203837
,,,,,,,,,,,,,,,,,prögöztök,prögzötök,left,3.476,0,144,144,151,1,44,prögzik / prögözik,"prögzik, prögözni",tek,NA,"János imád prögözni, ezért sokat prögzik.",Ti ritkán...,prögzötök,prögöztök,cselekszik,-zik,1,PR2033,2001,férfi,nem,2022-04-09_13h16.33.019,hesp_baseline,2021.2.3,Win32,59.95203837
,,,,,,,,,,,,,,,,,spibádzom,spibádzok,left,2.966,0,145,145,65,1,12,spibádzik,spibádzol,NA,NA,Te bizony sokat spibádzol.,Én is sokat...,spibádzok,spibádzom,lakik,-zik,2,PR2033,2001,férfi,nem,2022-04-09_13h16.33.019,hesp_baseline,2021.2.3,Win32,59.95203837
,,,,,,,,,,,,,,,,,frinyozunk,frinylunk,left,3.601,0,146,146,133,1,26,frinylik / frinyozik,"frinylik, frinyozni",ünk,NA,"János imád frinyozni, ezért sokat frinylik.",Mi ritkán...,frinylunk,frinyozunk,cselekszik,-lik,1,PR2033,2001,férfi,nem,2022-04-09_13h16.33.019,hesp_baseline,2021.2.3,Win32,59.95203837
,,,,,,,,,,,,,,,,,málapszok,málapszom,right,2.337,0,147,147,66,1,13,málapszik,málapszol,NA,NA,Te bizony sokat málapszol.,Én is sokat...,málapszok,málapszom,lakik,-szik,2,PR2033,2001,férfi,nem,2022-04-09_13h16.33.019,hesp_baseline,2021.2.3,Win32,59.95203837
,,,,,,,,,,,,,,,,,sprimlunk,sprimozunk,left,3.706,0,148,148,127,1,20,sprimlik / sprimozik,"sprimlik, sprimozni",ünk,NA,"János imád sprimozni, ezért sokat sprimlik.",Mi ritkán...,sprimlunk,sprimozunk,cselekszik,-lik,1,PR2033,2001,férfi,nem,2022-04-09_13h16.33.019,hesp_baseline,2021.2.3,Win32,59.95203837
,,,,,,,,,,,,,,,,,rokszom,rokszok,left,2.424,0,149,149,101,1,48,rokszik,rokszol,NA,NA,Te bizony sokat rokszol.,Én is sokat...,rokszok,rokszom,lakik,-szik,1,PR2033,2001,férfi,nem,2022-04-09_13h16.33.019,hesp_baseline,2021.2.3,Win32,59.95203837
,,,,,,,,,,,,,,,,,bregzünk,bregezünk,left,3.457,0,150,150,139,1,32,bregzik / bregezik,"bregzik, bregezni",ünk,NA,"János imád bregezni, ezért sokat bregzik.",Mi ritkán...,bregzünk,bregezünk,cselekszik,-zik,1,PR2033,2001,férfi,nem,2022-04-09_13h16.33.019,hesp_baseline,2021.2.3,Win32,59.95203837
,,,,,,,,,,,,,,,,,bribasoznak,bribaslanak,left,3.21,0,151,151,121,1,14,bribaslik / bribasozik,"bribaslik, bribasozni",nek,NA,"János imád bribasozni, ezért sokat bribaslik.",Ők ritkán...,bribaslanak,bribasoznak,cselekszik,-lik,2,PR2033,2001,férfi,nem,2022-04-09_13h16.33.019,hesp_baseline,2021.2.3,Win32,59.95203837
,,,,,,,,,,,,,,,,,préleglem,préleglek,right,2.512,0,152,152,104,1,51,préleglik,préleglesz,NA,NA,Te bizony sokat préleglesz.,Én is sokat...,préleglek,préleglem,lakik,-lik,2,PR2033,2001,férfi,nem,2022-04-09_13h16.33.019,hesp_baseline,2021.2.3,Win32,59.95203837
,,,,,,,,,,,,,,,,,míslunk,mísozunk,left,3.359,0,153,153,123,1,16,míslik / mísozik,"míslik, mísozni",ünk,NA,"János imád mísozni, ezért sokat míslik.",Mi ritkán...,míslunk,mísozunk,cselekszik,-lik,1,PR2033,2001,férfi,nem,2022-04-09_13h16.33.019,hesp_baseline,2021.2.3,Win32,59.95203837
,,,,,,,,,,,,,,,,,plövőrzök,plövőrzöm,right,2.985,0,154,154,58,1,5,plövőrzik,plövőrzöl,NA,NA,Te bizony sokat plövőrzöl.,Én is sokat...,plövőrzök,plövőrzöm,lakik,-zik,2,PR2033,2001,férfi,nem,2022-04-09_13h16.33.019,hesp_baseline,2021.2.3,Win32,59.95203837
,,,,,,,,,,,,,,,,,lörűdzök,lörűdzöm,right,2.293,0,155,155,77,1,24,lörűdzik,lörűdzöl,NA,NA,Te bizony sokat lörűdzöl.,Én is sokat...,lörűdzök,lörűdzöm,lakik,-zik,2,PR2033,2001,férfi,nem,2022-04-09_13h16.33.019,hesp_baseline,2021.2.3,Win32,59.95203837
,,,,,,,,,,,,,,,,,flérlek,flérlem,left,2.512,0,156,156,89,1,36,flérlik,flérlesz,NA,NA,Te bizony sokat flérlesz.,Én is sokat...,flérlek,flérlem,lakik,-lik,1,PR2033,2001,férfi,nem,2022-04-09_13h16.33.019,hesp_baseline,2021.2.3,Win32,59.95203837
,,,,,,,,,,,,,,,,,nyülököznek,nyülöklenek,right,2.937,0,157,157,108,1,1,nyülöklik / nyülöközik,"nyülöklik, nyülöközni",nek,NA,"János imád nyülöközni, ezért sokat nyülöklik.",Ők ritkán...,nyülöklenek,nyülököznek,cselekszik,-lik,2,PR2033,2001,férfi,nem,2022-04-09_13h16.33.019,hesp_baseline,2021.2.3,Win32,59.95203837
,,,,,,,,,,,,,,,,,drügzöm,drügzök,left,3.19,0,158,158,72,1,19,drügzik,drügzöl,NA,NA,Te bizony sokat drügzöl.,Én is sokat...,drügzök,drügzöm,lakik,-zik,1,PR2033,2001,férfi,nem,2022-04-09_13h16.33.019,hesp_baseline,2021.2.3,Win32,59.95203837
,,,,,,,,,,,,,,,,,riványlotok,riványoztok,left,2.923,0,159,159,117,1,10,riványlik / riványozik,"riványlik, riványozni",tek,NA,"János imád riványozni, ezért sokat riványlik.",Ti ritkán...,riványlotok,riványoztok,cselekszik,-lik,2,PR2033,2001,férfi,nem,2022-04-09_13h16.33.019,hesp_baseline,2021.2.3,Win32,59.95203837
,,,,,,,,,,,,,,,,,dutecnél,dutecnál,left,8.638,0,160,160,22,1,23,dutec,dutec,nál,e,Ez itt egy dutec.,Nincs is jobb egy jó...,dutecnél,dutecnál,dzsungel,NA,NA,PR2033,2001,férfi,nem,2022-04-09_13h16.33.019,hesp_baseline,2021.2.3,Win32,59.95203837
,,,,,,,,,,,,,,,,,zsúdelnek,zsúdelnak,left,4.546,0,161,161,14,1,15,zsúdel,zsúdel,nak,e,Ez itt egy zsúdel.,Elneveztem a kutyámat...,zsúdelnek,zsúdelnak,dzsungel,NA,NA,PR2033,2001,férfi,nem,2022-04-09_13h16.33.019,hesp_baseline,2021.2.3,Win32,59.95203837
