my_list,key.keys,key.rt,key_2.keys,key_2.rt,keyboard_input_2.keys,keyboard_input_2.rt,key_3.keys,key_3.rt,keyboard_input_3.keys,keyboard_input_3.rt,key_4.keys,key_4.rt,keyboard_input_4.keys,keyboard_input_4.rt,key_5.keys,key_5.rt,my_button1,my_button2,keyboard_input.keys,keyboard_input.rt,withinBlock.thisRepN,withinBlock.thisTrialN,withinBlock.thisN,withinBlock.thisIndex,withinBlock.ran,rowname,word,prompt,suffix,vowel,carrier_sentence,target_sentence,target1,target2,category,derivational,nsyl,Azonosító,Melyik évben születtél?,Mi a nemed?,Tanultál nyelvészetet?,date,expName,psychopyVersion,OS,frameRate
list2.csv,space,358.7586,space,10.0281,right,7.8528,space,24.3813,left,4.6246,space,15.6173,left,8.6606,space,159.25,ikszertban,ikszertben,right,7.3762,0,0,0,19,1,74,ikszert,ikszert,ban,e,Ez itt egy ikszert.,Ott vagyunk a...,ikszertben,ikszertban,dzsungel,NA,NA,PR2079,1980,nő,nem,2022-04-19_12h36.16.882,hesp_baseline,2021.2.3,Win32,60.27000964
,,,,,,,,,,,,,,,,,prohódzom,prohódzok,left,5.6392,0,1,1,66,1,67,prohódzik,prohódzol,NA,NA,Te bizony sokat prohódzol.,Én is sokat...,prohódzok,prohódzom,lakik,-zik,2,PR2079,1980,nő,nem,2022-04-19_12h36.16.882,hesp_baseline,2021.2.3,Win32,60.27000964
,,,,,,,,,,,,,,,,,dingecnek,dingecnak,right,5.5612,0,2,2,42,1,97,dingec,dingec,nak,e,Ez itt egy dingec.,Elneveztem a kutyámat...,dingecnek,dingecnak,dzsungel,NA,NA,PR2079,1980,nő,nem,2022-04-19_12h36.16.882,hesp_baseline,2021.2.3,Win32,60.27000964
,,,,,,,,,,,,,,,,,metégszenek,metégednek,right,12.0103,0,3,3,112,1,59,metégszik / metégedik,"metégszik, metégedni",nek,NA,"János imád metégedni, ezért sokat metégszik.",Ők ritkán...,metégszenek,metégednek,cselekszik,-szik,2,PR2079,1980,nő,nem,2022-04-19_12h36.16.882,hesp_baseline,2021.2.3,Win32,60.27000964
,,,,,,,,,,,,,,,,,livénylünk,livényezünk,right,11.2817,0,4,4,128,1,75,livénylik / livényezik,"livénylik, livényezni",ünk,NA,"János imád livényezni, ezért sokat livénylik.",Mi ritkán...,livénylünk,livényezünk,cselekszik,-lik,2,PR2079,1980,nő,nem,2022-04-19_12h36.16.882,hesp_baseline,2021.2.3,Win32,60.27000964
,,,,,,,,,,,,,,,,,nyürzenek,nyüröznek,right,6.5614,0,5,5,123,1,70,nyürzik / nyürözik,"nyürzik, nyürözni",nek,NA,"János imád nyürözni, ezért sokat nyürzik.",Ők ritkán...,nyürzenek,nyüröznek,cselekszik,-zik,1,PR2079,1980,nő,nem,2022-04-19_12h36.16.882,hesp_baseline,2021.2.3,Win32,60.27000964
,,,,,,,,,,,,,,,,,frésezünk,fréslünk,right,12.8009,0,6,6,138,1,85,fréslik / frésezik,"fréslik, frésezni",ünk,NA,"János imád frésezni, ezért sokat fréslik.",Mi ritkán...,fréslünk,frésezünk,cselekszik,-lik,1,PR2079,1980,nő,nem,2022-04-19_12h36.16.882,hesp_baseline,2021.2.3,Win32,60.27000964
,,,,,,,,,,,,,,,,,sponyoznak,sponylanak,right,8.428,0,7,7,125,1,72,sponylik / sponyozik,"sponylik, sponyozni",nek,NA,"János imád sponyozni, ezért sokat sponylik.",Ők ritkán...,sponylanak,sponyoznak,cselekszik,-lik,1,PR2079,1980,nő,nem,2022-04-19_12h36.16.882,hesp_baseline,2021.2.3,Win32,60.27000964
,,,,,,,,,,,,,,,,,júdernek,júdernak,right,11.0874,0,8,8,53,1,108,júder,júder,nak,e,Ez itt egy júder.,Elneveztem a kutyámat...,júdernek,júdernak,dzsungel,NA,NA,PR2079,1980,nő,nem,2022-04-19_12h36.16.882,hesp_baseline,2021.2.3,Win32,60.27000964
,,,,,,,,,,,,,,,,,lorjódzom,lorjódzok,left,4.4781,0,9,9,88,1,89,lorjódzik,lorjódzol,NA,NA,Te bizony sokat lorjódzol.,Én is sokat...,lorjódzok,lorjódzom,lakik,-zik,2,PR2079,1980,nő,nem,2022-04-19_12h36.16.882,hesp_baseline,2021.2.3,Win32,60.27000964
,,,,,,,,,,,,,,,,,lírlanak,líroznak,right,9.9283,0,10,10,115,1,62,lírlik / lírozik,"lírlik, lírozni",nek,NA,"János imád lírozni, ezért sokat lírlik.",Ők ritkán...,lírlanak,líroznak,cselekszik,-lik,1,PR2079,1980,nő,nem,2022-04-19_12h36.16.882,hesp_baseline,2021.2.3,Win32,60.27000964
,,,,,,,,,,,,,,,,,juszlok,juszlom,right,5.4949,0,11,11,79,1,80,juszlik,juszlasz,NA,NA,Te bizony sokat juszlasz.,Én is sokat...,juszlok,juszlom,lakik,-lik,1,PR2079,1980,nő,nem,2022-04-19_12h36.16.882,hesp_baseline,2021.2.3,Win32,60.27000964
,,,,,,,,,,,,,,,,,spöklünk,spöközünk,right,8.2658,0,12,12,130,1,77,spöklik / spöközik,"spöklik, spöközni",ünk,NA,"János imád spöközni, ezért sokat spöklik.",Mi ritkán...,spöklünk,spöközünk,cselekszik,-lik,1,PR2079,1980,nő,nem,2022-04-19_12h36.16.882,hesp_baseline,2021.2.3,Win32,60.27000964
,,,,,,,,,,,,,,,,,tiregzek,tiregzem,left,5.6288,0,13,13,64,1,65,tiregzik,tiregzel,NA,NA,Te bizony sokat tiregzel.,Én is sokat...,tiregzek,tiregzem,lakik,-zik,2,PR2079,1980,nő,nem,2022-04-19_12h36.16.882,hesp_baseline,2021.2.3,Win32,60.27000964
,,,,,,,,,,,,,,,,,kumlom,kumlok,right,4.9526,0,14,14,105,1,106,kumlik,kumlasz,NA,NA,Te bizony sokat kumlasz.,Én is sokat...,kumlok,kumlom,lakik,-lik,1,PR2079,1980,nő,nem,2022-04-19_12h36.16.882,hesp_baseline,2021.2.3,Win32,60.27000964
,,,,,,,,,,,,,,,,,fájézben,fájézban,left,6.8618,0,15,15,7,1,62,fájéz,fájéz,ban,é,Ez itt egy fájéz.,Ott vagyunk a...,fájézben,fájézban,dzsungel,NA,NA,PR2079,1980,nő,nem,2022-04-19_12h36.16.882,hesp_baseline,2021.2.3,Win32,60.27000964
,,,,,,,,,,,,,,,,,kátédnál,kátédnél,left,14.4492,0,16,16,37,1,92,kátéd,kátéd,nál,é,Ez itt egy kátéd.,Nincs is jobb egy jó...,kátédnél,kátédnál,dzsungel,NA,NA,PR2079,1980,nő,nem,2022-04-19_12h36.16.882,hesp_baseline,2021.2.3,Win32,60.27000964
,,,,,,,,,,,,,,,,,spülűdzöm,spülűdzök,left,5.1031,0,17,17,56,1,57,spülűdzik,spülűdzöl,NA,NA,Te bizony sokat spülűdzöl.,Én is sokat...,spülűdzök,spülűdzöm,lakik,-zik,2,PR2079,1980,nő,nem,2022-04-19_12h36.16.882,hesp_baseline,2021.2.3,Win32,60.27000964
,,,,,,,,,,,,,,,,,nyábétban,nyábétben,left,5.6841,0,18,18,21,1,76,nyábét,nyábét,ban,é,Ez itt egy nyábét.,Ott vagyunk a...,nyábétben,nyábétban,dzsungel,NA,NA,PR2079,1980,nő,nem,2022-04-19_12h36.16.882,hesp_baseline,2021.2.3,Win32,60.27000964
,,,,,,,,,,,,,,,,,pratánylom,pratánylok,left,5.4814,0,19,19,95,1,96,pratánylik,pratánylasz,NA,NA,Te bizony sokat pratánylasz.,Én is sokat...,pratánylok,pratánylom,lakik,-lik,2,PR2079,1980,nő,nem,2022-04-19_12h36.16.882,hesp_baseline,2021.2.3,Win32,60.27000964
,,,,,,,,,,,,,,,,,molodtok,molszotok,right,6.0962,0,20,20,142,1,89,molszik / molodik,"molszik, molodni",tek,NA,"János imád molodni, ezért sokat molszik.",Ti ritkán...,molszotok,molodtok,cselekszik,-szik,1,PR2079,1980,nő,nem,2022-04-19_12h36.16.882,hesp_baseline,2021.2.3,Win32,60.27000964
,,,,,,,,,,,,,,,,,flerékszünk,flerékedünk,left,6.1447,0,21,21,159,1,106,flerékszik / flerékedik,"flerékszik, flerékedni",ünk,NA,"János imád flerékedni, ezért sokat flerékszik.",Mi ritkán...,flerékszünk,flerékedünk,cselekszik,-szik,2,PR2079,1980,nő,nem,2022-04-19_12h36.16.882,hesp_baseline,2021.2.3,Win32,60.27000964
,,,,,,,,,,,,,,,,,pratelynek,pratelynak,left,8.1799,0,22,22,47,1,102,prately,prately,nak,e,Ez itt egy prately.,Elneveztem a kutyámat...,pratelynek,pratelynak,dzsungel,NA,NA,PR2079,1980,nő,nem,2022-04-19_12h36.16.882,hesp_baseline,2021.2.3,Win32,60.27000964
,,,,,,,,,,,,,,,,,klítegynél,klítegynál,left,4.9152,0,23,23,5,1,60,klítegy,klítegy,nál,e,Ez itt egy klítegy.,Nincs is jobb egy jó...,klítegynél,klítegynál,dzsungel,NA,NA,PR2079,1980,nő,nem,2022-04-19_12h36.16.882,hesp_baseline,2021.2.3,Win32,60.27000964
,,,,,,,,,,,,,,,,,spihegzem,spihegzek,left,4.8785,0,24,24,81,1,82,spihegzik,spihegzel,NA,NA,Te bizony sokat spihegzel.,Én is sokat...,spihegzek,spihegzem,lakik,-zik,2,PR2079,1980,nő,nem,2022-04-19_12h36.16.882,hesp_baseline,2021.2.3,Win32,60.27000964
,,,,,,,,,,,,,,,,,flitlom,flitlok,left,7.9569,0,25,25,90,1,91,flitlik,flitlasz,NA,NA,Te bizony sokat flitlasz.,Én is sokat...,flitlok,flitlom,lakik,-lik,1,PR2079,1980,nő,nem,2022-04-19_12h36.16.882,hesp_baseline,2021.2.3,Win32,60.27000964
,,,,,,,,,,,,,,,,,lijeznak,lijeznek,right,12.8789,0,26,26,40,1,95,lijez,lijez,nak,e,Ez itt egy lijez.,Elneveztem a kutyámat...,lijeznek,lijeznak,dzsungel,NA,NA,PR2079,1980,nő,nem,2022-04-19_12h36.16.882,hesp_baseline,2021.2.3,Win32,60.27000964
,,,,,,,,,,,,,,,,,zihencnak,zihencnek,right,3.2885,0,27,27,52,1,107,zihenc,zihenc,nak,e,Ez itt egy zihenc.,Elneveztem a kutyámat...,zihencnek,zihencnak,dzsungel,NA,NA,PR2079,1980,nő,nem,2022-04-19_12h36.16.882,hesp_baseline,2021.2.3,Win32,60.27000964
,,,,,,,,,,,,,,,,,sprízemnél,sprízemnál,left,4.2217,0,28,28,22,1,77,sprízem,sprízem,nál,e,Ez itt egy sprízem.,Nincs is jobb egy jó...,sprízemnél,sprízemnál,dzsungel,NA,NA,PR2079,1980,nő,nem,2022-04-19_12h36.16.882,hesp_baseline,2021.2.3,Win32,60.27000964
,,,,,,,,,,,,,,,,,vorszennál,vorszennél,right,3.0707,0,29,29,30,1,85,vorszen,vorszen,nál,e,Ez itt egy vorszen.,Nincs is jobb egy jó...,vorszennél,vorszennál,dzsungel,NA,NA,PR2079,1980,nő,nem,2022-04-19_12h36.16.882,hesp_baseline,2021.2.3,Win32,60.27000964
,,,,,,,,,,,,,,,,,péleslem,péleslek,right,5.1285,0,30,30,73,1,74,péleslik,péleslesz,NA,NA,Te bizony sokat péleslesz.,Én is sokat...,péleslek,péleslem,lakik,-lik,2,PR2079,1980,nő,nem,2022-04-19_12h36.16.882,hesp_baseline,2021.2.3,Win32,60.27000964
,,,,,,,,,,,,,,,,,nuroklunk,nurokozunk,left,5.3034,0,31,31,131,1,78,nuroklik / nurokozik,"nuroklik, nurokozni",ünk,NA,"János imád nurokozni, ezért sokat nuroklik.",Mi ritkán...,nuroklunk,nurokozunk,cselekszik,-lik,2,PR2079,1980,nő,nem,2022-04-19_12h36.16.882,hesp_baseline,2021.2.3,Win32,60.27000964
,,,,,,,,,,,,,,,,,dilakoztok,dilaklotok,left,9.3624,0,32,32,158,1,105,dilaklik / dilakozik,"dilaklik, dilakozni",tek,NA,"János imád dilakozni, ezért sokat dilaklik.",Ti ritkán...,dilaklotok,dilakoztok,cselekszik,-lik,2,PR2079,1980,nő,nem,2022-04-19_12h36.16.882,hesp_baseline,2021.2.3,Win32,60.27000964
,,,,,,,,,,,,,,,,,trírzunk,trírozunk,right,12.5282,0,33,33,116,1,63,trírzik / trírozik,"trírzik, trírozni",ünk,NA,"János imád trírozni, ezért sokat trírzik.",Mi ritkán...,trírzunk,trírozunk,cselekszik,-zik,1,PR2079,1980,nő,nem,2022-04-19_12h36.16.882,hesp_baseline,2021.2.3,Win32,60.27000964
,,,,,,,,,,,,,,,,,gyihegzetek,gyihegeztek,right,10.4501,0,34,34,124,1,71,gyihegzik / gyihegezik,"gyihegzik, gyihegezni",tek,NA,"János imád gyihegezni, ezért sokat gyihegzik.",Ti ritkán...,gyihegzetek,gyihegeztek,cselekszik,-zik,2,PR2079,1980,nő,nem,2022-04-19_12h36.16.882,hesp_baseline,2021.2.3,Win32,60.27000964
,,,,,,,,,,,,,,,,,szűslök,szűslöm,left,4.6381,0,35,35,85,1,86,szűslik,szűslesz,NA,NA,Te bizony sokat szűslesz.,Én is sokat...,szűslök,szűslöm,lakik,-lik,1,PR2079,1980,nő,nem,2022-04-19_12h36.16.882,hesp_baseline,2021.2.3,Win32,60.27000964
,,,,,,,,,,,,,,,,,sprigoztok,sprigzotok,left,14.9286,0,36,36,129,1,76,sprigzik / sprigozik,"sprigzik, sprigozni",tek,NA,"János imád sprigozni, ezért sokat sprigzik.",Ti ritkán...,sprigzotok,sprigoztok,cselekszik,-zik,1,PR2079,1980,nő,nem,2022-04-19_12h36.16.882,hesp_baseline,2021.2.3,Win32,60.27000964
,,,,,,,,,,,,,,,,,ronvetnek,ronvetnak,left,6.4799,0,37,37,9,1,64,ronvet,ronvet,nak,e,Ez itt egy ronvet.,Elneveztem a kutyámat...,ronvetnek,ronvetnak,dzsungel,NA,NA,PR2079,1980,nő,nem,2022-04-19_12h36.16.882,hesp_baseline,2021.2.3,Win32,60.27000964
,,,,,,,,,,,,,,,,,frodlom,frodlok,left,3.895,0,38,38,61,1,62,frodlik,frodlasz,NA,NA,Te bizony sokat frodlasz.,Én is sokat...,frodlok,frodlom,lakik,-lik,1,PR2079,1980,nő,nem,2022-04-19_12h36.16.882,hesp_baseline,2021.2.3,Win32,60.27000964
,,,,,,,,,,,,,,,,,dibáglotok,dibágoztok,left,7.0785,0,39,39,154,1,101,dibáglik / dibágozik,"dibáglik, dibágozni",tek,NA,"János imád dibágozni, ezért sokat dibáglik.",Ti ritkán...,dibáglotok,dibágoztok,cselekszik,-lik,2,PR2079,1980,nő,nem,2022-04-19_12h36.16.882,hesp_baseline,2021.2.3,Win32,60.27000964
,,,,,,,,,,,,,,,,,klehényletek,klehényeztek,left,10.1633,0,40,40,113,1,60,klehénylik / klehényezik,"klehénylik, klehényezni",tek,NA,"János imád klehényezni, ezért sokat klehénylik.",Ti ritkán...,klehényletek,klehényeztek,cselekszik,-lik,2,PR2079,1980,nő,nem,2022-04-19_12h36.16.882,hesp_baseline,2021.2.3,Win32,60.27000964
,,,,,,,,,,,,,,,,,sprogzok,sprogzom,right,4.3178,0,41,41,89,1,90,sprogzik,sprogzol,NA,NA,Te bizony sokat sprogzol.,Én is sokat...,sprogzok,sprogzom,lakik,-zik,1,PR2079,1980,nő,nem,2022-04-19_12h36.16.882,hesp_baseline,2021.2.3,Win32,60.27000964
,,,,,,,,,,,,,,,,,flűgözünk,flűgzünk,left,5.6053,0,42,42,160,1,107,flűgzik / flűgözik,"flűgzik, flűgözni",ünk,NA,"János imád flűgözni, ezért sokat flűgzik.",Mi ritkán...,flűgzünk,flűgözünk,cselekszik,-zik,1,PR2079,1980,nő,nem,2022-04-19_12h36.16.882,hesp_baseline,2021.2.3,Win32,60.27000964
,,,,,,,,,,,,,,,,,frálasoznak,frálaslanak,left,6.1612,0,43,43,110,1,57,frálaslik / frálasozik,"frálaslik, frálasozni",nek,NA,"János imád frálasozni, ezért sokat frálaslik.",Ők ritkán...,frálaslanak,frálasoznak,cselekszik,-lik,2,PR2079,1980,nő,nem,2022-04-19_12h36.16.882,hesp_baseline,2021.2.3,Win32,60.27000964
,,,,,,,,,,,,,,,,,ribegzem,ribegzek,left,6.4729,0,44,44,63,1,64,ribegzik,ribegzel,NA,NA,Te bizony sokat ribegzel.,Én is sokat...,ribegzek,ribegzem,lakik,-zik,2,PR2079,1980,nő,nem,2022-04-19_12h36.16.882,hesp_baseline,2021.2.3,Win32,60.27000964
,,,,,,,,,,,,,,,,,gúdenban,gúdenben,right,6.5798,0,45,45,4,1,59,gúden,gúden,ban,e,Ez itt egy gúden.,Ott vagyunk a...,gúdenben,gúdenban,dzsungel,NA,NA,PR2079,1980,nő,nem,2022-04-19_12h36.16.882,hesp_baseline,2021.2.3,Win32,60.27000964
,,,,,,,,,,,,,,,,,femlem,femlek,right,3.3482,0,46,46,57,1,58,femlik,femlesz,NA,NA,Te bizony sokat femlesz.,Én is sokat...,femlek,femlem,lakik,-lik,1,PR2079,1980,nő,nem,2022-04-19_12h36.16.882,hesp_baseline,2021.2.3,Win32,60.27000964
,,,,,,,,,,,,,,,,,prilepedünk,prilepszünk,left,8.2876,0,47,47,161,1,108,prilepszik / prilepedik,"prilepszik, prilepedni",ünk,NA,"János imád prilepedni, ezért sokat prilepszik.",Mi ritkán...,prilepszünk,prilepedünk,cselekszik,-szik,2,PR2079,1980,nő,nem,2022-04-19_12h36.16.882,hesp_baseline,2021.2.3,Win32,60.27000964
,,,,,,,,,,,,,,,,,spáraklok,spáraklom,left,8.3206,0,48,48,96,1,97,spáraklik,spáraklasz,NA,NA,Te bizony sokat spáraklasz.,Én is sokat...,spáraklok,spáraklom,lakik,-lik,2,PR2079,1980,nő,nem,2022-04-19_12h36.16.882,hesp_baseline,2021.2.3,Win32,60.27000964
,,,,,,,,,,,,,,,,,spatárzom,spatárzok,left,6.9687,0,49,49,69,1,70,spatárzik,spatárzol,NA,NA,Te bizony sokat spatárzol.,Én is sokat...,spatárzok,spatárzom,lakik,-zik,2,PR2079,1980,nő,nem,2022-04-19_12h36.16.882,hesp_baseline,2021.2.3,Win32,60.27000964
,,,,,,,,,,,,,,,,,spügzünk,spügözünk,right,6.2766,0,50,50,143,1,90,spügzik / spügözik,"spügzik, spügözni",ünk,NA,"János imád spügözni, ezért sokat spügzik.",Mi ritkán...,spügzünk,spügözünk,cselekszik,-zik,1,PR2079,1980,nő,nem,2022-04-19_12h36.16.882,hesp_baseline,2021.2.3,Win32,60.27000964
,,,,,,,,,,,,,,,,,bribékszetek,bribékedtek,right,6.0235,0,51,51,141,1,88,bribékszik / bribékedik,"bribékszik, bribékedni",tek,NA,"János imád bribékedni, ezért sokat bribékszik.",Ti ritkán...,bribékszetek,bribékedtek,cselekszik,-szik,2,PR2079,1980,nő,nem,2022-04-19_12h36.16.882,hesp_baseline,2021.2.3,Win32,60.27000964
,,,,,,,,,,,,,,,,,trigencnak,trigencnek,right,3.0902,0,52,52,31,1,86,trigenc,trigenc,nak,e,Ez itt egy trigenc.,Elneveztem a kutyámat...,trigencnek,trigencnak,dzsungel,NA,NA,PR2079,1980,nő,nem,2022-04-19_12h36.16.882,hesp_baseline,2021.2.3,Win32,60.27000964
,,,,,,,,,,,,,,,,,ítensben,ítensban,left,4.2399,0,53,53,50,1,105,ítens,ítens,ban,e,Ez itt egy ítens.,Ott vagyunk a...,ítensben,ítensban,dzsungel,NA,NA,PR2079,1980,nő,nem,2022-04-19_12h36.16.882,hesp_baseline,2021.2.3,Win32,60.27000964
,,,,,,,,,,,,,,,,,forzédnak,forzédnek,right,6.7479,0,54,54,46,1,101,forzéd,forzéd,nak,é,Ez itt egy forzéd.,Elneveztem a kutyámat...,forzédnek,forzédnak,dzsungel,NA,NA,PR2079,1980,nő,nem,2022-04-19_12h36.16.882,hesp_baseline,2021.2.3,Win32,60.27000964
,,,,,,,,,,,,,,,,,spizecnek,spizecnak,left,4.6923,0,55,55,6,1,61,spizec,spizec,nak,e,Ez itt egy spizec.,Elneveztem a kutyámat...,spizecnek,spizecnak,dzsungel,NA,NA,PR2079,1980,nő,nem,2022-04-19_12h36.16.882,hesp_baseline,2021.2.3,Win32,60.27000964
,,,,,,,,,,,,,,,,,szanéjnak,szanéjnek,right,4.4337,0,56,56,13,1,68,szanéj,szanéj,nak,é,Ez itt egy szanéj.,Elneveztem a kutyámat...,szanéjnek,szanéjnak,dzsungel,NA,NA,PR2079,1980,nő,nem,2022-04-19_12h36.16.882,hesp_baseline,2021.2.3,Win32,60.27000964
,,,,,,,,,,,,,,,,,sporzemnek,sporzemnak,left,3.7151,0,57,57,26,1,81,sporzem,sporzem,nak,e,Ez itt egy sporzem.,Elneveztem a kutyámat...,sporzemnek,sporzemnak,dzsungel,NA,NA,PR2079,1980,nő,nem,2022-04-19_12h36.16.882,hesp_baseline,2021.2.3,Win32,60.27000964
,,,,,,,,,,,,,,,,,daboztok,dabzotok,left,8.3056,0,58,58,109,1,56,dabzik / dabozik,"dabzik, dabozni",tek,NA,"János imád dabozni, ezért sokat dabzik.",Ti ritkán...,dabzotok,daboztok,cselekszik,-zik,1,PR2079,1980,nő,nem,2022-04-19_12h36.16.882,hesp_baseline,2021.2.3,Win32,60.27000964
,,,,,,,,,,,,,,,,,spubonylok,spubonylom,left,8.7378,0,59,59,104,1,105,spubonylik,spubonylasz,NA,NA,Te bizony sokat spubonylasz.,Én is sokat...,spubonylok,spubonylom,lakik,-lik,2,PR2079,1980,nő,nem,2022-04-19_12h36.16.882,hesp_baseline,2021.2.3,Win32,60.27000964
,,,,,,,,,,,,,,,,,csólorzok,csólorzom,left,4.7362,0,60,60,102,1,103,csólorzik,csólorzol,NA,NA,Te bizony sokat csólorzol.,Én is sokat...,csólorzok,csólorzom,lakik,-zik,2,PR2079,1980,nő,nem,2022-04-19_12h36.16.882,hesp_baseline,2021.2.3,Win32,60.27000964
,,,,,,,,,,,,,,,,,gihamoznak,gihamlanak,left,6.97,0,61,61,133,1,80,gihamlik / gihamozik,"gihamlik, gihamozni",nek,NA,"János imád gihamozni, ezért sokat gihamlik.",Ők ritkán...,gihamlanak,gihamoznak,cselekszik,-lik,2,PR2079,1980,nő,nem,2022-04-19_12h36.16.882,hesp_baseline,2021.2.3,Win32,60.27000964
,,,,,,,,,,,,,,,,,játozunk,játlunk,left,6.2179,0,62,62,145,1,92,játlik / játozik,"játlik, játozni",ünk,NA,"János imád játozni, ezért sokat játlik.",Mi ritkán...,játlunk,játozunk,cselekszik,-lik,1,PR2079,1980,nő,nem,2022-04-19_12h36.16.882,hesp_baseline,2021.2.3,Win32,60.27000964
,,,,,,,,,,,,,,,,,prazlunk,prazozunk,right,7.9301,0,63,63,119,1,66,prazlik / prazozik,"prazlik, prazozni",ünk,NA,"János imád prazozni, ezért sokat prazlik.",Mi ritkán...,prazlunk,prazozunk,cselekszik,-lik,1,PR2079,1980,nő,nem,2022-04-19_12h36.16.882,hesp_baseline,2021.2.3,Win32,60.27000964
,,,,,,,,,,,,,,,,,csimennál,csimennél,right,12.5287,0,64,64,44,1,99,csimen,csimen,nál,e,Ez itt egy csimen.,Nincs is jobb egy jó...,csimennél,csimennál,dzsungel,NA,NA,PR2079,1980,nő,nem,2022-04-19_12h36.16.882,hesp_baseline,2021.2.3,Win32,60.27000964
,,,,,,,,,,,,,,,,,gilárzok,gilárzom,right,4.9282,0,65,65,94,1,95,gilárzik,gilárzol,NA,NA,Te bizony sokat gilárzol.,Én is sokat...,gilárzok,gilárzom,lakik,-zik,2,PR2079,1980,nő,nem,2022-04-19_12h36.16.882,hesp_baseline,2021.2.3,Win32,60.27000964
,,,,,,,,,,,,,,,,,zarcégnál,zarcégnél,right,3.8629,0,66,66,29,1,84,zarcég,zarcég,nál,é,Ez itt egy zarcég.,Nincs is jobb egy jó...,zarcégnél,zarcégnál,dzsungel,NA,NA,PR2079,1980,nő,nem,2022-04-19_12h36.16.882,hesp_baseline,2021.2.3,Win32,60.27000964
,,,,,,,,,,,,,,,,,nyádlanak,nyádoznak,right,6.203,0,67,67,120,1,67,nyádlik / nyádozik,"nyádlik, nyádozni",nek,NA,"János imád nyádozni, ezért sokat nyádlik.",Ők ritkán...,nyádlanak,nyádoznak,cselekszik,-lik,1,PR2079,1980,nő,nem,2022-04-19_12h36.16.882,hesp_baseline,2021.2.3,Win32,60.27000964
,,,,,,,,,,,,,,,,,spibeglünk,spibegezünk,right,35.4216,0,68,68,147,1,94,spibeglik / spibegezik,"spibeglik, spibegezni",ünk,NA,"János imád spibegezni, ezért sokat spibeglik.",Mi ritkán...,spibeglünk,spibegezünk,cselekszik,-lik,2,PR2079,1980,nő,nem,2022-04-19_12h36.16.882,hesp_baseline,2021.2.3,Win32,60.27000964
,,,,,,,,,,,,,,,,,friszlok,friszlom,left,5.2825,0,69,69,97,1,98,friszlik,friszlasz,NA,NA,Te bizony sokat friszlasz.,Én is sokat...,friszlok,friszlom,lakik,-lik,1,PR2079,1980,nő,nem,2022-04-19_12h36.16.882,hesp_baseline,2021.2.3,Win32,60.27000964
,,,,,,,,,,,,,,,,,tumélynél,tumélynál,left,4.5128,0,70,70,28,1,83,tumély,tumély,nál,é,Ez itt egy tumély.,Nincs is jobb egy jó...,tumélynél,tumélynál,dzsungel,NA,NA,PR2079,1980,nő,nem,2022-04-19_12h36.16.882,hesp_baseline,2021.2.3,Win32,60.27000964
,,,,,,,,,,,,,,,,,fröjözünk,fröjlünk,left,5.8332,0,71,71,117,1,64,fröjlik / fröjözik,"fröjlik, fröjözni",ünk,NA,"János imád fröjözni, ezért sokat fröjlik.",Mi ritkán...,fröjlünk,fröjözünk,cselekszik,-lik,1,PR2079,1980,nő,nem,2022-04-19_12h36.16.882,hesp_baseline,2021.2.3,Win32,60.27000964
,,,,,,,,,,,,,,,,,rapszeknál,rapszeknél,right,3.848,0,72,72,35,1,90,rapszek,rapszek,nál,e,Ez itt egy rapszek.,Nincs is jobb egy jó...,rapszeknél,rapszeknál,dzsungel,NA,NA,PR2079,1980,nő,nem,2022-04-19_12h36.16.882,hesp_baseline,2021.2.3,Win32,60.27000964
,,,,,,,,,,,,,,,,,sojzok,sojzom,right,6.3879,0,73,73,74,1,75,sojzik,sojzol,NA,NA,Te bizony sokat sojzol.,Én is sokat...,sojzok,sojzom,lakik,-zik,1,PR2079,1980,nő,nem,2022-04-19_12h36.16.882,hesp_baseline,2021.2.3,Win32,60.27000964
,,,,,,,,,,,,,,,,,pribemlem,pribemlek,right,11.6311,0,74,74,107,1,108,pribemlik,pribemlesz,NA,NA,Te bizony sokat pribemlesz.,Én is sokat...,pribemlek,pribemlem,lakik,-lik,2,PR2079,1980,nő,nem,2022-04-19_12h36.16.882,hesp_baseline,2021.2.3,Win32,60.27000964
,,,,,,,,,,,,,,,,,ribzom,ribzok,left,4.1826,0,75,75,58,1,59,ribzik,ribzol,NA,NA,Te bizony sokat ribzol.,Én is sokat...,ribzok,ribzom,lakik,-zik,1,PR2079,1980,nő,nem,2022-04-19_12h36.16.882,hesp_baseline,2021.2.3,Win32,60.27000964
,,,,,,,,,,,,,,,,,praslom,praslok,left,7.1136,0,76,76,80,1,81,praslik,praslasz,NA,NA,Te bizony sokat praslasz.,Én is sokat...,praslok,praslom,lakik,-lik,1,PR2079,1980,nő,nem,2022-04-19_12h36.16.882,hesp_baseline,2021.2.3,Win32,60.27000964
,,,,,,,,,,,,,,,,,nidétban,nidétben,left,4.5458,0,77,77,39,1,94,nidét,nidét,ban,é,Ez itt egy nidét.,Ott vagyunk a...,nidétben,nidétban,dzsungel,NA,NA,PR2079,1980,nő,nem,2022-04-19_12h36.16.882,hesp_baseline,2021.2.3,Win32,60.27000964
,,,,,,,,,,,,,,,,,spüjzöm,spüjzök,left,5.8221,0,78,78,59,1,60,spüjzik,spüjzöl,NA,NA,Te bizony sokat spüjzöl.,Én is sokat...,spüjzök,spüjzöm,lakik,-zik,1,PR2079,1980,nő,nem,2022-04-19_12h36.16.882,hesp_baseline,2021.2.3,Win32,60.27000964
,,,,,,,,,,,,,,,,,hubonyoztok,hubonylotok,left,7.0176,0,79,79,157,1,104,hubonylik / hubonyozik,"hubonylik, hubonyozni",tek,NA,"János imád hubonyozni, ezért sokat hubonylik.",Ti ritkán...,hubonylotok,hubonyoztok,cselekszik,-lik,2,PR2079,1980,nő,nem,2022-04-19_12h36.16.882,hesp_baseline,2021.2.3,Win32,60.27000964
,,,,,,,,,,,,,,,,,csintékben,csintékban,right,4.1175,0,80,80,23,1,78,csinték,csinték,ban,é,Ez itt egy csinték.,Ott vagyunk a...,csintékben,csintékban,dzsungel,NA,NA,PR2079,1980,nő,nem,2022-04-19_12h36.16.882,hesp_baseline,2021.2.3,Win32,60.27000964
,,,,,,,,,,,,,,,,,brivegzem,brivegzek,left,5.4025,0,81,81,70,1,71,brivegzik,brivegzel,NA,NA,Te bizony sokat brivegzel.,Én is sokat...,brivegzek,brivegzem,lakik,-zik,2,PR2079,1980,nő,nem,2022-04-19_12h36.16.882,hesp_baseline,2021.2.3,Win32,60.27000964
,,,,,,,,,,,,,,,,,figlom,figlok,left,7.1384,0,82,82,75,1,76,figlik,figlasz,NA,NA,Te bizony sokat figlasz.,Én is sokat...,figlok,figlom,lakik,-lik,1,PR2079,1980,nő,nem,2022-04-19_12h36.16.882,hesp_baseline,2021.2.3,Win32,60.27000964
,,,,,,,,,,,,,,,,,tögöznek,töglenek,right,5.848,0,83,83,156,1,103,töglik / tögözik,"töglik, tögözni",nek,NA,"János imád tögözni, ezért sokat töglik.",Ők ritkán...,töglenek,tögöznek,cselekszik,-lik,1,PR2079,1980,nő,nem,2022-04-19_12h36.16.882,hesp_baseline,2021.2.3,Win32,60.27000964
,,,,,,,,,,,,,,,,,bivégszem,bivégszek,left,6.4683,0,84,84,68,1,69,bivégszik,bivégszel,NA,NA,Te bizony sokat bivégszel.,Én is sokat...,bivégszek,bivégszem,lakik,-szik,2,PR2079,1980,nő,nem,2022-04-19_12h36.16.882,hesp_baseline,2021.2.3,Win32,60.27000964
,,,,,,,,,,,,,,,,,floglom,floglok,right,4.4468,0,85,85,92,1,93,floglik,floglasz,NA,NA,Te bizony sokat floglasz.,Én is sokat...,floglok,floglom,lakik,-lik,1,PR2079,1980,nő,nem,2022-04-19_12h36.16.882,hesp_baseline,2021.2.3,Win32,60.27000964
,,,,,,,,,,,,,,,,,pítendban,pítendben,right,4.7288,0,86,86,18,1,73,pítend,pítend,ban,e,Ez itt egy pítend.,Ott vagyunk a...,pítendben,pítendban,dzsungel,NA,NA,PR2079,1980,nő,nem,2022-04-19_12h36.16.882,hesp_baseline,2021.2.3,Win32,60.27000964
,,,,,,,,,,,,,,,,,spivélnak,spivélnek,right,4.3695,0,87,87,27,1,82,spivél,spivél,nak,é,Ez itt egy spivél.,Elneveztem a kutyámat...,spivélnek,spivélnak,dzsungel,NA,NA,PR2079,1980,nő,nem,2022-04-19_12h36.16.882,hesp_baseline,2021.2.3,Win32,60.27000964
,,,,,,,,,,,,,,,,,spátennak,spátennek,right,11.0337,0,88,88,33,1,88,spáten,spáten,nak,e,Ez itt egy spáten.,Elneveztem a kutyámat...,spátennek,spátennak,dzsungel,NA,NA,PR2079,1980,nő,nem,2022-04-19_12h36.16.882,hesp_baseline,2021.2.3,Win32,60.27000964
,,,,,,,,,,,,,,,,,klajrénnak,klajrénnek,left,13.1525,0,89,89,41,1,96,klajrén,klajrén,nak,é,Ez itt egy klajrén.,Elneveztem a kutyámat...,klajrénnek,klajrénnak,dzsungel,NA,NA,PR2079,1980,nő,nem,2022-04-19_12h36.16.882,hesp_baseline,2021.2.3,Win32,60.27000964
,,,,,,,,,,,,,,,,,klűmlötök,klűmöztök,left,8.219,0,90,90,108,1,55,klűmlik / klűmözik,"klűmlik, klűmözni",tek,NA,"János imád klűmözni, ezért sokat klűmlik.",Ti ritkán...,klűmlötök,klűmöztök,cselekszik,-lik,1,PR2079,1980,nő,nem,2022-04-19_12h36.16.882,hesp_baseline,2021.2.3,Win32,60.27000964
,,,,,,,,,,,,,,,,,flibekszem,flibekszek,left,3.7616,0,91,91,93,1,94,flibekszik,flibekszel,NA,NA,Te bizony sokat flibekszel.,Én is sokat...,flibekszek,flibekszem,lakik,-szik,2,PR2079,1980,nő,nem,2022-04-19_12h36.16.882,hesp_baseline,2021.2.3,Win32,60.27000964
,,,,,,,,,,,,,,,,,dárakszunk,dárakodunk,left,11.0119,0,92,92,126,1,73,dárakszik / dárakodik,"dárakszik, dárakodni",ünk,NA,"János imád dárakodni, ezért sokat dárakszik.",Mi ritkán...,dárakszunk,dárakodunk,cselekszik,-szik,2,PR2079,1980,nő,nem,2022-04-19_12h36.16.882,hesp_baseline,2021.2.3,Win32,60.27000964
,,,,,,,,,,,,,,,,,fröjöztök,fröjzötök,left,10.8464,0,93,93,153,1,100,fröjzik / fröjözik,"fröjzik, fröjözni",tek,NA,"János imád fröjözni, ezért sokat fröjzik.",Ti ritkán...,fröjzötök,fröjöztök,cselekszik,-zik,1,PR2079,1980,nő,nem,2022-04-19_12h36.16.882,hesp_baseline,2021.2.3,Win32,60.27000964
,,,,,,,,,,,,,,,,,flagánylok,flagánylom,left,9.5126,0,94,94,82,1,83,flagánylik,flagánylasz,NA,NA,Te bizony sokat flagánylasz.,Én is sokat...,flagánylok,flagánylom,lakik,-lik,2,PR2079,1980,nő,nem,2022-04-19_12h36.16.882,hesp_baseline,2021.2.3,Win32,60.27000964
,,,,,,,,,,,,,,,,,drojzunk,drojozunk,left,5.9217,0,95,95,140,1,87,drojzik / drojozik,"drojzik, drojozni",ünk,NA,"János imád drojozni, ezért sokat drojzik.",Mi ritkán...,drojzunk,drojozunk,cselekszik,-zik,1,PR2079,1980,nő,nem,2022-04-19_12h36.16.882,hesp_baseline,2021.2.3,Win32,60.27000964
,,,,,,,,,,,,,,,,,zsigénnél,zsigénnál,left,3.9619,0,96,96,12,1,67,zsigén,zsigén,nál,é,Ez itt egy zsigén.,Nincs is jobb egy jó...,zsigénnél,zsigénnál,dzsungel,NA,NA,PR2079,1980,nő,nem,2022-04-19_12h36.16.882,hesp_baseline,2021.2.3,Win32,60.27000964
,,,,,,,,,,,,,,,,,navecben,navecban,right,3.0189,0,97,97,8,1,63,navec,navec,ban,e,Ez itt egy navec.,Ott vagyunk a...,navecben,navecban,dzsungel,NA,NA,PR2079,1980,nő,nem,2022-04-19_12h36.16.882,hesp_baseline,2021.2.3,Win32,60.27000964
,,,,,,,,,,,,,,,,,fluboklotok,flubokoztok,right,7.5189,0,98,98,151,1,98,fluboklik / flubokozik,"fluboklik, flubokozni",tek,NA,"János imád flubokozni, ezért sokat fluboklik.",Ti ritkán...,fluboklotok,flubokoztok,cselekszik,-lik,2,PR2079,1980,nő,nem,2022-04-19_12h36.16.882,hesp_baseline,2021.2.3,Win32,60.27000964
,,,,,,,,,,,,,,,,,flehékszem,flehékszek,left,5.9838,0,99,99,77,1,78,flehékszik,flehékszel,NA,NA,Te bizony sokat flehékszel.,Én is sokat...,flehékszek,flehékszem,lakik,-szik,2,PR2079,1980,nő,nem,2022-04-19_12h36.16.882,hesp_baseline,2021.2.3,Win32,60.27000964
,,,,,,,,,,,,,,,,,szirlom,szirlok,left,4.9302,0,100,100,62,1,63,szirlik,szirlasz,NA,NA,Te bizony sokat szirlasz.,Én is sokat...,szirlok,szirlom,lakik,-lik,1,PR2079,1980,nő,nem,2022-04-19_12h36.16.882,hesp_baseline,2021.2.3,Win32,60.27000964
,,,,,,,,,,,,,,,,,bingéjnek,bingéjnak,left,4.3124,0,101,101,49,1,104,bingéj,bingéj,nak,é,Ez itt egy bingéj.,Elneveztem a kutyámat...,bingéjnek,bingéjnak,dzsungel,NA,NA,PR2079,1980,nő,nem,2022-04-19_12h36.16.882,hesp_baseline,2021.2.3,Win32,60.27000964
,,,,,,,,,,,,,,,,,klidlok,klidlom,right,4.3805,0,102,102,72,1,73,klidlik,klidlasz,NA,NA,Te bizony sokat klidlasz.,Én is sokat...,klidlok,klidlom,lakik,-lik,1,PR2079,1980,nő,nem,2022-04-19_12h36.16.882,hesp_baseline,2021.2.3,Win32,60.27000964
,,,,,,,,,,,,,,,,,csubozunk,csubzunk,left,7.3193,0,103,103,111,1,58,csubzik / csubozik,"csubzik, csubozni",ünk,NA,"János imád csubozni, ezért sokat csubzik.",Mi ritkán...,csubzunk,csubozunk,cselekszik,-zik,1,PR2079,1980,nő,nem,2022-04-19_12h36.16.882,hesp_baseline,2021.2.3,Win32,60.27000964
,,,,,,,,,,,,,,,,,prihekszem,prihekszek,left,7.0153,0,104,104,100,1,101,prihekszik,prihekszel,NA,NA,Te bizony sokat prihekszel.,Én is sokat...,prihekszek,prihekszem,lakik,-szik,2,PR2079,1980,nő,nem,2022-04-19_12h36.16.882,hesp_baseline,2021.2.3,Win32,60.27000964
,,,,,,,,,,,,,,,,,flodoztok,flodlotok,left,43.4861,0,105,105,144,1,91,flodlik / flodozik,"flodlik, flodozni",tek,NA,"János imád flodozni, ezért sokat flodlik.",Ti ritkán...,flodlotok,flodoztok,cselekszik,-lik,1,PR2079,1980,nő,nem,2022-04-19_12h36.16.882,hesp_baseline,2021.2.3,Win32,60.27000964
,,,,,,,,,,,,,,,,,tranékben,tranékban,left,4.245,0,106,106,2,1,57,tranék,tranék,ban,é,Ez itt egy tranék.,Ott vagyunk a...,tranékben,tranékban,dzsungel,NA,NA,PR2079,1980,nő,nem,2022-04-19_12h36.16.882,hesp_baseline,2021.2.3,Win32,60.27000964
,,,,,,,,,,,,,,,,,tribejletek,tribejeztek,right,9.918,0,107,107,132,1,79,tribejlik / tribejezik,"tribejlik, tribejezni",tek,NA,"János imád tribejezni, ezért sokat tribejlik.",Ti ritkán...,tribejletek,tribejeztek,cselekszik,-lik,2,PR2079,1980,nő,nem,2022-04-19_12h36.16.882,hesp_baseline,2021.2.3,Win32,60.27000964
,,,,,,,,,,,,,,,,,sortemnél,sortemnál,left,3.0453,0,108,108,15,1,70,sortem,sortem,nál,e,Ez itt egy sortem.,Nincs is jobb egy jó...,sortemnél,sortemnál,dzsungel,NA,NA,PR2079,1980,nő,nem,2022-04-19_12h36.16.882,hesp_baseline,2021.2.3,Win32,60.27000964
,,,,,,,,,,,,,,,,,klingeszben,klingeszban,left,2.945,0,109,109,1,1,56,klingesz,klingesz,ban,e,Ez itt egy klingesz.,Ott vagyunk a...,klingeszben,klingeszban,dzsungel,NA,NA,PR2079,1980,nő,nem,2022-04-19_12h36.16.882,hesp_baseline,2021.2.3,Win32,60.27000964
,,,,,,,,,,,,,,,,,trugoznak,trugzanak,left,6.1812,0,110,110,146,1,93,trugzik / trugozik,"trugzik, trugozni",nek,NA,"János imád trugozni, ezért sokat trugzik.",Ők ritkán...,trugzanak,trugoznak,cselekszik,-zik,1,PR2079,1980,nő,nem,2022-04-19_12h36.16.882,hesp_baseline,2021.2.3,Win32,60.27000964
,,,,,,,,,,,,,,,,,fivénylem,fivénylek,right,5.8528,0,111,111,78,1,79,fivénylik,fivénylesz,NA,NA,Te bizony sokat fivénylesz.,Én is sokat...,fivénylek,fivénylem,lakik,-lik,2,PR2079,1980,nő,nem,2022-04-19_12h36.16.882,hesp_baseline,2021.2.3,Win32,60.27000964
,,,,,,,,,,,,,,,,,flüröslöm,flüröslök,right,7.1134,0,112,112,87,1,88,flüröslik,flüröslesz,NA,NA,Te bizony sokat flüröslesz.,Én is sokat...,flüröslök,flüröslöm,lakik,-lik,2,PR2079,1980,nő,nem,2022-04-19_12h36.16.882,hesp_baseline,2021.2.3,Win32,60.27000964
,,,,,,,,,,,,,,,,,nyöböznek,nyöbzenek,left,11.241,0,113,113,152,1,99,nyöbzik / nyöbözik,"nyöbzik, nyöbözni",nek,NA,"János imád nyöbözni, ezért sokat nyöbzik.",Ők ritkán...,nyöbzenek,nyöböznek,cselekszik,-zik,1,PR2079,1980,nő,nem,2022-04-19_12h36.16.882,hesp_baseline,2021.2.3,Win32,60.27000964
,,,,,,,,,,,,,,,,,míjzunk,míjozunk,right,8.6158,0,114,114,114,1,61,míjzik / míjozik,"míjzik, míjozni",ünk,NA,"János imád míjozni, ezért sokat míjzik.",Mi ritkán...,míjzunk,míjozunk,cselekszik,-zik,1,PR2079,1980,nő,nem,2022-04-19_12h36.16.882,hesp_baseline,2021.2.3,Win32,60.27000964
,,,,,,,,,,,,,,,,,flézletek,flézeztek,right,5.2503,0,115,115,134,1,81,flézlik / flézezik,"flézlik, flézezni",tek,NA,"János imád flézezni, ezért sokat flézlik.",Ti ritkán...,flézletek,flézeztek,cselekszik,-lik,1,PR2079,1980,nő,nem,2022-04-19_12h36.16.882,hesp_baseline,2021.2.3,Win32,60.27000964
,,,,,,,,,,,,,,,,,hákszanak,hákodnak,right,3.8626,0,116,116,150,1,97,hákszik / hákodik,"hákszik, hákodni",nek,NA,"János imád hákodni, ezért sokat hákszik.",Ők ritkán...,hákszanak,hákodnak,cselekszik,-szik,1,PR2079,1980,nő,nem,2022-04-19_12h36.16.882,hesp_baseline,2021.2.3,Win32,60.27000964
,,,,,,,,,,,,,,,,,branyoznak,branylanak,left,6.6134,0,117,117,136,1,83,branylik / branyozik,"branylik, branyozni",nek,NA,"János imád branyozni, ezért sokat branylik.",Ők ritkán...,branylanak,branyoznak,cselekszik,-lik,1,PR2079,1980,nő,nem,2022-04-19_12h36.16.882,hesp_baseline,2021.2.3,Win32,60.27000964
,,,,,,,,,,,,,,,,,fligzok,fligzom,right,3.3566,0,118,118,103,1,104,fligzik,fligzol,NA,NA,Te bizony sokat fligzol.,Én is sokat...,fligzok,fligzom,lakik,-zik,1,PR2079,1980,nő,nem,2022-04-19_12h36.16.882,hesp_baseline,2021.2.3,Win32,60.27000964
,,,,,,,,,,,,,,,,,posoztok,poslotok,left,6.7957,0,119,119,121,1,68,poslik / posozik,"poslik, posozni",tek,NA,"János imád posozni, ezért sokat poslik.",Ti ritkán...,poslotok,posoztok,cselekszik,-lik,1,PR2079,1980,nő,nem,2022-04-19_12h36.16.882,hesp_baseline,2021.2.3,Win32,60.27000964
,,,,,,,,,,,,,,,,,kluzlotok,kluzoztok,right,22.523,0,120,120,148,1,95,kluzlik / kluzozik,"kluzlik, kluzozni",tek,NA,"János imád kluzozni, ezért sokat kluzlik.",Ti ritkán...,kluzlotok,kluzoztok,cselekszik,-lik,1,PR2079,1980,nő,nem,2022-04-19_12h36.16.882,hesp_baseline,2021.2.3,Win32,60.27000964
,,,,,,,,,,,,,,,,,csíszlok,csíszlom,right,7.4533,0,121,121,84,1,85,csíszlik,csíszlasz,NA,NA,Te bizony sokat csíszlasz.,Én is sokat...,csíszlok,csíszlom,lakik,-lik,1,PR2079,1980,nő,nem,2022-04-19_12h36.16.882,hesp_baseline,2021.2.3,Win32,60.27000964
,,,,,,,,,,,,,,,,,klazérben,klazérban,left,4.3453,0,122,122,51,1,106,klazér,klazér,ban,é,Ez itt egy klazér.,Ott vagyunk a...,klazérben,klazérban,dzsungel,NA,NA,PR2079,1980,nő,nem,2022-04-19_12h36.16.882,hesp_baseline,2021.2.3,Win32,60.27000964
,,,,,,,,,,,,,,,,,fupétnál,fupétnél,left,4.9632,0,123,123,14,1,69,fupét,fupét,nál,é,Ez itt egy fupét.,Nincs is jobb egy jó...,fupétnél,fupétnál,dzsungel,NA,NA,PR2079,1980,nő,nem,2022-04-19_12h36.16.882,hesp_baseline,2021.2.3,Win32,60.27000964
,,,,,,,,,,,,,,,,,dóbemnak,dóbemnek,left,4.0875,0,124,124,48,1,103,dóbem,dóbem,nak,e,Ez itt egy dóbem.,Elneveztem a kutyámat...,dóbemnek,dóbemnak,dzsungel,NA,NA,PR2079,1980,nő,nem,2022-04-19_12h36.16.882,hesp_baseline,2021.2.3,Win32,60.27000964
,,,,,,,,,,,,,,,,,dihelynek,dihelynak,left,1.7225,0,125,125,20,1,75,dihely,dihely,nak,e,Ez itt egy dihely.,Elneveztem a kutyámat...,dihelynek,dihelynak,dzsungel,NA,NA,PR2079,1980,nő,nem,2022-04-19_12h36.16.882,hesp_baseline,2021.2.3,Win32,60.27000964
,,,,,,,,,,,,,,,,,garcépnél,garcépnál,right,3.162,0,126,126,38,1,93,garcép,garcép,nál,é,Ez itt egy garcép.,Nincs is jobb egy jó...,garcépnél,garcépnál,dzsungel,NA,NA,PR2079,1980,nő,nem,2022-04-19_12h36.16.882,hesp_baseline,2021.2.3,Win32,60.27000964
,,,,,,,,,,,,,,,,,spiharoztok,spiharzotok,left,6.9406,0,127,127,127,1,74,spiharzik / spiharozik,"spiharzik, spiharozni",tek,NA,"János imád spiharozni, ezért sokat spiharzik.",Ti ritkán...,spiharzotok,spiharoztok,cselekszik,-zik,2,PR2079,1980,nő,nem,2022-04-19_12h36.16.882,hesp_baseline,2021.2.3,Win32,60.27000964
,,,,,,,,,,,,,,,,,ruslok,ruslom,left,3.0728,0,128,128,83,1,84,ruslik,ruslasz,NA,NA,Te bizony sokat ruslasz.,Én is sokat...,ruslok,ruslom,lakik,-lik,1,PR2079,1980,nő,nem,2022-04-19_12h36.16.882,hesp_baseline,2021.2.3,Win32,60.27000964
,,,,,,,,,,,,,,,,,nyametben,nyametban,left,3.2653,0,129,129,17,1,72,nyamet,nyamet,ban,e,Ez itt egy nyamet.,Ott vagyunk a...,nyametben,nyametban,dzsungel,NA,NA,PR2079,1980,nő,nem,2022-04-19_12h36.16.882,hesp_baseline,2021.2.3,Win32,60.27000964
,,,,,,,,,,,,,,,,,plugzom,plugzok,left,3.2632,0,130,130,60,1,61,plugzik,plugzol,NA,NA,Te bizony sokat plugzol.,Én is sokat...,plugzok,plugzom,lakik,-zik,1,PR2079,1980,nő,nem,2022-04-19_12h36.16.882,hesp_baseline,2021.2.3,Win32,60.27000964
,,,,,,,,,,,,,,,,,flürököztök,flüröklötök,left,5.312,0,131,131,149,1,96,flüröklik / flüröközik,"flüröklik, flüröközni",tek,NA,"János imád flüröközni, ezért sokat flüröklik.",Ti ritkán...,flüröklötök,flürököztök,cselekszik,-lik,2,PR2079,1980,nő,nem,2022-04-19_12h36.16.882,hesp_baseline,2021.2.3,Win32,60.27000964
,,,,,,,,,,,,,,,,,pivegszem,pivegszek,left,3.8614,0,132,132,99,1,100,pivegszik,pivegszel,NA,NA,Te bizony sokat pivegszel.,Én is sokat...,pivegszek,pivegszem,lakik,-szik,2,PR2079,1980,nő,nem,2022-04-19_12h36.16.882,hesp_baseline,2021.2.3,Win32,60.27000964
,,,,,,,,,,,,,,,,,kluhéjnál,kluhéjnél,left,3.0952,0,133,133,24,1,79,kluhéj,kluhéj,nál,é,Ez itt egy kluhéj.,Nincs is jobb egy jó...,kluhéjnél,kluhéjnál,dzsungel,NA,NA,PR2079,1980,nő,nem,2022-04-19_12h36.16.882,hesp_baseline,2021.2.3,Win32,60.27000964
,,,,,,,,,,,,,,,,,gihesztnek,gihesztnak,left,3.5467,0,134,134,36,1,91,giheszt,giheszt,nak,e,Ez itt egy giheszt.,Elneveztem a kutyámat...,gihesztnek,gihesztnak,dzsungel,NA,NA,PR2079,1980,nő,nem,2022-04-19_12h36.16.882,hesp_baseline,2021.2.3,Win32,60.27000964
,,,,,,,,,,,,,,,,,flemlünk,flemezünk,right,18.4815,0,135,135,137,1,84,flemlik / flemezik,"flemlik, flemezni",ünk,NA,"János imád flemezni, ezért sokat flemlik.",Mi ritkán...,flemlünk,flemezünk,cselekszik,-lik,1,PR2079,1980,nő,nem,2022-04-19_12h36.16.882,hesp_baseline,2021.2.3,Win32,60.27000964
,,,,,,,,,,,,,,,,,prihegednek,prihegszenek,left,17.1777,0,136,136,155,1,102,prihegszik / prihegedik,"prihegszik, prihegedni",nek,NA,"János imád prihegedni, ezért sokat prihegszik.",Ők ritkán...,prihegszenek,prihegednek,cselekszik,-szik,2,PR2079,1980,nő,nem,2022-04-19_12h36.16.882,hesp_baseline,2021.2.3,Win32,60.27000964
,,,,,,,,,,,,,,,,,flátszom,flátszok,left,232.64,0,137,137,98,1,99,flátszik,flátszol,NA,NA,Te bizony sokat flátszol.,Én is sokat...,flátszok,flátszom,lakik,-szik,1,PR2079,1980,nő,nem,2022-04-19_12h36.16.882,hesp_baseline,2021.2.3,Win32,60.27000964
,,,,,,,,,,,,,,,,,flűmlöm,flűmlök,right,3.0293,0,138,138,54,1,55,flűmlik,flűmlesz,NA,NA,Te bizony sokat flűmlesz.,Én is sokat...,flűmlök,flűmlöm,lakik,-lik,1,PR2079,1980,nő,nem,2022-04-19_12h36.16.882,hesp_baseline,2021.2.3,Win32,60.27000964
,,,,,,,,,,,,,,,,,flűröklöm,flűröklök,right,4.9466,0,139,139,91,1,92,flűröklik,flűröklesz,NA,NA,Te bizony sokat flűröklesz.,Én is sokat...,flűröklök,flűröklöm,lakik,-lik,2,PR2079,1980,nő,nem,2022-04-19_12h36.16.882,hesp_baseline,2021.2.3,Win32,60.27000964
,,,,,,,,,,,,,,,,,kalrézban,kalrézben,left,3.4183,0,140,140,16,1,71,kalréz,kalréz,ban,é,Ez itt egy kalréz.,Ott vagyunk a...,kalrézben,kalrézban,dzsungel,NA,NA,PR2079,1980,nő,nem,2022-04-19_12h36.16.882,hesp_baseline,2021.2.3,Win32,60.27000964
,,,,,,,,,,,,,,,,,frivamlunk,frivamozunk,right,9.1623,0,141,141,122,1,69,frivamlik / frivamozik,"frivamlik, frivamozni",ünk,NA,"János imád frivamozni, ezért sokat frivamlik.",Mi ritkán...,frivamlunk,frivamozunk,cselekszik,-lik,2,PR2079,1980,nő,nem,2022-04-19_12h36.16.882,hesp_baseline,2021.2.3,Win32,60.27000964
,,,,,,,,,,,,,,,,,jonylok,jonylom,left,5.8661,0,142,142,55,1,56,jonylik,jonylasz,NA,NA,Te bizony sokat jonylasz.,Én is sokat...,jonylok,jonylom,lakik,-lik,1,PR2079,1980,nő,nem,2022-04-19_12h36.16.882,hesp_baseline,2021.2.3,Win32,60.27000964
,,,,,,,,,,,,,,,,,brágaklok,brágaklom,right,10.1851,0,143,143,71,1,72,brágaklik,brágaklasz,NA,NA,Te bizony sokat brágaklasz.,Én is sokat...,brágaklok,brágaklom,lakik,-lik,2,PR2079,1980,nő,nem,2022-04-19_12h36.16.882,hesp_baseline,2021.2.3,Win32,60.27000964
,,,,,,,,,,,,,,,,,huroslom,huroslok,right,4.3975,0,144,144,76,1,77,huroslik,huroslasz,NA,NA,Te bizony sokat huroslasz.,Én is sokat...,huroslok,huroslom,lakik,-lik,2,PR2079,1980,nő,nem,2022-04-19_12h36.16.882,hesp_baseline,2021.2.3,Win32,60.27000964
,,,,,,,,,,,,,,,,,mihágzotok,mihágoztok,left,5.6741,0,145,145,118,1,65,mihágzik / mihágozik,"mihágzik, mihágozni",tek,NA,"János imád mihágozni, ezért sokat mihágzik.",Ti ritkán...,mihágzotok,mihágoztok,cselekszik,-zik,2,PR2079,1980,nő,nem,2022-04-19_12h36.16.882,hesp_baseline,2021.2.3,Win32,60.27000964
,,,,,,,,,,,,,,,,,brágédnek,brágédnak,left,5.3448,0,146,146,45,1,100,brágéd,brágéd,nak,é,Ez itt egy brágéd.,Elneveztem a kutyámat...,brágédnek,brágédnak,dzsungel,NA,NA,PR2079,1980,nő,nem,2022-04-19_12h36.16.882,hesp_baseline,2021.2.3,Win32,60.27000964
,,,,,,,,,,,,,,,,,sprűröznek,sprűrlenek,left,6.1328,0,147,147,135,1,82,sprűrlik / sprűrözik,"sprűrlik, sprűrözni",nek,NA,"János imád sprűrözni, ezért sokat sprűrlik.",Ők ritkán...,sprűrlenek,sprűröznek,cselekszik,-lik,1,PR2079,1980,nő,nem,2022-04-19_12h36.16.882,hesp_baseline,2021.2.3,Win32,60.27000964
,,,,,,,,,,,,,,,,,jábézben,jábézban,left,2.8131,0,148,148,34,1,89,jábéz,jábéz,ban,é,Ez itt egy jábéz.,Ott vagyunk a...,jábézben,jábézban,dzsungel,NA,NA,PR2079,1980,nő,nem,2022-04-19_12h36.16.882,hesp_baseline,2021.2.3,Win32,60.27000964
,,,,,,,,,,,,,,,,,lingéknál,lingéknél,right,3.2122,0,149,149,32,1,87,lingék,lingék,nál,é,Ez itt egy lingék.,Nincs is jobb egy jó...,lingéknél,lingéknál,dzsungel,NA,NA,PR2079,1980,nő,nem,2022-04-19_12h36.16.882,hesp_baseline,2021.2.3,Win32,60.27000964
,,,,,,,,,,,,,,,,,dineltben,dineltban,left,2.8606,0,150,150,0,1,55,dinelt,dinelt,ban,e,Ez itt egy dinelt.,Ott vagyunk a...,dineltben,dineltban,dzsungel,NA,NA,PR2079,1980,nő,nem,2022-04-19_12h36.16.882,hesp_baseline,2021.2.3,Win32,60.27000964
,,,,,,,,,,,,,,,,,tomlok,tomlom,left,3.5165,0,151,151,86,1,87,tomlik,tomlasz,NA,NA,Te bizony sokat tomlasz.,Én is sokat...,tomlok,tomlom,lakik,-lik,1,PR2079,1980,nő,nem,2022-04-19_12h36.16.882,hesp_baseline,2021.2.3,Win32,60.27000964
,,,,,,,,,,,,,,,,,nűröklök,nűröklöm,left,5.113,0,152,152,106,1,107,nűröklik,nűröklesz,NA,NA,Te bizony sokat nűröklesz.,Én is sokat...,nűröklök,nűröklöm,lakik,-lik,2,PR2079,1980,nő,nem,2022-04-19_12h36.16.882,hesp_baseline,2021.2.3,Win32,60.27000964
,,,,,,,,,,,,,,,,,fibamlom,fibamlok,right,4.388,0,153,153,65,1,66,fibamlik,fibamlasz,NA,NA,Te bizony sokat fibamlasz.,Én is sokat...,fibamlok,fibamlom,lakik,-lik,2,PR2079,1980,nő,nem,2022-04-19_12h36.16.882,hesp_baseline,2021.2.3,Win32,60.27000964
,,,,,,,,,,,,,,,,,lihadzom,lihadzok,right,5.4638,0,154,154,101,1,102,lihadzik,lihadzol,NA,NA,Te bizony sokat lihadzol.,Én is sokat...,lihadzok,lihadzom,lakik,-zik,2,PR2079,1980,nő,nem,2022-04-19_12h36.16.882,hesp_baseline,2021.2.3,Win32,60.27000964
,,,,,,,,,,,,,,,,,sprebzenek,sprebeznek,right,7.5552,0,155,155,139,1,86,sprebzik / sprebezik,"sprebzik, sprebezni",nek,NA,"János imád sprebezni, ezért sokat sprebzik.",Ők ritkán...,sprebzenek,sprebeznek,cselekszik,-zik,1,PR2079,1980,nő,nem,2022-04-19_12h36.16.882,hesp_baseline,2021.2.3,Win32,60.27000964
,,,,,,,,,,,,,,,,,fojlegynek,fojlegynak,left,5.4834,0,156,156,3,1,58,fojlegy,fojlegy,nak,e,Ez itt egy fojlegy.,Elneveztem a kutyámat...,fojlegynek,fojlegynak,dzsungel,NA,NA,PR2079,1980,nő,nem,2022-04-19_12h36.16.882,hesp_baseline,2021.2.3,Win32,60.27000964
,,,,,,,,,,,,,,,,,zutennál,zutennél,right,3.0222,0,157,157,43,1,98,zuten,zuten,nál,e,Ez itt egy zuten.,Nincs is jobb egy jó...,zutennél,zutennál,dzsungel,NA,NA,PR2079,1980,nő,nem,2022-04-19_12h36.16.882,hesp_baseline,2021.2.3,Win32,60.27000964
,,,,,,,,,,,,,,,,,jóbecnek,jóbecnak,left,5.4543,0,158,158,11,1,66,jóbec,jóbec,nak,e,Ez itt egy jóbec.,Elneveztem a kutyámat...,jóbecnek,jóbecnak,dzsungel,NA,NA,PR2079,1980,nő,nem,2022-04-19_12h36.16.882,hesp_baseline,2021.2.3,Win32,60.27000964
,,,,,,,,,,,,,,,,,driládzok,driládzom,right,4.7958,0,159,159,67,1,68,driládzik,driládzol,NA,NA,Te bizony sokat driládzol.,Én is sokat...,driládzok,driládzom,lakik,-zik,2,PR2079,1980,nő,nem,2022-04-19_12h36.16.882,hesp_baseline,2021.2.3,Win32,60.27000964
,,,,,,,,,,,,,,,,,cságyeltban,cságyeltben,right,4.3539,0,160,160,10,1,65,cságyelt,cságyelt,ban,e,Ez itt egy cságyelt.,Ott vagyunk a...,cságyeltben,cságyeltban,dzsungel,NA,NA,PR2079,1980,nő,nem,2022-04-19_12h36.16.882,hesp_baseline,2021.2.3,Win32,60.27000964
,,,,,,,,,,,,,,,,,tosélyben,tosélyban,right,2.5984,0,161,161,25,1,80,tosély,tosély,ban,é,Ez itt egy tosély.,Ott vagyunk a...,tosélyben,tosélyban,dzsungel,NA,NA,PR2079,1980,nő,nem,2022-04-19_12h36.16.882,hesp_baseline,2021.2.3,Win32,60.27000964
