my_list,key.keys,key.rt,key_2.keys,key_2.rt,keyboard_input_2.keys,keyboard_input_2.rt,key_3.keys,key_3.rt,keyboard_input_3.keys,keyboard_input_3.rt,key_4.keys,key_4.rt,keyboard_input_4.keys,keyboard_input_4.rt,key_5.keys,key_5.rt,my_button1,my_button2,keyboard_input.keys,keyboard_input.rt,withinBlock.thisRepN,withinBlock.thisTrialN,withinBlock.thisN,withinBlock.thisIndex,withinBlock.ran,rowname,word,prompt,suffix,vowel,carrier_sentence,target_sentence,target1,target2,category,derivational,nsyl,Azonosító,Melyik évben születtél?,Mi a nemed?,Tanultál nyelvészetet?,date,expName,psychopyVersion,OS,frameRate
list1.csv,space,9.8368,space,7.3452,right,6.9293,space,11.294,right,7.0332,space,5.657,left,9.1688,space,9.4588,privékszenek,privékednek,right,8.1332,0,0,0,149,1,42,privékszik / privékedik,"privékszik, privékedni",nek,NA,"János imád privékedni, ezért sokat privékszik.",Ők ritkán...,privékszenek,privékednek,cselekszik,-szik,2,PR2070,2002,nő,nem,2022-04-18_11h04.00.392,hesp_baseline,2021.2.3,Win32,60.09615385
,,,,,,,,,,,,,,,,,nyülököznek,nyülöklenek,left,13.9467,0,1,1,108,1,1,nyülöklik / nyülöközik,"nyülöklik, nyülöközni",nek,NA,"János imád nyülöközni, ezért sokat nyülöklik.",Ők ritkán...,nyülöklenek,nyülököznek,cselekszik,-lik,2,PR2070,2002,nő,nem,2022-04-18_11h04.00.392,hesp_baseline,2021.2.3,Win32,60.09615385
,,,,,,,,,,,,,,,,,püzöztök,püzlötök,left,12.21,0,2,2,152,1,45,püzlik / püzözik,"püzlik, püzözni",tek,NA,"János imád püzözni, ezért sokat püzlik.",Ti ritkán...,püzlötök,püzöztök,cselekszik,-lik,1,PR2070,2002,nő,nem,2022-04-18_11h04.00.392,hesp_baseline,2021.2.3,Win32,60.09615385
,,,,,,,,,,,,,,,,,spicetnek,spicetnak,left,6.0899,0,3,3,35,1,36,spicet,spicet,nak,e,Ez itt egy spicet.,Elneveztem a kutyámat...,spicetnek,spicetnak,dzsungel,NA,NA,PR2070,2002,nő,nem,2022-04-18_11h04.00.392,hesp_baseline,2021.2.3,Win32,60.09615385
,,,,,,,,,,,,,,,,,nyizozunk,nyizlunk,left,5.1618,0,4,4,135,1,28,nyizlik / nyizozik,"nyizlik, nyizozni",ünk,NA,"János imád nyizozni, ezért sokat nyizlik.",Mi ritkán...,nyizlunk,nyizozunk,cselekszik,-lik,1,PR2070,2002,nő,nem,2022-04-18_11h04.00.392,hesp_baseline,2021.2.3,Win32,60.09615385
,,,,,,,,,,,,,,,,,plűbzöm,plűbzök,right,6.9354,0,5,5,107,1,54,plűbzik,plűbzöl,NA,NA,Te bizony sokat plűbzöl.,Én is sokat...,plűbzök,plűbzöm,lakik,-zik,1,PR2070,2002,nő,nem,2022-04-18_11h04.00.392,hesp_baseline,2021.2.3,Win32,60.09615385
,,,,,,,,,,,,,,,,,tarhézben,tarhézban,right,7.4686,0,6,6,25,1,26,tarhéz,tarhéz,ban,é,Ez itt egy tarhéz.,Ott vagyunk a...,tarhézben,tarhézban,dzsungel,NA,NA,PR2070,2002,nő,nem,2022-04-18_11h04.00.392,hesp_baseline,2021.2.3,Win32,60.09615385
,,,,,,,,,,,,,,,,,gihejezünk,gihejlünk,right,11.6959,0,7,7,146,1,39,gihejlik / gihejezik,"gihejlik, gihejezni",ünk,NA,"János imád gihejezni, ezért sokat gihejlik.",Mi ritkán...,gihejlünk,gihejezünk,cselekszik,-lik,2,PR2070,2002,nő,nem,2022-04-18_11h04.00.392,hesp_baseline,2021.2.3,Win32,60.09615385
,,,,,,,,,,,,,,,,,hurjorzok,hurjorzom,right,7.2442,0,8,8,59,1,6,hurjorzik,hurjorzol,NA,NA,Te bizony sokat hurjorzol.,Én is sokat...,hurjorzok,hurjorzom,lakik,-zik,2,PR2070,2002,nő,nem,2022-04-18_11h04.00.392,hesp_baseline,2021.2.3,Win32,60.09615385
,,,,,,,,,,,,,,,,,jutélynál,jutélynél,left,5.4875,0,9,9,11,1,12,jutély,jutély,nál,é,Ez itt egy jutély.,Nincs is jobb egy jó...,jutélynél,jutélynál,dzsungel,NA,NA,PR2070,2002,nő,nem,2022-04-18_11h04.00.392,hesp_baseline,2021.2.3,Win32,60.09615385
,,,,,,,,,,,,,,,,,jalrénynál,jalrénynél,right,4.1158,0,10,10,0,1,1,jalrény,jalrény,nál,é,Ez itt egy jalrény.,Nincs is jobb egy jó...,jalrénynél,jalrénynál,dzsungel,NA,NA,PR2070,2002,nő,nem,2022-04-18_11h04.00.392,hesp_baseline,2021.2.3,Win32,60.09615385
,,,,,,,,,,,,,,,,,nyivágzunk,nyivágozunk,right,6.9971,0,11,11,113,1,6,nyivágzik / nyivágozik,"nyivágzik, nyivágozni",ünk,NA,"János imád nyivágozni, ezért sokat nyivágzik.",Mi ritkán...,nyivágzunk,nyivágozunk,cselekszik,-zik,2,PR2070,2002,nő,nem,2022-04-18_11h04.00.392,hesp_baseline,2021.2.3,Win32,60.09615385
,,,,,,,,,,,,,,,,,köszöztök,köszlötök,left,5.2302,0,12,12,120,1,13,köszlik / köszözik,"köszlik, köszözni",tek,NA,"János imád köszözni, ezért sokat köszlik.",Ti ritkán...,köszlötök,köszöztök,cselekszik,-lik,1,PR2070,2002,nő,nem,2022-04-18_11h04.00.392,hesp_baseline,2021.2.3,Win32,60.09615385
,,,,,,,,,,,,,,,,,spilágzok,spilágzom,right,4.1146,0,13,13,76,1,23,spilágzik,spilágzol,NA,NA,Te bizony sokat spilágzol.,Én is sokat...,spilágzok,spilágzom,lakik,-zik,2,PR2070,2002,nő,nem,2022-04-18_11h04.00.392,hesp_baseline,2021.2.3,Win32,60.09615385
,,,,,,,,,,,,,,,,,trodélyban,trodélyben,left,3.1457,0,14,14,28,1,29,trodély,trodély,ban,é,Ez itt egy trodély.,Ott vagyunk a...,trodélyben,trodélyban,dzsungel,NA,NA,PR2070,2002,nő,nem,2022-04-18_11h04.00.392,hesp_baseline,2021.2.3,Win32,60.09615385
,,,,,,,,,,,,,,,,,nuhétnél,nuhétnál,right,4.0935,0,15,15,29,1,30,nuhét,nuhét,nál,é,Ez itt egy nuhét.,Nincs is jobb egy jó...,nuhétnél,nuhétnál,dzsungel,NA,NA,PR2070,2002,nő,nem,2022-04-18_11h04.00.392,hesp_baseline,2021.2.3,Win32,60.09615385
,,,,,,,,,,,,,,,,,flözlöm,flözlök,right,4.8646,0,16,16,74,1,21,flözlik,flözlesz,NA,NA,Te bizony sokat flözlesz.,Én is sokat...,flözlök,flözlöm,lakik,-lik,1,PR2070,2002,nő,nem,2022-04-18_11h04.00.392,hesp_baseline,2021.2.3,Win32,60.09615385
,,,,,,,,,,,,,,,,,jorzégnak,jorzégnek,right,5.317,0,17,17,45,1,46,jorzég,jorzég,nak,é,Ez itt egy jorzég.,Elneveztem a kutyámat...,jorzégnek,jorzégnak,dzsungel,NA,NA,PR2070,2002,nő,nem,2022-04-18_11h04.00.392,hesp_baseline,2021.2.3,Win32,60.09615385
,,,,,,,,,,,,,,,,,filágzom,filágzok,left,3.1396,0,18,18,102,1,49,filágzik,filágzol,NA,NA,Te bizony sokat filágzol.,Én is sokat...,filágzok,filágzom,lakik,-zik,2,PR2070,2002,nő,nem,2022-04-18_11h04.00.392,hesp_baseline,2021.2.3,Win32,60.09615385
,,,,,,,,,,,,,,,,,aglom,aglok,left,3.4048,0,19,19,100,1,47,aglik,aglasz,NA,NA,Te bizony sokat aglasz.,Én is sokat...,aglok,aglom,lakik,-lik,1,PR2070,2002,nő,nem,2022-04-18_11h04.00.392,hesp_baseline,2021.2.3,Win32,60.09615385
,,,,,,,,,,,,,,,,,incéjnak,incéjnek,right,3.4418,0,20,20,30,1,31,incéj,incéj,nak,é,Ez itt egy incéj.,Elneveztem a kutyámat...,incéjnek,incéjnak,dzsungel,NA,NA,PR2070,2002,nő,nem,2022-04-18_11h04.00.392,hesp_baseline,2021.2.3,Win32,60.09615385
,,,,,,,,,,,,,,,,,huklom,huklok,left,8.9379,0,21,21,78,1,25,huklik,huklasz,NA,NA,Te bizony sokat huklasz.,Én is sokat...,huklok,huklom,lakik,-lik,1,PR2070,2002,nő,nem,2022-04-18_11h04.00.392,hesp_baseline,2021.2.3,Win32,60.09615385
,,,,,,,,,,,,,,,,,klaráglom,klaráglok,right,5.8807,0,22,22,91,1,38,klaráglik,klaráglasz,NA,NA,Te bizony sokat klaráglasz.,Én is sokat...,klaráglok,klaráglom,lakik,-lik,2,PR2070,2002,nő,nem,2022-04-18_11h04.00.392,hesp_baseline,2021.2.3,Win32,60.09615385
,,,,,,,,,,,,,,,,,bregezünk,bregzünk,left,9.6407,0,23,23,139,1,32,bregzik / bregezik,"bregzik, bregezni",ünk,NA,"János imád bregezni, ezért sokat bregzik.",Mi ritkán...,bregzünk,bregezünk,cselekszik,-zik,1,PR2070,2002,nő,nem,2022-04-18_11h04.00.392,hesp_baseline,2021.2.3,Win32,60.09615385
,,,,,,,,,,,,,,,,,dábegyben,dábegyban,left,7.737,0,24,24,6,1,7,dábegy,dábegy,ban,e,Ez itt egy dábegy.,Ott vagyunk a...,dábegyben,dábegyban,dzsungel,NA,NA,PR2070,2002,nő,nem,2022-04-18_11h04.00.392,hesp_baseline,2021.2.3,Win32,60.09615385
,,,,,,,,,,,,,,,,,dujoznak,dujzanak,left,4.8642,0,25,25,128,1,21,dujzik / dujozik,"dujzik, dujozni",nek,NA,"János imád dujozni, ezért sokat dujzik.",Ők ritkán...,dujzanak,dujoznak,cselekszik,-zik,1,PR2070,2002,nő,nem,2022-04-18_11h04.00.392,hesp_baseline,2021.2.3,Win32,60.09615385
,,,,,,,,,,,,,,,,,bügzenek,bügöznek,right,4.6441,0,26,26,118,1,11,bügzik / bügözik,"bügzik, bügözni",nek,NA,"János imád bügözni, ezért sokat bügzik.",Ők ritkán...,bügzenek,bügöznek,cselekszik,-zik,1,PR2070,2002,nő,nem,2022-04-18_11h04.00.392,hesp_baseline,2021.2.3,Win32,60.09615385
,,,,,,,,,,,,,,,,,pekszünk,pekedünk,right,6.83,0,27,27,161,1,54,pekszik / pekedik,"pekszik, pekedni",ünk,NA,"János imád pekedni, ezért sokat pekszik.",Mi ritkán...,pekszünk,pekedünk,cselekszik,-szik,1,PR2070,2002,nő,nem,2022-04-18_11h04.00.392,hesp_baseline,2021.2.3,Win32,60.09615385
,,,,,,,,,,,,,,,,,monvegnál,monvegnél,right,6.2748,0,28,28,26,1,27,monveg,monveg,nál,e,Ez itt egy monveg.,Nincs is jobb egy jó...,monvegnél,monvegnál,dzsungel,NA,NA,PR2070,2002,nő,nem,2022-04-18_11h04.00.392,hesp_baseline,2021.2.3,Win32,60.09615385
,,,,,,,,,,,,,,,,,prögzötök,prögöztök,right,6.8414,0,29,29,151,1,44,prögzik / prögözik,"prögzik, prögözni",tek,NA,"János imád prögözni, ezért sokat prögzik.",Ti ritkán...,prögzötök,prögöztök,cselekszik,-zik,1,PR2070,2002,nő,nem,2022-04-18_11h04.00.392,hesp_baseline,2021.2.3,Win32,60.09615385
,,,,,,,,,,,,,,,,,píjlok,píjlom,right,3.6215,0,30,30,75,1,22,píjlik,píjlasz,NA,NA,Te bizony sokat píjlasz.,Én is sokat...,píjlok,píjlom,lakik,-lik,1,PR2070,2002,nő,nem,2022-04-18_11h04.00.392,hesp_baseline,2021.2.3,Win32,60.09615385
,,,,,,,,,,,,,,,,,küsözünk,küslünk,right,3.2098,0,31,31,141,1,34,küslik / küsözik,"küslik, küsözni",ünk,NA,"János imád küsözni, ezért sokat küslik.",Mi ritkán...,küslünk,küsözünk,cselekszik,-lik,1,PR2070,2002,nő,nem,2022-04-18_11h04.00.392,hesp_baseline,2021.2.3,Win32,60.09615385
,,,,,,,,,,,,,,,,,narádzok,narádzom,right,3.336,0,32,32,63,1,10,narádzik,narádzol,NA,NA,Te bizony sokat narádzol.,Én is sokat...,narádzok,narádzom,lakik,-zik,2,PR2070,2002,nő,nem,2022-04-18_11h04.00.392,hesp_baseline,2021.2.3,Win32,60.09615385
,,,,,,,,,,,,,,,,,brobódzom,brobódzok,left,4.9632,0,33,33,96,1,43,brobódzik,brobódzol,NA,NA,Te bizony sokat brobódzol.,Én is sokat...,brobódzok,brobódzom,lakik,-zik,2,PR2070,2002,nő,nem,2022-04-18_11h04.00.392,hesp_baseline,2021.2.3,Win32,60.09615385
,,,,,,,,,,,,,,,,,sprimozunk,sprimlunk,right,4.0789,0,34,34,127,1,20,sprimlik / sprimozik,"sprimlik, sprimozni",ünk,NA,"János imád sprimozni, ezért sokat sprimlik.",Mi ritkán...,sprimlunk,sprimozunk,cselekszik,-lik,1,PR2070,2002,nő,nem,2022-04-18_11h04.00.392,hesp_baseline,2021.2.3,Win32,60.09615385
,,,,,,,,,,,,,,,,,gyibeslem,gyibeslek,right,4.4208,0,35,35,98,1,45,gyibeslik,gyibeslesz,NA,NA,Te bizony sokat gyibeslesz.,Én is sokat...,gyibeslek,gyibeslem,lakik,-lik,2,PR2070,2002,nő,nem,2022-04-18_11h04.00.392,hesp_baseline,2021.2.3,Win32,60.09615385
,,,,,,,,,,,,,,,,,darhénben,darhénban,right,3.0597,0,36,36,27,1,28,darhén,darhén,ban,é,Ez itt egy darhén.,Ott vagyunk a...,darhénben,darhénban,dzsungel,NA,NA,PR2070,2002,nő,nem,2022-04-18_11h04.00.392,hesp_baseline,2021.2.3,Win32,60.09615385
,,,,,,,,,,,,,,,,,jukélnél,jukélnál,right,3.6956,0,37,37,42,1,43,jukél,jukél,nál,é,Ez itt egy jukél.,Nincs is jobb egy jó...,jukélnél,jukélnál,dzsungel,NA,NA,PR2070,2002,nő,nem,2022-04-18_11h04.00.392,hesp_baseline,2021.2.3,Win32,60.09615385
,,,,,,,,,,,,,,,,,fökszenek,föködnek,left,15.455,0,38,38,131,1,24,fökszik / föködik,"fökszik, föködni",nek,NA,"János imád föködni, ezért sokat fökszik.",Ők ritkán...,fökszenek,föködnek,cselekszik,-szik,1,PR2070,2002,nő,nem,2022-04-18_11h04.00.392,hesp_baseline,2021.2.3,Win32,60.09615385
,,,,,,,,,,,,,,,,,feténylek,feténylem,left,8.2999,0,39,39,85,1,32,feténylik,feténylesz,NA,NA,Te bizony sokat feténylesz.,Én is sokat...,feténylek,feténylem,lakik,-lik,2,PR2070,2002,nő,nem,2022-04-18_11h04.00.392,hesp_baseline,2021.2.3,Win32,60.09615385
,,,,,,,,,,,,,,,,,vanylok,vanylom,right,3.2648,0,40,40,61,1,8,vanylik,vanylasz,NA,NA,Te bizony sokat vanylasz.,Én is sokat...,vanylok,vanylom,lakik,-lik,1,PR2070,2002,nő,nem,2022-04-18_11h04.00.392,hesp_baseline,2021.2.3,Win32,60.09615385
,,,,,,,,,,,,,,,,,szibánylom,szibánylok,right,3.0466,0,41,41,67,1,14,szibánylik,szibánylasz,NA,NA,Te bizony sokat szibánylasz.,Én is sokat...,szibánylok,szibánylom,lakik,-lik,2,PR2070,2002,nő,nem,2022-04-18_11h04.00.392,hesp_baseline,2021.2.3,Win32,60.09615385
,,,,,,,,,,,,,,,,,tivencben,tivencban,left,5.9867,0,42,42,53,1,54,tivenc,tivenc,ban,e,Ez itt egy tivenc.,Ott vagyunk a...,tivencben,tivencban,dzsungel,NA,NA,PR2070,2002,nő,nem,2022-04-18_11h04.00.392,hesp_baseline,2021.2.3,Win32,60.09615385
,,,,,,,,,,,,,,,,,prilegzek,prilegzem,right,2.8151,0,43,43,79,1,26,prilegzik,prilegzel,NA,NA,Te bizony sokat prilegzel.,Én is sokat...,prilegzek,prilegzem,lakik,-zik,2,PR2070,2002,nő,nem,2022-04-18_11h04.00.392,hesp_baseline,2021.2.3,Win32,60.09615385
,,,,,,,,,,,,,,,,,plövőrzök,plövőrzöm,right,3.0641,0,44,44,58,1,5,plövőrzik,plövőrzöl,NA,NA,Te bizony sokat plövőrzöl.,Én is sokat...,plövőrzök,plövőrzöm,lakik,-zik,2,PR2070,2002,nő,nem,2022-04-18_11h04.00.392,hesp_baseline,2021.2.3,Win32,60.09615385
,,,,,,,,,,,,,,,,,jüslöm,jüslök,left,2.3972,0,45,45,56,1,3,jüslik,jüslesz,NA,NA,Te bizony sokat jüslesz.,Én is sokat...,jüslök,jüslöm,lakik,-lik,1,PR2070,2002,nő,nem,2022-04-18_11h04.00.392,hesp_baseline,2021.2.3,Win32,60.09615385
,,,,,,,,,,,,,,,,,fágyépnél,fágyépnál,right,5.1977,0,46,46,10,1,11,fágyép,fágyép,nál,é,Ez itt egy fágyép.,Nincs is jobb egy jó...,fágyépnél,fágyépnál,dzsungel,NA,NA,PR2070,2002,nő,nem,2022-04-18_11h04.00.392,hesp_baseline,2021.2.3,Win32,60.09615385
,,,,,,,,,,,,,,,,,tragzom,tragzok,right,4.2224,0,47,47,90,1,37,tragzik,tragzol,NA,NA,Te bizony sokat tragzol.,Én is sokat...,tragzok,tragzom,lakik,-zik,1,PR2070,2002,nő,nem,2022-04-18_11h04.00.392,hesp_baseline,2021.2.3,Win32,60.09615385
,,,,,,,,,,,,,,,,,brigesztnek,brigesztnak,left,3.6254,0,48,48,48,1,49,brigeszt,brigeszt,nak,e,Ez itt egy brigeszt.,Elneveztem a kutyámat...,brigesztnek,brigesztnak,dzsungel,NA,NA,PR2070,2002,nő,nem,2022-04-18_11h04.00.392,hesp_baseline,2021.2.3,Win32,60.09615385
,,,,,,,,,,,,,,,,,herégszem,herégszek,left,4.8364,0,49,49,54,1,1,herégszik,herégszel,NA,NA,Te bizony sokat herégszel.,Én is sokat...,herégszek,herégszem,lakik,-szik,2,PR2070,2002,nő,nem,2022-04-18_11h04.00.392,hesp_baseline,2021.2.3,Win32,60.09615385
,,,,,,,,,,,,,,,,,riványoztok,riványlotok,left,8.2802,0,50,50,117,1,10,riványlik / riványozik,"riványlik, riványozni",tek,NA,"János imád riványozni, ezért sokat riványlik.",Ti ritkán...,riványlotok,riványoztok,cselekszik,-lik,2,PR2070,2002,nő,nem,2022-04-18_11h04.00.392,hesp_baseline,2021.2.3,Win32,60.09615385
,,,,,,,,,,,,,,,,,kűdlenek,kűdöznek,left,4.4913,0,51,51,142,1,35,kűdlik / kűdözik,"kűdlik, kűdözni",nek,NA,"János imád kűdözni, ezért sokat kűdlik.",Ők ritkán...,kűdlenek,kűdöznek,cselekszik,-lik,1,PR2070,2002,nő,nem,2022-04-18_11h04.00.392,hesp_baseline,2021.2.3,Win32,60.09615385
,,,,,,,,,,,,,,,,,lumézban,lumézben,left,3.6953,0,52,52,32,1,33,luméz,luméz,ban,é,Ez itt egy luméz.,Ott vagyunk a...,lumézben,lumézban,dzsungel,NA,NA,PR2070,2002,nő,nem,2022-04-18_11h04.00.392,hesp_baseline,2021.2.3,Win32,60.09615385
,,,,,,,,,,,,,,,,,kaszépnak,kaszépnek,left,7.5759,0,53,53,40,1,41,kaszép,kaszép,nak,é,Ez itt egy kaszép.,Elneveztem a kutyámat...,kaszépnek,kaszépnak,dzsungel,NA,NA,PR2070,2002,nő,nem,2022-04-18_11h04.00.392,hesp_baseline,2021.2.3,Win32,60.09615385
,,,,,,,,,,,,,,,,,vismernél,vismernál,left,3.3177,0,54,54,13,1,14,vismer,vismer,nál,e,Ez itt egy vismer.,Nincs is jobb egy jó...,vismernél,vismernál,dzsungel,NA,NA,PR2070,2002,nő,nem,2022-04-18_11h04.00.392,hesp_baseline,2021.2.3,Win32,60.09615385
,,,,,,,,,,,,,,,,,galároznak,galárzanak,right,4.5936,0,55,55,154,1,47,galárzik / galározik,"galárzik, galározni",nek,NA,"János imád galározni, ezért sokat galárzik.",Ők ritkán...,galárzanak,galároznak,cselekszik,-zik,2,PR2070,2002,nő,nem,2022-04-18_11h04.00.392,hesp_baseline,2021.2.3,Win32,60.09615385
,,,,,,,,,,,,,,,,,hosétnak,hosétnek,left,4.1153,0,56,56,8,1,9,hosét,hosét,nak,é,Ez itt egy hosét.,Elneveztem a kutyámat...,hosétnek,hosétnak,dzsungel,NA,NA,PR2070,2002,nő,nem,2022-04-18_11h04.00.392,hesp_baseline,2021.2.3,Win32,60.09615385
,,,,,,,,,,,,,,,,,pisélyben,pisélyban,left,2.7135,0,57,57,21,1,22,pisély,pisély,ban,é,Ez itt egy pisély.,Ott vagyunk a...,pisélyben,pisélyban,dzsungel,NA,NA,PR2070,2002,nő,nem,2022-04-18_11h04.00.392,hesp_baseline,2021.2.3,Win32,60.09615385
,,,,,,,,,,,,,,,,,spatszok,spatszom,right,4.3779,0,58,58,73,1,20,spatszik,spatszol,NA,NA,Te bizony sokat spatszol.,Én is sokat...,spatszok,spatszom,lakik,-szik,1,PR2070,2002,nő,nem,2022-04-18_11h04.00.392,hesp_baseline,2021.2.3,Win32,60.09615385
,,,,,,,,,,,,,,,,,spűmlöm,spűmlök,right,3.8817,0,59,59,86,1,33,spűmlik,spűmlesz,NA,NA,Te bizony sokat spűmlesz.,Én is sokat...,spűmlök,spűmlöm,lakik,-lik,1,PR2070,2002,nő,nem,2022-04-18_11h04.00.392,hesp_baseline,2021.2.3,Win32,60.09615385
,,,,,,,,,,,,,,,,,lorzensnél,lorzensnál,right,4.7435,0,60,60,34,1,35,lorzens,lorzens,nál,e,Ez itt egy lorzens.,Nincs is jobb egy jó...,lorzensnél,lorzensnál,dzsungel,NA,NA,PR2070,2002,nő,nem,2022-04-18_11h04.00.392,hesp_baseline,2021.2.3,Win32,60.09615385
,,,,,,,,,,,,,,,,,flehénylek,flehénylem,left,3.9526,0,61,61,106,1,53,flehénylik,flehénylesz,NA,NA,Te bizony sokat flehénylesz.,Én is sokat...,flehénylek,flehénylem,lakik,-lik,2,PR2070,2002,nő,nem,2022-04-18_11h04.00.392,hesp_baseline,2021.2.3,Win32,60.09615385
,,,,,,,,,,,,,,,,,málapszok,málapszom,right,4.3818,0,62,62,66,1,13,málapszik,málapszol,NA,NA,Te bizony sokat málapszol.,Én is sokat...,málapszok,málapszom,lakik,-szik,2,PR2070,2002,nő,nem,2022-04-18_11h04.00.392,hesp_baseline,2021.2.3,Win32,60.09615385
,,,,,,,,,,,,,,,,,matézben,matézban,right,2.9657,0,63,63,37,1,38,matéz,matéz,ban,é,Ez itt egy matéz.,Ott vagyunk a...,matézben,matézban,dzsungel,NA,NA,PR2070,2002,nő,nem,2022-04-18_11h04.00.392,hesp_baseline,2021.2.3,Win32,60.09615385
,,,,,,,,,,,,,,,,,vülődzöm,vülődzök,right,6.5536,0,64,64,81,1,28,vülődzik,vülődzöl,NA,NA,Te bizony sokat vülődzöl.,Én is sokat...,vülődzök,vülődzöm,lakik,-zik,2,PR2070,2002,nő,nem,2022-04-18_11h04.00.392,hesp_baseline,2021.2.3,Win32,60.09615385
,,,,,,,,,,,,,,,,,vodépnak,vodépnek,left,2.8322,0,65,65,41,1,42,vodép,vodép,nak,é,Ez itt egy vodép.,Elneveztem a kutyámat...,vodépnek,vodépnak,dzsungel,NA,NA,PR2070,2002,nő,nem,2022-04-18_11h04.00.392,hesp_baseline,2021.2.3,Win32,60.09615385
,,,,,,,,,,,,,,,,,diránylanak,dirányoznak,left,3.8431,0,66,66,122,1,15,diránylik / dirányozik,"diránylik, dirányozni",nek,NA,"János imád dirányozni, ezért sokat diránylik.",Ők ritkán...,diránylanak,dirányoznak,cselekszik,-lik,2,PR2070,2002,nő,nem,2022-04-18_11h04.00.392,hesp_baseline,2021.2.3,Win32,60.09615385
,,,,,,,,,,,,,,,,,klordénynak,klordénynek,right,4.6881,0,67,67,9,1,10,klordény,klordény,nak,é,Ez itt egy klordény.,Elneveztem a kutyámat...,klordénynek,klordénynak,dzsungel,NA,NA,PR2070,2002,nő,nem,2022-04-18_11h04.00.392,hesp_baseline,2021.2.3,Win32,60.09615385
,,,,,,,,,,,,,,,,,sprudozunk,sprudlunk,left,4.2068,0,68,68,136,1,29,sprudlik / sprudozik,"sprudlik, sprudozni",ünk,NA,"János imád sprudozni, ezért sokat sprudlik.",Mi ritkán...,sprudlunk,sprudozunk,cselekszik,-lik,1,PR2070,2002,nő,nem,2022-04-18_11h04.00.392,hesp_baseline,2021.2.3,Win32,60.09615385
,,,,,,,,,,,,,,,,,frinylunk,frinyozunk,left,4.0336,0,69,69,133,1,26,frinylik / frinyozik,"frinylik, frinyozni",ünk,NA,"János imád frinyozni, ezért sokat frinylik.",Mi ritkán...,frinylunk,frinyozunk,cselekszik,-lik,1,PR2070,2002,nő,nem,2022-04-18_11h04.00.392,hesp_baseline,2021.2.3,Win32,60.09615385
,,,,,,,,,,,,,,,,,kalhésznek,kalhésznak,right,2.8038,0,70,70,46,1,47,kalhész,kalhész,nak,é,Ez itt egy kalhész.,Elneveztem a kutyámat...,kalhésznek,kalhésznak,dzsungel,NA,NA,PR2070,2002,nő,nem,2022-04-18_11h04.00.392,hesp_baseline,2021.2.3,Win32,60.09615385
,,,,,,,,,,,,,,,,,spibádzok,spibádzom,left,6.8631,0,71,71,65,1,12,spibádzik,spibádzol,NA,NA,Te bizony sokat spibádzol.,Én is sokat...,spibádzok,spibádzom,lakik,-zik,2,PR2070,2002,nő,nem,2022-04-18_11h04.00.392,hesp_baseline,2021.2.3,Win32,60.09615385
,,,,,,,,,,,,,,,,,bölszöm,bölszök,right,2.812,0,72,72,105,1,52,bölszik,bölszöl,NA,NA,Te bizony sokat bölszöl.,Én is sokat...,bölszök,bölszöm,lakik,-szik,1,PR2070,2002,nő,nem,2022-04-18_11h04.00.392,hesp_baseline,2021.2.3,Win32,60.09615385
,,,,,,,,,,,,,,,,,bribaslanak,bribasoznak,left,3.7587,0,73,73,121,1,14,bribaslik / bribasozik,"bribaslik, bribasozni",nek,NA,"János imád bribasozni, ezért sokat bribaslik.",Ők ritkán...,bribaslanak,bribasoznak,cselekszik,-lik,2,PR2070,2002,nő,nem,2022-04-18_11h04.00.392,hesp_baseline,2021.2.3,Win32,60.09615385
,,,,,,,,,,,,,,,,,salárzom,salárzok,right,9.717,0,74,74,103,1,50,salárzik,salárzol,NA,NA,Te bizony sokat salárzol.,Én is sokat...,salárzok,salárzom,lakik,-zik,2,PR2070,2002,nő,nem,2022-04-18_11h04.00.392,hesp_baseline,2021.2.3,Win32,60.09615385
,,,,,,,,,,,,,,,,,klihaslotok,klihasoztok,right,5.8589,0,75,75,156,1,49,klihaslik / klihasozik,"klihaslik, klihasozni",tek,NA,"János imád klihasozni, ezért sokat klihaslik.",Ti ritkán...,klihaslotok,klihasoztok,cselekszik,-lik,2,PR2070,2002,nő,nem,2022-04-18_11h04.00.392,hesp_baseline,2021.2.3,Win32,60.09615385
,,,,,,,,,,,,,,,,,csibagoztok,csibagzotok,left,4.4719,0,76,76,114,1,7,csibagzik / csibagozik,"csibagzik, csibagozni",tek,NA,"János imád csibagozni, ezért sokat csibagzik.",Ti ritkán...,csibagzotok,csibagoztok,cselekszik,-zik,2,PR2070,2002,nő,nem,2022-04-18_11h04.00.392,hesp_baseline,2021.2.3,Win32,60.09615385
,,,,,,,,,,,,,,,,,spéslek,spéslem,left,2.6314,0,77,77,93,1,40,spéslik,spéslesz,NA,NA,Te bizony sokat spéslesz.,Én is sokat...,spéslek,spéslem,lakik,-lik,1,PR2070,2002,nő,nem,2022-04-18_11h04.00.392,hesp_baseline,2021.2.3,Win32,60.09615385
,,,,,,,,,,,,,,,,,trihagzok,trihagzom,right,3.2502,0,78,78,83,1,30,trihagzik,trihagzol,NA,NA,Te bizony sokat trihagzol.,Én is sokat...,trihagzok,trihagzom,lakik,-zik,2,PR2070,2002,nő,nem,2022-04-18_11h04.00.392,hesp_baseline,2021.2.3,Win32,60.09615385
,,,,,,,,,,,,,,,,,marzok,marzom,left,2.3946,0,79,79,99,1,46,marzik,marzol,NA,NA,Te bizony sokat marzol.,Én is sokat...,marzok,marzom,lakik,-zik,1,PR2070,2002,nő,nem,2022-04-18_11h04.00.392,hesp_baseline,2021.2.3,Win32,60.09615385
,,,,,,,,,,,,,,,,,jurlunk,jurozunk,right,6.0331,0,80,80,111,1,4,jurlik / jurozik,"jurlik, jurozni",ünk,NA,"János imád jurozni, ezért sokat jurlik.",Mi ritkán...,jurlunk,jurozunk,cselekszik,-lik,1,PR2070,2002,nő,nem,2022-04-18_11h04.00.392,hesp_baseline,2021.2.3,Win32,60.09615385
,,,,,,,,,,,,,,,,,spibaklok,spibaklom,right,4.2567,0,81,81,55,1,2,spibaklik,spibaklasz,NA,NA,Te bizony sokat spibaklasz.,Én is sokat...,spibaklok,spibaklom,lakik,-lik,2,PR2070,2002,nő,nem,2022-04-18_11h04.00.392,hesp_baseline,2021.2.3,Win32,60.09615385
,,,,,,,,,,,,,,,,,breseznek,breslenek,left,4.966,0,82,82,115,1,8,breslik / bresezik,"breslik, bresezni",nek,NA,"János imád bresezni, ezért sokat breslik.",Ők ritkán...,breslenek,breseznek,cselekszik,-lik,1,PR2070,2002,nő,nem,2022-04-18_11h04.00.392,hesp_baseline,2021.2.3,Win32,60.09615385
,,,,,,,,,,,,,,,,,drűröznek,drűrzenek,left,8.7327,0,83,83,126,1,19,drűrzik / drűrözik,"drűrzik, drűrözni",nek,NA,"János imád drűrözni, ezért sokat drűrzik.",Ők ritkán...,drűrzenek,drűröznek,cselekszik,-zik,1,PR2070,2002,nő,nem,2022-04-18_11h04.00.392,hesp_baseline,2021.2.3,Win32,60.09615385
,,,,,,,,,,,,,,,,,csarténynek,csarténynak,right,2.4838,0,84,84,36,1,37,csartény,csartény,nak,é,Ez itt egy csartény.,Elneveztem a kutyámat...,csarténynek,csarténynak,dzsungel,NA,NA,PR2070,2002,nő,nem,2022-04-18_11h04.00.392,hesp_baseline,2021.2.3,Win32,60.09615385
,,,,,,,,,,,,,,,,,drügzöm,drügzök,left,3.9565,0,85,85,72,1,19,drügzik,drügzöl,NA,NA,Te bizony sokat drügzöl.,Én is sokat...,drügzök,drügzöm,lakik,-zik,1,PR2070,2002,nő,nem,2022-04-18_11h04.00.392,hesp_baseline,2021.2.3,Win32,60.09615385
,,,,,,,,,,,,,,,,,brözöztök,brözlötök,left,3.8747,0,86,86,145,1,38,brözlik / brözözik,"brözlik, brözözni",tek,NA,"János imád brözözni, ezért sokat brözlik.",Ti ritkán...,brözlötök,brözöztök,cselekszik,-lik,1,PR2070,2002,nő,nem,2022-04-18_11h04.00.392,hesp_baseline,2021.2.3,Win32,60.09615385
,,,,,,,,,,,,,,,,,kliszernél,kliszernál,left,3.6474,0,87,87,31,1,32,kliszer,kliszer,nál,e,Ez itt egy kliszer.,Nincs is jobb egy jó...,kliszernél,kliszernál,dzsungel,NA,NA,PR2070,2002,nő,nem,2022-04-18_11h04.00.392,hesp_baseline,2021.2.3,Win32,60.09615385
,,,,,,,,,,,,,,,,,rokszom,rokszok,right,2.4465,0,88,88,101,1,48,rokszik,rokszol,NA,NA,Te bizony sokat rokszol.,Én is sokat...,rokszok,rokszom,lakik,-szik,1,PR2070,2002,nő,nem,2022-04-18_11h04.00.392,hesp_baseline,2021.2.3,Win32,60.09615385
,,,,,,,,,,,,,,,,,zsúdelnak,zsúdelnek,right,2.3264,0,89,89,14,1,15,zsúdel,zsúdel,nak,e,Ez itt egy zsúdel.,Elneveztem a kutyámat...,zsúdelnek,zsúdelnak,dzsungel,NA,NA,PR2070,2002,nő,nem,2022-04-18_11h04.00.392,hesp_baseline,2021.2.3,Win32,60.09615385
,,,,,,,,,,,,,,,,,ibáglok,ibáglom,left,3.2338,0,90,90,88,1,35,ibáglik,ibáglasz,NA,NA,Te bizony sokat ibáglasz.,Én is sokat...,ibáglok,ibáglom,lakik,-lik,2,PR2070,2002,nő,nem,2022-04-18_11h04.00.392,hesp_baseline,2021.2.3,Win32,60.09615385
,,,,,,,,,,,,,,,,,míslunk,mísozunk,left,3.4087,0,91,91,123,1,16,míslik / mísozik,"míslik, mísozni",ünk,NA,"János imád mísozni, ezért sokat míslik.",Mi ritkán...,míslunk,mísozunk,cselekszik,-lik,1,PR2070,2002,nő,nem,2022-04-18_11h04.00.392,hesp_baseline,2021.2.3,Win32,60.09615385
,,,,,,,,,,,,,,,,,hiragoznak,hiragzanak,left,2.7014,0,92,92,119,1,12,hiragzik / hiragozik,"hiragzik, hiragozni",nek,NA,"János imád hiragozni, ezért sokat hiragzik.",Ők ritkán...,hiragzanak,hiragoznak,cselekszik,-zik,2,PR2070,2002,nő,nem,2022-04-18_11h04.00.392,hesp_baseline,2021.2.3,Win32,60.09615385
,,,,,,,,,,,,,,,,,hivépban,hivépben,right,4.2148,0,93,93,44,1,45,hivép,hivép,ban,é,Ez itt egy hivép.,Ott vagyunk a...,hivépben,hivépban,dzsungel,NA,NA,PR2070,2002,nő,nem,2022-04-18_11h04.00.392,hesp_baseline,2021.2.3,Win32,60.09615385
,,,,,,,,,,,,,,,,,gatáglunk,gatágozunk,right,6.1739,0,94,94,137,1,30,gatáglik / gatágozik,"gatáglik, gatágozni",ünk,NA,"János imád gatágozni, ezért sokat gatáglik.",Mi ritkán...,gatáglunk,gatágozunk,cselekszik,-lik,2,PR2070,2002,nő,nem,2022-04-18_11h04.00.392,hesp_baseline,2021.2.3,Win32,60.09615385
,,,,,,,,,,,,,,,,,hijegynál,hijegynél,right,3.2027,0,95,95,4,1,5,hijegy,hijegy,nál,e,Ez itt egy hijegy.,Nincs is jobb egy jó...,hijegynél,hijegynál,dzsungel,NA,NA,PR2070,2002,nő,nem,2022-04-18_11h04.00.392,hesp_baseline,2021.2.3,Win32,60.09615385
,,,,,,,,,,,,,,,,,bralképban,bralképben,right,2.8461,0,96,96,12,1,13,bralkép,bralkép,ban,é,Ez itt egy bralkép.,Ott vagyunk a...,bralképben,bralképban,dzsungel,NA,NA,PR2070,2002,nő,nem,2022-04-18_11h04.00.392,hesp_baseline,2021.2.3,Win32,60.09615385
,,,,,,,,,,,,,,,,,géregletek,géregeztek,right,5.5973,0,97,97,124,1,17,géreglik / géregezik,"géreglik, géregezni",tek,NA,"János imád géregezni, ezért sokat géreglik.",Ti ritkán...,géregletek,géregeztek,cselekszik,-lik,2,PR2070,2002,nő,nem,2022-04-18_11h04.00.392,hesp_baseline,2021.2.3,Win32,60.09615385
,,,,,,,,,,,,,,,,,pítszok,pítszom,right,2.4336,0,98,98,62,1,9,pítszik,pítszol,NA,NA,Te bizony sokat pítszol.,Én is sokat...,pítszok,pítszom,lakik,-szik,1,PR2070,2002,nő,nem,2022-04-18_11h04.00.392,hesp_baseline,2021.2.3,Win32,60.09615385
,,,,,,,,,,,,,,,,,spélszek,spélszem,left,2.773,0,99,99,68,1,15,spélszik,spélszel,NA,NA,Te bizony sokat spélszel.,Én is sokat...,spélszek,spélszem,lakik,-szik,1,PR2070,2002,nő,nem,2022-04-18_11h04.00.392,hesp_baseline,2021.2.3,Win32,60.09615385
,,,,,,,,,,,,,,,,,lörűdzöm,lörűdzök,right,3.3312,0,100,100,77,1,24,lörűdzik,lörűdzöl,NA,NA,Te bizony sokat lörűdzöl.,Én is sokat...,lörűdzök,lörűdzöm,lakik,-zik,2,PR2070,2002,nő,nem,2022-04-18_11h04.00.392,hesp_baseline,2021.2.3,Win32,60.09615385
,,,,,,,,,,,,,,,,,mádépnál,mádépnél,right,3.0492,0,101,101,1,1,2,mádép,mádép,nál,é,Ez itt egy mádép.,Nincs is jobb egy jó...,mádépnél,mádépnál,dzsungel,NA,NA,PR2070,2002,nő,nem,2022-04-18_11h04.00.392,hesp_baseline,2021.2.3,Win32,60.09615385
,,,,,,,,,,,,,,,,,csublényban,csublényben,left,2.6489,0,102,102,16,1,17,csublény,csublény,ban,é,Ez itt egy csublény.,Ott vagyunk a...,csublényben,csublényban,dzsungel,NA,NA,PR2070,2002,nő,nem,2022-04-18_11h04.00.392,hesp_baseline,2021.2.3,Win32,60.09615385
,,,,,,,,,,,,,,,,,préleglek,préleglem,right,2.7844,0,103,103,104,1,51,préleglik,préleglesz,NA,NA,Te bizony sokat préleglesz.,Én is sokat...,préleglek,préleglem,lakik,-lik,2,PR2070,2002,nő,nem,2022-04-18_11h04.00.392,hesp_baseline,2021.2.3,Win32,60.09615385
,,,,,,,,,,,,,,,,,prélemlenek,prélemeznek,left,5.0014,0,104,104,110,1,3,prélemlik / prélemezik,"prélemlik, prélemezni",nek,NA,"János imád prélemezni, ezért sokat prélemlik.",Ők ritkán...,prélemlenek,prélemeznek,cselekszik,-lik,2,PR2070,2002,nő,nem,2022-04-18_11h04.00.392,hesp_baseline,2021.2.3,Win32,60.09615385
,,,,,,,,,,,,,,,,,hóbensben,hóbensban,left,2.3161,0,105,105,3,1,4,hóbens,hóbens,ban,e,Ez itt egy hóbens.,Ott vagyunk a...,hóbensben,hóbensban,dzsungel,NA,NA,PR2070,2002,nő,nem,2022-04-18_11h04.00.392,hesp_baseline,2021.2.3,Win32,60.09615385
,,,,,,,,,,,,,,,,,zopélynál,zopélynél,left,2.7781,0,106,106,5,1,6,zopély,zopély,nál,é,Ez itt egy zopély.,Nincs is jobb egy jó...,zopélynél,zopélynál,dzsungel,NA,NA,PR2070,2002,nő,nem,2022-04-18_11h04.00.392,hesp_baseline,2021.2.3,Win32,60.09615385
,,,,,,,,,,,,,,,,,pivédban,pivédben,right,2.106,0,107,107,52,1,53,pivéd,pivéd,ban,é,Ez itt egy pivéd.,Ott vagyunk a...,pivédben,pivédban,dzsungel,NA,NA,PR2070,2002,nő,nem,2022-04-18_11h04.00.392,hesp_baseline,2021.2.3,Win32,60.09615385
,,,,,,,,,,,,,,,,,livaklok,livaklom,right,2.4902,0,108,108,82,1,29,livaklik,livaklasz,NA,NA,Te bizony sokat livaklasz.,Én is sokat...,livaklok,livaklom,lakik,-lik,2,PR2070,2002,nő,nem,2022-04-18_11h04.00.392,hesp_baseline,2021.2.3,Win32,60.09615385
,,,,,,,,,,,,,,,,,priszecban,priszecben,right,2.8767,0,109,109,15,1,16,priszec,priszec,ban,e,Ez itt egy priszec.,Ott vagyunk a...,priszecben,priszecban,dzsungel,NA,NA,PR2070,2002,nő,nem,2022-04-18_11h04.00.392,hesp_baseline,2021.2.3,Win32,60.09615385
,,,,,,,,,,,,,,,,,fádensnek,fádensnak,left,4.0117,0,110,110,33,1,34,fádens,fádens,nak,e,Ez itt egy fádens.,Elneveztem a kutyámat...,fádensnek,fádensnak,dzsungel,NA,NA,PR2070,2002,nő,nem,2022-04-18_11h04.00.392,hesp_baseline,2021.2.3,Win32,60.09615385
,,,,,,,,,,,,,,,,,naremban,naremben,left,6.8394,0,111,111,2,1,3,narem,narem,ban,e,Ez itt egy narem.,Ott vagyunk a...,naremben,naremban,dzsungel,NA,NA,PR2070,2002,nő,nem,2022-04-18_11h04.00.392,hesp_baseline,2021.2.3,Win32,60.09615385
,,,,,,,,,,,,,,,,,frirzunk,frirozunk,left,7.6721,0,112,112,129,1,22,frirzik / frirozik,"frirzik, frirozni",ünk,NA,"János imád frirozni, ezért sokat frirzik.",Mi ritkán...,frirzunk,frirozunk,cselekszik,-zik,1,PR2070,2002,nő,nem,2022-04-18_11h04.00.392,hesp_baseline,2021.2.3,Win32,60.09615385
,,,,,,,,,,,,,,,,,sprédlek,sprédlem,left,3.0975,0,113,113,70,1,17,sprédlik,sprédlesz,NA,NA,Te bizony sokat sprédlesz.,Én is sokat...,sprédlek,sprédlem,lakik,-lik,1,PR2070,2002,nő,nem,2022-04-18_11h04.00.392,hesp_baseline,2021.2.3,Win32,60.09615385
,,,,,,,,,,,,,,,,,brülösözünk,brülöslünk,left,3.4608,0,114,114,109,1,2,brülöslik / brülösözik,"brülöslik, brülösözni",ünk,NA,"János imád brülösözni, ezért sokat brülöslik.",Mi ritkán...,brülöslünk,brülösözünk,cselekszik,-lik,2,PR2070,2002,nő,nem,2022-04-18_11h04.00.392,hesp_baseline,2021.2.3,Win32,60.09615385
,,,,,,,,,,,,,,,,,buhényban,buhényben,left,3.0442,0,115,115,43,1,44,buhény,buhény,ban,é,Ez itt egy buhény.,Ott vagyunk a...,buhényben,buhényban,dzsungel,NA,NA,PR2070,2002,nő,nem,2022-04-18_11h04.00.392,hesp_baseline,2021.2.3,Win32,60.09615385
,,,,,,,,,,,,,,,,,brarlok,brarlom,left,2.7252,0,116,116,71,1,18,brarlik,brarlasz,NA,NA,Te bizony sokat brarlasz.,Én is sokat...,brarlok,brarlom,lakik,-lik,1,PR2070,2002,nő,nem,2022-04-18_11h04.00.392,hesp_baseline,2021.2.3,Win32,60.09615385
,,,,,,,,,,,,,,,,,sztremlek,sztremlem,right,2.1951,0,117,117,95,1,42,sztremlik,sztremlesz,NA,NA,Te bizony sokat sztremlesz.,Én is sokat...,sztremlek,sztremlem,lakik,-lik,1,PR2070,2002,nő,nem,2022-04-18_11h04.00.392,hesp_baseline,2021.2.3,Win32,60.09615385
,,,,,,,,,,,,,,,,,hilarzom,hilarzok,right,2.7929,0,118,118,69,1,16,hilarzik,hilarzol,NA,NA,Te bizony sokat hilarzol.,Én is sokat...,hilarzok,hilarzom,lakik,-zik,2,PR2070,2002,nő,nem,2022-04-18_11h04.00.392,hesp_baseline,2021.2.3,Win32,60.09615385
,,,,,,,,,,,,,,,,,spihemlek,spihemlem,left,3.1689,0,119,119,94,1,41,spihemlik,spihemlesz,NA,NA,Te bizony sokat spihemlesz.,Én is sokat...,spihemlek,spihemlem,lakik,-lik,2,PR2070,2002,nő,nem,2022-04-18_11h04.00.392,hesp_baseline,2021.2.3,Win32,60.09615385
,,,,,,,,,,,,,,,,,prugoroztok,prugorzotok,left,5.1419,0,120,120,116,1,9,prugorzik / prugorozik,"prugorzik, prugorozni",tek,NA,"János imád prugorozni, ezért sokat prugorzik.",Ti ritkán...,prugorzotok,prugoroztok,cselekszik,-zik,2,PR2070,2002,nő,nem,2022-04-18_11h04.00.392,hesp_baseline,2021.2.3,Win32,60.09615385
,,,,,,,,,,,,,,,,,dajrensnál,dajrensnél,right,2.3817,0,121,121,49,1,50,dajrens,dajrens,nál,e,Ez itt egy dajrens.,Nincs is jobb egy jó...,dajrensnél,dajrensnál,dzsungel,NA,NA,PR2070,2002,nő,nem,2022-04-18_11h04.00.392,hesp_baseline,2021.2.3,Win32,60.09615385
,,,,,,,,,,,,,,,,,spábétben,spábétban,right,3.1824,0,122,122,51,1,52,spábét,spábét,ban,é,Ez itt egy spábét.,Ott vagyunk a...,spábétben,spábétban,dzsungel,NA,NA,PR2070,2002,nő,nem,2022-04-18_11h04.00.392,hesp_baseline,2021.2.3,Win32,60.09615385
,,,,,,,,,,,,,,,,,szibedben,szibedban,left,2.3992,0,123,123,47,1,48,szibed,szibed,ban,e,Ez itt egy szibed.,Ott vagyunk a...,szibedben,szibedban,dzsungel,NA,NA,PR2070,2002,nő,nem,2022-04-18_11h04.00.392,hesp_baseline,2021.2.3,Win32,60.09615385
,,,,,,,,,,,,,,,,,brüszöztök,brüszlötök,left,9.0278,0,124,124,130,1,23,brüszlik / brüszözik,"brüszlik, brüszözni",tek,NA,"János imád brüszözni, ezért sokat brüszlik.",Ti ritkán...,brüszlötök,brüszöztök,cselekszik,-lik,1,PR2070,2002,nő,nem,2022-04-18_11h04.00.392,hesp_baseline,2021.2.3,Win32,60.09615385
,,,,,,,,,,,,,,,,,frorlanak,froroznak,right,5.861,0,125,125,143,1,36,frorlik / frorozik,"frorlik, frorozni",nek,NA,"János imád frorozni, ezért sokat frorlik.",Ők ritkán...,frorlanak,froroznak,cselekszik,-lik,1,PR2070,2002,nő,nem,2022-04-18_11h04.00.392,hesp_baseline,2021.2.3,Win32,60.09615385
,,,,,,,,,,,,,,,,,tágarozunk,tágarzunk,right,4.1469,0,126,126,155,1,48,tágarzik / tágarozik,"tágarzik, tágarozni",ünk,NA,"János imád tágarozni, ezért sokat tágarzik.",Mi ritkán...,tágarzunk,tágarozunk,cselekszik,-zik,2,PR2070,2002,nő,nem,2022-04-18_11h04.00.392,hesp_baseline,2021.2.3,Win32,60.09615385
,,,,,,,,,,,,,,,,,friheglünk,frihegezünk,left,6.8711,0,127,127,132,1,25,friheglik / frihegezik,"friheglik, frihegezni",ünk,NA,"János imád frihegezni, ezért sokat friheglik.",Mi ritkán...,friheglünk,frihegezünk,cselekszik,-lik,2,PR2070,2002,nő,nem,2022-04-18_11h04.00.392,hesp_baseline,2021.2.3,Win32,60.09615385
,,,,,,,,,,,,,,,,,pilégednek,pilégszenek,right,4.9492,0,128,128,150,1,43,pilégszik / pilégedik,"pilégszik, pilégedni",nek,NA,"János imád pilégedni, ezért sokat pilégszik.",Ők ritkán...,pilégszenek,pilégednek,cselekszik,-szik,2,PR2070,2002,nő,nem,2022-04-18_11h04.00.392,hesp_baseline,2021.2.3,Win32,60.09615385
,,,,,,,,,,,,,,,,,brivakoztok,brivaklotok,left,7.013,0,129,129,134,1,27,brivaklik / brivakozik,"brivaklik, brivakozni",tek,NA,"János imád brivakozni, ezért sokat brivaklik.",Ti ritkán...,brivaklotok,brivakoztok,cselekszik,-lik,2,PR2070,2002,nő,nem,2022-04-18_11h04.00.392,hesp_baseline,2021.2.3,Win32,60.09615385
,,,,,,,,,,,,,,,,,dutecnél,dutecnál,left,2.2334,0,130,130,22,1,23,dutec,dutec,nál,e,Ez itt egy dutec.,Nincs is jobb egy jó...,dutecnél,dutecnál,dzsungel,NA,NA,PR2070,2002,nő,nem,2022-04-18_11h04.00.392,hesp_baseline,2021.2.3,Win32,60.09615385
,,,,,,,,,,,,,,,,,frakozunk,fraklunk,left,4.4542,0,131,131,159,1,52,fraklik / frakozik,"fraklik, frakozni",ünk,NA,"János imád frakozni, ezért sokat fraklik.",Mi ritkán...,fraklunk,frakozunk,cselekszik,-lik,1,PR2070,2002,nő,nem,2022-04-18_11h04.00.392,hesp_baseline,2021.2.3,Win32,60.09615385
,,,,,,,,,,,,,,,,,zsalrénnak,zsalrénnek,right,3.6381,0,132,132,19,1,20,zsalrén,zsalrén,nak,é,Ez itt egy zsalrén.,Elneveztem a kutyámat...,zsalrénnek,zsalrénnak,dzsungel,NA,NA,PR2070,2002,nő,nem,2022-04-18_11h04.00.392,hesp_baseline,2021.2.3,Win32,60.09615385
,,,,,,,,,,,,,,,,,gyivepednek,gyivepszenek,right,5.2765,0,133,133,160,1,53,gyivepszik / gyivepedik,"gyivepszik, gyivepedni",nek,NA,"János imád gyivepedni, ezért sokat gyivepszik.",Ők ritkán...,gyivepszenek,gyivepednek,cselekszik,-szik,2,PR2070,2002,nő,nem,2022-04-18_11h04.00.392,hesp_baseline,2021.2.3,Win32,60.09615385
,,,,,,,,,,,,,,,,,sihennél,sihennál,left,2.5491,0,134,134,18,1,19,sihen,sihen,nál,e,Ez itt egy sihen.,Nincs is jobb egy jó...,sihennél,sihennál,dzsungel,NA,NA,PR2070,2002,nő,nem,2022-04-18_11h04.00.392,hesp_baseline,2021.2.3,Win32,60.09615385
,,,,,,,,,,,,,,,,,gyivádzom,gyivádzok,right,2.1487,0,135,135,87,1,34,gyivádzik,gyivádzol,NA,NA,Te bizony sokat gyivádzol.,Én is sokat...,gyivádzok,gyivádzom,lakik,-zik,2,PR2070,2002,nő,nem,2022-04-18_11h04.00.392,hesp_baseline,2021.2.3,Win32,60.09615385
,,,,,,,,,,,,,,,,,kadérnál,kadérnél,left,2.2825,0,136,136,7,1,8,kadér,kadér,nál,é,Ez itt egy kadér.,Nincs is jobb egy jó...,kadérnél,kadérnál,dzsungel,NA,NA,PR2070,2002,nő,nem,2022-04-18_11h04.00.392,hesp_baseline,2021.2.3,Win32,60.09615385
,,,,,,,,,,,,,,,,,trukodtok,trukszotok,left,6.0521,0,137,137,157,1,50,trukszik / trukodik,"trukszik, trukodni",tek,NA,"János imád trukodni, ezért sokat trukszik.",Ti ritkán...,trukszotok,trukodtok,cselekszik,-szik,1,PR2070,2002,nő,nem,2022-04-18_11h04.00.392,hesp_baseline,2021.2.3,Win32,60.09615385
,,,,,,,,,,,,,,,,,plibzotok,pliboztok,right,2.7251,0,138,138,140,1,33,plibzik / plibozik,"plibzik, plibozni",tek,NA,"János imád plibozni, ezért sokat plibzik.",Ti ritkán...,plibzotok,pliboztok,cselekszik,-zik,1,PR2070,2002,nő,nem,2022-04-18_11h04.00.392,hesp_baseline,2021.2.3,Win32,60.09615385
,,,,,,,,,,,,,,,,,bötőrözünk,bötőrzünk,right,9.5392,0,139,139,158,1,51,bötőrzik / bötőrözik,"bötőrzik, bötőrözni",ünk,NA,"János imád bötőrözni, ezért sokat bötőrzik.",Mi ritkán...,bötőrzünk,bötőrözünk,cselekszik,-zik,2,PR2070,2002,nő,nem,2022-04-18_11h04.00.392,hesp_baseline,2021.2.3,Win32,60.09615385
,,,,,,,,,,,,,,,,,pebzek,pebzem,left,4.7262,0,140,140,57,1,4,pebzik,pebzel,NA,NA,Te bizony sokat pebzel.,Én is sokat...,pebzek,pebzem,lakik,-zik,1,PR2070,2002,nő,nem,2022-04-18_11h04.00.392,hesp_baseline,2021.2.3,Win32,60.09615385
,,,,,,,,,,,,,,,,,zsopédben,zsopédban,right,3.3944,0,141,141,50,1,51,zsopéd,zsopéd,ban,é,Ez itt egy zsopéd.,Ott vagyunk a...,zsopédben,zsopédban,dzsungel,NA,NA,PR2070,2002,nő,nem,2022-04-18_11h04.00.392,hesp_baseline,2021.2.3,Win32,60.09615385
,,,,,,,,,,,,,,,,,vihapodunk,vihapszunk,right,4.3772,0,142,142,112,1,5,vihapszik / vihapodik,"vihapszik, vihapodni",ünk,NA,"János imád vihapodni, ezért sokat vihapszik.",Mi ritkán...,vihapszunk,vihapodunk,cselekszik,-szik,2,PR2070,2002,nő,nem,2022-04-18_11h04.00.392,hesp_baseline,2021.2.3,Win32,60.09615385
,,,,,,,,,,,,,,,,,dunkészben,dunkészban,right,2.9107,0,143,143,24,1,25,dunkész,dunkész,ban,é,Ez itt egy dunkész.,Ott vagyunk a...,dunkészben,dunkészban,dzsungel,NA,NA,PR2070,2002,nő,nem,2022-04-18_11h04.00.392,hesp_baseline,2021.2.3,Win32,60.09615385
,,,,,,,,,,,,,,,,,sztrajlanak,sztrajoznak,left,4.076,0,144,144,144,1,37,sztrajlik / sztrajozik,"sztrajlik, sztrajozni",nek,NA,"János imád sztrajozni, ezért sokat sztrajlik.",Ők ritkán...,sztrajlanak,sztrajoznak,cselekszik,-lik,1,PR2070,2002,nő,nem,2022-04-18_11h04.00.392,hesp_baseline,2021.2.3,Win32,60.09615385
,,,,,,,,,,,,,,,,,tránélynak,tránélynek,left,2.3966,0,145,145,17,1,18,tránély,tránély,nak,é,Ez itt egy tránély.,Elneveztem a kutyámat...,tránélynek,tránélynak,dzsungel,NA,NA,PR2070,2002,nő,nem,2022-04-18_11h04.00.392,hesp_baseline,2021.2.3,Win32,60.09615385
,,,,,,,,,,,,,,,,,flérlek,flérlem,left,3.2477,0,146,146,89,1,36,flérlik,flérlesz,NA,NA,Te bizony sokat flérlesz.,Én is sokat...,flérlek,flérlem,lakik,-lik,1,PR2070,2002,nő,nem,2022-04-18_11h04.00.392,hesp_baseline,2021.2.3,Win32,60.09615385
,,,,,,,,,,,,,,,,,spivejlenek,spivejeznek,left,5.3905,0,147,147,125,1,18,spivejlik / spivejezik,"spivejlik, spivejezni",nek,NA,"János imád spivejezni, ezért sokat spivejlik.",Ők ritkán...,spivejlenek,spivejeznek,cselekszik,-lik,2,PR2070,2002,nő,nem,2022-04-18_11h04.00.392,hesp_baseline,2021.2.3,Win32,60.09615385
,,,,,,,,,,,,,,,,,bejezünk,bejzünk,left,3.1776,0,148,148,148,1,41,bejzik / bejezik,"bejzik, bejezni",ünk,NA,"János imád bejezni, ezért sokat bejzik.",Mi ritkán...,bejzünk,bejezünk,cselekszik,-zik,1,PR2070,2002,nő,nem,2022-04-18_11h04.00.392,hesp_baseline,2021.2.3,Win32,60.09615385
,,,,,,,,,,,,,,,,,klörlöm,klörlök,right,2.7569,0,149,149,80,1,27,klörlik,klörlesz,NA,NA,Te bizony sokat klörlesz.,Én is sokat...,klörlök,klörlöm,lakik,-lik,1,PR2070,2002,nő,nem,2022-04-18_11h04.00.392,hesp_baseline,2021.2.3,Win32,60.09615385
,,,,,,,,,,,,,,,,,lihénynak,lihénynek,right,2.0891,0,150,150,23,1,24,lihény,lihény,nak,é,Ez itt egy lihény.,Elneveztem a kutyámat...,lihénynek,lihénynak,dzsungel,NA,NA,PR2070,2002,nő,nem,2022-04-18_11h04.00.392,hesp_baseline,2021.2.3,Win32,60.09615385
,,,,,,,,,,,,,,,,,pugoslom,pugoslok,right,2.5355,0,151,151,84,1,31,pugoslik,pugoslasz,NA,NA,Te bizony sokat pugoslasz.,Én is sokat...,pugoslok,pugoslom,lakik,-lik,2,PR2070,2002,nő,nem,2022-04-18_11h04.00.392,hesp_baseline,2021.2.3,Win32,60.09615385
,,,,,,,,,,,,,,,,,gonszéknél,gonszéknál,left,4.3619,0,152,152,38,1,39,gonszék,gonszék,nál,é,Ez itt egy gonszék.,Nincs is jobb egy jó...,gonszéknél,gonszéknál,dzsungel,NA,NA,PR2070,2002,nő,nem,2022-04-18_11h04.00.392,hesp_baseline,2021.2.3,Win32,60.09615385
,,,,,,,,,,,,,,,,,frágapszom,frágapszok,left,3.6112,0,153,153,60,1,7,frágapszik,frágapszol,NA,NA,Te bizony sokat frágapszol.,Én is sokat...,frágapszok,frágapszom,lakik,-szik,2,PR2070,2002,nő,nem,2022-04-18_11h04.00.392,hesp_baseline,2021.2.3,Win32,60.09615385
,,,,,,,,,,,,,,,,,flivegeznek,flivegzenek,left,4.6862,0,154,154,138,1,31,flivegzik / flivegezik,"flivegzik, flivegezni",nek,NA,"János imád flivegezni, ezért sokat flivegzik.",Ők ritkán...,flivegzenek,flivegeznek,cselekszik,-zik,2,PR2070,2002,nő,nem,2022-04-18_11h04.00.392,hesp_baseline,2021.2.3,Win32,60.09615385
,,,,,,,,,,,,,,,,,pöröztök,pörzötök,left,4.9476,0,155,155,153,1,46,pörzik / pörözik,"pörzik, pörözni",tek,NA,"János imád pörözni, ezért sokat pörzik.",Ti ritkán...,pörzötök,pöröztök,cselekszik,-zik,1,PR2070,2002,nő,nem,2022-04-18_11h04.00.392,hesp_baseline,2021.2.3,Win32,60.09615385
,,,,,,,,,,,,,,,,,flagárzok,flagárzom,left,2.5626,0,156,156,64,1,11,flagárzik,flagárzol,NA,NA,Te bizony sokat flagárzol.,Én is sokat...,flagárzok,flagárzom,lakik,-zik,2,PR2070,2002,nő,nem,2022-04-18_11h04.00.392,hesp_baseline,2021.2.3,Win32,60.09615385
,,,,,,,,,,,,,,,,,vilakszok,vilakszom,right,2.5459,0,157,157,97,1,44,vilakszik,vilakszol,NA,NA,Te bizony sokat vilakszol.,Én is sokat...,vilakszok,vilakszom,lakik,-szik,2,PR2070,2002,nő,nem,2022-04-18_11h04.00.392,hesp_baseline,2021.2.3,Win32,60.09615385
,,,,,,,,,,,,,,,,,priszkencnek,priszkencnak,left,2.9259,0,158,158,20,1,21,priszkenc,priszkenc,nak,e,Ez itt egy priszkenc.,Elneveztem a kutyámat...,priszkencnek,priszkencnak,dzsungel,NA,NA,PR2070,2002,nő,nem,2022-04-18_11h04.00.392,hesp_baseline,2021.2.3,Win32,60.09615385
,,,,,,,,,,,,,,,,,gábédnél,gábédnál,right,2.6897,0,159,159,39,1,40,gábéd,gábéd,nál,é,Ez itt egy gábéd.,Nincs is jobb egy jó...,gábédnél,gábédnál,dzsungel,NA,NA,PR2070,2002,nő,nem,2022-04-18_11h04.00.392,hesp_baseline,2021.2.3,Win32,60.09615385
,,,,,,,,,,,,,,,,,frélegezünk,frélegzünk,right,4.9242,0,160,160,147,1,40,frélegzik / frélegezik,"frélegzik, frélegezni",ünk,NA,"János imád frélegezni, ezért sokat frélegzik.",Mi ritkán...,frélegzünk,frélegezünk,cselekszik,-zik,2,PR2070,2002,nő,nem,2022-04-18_11h04.00.392,hesp_baseline,2021.2.3,Win32,60.09615385
,,,,,,,,,,,,,,,,,brubzom,brubzok,right,3.3561,0,161,161,92,1,39,brubzik,brubzol,NA,NA,Te bizony sokat brubzol.,Én is sokat...,brubzok,brubzom,lakik,-zik,1,PR2070,2002,nő,nem,2022-04-18_11h04.00.392,hesp_baseline,2021.2.3,Win32,60.09615385
