my_list,key.keys,key.rt,key_2.keys,key_2.rt,keyboard_input_2.keys,keyboard_input_2.rt,key_3.keys,key_3.rt,keyboard_input_3.keys,keyboard_input_3.rt,key_4.keys,key_4.rt,keyboard_input_4.keys,keyboard_input_4.rt,key_5.keys,key_5.rt,my_button1,my_button2,keyboard_input.keys,keyboard_input.rt,withinBlock.thisRepN,withinBlock.thisTrialN,withinBlock.thisN,withinBlock.thisIndex,withinBlock.ran,rowname,word,prompt,suffix,vowel,carrier_sentence,target_sentence,target1,target2,category,derivational,nsyl,Azonosító,Melyik évben születtél?,Mi a nemed?,Tanultál nyelvészetet?,date,expName,psychopyVersion,OS,frameRate
list3.csv,space,14.6023,space,4.3414,right,3.5723,space,8.6481,left,3.4739,space,6.5656,left,6.477,space,11.6148,brálamoznak,brálamlanak,right,8.6658,0,0,0,144,1,145,brálamlik / brálamozik,"brálamlik, brálamozni",nek,NA,"János imád brálamozni, ezért sokat brálamlik.",Ők ritkán...,brálamlanak,brálamoznak,cselekszik,-lik,2,PR2010,1999,nő,nem,2022-04-04_21h37.11.399,hesp_baseline,2021.2.3,Win32,59.85873339
,,,,,,,,,,,,,,,,,zsádévnek,zsádévnak,right,4.0677,0,1,1,20,1,129,zsádév,zsádév,nak,é,Ez itt egy zsádév.,Elneveztem a kutyámat...,zsádévnek,zsádévnak,dzsungel,NA,NA,PR2010,1999,nő,nem,2022-04-04_21h37.11.399,hesp_baseline,2021.2.3,Win32,59.85873339
,,,,,,,,,,,,,,,,,sprálszom,sprálszok,right,3.5012,0,2,2,65,1,120,sprálszik,sprálszol,NA,NA,Te bizony sokat sprálszol.,Én is sokat...,sprálszok,sprálszom,lakik,-szik,1,PR2010,1999,nő,nem,2022-04-04_21h37.11.399,hesp_baseline,2021.2.3,Win32,59.85873339
,,,,,,,,,,,,,,,,,drilarozunk,drilarzunk,left,7.7415,0,3,3,131,1,132,drilarzik / drilarozik,"drilarzik, drilarozni",ünk,NA,"János imád drilarozni, ezért sokat drilarzik.",Mi ritkán...,drilarzunk,drilarozunk,cselekszik,-zik,2,PR2010,1999,nő,nem,2022-04-04_21h37.11.399,hesp_baseline,2021.2.3,Win32,59.85873339
,,,,,,,,,,,,,,,,,prínylom,prínylok,right,2.7645,0,4,4,102,1,157,prínylik,prínylasz,NA,NA,Te bizony sokat prínylasz.,Én is sokat...,prínylok,prínylom,lakik,-lik,1,PR2010,1999,nő,nem,2022-04-04_21h37.11.399,hesp_baseline,2021.2.3,Win32,59.85873339
,,,,,,,,,,,,,,,,,sztrűkszöm,sztrűkszök,right,3.6973,0,5,5,77,1,132,sztrűkszik,sztrűkszöl,NA,NA,Te bizony sokat sztrűkszöl.,Én is sokat...,sztrűkszök,sztrűkszöm,lakik,-szik,1,PR2010,1999,nő,nem,2022-04-04_21h37.11.399,hesp_baseline,2021.2.3,Win32,59.85873339
,,,,,,,,,,,,,,,,,féjzek,féjzem,left,2.4523,0,6,6,91,1,146,féjzik,féjzel,NA,NA,Te bizony sokat féjzel.,Én is sokat...,féjzek,féjzem,lakik,-zik,1,PR2010,1999,nő,nem,2022-04-04_21h37.11.399,hesp_baseline,2021.2.3,Win32,59.85873339
,,,,,,,,,,,,,,,,,dibezban,dibezben,right,2.4231,0,7,7,27,1,136,dibez,dibez,ban,e,Ez itt egy dibez.,Ott vagyunk a...,dibezben,dibezban,dzsungel,NA,NA,PR2010,1999,nő,nem,2022-04-04_21h37.11.399,hesp_baseline,2021.2.3,Win32,59.85873339
,,,,,,,,,,,,,,,,,prűrlök,prűrlöm,left,3.5851,0,8,8,75,1,130,prűrlik,prűrlesz,NA,NA,Te bizony sokat prűrlesz.,Én is sokat...,prűrlök,prűrlöm,lakik,-lik,1,PR2010,1999,nő,nem,2022-04-04_21h37.11.399,hesp_baseline,2021.2.3,Win32,59.85873339
,,,,,,,,,,,,,,,,,sartelyban,sartelyben,left,2.9015,0,9,9,40,1,149,sartely,sartely,ban,e,Ez itt egy sartely.,Ott vagyunk a...,sartelyben,sartelyban,dzsungel,NA,NA,PR2010,1999,nő,nem,2022-04-04_21h37.11.399,hesp_baseline,2021.2.3,Win32,59.85873339
,,,,,,,,,,,,,,,,,piragszok,piragszom,left,2.3322,0,10,10,83,1,138,piragszik,piragszol,NA,NA,Te bizony sokat piragszol.,Én is sokat...,piragszok,piragszom,lakik,-szik,2,PR2010,1999,nő,nem,2022-04-04_21h37.11.399,hesp_baseline,2021.2.3,Win32,59.85873339
,,,,,,,,,,,,,,,,,kábesznál,kábesznél,left,2.8455,0,11,11,44,1,153,kábesz,kábesz,nál,e,Ez itt egy kábesz.,Nincs is jobb egy jó...,kábesznél,kábesznál,dzsungel,NA,NA,PR2010,1999,nő,nem,2022-04-04_21h37.11.399,hesp_baseline,2021.2.3,Win32,59.85873339
,,,,,,,,,,,,,,,,,siladzom,siladzok,left,3.6664,0,12,12,93,1,148,siladzik,siladzol,NA,NA,Te bizony sokat siladzol.,Én is sokat...,siladzok,siladzom,lakik,-zik,2,PR2010,1999,nő,nem,2022-04-04_21h37.11.399,hesp_baseline,2021.2.3,Win32,59.85873339
,,,,,,,,,,,,,,,,,trismélnek,trismélnak,left,2.6447,0,13,13,5,1,114,trismél,trismél,nak,é,Ez itt egy trismél.,Elneveztem a kutyámat...,trismélnek,trismélnak,dzsungel,NA,NA,PR2010,1999,nő,nem,2022-04-04_21h37.11.399,hesp_baseline,2021.2.3,Win32,59.85873339
,,,,,,,,,,,,,,,,,drivegzetek,drivegeztek,right,6.4174,0,14,14,112,1,113,drivegzik / drivegezik,"drivegzik, drivegezni",tek,NA,"János imád drivegezni, ezért sokat drivegzik.",Ti ritkán...,drivegzetek,drivegeztek,cselekszik,-zik,2,PR2010,1999,nő,nem,2022-04-04_21h37.11.399,hesp_baseline,2021.2.3,Win32,59.85873339
,,,,,,,,,,,,,,,,,trivakszunk,trivakodunk,right,6.2262,0,15,15,118,1,119,trivakszik / trivakodik,"trivakszik, trivakodni",ünk,NA,"János imád trivakodni, ezért sokat trivakszik.",Mi ritkán...,trivakszunk,trivakodunk,cselekszik,-szik,2,PR2010,1999,nő,nem,2022-04-04_21h37.11.399,hesp_baseline,2021.2.3,Win32,59.85873339
,,,,,,,,,,,,,,,,,brotesban,brotesben,left,7.2693,0,16,16,53,1,162,brotes,brotes,ban,e,Ez itt egy brotes.,Ott vagyunk a...,brotesben,brotesban,dzsungel,NA,NA,PR2010,1999,nő,nem,2022-04-04_21h37.11.399,hesp_baseline,2021.2.3,Win32,59.85873339
,,,,,,,,,,,,,,,,,fretszek,fretszem,left,3.0959,0,17,17,66,1,121,fretszik,fretszel,NA,NA,Te bizony sokat fretszel.,Én is sokat...,fretszek,fretszem,lakik,-szik,1,PR2010,1999,nő,nem,2022-04-04_21h37.11.399,hesp_baseline,2021.2.3,Win32,59.85873339
,,,,,,,,,,,,,,,,,pijélnél,pijélnál,left,2.7691,0,18,18,3,1,112,pijél,pijél,nál,é,Ez itt egy pijél.,Nincs is jobb egy jó...,pijélnél,pijélnál,dzsungel,NA,NA,PR2010,1999,nő,nem,2022-04-04_21h37.11.399,hesp_baseline,2021.2.3,Win32,59.85873339
,,,,,,,,,,,,,,,,,spröbzök,spröbzöm,left,4.0088,0,19,19,90,1,145,spröbzik,spröbzöl,NA,NA,Te bizony sokat spröbzöl.,Én is sokat...,spröbzök,spröbzöm,lakik,-zik,1,PR2010,1999,nő,nem,2022-04-04_21h37.11.399,hesp_baseline,2021.2.3,Win32,59.85873339
,,,,,,,,,,,,,,,,,diroztok,dirlotok,left,7.0752,0,20,20,148,1,149,dirlik / dirozik,"dirlik, dirozni",tek,NA,"János imád dirozni, ezért sokat dirlik.",Ti ritkán...,dirlotok,diroztok,cselekszik,-lik,1,PR2010,1999,nő,nem,2022-04-04_21h37.11.399,hesp_baseline,2021.2.3,Win32,59.85873339
,,,,,,,,,,,,,,,,,trilszom,trilszok,right,2.7949,0,21,21,103,1,158,trilszik,trilszol,NA,NA,Te bizony sokat trilszol.,Én is sokat...,trilszok,trilszom,lakik,-szik,1,PR2010,1999,nő,nem,2022-04-04_21h37.11.399,hesp_baseline,2021.2.3,Win32,59.85873339
,,,,,,,,,,,,,,,,,klétszem,klétszek,right,3.1721,0,22,22,60,1,115,klétszik,klétszel,NA,NA,Te bizony sokat klétszel.,Én is sokat...,klétszek,klétszem,lakik,-szik,1,PR2010,1999,nő,nem,2022-04-04_21h37.11.399,hesp_baseline,2021.2.3,Win32,59.85873339
,,,,,,,,,,,,,,,,,sűzlök,sűzlöm,left,3.2336,0,23,23,54,1,109,sűzlik,sűzlesz,NA,NA,Te bizony sokat sűzlesz.,Én is sokat...,sűzlök,sűzlöm,lakik,-lik,1,PR2010,1999,nő,nem,2022-04-04_21h37.11.399,hesp_baseline,2021.2.3,Win32,59.85873339
,,,,,,,,,,,,,,,,,brilegzünk,brilegezünk,right,7.6119,0,24,24,124,1,125,brilegzik / brilegezik,"brilegzik, brilegezni",ünk,NA,"János imád brilegezni, ezért sokat brilegzik.",Mi ritkán...,brilegzünk,brilegezünk,cselekszik,-zik,2,PR2010,1999,nő,nem,2022-04-04_21h37.11.399,hesp_baseline,2021.2.3,Win32,59.85873339
,,,,,,,,,,,,,,,,,dorzéjnak,dorzéjnek,left,3.5102,0,25,25,29,1,138,dorzéj,dorzéj,nak,é,Ez itt egy dorzéj.,Elneveztem a kutyámat...,dorzéjnek,dorzéjnak,dzsungel,NA,NA,PR2010,1999,nő,nem,2022-04-04_21h37.11.399,hesp_baseline,2021.2.3,Win32,59.85873339
,,,,,,,,,,,,,,,,,tűgöztök,tűgzötök,left,6.2934,0,26,26,143,1,144,tűgzik / tűgözik,"tűgzik, tűgözni",tek,NA,"János imád tűgözni, ezért sokat tűgzik.",Ti ritkán...,tűgzötök,tűgöztök,cselekszik,-zik,1,PR2010,1999,nő,nem,2022-04-04_21h37.11.399,hesp_baseline,2021.2.3,Win32,59.85873339
,,,,,,,,,,,,,,,,,sprökszök,sprökszöm,right,5.323,0,27,27,88,1,143,sprökszik,sprökszöl,NA,NA,Te bizony sokat sprökszöl.,Én is sokat...,sprökszök,sprökszöm,lakik,-szik,1,PR2010,1999,nő,nem,2022-04-04_21h37.11.399,hesp_baseline,2021.2.3,Win32,59.85873339
,,,,,,,,,,,,,,,,,sprozoznak,sprozlanak,right,10.6954,0,28,28,147,1,148,sprozlik / sprozozik,"sprozlik, sprozozni",nek,NA,"János imád sprozozni, ezért sokat sprozlik.",Ők ritkán...,sprozlanak,sprozoznak,cselekszik,-lik,1,PR2010,1999,nő,nem,2022-04-04_21h37.11.399,hesp_baseline,2021.2.3,Win32,59.85873339
,,,,,,,,,,,,,,,,,brivepszünk,brivepedünk,left,4.9414,0,29,29,113,1,114,brivepszik / brivepedik,"brivepszik, brivepedni",ünk,NA,"János imád brivepedni, ezért sokat brivepszik.",Mi ritkán...,brivepszünk,brivepedünk,cselekszik,-szik,2,PR2010,1999,nő,nem,2022-04-04_21h37.11.399,hesp_baseline,2021.2.3,Win32,59.85873339
,,,,,,,,,,,,,,,,,brukésznál,brukésznél,left,9.3612,0,30,30,10,1,119,brukész,brukész,nál,é,Ez itt egy brukész.,Nincs is jobb egy jó...,brukésznél,brukésznál,dzsungel,NA,NA,PR2010,1999,nő,nem,2022-04-04_21h37.11.399,hesp_baseline,2021.2.3,Win32,59.85873339
,,,,,,,,,,,,,,,,,ribegedtek,ribegszetek,left,16.3177,0,31,31,141,1,142,ribegszik / ribegedik,"ribegszik, ribegedni",tek,NA,"János imád ribegedni, ezért sokat ribegszik.",Ti ritkán...,ribegszetek,ribegedtek,cselekszik,-szik,2,PR2010,1999,nő,nem,2022-04-04_21h37.11.399,hesp_baseline,2021.2.3,Win32,59.85873339
,,,,,,,,,,,,,,,,,spibamlanak,spibamoznak,left,4.9263,0,32,32,142,1,143,spibamlik / spibamozik,"spibamlik, spibamozni",nek,NA,"János imád spibamozni, ezért sokat spibamlik.",Ők ritkán...,spibamlanak,spibamoznak,cselekszik,-lik,2,PR2010,1999,nő,nem,2022-04-04_21h37.11.399,hesp_baseline,2021.2.3,Win32,59.85873339
,,,,,,,,,,,,,,,,,brüröznek,brürzenek,right,8.5369,0,33,33,110,1,111,brürzik / brürözik,"brürzik, brürözni",nek,NA,"János imád brürözni, ezért sokat brürzik.",Ők ritkán...,brürzenek,brüröznek,cselekszik,-zik,1,PR2010,1999,nő,nem,2022-04-04_21h37.11.399,hesp_baseline,2021.2.3,Win32,59.85873339
,,,,,,,,,,,,,,,,,hűgzöm,hűgzök,right,2.9676,0,34,34,107,1,162,hűgzik,hűgzöl,NA,NA,Te bizony sokat hűgzöl.,Én is sokat...,hűgzök,hűgzöm,lakik,-zik,1,PR2010,1999,nő,nem,2022-04-04_21h37.11.399,hesp_baseline,2021.2.3,Win32,59.85873339
,,,,,,,,,,,,,,,,,brűklötök,brűköztök,right,4.5679,0,35,35,153,1,154,brűklik / brűközik,"brűklik, brűközni",tek,NA,"János imád brűközni, ezért sokat brűklik.",Ti ritkán...,brűklötök,brűköztök,cselekszik,-lik,1,PR2010,1999,nő,nem,2022-04-04_21h37.11.399,hesp_baseline,2021.2.3,Win32,59.85873339
,,,,,,,,,,,,,,,,,narjárzom,narjárzok,right,5.042,0,36,36,61,1,116,narjárzik,narjárzol,NA,NA,Te bizony sokat narjárzol.,Én is sokat...,narjárzok,narjárzom,lakik,-zik,2,PR2010,1999,nő,nem,2022-04-04_21h37.11.399,hesp_baseline,2021.2.3,Win32,59.85873339
,,,,,,,,,,,,,,,,,táklok,táklom,right,2.3189,0,37,37,79,1,134,táklik,táklasz,NA,NA,Te bizony sokat táklasz.,Én is sokat...,táklok,táklom,lakik,-lik,1,PR2010,1999,nő,nem,2022-04-04_21h37.11.399,hesp_baseline,2021.2.3,Win32,59.85873339
,,,,,,,,,,,,,,,,,trikoztok,triklotok,right,3.7742,0,38,38,160,1,161,triklik / trikozik,"triklik, trikozni",tek,NA,"János imád trikozni, ezért sokat triklik.",Ti ritkán...,triklotok,trikoztok,cselekszik,-lik,1,PR2010,1999,nő,nem,2022-04-04_21h37.11.399,hesp_baseline,2021.2.3,Win32,59.85873339
,,,,,,,,,,,,,,,,,fizendban,fizendben,right,2.568,0,39,39,49,1,158,fizend,fizend,ban,e,Ez itt egy fizend.,Ott vagyunk a...,fizendben,fizendban,dzsungel,NA,NA,PR2010,1999,nő,nem,2022-04-04_21h37.11.399,hesp_baseline,2021.2.3,Win32,59.85873339
,,,,,,,,,,,,,,,,,sztrijzok,sztrijzom,right,6.7259,0,40,40,68,1,123,sztrijzik,sztrijzol,NA,NA,Te bizony sokat sztrijzol.,Én is sokat...,sztrijzok,sztrijzom,lakik,-zik,1,PR2010,1999,nő,nem,2022-04-04_21h37.11.399,hesp_baseline,2021.2.3,Win32,59.85873339
,,,,,,,,,,,,,,,,,gerénylek,gerénylem,left,2.2671,0,41,41,99,1,154,gerénylik,gerénylesz,NA,NA,Te bizony sokat gerénylesz.,Én is sokat...,gerénylek,gerénylem,lakik,-lik,2,PR2010,1999,nő,nem,2022-04-04_21h37.11.399,hesp_baseline,2021.2.3,Win32,59.85873339
,,,,,,,,,,,,,,,,,gicéjnál,gicéjnél,right,2.8911,0,42,42,17,1,126,gicéj,gicéj,nál,é,Ez itt egy gicéj.,Nincs is jobb egy jó...,gicéjnél,gicéjnál,dzsungel,NA,NA,PR2010,1999,nő,nem,2022-04-04_21h37.11.399,hesp_baseline,2021.2.3,Win32,59.85873339
,,,,,,,,,,,,,,,,,trapszegynél,trapszegynál,left,2.3853,0,43,43,39,1,148,trapszegy,trapszegy,nál,e,Ez itt egy trapszegy.,Nincs is jobb egy jó...,trapszegynél,trapszegynál,dzsungel,NA,NA,PR2010,1999,nő,nem,2022-04-04_21h37.11.399,hesp_baseline,2021.2.3,Win32,59.85873339
,,,,,,,,,,,,,,,,,sztruglom,sztruglok,right,1.9036,0,44,44,67,1,122,sztruglik,sztruglasz,NA,NA,Te bizony sokat sztruglasz.,Én is sokat...,sztruglok,sztruglom,lakik,-lik,1,PR2010,1999,nő,nem,2022-04-04_21h37.11.399,hesp_baseline,2021.2.3,Win32,59.85873339
,,,,,,,,,,,,,,,,,vihepszem,vihepszek,left,2.7337,0,45,45,59,1,114,vihepszik,vihepszel,NA,NA,Te bizony sokat vihepszel.,Én is sokat...,vihepszek,vihepszem,lakik,-szik,2,PR2010,1999,nő,nem,2022-04-04_21h37.11.399,hesp_baseline,2021.2.3,Win32,59.85873339
,,,,,,,,,,,,,,,,,zábénynek,zábénynak,left,2.6064,0,46,46,43,1,152,zábény,zábény,nak,é,Ez itt egy zábény.,Elneveztem a kutyámat...,zábénynek,zábénynak,dzsungel,NA,NA,PR2010,1999,nő,nem,2022-04-04_21h37.11.399,hesp_baseline,2021.2.3,Win32,59.85873339
,,,,,,,,,,,,,,,,,trálaklanak,trálakoznak,right,5.4924,0,47,47,116,1,117,trálaklik / trálakozik,"trálaklik, trálakozni",nek,NA,"János imád trálakozni, ezért sokat trálaklik.",Ők ritkán...,trálaklanak,trálakoznak,cselekszik,-lik,2,PR2010,1999,nő,nem,2022-04-04_21h37.11.399,hesp_baseline,2021.2.3,Win32,59.85873339
,,,,,,,,,,,,,,,,,klosétnak,klosétnek,left,2.2844,0,48,48,45,1,154,klosét,klosét,nak,é,Ez itt egy klosét.,Elneveztem a kutyámat...,klosétnek,klosétnak,dzsungel,NA,NA,PR2010,1999,nő,nem,2022-04-04_21h37.11.399,hesp_baseline,2021.2.3,Win32,59.85873339
,,,,,,,,,,,,,,,,,frálapszotok,frálapodtok,right,3.5337,0,49,49,150,1,151,frálapszik / frálapodik,"frálapszik, frálapodni",tek,NA,"János imád frálapodni, ezért sokat frálapszik.",Ti ritkán...,frálapszotok,frálapodtok,cselekszik,-szik,2,PR2010,1999,nő,nem,2022-04-04_21h37.11.399,hesp_baseline,2021.2.3,Win32,59.85873339
,,,,,,,,,,,,,,,,,spülöklöm,spülöklök,right,6.8585,0,50,50,56,1,111,spülöklik,spülöklesz,NA,NA,Te bizony sokat spülöklesz.,Én is sokat...,spülöklök,spülöklöm,lakik,-lik,2,PR2010,1999,nő,nem,2022-04-04_21h37.11.399,hesp_baseline,2021.2.3,Win32,59.85873339
,,,,,,,,,,,,,,,,,klibamlok,klibamlom,left,2.668,0,51,51,92,1,147,klibamlik,klibamlasz,NA,NA,Te bizony sokat klibamlasz.,Én is sokat...,klibamlok,klibamlom,lakik,-lik,2,PR2010,1999,nő,nem,2022-04-04_21h37.11.399,hesp_baseline,2021.2.3,Win32,59.85873339
,,,,,,,,,,,,,,,,,bűtszök,bűtszöm,right,7.9823,0,52,52,82,1,137,bűtszik,bűtszöl,NA,NA,Te bizony sokat bűtszöl.,Én is sokat...,bűtszök,bűtszöm,lakik,-szik,1,PR2010,1999,nő,nem,2022-04-04_21h37.11.399,hesp_baseline,2021.2.3,Win32,59.85873339
,,,,,,,,,,,,,,,,,danétnél,danétnál,right,2.0549,0,53,53,38,1,147,danét,danét,nál,é,Ez itt egy danét.,Nincs is jobb egy jó...,danétnél,danétnál,dzsungel,NA,NA,PR2010,1999,nő,nem,2022-04-04_21h37.11.399,hesp_baseline,2021.2.3,Win32,59.85873339
,,,,,,,,,,,,,,,,,düjzöm,düjzök,right,2.3231,0,54,54,97,1,152,düjzik,düjzöl,NA,NA,Te bizony sokat düjzöl.,Én is sokat...,düjzök,düjzöm,lakik,-zik,1,PR2010,1999,nő,nem,2022-04-04_21h37.11.399,hesp_baseline,2021.2.3,Win32,59.85873339
,,,,,,,,,,,,,,,,,finceknél,finceknál,left,1.5346,0,55,55,9,1,118,fincek,fincek,nál,e,Ez itt egy fincek.,Nincs is jobb egy jó...,finceknél,finceknál,dzsungel,NA,NA,PR2010,1999,nő,nem,2022-04-04_21h37.11.399,hesp_baseline,2021.2.3,Win32,59.85873339
,,,,,,,,,,,,,,,,,frilegszek,frilegszem,right,13.599,0,56,56,72,1,127,frilegszik,frilegszel,NA,NA,Te bizony sokat frilegszel.,Én is sokat...,frilegszek,frilegszem,lakik,-szik,2,PR2010,1999,nő,nem,2022-04-04_21h37.11.399,hesp_baseline,2021.2.3,Win32,59.85873339
,,,,,,,,,,,,,,,,,zinednek,zinednak,left,1.6541,0,57,57,22,1,131,zined,zined,nak,e,Ez itt egy zined.,Elneveztem a kutyámat...,zinednek,zinednak,dzsungel,NA,NA,PR2010,1999,nő,nem,2022-04-04_21h37.11.399,hesp_baseline,2021.2.3,Win32,59.85873339
,,,,,,,,,,,,,,,,,gibemlünk,gibemezünk,left,3.9784,0,58,58,115,1,116,gibemlik / gibemezik,"gibemlik, gibemezni",ünk,NA,"János imád gibemezni, ezért sokat gibemlik.",Mi ritkán...,gibemlünk,gibemezünk,cselekszik,-lik,2,PR2010,1999,nő,nem,2022-04-04_21h37.11.399,hesp_baseline,2021.2.3,Win32,59.85873339
,,,,,,,,,,,,,,,,,licegyben,licegyban,left,2.651,0,59,59,15,1,124,licegy,licegy,ban,e,Ez itt egy licegy.,Ott vagyunk a...,licegyben,licegyban,dzsungel,NA,NA,PR2010,1999,nő,nem,2022-04-04_21h37.11.399,hesp_baseline,2021.2.3,Win32,59.85873339
,,,,,,,,,,,,,,,,,vubletnél,vubletnál,left,1.7004,0,60,60,26,1,135,vublet,vublet,nál,e,Ez itt egy vublet.,Nincs is jobb egy jó...,vubletnél,vubletnál,dzsungel,NA,NA,PR2010,1999,nő,nem,2022-04-04_21h37.11.399,hesp_baseline,2021.2.3,Win32,59.85873339
,,,,,,,,,,,,,,,,,spiráglotok,spirágoztok,left,8.1753,0,61,61,135,1,136,spiráglik / spirágozik,"spiráglik, spirágozni",tek,NA,"János imád spirágozni, ezért sokat spiráglik.",Ti ritkán...,spiráglotok,spirágoztok,cselekszik,-lik,2,PR2010,1999,nő,nem,2022-04-04_21h37.11.399,hesp_baseline,2021.2.3,Win32,59.85873339
,,,,,,,,,,,,,,,,,prezlem,prezlek,right,2.2075,0,62,62,87,1,142,prezlik,prezlesz,NA,NA,Te bizony sokat prezlesz.,Én is sokat...,prezlek,prezlem,lakik,-lik,1,PR2010,1999,nő,nem,2022-04-04_21h37.11.399,hesp_baseline,2021.2.3,Win32,59.85873339
,,,,,,,,,,,,,,,,,spanélnél,spanélnál,left,4.1023,0,63,63,24,1,133,spanél,spanél,nál,é,Ez itt egy spanél.,Nincs is jobb egy jó...,spanélnél,spanélnál,dzsungel,NA,NA,PR2010,1999,nő,nem,2022-04-04_21h37.11.399,hesp_baseline,2021.2.3,Win32,59.85873339
,,,,,,,,,,,,,,,,,csodegnál,csodegnél,right,1.6871,0,64,64,28,1,137,csodeg,csodeg,nál,e,Ez itt egy csodeg.,Nincs is jobb egy jó...,csodegnél,csodegnál,dzsungel,NA,NA,PR2010,1999,nő,nem,2022-04-04_21h37.11.399,hesp_baseline,2021.2.3,Win32,59.85873339
,,,,,,,,,,,,,,,,,böjzök,böjzöm,left,1.4756,0,65,65,80,1,135,böjzik,böjzöl,NA,NA,Te bizony sokat böjzöl.,Én is sokat...,böjzök,böjzöm,lakik,-zik,1,PR2010,1999,nő,nem,2022-04-04_21h37.11.399,hesp_baseline,2021.2.3,Win32,59.85873339
,,,,,,,,,,,,,,,,,gótemnek,gótemnak,right,2.4063,0,66,66,35,1,144,gótem,gótem,nak,e,Ez itt egy gótem.,Elneveztem a kutyámat...,gótemnek,gótemnak,dzsungel,NA,NA,PR2010,1999,nő,nem,2022-04-04_21h37.11.399,hesp_baseline,2021.2.3,Win32,59.85873339
,,,,,,,,,,,,,,,,,szutendben,szutendban,left,3.0615,0,67,67,11,1,120,szutend,szutend,ban,e,Ez itt egy szutend.,Ott vagyunk a...,szutendben,szutendban,dzsungel,NA,NA,PR2010,1999,nő,nem,2022-04-04_21h37.11.399,hesp_baseline,2021.2.3,Win32,59.85873339
,,,,,,,,,,,,,,,,,nyáslom,nyáslok,right,1.734,0,68,68,100,1,155,nyáslik,nyáslasz,NA,NA,Te bizony sokat nyáslasz.,Én is sokat...,nyáslok,nyáslom,lakik,-lik,1,PR2010,1999,nő,nem,2022-04-04_21h37.11.399,hesp_baseline,2021.2.3,Win32,59.85873339
,,,,,,,,,,,,,,,,,spuménynek,spuménynak,left,2.0257,0,69,69,19,1,128,spumény,spumény,nak,é,Ez itt egy spumény.,Elneveztem a kutyámat...,spuménynek,spuménynak,dzsungel,NA,NA,PR2010,1999,nő,nem,2022-04-04_21h37.11.399,hesp_baseline,2021.2.3,Win32,59.85873339
,,,,,,,,,,,,,,,,,tibarzanak,tibaroznak,right,4.9874,0,70,70,155,1,156,tibarzik / tibarozik,"tibarzik, tibarozni",nek,NA,"János imád tibarozni, ezért sokat tibarzik.",Ők ritkán...,tibarzanak,tibaroznak,cselekszik,-zik,2,PR2010,1999,nő,nem,2022-04-04_21h37.11.399,hesp_baseline,2021.2.3,Win32,59.85873339
,,,,,,,,,,,,,,,,,vehékszünk,vehékedünk,right,3.3356,0,71,71,117,1,118,vehékszik / vehékedik,"vehékszik, vehékedni",ünk,NA,"János imád vehékedni, ezért sokat vehékszik.",Mi ritkán...,vehékszünk,vehékedünk,cselekszik,-szik,2,PR2010,1999,nő,nem,2022-04-04_21h37.11.399,hesp_baseline,2021.2.3,Win32,59.85873339
,,,,,,,,,,,,,,,,,spüszlöm,spüszlök,right,3.0719,0,72,72,96,1,151,spüszlik,spüszlesz,NA,NA,Te bizony sokat spüszlesz.,Én is sokat...,spüszlök,spüszlöm,lakik,-lik,1,PR2010,1999,nő,nem,2022-04-04_21h37.11.399,hesp_baseline,2021.2.3,Win32,59.85873339
,,,,,,,,,,,,,,,,,mékszem,mékszek,left,2.8671,0,73,73,71,1,126,mékszik,mékszel,NA,NA,Te bizony sokat mékszel.,Én is sokat...,mékszek,mékszem,lakik,-szik,1,PR2010,1999,nő,nem,2022-04-04_21h37.11.399,hesp_baseline,2021.2.3,Win32,59.85873339
,,,,,,,,,,,,,,,,,plágadzom,plágadzok,right,4.1736,0,74,74,74,1,129,plágadzik,plágadzol,NA,NA,Te bizony sokat plágadzol.,Én is sokat...,plágadzok,plágadzom,lakik,-zik,2,PR2010,1999,nő,nem,2022-04-04_21h37.11.399,hesp_baseline,2021.2.3,Win32,59.85873339
,,,,,,,,,,,,,,,,,pazévnál,pazévnél,right,3.3003,0,75,75,36,1,145,pazév,pazév,nál,é,Ez itt egy pazév.,Nincs is jobb egy jó...,pazévnél,pazévnál,dzsungel,NA,NA,PR2010,1999,nő,nem,2022-04-04_21h37.11.399,hesp_baseline,2021.2.3,Win32,59.85873339
,,,,,,,,,,,,,,,,,klivaslok,klivaslom,left,3.9936,0,76,76,62,1,117,klivaslik,klivaslasz,NA,NA,Te bizony sokat klivaslasz.,Én is sokat...,klivaslok,klivaslom,lakik,-lik,2,PR2010,1999,nő,nem,2022-04-04_21h37.11.399,hesp_baseline,2021.2.3,Win32,59.85873339
,,,,,,,,,,,,,,,,,bratároznak,bratárzanak,left,5.2218,0,77,77,108,1,109,bratárzik / bratározik,"bratárzik, bratározni",nek,NA,"János imád bratározni, ezért sokat bratárzik.",Ők ritkán...,bratárzanak,bratároznak,cselekszik,-zik,2,PR2010,1999,nő,nem,2022-04-04_21h37.11.399,hesp_baseline,2021.2.3,Win32,59.85873339
,,,,,,,,,,,,,,,,,triképban,triképben,right,2.5712,0,78,78,33,1,142,trikép,trikép,ban,é,Ez itt egy trikép.,Ott vagyunk a...,triképben,triképban,dzsungel,NA,NA,PR2010,1999,nő,nem,2022-04-04_21h37.11.399,hesp_baseline,2021.2.3,Win32,59.85873339
,,,,,,,,,,,,,,,,,kátelnak,kátelnek,right,1.9681,0,79,79,12,1,121,kátel,kátel,nak,e,Ez itt egy kátel.,Elneveztem a kutyámat...,kátelnek,kátelnak,dzsungel,NA,NA,PR2010,1999,nő,nem,2022-04-04_21h37.11.399,hesp_baseline,2021.2.3,Win32,59.85873339
,,,,,,,,,,,,,,,,,fliraklom,fliraklok,right,2.843,0,80,80,98,1,153,fliraklik,fliraklasz,NA,NA,Te bizony sokat fliraklasz.,Én is sokat...,fliraklok,fliraklom,lakik,-lik,2,PR2010,1999,nő,nem,2022-04-04_21h37.11.399,hesp_baseline,2021.2.3,Win32,59.85873339
,,,,,,,,,,,,,,,,,zödlöm,zödlök,right,1.7342,0,81,81,106,1,161,zödlik,zödlesz,NA,NA,Te bizony sokat zödlesz.,Én is sokat...,zödlök,zödlöm,lakik,-lik,1,PR2010,1999,nő,nem,2022-04-04_21h37.11.399,hesp_baseline,2021.2.3,Win32,59.85873339
,,,,,,,,,,,,,,,,,ibékszem,ibékszek,left,1.9176,0,82,82,95,1,150,ibékszik,ibékszel,NA,NA,Te bizony sokat ibékszel.,Én is sokat...,ibékszek,ibékszem,lakik,-szik,2,PR2010,1999,nő,nem,2022-04-04_21h37.11.399,hesp_baseline,2021.2.3,Win32,59.85873339
,,,,,,,,,,,,,,,,,voboztok,vobzotok,left,3.058,0,83,83,158,1,159,vobzik / vobozik,"vobzik, vobozni",tek,NA,"János imád vobozni, ezért sokat vobzik.",Ti ritkán...,vobzotok,voboztok,cselekszik,-zik,1,PR2010,1999,nő,nem,2022-04-04_21h37.11.399,hesp_baseline,2021.2.3,Win32,59.85873339
,,,,,,,,,,,,,,,,,brivágoznak,briváglanak,left,3.3837,0,84,84,138,1,139,briváglik / brivágozik,"briváglik, brivágozni",nek,NA,"János imád brivágozni, ezért sokat briváglik.",Ők ritkán...,briváglanak,brivágoznak,cselekszik,-lik,2,PR2010,1999,nő,nem,2022-04-04_21h37.11.399,hesp_baseline,2021.2.3,Win32,59.85873339
,,,,,,,,,,,,,,,,,pribagszok,pribagszom,right,5.3499,0,85,85,76,1,131,pribagszik,pribagszol,NA,NA,Te bizony sokat pribagszol.,Én is sokat...,pribagszok,pribagszom,lakik,-szik,2,PR2010,1999,nő,nem,2022-04-04_21h37.11.399,hesp_baseline,2021.2.3,Win32,59.85873339
,,,,,,,,,,,,,,,,,vilesezünk,vileslünk,left,3.9681,0,86,86,139,1,140,vileslik / vilesezik,"vileslik, vilesezni",ünk,NA,"János imád vilesezni, ezért sokat vileslik.",Mi ritkán...,vileslünk,vilesezünk,cselekszik,-lik,2,PR2010,1999,nő,nem,2022-04-04_21h37.11.399,hesp_baseline,2021.2.3,Win32,59.85873339
,,,,,,,,,,,,,,,,,nyarcéjnek,nyarcéjnak,left,2.411,0,87,87,37,1,146,nyarcéj,nyarcéj,nak,é,Ez itt egy nyarcéj.,Elneveztem a kutyámat...,nyarcéjnek,nyarcéjnak,dzsungel,NA,NA,PR2010,1999,nő,nem,2022-04-04_21h37.11.399,hesp_baseline,2021.2.3,Win32,59.85873339
,,,,,,,,,,,,,,,,,virzanak,viroznak,right,4.1825,0,88,88,125,1,126,virzik / virozik,"virzik, virozni",nek,NA,"János imád virozni, ezért sokat virzik.",Ők ritkán...,virzanak,viroznak,cselekszik,-zik,1,PR2010,1999,nő,nem,2022-04-04_21h37.11.399,hesp_baseline,2021.2.3,Win32,59.85873339
,,,,,,,,,,,,,,,,,hágyétnak,hágyétnek,right,2.1343,0,89,89,42,1,151,hágyét,hágyét,nak,é,Ez itt egy hágyét.,Elneveztem a kutyámat...,hágyétnek,hágyétnak,dzsungel,NA,NA,PR2010,1999,nő,nem,2022-04-04_21h37.11.399,hesp_baseline,2021.2.3,Win32,59.85873339
,,,,,,,,,,,,,,,,,mülőrzünk,mülőrözünk,right,3.724,0,90,90,120,1,121,mülőrzik / mülőrözik,"mülőrzik, mülőrözni",ünk,NA,"János imád mülőrözni, ezért sokat mülőrzik.",Mi ritkán...,mülőrzünk,mülőrözünk,cselekszik,-zik,2,PR2010,1999,nő,nem,2022-04-04_21h37.11.399,hesp_baseline,2021.2.3,Win32,59.85873339
,,,,,,,,,,,,,,,,,sztredletek,sztredeztek,right,5.0548,0,91,91,145,1,146,sztredlik / sztredezik,"sztredlik, sztredezni",tek,NA,"János imád sztredezni, ezért sokat sztredlik.",Ti ritkán...,sztredletek,sztredeztek,cselekszik,-lik,1,PR2010,1999,nő,nem,2022-04-04_21h37.11.399,hesp_baseline,2021.2.3,Win32,59.85873339
,,,,,,,,,,,,,,,,,frivajlok,frivajlom,left,2.3213,0,92,92,78,1,133,frivajlik,frivajlasz,NA,NA,Te bizony sokat frivajlasz.,Én is sokat...,frivajlok,frivajlom,lakik,-lik,2,PR2010,1999,nő,nem,2022-04-04_21h37.11.399,hesp_baseline,2021.2.3,Win32,59.85873339
,,,,,,,,,,,,,,,,,nivároztok,nivárzotok,left,3.9333,0,93,93,146,1,147,nivárzik / nivározik,"nivárzik, nivározni",tek,NA,"János imád nivározni, ezért sokat nivárzik.",Ti ritkán...,nivárzotok,nivároztok,cselekszik,-zik,2,PR2010,1999,nő,nem,2022-04-04_21h37.11.399,hesp_baseline,2021.2.3,Win32,59.85873339
,,,,,,,,,,,,,,,,,kláragszotok,kláragodtok,right,5.9494,0,94,94,123,1,124,kláragszik / kláragodik,"kláragszik, kláragodni",tek,NA,"János imád kláragodni, ezért sokat kláragszik.",Ti ritkán...,kláragszotok,kláragodtok,cselekszik,-szik,2,PR2010,1999,nő,nem,2022-04-04_21h37.11.399,hesp_baseline,2021.2.3,Win32,59.85873339
,,,,,,,,,,,,,,,,,flugonylanak,flugonyoznak,right,3.7832,0,95,95,111,1,112,flugonylik / flugonyozik,"flugonylik, flugonyozni",nek,NA,"János imád flugonyozni, ezért sokat flugonylik.",Ők ritkán...,flugonylanak,flugonyoznak,cselekszik,-lik,2,PR2010,1999,nő,nem,2022-04-04_21h37.11.399,hesp_baseline,2021.2.3,Win32,59.85873339
,,,,,,,,,,,,,,,,,vurnelnak,vurnelnek,right,2.3013,0,96,96,50,1,159,vurnel,vurnel,nak,e,Ez itt egy vurnel.,Elneveztem a kutyámat...,vurnelnek,vurnelnak,dzsungel,NA,NA,PR2010,1999,nő,nem,2022-04-04_21h37.11.399,hesp_baseline,2021.2.3,Win32,59.85873339
,,,,,,,,,,,,,,,,,flöklötök,flököztök,right,4.9027,0,97,97,121,1,122,flöklik / flöközik,"flöklik, flöközni",tek,NA,"János imád flöközni, ezért sokat flöklik.",Ti ritkán...,flöklötök,flököztök,cselekszik,-lik,1,PR2010,1999,nő,nem,2022-04-04_21h37.11.399,hesp_baseline,2021.2.3,Win32,59.85873339
,,,,,,,,,,,,,,,,,sűjözünk,sűjlünk,right,4.2583,0,98,98,128,1,129,sűjlik / sűjözik,"sűjlik, sűjözni",ünk,NA,"János imád sűjözni, ezért sokat sűjlik.",Mi ritkán...,sűjlünk,sűjözünk,cselekszik,-lik,1,PR2010,1999,nő,nem,2022-04-04_21h37.11.399,hesp_baseline,2021.2.3,Win32,59.85873339
,,,,,,,,,,,,,,,,,ronszekben,ronszekban,left,2.9664,0,99,99,18,1,127,ronszek,ronszek,ban,e,Ez itt egy ronszek.,Ott vagyunk a...,ronszekben,ronszekban,dzsungel,NA,NA,PR2010,1999,nő,nem,2022-04-04_21h37.11.399,hesp_baseline,2021.2.3,Win32,59.85873339
,,,,,,,,,,,,,,,,,lumoztok,lumlotok,left,3.5004,0,100,100,149,1,150,lumlik / lumozik,"lumlik, lumozni",tek,NA,"János imád lumozni, ezért sokat lumlik.",Ti ritkán...,lumlotok,lumoztok,cselekszik,-lik,1,PR2010,1999,nő,nem,2022-04-04_21h37.11.399,hesp_baseline,2021.2.3,Win32,59.85873339
,,,,,,,,,,,,,,,,,sprivencnél,sprivencnál,left,3.0501,0,101,101,13,1,122,sprivenc,sprivenc,nál,e,Ez itt egy sprivenc.,Nincs is jobb egy jó...,sprivencnél,sprivencnál,dzsungel,NA,NA,PR2010,1999,nő,nem,2022-04-04_21h37.11.399,hesp_baseline,2021.2.3,Win32,59.85873339
,,,,,,,,,,,,,,,,,lűköznek,lűklenek,left,2.8672,0,102,102,136,1,137,lűklik / lűközik,"lűklik, lűközni",nek,NA,"János imád lűközni, ezért sokat lűklik.",Ők ritkán...,lűklenek,lűköznek,cselekszik,-lik,1,PR2010,1999,nő,nem,2022-04-04_21h37.11.399,hesp_baseline,2021.2.3,Win32,59.85873339
,,,,,,,,,,,,,,,,,nyítemban,nyítemben,right,1.8565,0,103,103,41,1,150,nyítem,nyítem,ban,e,Ez itt egy nyítem.,Ott vagyunk a...,nyítemben,nyítemban,dzsungel,NA,NA,PR2010,1999,nő,nem,2022-04-04_21h37.11.399,hesp_baseline,2021.2.3,Win32,59.85873339
,,,,,,,,,,,,,,,,,brindeznak,brindeznek,right,2.0339,0,104,104,6,1,115,brindez,brindez,nak,e,Ez itt egy brindez.,Elneveztem a kutyámat...,brindeznek,brindeznak,dzsungel,NA,NA,PR2010,1999,nő,nem,2022-04-04_21h37.11.399,hesp_baseline,2021.2.3,Win32,59.85873339
,,,,,,,,,,,,,,,,,mágamozunk,mágamlunk,right,3.5496,0,105,105,140,1,141,mágamlik / mágamozik,"mágamlik, mágamozni",ünk,NA,"János imád mágamozni, ezért sokat mágamlik.",Mi ritkán...,mágamlunk,mágamozunk,cselekszik,-lik,2,PR2010,1999,nő,nem,2022-04-04_21h37.11.399,hesp_baseline,2021.2.3,Win32,59.85873339
,,,,,,,,,,,,,,,,,treglem,treglek,right,1.7763,0,106,106,81,1,136,treglik,treglesz,NA,NA,Te bizony sokat treglesz.,Én is sokat...,treglek,treglem,lakik,-lik,1,PR2010,1999,nő,nem,2022-04-04_21h37.11.399,hesp_baseline,2021.2.3,Win32,59.85873339
,,,,,,,,,,,,,,,,,pehégszetek,pehégedtek,right,4.3338,0,107,107,151,1,152,pehégszik / pehégedik,"pehégszik, pehégedni",tek,NA,"János imád pehégedni, ezért sokat pehégszik.",Ti ritkán...,pehégszetek,pehégedtek,cselekszik,-szik,2,PR2010,1999,nő,nem,2022-04-04_21h37.11.399,hesp_baseline,2021.2.3,Win32,59.85873339
,,,,,,,,,,,,,,,,,trehégszek,trehégszem,right,3.7183,0,108,108,86,1,141,trehégszik,trehégszel,NA,NA,Te bizony sokat trehégszel.,Én is sokat...,trehégszek,trehégszem,lakik,-szik,2,PR2010,1999,nő,nem,2022-04-04_21h37.11.399,hesp_baseline,2021.2.3,Win32,59.85873339
,,,,,,,,,,,,,,,,,flátlotok,flátoztok,right,3.8675,0,109,109,132,1,133,flátlik / flátozik,"flátlik, flátozni",tek,NA,"János imád flátozni, ezért sokat flátlik.",Ti ritkán...,flátlotok,flátoztok,cselekszik,-lik,1,PR2010,1999,nő,nem,2022-04-04_21h37.11.399,hesp_baseline,2021.2.3,Win32,59.85873339
,,,,,,,,,,,,,,,,,brüjlöm,brüjlök,right,2.0354,0,110,110,55,1,110,brüjlik,brüjlesz,NA,NA,Te bizony sokat brüjlesz.,Én is sokat...,brüjlök,brüjlöm,lakik,-lik,1,PR2010,1999,nő,nem,2022-04-04_21h37.11.399,hesp_baseline,2021.2.3,Win32,59.85873339
,,,,,,,,,,,,,,,,,surnegynél,surnegynál,left,1.6045,0,111,111,8,1,117,surnegy,surnegy,nál,e,Ez itt egy surnegy.,Nincs is jobb egy jó...,surnegynél,surnegynál,dzsungel,NA,NA,PR2010,1999,nő,nem,2022-04-04_21h37.11.399,hesp_baseline,2021.2.3,Win32,59.85873339
,,,,,,,,,,,,,,,,,spuboroznak,spuborzanak,left,5.2086,0,112,112,161,1,162,spuborzik / spuborozik,"spuborzik, spuborozni",nek,NA,"János imád spuborozni, ezért sokat spuborzik.",Ők ritkán...,spuborzanak,spuboroznak,cselekszik,-zik,2,PR2010,1999,nő,nem,2022-04-04_21h37.11.399,hesp_baseline,2021.2.3,Win32,59.85873339
,,,,,,,,,,,,,,,,,pragányoztok,pragánylotok,left,4.0347,0,113,113,133,1,134,pragánylik / pragányozik,"pragánylik, pragányozni",tek,NA,"János imád pragányozni, ezért sokat pragánylik.",Ti ritkán...,pragánylotok,pragányoztok,cselekszik,-lik,2,PR2010,1999,nő,nem,2022-04-04_21h37.11.399,hesp_baseline,2021.2.3,Win32,59.85873339
,,,,,,,,,,,,,,,,,rájzom,rájzok,right,1.9687,0,114,114,70,1,125,rájzik,rájzol,NA,NA,Te bizony sokat rájzol.,Én is sokat...,rájzok,rájzom,lakik,-zik,1,PR2010,1999,nő,nem,2022-04-04_21h37.11.399,hesp_baseline,2021.2.3,Win32,59.85873339
,,,,,,,,,,,,,,,,,huméknek,huméknak,left,1.4723,0,115,115,23,1,132,humék,humék,nak,é,Ez itt egy humék.,Elneveztem a kutyámat...,huméknek,huméknak,dzsungel,NA,NA,PR2010,1999,nő,nem,2022-04-04_21h37.11.399,hesp_baseline,2021.2.3,Win32,59.85873339
,,,,,,,,,,,,,,,,,döjlenek,döjöznek,left,3.4402,0,116,116,129,1,130,döjlik / döjözik,"döjlik, döjözni",nek,NA,"János imád döjözni, ezért sokat döjlik.",Ők ritkán...,döjlenek,döjöznek,cselekszik,-lik,1,PR2010,1999,nő,nem,2022-04-04_21h37.11.399,hesp_baseline,2021.2.3,Win32,59.85873339
,,,,,,,,,,,,,,,,,zsáderben,zsáderban,left,2.1343,0,117,117,25,1,134,zsáder,zsáder,ban,e,Ez itt egy zsáder.,Ott vagyunk a...,zsáderben,zsáderban,dzsungel,NA,NA,PR2010,1999,nő,nem,2022-04-04_21h37.11.399,hesp_baseline,2021.2.3,Win32,59.85873339
,,,,,,,,,,,,,,,,,sztrozlom,sztrozlok,right,2.1883,0,118,118,104,1,159,sztrozlik,sztrozlasz,NA,NA,Te bizony sokat sztrozlasz.,Én is sokat...,sztrozlok,sztrozlom,lakik,-lik,1,PR2010,1999,nő,nem,2022-04-04_21h37.11.399,hesp_baseline,2021.2.3,Win32,59.85873339
,,,,,,,,,,,,,,,,,spatelnek,spatelnak,left,1.2088,0,119,119,21,1,130,spatel,spatel,nak,e,Ez itt egy spatel.,Elneveztem a kutyámat...,spatelnek,spatelnak,dzsungel,NA,NA,PR2010,1999,nő,nem,2022-04-04_21h37.11.399,hesp_baseline,2021.2.3,Win32,59.85873339
,,,,,,,,,,,,,,,,,spülőrzöm,spülőrzök,right,2.7342,0,120,120,69,1,124,spülőrzik,spülőrzöl,NA,NA,Te bizony sokat spülőrzöl.,Én is sokat...,spülőrzök,spülőrzöm,lakik,-zik,2,PR2010,1999,nő,nem,2022-04-04_21h37.11.399,hesp_baseline,2021.2.3,Win32,59.85873339
,,,,,,,,,,,,,,,,,büglöm,büglök,right,1.5354,0,121,121,101,1,156,büglik,büglesz,NA,NA,Te bizony sokat büglesz.,Én is sokat...,büglök,büglöm,lakik,-lik,1,PR2010,1999,nő,nem,2022-04-04_21h37.11.399,hesp_baseline,2021.2.3,Win32,59.85873339
,,,,,,,,,,,,,,,,,tínylok,tínylom,left,2.435,0,122,122,58,1,113,tínylik,tínylasz,NA,NA,Te bizony sokat tínylasz.,Én is sokat...,tínylok,tínylom,lakik,-lik,1,PR2010,1999,nő,nem,2022-04-04_21h37.11.399,hesp_baseline,2021.2.3,Win32,59.85873339
,,,,,,,,,,,,,,,,,bihánylok,bihánylom,left,1.7509,0,123,123,89,1,144,bihánylik,bihánylasz,NA,NA,Te bizony sokat bihánylasz.,Én is sokat...,bihánylok,bihánylom,lakik,-lik,2,PR2010,1999,nő,nem,2022-04-04_21h37.11.399,hesp_baseline,2021.2.3,Win32,59.85873339
,,,,,,,,,,,,,,,,,trálszunk,trálodunk,left,3.8872,0,124,124,130,1,131,trálszik / trálodik,"trálszik, trálodni",ünk,NA,"János imád trálodni, ezért sokat trálszik.",Mi ritkán...,trálszunk,trálodunk,cselekszik,-szik,1,PR2010,1999,nő,nem,2022-04-04_21h37.11.399,hesp_baseline,2021.2.3,Win32,59.85873339
,,,,,,,,,,,,,,,,,murdesnél,murdesnál,left,1.752,0,125,125,47,1,156,murdes,murdes,nál,e,Ez itt egy murdes.,Nincs is jobb egy jó...,murdesnél,murdesnál,dzsungel,NA,NA,PR2010,1999,nő,nem,2022-04-04_21h37.11.399,hesp_baseline,2021.2.3,Win32,59.85873339
,,,,,,,,,,,,,,,,,drubódzom,drubódzok,right,2.4508,0,126,126,63,1,118,drubódzik,drubódzol,NA,NA,Te bizony sokat drubódzol.,Én is sokat...,drubódzok,drubódzom,lakik,-zik,2,PR2010,1999,nő,nem,2022-04-04_21h37.11.399,hesp_baseline,2021.2.3,Win32,59.85873339
,,,,,,,,,,,,,,,,,nyupérnál,nyupérnél,right,1.5849,0,127,127,52,1,161,nyupér,nyupér,nál,é,Ez itt egy nyupér.,Nincs is jobb egy jó...,nyupérnél,nyupérnál,dzsungel,NA,NA,PR2010,1999,nő,nem,2022-04-04_21h37.11.399,hesp_baseline,2021.2.3,Win32,59.85873339
,,,,,,,,,,,,,,,,,spírzom,spírzok,right,2.5168,0,128,128,64,1,119,spírzik,spírzol,NA,NA,Te bizony sokat spírzol.,Én is sokat...,spírzok,spírzom,lakik,-zik,1,PR2010,1999,nő,nem,2022-04-04_21h37.11.399,hesp_baseline,2021.2.3,Win32,59.85873339
,,,,,,,,,,,,,,,,,lájzotok,lájoztok,right,3.8672,0,129,129,159,1,160,lájzik / lájozik,"lájzik, lájozni",tek,NA,"János imád lájozni, ezért sokat lájzik.",Ti ritkán...,lájzotok,lájoztok,cselekszik,-zik,1,PR2010,1999,nő,nem,2022-04-04_21h37.11.399,hesp_baseline,2021.2.3,Win32,59.85873339
,,,,,,,,,,,,,,,,,dalencnál,dalencnél,right,2.1038,0,130,130,31,1,140,dalenc,dalenc,nál,e,Ez itt egy dalenc.,Nincs is jobb egy jó...,dalencnél,dalencnál,dzsungel,NA,NA,PR2010,1999,nő,nem,2022-04-04_21h37.11.399,hesp_baseline,2021.2.3,Win32,59.85873339
,,,,,,,,,,,,,,,,,briskédnál,briskédnél,right,1.7388,0,131,131,51,1,160,briskéd,briskéd,nál,é,Ez itt egy briskéd.,Nincs is jobb egy jó...,briskédnél,briskédnál,dzsungel,NA,NA,PR2010,1999,nő,nem,2022-04-04_21h37.11.399,hesp_baseline,2021.2.3,Win32,59.85873339
,,,,,,,,,,,,,,,,,trádlom,trádlok,right,1.5238,0,132,132,105,1,160,trádlik,trádlasz,NA,NA,Te bizony sokat trádlasz.,Én is sokat...,trádlok,trádlom,lakik,-lik,1,PR2010,1999,nő,nem,2022-04-04_21h37.11.399,hesp_baseline,2021.2.3,Win32,59.85873339
,,,,,,,,,,,,,,,,,trűnylenek,trűnyöznek,right,2.8175,0,133,133,119,1,120,trűnylik / trűnyözik,"trűnylik, trűnyözni",nek,NA,"János imád trűnyözni, ezért sokat trűnylik.",Ők ritkán...,trűnylenek,trűnyöznek,cselekszik,-lik,1,PR2010,1999,nő,nem,2022-04-04_21h37.11.399,hesp_baseline,2021.2.3,Win32,59.85873339
,,,,,,,,,,,,,,,,,bidemban,bidemben,right,1.5863,0,134,134,2,1,111,bidem,bidem,ban,e,Ez itt egy bidem.,Ott vagyunk a...,bidemben,bidemban,dzsungel,NA,NA,PR2010,1999,nő,nem,2022-04-04_21h37.11.399,hesp_baseline,2021.2.3,Win32,59.85873339
,,,,,,,,,,,,,,,,,tuboklom,tuboklok,right,1.9677,0,135,135,84,1,139,tuboklik,tuboklasz,NA,NA,Te bizony sokat tuboklasz.,Én is sokat...,tuboklok,tuboklom,lakik,-lik,2,PR2010,1999,nő,nem,2022-04-04_21h37.11.399,hesp_baseline,2021.2.3,Win32,59.85873339
,,,,,,,,,,,,,,,,,trájegben,trájegban,left,1.9053,0,136,136,14,1,123,trájeg,trájeg,ban,e,Ez itt egy trájeg.,Ott vagyunk a...,trájegben,trájegban,dzsungel,NA,NA,PR2010,1999,nő,nem,2022-04-04_21h37.11.399,hesp_baseline,2021.2.3,Win32,59.85873339
,,,,,,,,,,,,,,,,,vűjlöm,vűjlök,right,1.4346,0,137,137,94,1,149,vűjlik,vűjlesz,NA,NA,Te bizony sokat vűjlesz.,Én is sokat...,vűjlök,vűjlöm,lakik,-lik,1,PR2010,1999,nő,nem,2022-04-04_21h37.11.399,hesp_baseline,2021.2.3,Win32,59.85873339
,,,,,,,,,,,,,,,,,klarágoztok,klarágzotok,left,6.3007,0,138,138,114,1,115,klarágzik / klarágozik,"klarágzik, klarágozni",tek,NA,"János imád klarágozni, ezért sokat klarágzik.",Ti ritkán...,klarágzotok,klarágoztok,cselekszik,-zik,2,PR2010,1999,nő,nem,2022-04-04_21h37.11.399,hesp_baseline,2021.2.3,Win32,59.85873339
,,,,,,,,,,,,,,,,,bródesznak,bródesznek,right,1.6005,0,139,139,32,1,141,bródesz,bródesz,nak,e,Ez itt egy bródesz.,Elneveztem a kutyámat...,bródesznek,bródesznak,dzsungel,NA,NA,PR2010,1999,nő,nem,2022-04-04_21h37.11.399,hesp_baseline,2021.2.3,Win32,59.85873339
,,,,,,,,,,,,,,,,,pristélban,pristélben,right,1.7345,0,140,140,1,1,110,pristél,pristél,ban,é,Ez itt egy pristél.,Ott vagyunk a...,pristélben,pristélban,dzsungel,NA,NA,PR2010,1999,nő,nem,2022-04-04_21h37.11.399,hesp_baseline,2021.2.3,Win32,59.85873339
,,,,,,,,,,,,,,,,,braszencnál,braszencnél,right,1.835,0,141,141,7,1,116,braszenc,braszenc,nál,e,Ez itt egy braszenc.,Nincs is jobb egy jó...,braszencnél,braszencnál,dzsungel,NA,NA,PR2010,1999,nő,nem,2022-04-04_21h37.11.399,hesp_baseline,2021.2.3,Win32,59.85873339
,,,,,,,,,,,,,,,,,lismévban,lismévben,right,3.2191,0,142,142,0,1,109,lismév,lismév,ban,é,Ez itt egy lismév.,Ott vagyunk a...,lismévben,lismévban,dzsungel,NA,NA,PR2010,1999,nő,nem,2022-04-04_21h37.11.399,hesp_baseline,2021.2.3,Win32,59.85873339
,,,,,,,,,,,,,,,,,spalárzanak,spalároznak,right,2.8113,0,143,143,137,1,138,spalárzik / spalározik,"spalárzik, spalározni",nek,NA,"János imád spalározni, ezért sokat spalárzik.",Ők ritkán...,spalárzanak,spalároznak,cselekszik,-zik,2,PR2010,1999,nő,nem,2022-04-04_21h37.11.399,hesp_baseline,2021.2.3,Win32,59.85873339
,,,,,,,,,,,,,,,,,nágapodnak,nágapszanak,left,3.3669,0,144,144,152,1,153,nágapszik / nágapodik,"nágapszik, nágapodni",nek,NA,"János imád nágapodni, ezért sokat nágapszik.",Ők ritkán...,nágapszanak,nágapodnak,cselekszik,-szik,2,PR2010,1999,nő,nem,2022-04-04_21h37.11.399,hesp_baseline,2021.2.3,Win32,59.85873339
,,,,,,,,,,,,,,,,,zatéjnál,zatéjnél,right,1.3848,0,145,145,34,1,143,zatéj,zatéj,nál,é,Ez itt egy zatéj.,Nincs is jobb egy jó...,zatéjnél,zatéjnál,dzsungel,NA,NA,PR2010,1999,nő,nem,2022-04-04_21h37.11.399,hesp_baseline,2021.2.3,Win32,59.85873339
,,,,,,,,,,,,,,,,,gyibakszom,gyibakszok,right,1.8896,0,146,146,57,1,112,gyibakszik,gyibakszol,NA,NA,Te bizony sokat gyibakszol.,Én is sokat...,gyibakszok,gyibakszom,lakik,-szik,2,PR2010,1999,nő,nem,2022-04-04_21h37.11.399,hesp_baseline,2021.2.3,Win32,59.85873339
,,,,,,,,,,,,,,,,,kléglünk,klégezünk,left,2.8266,0,147,147,122,1,123,kléglik / klégezik,"kléglik, klégezni",ünk,NA,"János imád klégezni, ezért sokat kléglik.",Mi ritkán...,kléglünk,klégezünk,cselekszik,-lik,1,PR2010,1999,nő,nem,2022-04-04_21h37.11.399,hesp_baseline,2021.2.3,Win32,59.85873339
,,,,,,,,,,,,,,,,,klárzom,klárzok,right,1.7063,0,148,148,85,1,140,klárzik,klárzol,NA,NA,Te bizony sokat klárzol.,Én is sokat...,klárzok,klárzom,lakik,-zik,1,PR2010,1999,nő,nem,2022-04-04_21h37.11.399,hesp_baseline,2021.2.3,Win32,59.85873339
,,,,,,,,,,,,,,,,,bupézban,bupézben,right,1.8398,0,149,149,48,1,157,bupéz,bupéz,ban,é,Ez itt egy bupéz.,Ott vagyunk a...,bupézben,bupézban,dzsungel,NA,NA,PR2010,1999,nő,nem,2022-04-04_21h37.11.399,hesp_baseline,2021.2.3,Win32,59.85873339
,,,,,,,,,,,,,,,,,jurdentnél,jurdentnál,left,1.4866,0,150,150,16,1,125,jurdent,jurdent,nál,e,Ez itt egy jurdent.,Nincs is jobb egy jó...,jurdentnél,jurdentnál,dzsungel,NA,NA,PR2010,1999,nő,nem,2022-04-04_21h37.11.399,hesp_baseline,2021.2.3,Win32,59.85873339
,,,,,,,,,,,,,,,,,brárlanak,brároznak,right,3.434,0,151,151,126,1,127,brárlik / brározik,"brárlik, brározni",nek,NA,"János imád brározni, ezért sokat brárlik.",Ők ritkán...,brárlanak,brároznak,cselekszik,-lik,1,PR2010,1999,nő,nem,2022-04-04_21h37.11.399,hesp_baseline,2021.2.3,Win32,59.85873339
,,,,,,,,,,,,,,,,,vodecnél,vodecnál,left,1.7075,0,152,152,30,1,139,vodec,vodec,nál,e,Ez itt egy vodec.,Nincs is jobb egy jó...,vodecnél,vodecnál,dzsungel,NA,NA,PR2010,1999,nő,nem,2022-04-04_21h37.11.399,hesp_baseline,2021.2.3,Win32,59.85873339
,,,,,,,,,,,,,,,,,filányozunk,filánylunk,left,3.3837,0,153,153,134,1,135,filánylik / filányozik,"filánylik, filányozni",ünk,NA,"János imád filányozni, ezért sokat filánylik.",Mi ritkán...,filánylunk,filányozunk,cselekszik,-lik,2,PR2010,1999,nő,nem,2022-04-04_21h37.11.399,hesp_baseline,2021.2.3,Win32,59.85873339
,,,,,,,,,,,,,,,,,bivejlem,bivejlek,right,1.8249,0,154,154,73,1,128,bivejlik,bivejlesz,NA,NA,Te bizony sokat bivejlesz.,Én is sokat...,bivejlek,bivejlem,lakik,-lik,2,PR2010,1999,nő,nem,2022-04-04_21h37.11.399,hesp_baseline,2021.2.3,Win32,59.85873339
,,,,,,,,,,,,,,,,,dralágozunk,dralágzunk,left,4.4749,0,155,155,156,1,157,dralágzik / dralágozik,"dralágzik, dralágozni",ünk,NA,"János imád dralágozni, ezért sokat dralágzik.",Mi ritkán...,dralágzunk,dralágozunk,cselekszik,-zik,2,PR2010,1999,nő,nem,2022-04-04_21h37.11.399,hesp_baseline,2021.2.3,Win32,59.85873339
,,,,,,,,,,,,,,,,,sztritoznak,sztritlanak,right,6.6253,0,156,156,154,1,155,sztritlik / sztritozik,"sztritlik, sztritozni",nek,NA,"János imád sztritozni, ezért sokat sztritlik.",Ők ritkán...,sztritlanak,sztritoznak,cselekszik,-lik,1,PR2010,1999,nő,nem,2022-04-04_21h37.11.399,hesp_baseline,2021.2.3,Win32,59.85873339
,,,,,,,,,,,,,,,,,szihétnak,szihétnek,right,1.77,0,157,157,4,1,113,szihét,szihét,nak,é,Ez itt egy szihét.,Elneveztem a kutyámat...,szihétnek,szihétnak,dzsungel,NA,NA,PR2010,1999,nő,nem,2022-04-04_21h37.11.399,hesp_baseline,2021.2.3,Win32,59.85873339
,,,,,,,,,,,,,,,,,trugoklanak,trugokoznak,right,3.6668,0,158,158,109,1,110,trugoklik / trugokozik,"trugoklik, trugokozni",nek,NA,"János imád trugokozni, ezért sokat trugoklik.",Ők ritkán...,trugoklanak,trugokoznak,cselekszik,-lik,2,PR2010,1999,nő,nem,2022-04-04_21h37.11.399,hesp_baseline,2021.2.3,Win32,59.85873339
,,,,,,,,,,,,,,,,,trilekedtek,trilekszetek,left,4.0664,0,159,159,157,1,158,trilekszik / trilekedik,"trilekszik, trilekedni",tek,NA,"János imád trilekedni, ezért sokat trilekszik.",Ti ritkán...,trilekszetek,trilekedtek,cselekszik,-szik,2,PR2010,1999,nő,nem,2022-04-04_21h37.11.399,hesp_baseline,2021.2.3,Win32,59.85873339
,,,,,,,,,,,,,,,,,pibegeznek,pibegzenek,left,8.7436,0,160,160,127,1,128,pibegzik / pibegezik,"pibegzik, pibegezni",nek,NA,"János imád pibegezni, ezért sokat pibegzik.",Ők ritkán...,pibegzenek,pibegeznek,cselekszik,-zik,2,PR2010,1999,nő,nem,2022-04-04_21h37.11.399,hesp_baseline,2021.2.3,Win32,59.85873339
,,,,,,,,,,,,,,,,,trincsegben,trincsegban,left,1.8681,0,161,161,46,1,155,trincseg,trincseg,ban,e,Ez itt egy trincseg.,Ott vagyunk a...,trincsegben,trincsegban,dzsungel,NA,NA,PR2010,1999,nő,nem,2022-04-04_21h37.11.399,hesp_baseline,2021.2.3,Win32,59.85873339
