my_list,key.keys,key.rt,key_2.keys,key_2.rt,keyboard_input_2.keys,keyboard_input_2.rt,key_3.keys,key_3.rt,keyboard_input_3.keys,keyboard_input_3.rt,key_4.keys,key_4.rt,keyboard_input_4.keys,keyboard_input_4.rt,key_5.keys,key_5.rt,my_button1,my_button2,keyboard_input.keys,keyboard_input.rt,withinBlock.thisRepN,withinBlock.thisTrialN,withinBlock.thisN,withinBlock.thisIndex,withinBlock.ran,rowname,word,prompt,suffix,vowel,carrier_sentence,target_sentence,target1,target2,category,derivational,nsyl,Azonosító,Melyik évben születtél?,Mi a nemed?,Tanultál nyelvészetet?,date,expName,psychopyVersion,OS,frameRate
list3.csv,space,41.7248,space,12.7442,right,9.2824,space,14.1803,left,5.5926,space,6.7028,left,10.3358,space,14.9119,bupézban,bupézben,right,10.4582,0,0,0,48,1,157,bupéz,bupéz,ban,é,Ez itt egy bupéz.,Ott vagyunk a...,bupézben,bupézban,dzsungel,NA,NA,2066,2001,nő,nem,2022-04-17_20h25.17.513,hesp_baseline,2021.2.3,Win32,59.17509912
,,,,,,,,,,,,,,,,,ronszekban,ronszekben,left,7.1788,0,1,1,18,1,127,ronszek,ronszek,ban,e,Ez itt egy ronszek.,Ott vagyunk a...,ronszekben,ronszekban,dzsungel,NA,NA,2066,2001,nő,nem,2022-04-17_20h25.17.513,hesp_baseline,2021.2.3,Win32,59.17509912
,,,,,,,,,,,,,,,,,prezlem,prezlek,right,6.2872,0,2,2,87,1,142,prezlik,prezlesz,NA,NA,Te bizony sokat prezlesz.,Én is sokat...,prezlek,prezlem,lakik,-lik,1,2066,2001,nő,nem,2022-04-17_20h25.17.513,hesp_baseline,2021.2.3,Win32,59.17509912
,,,,,,,,,,,,,,,,,vodecnál,vodecnél,right,5.8792,0,3,3,30,1,139,vodec,vodec,nál,e,Ez itt egy vodec.,Nincs is jobb egy jó...,vodecnél,vodecnál,dzsungel,NA,NA,2066,2001,nő,nem,2022-04-17_20h25.17.513,hesp_baseline,2021.2.3,Win32,59.17509912
,,,,,,,,,,,,,,,,,klarágzotok,klarágoztok,left,21.7989,0,4,4,114,1,115,klarágzik / klarágozik,"klarágzik, klarágozni",tek,NA,"János imád klarágozni, ezért sokat klarágzik.",Ti ritkán...,klarágzotok,klarágoztok,cselekszik,-zik,2,2066,2001,nő,nem,2022-04-17_20h25.17.513,hesp_baseline,2021.2.3,Win32,59.17509912
,,,,,,,,,,,,,,,,,trálszunk,trálodunk,left,12.2555,0,5,5,130,1,131,trálszik / trálodik,"trálszik, trálodni",ünk,NA,"János imád trálodni, ezért sokat trálszik.",Mi ritkán...,trálszunk,trálodunk,cselekszik,-szik,1,2066,2001,nő,nem,2022-04-17_20h25.17.513,hesp_baseline,2021.2.3,Win32,59.17509912
,,,,,,,,,,,,,,,,,sztredletek,sztredeztek,left,12.0092,0,6,6,145,1,146,sztredlik / sztredezik,"sztredlik, sztredezni",tek,NA,"János imád sztredezni, ezért sokat sztredlik.",Ti ritkán...,sztredletek,sztredeztek,cselekszik,-lik,1,2066,2001,nő,nem,2022-04-17_20h25.17.513,hesp_baseline,2021.2.3,Win32,59.17509912
,,,,,,,,,,,,,,,,,nyáslok,nyáslom,left,5.453,0,7,7,100,1,155,nyáslik,nyáslasz,NA,NA,Te bizony sokat nyáslasz.,Én is sokat...,nyáslok,nyáslom,lakik,-lik,1,2066,2001,nő,nem,2022-04-17_20h25.17.513,hesp_baseline,2021.2.3,Win32,59.17509912
,,,,,,,,,,,,,,,,,vurnelnak,vurnelnek,right,6.3549,0,8,8,50,1,159,vurnel,vurnel,nak,e,Ez itt egy vurnel.,Elneveztem a kutyámat...,vurnelnek,vurnelnak,dzsungel,NA,NA,2066,2001,nő,nem,2022-04-17_20h25.17.513,hesp_baseline,2021.2.3,Win32,59.17509912
,,,,,,,,,,,,,,,,,trivakodunk,trivakszunk,right,6.4921,0,9,9,118,1,119,trivakszik / trivakodik,"trivakszik, trivakodni",ünk,NA,"János imád trivakodni, ezért sokat trivakszik.",Mi ritkán...,trivakszunk,trivakodunk,cselekszik,-szik,2,2066,2001,nő,nem,2022-04-17_20h25.17.513,hesp_baseline,2021.2.3,Win32,59.17509912
,,,,,,,,,,,,,,,,,trűnylenek,trűnyöznek,left,7.8151,0,10,10,119,1,120,trűnylik / trűnyözik,"trűnylik, trűnyözni",nek,NA,"János imád trűnyözni, ezért sokat trűnylik.",Ők ritkán...,trűnylenek,trűnyöznek,cselekszik,-lik,1,2066,2001,nő,nem,2022-04-17_20h25.17.513,hesp_baseline,2021.2.3,Win32,59.17509912
,,,,,,,,,,,,,,,,,sztrozlok,sztrozlom,left,5.6264,0,11,11,104,1,159,sztrozlik,sztrozlasz,NA,NA,Te bizony sokat sztrozlasz.,Én is sokat...,sztrozlok,sztrozlom,lakik,-lik,1,2066,2001,nő,nem,2022-04-17_20h25.17.513,hesp_baseline,2021.2.3,Win32,59.17509912
,,,,,,,,,,,,,,,,,rájzom,rájzok,left,12.1615,0,12,12,70,1,125,rájzik,rájzol,NA,NA,Te bizony sokat rájzol.,Én is sokat...,rájzok,rájzom,lakik,-zik,1,2066,2001,nő,nem,2022-04-17_20h25.17.513,hesp_baseline,2021.2.3,Win32,59.17509912
,,,,,,,,,,,,,,,,,sztrűkszöm,sztrűkszök,left,6.2099,0,13,13,77,1,132,sztrűkszik,sztrűkszöl,NA,NA,Te bizony sokat sztrűkszöl.,Én is sokat...,sztrűkszök,sztrűkszöm,lakik,-szik,1,2066,2001,nő,nem,2022-04-17_20h25.17.513,hesp_baseline,2021.2.3,Win32,59.17509912
,,,,,,,,,,,,,,,,,diroztok,dirlotok,right,13.627,0,14,14,148,1,149,dirlik / dirozik,"dirlik, dirozni",tek,NA,"János imád dirozni, ezért sokat dirlik.",Ti ritkán...,dirlotok,diroztok,cselekszik,-lik,1,2066,2001,nő,nem,2022-04-17_20h25.17.513,hesp_baseline,2021.2.3,Win32,59.17509912
,,,,,,,,,,,,,,,,,pehégszetek,pehégedtek,left,5.7021,0,15,15,151,1,152,pehégszik / pehégedik,"pehégszik, pehégedni",tek,NA,"János imád pehégedni, ezért sokat pehégszik.",Ti ritkán...,pehégszetek,pehégedtek,cselekszik,-szik,2,2066,2001,nő,nem,2022-04-17_20h25.17.513,hesp_baseline,2021.2.3,Win32,59.17509912
,,,,,,,,,,,,,,,,,spüszlöm,spüszlök,right,4.0406,0,16,16,96,1,151,spüszlik,spüszlesz,NA,NA,Te bizony sokat spüszlesz.,Én is sokat...,spüszlök,spüszlöm,lakik,-lik,1,2066,2001,nő,nem,2022-04-17_20h25.17.513,hesp_baseline,2021.2.3,Win32,59.17509912
,,,,,,,,,,,,,,,,,bródesznek,bródesznak,left,4.164,0,17,17,32,1,141,bródesz,bródesz,nak,e,Ez itt egy bródesz.,Elneveztem a kutyámat...,bródesznek,bródesznak,dzsungel,NA,NA,2066,2001,nő,nem,2022-04-17_20h25.17.513,hesp_baseline,2021.2.3,Win32,59.17509912
,,,,,,,,,,,,,,,,,brűköztök,brűklötök,right,6.077,0,18,18,153,1,154,brűklik / brűközik,"brűklik, brűközni",tek,NA,"János imád brűközni, ezért sokat brűklik.",Ti ritkán...,brűklötök,brűköztök,cselekszik,-lik,1,2066,2001,nő,nem,2022-04-17_20h25.17.513,hesp_baseline,2021.2.3,Win32,59.17509912
,,,,,,,,,,,,,,,,,tibarzanak,tibaroznak,left,19.1736,0,19,19,155,1,156,tibarzik / tibarozik,"tibarzik, tibarozni",nek,NA,"János imád tibarozni, ezért sokat tibarzik.",Ők ritkán...,tibarzanak,tibaroznak,cselekszik,-zik,2,2066,2001,nő,nem,2022-04-17_20h25.17.513,hesp_baseline,2021.2.3,Win32,59.17509912
,,,,,,,,,,,,,,,,,zábénynek,zábénynak,left,5.1006,0,20,20,43,1,152,zábény,zábény,nak,é,Ez itt egy zábény.,Elneveztem a kutyámat...,zábénynek,zábénynak,dzsungel,NA,NA,2066,2001,nő,nem,2022-04-17_20h25.17.513,hesp_baseline,2021.2.3,Win32,59.17509912
,,,,,,,,,,,,,,,,,triképban,triképben,right,4.5937,0,21,21,33,1,142,trikép,trikép,ban,é,Ez itt egy trikép.,Ott vagyunk a...,triképben,triképban,dzsungel,NA,NA,2066,2001,nő,nem,2022-04-17_20h25.17.513,hesp_baseline,2021.2.3,Win32,59.17509912
,,,,,,,,,,,,,,,,,dralágzunk,dralágozunk,left,9.3466,0,22,22,156,1,157,dralágzik / dralágozik,"dralágzik, dralágozni",ünk,NA,"János imád dralágozni, ezért sokat dralágzik.",Mi ritkán...,dralágzunk,dralágozunk,cselekszik,-zik,2,2066,2001,nő,nem,2022-04-17_20h25.17.513,hesp_baseline,2021.2.3,Win32,59.17509912
,,,,,,,,,,,,,,,,,huméknak,huméknek,right,3.2712,0,23,23,23,1,132,humék,humék,nak,é,Ez itt egy humék.,Elneveztem a kutyámat...,huméknek,huméknak,dzsungel,NA,NA,2066,2001,nő,nem,2022-04-17_20h25.17.513,hesp_baseline,2021.2.3,Win32,59.17509912
,,,,,,,,,,,,,,,,,finceknál,finceknél,right,4.0379,0,24,24,9,1,118,fincek,fincek,nál,e,Ez itt egy fincek.,Nincs is jobb egy jó...,finceknél,finceknál,dzsungel,NA,NA,2066,2001,nő,nem,2022-04-17_20h25.17.513,hesp_baseline,2021.2.3,Win32,59.17509912
,,,,,,,,,,,,,,,,,mágamlunk,mágamozunk,left,8.2782,0,25,25,140,1,141,mágamlik / mágamozik,"mágamlik, mágamozni",ünk,NA,"János imád mágamozni, ezért sokat mágamlik.",Mi ritkán...,mágamlunk,mágamozunk,cselekszik,-lik,2,2066,2001,nő,nem,2022-04-17_20h25.17.513,hesp_baseline,2021.2.3,Win32,59.17509912
,,,,,,,,,,,,,,,,,kláragszotok,kláragodtok,left,10.4107,0,26,26,123,1,124,kláragszik / kláragodik,"kláragszik, kláragodni",tek,NA,"János imád kláragodni, ezért sokat kláragszik.",Ti ritkán...,kláragszotok,kláragodtok,cselekszik,-szik,2,2066,2001,nő,nem,2022-04-17_20h25.17.513,hesp_baseline,2021.2.3,Win32,59.17509912
,,,,,,,,,,,,,,,,,trálaklanak,trálakoznak,left,15.6108,0,27,27,116,1,117,trálaklik / trálakozik,"trálaklik, trálakozni",nek,NA,"János imád trálakozni, ezért sokat trálaklik.",Ők ritkán...,trálaklanak,trálakoznak,cselekszik,-lik,2,2066,2001,nő,nem,2022-04-17_20h25.17.513,hesp_baseline,2021.2.3,Win32,59.17509912
,,,,,,,,,,,,,,,,,fliraklom,fliraklok,right,11.2531,0,28,28,98,1,153,fliraklik,fliraklasz,NA,NA,Te bizony sokat fliraklasz.,Én is sokat...,fliraklok,fliraklom,lakik,-lik,2,2066,2001,nő,nem,2022-04-17_20h25.17.513,hesp_baseline,2021.2.3,Win32,59.17509912
,,,,,,,,,,,,,,,,,hűgzöm,hűgzök,right,4.0893,0,29,29,107,1,162,hűgzik,hűgzöl,NA,NA,Te bizony sokat hűgzöl.,Én is sokat...,hűgzök,hűgzöm,lakik,-zik,1,2066,2001,nő,nem,2022-04-17_20h25.17.513,hesp_baseline,2021.2.3,Win32,59.17509912
,,,,,,,,,,,,,,,,,sűzlöm,sűzlök,right,3.9617,0,30,30,54,1,109,sűzlik,sűzlesz,NA,NA,Te bizony sokat sűzlesz.,Én is sokat...,sűzlök,sűzlöm,lakik,-lik,1,2066,2001,nő,nem,2022-04-17_20h25.17.513,hesp_baseline,2021.2.3,Win32,59.17509912
,,,,,,,,,,,,,,,,,lumlotok,lumoztok,left,12.0605,0,31,31,149,1,150,lumlik / lumozik,"lumlik, lumozni",tek,NA,"János imád lumozni, ezért sokat lumlik.",Ti ritkán...,lumlotok,lumoztok,cselekszik,-lik,1,2066,2001,nő,nem,2022-04-17_20h25.17.513,hesp_baseline,2021.2.3,Win32,59.17509912
,,,,,,,,,,,,,,,,,sztrijzok,sztrijzom,left,4.0742,0,32,32,68,1,123,sztrijzik,sztrijzol,NA,NA,Te bizony sokat sztrijzol.,Én is sokat...,sztrijzok,sztrijzom,lakik,-zik,1,2066,2001,nő,nem,2022-04-17_20h25.17.513,hesp_baseline,2021.2.3,Win32,59.17509912
,,,,,,,,,,,,,,,,,trincsegban,trincsegben,right,6.4469,0,33,33,46,1,155,trincseg,trincseg,ban,e,Ez itt egy trincseg.,Ott vagyunk a...,trincsegben,trincsegban,dzsungel,NA,NA,2066,2001,nő,nem,2022-04-17_20h25.17.513,hesp_baseline,2021.2.3,Win32,59.17509912
,,,,,,,,,,,,,,,,,pribagszom,pribagszok,left,6.3576,0,34,34,76,1,131,pribagszik,pribagszol,NA,NA,Te bizony sokat pribagszol.,Én is sokat...,pribagszok,pribagszom,lakik,-szik,2,2066,2001,nő,nem,2022-04-17_20h25.17.513,hesp_baseline,2021.2.3,Win32,59.17509912
,,,,,,,,,,,,,,,,,bűtszök,bűtszöm,left,6.083,0,35,35,82,1,137,bűtszik,bűtszöl,NA,NA,Te bizony sokat bűtszöl.,Én is sokat...,bűtszök,bűtszöm,lakik,-szik,1,2066,2001,nő,nem,2022-04-17_20h25.17.513,hesp_baseline,2021.2.3,Win32,59.17509912
,,,,,,,,,,,,,,,,,vehékedünk,vehékszünk,right,144.7968,0,36,36,117,1,118,vehékszik / vehékedik,"vehékszik, vehékedni",ünk,NA,"János imád vehékedni, ezért sokat vehékszik.",Mi ritkán...,vehékszünk,vehékedünk,cselekszik,-szik,2,2066,2001,nő,nem,2022-04-17_20h25.17.513,hesp_baseline,2021.2.3,Win32,59.17509912
,,,,,,,,,,,,,,,,,bivejlek,bivejlem,left,4.3926,0,37,37,73,1,128,bivejlik,bivejlesz,NA,NA,Te bizony sokat bivejlesz.,Én is sokat...,bivejlek,bivejlem,lakik,-lik,2,2066,2001,nő,nem,2022-04-17_20h25.17.513,hesp_baseline,2021.2.3,Win32,59.17509912
,,,,,,,,,,,,,,,,,féjzem,féjzek,right,4.4818,0,38,38,91,1,146,féjzik,féjzel,NA,NA,Te bizony sokat féjzel.,Én is sokat...,féjzek,féjzem,lakik,-zik,1,2066,2001,nő,nem,2022-04-17_20h25.17.513,hesp_baseline,2021.2.3,Win32,59.17509912
,,,,,,,,,,,,,,,,,frilegszek,frilegszem,right,3.6741,0,39,39,72,1,127,frilegszik,frilegszel,NA,NA,Te bizony sokat frilegszel.,Én is sokat...,frilegszek,frilegszem,lakik,-szik,2,2066,2001,nő,nem,2022-04-17_20h25.17.513,hesp_baseline,2021.2.3,Win32,59.17509912
,,,,,,,,,,,,,,,,,drilarozunk,drilarzunk,right,7.7474,0,40,40,131,1,132,drilarzik / drilarozik,"drilarzik, drilarozni",ünk,NA,"János imád drilarozni, ezért sokat drilarzik.",Mi ritkán...,drilarzunk,drilarozunk,cselekszik,-zik,2,2066,2001,nő,nem,2022-04-17_20h25.17.513,hesp_baseline,2021.2.3,Win32,59.17509912
,,,,,,,,,,,,,,,,,dalencnál,dalencnél,right,6.8742,0,41,41,31,1,140,dalenc,dalenc,nál,e,Ez itt egy dalenc.,Nincs is jobb egy jó...,dalencnél,dalencnál,dzsungel,NA,NA,2066,2001,nő,nem,2022-04-17_20h25.17.513,hesp_baseline,2021.2.3,Win32,59.17509912
,,,,,,,,,,,,,,,,,hágyétnek,hágyétnak,left,9.1766,0,42,42,42,1,151,hágyét,hágyét,nak,é,Ez itt egy hágyét.,Elneveztem a kutyámat...,hágyétnek,hágyétnak,dzsungel,NA,NA,2066,2001,nő,nem,2022-04-17_20h25.17.513,hesp_baseline,2021.2.3,Win32,59.17509912
,,,,,,,,,,,,,,,,,büglök,büglöm,left,2.6676,0,43,43,101,1,156,büglik,büglesz,NA,NA,Te bizony sokat büglesz.,Én is sokat...,büglök,büglöm,lakik,-lik,1,2066,2001,nő,nem,2022-04-17_20h25.17.513,hesp_baseline,2021.2.3,Win32,59.17509912
,,,,,,,,,,,,,,,,,szihétnek,szihétnak,left,2.9961,0,44,44,4,1,113,szihét,szihét,nak,é,Ez itt egy szihét.,Elneveztem a kutyámat...,szihétnek,szihétnak,dzsungel,NA,NA,2066,2001,nő,nem,2022-04-17_20h25.17.513,hesp_baseline,2021.2.3,Win32,59.17509912
,,,,,,,,,,,,,,,,,licegyban,licegyben,right,4.1976,0,45,45,15,1,124,licegy,licegy,ban,e,Ez itt egy licegy.,Ott vagyunk a...,licegyben,licegyban,dzsungel,NA,NA,2066,2001,nő,nem,2022-04-17_20h25.17.513,hesp_baseline,2021.2.3,Win32,59.17509912
,,,,,,,,,,,,,,,,,sprálszom,sprálszok,right,7.2405,0,46,46,65,1,120,sprálszik,sprálszol,NA,NA,Te bizony sokat sprálszol.,Én is sokat...,sprálszok,sprálszom,lakik,-szik,1,2066,2001,nő,nem,2022-04-17_20h25.17.513,hesp_baseline,2021.2.3,Win32,59.17509912
,,,,,,,,,,,,,,,,,jurdentnál,jurdentnél,right,4.373,0,47,47,16,1,125,jurdent,jurdent,nál,e,Ez itt egy jurdent.,Nincs is jobb egy jó...,jurdentnél,jurdentnál,dzsungel,NA,NA,2066,2001,nő,nem,2022-04-17_20h25.17.513,hesp_baseline,2021.2.3,Win32,59.17509912
,,,,,,,,,,,,,,,,,prínylok,prínylom,left,2.5914,0,48,48,102,1,157,prínylik,prínylasz,NA,NA,Te bizony sokat prínylasz.,Én is sokat...,prínylok,prínylom,lakik,-lik,1,2066,2001,nő,nem,2022-04-17_20h25.17.513,hesp_baseline,2021.2.3,Win32,59.17509912
,,,,,,,,,,,,,,,,,klosétnek,klosétnak,right,2.8774,0,49,49,45,1,154,klosét,klosét,nak,é,Ez itt egy klosét.,Elneveztem a kutyámat...,klosétnek,klosétnak,dzsungel,NA,NA,2066,2001,nő,nem,2022-04-17_20h25.17.513,hesp_baseline,2021.2.3,Win32,59.17509912
,,,,,,,,,,,,,,,,,flököztök,flöklötök,right,6.1272,0,50,50,121,1,122,flöklik / flöközik,"flöklik, flöközni",tek,NA,"János imád flöközni, ezért sokat flöklik.",Ti ritkán...,flöklötök,flököztök,cselekszik,-lik,1,2066,2001,nő,nem,2022-04-17_20h25.17.513,hesp_baseline,2021.2.3,Win32,59.17509912
,,,,,,,,,,,,,,,,,lájoztok,lájzotok,right,5.2313,0,51,51,159,1,160,lájzik / lájozik,"lájzik, lájozni",tek,NA,"János imád lájozni, ezért sokat lájzik.",Ti ritkán...,lájzotok,lájoztok,cselekszik,-zik,1,2066,2001,nő,nem,2022-04-17_20h25.17.513,hesp_baseline,2021.2.3,Win32,59.17509912
,,,,,,,,,,,,,,,,,sztritoznak,sztritlanak,right,7.1862,0,52,52,154,1,155,sztritlik / sztritozik,"sztritlik, sztritozni",nek,NA,"János imád sztritozni, ezért sokat sztritlik.",Ők ritkán...,sztritlanak,sztritoznak,cselekszik,-lik,1,2066,2001,nő,nem,2022-04-17_20h25.17.513,hesp_baseline,2021.2.3,Win32,59.17509912
,,,,,,,,,,,,,,,,,trugoklanak,trugokoznak,left,7.8622,0,53,53,109,1,110,trugoklik / trugokozik,"trugoklik, trugokozni",nek,NA,"János imád trugokozni, ezért sokat trugoklik.",Ők ritkán...,trugoklanak,trugokoznak,cselekszik,-lik,2,2066,2001,nő,nem,2022-04-17_20h25.17.513,hesp_baseline,2021.2.3,Win32,59.17509912
,,,,,,,,,,,,,,,,,spülöklöm,spülöklök,left,6.4584,0,54,54,56,1,111,spülöklik,spülöklesz,NA,NA,Te bizony sokat spülöklesz.,Én is sokat...,spülöklök,spülöklöm,lakik,-lik,2,2066,2001,nő,nem,2022-04-17_20h25.17.513,hesp_baseline,2021.2.3,Win32,59.17509912
,,,,,,,,,,,,,,,,,ribegszetek,ribegedtek,left,5.7542,0,55,55,141,1,142,ribegszik / ribegedik,"ribegszik, ribegedni",tek,NA,"János imád ribegedni, ezért sokat ribegszik.",Ti ritkán...,ribegszetek,ribegedtek,cselekszik,-szik,2,2066,2001,nő,nem,2022-04-17_20h25.17.513,hesp_baseline,2021.2.3,Win32,59.17509912
,,,,,,,,,,,,,,,,,gótemnak,gótemnek,right,2.4791,0,56,56,35,1,144,gótem,gótem,nak,e,Ez itt egy gótem.,Elneveztem a kutyámat...,gótemnek,gótemnak,dzsungel,NA,NA,2066,2001,nő,nem,2022-04-17_20h25.17.513,hesp_baseline,2021.2.3,Win32,59.17509912
,,,,,,,,,,,,,,,,,spanélnál,spanélnél,left,5.7736,0,57,57,24,1,133,spanél,spanél,nál,é,Ez itt egy spanél.,Nincs is jobb egy jó...,spanélnél,spanélnál,dzsungel,NA,NA,2066,2001,nő,nem,2022-04-17_20h25.17.513,hesp_baseline,2021.2.3,Win32,59.17509912
,,,,,,,,,,,,,,,,,spirágoztok,spiráglotok,right,6.8349,0,58,58,135,1,136,spiráglik / spirágozik,"spiráglik, spirágozni",tek,NA,"János imád spirágozni, ezért sokat spiráglik.",Ti ritkán...,spiráglotok,spirágoztok,cselekszik,-lik,2,2066,2001,nő,nem,2022-04-17_20h25.17.513,hesp_baseline,2021.2.3,Win32,59.17509912
,,,,,,,,,,,,,,,,,vilesezünk,vileslünk,right,17.9396,0,59,59,139,1,140,vileslik / vilesezik,"vileslik, vilesezni",ünk,NA,"János imád vilesezni, ezért sokat vileslik.",Mi ritkán...,vileslünk,vilesezünk,cselekszik,-lik,2,2066,2001,nő,nem,2022-04-17_20h25.17.513,hesp_baseline,2021.2.3,Win32,59.17509912
,,,,,,,,,,,,,,,,,klétszem,klétszek,left,4.7906,0,60,60,60,1,115,klétszik,klétszel,NA,NA,Te bizony sokat klétszel.,Én is sokat...,klétszek,klétszem,lakik,-szik,1,2066,2001,nő,nem,2022-04-17_20h25.17.513,hesp_baseline,2021.2.3,Win32,59.17509912
,,,,,,,,,,,,,,,,,trehégszek,trehégszem,right,4.3037,0,61,61,86,1,141,trehégszik,trehégszel,NA,NA,Te bizony sokat trehégszel.,Én is sokat...,trehégszek,trehégszem,lakik,-szik,2,2066,2001,nő,nem,2022-04-17_20h25.17.513,hesp_baseline,2021.2.3,Win32,59.17509912
,,,,,,,,,,,,,,,,,treglem,treglek,left,2.2458,0,62,62,81,1,136,treglik,treglesz,NA,NA,Te bizony sokat treglesz.,Én is sokat...,treglek,treglem,lakik,-lik,1,2066,2001,nő,nem,2022-04-17_20h25.17.513,hesp_baseline,2021.2.3,Win32,59.17509912
,,,,,,,,,,,,,,,,,spalárzanak,spalároznak,right,7.455,0,63,63,137,1,138,spalárzik / spalározik,"spalárzik, spalározni",nek,NA,"János imád spalározni, ezért sokat spalárzik.",Ők ritkán...,spalárzanak,spalároznak,cselekszik,-zik,2,2066,2001,nő,nem,2022-04-17_20h25.17.513,hesp_baseline,2021.2.3,Win32,59.17509912
,,,,,,,,,,,,,,,,,frivajlok,frivajlom,left,2.9573,0,64,64,78,1,133,frivajlik,frivajlasz,NA,NA,Te bizony sokat frivajlasz.,Én is sokat...,frivajlok,frivajlom,lakik,-lik,2,2066,2001,nő,nem,2022-04-17_20h25.17.513,hesp_baseline,2021.2.3,Win32,59.17509912
,,,,,,,,,,,,,,,,,gicéjnál,gicéjnél,right,3.0558,0,65,65,17,1,126,gicéj,gicéj,nál,é,Ez itt egy gicéj.,Nincs is jobb egy jó...,gicéjnél,gicéjnál,dzsungel,NA,NA,2066,2001,nő,nem,2022-04-17_20h25.17.513,hesp_baseline,2021.2.3,Win32,59.17509912
,,,,,,,,,,,,,,,,,piragszom,piragszok,left,2.9624,0,66,66,83,1,138,piragszik,piragszol,NA,NA,Te bizony sokat piragszol.,Én is sokat...,piragszok,piragszom,lakik,-szik,2,2066,2001,nő,nem,2022-04-17_20h25.17.513,hesp_baseline,2021.2.3,Win32,59.17509912
,,,,,,,,,,,,,,,,,surnegynál,surnegynél,right,3.3695,0,67,67,8,1,117,surnegy,surnegy,nál,e,Ez itt egy surnegy.,Nincs is jobb egy jó...,surnegynél,surnegynál,dzsungel,NA,NA,2066,2001,nő,nem,2022-04-17_20h25.17.513,hesp_baseline,2021.2.3,Win32,59.17509912
,,,,,,,,,,,,,,,,,siladzom,siladzok,left,2.1846,0,68,68,93,1,148,siladzik,siladzol,NA,NA,Te bizony sokat siladzol.,Én is sokat...,siladzok,siladzom,lakik,-zik,2,2066,2001,nő,nem,2022-04-17_20h25.17.513,hesp_baseline,2021.2.3,Win32,59.17509912
,,,,,,,,,,,,,,,,,frálapszotok,frálapodtok,left,6.7941,0,69,69,150,1,151,frálapszik / frálapodik,"frálapszik, frálapodni",tek,NA,"János imád frálapodni, ezért sokat frálapszik.",Ti ritkán...,frálapszotok,frálapodtok,cselekszik,-szik,2,2066,2001,nő,nem,2022-04-17_20h25.17.513,hesp_baseline,2021.2.3,Win32,59.17509912
,,,,,,,,,,,,,,,,,düjzök,düjzöm,left,2.7452,0,70,70,97,1,152,düjzik,düjzöl,NA,NA,Te bizony sokat düjzöl.,Én is sokat...,düjzök,düjzöm,lakik,-zik,1,2066,2001,nő,nem,2022-04-17_20h25.17.513,hesp_baseline,2021.2.3,Win32,59.17509912
,,,,,,,,,,,,,,,,,plágadzom,plágadzok,left,4.1344,0,71,71,74,1,129,plágadzik,plágadzol,NA,NA,Te bizony sokat plágadzol.,Én is sokat...,plágadzok,plágadzom,lakik,-zik,2,2066,2001,nő,nem,2022-04-17_20h25.17.513,hesp_baseline,2021.2.3,Win32,59.17509912
,,,,,,,,,,,,,,,,,sprökszök,sprökszöm,right,6.9491,0,72,72,88,1,143,sprökszik,sprökszöl,NA,NA,Te bizony sokat sprökszöl.,Én is sokat...,sprökszök,sprökszöm,lakik,-szik,1,2066,2001,nő,nem,2022-04-17_20h25.17.513,hesp_baseline,2021.2.3,Win32,59.17509912
,,,,,,,,,,,,,,,,,tuboklom,tuboklok,left,2.7682,0,73,73,84,1,139,tuboklik,tuboklasz,NA,NA,Te bizony sokat tuboklasz.,Én is sokat...,tuboklok,tuboklom,lakik,-lik,2,2066,2001,nő,nem,2022-04-17_20h25.17.513,hesp_baseline,2021.2.3,Win32,59.17509912
,,,,,,,,,,,,,,,,,brukésznál,brukésznél,right,4.0365,0,74,74,10,1,119,brukész,brukész,nál,é,Ez itt egy brukész.,Nincs is jobb egy jó...,brukésznél,brukésznál,dzsungel,NA,NA,2066,2001,nő,nem,2022-04-17_20h25.17.513,hesp_baseline,2021.2.3,Win32,59.17509912
,,,,,,,,,,,,,,,,,mülőrözünk,mülőrzünk,right,7.4396,0,75,75,120,1,121,mülőrzik / mülőrözik,"mülőrzik, mülőrözni",ünk,NA,"János imád mülőrözni, ezért sokat mülőrzik.",Mi ritkán...,mülőrzünk,mülőrözünk,cselekszik,-zik,2,2066,2001,nő,nem,2022-04-17_20h25.17.513,hesp_baseline,2021.2.3,Win32,59.17509912
,,,,,,,,,,,,,,,,,drivegzetek,drivegeztek,left,20.5672,0,76,76,112,1,113,drivegzik / drivegezik,"drivegzik, drivegezni",tek,NA,"János imád drivegezni, ezért sokat drivegzik.",Ti ritkán...,drivegzetek,drivegeztek,cselekszik,-zik,2,2066,2001,nő,nem,2022-04-17_20h25.17.513,hesp_baseline,2021.2.3,Win32,59.17509912
,,,,,,,,,,,,,,,,,sűjözünk,sűjlünk,right,5.1383,0,77,77,128,1,129,sűjlik / sűjözik,"sűjlik, sűjözni",ünk,NA,"János imád sűjözni, ezért sokat sűjlik.",Mi ritkán...,sűjlünk,sűjözünk,cselekszik,-lik,1,2066,2001,nő,nem,2022-04-17_20h25.17.513,hesp_baseline,2021.2.3,Win32,59.17509912
,,,,,,,,,,,,,,,,,trismélnek,trismélnak,left,3.9099,0,78,78,5,1,114,trismél,trismél,nak,é,Ez itt egy trismél.,Elneveztem a kutyámat...,trismélnek,trismélnak,dzsungel,NA,NA,2066,2001,nő,nem,2022-04-17_20h25.17.513,hesp_baseline,2021.2.3,Win32,59.17509912
,,,,,,,,,,,,,,,,,brüröznek,brürzenek,right,8.8979,0,79,79,110,1,111,brürzik / brürözik,"brürzik, brürözni",nek,NA,"János imád brürözni, ezért sokat brürzik.",Ők ritkán...,brürzenek,brüröznek,cselekszik,-zik,1,2066,2001,nő,nem,2022-04-17_20h25.17.513,hesp_baseline,2021.2.3,Win32,59.17509912
,,,,,,,,,,,,,,,,,flugonyoznak,flugonylanak,right,11.028,0,80,80,111,1,112,flugonylik / flugonyozik,"flugonylik, flugonyozni",nek,NA,"János imád flugonyozni, ezért sokat flugonylik.",Ők ritkán...,flugonylanak,flugonyoznak,cselekszik,-lik,2,2066,2001,nő,nem,2022-04-17_20h25.17.513,hesp_baseline,2021.2.3,Win32,59.17509912
,,,,,,,,,,,,,,,,,trilekszetek,trilekedtek,left,20.0303,0,81,81,157,1,158,trilekszik / trilekedik,"trilekszik, trilekedni",tek,NA,"János imád trilekedni, ezért sokat trilekszik.",Ti ritkán...,trilekszetek,trilekedtek,cselekszik,-szik,2,2066,2001,nő,nem,2022-04-17_20h25.17.513,hesp_baseline,2021.2.3,Win32,59.17509912
,,,,,,,,,,,,,,,,,vűjlöm,vűjlök,right,3.0122,0,82,82,94,1,149,vűjlik,vűjlesz,NA,NA,Te bizony sokat vűjlesz.,Én is sokat...,vűjlök,vűjlöm,lakik,-lik,1,2066,2001,nő,nem,2022-04-17_20h25.17.513,hesp_baseline,2021.2.3,Win32,59.17509912
,,,,,,,,,,,,,,,,,spibamlanak,spibamoznak,left,3.7255,0,83,83,142,1,143,spibamlik / spibamozik,"spibamlik, spibamozni",nek,NA,"János imád spibamozni, ezért sokat spibamlik.",Ők ritkán...,spibamlanak,spibamoznak,cselekszik,-lik,2,2066,2001,nő,nem,2022-04-17_20h25.17.513,hesp_baseline,2021.2.3,Win32,59.17509912
,,,,,,,,,,,,,,,,,klibamlom,klibamlok,right,5.4432,0,84,84,92,1,147,klibamlik,klibamlasz,NA,NA,Te bizony sokat klibamlasz.,Én is sokat...,klibamlok,klibamlom,lakik,-lik,2,2066,2001,nő,nem,2022-04-17_20h25.17.513,hesp_baseline,2021.2.3,Win32,59.17509912
,,,,,,,,,,,,,,,,,brárlanak,brároznak,left,5.8928,0,85,85,126,1,127,brárlik / brározik,"brárlik, brározni",nek,NA,"János imád brározni, ezért sokat brárlik.",Ők ritkán...,brárlanak,brároznak,cselekszik,-lik,1,2066,2001,nő,nem,2022-04-17_20h25.17.513,hesp_baseline,2021.2.3,Win32,59.17509912
,,,,,,,,,,,,,,,,,klivaslok,klivaslom,left,4.678,0,86,86,62,1,117,klivaslik,klivaslasz,NA,NA,Te bizony sokat klivaslasz.,Én is sokat...,klivaslok,klivaslom,lakik,-lik,2,2066,2001,nő,nem,2022-04-17_20h25.17.513,hesp_baseline,2021.2.3,Win32,59.17509912
,,,,,,,,,,,,,,,,,böjzök,böjzöm,left,3.4787,0,87,87,80,1,135,böjzik,böjzöl,NA,NA,Te bizony sokat böjzöl.,Én is sokat...,böjzök,böjzöm,lakik,-zik,1,2066,2001,nő,nem,2022-04-17_20h25.17.513,hesp_baseline,2021.2.3,Win32,59.17509912
,,,,,,,,,,,,,,,,,gyibakszom,gyibakszok,left,2.7357,0,88,88,57,1,112,gyibakszik,gyibakszol,NA,NA,Te bizony sokat gyibakszol.,Én is sokat...,gyibakszok,gyibakszom,lakik,-szik,2,2066,2001,nő,nem,2022-04-17_20h25.17.513,hesp_baseline,2021.2.3,Win32,59.17509912
,,,,,,,,,,,,,,,,,dorzéjnek,dorzéjnak,right,2.9222,0,89,89,29,1,138,dorzéj,dorzéj,nak,é,Ez itt egy dorzéj.,Elneveztem a kutyámat...,dorzéjnek,dorzéjnak,dzsungel,NA,NA,2066,2001,nő,nem,2022-04-17_20h25.17.513,hesp_baseline,2021.2.3,Win32,59.17509912
,,,,,,,,,,,,,,,,,spülőrzök,spülőrzöm,left,5.8325,0,90,90,69,1,124,spülőrzik,spülőrzöl,NA,NA,Te bizony sokat spülőrzöl.,Én is sokat...,spülőrzök,spülőrzöm,lakik,-zik,2,2066,2001,nő,nem,2022-04-17_20h25.17.513,hesp_baseline,2021.2.3,Win32,59.17509912
,,,,,,,,,,,,,,,,,spröbzök,spröbzöm,left,4.2642,0,91,91,90,1,145,spröbzik,spröbzöl,NA,NA,Te bizony sokat spröbzöl.,Én is sokat...,spröbzök,spröbzöm,lakik,-zik,1,2066,2001,nő,nem,2022-04-17_20h25.17.513,hesp_baseline,2021.2.3,Win32,59.17509912
,,,,,,,,,,,,,,,,,nyupérnál,nyupérnél,left,5.7747,0,92,92,52,1,161,nyupér,nyupér,nál,é,Ez itt egy nyupér.,Nincs is jobb egy jó...,nyupérnél,nyupérnál,dzsungel,NA,NA,2066,2001,nő,nem,2022-04-17_20h25.17.513,hesp_baseline,2021.2.3,Win32,59.17509912
,,,,,,,,,,,,,,,,,klárzok,klárzom,left,2.624,0,93,93,85,1,140,klárzik,klárzol,NA,NA,Te bizony sokat klárzol.,Én is sokat...,klárzok,klárzom,lakik,-zik,1,2066,2001,nő,nem,2022-04-17_20h25.17.513,hesp_baseline,2021.2.3,Win32,59.17509912
,,,,,,,,,,,,,,,,,briskédnél,briskédnál,left,4.5733,0,94,94,51,1,160,briskéd,briskéd,nál,é,Ez itt egy briskéd.,Nincs is jobb egy jó...,briskédnél,briskédnál,dzsungel,NA,NA,2066,2001,nő,nem,2022-04-17_20h25.17.513,hesp_baseline,2021.2.3,Win32,59.17509912
,,,,,,,,,,,,,,,,,pragánylotok,pragányoztok,left,5.2054,0,95,95,133,1,134,pragánylik / pragányozik,"pragánylik, pragányozni",tek,NA,"János imád pragányozni, ezért sokat pragánylik.",Ti ritkán...,pragánylotok,pragányoztok,cselekszik,-lik,2,2066,2001,nő,nem,2022-04-17_20h25.17.513,hesp_baseline,2021.2.3,Win32,59.17509912
,,,,,,,,,,,,,,,,,ibékszek,ibékszem,right,4.0739,0,96,96,95,1,150,ibékszik,ibékszel,NA,NA,Te bizony sokat ibékszel.,Én is sokat...,ibékszek,ibékszem,lakik,-szik,2,2066,2001,nő,nem,2022-04-17_20h25.17.513,hesp_baseline,2021.2.3,Win32,59.17509912
,,,,,,,,,,,,,,,,,fizendban,fizendben,right,20.6747,0,97,97,49,1,158,fizend,fizend,ban,e,Ez itt egy fizend.,Ott vagyunk a...,fizendben,fizendban,dzsungel,NA,NA,2066,2001,nő,nem,2022-04-17_20h25.17.513,hesp_baseline,2021.2.3,Win32,59.17509912
,,,,,,,,,,,,,,,,,spuménynak,spuménynek,right,4.6962,0,98,98,19,1,128,spumény,spumény,nak,é,Ez itt egy spumény.,Elneveztem a kutyámat...,spuménynek,spuménynak,dzsungel,NA,NA,2066,2001,nő,nem,2022-04-17_20h25.17.513,hesp_baseline,2021.2.3,Win32,59.17509912
,,,,,,,,,,,,,,,,,vobzotok,voboztok,right,5.7335,0,99,99,158,1,159,vobzik / vobozik,"vobzik, vobozni",tek,NA,"János imád vobozni, ezért sokat vobzik.",Ti ritkán...,vobzotok,voboztok,cselekszik,-zik,1,2066,2001,nő,nem,2022-04-17_20h25.17.513,hesp_baseline,2021.2.3,Win32,59.17509912
,,,,,,,,,,,,,,,,,kátelnak,kátelnek,left,4.4342,0,100,100,12,1,121,kátel,kátel,nak,e,Ez itt egy kátel.,Elneveztem a kutyámat...,kátelnek,kátelnak,dzsungel,NA,NA,2066,2001,nő,nem,2022-04-17_20h25.17.513,hesp_baseline,2021.2.3,Win32,59.17509912
,,,,,,,,,,,,,,,,,zsádévnak,zsádévnek,right,7.3824,0,101,101,20,1,129,zsádév,zsádév,nak,é,Ez itt egy zsádév.,Elneveztem a kutyámat...,zsádévnek,zsádévnak,dzsungel,NA,NA,2066,2001,nő,nem,2022-04-17_20h25.17.513,hesp_baseline,2021.2.3,Win32,59.17509912
,,,,,,,,,,,,,,,,,trikoztok,triklotok,right,4.7625,0,102,102,160,1,161,triklik / trikozik,"triklik, trikozni",tek,NA,"János imád trikozni, ezért sokat triklik.",Ti ritkán...,triklotok,trikoztok,cselekszik,-lik,1,2066,2001,nő,nem,2022-04-17_20h25.17.513,hesp_baseline,2021.2.3,Win32,59.17509912
,,,,,,,,,,,,,,,,,trapszegynál,trapszegynél,right,3.9144,0,103,103,39,1,148,trapszegy,trapszegy,nál,e,Ez itt egy trapszegy.,Nincs is jobb egy jó...,trapszegynél,trapszegynál,dzsungel,NA,NA,2066,2001,nő,nem,2022-04-17_20h25.17.513,hesp_baseline,2021.2.3,Win32,59.17509912
,,,,,,,,,,,,,,,,,braszencnél,braszencnál,left,5.2764,0,104,104,7,1,116,braszenc,braszenc,nál,e,Ez itt egy braszenc.,Nincs is jobb egy jó...,braszencnél,braszencnál,dzsungel,NA,NA,2066,2001,nő,nem,2022-04-17_20h25.17.513,hesp_baseline,2021.2.3,Win32,59.17509912
,,,,,,,,,,,,,,,,,pibegzenek,pibegeznek,right,9.8377,0,105,105,127,1,128,pibegzik / pibegezik,"pibegzik, pibegezni",nek,NA,"János imád pibegezni, ezért sokat pibegzik.",Ők ritkán...,pibegzenek,pibegeznek,cselekszik,-zik,2,2066,2001,nő,nem,2022-04-17_20h25.17.513,hesp_baseline,2021.2.3,Win32,59.17509912
,,,,,,,,,,,,,,,,,trilszom,trilszok,right,5.0271,0,106,106,103,1,158,trilszik,trilszol,NA,NA,Te bizony sokat trilszol.,Én is sokat...,trilszok,trilszom,lakik,-szik,1,2066,2001,nő,nem,2022-04-17_20h25.17.513,hesp_baseline,2021.2.3,Win32,59.17509912
,,,,,,,,,,,,,,,,,brilegzünk,brilegezünk,left,8.6578,0,107,107,124,1,125,brilegzik / brilegezik,"brilegzik, brilegezni",ünk,NA,"János imád brilegezni, ezért sokat brilegzik.",Mi ritkán...,brilegzünk,brilegezünk,cselekszik,-zik,2,2066,2001,nő,nem,2022-04-17_20h25.17.513,hesp_baseline,2021.2.3,Win32,59.17509912
,,,,,,,,,,,,,,,,,fretszek,fretszem,right,3.7917,0,108,108,66,1,121,fretszik,fretszel,NA,NA,Te bizony sokat fretszel.,Én is sokat...,fretszek,fretszem,lakik,-szik,1,2066,2001,nő,nem,2022-04-17_20h25.17.513,hesp_baseline,2021.2.3,Win32,59.17509912
,,,,,,,,,,,,,,,,,zödlöm,zödlök,left,4.5729,0,109,109,106,1,161,zödlik,zödlesz,NA,NA,Te bizony sokat zödlesz.,Én is sokat...,zödlök,zödlöm,lakik,-lik,1,2066,2001,nő,nem,2022-04-17_20h25.17.513,hesp_baseline,2021.2.3,Win32,59.17509912
,,,,,,,,,,,,,,,,,narjárzom,narjárzok,right,5.0798,0,110,110,61,1,116,narjárzik,narjárzol,NA,NA,Te bizony sokat narjárzol.,Én is sokat...,narjárzok,narjárzom,lakik,-zik,2,2066,2001,nő,nem,2022-04-17_20h25.17.513,hesp_baseline,2021.2.3,Win32,59.17509912
,,,,,,,,,,,,,,,,,pristélban,pristélben,right,56.1321,0,111,111,1,1,110,pristél,pristél,ban,é,Ez itt egy pristél.,Ott vagyunk a...,pristélben,pristélban,dzsungel,NA,NA,2066,2001,nő,nem,2022-04-17_20h25.17.513,hesp_baseline,2021.2.3,Win32,59.17509912
,,,,,,,,,,,,,,,,,brindeznek,brindeznak,left,6.7255,0,112,112,6,1,115,brindez,brindez,nak,e,Ez itt egy brindez.,Elneveztem a kutyámat...,brindeznek,brindeznak,dzsungel,NA,NA,2066,2001,nő,nem,2022-04-17_20h25.17.513,hesp_baseline,2021.2.3,Win32,59.17509912
,,,,,,,,,,,,,,,,,sprivencnél,sprivencnál,left,5.6851,0,113,113,13,1,122,sprivenc,sprivenc,nál,e,Ez itt egy sprivenc.,Nincs is jobb egy jó...,sprivencnél,sprivencnál,dzsungel,NA,NA,2066,2001,nő,nem,2022-04-17_20h25.17.513,hesp_baseline,2021.2.3,Win32,59.17509912
,,,,,,,,,,,,,,,,,prűrlök,prűrlöm,left,6.7122,0,114,114,75,1,130,prűrlik,prűrlesz,NA,NA,Te bizony sokat prűrlesz.,Én is sokat...,prűrlök,prűrlöm,lakik,-lik,1,2066,2001,nő,nem,2022-04-17_20h25.17.513,hesp_baseline,2021.2.3,Win32,59.17509912
,,,,,,,,,,,,,,,,,spírzom,spírzok,right,3.8541,0,115,115,64,1,119,spírzik,spírzol,NA,NA,Te bizony sokat spírzol.,Én is sokat...,spírzok,spírzom,lakik,-zik,1,2066,2001,nő,nem,2022-04-17_20h25.17.513,hesp_baseline,2021.2.3,Win32,59.17509912
,,,,,,,,,,,,,,,,,zsáderben,zsáderban,left,3.9832,0,116,116,25,1,134,zsáder,zsáder,ban,e,Ez itt egy zsáder.,Ott vagyunk a...,zsáderben,zsáderban,dzsungel,NA,NA,2066,2001,nő,nem,2022-04-17_20h25.17.513,hesp_baseline,2021.2.3,Win32,59.17509912
,,,,,,,,,,,,,,,,,bidemben,bidemban,left,2.582,0,117,117,2,1,111,bidem,bidem,ban,e,Ez itt egy bidem.,Ott vagyunk a...,bidemben,bidemban,dzsungel,NA,NA,2066,2001,nő,nem,2022-04-17_20h25.17.513,hesp_baseline,2021.2.3,Win32,59.17509912
,,,,,,,,,,,,,,,,,döjöznek,döjlenek,right,3.1653,0,118,118,129,1,130,döjlik / döjözik,"döjlik, döjözni",nek,NA,"János imád döjözni, ezért sokat döjlik.",Ők ritkán...,döjlenek,döjöznek,cselekszik,-lik,1,2066,2001,nő,nem,2022-04-17_20h25.17.513,hesp_baseline,2021.2.3,Win32,59.17509912
,,,,,,,,,,,,,,,,,pazévnél,pazévnál,left,8.8597,0,119,119,36,1,145,pazév,pazév,nál,é,Ez itt egy pazév.,Nincs is jobb egy jó...,pazévnél,pazévnál,dzsungel,NA,NA,2066,2001,nő,nem,2022-04-17_20h25.17.513,hesp_baseline,2021.2.3,Win32,59.17509912
,,,,,,,,,,,,,,,,,kléglünk,klégezünk,left,4.9124,0,120,120,122,1,123,kléglik / klégezik,"kléglik, klégezni",ünk,NA,"János imád klégezni, ezért sokat kléglik.",Mi ritkán...,kléglünk,klégezünk,cselekszik,-lik,1,2066,2001,nő,nem,2022-04-17_20h25.17.513,hesp_baseline,2021.2.3,Win32,59.17509912
,,,,,,,,,,,,,,,,,nivárzotok,nivároztok,left,7.0059,0,121,121,146,1,147,nivárzik / nivározik,"nivárzik, nivározni",tek,NA,"János imád nivározni, ezért sokat nivárzik.",Ti ritkán...,nivárzotok,nivároztok,cselekszik,-zik,2,2066,2001,nő,nem,2022-04-17_20h25.17.513,hesp_baseline,2021.2.3,Win32,59.17509912
,,,,,,,,,,,,,,,,,gerénylem,gerénylek,right,4.8771,0,122,122,99,1,154,gerénylik,gerénylesz,NA,NA,Te bizony sokat gerénylesz.,Én is sokat...,gerénylek,gerénylem,lakik,-lik,2,2066,2001,nő,nem,2022-04-17_20h25.17.513,hesp_baseline,2021.2.3,Win32,59.17509912
,,,,,,,,,,,,,,,,,bihánylok,bihánylom,left,2.7666,0,123,123,89,1,144,bihánylik,bihánylasz,NA,NA,Te bizony sokat bihánylasz.,Én is sokat...,bihánylok,bihánylom,lakik,-lik,2,2066,2001,nő,nem,2022-04-17_20h25.17.513,hesp_baseline,2021.2.3,Win32,59.17509912
,,,,,,,,,,,,,,,,,tínylok,tínylom,left,2.3026,0,124,124,58,1,113,tínylik,tínylasz,NA,NA,Te bizony sokat tínylasz.,Én is sokat...,tínylok,tínylom,lakik,-lik,1,2066,2001,nő,nem,2022-04-17_20h25.17.513,hesp_baseline,2021.2.3,Win32,59.17509912
,,,,,,,,,,,,,,,,,vubletnál,vubletnél,right,3.8637,0,125,125,26,1,135,vublet,vublet,nál,e,Ez itt egy vublet.,Nincs is jobb egy jó...,vubletnél,vubletnál,dzsungel,NA,NA,2066,2001,nő,nem,2022-04-17_20h25.17.513,hesp_baseline,2021.2.3,Win32,59.17509912
,,,,,,,,,,,,,,,,,tűgöztök,tűgzötök,right,8.4921,0,126,126,143,1,144,tűgzik / tűgözik,"tűgzik, tűgözni",tek,NA,"János imád tűgözni, ezért sokat tűgzik.",Ti ritkán...,tűgzötök,tűgöztök,cselekszik,-zik,1,2066,2001,nő,nem,2022-04-17_20h25.17.513,hesp_baseline,2021.2.3,Win32,59.17509912
,,,,,,,,,,,,,,,,,zatéjnál,zatéjnél,left,3.7607,0,127,127,34,1,143,zatéj,zatéj,nál,é,Ez itt egy zatéj.,Nincs is jobb egy jó...,zatéjnél,zatéjnál,dzsungel,NA,NA,2066,2001,nő,nem,2022-04-17_20h25.17.513,hesp_baseline,2021.2.3,Win32,59.17509912
,,,,,,,,,,,,,,,,,danétnál,danétnél,left,4.4317,0,128,128,38,1,147,danét,danét,nál,é,Ez itt egy danét.,Nincs is jobb egy jó...,danétnél,danétnál,dzsungel,NA,NA,2066,2001,nő,nem,2022-04-17_20h25.17.513,hesp_baseline,2021.2.3,Win32,59.17509912
,,,,,,,,,,,,,,,,,dibezban,dibezben,right,3.7851,0,129,129,27,1,136,dibez,dibez,ban,e,Ez itt egy dibez.,Ott vagyunk a...,dibezben,dibezban,dzsungel,NA,NA,2066,2001,nő,nem,2022-04-17_20h25.17.513,hesp_baseline,2021.2.3,Win32,59.17509912
,,,,,,,,,,,,,,,,,sprozoznak,sprozlanak,right,9.1338,0,130,130,147,1,148,sprozlik / sprozozik,"sprozlik, sprozozni",nek,NA,"János imád sprozozni, ezért sokat sprozlik.",Ők ritkán...,sprozlanak,sprozoznak,cselekszik,-lik,1,2066,2001,nő,nem,2022-04-17_20h25.17.513,hesp_baseline,2021.2.3,Win32,59.17509912
,,,,,,,,,,,,,,,,,trájegben,trájegban,left,3.4381,0,131,131,14,1,123,trájeg,trájeg,ban,e,Ez itt egy trájeg.,Ott vagyunk a...,trájegben,trájegban,dzsungel,NA,NA,2066,2001,nő,nem,2022-04-17_20h25.17.513,hesp_baseline,2021.2.3,Win32,59.17509912
,,,,,,,,,,,,,,,,,sartelyben,sartelyban,left,2.547,0,132,132,40,1,149,sartely,sartely,ban,e,Ez itt egy sartely.,Ott vagyunk a...,sartelyben,sartelyban,dzsungel,NA,NA,2066,2001,nő,nem,2022-04-17_20h25.17.513,hesp_baseline,2021.2.3,Win32,59.17509912
,,,,,,,,,,,,,,,,,nyítemban,nyítemben,right,2.3197,0,133,133,41,1,150,nyítem,nyítem,ban,e,Ez itt egy nyítem.,Ott vagyunk a...,nyítemben,nyítemban,dzsungel,NA,NA,2066,2001,nő,nem,2022-04-17_20h25.17.513,hesp_baseline,2021.2.3,Win32,59.17509912
,,,,,,,,,,,,,,,,,nyarcéjnek,nyarcéjnak,left,2.7104,0,134,134,37,1,146,nyarcéj,nyarcéj,nak,é,Ez itt egy nyarcéj.,Elneveztem a kutyámat...,nyarcéjnek,nyarcéjnak,dzsungel,NA,NA,2066,2001,nő,nem,2022-04-17_20h25.17.513,hesp_baseline,2021.2.3,Win32,59.17509912
,,,,,,,,,,,,,,,,,csodegnél,csodegnál,left,3.1279,0,135,135,28,1,137,csodeg,csodeg,nál,e,Ez itt egy csodeg.,Nincs is jobb egy jó...,csodegnél,csodegnál,dzsungel,NA,NA,2066,2001,nő,nem,2022-04-17_20h25.17.513,hesp_baseline,2021.2.3,Win32,59.17509912
,,,,,,,,,,,,,,,,,brivepszünk,brivepedünk,left,4.7447,0,136,136,113,1,114,brivepszik / brivepedik,"brivepszik, brivepedni",ünk,NA,"János imád brivepedni, ezért sokat brivepszik.",Mi ritkán...,brivepszünk,brivepedünk,cselekszik,-szik,2,2066,2001,nő,nem,2022-04-17_20h25.17.513,hesp_baseline,2021.2.3,Win32,59.17509912
,,,,,,,,,,,,,,,,,virzanak,viroznak,left,3.9972,0,137,137,125,1,126,virzik / virozik,"virzik, virozni",nek,NA,"János imád virozni, ezért sokat virzik.",Ők ritkán...,virzanak,viroznak,cselekszik,-zik,1,2066,2001,nő,nem,2022-04-17_20h25.17.513,hesp_baseline,2021.2.3,Win32,59.17509912
,,,,,,,,,,,,,,,,,spuborzanak,spuboroznak,left,4.4181,0,138,138,161,1,162,spuborzik / spuborozik,"spuborzik, spuborozni",nek,NA,"János imád spuborozni, ezért sokat spuborzik.",Ők ritkán...,spuborzanak,spuboroznak,cselekszik,-zik,2,2066,2001,nő,nem,2022-04-17_20h25.17.513,hesp_baseline,2021.2.3,Win32,59.17509912
,,,,,,,,,,,,,,,,,nágapodnak,nágapszanak,right,12.9759,0,139,139,152,1,153,nágapszik / nágapodik,"nágapszik, nágapodni",nek,NA,"János imád nágapodni, ezért sokat nágapszik.",Ők ritkán...,nágapszanak,nágapodnak,cselekszik,-szik,2,2066,2001,nő,nem,2022-04-17_20h25.17.513,hesp_baseline,2021.2.3,Win32,59.17509912
,,,,,,,,,,,,,,,,,brotesban,brotesben,left,6.2628,0,140,140,53,1,162,brotes,brotes,ban,e,Ez itt egy brotes.,Ott vagyunk a...,brotesben,brotesban,dzsungel,NA,NA,2066,2001,nő,nem,2022-04-17_20h25.17.513,hesp_baseline,2021.2.3,Win32,59.17509912
,,,,,,,,,,,,,,,,,bratároznak,bratárzanak,left,4.4149,0,141,141,108,1,109,bratárzik / bratározik,"bratárzik, bratározni",nek,NA,"János imád bratározni, ezért sokat bratárzik.",Ők ritkán...,bratárzanak,bratároznak,cselekszik,-zik,2,2066,2001,nő,nem,2022-04-17_20h25.17.513,hesp_baseline,2021.2.3,Win32,59.17509912
,,,,,,,,,,,,,,,,,brálamlanak,brálamoznak,left,3.9272,0,142,142,144,1,145,brálamlik / brálamozik,"brálamlik, brálamozni",nek,NA,"János imád brálamozni, ezért sokat brálamlik.",Ők ritkán...,brálamlanak,brálamoznak,cselekszik,-lik,2,2066,2001,nő,nem,2022-04-17_20h25.17.513,hesp_baseline,2021.2.3,Win32,59.17509912
,,,,,,,,,,,,,,,,,flátoztok,flátlotok,right,6.8617,0,143,143,132,1,133,flátlik / flátozik,"flátlik, flátozni",tek,NA,"János imád flátozni, ezért sokat flátlik.",Ti ritkán...,flátlotok,flátoztok,cselekszik,-lik,1,2066,2001,nő,nem,2022-04-17_20h25.17.513,hesp_baseline,2021.2.3,Win32,59.17509912
,,,,,,,,,,,,,,,,,sztruglom,sztruglok,left,4.0808,0,144,144,67,1,122,sztruglik,sztruglasz,NA,NA,Te bizony sokat sztruglasz.,Én is sokat...,sztruglok,sztruglom,lakik,-lik,1,2066,2001,nő,nem,2022-04-17_20h25.17.513,hesp_baseline,2021.2.3,Win32,59.17509912
,,,,,,,,,,,,,,,,,lismévben,lismévban,left,3.4107,0,145,145,0,1,109,lismév,lismév,ban,é,Ez itt egy lismév.,Ott vagyunk a...,lismévben,lismévban,dzsungel,NA,NA,2066,2001,nő,nem,2022-04-17_20h25.17.513,hesp_baseline,2021.2.3,Win32,59.17509912
,,,,,,,,,,,,,,,,,táklok,táklom,left,1.916,0,146,146,79,1,134,táklik,táklasz,NA,NA,Te bizony sokat táklasz.,Én is sokat...,táklok,táklom,lakik,-lik,1,2066,2001,nő,nem,2022-04-17_20h25.17.513,hesp_baseline,2021.2.3,Win32,59.17509912
,,,,,,,,,,,,,,,,,szutendben,szutendban,left,4.2757,0,147,147,11,1,120,szutend,szutend,ban,e,Ez itt egy szutend.,Ott vagyunk a...,szutendben,szutendban,dzsungel,NA,NA,2066,2001,nő,nem,2022-04-17_20h25.17.513,hesp_baseline,2021.2.3,Win32,59.17509912
,,,,,,,,,,,,,,,,,vihepszem,vihepszek,right,1.7263,0,148,148,59,1,114,vihepszik,vihepszel,NA,NA,Te bizony sokat vihepszel.,Én is sokat...,vihepszek,vihepszem,lakik,-szik,2,2066,2001,nő,nem,2022-04-17_20h25.17.513,hesp_baseline,2021.2.3,Win32,59.17509912
,,,,,,,,,,,,,,,,,pijélnál,pijélnél,right,4.3817,0,149,149,3,1,112,pijél,pijél,nál,é,Ez itt egy pijél.,Nincs is jobb egy jó...,pijélnél,pijélnál,dzsungel,NA,NA,2066,2001,nő,nem,2022-04-17_20h25.17.513,hesp_baseline,2021.2.3,Win32,59.17509912
,,,,,,,,,,,,,,,,,spatelnak,spatelnek,right,5.1593,0,150,150,21,1,130,spatel,spatel,nak,e,Ez itt egy spatel.,Elneveztem a kutyámat...,spatelnek,spatelnak,dzsungel,NA,NA,2066,2001,nő,nem,2022-04-17_20h25.17.513,hesp_baseline,2021.2.3,Win32,59.17509912
,,,,,,,,,,,,,,,,,brüjlök,brüjlöm,left,1.5779,0,151,151,55,1,110,brüjlik,brüjlesz,NA,NA,Te bizony sokat brüjlesz.,Én is sokat...,brüjlök,brüjlöm,lakik,-lik,1,2066,2001,nő,nem,2022-04-17_20h25.17.513,hesp_baseline,2021.2.3,Win32,59.17509912
,,,,,,,,,,,,,,,,,briváglanak,brivágoznak,left,3.4648,0,152,152,138,1,139,briváglik / brivágozik,"briváglik, brivágozni",nek,NA,"János imád brivágozni, ezért sokat briváglik.",Ők ritkán...,briváglanak,brivágoznak,cselekszik,-lik,2,2066,2001,nő,nem,2022-04-17_20h25.17.513,hesp_baseline,2021.2.3,Win32,59.17509912
,,,,,,,,,,,,,,,,,murdesnál,murdesnél,right,4.0114,0,153,153,47,1,156,murdes,murdes,nál,e,Ez itt egy murdes.,Nincs is jobb egy jó...,murdesnél,murdesnál,dzsungel,NA,NA,2066,2001,nő,nem,2022-04-17_20h25.17.513,hesp_baseline,2021.2.3,Win32,59.17509912
,,,,,,,,,,,,,,,,,kábesznél,kábesznál,left,2.1857,0,154,154,44,1,153,kábesz,kábesz,nál,e,Ez itt egy kábesz.,Nincs is jobb egy jó...,kábesznél,kábesznál,dzsungel,NA,NA,2066,2001,nő,nem,2022-04-17_20h25.17.513,hesp_baseline,2021.2.3,Win32,59.17509912
,,,,,,,,,,,,,,,,,lűklenek,lűköznek,left,3.0474,0,155,155,136,1,137,lűklik / lűközik,"lűklik, lűközni",nek,NA,"János imád lűközni, ezért sokat lűklik.",Ők ritkán...,lűklenek,lűköznek,cselekszik,-lik,1,2066,2001,nő,nem,2022-04-17_20h25.17.513,hesp_baseline,2021.2.3,Win32,59.17509912
,,,,,,,,,,,,,,,,,trádlom,trádlok,right,1.735,0,156,156,105,1,160,trádlik,trádlasz,NA,NA,Te bizony sokat trádlasz.,Én is sokat...,trádlok,trádlom,lakik,-lik,1,2066,2001,nő,nem,2022-04-17_20h25.17.513,hesp_baseline,2021.2.3,Win32,59.17509912
,,,,,,,,,,,,,,,,,zinednak,zinednek,right,3.183,0,157,157,22,1,131,zined,zined,nak,e,Ez itt egy zined.,Elneveztem a kutyámat...,zinednek,zinednak,dzsungel,NA,NA,2066,2001,nő,nem,2022-04-17_20h25.17.513,hesp_baseline,2021.2.3,Win32,59.17509912
,,,,,,,,,,,,,,,,,drubódzom,drubódzok,left,3.4002,0,158,158,63,1,118,drubódzik,drubódzol,NA,NA,Te bizony sokat drubódzol.,Én is sokat...,drubódzok,drubódzom,lakik,-zik,2,2066,2001,nő,nem,2022-04-17_20h25.17.513,hesp_baseline,2021.2.3,Win32,59.17509912
,,,,,,,,,,,,,,,,,filánylunk,filányozunk,left,5.8872,0,159,159,134,1,135,filánylik / filányozik,"filánylik, filányozni",ünk,NA,"János imád filányozni, ezért sokat filánylik.",Mi ritkán...,filánylunk,filányozunk,cselekszik,-lik,2,2066,2001,nő,nem,2022-04-17_20h25.17.513,hesp_baseline,2021.2.3,Win32,59.17509912
,,,,,,,,,,,,,,,,,mékszek,mékszem,left,3.8299,0,160,160,71,1,126,mékszik,mékszel,NA,NA,Te bizony sokat mékszel.,Én is sokat...,mékszek,mékszem,lakik,-szik,1,2066,2001,nő,nem,2022-04-17_20h25.17.513,hesp_baseline,2021.2.3,Win32,59.17509912
,,,,,,,,,,,,,,,,,gibemlünk,gibemezünk,right,3.8941,0,161,161,115,1,116,gibemlik / gibemezik,"gibemlik, gibemezni",ünk,NA,"János imád gibemezni, ezért sokat gibemlik.",Mi ritkán...,gibemlünk,gibemezünk,cselekszik,-lik,2,2066,2001,nő,nem,2022-04-17_20h25.17.513,hesp_baseline,2021.2.3,Win32,59.17509912
