my_list,key.keys,key.rt,key_2.keys,key_2.rt,keyboard_input_2.keys,keyboard_input_2.rt,key_3.keys,key_3.rt,keyboard_input_3.keys,keyboard_input_3.rt,key_4.keys,key_4.rt,keyboard_input_4.keys,keyboard_input_4.rt,key_5.keys,key_5.rt,my_button1,my_button2,keyboard_input.keys,keyboard_input.rt,withinBlock.thisRepN,withinBlock.thisTrialN,withinBlock.thisN,withinBlock.thisIndex,withinBlock.ran,rowname,word,prompt,suffix,vowel,carrier_sentence,target_sentence,target1,target2,category,derivational,nsyl,Azonosító,Melyik évben születtél?,Mi a nemed?,Tanultál nyelvészetet?,date,expName,psychopyVersion,OS,frameRate
list2.csv,space,17.2765,space,8.3116,right,7.6922,space,12.7699,left,6.235,space,7.9669,left,8.1269,space,17.8861,spiharzotok,spiharoztok,right,39.9817,0,0,0,127,1,74,spiharzik / spiharozik,"spiharzik, spiharozni",tek,NA,"János imád spiharozni, ezért sokat spiharzik.",Ti ritkán...,spiharzotok,spiharoztok,cselekszik,-zik,2,PR2020,1998,nő,nem,2022-04-06_21h31.51.256,hesp_baseline,2021.2.3,Win32,59.96641881
,,,,,,,,,,,,,,,,,molszotok,molodtok,left,19.3037,0,1,1,142,1,89,molszik / molodik,"molszik, molodni",tek,NA,"János imád molodni, ezért sokat molszik.",Ti ritkán...,molszotok,molodtok,cselekszik,-szik,1,PR2020,1998,nő,nem,2022-04-06_21h31.51.256,hesp_baseline,2021.2.3,Win32,59.96641881
,,,,,,,,,,,,,,,,,dingecnek,dingecnak,left,8.3232,0,2,2,42,1,97,dingec,dingec,nak,e,Ez itt egy dingec.,Elneveztem a kutyámat...,dingecnek,dingecnak,dzsungel,NA,NA,PR2020,1998,nő,nem,2022-04-06_21h31.51.256,hesp_baseline,2021.2.3,Win32,59.96641881
,,,,,,,,,,,,,,,,,klajrénnek,klajrénnak,right,11.1637,0,3,3,41,1,96,klajrén,klajrén,nak,é,Ez itt egy klajrén.,Elneveztem a kutyámat...,klajrénnek,klajrénnak,dzsungel,NA,NA,PR2020,1998,nő,nem,2022-04-06_21h31.51.256,hesp_baseline,2021.2.3,Win32,59.96641881
,,,,,,,,,,,,,,,,,flerékedünk,flerékszünk,left,13.715,0,4,4,159,1,106,flerékszik / flerékedik,"flerékszik, flerékedni",ünk,NA,"János imád flerékedni, ezért sokat flerékszik.",Mi ritkán...,flerékszünk,flerékedünk,cselekszik,-szik,2,PR2020,1998,nő,nem,2022-04-06_21h31.51.256,hesp_baseline,2021.2.3,Win32,59.96641881
,,,,,,,,,,,,,,,,,klingeszban,klingeszben,right,6.3325,0,5,5,1,1,56,klingesz,klingesz,ban,e,Ez itt egy klingesz.,Ott vagyunk a...,klingeszben,klingeszban,dzsungel,NA,NA,PR2020,1998,nő,nem,2022-04-06_21h31.51.256,hesp_baseline,2021.2.3,Win32,59.96641881
,,,,,,,,,,,,,,,,,csubzunk,csubozunk,left,8.2715,0,6,6,111,1,58,csubzik / csubozik,"csubzik, csubozni",ünk,NA,"János imád csubozni, ezért sokat csubzik.",Mi ritkán...,csubzunk,csubozunk,cselekszik,-zik,1,PR2020,1998,nő,nem,2022-04-06_21h31.51.256,hesp_baseline,2021.2.3,Win32,59.96641881
,,,,,,,,,,,,,,,,,tumélynél,tumélynál,right,4.9183,0,7,7,28,1,83,tumély,tumély,nál,é,Ez itt egy tumély.,Nincs is jobb egy jó...,tumélynél,tumélynál,dzsungel,NA,NA,PR2020,1998,nő,nem,2022-04-06_21h31.51.256,hesp_baseline,2021.2.3,Win32,59.96641881
,,,,,,,,,,,,,,,,,zihencnak,zihencnek,right,4.837,0,8,8,52,1,107,zihenc,zihenc,nak,e,Ez itt egy zihenc.,Elneveztem a kutyámat...,zihencnek,zihencnak,dzsungel,NA,NA,PR2020,1998,nő,nem,2022-04-06_21h31.51.256,hesp_baseline,2021.2.3,Win32,59.96641881
,,,,,,,,,,,,,,,,,bribékszetek,bribékedtek,right,7.6372,0,9,9,141,1,88,bribékszik / bribékedik,"bribékszik, bribékedni",tek,NA,"János imád bribékedni, ezért sokat bribékszik.",Ti ritkán...,bribékszetek,bribékedtek,cselekszik,-szik,2,PR2020,1998,nő,nem,2022-04-06_21h31.51.256,hesp_baseline,2021.2.3,Win32,59.96641881
,,,,,,,,,,,,,,,,,frivamlunk,frivamozunk,right,9.2231,0,10,10,122,1,69,frivamlik / frivamozik,"frivamlik, frivamozni",ünk,NA,"János imád frivamozni, ezért sokat frivamlik.",Mi ritkán...,frivamlunk,frivamozunk,cselekszik,-lik,2,PR2020,1998,nő,nem,2022-04-06_21h31.51.256,hesp_baseline,2021.2.3,Win32,59.96641881
,,,,,,,,,,,,,,,,,tranékban,tranékben,left,10.3422,0,11,11,2,1,57,tranék,tranék,ban,é,Ez itt egy tranék.,Ott vagyunk a...,tranékben,tranékban,dzsungel,NA,NA,PR2020,1998,nő,nem,2022-04-06_21h31.51.256,hesp_baseline,2021.2.3,Win32,59.96641881
,,,,,,,,,,,,,,,,,sortemnál,sortemnél,right,4.6403,0,12,12,15,1,70,sortem,sortem,nál,e,Ez itt egy sortem.,Nincs is jobb egy jó...,sortemnél,sortemnál,dzsungel,NA,NA,PR2020,1998,nő,nem,2022-04-06_21h31.51.256,hesp_baseline,2021.2.3,Win32,59.96641881
,,,,,,,,,,,,,,,,,plugzom,plugzok,right,13.642,0,13,13,60,1,61,plugzik,plugzol,NA,NA,Te bizony sokat plugzol.,Én is sokat...,plugzok,plugzom,lakik,-zik,1,PR2020,1998,nő,nem,2022-04-06_21h31.51.256,hesp_baseline,2021.2.3,Win32,59.96641881
,,,,,,,,,,,,,,,,,pivegszek,pivegszem,right,6.4211,0,14,14,99,1,100,pivegszik,pivegszel,NA,NA,Te bizony sokat pivegszel.,Én is sokat...,pivegszek,pivegszem,lakik,-szik,2,PR2020,1998,nő,nem,2022-04-06_21h31.51.256,hesp_baseline,2021.2.3,Win32,59.96641881
,,,,,,,,,,,,,,,,,trírzunk,trírozunk,right,8.4639,0,15,15,116,1,63,trírzik / trírozik,"trírzik, trírozni",ünk,NA,"János imád trírozni, ezért sokat trírzik.",Mi ritkán...,trírzunk,trírozunk,cselekszik,-zik,1,PR2020,1998,nő,nem,2022-04-06_21h31.51.256,hesp_baseline,2021.2.3,Win32,59.96641881
,,,,,,,,,,,,,,,,,flátszok,flátszom,right,12.9175,0,16,16,98,1,99,flátszik,flátszol,NA,NA,Te bizony sokat flátszol.,Én is sokat...,flátszok,flátszom,lakik,-szik,1,PR2020,1998,nő,nem,2022-04-06_21h31.51.256,hesp_baseline,2021.2.3,Win32,59.96641881
,,,,,,,,,,,,,,,,,drojzunk,drojozunk,right,11.0368,0,17,17,140,1,87,drojzik / drojozik,"drojzik, drojozni",ünk,NA,"János imád drojozni, ezért sokat drojzik.",Mi ritkán...,drojzunk,drojozunk,cselekszik,-zik,1,PR2020,1998,nő,nem,2022-04-06_21h31.51.256,hesp_baseline,2021.2.3,Win32,59.96641881
,,,,,,,,,,,,,,,,,friszlom,friszlok,right,54.06,0,18,18,97,1,98,friszlik,friszlasz,NA,NA,Te bizony sokat friszlasz.,Én is sokat...,friszlok,friszlom,lakik,-lik,1,PR2020,1998,nő,nem,2022-04-06_21h31.51.256,hesp_baseline,2021.2.3,Win32,59.96641881
,,,,,,,,,,,,,,,,,brágédnak,brágédnek,left,10.0949,0,19,19,45,1,100,brágéd,brágéd,nak,é,Ez itt egy brágéd.,Elneveztem a kutyámat...,brágédnek,brágédnak,dzsungel,NA,NA,PR2020,1998,nő,nem,2022-04-06_21h31.51.256,hesp_baseline,2021.2.3,Win32,59.96641881
,,,,,,,,,,,,,,,,,fligzom,fligzok,right,3.8992,0,20,20,103,1,104,fligzik,fligzol,NA,NA,Te bizony sokat fligzol.,Én is sokat...,fligzok,fligzom,lakik,-zik,1,PR2020,1998,nő,nem,2022-04-06_21h31.51.256,hesp_baseline,2021.2.3,Win32,59.96641881
,,,,,,,,,,,,,,,,,bivégszem,bivégszek,right,5.071,0,21,21,68,1,69,bivégszik,bivégszel,NA,NA,Te bizony sokat bivégszel.,Én is sokat...,bivégszek,bivégszem,lakik,-szik,2,PR2020,1998,nő,nem,2022-04-06_21h31.51.256,hesp_baseline,2021.2.3,Win32,59.96641881
,,,,,,,,,,,,,,,,,nyürzenek,nyüröznek,right,9.7423,0,22,22,123,1,70,nyürzik / nyürözik,"nyürzik, nyürözni",nek,NA,"János imád nyürözni, ezért sokat nyürzik.",Ők ritkán...,nyürzenek,nyüröznek,cselekszik,-zik,1,PR2020,1998,nő,nem,2022-04-06_21h31.51.256,hesp_baseline,2021.2.3,Win32,59.96641881
,,,,,,,,,,,,,,,,,garcépnál,garcépnél,right,7.9415,0,23,23,38,1,93,garcép,garcép,nál,é,Ez itt egy garcép.,Nincs is jobb egy jó...,garcépnél,garcépnál,dzsungel,NA,NA,PR2020,1998,nő,nem,2022-04-06_21h31.51.256,hesp_baseline,2021.2.3,Win32,59.96641881
,,,,,,,,,,,,,,,,,kluhéjnál,kluhéjnél,left,10.3922,0,24,24,24,1,79,kluhéj,kluhéj,nál,é,Ez itt egy kluhéj.,Nincs is jobb egy jó...,kluhéjnél,kluhéjnál,dzsungel,NA,NA,PR2020,1998,nő,nem,2022-04-06_21h31.51.256,hesp_baseline,2021.2.3,Win32,59.96641881
,,,,,,,,,,,,,,,,,gihamlanak,gihamoznak,right,10.054,0,25,25,133,1,80,gihamlik / gihamozik,"gihamlik, gihamozni",nek,NA,"János imád gihamozni, ezért sokat gihamlik.",Ők ritkán...,gihamlanak,gihamoznak,cselekszik,-lik,2,PR2020,1998,nő,nem,2022-04-06_21h31.51.256,hesp_baseline,2021.2.3,Win32,59.96641881
,,,,,,,,,,,,,,,,,flitlom,flitlok,right,5.2468,0,26,26,90,1,91,flitlik,flitlasz,NA,NA,Te bizony sokat flitlasz.,Én is sokat...,flitlok,flitlom,lakik,-lik,1,PR2020,1998,nő,nem,2022-04-06_21h31.51.256,hesp_baseline,2021.2.3,Win32,59.96641881
,,,,,,,,,,,,,,,,,lorjódzom,lorjódzok,right,7.5016,0,27,27,88,1,89,lorjódzik,lorjódzol,NA,NA,Te bizony sokat lorjódzol.,Én is sokat...,lorjódzok,lorjódzom,lakik,-zik,2,PR2020,1998,nő,nem,2022-04-06_21h31.51.256,hesp_baseline,2021.2.3,Win32,59.96641881
,,,,,,,,,,,,,,,,,tiregzek,tiregzem,left,7.9169,0,28,28,64,1,65,tiregzik,tiregzel,NA,NA,Te bizony sokat tiregzel.,Én is sokat...,tiregzek,tiregzem,lakik,-zik,2,PR2020,1998,nő,nem,2022-04-06_21h31.51.256,hesp_baseline,2021.2.3,Win32,59.96641881
,,,,,,,,,,,,,,,,,spihegzem,spihegzek,right,4.3009,0,29,29,81,1,82,spihegzik,spihegzel,NA,NA,Te bizony sokat spihegzel.,Én is sokat...,spihegzek,spihegzem,lakik,-zik,2,PR2020,1998,nő,nem,2022-04-06_21h31.51.256,hesp_baseline,2021.2.3,Win32,59.96641881
,,,,,,,,,,,,,,,,,hubonyoztok,hubonylotok,left,24.5996,0,30,30,157,1,104,hubonylik / hubonyozik,"hubonylik, hubonyozni",tek,NA,"János imád hubonyozni, ezért sokat hubonylik.",Ti ritkán...,hubonylotok,hubonyoztok,cselekszik,-lik,2,PR2020,1998,nő,nem,2022-04-06_21h31.51.256,hesp_baseline,2021.2.3,Win32,59.96641881
,,,,,,,,,,,,,,,,,fröjlünk,fröjözünk,right,8.6852,0,31,31,117,1,64,fröjlik / fröjözik,"fröjlik, fröjözni",ünk,NA,"János imád fröjözni, ezért sokat fröjlik.",Mi ritkán...,fröjlünk,fröjözünk,cselekszik,-lik,1,PR2020,1998,nő,nem,2022-04-06_21h31.51.256,hesp_baseline,2021.2.3,Win32,59.96641881
,,,,,,,,,,,,,,,,,klűmlötök,klűmöztök,right,8.2994,0,32,32,108,1,55,klűmlik / klűmözik,"klűmlik, klűmözni",tek,NA,"János imád klűmözni, ezért sokat klűmlik.",Ti ritkán...,klűmlötök,klűmöztök,cselekszik,-lik,1,PR2020,1998,nő,nem,2022-04-06_21h31.51.256,hesp_baseline,2021.2.3,Win32,59.96641881
,,,,,,,,,,,,,,,,,csíszlom,csíszlok,right,5.6345,0,33,33,84,1,85,csíszlik,csíszlasz,NA,NA,Te bizony sokat csíszlasz.,Én is sokat...,csíszlok,csíszlom,lakik,-lik,1,PR2020,1998,nő,nem,2022-04-06_21h31.51.256,hesp_baseline,2021.2.3,Win32,59.96641881
,,,,,,,,,,,,,,,,,sprűröznek,sprűrlenek,left,14.4094,0,34,34,135,1,82,sprűrlik / sprűrözik,"sprűrlik, sprűrözni",nek,NA,"János imád sprűrözni, ezért sokat sprűrlik.",Ők ritkán...,sprűrlenek,sprűröznek,cselekszik,-lik,1,PR2020,1998,nő,nem,2022-04-06_21h31.51.256,hesp_baseline,2021.2.3,Win32,59.96641881
,,,,,,,,,,,,,,,,,praslom,praslok,right,3.3532,0,35,35,80,1,81,praslik,praslasz,NA,NA,Te bizony sokat praslasz.,Én is sokat...,praslok,praslom,lakik,-lik,1,PR2020,1998,nő,nem,2022-04-06_21h31.51.256,hesp_baseline,2021.2.3,Win32,59.96641881
,,,,,,,,,,,,,,,,,sprigoztok,sprigzotok,left,10.8543,0,36,36,129,1,76,sprigzik / sprigozik,"sprigzik, sprigozni",tek,NA,"János imád sprigozni, ezért sokat sprigzik.",Ti ritkán...,sprigzotok,sprigoztok,cselekszik,-zik,1,PR2020,1998,nő,nem,2022-04-06_21h31.51.256,hesp_baseline,2021.2.3,Win32,59.96641881
,,,,,,,,,,,,,,,,,prihegednek,prihegszenek,left,11.958,0,37,37,155,1,102,prihegszik / prihegedik,"prihegszik, prihegedni",nek,NA,"János imád prihegedni, ezért sokat prihegszik.",Ők ritkán...,prihegszenek,prihegednek,cselekszik,-szik,2,PR2020,1998,nő,nem,2022-04-06_21h31.51.256,hesp_baseline,2021.2.3,Win32,59.96641881
,,,,,,,,,,,,,,,,,míjzunk,míjozunk,right,7.8548,0,38,38,114,1,61,míjzik / míjozik,"míjzik, míjozni",ünk,NA,"János imád míjozni, ezért sokat míjzik.",Mi ritkán...,míjzunk,míjozunk,cselekszik,-zik,1,PR2020,1998,nő,nem,2022-04-06_21h31.51.256,hesp_baseline,2021.2.3,Win32,59.96641881
,,,,,,,,,,,,,,,,,navecban,navecben,right,6.4974,0,39,39,8,1,63,navec,navec,ban,e,Ez itt egy navec.,Ott vagyunk a...,navecben,navecban,dzsungel,NA,NA,PR2020,1998,nő,nem,2022-04-06_21h31.51.256,hesp_baseline,2021.2.3,Win32,59.96641881
,,,,,,,,,,,,,,,,,nyametban,nyametben,right,5.3524,0,40,40,17,1,72,nyamet,nyamet,ban,e,Ez itt egy nyamet.,Ott vagyunk a...,nyametben,nyametban,dzsungel,NA,NA,PR2020,1998,nő,nem,2022-04-06_21h31.51.256,hesp_baseline,2021.2.3,Win32,59.96641881
,,,,,,,,,,,,,,,,,pratánylok,pratánylom,left,4.5968,0,41,41,95,1,96,pratánylik,pratánylasz,NA,NA,Te bizony sokat pratánylasz.,Én is sokat...,pratánylok,pratánylom,lakik,-lik,2,PR2020,1998,nő,nem,2022-04-06_21h31.51.256,hesp_baseline,2021.2.3,Win32,59.96641881
,,,,,,,,,,,,,,,,,frodlok,frodlom,left,3.4168,0,42,42,61,1,62,frodlik,frodlasz,NA,NA,Te bizony sokat frodlasz.,Én is sokat...,frodlok,frodlom,lakik,-lik,1,PR2020,1998,nő,nem,2022-04-06_21h31.51.256,hesp_baseline,2021.2.3,Win32,59.96641881
,,,,,,,,,,,,,,,,,fájézben,fájézban,right,6.1818,0,43,43,7,1,62,fájéz,fájéz,ban,é,Ez itt egy fájéz.,Ott vagyunk a...,fájézben,fájézban,dzsungel,NA,NA,PR2020,1998,nő,nem,2022-04-06_21h31.51.256,hesp_baseline,2021.2.3,Win32,59.96641881
,,,,,,,,,,,,,,,,,figlok,figlom,left,3.7655,0,44,44,75,1,76,figlik,figlasz,NA,NA,Te bizony sokat figlasz.,Én is sokat...,figlok,figlom,lakik,-lik,1,PR2020,1998,nő,nem,2022-04-06_21h31.51.256,hesp_baseline,2021.2.3,Win32,59.96641881
,,,,,,,,,,,,,,,,,flodlotok,flodoztok,right,8.6793,0,45,45,144,1,91,flodlik / flodozik,"flodlik, flodozni",tek,NA,"János imád flodozni, ezért sokat flodlik.",Ti ritkán...,flodlotok,flodoztok,cselekszik,-lik,1,PR2020,1998,nő,nem,2022-04-06_21h31.51.256,hesp_baseline,2021.2.3,Win32,59.96641881
,,,,,,,,,,,,,,,,,dárakszunk,dárakodunk,right,6.3066,0,46,46,126,1,73,dárakszik / dárakodik,"dárakszik, dárakodni",ünk,NA,"János imád dárakodni, ezért sokat dárakszik.",Mi ritkán...,dárakszunk,dárakodunk,cselekszik,-szik,2,PR2020,1998,nő,nem,2022-04-06_21h31.51.256,hesp_baseline,2021.2.3,Win32,59.96641881
,,,,,,,,,,,,,,,,,sprízemnél,sprízemnál,left,6.8969,0,47,47,22,1,77,sprízem,sprízem,nál,e,Ez itt egy sprízem.,Nincs is jobb egy jó...,sprízemnél,sprízemnál,dzsungel,NA,NA,PR2020,1998,nő,nem,2022-04-06_21h31.51.256,hesp_baseline,2021.2.3,Win32,59.96641881
,,,,,,,,,,,,,,,,,ribzom,ribzok,right,4.1262,0,48,48,58,1,59,ribzik,ribzol,NA,NA,Te bizony sokat ribzol.,Én is sokat...,ribzok,ribzom,lakik,-zik,1,PR2020,1998,nő,nem,2022-04-06_21h31.51.256,hesp_baseline,2021.2.3,Win32,59.96641881
,,,,,,,,,,,,,,,,,klazérban,klazérben,left,7.0202,0,49,49,51,1,106,klazér,klazér,ban,é,Ez itt egy klazér.,Ott vagyunk a...,klazérben,klazérban,dzsungel,NA,NA,PR2020,1998,nő,nem,2022-04-06_21h31.51.256,hesp_baseline,2021.2.3,Win32,59.96641881
,,,,,,,,,,,,,,,,,spöközünk,spöklünk,left,11.2564,0,50,50,130,1,77,spöklik / spöközik,"spöklik, spöközni",ünk,NA,"János imád spöközni, ezért sokat spöklik.",Mi ritkán...,spöklünk,spöközünk,cselekszik,-lik,1,PR2020,1998,nő,nem,2022-04-06_21h31.51.256,hesp_baseline,2021.2.3,Win32,59.96641881
,,,,,,,,,,,,,,,,,nyábétban,nyábétben,left,8.8034,0,51,51,21,1,76,nyábét,nyábét,ban,é,Ez itt egy nyábét.,Ott vagyunk a...,nyábétben,nyábétban,dzsungel,NA,NA,PR2020,1998,nő,nem,2022-04-06_21h31.51.256,hesp_baseline,2021.2.3,Win32,59.96641881
,,,,,,,,,,,,,,,,,sponyoznak,sponylanak,left,58.8847,0,52,52,125,1,72,sponylik / sponyozik,"sponylik, sponyozni",nek,NA,"János imád sponyozni, ezért sokat sponylik.",Ők ritkán...,sponylanak,sponyoznak,cselekszik,-lik,1,PR2020,1998,nő,nem,2022-04-06_21h31.51.256,hesp_baseline,2021.2.3,Win32,59.96641881
,,,,,,,,,,,,,,,,,nyádoznak,nyádlanak,left,5.4992,0,53,53,120,1,67,nyádlik / nyádozik,"nyádlik, nyádozni",nek,NA,"János imád nyádozni, ezért sokat nyádlik.",Ők ritkán...,nyádlanak,nyádoznak,cselekszik,-lik,1,PR2020,1998,nő,nem,2022-04-06_21h31.51.256,hesp_baseline,2021.2.3,Win32,59.96641881
,,,,,,,,,,,,,,,,,gyihegzetek,gyihegeztek,right,7.2588,0,54,54,124,1,71,gyihegzik / gyihegezik,"gyihegzik, gyihegezni",tek,NA,"János imád gyihegezni, ezért sokat gyihegzik.",Ti ritkán...,gyihegzetek,gyihegeztek,cselekszik,-zik,2,PR2020,1998,nő,nem,2022-04-06_21h31.51.256,hesp_baseline,2021.2.3,Win32,59.96641881
,,,,,,,,,,,,,,,,,gúdenben,gúdenban,left,4.5508,0,55,55,4,1,59,gúden,gúden,ban,e,Ez itt egy gúden.,Ott vagyunk a...,gúdenben,gúdenban,dzsungel,NA,NA,PR2020,1998,nő,nem,2022-04-06_21h31.51.256,hesp_baseline,2021.2.3,Win32,59.96641881
,,,,,,,,,,,,,,,,,csimennél,csimennál,left,4.3243,0,56,56,44,1,99,csimen,csimen,nál,e,Ez itt egy csimen.,Nincs is jobb egy jó...,csimennél,csimennál,dzsungel,NA,NA,PR2020,1998,nő,nem,2022-04-06_21h31.51.256,hesp_baseline,2021.2.3,Win32,59.96641881
,,,,,,,,,,,,,,,,,daboztok,dabzotok,left,11.1647,0,57,57,109,1,56,dabzik / dabozik,"dabzik, dabozni",tek,NA,"János imád dabozni, ezért sokat dabzik.",Ti ritkán...,dabzotok,daboztok,cselekszik,-zik,1,PR2020,1998,nő,nem,2022-04-06_21h31.51.256,hesp_baseline,2021.2.3,Win32,59.96641881
,,,,,,,,,,,,,,,,,ikszertben,ikszertban,left,3.6147,0,58,58,19,1,74,ikszert,ikszert,ban,e,Ez itt egy ikszert.,Ott vagyunk a...,ikszertben,ikszertban,dzsungel,NA,NA,PR2020,1998,nő,nem,2022-04-06_21h31.51.256,hesp_baseline,2021.2.3,Win32,59.96641881
,,,,,,,,,,,,,,,,,femlem,femlek,right,2.8826,0,59,59,57,1,58,femlik,femlesz,NA,NA,Te bizony sokat femlesz.,Én is sokat...,femlek,femlem,lakik,-lik,1,PR2020,1998,nő,nem,2022-04-06_21h31.51.256,hesp_baseline,2021.2.3,Win32,59.96641881
,,,,,,,,,,,,,,,,,szirlom,szirlok,right,2.4836,0,60,60,62,1,63,szirlik,szirlasz,NA,NA,Te bizony sokat szirlasz.,Én is sokat...,szirlok,szirlom,lakik,-lik,1,PR2020,1998,nő,nem,2022-04-06_21h31.51.256,hesp_baseline,2021.2.3,Win32,59.96641881
,,,,,,,,,,,,,,,,,kalrézben,kalrézban,left,6.5252,0,61,61,16,1,71,kalréz,kalréz,ban,é,Ez itt egy kalréz.,Ott vagyunk a...,kalrézben,kalrézban,dzsungel,NA,NA,PR2020,1998,nő,nem,2022-04-06_21h31.51.256,hesp_baseline,2021.2.3,Win32,59.96641881
,,,,,,,,,,,,,,,,,ribegzem,ribegzek,right,3.9294,0,62,62,63,1,64,ribegzik,ribegzel,NA,NA,Te bizony sokat ribegzel.,Én is sokat...,ribegzek,ribegzem,lakik,-zik,2,PR2020,1998,nő,nem,2022-04-06_21h31.51.256,hesp_baseline,2021.2.3,Win32,59.96641881
,,,,,,,,,,,,,,,,,fröjöztök,fröjzötök,left,6.6778,0,63,63,153,1,100,fröjzik / fröjözik,"fröjzik, fröjözni",tek,NA,"János imád fröjözni, ezért sokat fröjzik.",Ti ritkán...,fröjzötök,fröjöztök,cselekszik,-zik,1,PR2020,1998,nő,nem,2022-04-06_21h31.51.256,hesp_baseline,2021.2.3,Win32,59.96641881
,,,,,,,,,,,,,,,,,sprebzenek,sprebeznek,right,6.9782,0,64,64,139,1,86,sprebzik / sprebezik,"sprebzik, sprebezni",nek,NA,"János imád sprebezni, ezért sokat sprebzik.",Ők ritkán...,sprebzenek,sprebeznek,cselekszik,-zik,1,PR2020,1998,nő,nem,2022-04-06_21h31.51.256,hesp_baseline,2021.2.3,Win32,59.96641881
,,,,,,,,,,,,,,,,,szűslöm,szűslök,right,5.3295,0,65,65,85,1,86,szűslik,szűslesz,NA,NA,Te bizony sokat szűslesz.,Én is sokat...,szűslök,szűslöm,lakik,-lik,1,PR2020,1998,nő,nem,2022-04-06_21h31.51.256,hesp_baseline,2021.2.3,Win32,59.96641881
,,,,,,,,,,,,,,,,,spülűdzöm,spülűdzök,right,8.0575,0,66,66,56,1,57,spülűdzik,spülűdzöl,NA,NA,Te bizony sokat spülűdzöl.,Én is sokat...,spülűdzök,spülűdzöm,lakik,-zik,2,PR2020,1998,nő,nem,2022-04-06_21h31.51.256,hesp_baseline,2021.2.3,Win32,59.96641881
,,,,,,,,,,,,,,,,,trugzanak,trugoznak,right,5.726,0,67,67,146,1,93,trugzik / trugozik,"trugzik, trugozni",nek,NA,"János imád trugozni, ezért sokat trugzik.",Ők ritkán...,trugzanak,trugoznak,cselekszik,-zik,1,PR2020,1998,nő,nem,2022-04-06_21h31.51.256,hesp_baseline,2021.2.3,Win32,59.96641881
,,,,,,,,,,,,,,,,,livénylünk,livényezünk,right,9.6121,0,68,68,128,1,75,livénylik / livényezik,"livénylik, livényezni",ünk,NA,"János imád livényezni, ezért sokat livénylik.",Mi ritkán...,livénylünk,livényezünk,cselekszik,-lik,2,PR2020,1998,nő,nem,2022-04-06_21h31.51.256,hesp_baseline,2021.2.3,Win32,59.96641881
,,,,,,,,,,,,,,,,,dineltban,dineltben,right,4.1956,0,69,69,0,1,55,dinelt,dinelt,ban,e,Ez itt egy dinelt.,Ott vagyunk a...,dineltben,dineltban,dzsungel,NA,NA,PR2020,1998,nő,nem,2022-04-06_21h31.51.256,hesp_baseline,2021.2.3,Win32,59.96641881
,,,,,,,,,,,,,,,,,fivénylem,fivénylek,right,3.7197,0,70,70,78,1,79,fivénylik,fivénylesz,NA,NA,Te bizony sokat fivénylesz.,Én is sokat...,fivénylek,fivénylem,lakik,-lik,2,PR2020,1998,nő,nem,2022-04-06_21h31.51.256,hesp_baseline,2021.2.3,Win32,59.96641881
,,,,,,,,,,,,,,,,,ruslok,ruslom,left,2.9708,0,71,71,83,1,84,ruslik,ruslasz,NA,NA,Te bizony sokat ruslasz.,Én is sokat...,ruslok,ruslom,lakik,-lik,1,PR2020,1998,nő,nem,2022-04-06_21h31.51.256,hesp_baseline,2021.2.3,Win32,59.96641881
,,,,,,,,,,,,,,,,,zutennál,zutennél,right,4.4666,0,72,72,43,1,98,zuten,zuten,nál,e,Ez itt egy zuten.,Nincs is jobb egy jó...,zutennél,zutennál,dzsungel,NA,NA,PR2020,1998,nő,nem,2022-04-06_21h31.51.256,hesp_baseline,2021.2.3,Win32,59.96641881
,,,,,,,,,,,,,,,,,nyöbzenek,nyöböznek,right,9.8545,0,73,73,152,1,99,nyöbzik / nyöbözik,"nyöbzik, nyöbözni",nek,NA,"János imád nyöbözni, ezért sokat nyöbzik.",Ők ritkán...,nyöbzenek,nyöböznek,cselekszik,-zik,1,PR2020,1998,nő,nem,2022-04-06_21h31.51.256,hesp_baseline,2021.2.3,Win32,59.96641881
,,,,,,,,,,,,,,,,,dilaklotok,dilakoztok,right,9.5951,0,74,74,158,1,105,dilaklik / dilakozik,"dilaklik, dilakozni",tek,NA,"János imád dilakozni, ezért sokat dilaklik.",Ti ritkán...,dilaklotok,dilakoztok,cselekszik,-lik,2,PR2020,1998,nő,nem,2022-04-06_21h31.51.256,hesp_baseline,2021.2.3,Win32,59.96641881
,,,,,,,,,,,,,,,,,pítendben,pítendban,left,6.4086,0,75,75,18,1,73,pítend,pítend,ban,e,Ez itt egy pítend.,Ott vagyunk a...,pítendben,pítendban,dzsungel,NA,NA,PR2020,1998,nő,nem,2022-04-06_21h31.51.256,hesp_baseline,2021.2.3,Win32,59.96641881
,,,,,,,,,,,,,,,,,frálasoznak,frálaslanak,left,7.7812,0,76,76,110,1,57,frálaslik / frálasozik,"frálaslik, frálasozni",nek,NA,"János imád frálasozni, ezért sokat frálaslik.",Ők ritkán...,frálaslanak,frálasoznak,cselekszik,-lik,2,PR2020,1998,nő,nem,2022-04-06_21h31.51.256,hesp_baseline,2021.2.3,Win32,59.96641881
,,,,,,,,,,,,,,,,,bingéjnak,bingéjnek,right,6.2416,0,77,77,49,1,104,bingéj,bingéj,nak,é,Ez itt egy bingéj.,Elneveztem a kutyámat...,bingéjnek,bingéjnak,dzsungel,NA,NA,PR2020,1998,nő,nem,2022-04-06_21h31.51.256,hesp_baseline,2021.2.3,Win32,59.96641881
,,,,,,,,,,,,,,,,,flemezünk,flemlünk,left,6.1283,0,78,78,137,1,84,flemlik / flemezik,"flemlik, flemezni",ünk,NA,"János imád flemezni, ezért sokat flemlik.",Mi ritkán...,flemlünk,flemezünk,cselekszik,-lik,1,PR2020,1998,nő,nem,2022-04-06_21h31.51.256,hesp_baseline,2021.2.3,Win32,59.96641881
,,,,,,,,,,,,,,,,,ronvetnek,ronvetnak,left,4.6988,0,79,79,9,1,64,ronvet,ronvet,nak,e,Ez itt egy ronvet.,Elneveztem a kutyámat...,ronvetnek,ronvetnak,dzsungel,NA,NA,PR2020,1998,nő,nem,2022-04-06_21h31.51.256,hesp_baseline,2021.2.3,Win32,59.96641881
,,,,,,,,,,,,,,,,,fibamlok,fibamlom,left,4.0031,0,80,80,65,1,66,fibamlik,fibamlasz,NA,NA,Te bizony sokat fibamlasz.,Én is sokat...,fibamlok,fibamlom,lakik,-lik,2,PR2020,1998,nő,nem,2022-04-06_21h31.51.256,hesp_baseline,2021.2.3,Win32,59.96641881
,,,,,,,,,,,,,,,,,gihesztnek,gihesztnak,left,4.2288,0,81,81,36,1,91,giheszt,giheszt,nak,e,Ez itt egy giheszt.,Elneveztem a kutyámat...,gihesztnek,gihesztnak,dzsungel,NA,NA,PR2020,1998,nő,nem,2022-04-06_21h31.51.256,hesp_baseline,2021.2.3,Win32,59.96641881
,,,,,,,,,,,,,,,,,brágaklok,brágaklom,left,4.6987,0,82,82,71,1,72,brágaklik,brágaklasz,NA,NA,Te bizony sokat brágaklasz.,Én is sokat...,brágaklok,brágaklom,lakik,-lik,2,PR2020,1998,nő,nem,2022-04-06_21h31.51.256,hesp_baseline,2021.2.3,Win32,59.96641881
,,,,,,,,,,,,,,,,,rapszeknél,rapszeknál,left,4.7956,0,83,83,35,1,90,rapszek,rapszek,nál,e,Ez itt egy rapszek.,Nincs is jobb egy jó...,rapszeknél,rapszeknál,dzsungel,NA,NA,PR2020,1998,nő,nem,2022-04-06_21h31.51.256,hesp_baseline,2021.2.3,Win32,59.96641881
,,,,,,,,,,,,,,,,,kátédnál,kátédnél,left,10.9842,0,84,84,37,1,92,kátéd,kátéd,nál,é,Ez itt egy kátéd.,Nincs is jobb egy jó...,kátédnél,kátédnál,dzsungel,NA,NA,PR2020,1998,nő,nem,2022-04-06_21h31.51.256,hesp_baseline,2021.2.3,Win32,59.96641881
,,,,,,,,,,,,,,,,,spizecnak,spizecnek,right,4.8726,0,85,85,6,1,61,spizec,spizec,nak,e,Ez itt egy spizec.,Elneveztem a kutyámat...,spizecnek,spizecnak,dzsungel,NA,NA,PR2020,1998,nő,nem,2022-04-06_21h31.51.256,hesp_baseline,2021.2.3,Win32,59.96641881
,,,,,,,,,,,,,,,,,vorszennál,vorszennél,right,6.2973,0,86,86,30,1,85,vorszen,vorszen,nál,e,Ez itt egy vorszen.,Nincs is jobb egy jó...,vorszennél,vorszennál,dzsungel,NA,NA,PR2020,1998,nő,nem,2022-04-06_21h31.51.256,hesp_baseline,2021.2.3,Win32,59.96641881
,,,,,,,,,,,,,,,,,ítensben,ítensban,left,7.3118,0,87,87,50,1,105,ítens,ítens,ban,e,Ez itt egy ítens.,Ott vagyunk a...,ítensben,ítensban,dzsungel,NA,NA,PR2020,1998,nő,nem,2022-04-06_21h31.51.256,hesp_baseline,2021.2.3,Win32,59.96641881
,,,,,,,,,,,,,,,,,gilárzok,gilárzom,left,3.9128,0,88,88,94,1,95,gilárzik,gilárzol,NA,NA,Te bizony sokat gilárzol.,Én is sokat...,gilárzok,gilárzom,lakik,-zik,2,PR2020,1998,nő,nem,2022-04-06_21h31.51.256,hesp_baseline,2021.2.3,Win32,59.96641881
,,,,,,,,,,,,,,,,,forzédnak,forzédnek,left,10.479,0,89,89,46,1,101,forzéd,forzéd,nak,é,Ez itt egy forzéd.,Elneveztem a kutyámat...,forzédnek,forzédnak,dzsungel,NA,NA,PR2020,1998,nő,nem,2022-04-06_21h31.51.256,hesp_baseline,2021.2.3,Win32,59.96641881
,,,,,,,,,,,,,,,,,brivegzem,brivegzek,right,4.3284,0,90,90,70,1,71,brivegzik,brivegzel,NA,NA,Te bizony sokat brivegzel.,Én is sokat...,brivegzek,brivegzem,lakik,-zik,2,PR2020,1998,nő,nem,2022-04-06_21h31.51.256,hesp_baseline,2021.2.3,Win32,59.96641881
,,,,,,,,,,,,,,,,,zarcégnál,zarcégnél,right,6.1691,0,91,91,29,1,84,zarcég,zarcég,nál,é,Ez itt egy zarcég.,Nincs is jobb egy jó...,zarcégnél,zarcégnál,dzsungel,NA,NA,PR2020,1998,nő,nem,2022-04-06_21h31.51.256,hesp_baseline,2021.2.3,Win32,59.96641881
,,,,,,,,,,,,,,,,,flűröklök,flűröklöm,left,4.597,0,92,92,91,1,92,flűröklik,flűröklesz,NA,NA,Te bizony sokat flűröklesz.,Én is sokat...,flűröklök,flűröklöm,lakik,-lik,2,PR2020,1998,nő,nem,2022-04-06_21h31.51.256,hesp_baseline,2021.2.3,Win32,59.96641881
,,,,,,,,,,,,,,,,,nidétban,nidétben,right,6.9688,0,93,93,39,1,94,nidét,nidét,ban,é,Ez itt egy nidét.,Ott vagyunk a...,nidétben,nidétban,dzsungel,NA,NA,PR2020,1998,nő,nem,2022-04-06_21h31.51.256,hesp_baseline,2021.2.3,Win32,59.96641881
,,,,,,,,,,,,,,,,,kumlom,kumlok,right,5.9727,0,94,94,105,1,106,kumlik,kumlasz,NA,NA,Te bizony sokat kumlasz.,Én is sokat...,kumlok,kumlom,lakik,-lik,1,PR2020,1998,nő,nem,2022-04-06_21h31.51.256,hesp_baseline,2021.2.3,Win32,59.96641881
,,,,,,,,,,,,,,,,,fojlegynak,fojlegynek,right,5.1047,0,95,95,3,1,58,fojlegy,fojlegy,nak,e,Ez itt egy fojlegy.,Elneveztem a kutyámat...,fojlegynek,fojlegynak,dzsungel,NA,NA,PR2020,1998,nő,nem,2022-04-06_21h31.51.256,hesp_baseline,2021.2.3,Win32,59.96641881
,,,,,,,,,,,,,,,,,júdernak,júdernek,right,4.6823,0,96,96,53,1,108,júder,júder,nak,e,Ez itt egy júder.,Elneveztem a kutyámat...,júdernek,júdernak,dzsungel,NA,NA,PR2020,1998,nő,nem,2022-04-06_21h31.51.256,hesp_baseline,2021.2.3,Win32,59.96641881
,,,,,,,,,,,,,,,,,csintékban,csintékben,left,5.9233,0,97,97,23,1,78,csinték,csinték,ban,é,Ez itt egy csinték.,Ott vagyunk a...,csintékben,csintékban,dzsungel,NA,NA,PR2020,1998,nő,nem,2022-04-06_21h31.51.256,hesp_baseline,2021.2.3,Win32,59.96641881
,,,,,,,,,,,,,,,,,tomlok,tomlom,right,2.2566,0,98,98,86,1,87,tomlik,tomlasz,NA,NA,Te bizony sokat tomlasz.,Én is sokat...,tomlok,tomlom,lakik,-lik,1,PR2020,1998,nő,nem,2022-04-06_21h31.51.256,hesp_baseline,2021.2.3,Win32,59.96641881
,,,,,,,,,,,,,,,,,lihadzok,lihadzom,left,2.8585,0,99,99,101,1,102,lihadzik,lihadzol,NA,NA,Te bizony sokat lihadzol.,Én is sokat...,lihadzok,lihadzom,lakik,-zik,2,PR2020,1998,nő,nem,2022-04-06_21h31.51.256,hesp_baseline,2021.2.3,Win32,59.96641881
,,,,,,,,,,,,,,,,,prohódzok,prohódzom,left,2.6591,0,100,100,66,1,67,prohódzik,prohódzol,NA,NA,Te bizony sokat prohódzol.,Én is sokat...,prohódzok,prohódzom,lakik,-zik,2,PR2020,1998,nő,nem,2022-04-06_21h31.51.256,hesp_baseline,2021.2.3,Win32,59.96641881
,,,,,,,,,,,,,,,,,spubonylom,spubonylok,right,4.0062,0,101,101,104,1,105,spubonylik,spubonylasz,NA,NA,Te bizony sokat spubonylasz.,Én is sokat...,spubonylok,spubonylom,lakik,-lik,2,PR2020,1998,nő,nem,2022-04-06_21h31.51.256,hesp_baseline,2021.2.3,Win32,59.96641881
,,,,,,,,,,,,,,,,,dihelynak,dihelynek,right,3.4497,0,102,102,20,1,75,dihely,dihely,nak,e,Ez itt egy dihely.,Elneveztem a kutyámat...,dihelynek,dihelynak,dzsungel,NA,NA,PR2020,1998,nő,nem,2022-04-06_21h31.51.256,hesp_baseline,2021.2.3,Win32,59.96641881
,,,,,,,,,,,,,,,,,flüröslöm,flüröslök,right,5.7488,0,103,103,87,1,88,flüröslik,flüröslesz,NA,NA,Te bizony sokat flüröslesz.,Én is sokat...,flüröslök,flüröslöm,lakik,-lik,2,PR2020,1998,nő,nem,2022-04-06_21h31.51.256,hesp_baseline,2021.2.3,Win32,59.96641881
,,,,,,,,,,,,,,,,,spivélnak,spivélnek,right,8.8346,0,104,104,27,1,82,spivél,spivél,nak,é,Ez itt egy spivél.,Elneveztem a kutyámat...,spivélnek,spivélnak,dzsungel,NA,NA,PR2020,1998,nő,nem,2022-04-06_21h31.51.256,hesp_baseline,2021.2.3,Win32,59.96641881
,,,,,,,,,,,,,,,,,játozunk,játlunk,left,5.9104,0,105,105,145,1,92,játlik / játozik,"játlik, játozni",ünk,NA,"János imád játozni, ezért sokat játlik.",Mi ritkán...,játlunk,játozunk,cselekszik,-lik,1,PR2020,1998,nő,nem,2022-04-06_21h31.51.256,hesp_baseline,2021.2.3,Win32,59.96641881
,,,,,,,,,,,,,,,,,flagánylom,flagánylok,right,6.1787,0,106,106,82,1,83,flagánylik,flagánylasz,NA,NA,Te bizony sokat flagánylasz.,Én is sokat...,flagánylok,flagánylom,lakik,-lik,2,PR2020,1998,nő,nem,2022-04-06_21h31.51.256,hesp_baseline,2021.2.3,Win32,59.96641881
,,,,,,,,,,,,,,,,,szanéjnak,szanéjnek,left,3.7635,0,107,107,13,1,68,szanéj,szanéj,nak,é,Ez itt egy szanéj.,Elneveztem a kutyámat...,szanéjnek,szanéjnak,dzsungel,NA,NA,PR2020,1998,nő,nem,2022-04-06_21h31.51.256,hesp_baseline,2021.2.3,Win32,59.96641881
,,,,,,,,,,,,,,,,,lingéknál,lingéknél,right,5.0832,0,108,108,32,1,87,lingék,lingék,nál,é,Ez itt egy lingék.,Nincs is jobb egy jó...,lingéknél,lingéknál,dzsungel,NA,NA,PR2020,1998,nő,nem,2022-04-06_21h31.51.256,hesp_baseline,2021.2.3,Win32,59.96641881
,,,,,,,,,,,,,,,,,flűmlök,flűmlöm,left,3.0314,0,109,109,54,1,55,flűmlik,flűmlesz,NA,NA,Te bizony sokat flűmlesz.,Én is sokat...,flűmlök,flűmlöm,lakik,-lik,1,PR2020,1998,nő,nem,2022-04-06_21h31.51.256,hesp_baseline,2021.2.3,Win32,59.96641881
,,,,,,,,,,,,,,,,,sprogzok,sprogzom,left,3.2357,0,110,110,89,1,90,sprogzik,sprogzol,NA,NA,Te bizony sokat sprogzol.,Én is sokat...,sprogzok,sprogzom,lakik,-zik,1,PR2020,1998,nő,nem,2022-04-06_21h31.51.256,hesp_baseline,2021.2.3,Win32,59.96641881
,,,,,,,,,,,,,,,,,zsigénnál,zsigénnél,right,5.5419,0,111,111,12,1,67,zsigén,zsigén,nál,é,Ez itt egy zsigén.,Nincs is jobb egy jó...,zsigénnél,zsigénnál,dzsungel,NA,NA,PR2020,1998,nő,nem,2022-04-06_21h31.51.256,hesp_baseline,2021.2.3,Win32,59.96641881
,,,,,,,,,,,,,,,,,spibeglünk,spibegezünk,right,11.819,0,112,112,147,1,94,spibeglik / spibegezik,"spibeglik, spibegezni",ünk,NA,"János imád spibegezni, ezért sokat spibeglik.",Mi ritkán...,spibeglünk,spibegezünk,cselekszik,-lik,2,PR2020,1998,nő,nem,2022-04-06_21h31.51.256,hesp_baseline,2021.2.3,Win32,59.96641881
,,,,,,,,,,,,,,,,,klehényletek,klehényeztek,right,8.6595,0,113,113,113,1,60,klehénylik / klehényezik,"klehénylik, klehényezni",tek,NA,"János imád klehényezni, ezért sokat klehénylik.",Ti ritkán...,klehényletek,klehényeztek,cselekszik,-lik,2,PR2020,1998,nő,nem,2022-04-06_21h31.51.256,hesp_baseline,2021.2.3,Win32,59.96641881
,,,,,,,,,,,,,,,,,lijeznak,lijeznek,right,5.0801,0,114,114,40,1,95,lijez,lijez,nak,e,Ez itt egy lijez.,Elneveztem a kutyámat...,lijeznek,lijeznak,dzsungel,NA,NA,PR2020,1998,nő,nem,2022-04-06_21h31.51.256,hesp_baseline,2021.2.3,Win32,59.96641881
,,,,,,,,,,,,,,,,,tosélyban,tosélyben,left,6.1703,0,115,115,25,1,80,tosély,tosély,ban,é,Ez itt egy tosély.,Ott vagyunk a...,tosélyben,tosélyban,dzsungel,NA,NA,PR2020,1998,nő,nem,2022-04-06_21h31.51.256,hesp_baseline,2021.2.3,Win32,59.96641881
,,,,,,,,,,,,,,,,,posoztok,poslotok,left,4.9792,0,116,116,121,1,68,poslik / posozik,"poslik, posozni",tek,NA,"János imád posozni, ezért sokat poslik.",Ti ritkán...,poslotok,posoztok,cselekszik,-lik,1,PR2020,1998,nő,nem,2022-04-06_21h31.51.256,hesp_baseline,2021.2.3,Win32,59.96641881
,,,,,,,,,,,,,,,,,jábézban,jábézben,right,6.9896,0,117,117,34,1,89,jábéz,jábéz,ban,é,Ez itt egy jábéz.,Ott vagyunk a...,jábézben,jábézban,dzsungel,NA,NA,PR2020,1998,nő,nem,2022-04-06_21h31.51.256,hesp_baseline,2021.2.3,Win32,59.96641881
,,,,,,,,,,,,,,,,,spatárzok,spatárzom,left,3.3368,0,118,118,69,1,70,spatárzik,spatárzol,NA,NA,Te bizony sokat spatárzol.,Én is sokat...,spatárzok,spatárzom,lakik,-zik,2,PR2020,1998,nő,nem,2022-04-06_21h31.51.256,hesp_baseline,2021.2.3,Win32,59.96641881
,,,,,,,,,,,,,,,,,huroslok,huroslom,left,4.201,0,119,119,76,1,77,huroslik,huroslasz,NA,NA,Te bizony sokat huroslasz.,Én is sokat...,huroslok,huroslom,lakik,-lik,2,PR2020,1998,nő,nem,2022-04-06_21h31.51.256,hesp_baseline,2021.2.3,Win32,59.96641881
,,,,,,,,,,,,,,,,,csólorzom,csólorzok,right,3.6533,0,120,120,102,1,103,csólorzik,csólorzol,NA,NA,Te bizony sokat csólorzol.,Én is sokat...,csólorzok,csólorzom,lakik,-zik,2,PR2020,1998,nő,nem,2022-04-06_21h31.51.256,hesp_baseline,2021.2.3,Win32,59.96641881
,,,,,,,,,,,,,,,,,prihekszek,prihekszem,right,5.9015,0,121,121,100,1,101,prihekszik,prihekszel,NA,NA,Te bizony sokat prihekszel.,Én is sokat...,prihekszek,prihekszem,lakik,-szik,2,PR2020,1998,nő,nem,2022-04-06_21h31.51.256,hesp_baseline,2021.2.3,Win32,59.96641881
,,,,,,,,,,,,,,,,,sporzemnek,sporzemnak,left,4.6649,0,122,122,26,1,81,sporzem,sporzem,nak,e,Ez itt egy sporzem.,Elneveztem a kutyámat...,sporzemnek,sporzemnak,dzsungel,NA,NA,PR2020,1998,nő,nem,2022-04-06_21h31.51.256,hesp_baseline,2021.2.3,Win32,59.96641881
,,,,,,,,,,,,,,,,,pribemlem,pribemlek,right,5.1853,0,123,123,107,1,108,pribemlik,pribemlesz,NA,NA,Te bizony sokat pribemlesz.,Én is sokat...,pribemlek,pribemlem,lakik,-lik,2,PR2020,1998,nő,nem,2022-04-06_21h31.51.256,hesp_baseline,2021.2.3,Win32,59.96641881
,,,,,,,,,,,,,,,,,nuroklunk,nurokozunk,left,6.7297,0,124,124,131,1,78,nuroklik / nurokozik,"nuroklik, nurokozni",ünk,NA,"János imád nurokozni, ezért sokat nuroklik.",Mi ritkán...,nuroklunk,nurokozunk,cselekszik,-lik,2,PR2020,1998,nő,nem,2022-04-06_21h31.51.256,hesp_baseline,2021.2.3,Win32,59.96641881
,,,,,,,,,,,,,,,,,fréslünk,frésezünk,right,5.4659,0,125,125,138,1,85,fréslik / frésezik,"fréslik, frésezni",ünk,NA,"János imád frésezni, ezért sokat fréslik.",Mi ritkán...,fréslünk,frésezünk,cselekszik,-lik,1,PR2020,1998,nő,nem,2022-04-06_21h31.51.256,hesp_baseline,2021.2.3,Win32,59.96641881
,,,,,,,,,,,,,,,,,dóbemnak,dóbemnek,right,5.7873,0,126,126,48,1,103,dóbem,dóbem,nak,e,Ez itt egy dóbem.,Elneveztem a kutyámat...,dóbemnek,dóbemnak,dzsungel,NA,NA,PR2020,1998,nő,nem,2022-04-06_21h31.51.256,hesp_baseline,2021.2.3,Win32,59.96641881
,,,,,,,,,,,,,,,,,spügözünk,spügzünk,left,11.9302,0,127,127,143,1,90,spügzik / spügözik,"spügzik, spügözni",ünk,NA,"János imád spügözni, ezért sokat spügzik.",Mi ritkán...,spügzünk,spügözünk,cselekszik,-zik,1,PR2020,1998,nő,nem,2022-04-06_21h31.51.256,hesp_baseline,2021.2.3,Win32,59.96641881
,,,,,,,,,,,,,,,,,flehékszem,flehékszek,left,4.5568,0,128,128,77,1,78,flehékszik,flehékszel,NA,NA,Te bizony sokat flehékszel.,Én is sokat...,flehékszek,flehékszem,lakik,-szik,2,PR2020,1998,nő,nem,2022-04-06_21h31.51.256,hesp_baseline,2021.2.3,Win32,59.96641881
,,,,,,,,,,,,,,,,,prilepszünk,prilepedünk,right,5.389,0,129,129,161,1,108,prilepszik / prilepedik,"prilepszik, prilepedni",ünk,NA,"János imád prilepedni, ezért sokat prilepszik.",Mi ritkán...,prilepszünk,prilepedünk,cselekszik,-szik,2,PR2020,1998,nő,nem,2022-04-06_21h31.51.256,hesp_baseline,2021.2.3,Win32,59.96641881
,,,,,,,,,,,,,,,,,tögöznek,töglenek,left,6.0482,0,130,130,156,1,103,töglik / tögözik,"töglik, tögözni",nek,NA,"János imád tögözni, ezért sokat töglik.",Ők ritkán...,töglenek,tögöznek,cselekszik,-lik,1,PR2020,1998,nő,nem,2022-04-06_21h31.51.256,hesp_baseline,2021.2.3,Win32,59.96641881
,,,,,,,,,,,,,,,,,flűgözünk,flűgzünk,left,7.0608,0,131,131,160,1,107,flűgzik / flűgözik,"flűgzik, flűgözni",ünk,NA,"János imád flűgözni, ezért sokat flűgzik.",Mi ritkán...,flűgzünk,flűgözünk,cselekszik,-zik,1,PR2020,1998,nő,nem,2022-04-06_21h31.51.256,hesp_baseline,2021.2.3,Win32,59.96641881
,,,,,,,,,,,,,,,,,metégednek,metégszenek,left,7.4499,0,132,132,112,1,59,metégszik / metégedik,"metégszik, metégedni",nek,NA,"János imád metégedni, ezért sokat metégszik.",Ők ritkán...,metégszenek,metégednek,cselekszik,-szik,2,PR2020,1998,nő,nem,2022-04-06_21h31.51.256,hesp_baseline,2021.2.3,Win32,59.96641881
,,,,,,,,,,,,,,,,,spáraklom,spáraklok,right,4.2817,0,133,133,96,1,97,spáraklik,spáraklasz,NA,NA,Te bizony sokat spáraklasz.,Én is sokat...,spáraklok,spáraklom,lakik,-lik,2,PR2020,1998,nő,nem,2022-04-06_21h31.51.256,hesp_baseline,2021.2.3,Win32,59.96641881
,,,,,,,,,,,,,,,,,flürököztök,flüröklötök,left,6.1951,0,134,134,149,1,96,flüröklik / flüröközik,"flüröklik, flüröközni",tek,NA,"János imád flüröközni, ezért sokat flüröklik.",Ti ritkán...,flüröklötök,flürököztök,cselekszik,-lik,2,PR2020,1998,nő,nem,2022-04-06_21h31.51.256,hesp_baseline,2021.2.3,Win32,59.96641881
,,,,,,,,,,,,,,,,,klidlom,klidlok,right,3.7631,0,135,135,72,1,73,klidlik,klidlasz,NA,NA,Te bizony sokat klidlasz.,Én is sokat...,klidlok,klidlom,lakik,-lik,1,PR2020,1998,nő,nem,2022-04-06_21h31.51.256,hesp_baseline,2021.2.3,Win32,59.96641881
,,,,,,,,,,,,,,,,,péleslek,péleslem,left,3.9478,0,136,136,73,1,74,péleslik,péleslesz,NA,NA,Te bizony sokat péleslesz.,Én is sokat...,péleslek,péleslem,lakik,-lik,2,PR2020,1998,nő,nem,2022-04-06_21h31.51.256,hesp_baseline,2021.2.3,Win32,59.96641881
,,,,,,,,,,,,,,,,,hákodnak,hákszanak,left,6.3369,0,137,137,150,1,97,hákszik / hákodik,"hákszik, hákodni",nek,NA,"János imád hákodni, ezért sokat hákszik.",Ők ritkán...,hákszanak,hákodnak,cselekszik,-szik,1,PR2020,1998,nő,nem,2022-04-06_21h31.51.256,hesp_baseline,2021.2.3,Win32,59.96641881
,,,,,,,,,,,,,,,,,driládzok,driládzom,left,2.6682,0,138,138,67,1,68,driládzik,driládzol,NA,NA,Te bizony sokat driládzol.,Én is sokat...,driládzok,driládzom,lakik,-zik,2,PR2020,1998,nő,nem,2022-04-06_21h31.51.256,hesp_baseline,2021.2.3,Win32,59.96641881
,,,,,,,,,,,,,,,,,jóbecnek,jóbecnak,left,7.7982,0,139,139,11,1,66,jóbec,jóbec,nak,e,Ez itt egy jóbec.,Elneveztem a kutyámat...,jóbecnek,jóbecnak,dzsungel,NA,NA,PR2020,1998,nő,nem,2022-04-06_21h31.51.256,hesp_baseline,2021.2.3,Win32,59.96641881
,,,,,,,,,,,,,,,,,tribejletek,tribejeztek,right,34.9574,0,140,140,132,1,79,tribejlik / tribejezik,"tribejlik, tribejezni",tek,NA,"János imád tribejezni, ezért sokat tribejlik.",Ti ritkán...,tribejletek,tribejeztek,cselekszik,-lik,2,PR2020,1998,nő,nem,2022-04-06_21h31.51.256,hesp_baseline,2021.2.3,Win32,59.96641881
,,,,,,,,,,,,,,,,,dibáglotok,dibágoztok,right,7.4467,0,141,141,154,1,101,dibáglik / dibágozik,"dibáglik, dibágozni",tek,NA,"János imád dibágozni, ezért sokat dibáglik.",Ti ritkán...,dibáglotok,dibágoztok,cselekszik,-lik,2,PR2020,1998,nő,nem,2022-04-06_21h31.51.256,hesp_baseline,2021.2.3,Win32,59.96641881
,,,,,,,,,,,,,,,,,trigencnak,trigencnek,right,4.5063,0,142,142,31,1,86,trigenc,trigenc,nak,e,Ez itt egy trigenc.,Elneveztem a kutyámat...,trigencnek,trigencnak,dzsungel,NA,NA,PR2020,1998,nő,nem,2022-04-06_21h31.51.256,hesp_baseline,2021.2.3,Win32,59.96641881
,,,,,,,,,,,,,,,,,mihágoztok,mihágzotok,left,5.5332,0,143,143,118,1,65,mihágzik / mihágozik,"mihágzik, mihágozni",tek,NA,"János imád mihágozni, ezért sokat mihágzik.",Ti ritkán...,mihágzotok,mihágoztok,cselekszik,-zik,2,PR2020,1998,nő,nem,2022-04-06_21h31.51.256,hesp_baseline,2021.2.3,Win32,59.96641881
,,,,,,,,,,,,,,,,,flézletek,flézeztek,right,4.806,0,144,144,134,1,81,flézlik / flézezik,"flézlik, flézezni",tek,NA,"János imád flézezni, ezért sokat flézlik.",Ti ritkán...,flézletek,flézeztek,cselekszik,-lik,1,PR2020,1998,nő,nem,2022-04-06_21h31.51.256,hesp_baseline,2021.2.3,Win32,59.96641881
,,,,,,,,,,,,,,,,,pratelynak,pratelynek,right,7.5573,0,145,145,47,1,102,prately,prately,nak,e,Ez itt egy prately.,Elneveztem a kutyámat...,pratelynek,pratelynak,dzsungel,NA,NA,PR2020,1998,nő,nem,2022-04-06_21h31.51.256,hesp_baseline,2021.2.3,Win32,59.96641881
,,,,,,,,,,,,,,,,,klítegynél,klítegynál,left,5.5213,0,146,146,5,1,60,klítegy,klítegy,nál,e,Ez itt egy klítegy.,Nincs is jobb egy jó...,klítegynél,klítegynál,dzsungel,NA,NA,PR2020,1998,nő,nem,2022-04-06_21h31.51.256,hesp_baseline,2021.2.3,Win32,59.96641881
,,,,,,,,,,,,,,,,,prazozunk,prazlunk,left,3.2202,0,147,147,119,1,66,prazlik / prazozik,"prazlik, prazozni",ünk,NA,"János imád prazozni, ezért sokat prazlik.",Mi ritkán...,prazlunk,prazozunk,cselekszik,-lik,1,PR2020,1998,nő,nem,2022-04-06_21h31.51.256,hesp_baseline,2021.2.3,Win32,59.96641881
,,,,,,,,,,,,,,,,,jonylok,jonylom,left,2.24,0,148,148,55,1,56,jonylik,jonylasz,NA,NA,Te bizony sokat jonylasz.,Én is sokat...,jonylok,jonylom,lakik,-lik,1,PR2020,1998,nő,nem,2022-04-06_21h31.51.256,hesp_baseline,2021.2.3,Win32,59.96641881
,,,,,,,,,,,,,,,,,flibekszek,flibekszem,left,3.7503,0,149,149,93,1,94,flibekszik,flibekszel,NA,NA,Te bizony sokat flibekszel.,Én is sokat...,flibekszek,flibekszem,lakik,-szik,2,PR2020,1998,nő,nem,2022-04-06_21h31.51.256,hesp_baseline,2021.2.3,Win32,59.96641881
,,,,,,,,,,,,,,,,,fupétnál,fupétnél,left,6.1604,0,150,150,14,1,69,fupét,fupét,nál,é,Ez itt egy fupét.,Nincs is jobb egy jó...,fupétnél,fupétnál,dzsungel,NA,NA,PR2020,1998,nő,nem,2022-04-06_21h31.51.256,hesp_baseline,2021.2.3,Win32,59.96641881
,,,,,,,,,,,,,,,,,juszlok,juszlom,left,2.124,0,151,151,79,1,80,juszlik,juszlasz,NA,NA,Te bizony sokat juszlasz.,Én is sokat...,juszlok,juszlom,lakik,-lik,1,PR2020,1998,nő,nem,2022-04-06_21h31.51.256,hesp_baseline,2021.2.3,Win32,59.96641881
,,,,,,,,,,,,,,,,,floglom,floglok,right,3.5709,0,152,152,92,1,93,floglik,floglasz,NA,NA,Te bizony sokat floglasz.,Én is sokat...,floglok,floglom,lakik,-lik,1,PR2020,1998,nő,nem,2022-04-06_21h31.51.256,hesp_baseline,2021.2.3,Win32,59.96641881
,,,,,,,,,,,,,,,,,sojzom,sojzok,right,2.3198,0,153,153,74,1,75,sojzik,sojzol,NA,NA,Te bizony sokat sojzol.,Én is sokat...,sojzok,sojzom,lakik,-zik,1,PR2020,1998,nő,nem,2022-04-06_21h31.51.256,hesp_baseline,2021.2.3,Win32,59.96641881
,,,,,,,,,,,,,,,,,spüjzök,spüjzöm,left,1.8853,0,154,154,59,1,60,spüjzik,spüjzöl,NA,NA,Te bizony sokat spüjzöl.,Én is sokat...,spüjzök,spüjzöm,lakik,-zik,1,PR2020,1998,nő,nem,2022-04-06_21h31.51.256,hesp_baseline,2021.2.3,Win32,59.96641881
,,,,,,,,,,,,,,,,,cságyeltban,cságyeltben,left,8.4063,0,155,155,10,1,65,cságyelt,cságyelt,ban,e,Ez itt egy cságyelt.,Ott vagyunk a...,cságyeltben,cságyeltban,dzsungel,NA,NA,PR2020,1998,nő,nem,2022-04-06_21h31.51.256,hesp_baseline,2021.2.3,Win32,59.96641881
,,,,,,,,,,,,,,,,,branylanak,branyoznak,right,5.1236,0,156,156,136,1,83,branylik / branyozik,"branylik, branyozni",nek,NA,"János imád branyozni, ezért sokat branylik.",Ők ritkán...,branylanak,branyoznak,cselekszik,-lik,1,PR2020,1998,nő,nem,2022-04-06_21h31.51.256,hesp_baseline,2021.2.3,Win32,59.96641881
,,,,,,,,,,,,,,,,,fluboklotok,flubokoztok,right,9.0473,0,157,157,151,1,98,fluboklik / flubokozik,"fluboklik, flubokozni",tek,NA,"János imád flubokozni, ezért sokat fluboklik.",Ti ritkán...,fluboklotok,flubokoztok,cselekszik,-lik,2,PR2020,1998,nő,nem,2022-04-06_21h31.51.256,hesp_baseline,2021.2.3,Win32,59.96641881
,,,,,,,,,,,,,,,,,kluzlotok,kluzoztok,right,6.1028,0,158,158,148,1,95,kluzlik / kluzozik,"kluzlik, kluzozni",tek,NA,"János imád kluzozni, ezért sokat kluzlik.",Ti ritkán...,kluzlotok,kluzoztok,cselekszik,-lik,1,PR2020,1998,nő,nem,2022-04-06_21h31.51.256,hesp_baseline,2021.2.3,Win32,59.96641881
,,,,,,,,,,,,,,,,,nűröklöm,nűröklök,right,4.5652,0,159,159,106,1,107,nűröklik,nűröklesz,NA,NA,Te bizony sokat nűröklesz.,Én is sokat...,nűröklök,nűröklöm,lakik,-lik,2,PR2020,1998,nő,nem,2022-04-06_21h31.51.256,hesp_baseline,2021.2.3,Win32,59.96641881
,,,,,,,,,,,,,,,,,líroznak,lírlanak,left,3.2777,0,160,160,115,1,62,lírlik / lírozik,"lírlik, lírozni",nek,NA,"János imád lírozni, ezért sokat lírlik.",Ők ritkán...,lírlanak,líroznak,cselekszik,-lik,1,PR2020,1998,nő,nem,2022-04-06_21h31.51.256,hesp_baseline,2021.2.3,Win32,59.96641881
,,,,,,,,,,,,,,,,,spátennek,spátennak,left,6.2932,0,161,161,33,1,88,spáten,spáten,nak,e,Ez itt egy spáten.,Elneveztem a kutyámat...,spátennek,spátennak,dzsungel,NA,NA,PR2020,1998,nő,nem,2022-04-06_21h31.51.256,hesp_baseline,2021.2.3,Win32,59.96641881
