my_list,key.keys,key.rt,key_2.keys,key_2.rt,keyboard_input_2.keys,keyboard_input_2.rt,key_3.keys,key_3.rt,keyboard_input_3.keys,keyboard_input_3.rt,key_4.keys,key_4.rt,keyboard_input_4.keys,keyboard_input_4.rt,key_5.keys,key_5.rt,my_button1,my_button2,keyboard_input.keys,keyboard_input.rt,withinBlock.thisRepN,withinBlock.thisTrialN,withinBlock.thisN,withinBlock.thisIndex,withinBlock.ran,rowname,word,prompt,suffix,vowel,carrier_sentence,target_sentence,target1,target2,category,derivational,nsyl,Azonosító,Melyik évben születtél?,Mi a nemed?,Tanultál nyelvészetet?,date,expName,psychopyVersion,OS,frameRate
list2.csv,space,25.953,space,7.683,right,6.983,space,11.698,left,4.12,space,11.681,left,6.552,space,15.346,szűslök,szűslöm,left,11.965,0,0,0,85,1,86,szűslik,szűslesz,NA,NA,Te bizony sokat szűslesz.,Én is sokat...,szűslök,szűslöm,lakik,-lik,1,PR2002,2000,nő,nem,2022-03-29_16h08.21.422,hesp_baseline,2021.2.3,MacIntel,16.66666667
,,,,,,,,,,,,,,,,,lorjódzom,lorjódzok,left,5.54,0,1,1,88,1,89,lorjódzik,lorjódzol,NA,NA,Te bizony sokat lorjódzol.,Én is sokat...,lorjódzok,lorjódzom,lakik,-zik,2,PR2002,2000,nő,nem,2022-03-29_16h08.21.422,hesp_baseline,2021.2.3,MacIntel,16.66666667
,,,,,,,,,,,,,,,,,kalrézben,kalrézban,left,4.81,0,2,2,16,1,71,kalréz,kalréz,ban,é,Ez itt egy kalréz.,Ott vagyunk a...,kalrézben,kalrézban,dzsungel,NA,NA,PR2002,2000,nő,nem,2022-03-29_16h08.21.422,hesp_baseline,2021.2.3,MacIntel,16.66666667
,,,,,,,,,,,,,,,,,csimennál,csimennél,right,6.461,0,3,3,44,1,99,csimen,csimen,nál,e,Ez itt egy csimen.,Nincs is jobb egy jó...,csimennél,csimennál,dzsungel,NA,NA,PR2002,2000,nő,nem,2022-03-29_16h08.21.422,hesp_baseline,2021.2.3,MacIntel,16.66666667
,,,,,,,,,,,,,,,,,kluzlotok,kluzoztok,right,26.161,0,4,4,148,1,95,kluzlik / kluzozik,"kluzlik, kluzozni",tek,NA,"János imád kluzozni, ezért sokat kluzlik.",Ti ritkán...,kluzlotok,kluzoztok,cselekszik,-lik,1,PR2002,2000,nő,nem,2022-03-29_16h08.21.422,hesp_baseline,2021.2.3,MacIntel,16.66666667
,,,,,,,,,,,,,,,,,hákodnak,hákszanak,left,5.326,0,5,5,150,1,97,hákszik / hákodik,"hákszik, hákodni",nek,NA,"János imád hákodni, ezért sokat hákszik.",Ők ritkán...,hákszanak,hákodnak,cselekszik,-szik,1,PR2002,2000,nő,nem,2022-03-29_16h08.21.422,hesp_baseline,2021.2.3,MacIntel,16.66666667
,,,,,,,,,,,,,,,,,sprízemnél,sprízemnál,left,4.084,0,6,6,22,1,77,sprízem,sprízem,nál,e,Ez itt egy sprízem.,Nincs is jobb egy jó...,sprízemnél,sprízemnál,dzsungel,NA,NA,PR2002,2000,nő,nem,2022-03-29_16h08.21.422,hesp_baseline,2021.2.3,MacIntel,16.66666667
,,,,,,,,,,,,,,,,,flűmlöm,flűmlök,right,3.784,0,7,7,54,1,55,flűmlik,flűmlesz,NA,NA,Te bizony sokat flűmlesz.,Én is sokat...,flűmlök,flűmlöm,lakik,-lik,1,PR2002,2000,nő,nem,2022-03-29_16h08.21.422,hesp_baseline,2021.2.3,MacIntel,16.66666667
,,,,,,,,,,,,,,,,,garcépnél,garcépnál,left,47.127,0,8,8,38,1,93,garcép,garcép,nál,é,Ez itt egy garcép.,Nincs is jobb egy jó...,garcépnél,garcépnál,dzsungel,NA,NA,PR2002,2000,nő,nem,2022-03-29_16h08.21.422,hesp_baseline,2021.2.3,MacIntel,16.66666667
,,,,,,,,,,,,,,,,,flemezünk,flemlünk,left,16.203,0,9,9,137,1,84,flemlik / flemezik,"flemlik, flemezni",ünk,NA,"János imád flemezni, ezért sokat flemlik.",Mi ritkán...,flemlünk,flemezünk,cselekszik,-lik,1,PR2002,2000,nő,nem,2022-03-29_16h08.21.422,hesp_baseline,2021.2.3,MacIntel,16.66666667
,,,,,,,,,,,,,,,,,praslom,praslok,right,52.206,0,10,10,80,1,81,praslik,praslasz,NA,NA,Te bizony sokat praslasz.,Én is sokat...,praslok,praslom,lakik,-lik,1,PR2002,2000,nő,nem,2022-03-29_16h08.21.422,hesp_baseline,2021.2.3,MacIntel,16.66666667
,,,,,,,,,,,,,,,,,pratelynek,pratelynak,left,8.952,0,11,11,47,1,102,prately,prately,nak,e,Ez itt egy prately.,Elneveztem a kutyámat...,pratelynek,pratelynak,dzsungel,NA,NA,PR2002,2000,nő,nem,2022-03-29_16h08.21.422,hesp_baseline,2021.2.3,MacIntel,16.66666667
,,,,,,,,,,,,,,,,,prazozunk,prazlunk,right,6.079,0,12,12,119,1,66,prazlik / prazozik,"prazlik, prazozni",ünk,NA,"János imád prazozni, ezért sokat prazlik.",Mi ritkán...,prazlunk,prazozunk,cselekszik,-lik,1,PR2002,2000,nő,nem,2022-03-29_16h08.21.422,hesp_baseline,2021.2.3,MacIntel,16.66666667
,,,,,,,,,,,,,,,,,nyürzenek,nyüröznek,left,11.672,0,13,13,123,1,70,nyürzik / nyürözik,"nyürzik, nyürözni",nek,NA,"János imád nyürözni, ezért sokat nyürzik.",Ők ritkán...,nyürzenek,nyüröznek,cselekszik,-zik,1,PR2002,2000,nő,nem,2022-03-29_16h08.21.422,hesp_baseline,2021.2.3,MacIntel,16.66666667
,,,,,,,,,,,,,,,,,flűgzünk,flűgözünk,right,21.673,0,14,14,160,1,107,flűgzik / flűgözik,"flűgzik, flűgözni",ünk,NA,"János imád flűgözni, ezért sokat flűgzik.",Mi ritkán...,flűgzünk,flűgözünk,cselekszik,-zik,1,PR2002,2000,nő,nem,2022-03-29_16h08.21.422,hesp_baseline,2021.2.3,MacIntel,16.66666667
,,,,,,,,,,,,,,,,,fivénylem,fivénylek,left,3.079,0,15,15,78,1,79,fivénylik,fivénylesz,NA,NA,Te bizony sokat fivénylesz.,Én is sokat...,fivénylek,fivénylem,lakik,-lik,2,PR2002,2000,nő,nem,2022-03-29_16h08.21.422,hesp_baseline,2021.2.3,MacIntel,16.66666667
,,,,,,,,,,,,,,,,,szirlom,szirlok,left,3.158,0,16,16,62,1,63,szirlik,szirlasz,NA,NA,Te bizony sokat szirlasz.,Én is sokat...,szirlok,szirlom,lakik,-lik,1,PR2002,2000,nő,nem,2022-03-29_16h08.21.422,hesp_baseline,2021.2.3,MacIntel,16.66666667
,,,,,,,,,,,,,,,,,flűröklöm,flűröklök,left,3.675,0,17,17,91,1,92,flűröklik,flűröklesz,NA,NA,Te bizony sokat flűröklesz.,Én is sokat...,flűröklök,flűröklöm,lakik,-lik,2,PR2002,2000,nő,nem,2022-03-29_16h08.21.422,hesp_baseline,2021.2.3,MacIntel,16.66666667
,,,,,,,,,,,,,,,,,tögöznek,töglenek,right,11.89,0,18,18,156,1,103,töglik / tögözik,"töglik, tögözni",nek,NA,"János imád tögözni, ezért sokat töglik.",Ők ritkán...,töglenek,tögöznek,cselekszik,-lik,1,PR2002,2000,nő,nem,2022-03-29_16h08.21.422,hesp_baseline,2021.2.3,MacIntel,16.66666667
,,,,,,,,,,,,,,,,,rapszeknél,rapszeknál,left,3.276,0,19,19,35,1,90,rapszek,rapszek,nál,e,Ez itt egy rapszek.,Nincs is jobb egy jó...,rapszeknél,rapszeknál,dzsungel,NA,NA,PR2002,2000,nő,nem,2022-03-29_16h08.21.422,hesp_baseline,2021.2.3,MacIntel,16.66666667
,,,,,,,,,,,,,,,,,metégszenek,metégednek,right,7.34,0,20,20,112,1,59,metégszik / metégedik,"metégszik, metégedni",nek,NA,"János imád metégedni, ezért sokat metégszik.",Ők ritkán...,metégszenek,metégednek,cselekszik,-szik,2,PR2002,2000,nő,nem,2022-03-29_16h08.21.422,hesp_baseline,2021.2.3,MacIntel,16.66666667
,,,,,,,,,,,,,,,,,juszlom,juszlok,left,2.87,0,21,21,79,1,80,juszlik,juszlasz,NA,NA,Te bizony sokat juszlasz.,Én is sokat...,juszlok,juszlom,lakik,-lik,1,PR2002,2000,nő,nem,2022-03-29_16h08.21.422,hesp_baseline,2021.2.3,MacIntel,16.66666667
,,,,,,,,,,,,,,,,,floglok,floglom,right,3.366,0,22,22,92,1,93,floglik,floglasz,NA,NA,Te bizony sokat floglasz.,Én is sokat...,floglok,floglom,lakik,-lik,1,PR2002,2000,nő,nem,2022-03-29_16h08.21.422,hesp_baseline,2021.2.3,MacIntel,16.66666667
,,,,,,,,,,,,,,,,,ítensben,ítensban,left,3.053,0,23,23,50,1,105,ítens,ítens,ban,e,Ez itt egy ítens.,Ott vagyunk a...,ítensben,ítensban,dzsungel,NA,NA,PR2002,2000,nő,nem,2022-03-29_16h08.21.422,hesp_baseline,2021.2.3,MacIntel,16.66666667
,,,,,,,,,,,,,,,,,csintékban,csintékben,right,2.716,0,24,24,23,1,78,csinték,csinték,ban,é,Ez itt egy csinték.,Ott vagyunk a...,csintékben,csintékban,dzsungel,NA,NA,PR2002,2000,nő,nem,2022-03-29_16h08.21.422,hesp_baseline,2021.2.3,MacIntel,16.66666667
,,,,,,,,,,,,,,,,,flibekszek,flibekszem,right,4.356,0,25,25,93,1,94,flibekszik,flibekszel,NA,NA,Te bizony sokat flibekszel.,Én is sokat...,flibekszek,flibekszem,lakik,-szik,2,PR2002,2000,nő,nem,2022-03-29_16h08.21.422,hesp_baseline,2021.2.3,MacIntel,16.66666667
,,,,,,,,,,,,,,,,,sprűrlenek,sprűröznek,right,4.46,0,26,26,135,1,82,sprűrlik / sprűrözik,"sprűrlik, sprűrözni",nek,NA,"János imád sprűrözni, ezért sokat sprűrlik.",Ők ritkán...,sprűrlenek,sprűröznek,cselekszik,-lik,1,PR2002,2000,nő,nem,2022-03-29_16h08.21.422,hesp_baseline,2021.2.3,MacIntel,16.66666667
,,,,,,,,,,,,,,,,,fröjözünk,fröjlünk,left,7.321,0,27,27,117,1,64,fröjlik / fröjözik,"fröjlik, fröjözni",ünk,NA,"János imád fröjözni, ezért sokat fröjlik.",Mi ritkán...,fröjlünk,fröjözünk,cselekszik,-lik,1,PR2002,2000,nő,nem,2022-03-29_16h08.21.422,hesp_baseline,2021.2.3,MacIntel,16.66666667
,,,,,,,,,,,,,,,,,livényezünk,livénylünk,left,15.217,0,28,28,128,1,75,livénylik / livényezik,"livénylik, livényezni",ünk,NA,"János imád livényezni, ezért sokat livénylik.",Mi ritkán...,livénylünk,livényezünk,cselekszik,-lik,2,PR2002,2000,nő,nem,2022-03-29_16h08.21.422,hesp_baseline,2021.2.3,MacIntel,16.66666667
,,,,,,,,,,,,,,,,,fibamlok,fibamlom,left,3.173,0,29,29,65,1,66,fibamlik,fibamlasz,NA,NA,Te bizony sokat fibamlasz.,Én is sokat...,fibamlok,fibamlom,lakik,-lik,2,PR2002,2000,nő,nem,2022-03-29_16h08.21.422,hesp_baseline,2021.2.3,MacIntel,16.66666667
,,,,,,,,,,,,,,,,,flerékedünk,flerékszünk,left,5.595,0,30,30,159,1,106,flerékszik / flerékedik,"flerékszik, flerékedni",ünk,NA,"János imád flerékedni, ezért sokat flerékszik.",Mi ritkán...,flerékszünk,flerékedünk,cselekszik,-szik,2,PR2002,2000,nő,nem,2022-03-29_16h08.21.422,hesp_baseline,2021.2.3,MacIntel,16.66666667
,,,,,,,,,,,,,,,,,mihágoztok,mihágzotok,left,5.152,0,31,31,118,1,65,mihágzik / mihágozik,"mihágzik, mihágozni",tek,NA,"János imád mihágozni, ezért sokat mihágzik.",Ti ritkán...,mihágzotok,mihágoztok,cselekszik,-zik,2,PR2002,2000,nő,nem,2022-03-29_16h08.21.422,hesp_baseline,2021.2.3,MacIntel,16.66666667
,,,,,,,,,,,,,,,,,nyádoznak,nyádlanak,left,4.204,0,32,32,120,1,67,nyádlik / nyádozik,"nyádlik, nyádozni",nek,NA,"János imád nyádozni, ezért sokat nyádlik.",Ők ritkán...,nyádlanak,nyádoznak,cselekszik,-lik,1,PR2002,2000,nő,nem,2022-03-29_16h08.21.422,hesp_baseline,2021.2.3,MacIntel,16.66666667
,,,,,,,,,,,,,,,,,sortemnál,sortemnél,right,3.471,0,33,33,15,1,70,sortem,sortem,nál,e,Ez itt egy sortem.,Nincs is jobb egy jó...,sortemnél,sortemnál,dzsungel,NA,NA,PR2002,2000,nő,nem,2022-03-29_16h08.21.422,hesp_baseline,2021.2.3,MacIntel,16.66666667
,,,,,,,,,,,,,,,,,spibeglünk,spibegezünk,left,5.595,0,34,34,147,1,94,spibeglik / spibegezik,"spibeglik, spibegezni",ünk,NA,"János imád spibegezni, ezért sokat spibeglik.",Mi ritkán...,spibeglünk,spibegezünk,cselekszik,-lik,2,PR2002,2000,nő,nem,2022-03-29_16h08.21.422,hesp_baseline,2021.2.3,MacIntel,16.66666667
,,,,,,,,,,,,,,,,,prohódzom,prohódzok,left,3.144,0,35,35,66,1,67,prohódzik,prohódzol,NA,NA,Te bizony sokat prohódzol.,Én is sokat...,prohódzok,prohódzom,lakik,-zik,2,PR2002,2000,nő,nem,2022-03-29_16h08.21.422,hesp_baseline,2021.2.3,MacIntel,16.66666667
,,,,,,,,,,,,,,,,,tosélyben,tosélyban,right,3.48,0,36,36,25,1,80,tosély,tosély,ban,é,Ez itt egy tosély.,Ott vagyunk a...,tosélyben,tosélyban,dzsungel,NA,NA,PR2002,2000,nő,nem,2022-03-29_16h08.21.422,hesp_baseline,2021.2.3,MacIntel,16.66666667
,,,,,,,,,,,,,,,,,nuroklunk,nurokozunk,left,3.897,0,37,37,131,1,78,nuroklik / nurokozik,"nuroklik, nurokozni",ünk,NA,"János imád nurokozni, ezért sokat nuroklik.",Mi ritkán...,nuroklunk,nurokozunk,cselekszik,-lik,2,PR2002,2000,nő,nem,2022-03-29_16h08.21.422,hesp_baseline,2021.2.3,MacIntel,16.66666667
,,,,,,,,,,,,,,,,,gihamoznak,gihamlanak,right,4.66,0,38,38,133,1,80,gihamlik / gihamozik,"gihamlik, gihamozni",nek,NA,"János imád gihamozni, ezért sokat gihamlik.",Ők ritkán...,gihamlanak,gihamoznak,cselekszik,-lik,2,PR2002,2000,nő,nem,2022-03-29_16h08.21.422,hesp_baseline,2021.2.3,MacIntel,16.66666667
,,,,,,,,,,,,,,,,,tomlok,tomlom,left,4.095,0,39,39,86,1,87,tomlik,tomlasz,NA,NA,Te bizony sokat tomlasz.,Én is sokat...,tomlok,tomlom,lakik,-lik,1,PR2002,2000,nő,nem,2022-03-29_16h08.21.422,hesp_baseline,2021.2.3,MacIntel,16.66666667
,,,,,,,,,,,,,,,,,zarcégnál,zarcégnél,right,2.339,0,40,40,29,1,84,zarcég,zarcég,nál,é,Ez itt egy zarcég.,Nincs is jobb egy jó...,zarcégnél,zarcégnál,dzsungel,NA,NA,PR2002,2000,nő,nem,2022-03-29_16h08.21.422,hesp_baseline,2021.2.3,MacIntel,16.66666667
,,,,,,,,,,,,,,,,,lihadzom,lihadzok,left,2.817,0,41,41,101,1,102,lihadzik,lihadzol,NA,NA,Te bizony sokat lihadzol.,Én is sokat...,lihadzok,lihadzom,lakik,-zik,2,PR2002,2000,nő,nem,2022-03-29_16h08.21.422,hesp_baseline,2021.2.3,MacIntel,16.66666667
,,,,,,,,,,,,,,,,,trigencnak,trigencnek,right,5.347,0,42,42,31,1,86,trigenc,trigenc,nak,e,Ez itt egy trigenc.,Elneveztem a kutyámat...,trigencnek,trigencnak,dzsungel,NA,NA,PR2002,2000,nő,nem,2022-03-29_16h08.21.422,hesp_baseline,2021.2.3,MacIntel,16.66666667
,,,,,,,,,,,,,,,,,sponylanak,sponyoznak,right,12.128,0,43,43,125,1,72,sponylik / sponyozik,"sponylik, sponyozni",nek,NA,"János imád sponyozni, ezért sokat sponylik.",Ők ritkán...,sponylanak,sponyoznak,cselekszik,-lik,1,PR2002,2000,nő,nem,2022-03-29_16h08.21.422,hesp_baseline,2021.2.3,MacIntel,16.66666667
,,,,,,,,,,,,,,,,,pratánylok,pratánylom,left,4.112,0,44,44,95,1,96,pratánylik,pratánylasz,NA,NA,Te bizony sokat pratánylasz.,Én is sokat...,pratánylok,pratánylom,lakik,-lik,2,PR2002,2000,nő,nem,2022-03-29_16h08.21.422,hesp_baseline,2021.2.3,MacIntel,16.66666667
,,,,,,,,,,,,,,,,,driládzom,driládzok,left,3.594,0,45,45,67,1,68,driládzik,driládzol,NA,NA,Te bizony sokat driládzol.,Én is sokat...,driládzok,driládzom,lakik,-zik,2,PR2002,2000,nő,nem,2022-03-29_16h08.21.422,hesp_baseline,2021.2.3,MacIntel,16.66666667
,,,,,,,,,,,,,,,,,friszlok,friszlom,right,3.65,0,46,46,97,1,98,friszlik,friszlasz,NA,NA,Te bizony sokat friszlasz.,Én is sokat...,friszlok,friszlom,lakik,-lik,1,PR2002,2000,nő,nem,2022-03-29_16h08.21.422,hesp_baseline,2021.2.3,MacIntel,16.66666667
,,,,,,,,,,,,,,,,,nyábétban,nyábétben,right,2.72,0,47,47,21,1,76,nyábét,nyábét,ban,é,Ez itt egy nyábét.,Ott vagyunk a...,nyábétben,nyábétban,dzsungel,NA,NA,PR2002,2000,nő,nem,2022-03-29_16h08.21.422,hesp_baseline,2021.2.3,MacIntel,16.66666667
,,,,,,,,,,,,,,,,,spizecnek,spizecnak,left,3.202,0,48,48,6,1,61,spizec,spizec,nak,e,Ez itt egy spizec.,Elneveztem a kutyámat...,spizecnek,spizecnak,dzsungel,NA,NA,PR2002,2000,nő,nem,2022-03-29_16h08.21.422,hesp_baseline,2021.2.3,MacIntel,16.66666667
,,,,,,,,,,,,,,,,,gúdenben,gúdenban,left,2.388,0,49,49,4,1,59,gúden,gúden,ban,e,Ez itt egy gúden.,Ott vagyunk a...,gúdenben,gúdenban,dzsungel,NA,NA,PR2002,2000,nő,nem,2022-03-29_16h08.21.422,hesp_baseline,2021.2.3,MacIntel,16.66666667
,,,,,,,,,,,,,,,,,péleslek,péleslem,left,4.14,0,50,50,73,1,74,péleslik,péleslesz,NA,NA,Te bizony sokat péleslesz.,Én is sokat...,péleslek,péleslem,lakik,-lik,2,PR2002,2000,nő,nem,2022-03-29_16h08.21.422,hesp_baseline,2021.2.3,MacIntel,16.66666667
,,,,,,,,,,,,,,,,,navecban,navecben,left,3.224,0,51,51,8,1,63,navec,navec,ban,e,Ez itt egy navec.,Ott vagyunk a...,navecben,navecban,dzsungel,NA,NA,PR2002,2000,nő,nem,2022-03-29_16h08.21.422,hesp_baseline,2021.2.3,MacIntel,16.66666667
,,,,,,,,,,,,,,,,,trugoznak,trugzanak,left,4.841,0,52,52,146,1,93,trugzik / trugozik,"trugzik, trugozni",nek,NA,"János imád trugozni, ezért sokat trugzik.",Ők ritkán...,trugzanak,trugoznak,cselekszik,-zik,1,PR2002,2000,nő,nem,2022-03-29_16h08.21.422,hesp_baseline,2021.2.3,MacIntel,16.66666667
,,,,,,,,,,,,,,,,,spügzünk,spügözünk,right,11.175,0,53,53,143,1,90,spügzik / spügözik,"spügzik, spügözni",ünk,NA,"János imád spügözni, ezért sokat spügzik.",Mi ritkán...,spügzünk,spügözünk,cselekszik,-zik,1,PR2002,2000,nő,nem,2022-03-29_16h08.21.422,hesp_baseline,2021.2.3,MacIntel,16.66666667
,,,,,,,,,,,,,,,,,fligzok,fligzom,right,5.186,0,54,54,103,1,104,fligzik,fligzol,NA,NA,Te bizony sokat fligzol.,Én is sokat...,fligzok,fligzom,lakik,-zik,1,PR2002,2000,nő,nem,2022-03-29_16h08.21.422,hesp_baseline,2021.2.3,MacIntel,16.66666667
,,,,,,,,,,,,,,,,,sprogzom,sprogzok,left,1.884,0,55,55,89,1,90,sprogzik,sprogzol,NA,NA,Te bizony sokat sprogzol.,Én is sokat...,sprogzok,sprogzom,lakik,-zik,1,PR2002,2000,nő,nem,2022-03-29_16h08.21.422,hesp_baseline,2021.2.3,MacIntel,16.66666667
,,,,,,,,,,,,,,,,,sporzemnak,sporzemnek,right,2.13,0,56,56,26,1,81,sporzem,sporzem,nak,e,Ez itt egy sporzem.,Elneveztem a kutyámat...,sporzemnek,sporzemnak,dzsungel,NA,NA,PR2002,2000,nő,nem,2022-03-29_16h08.21.422,hesp_baseline,2021.2.3,MacIntel,16.66666667
,,,,,,,,,,,,,,,,,gyihegeztek,gyihegzetek,left,7.477,0,57,57,124,1,71,gyihegzik / gyihegezik,"gyihegzik, gyihegezni",tek,NA,"János imád gyihegezni, ezért sokat gyihegzik.",Ti ritkán...,gyihegzetek,gyihegeztek,cselekszik,-zik,2,PR2002,2000,nő,nem,2022-03-29_16h08.21.422,hesp_baseline,2021.2.3,MacIntel,16.66666667
,,,,,,,,,,,,,,,,,szanéjnek,szanéjnak,right,2.9,0,58,58,13,1,68,szanéj,szanéj,nak,é,Ez itt egy szanéj.,Elneveztem a kutyámat...,szanéjnek,szanéjnak,dzsungel,NA,NA,PR2002,2000,nő,nem,2022-03-29_16h08.21.422,hesp_baseline,2021.2.3,MacIntel,16.66666667
,,,,,,,,,,,,,,,,,dárakszunk,dárakodunk,left,9.246,0,59,59,126,1,73,dárakszik / dárakodik,"dárakszik, dárakodni",ünk,NA,"János imád dárakodni, ezért sokat dárakszik.",Mi ritkán...,dárakszunk,dárakodunk,cselekszik,-szik,2,PR2002,2000,nő,nem,2022-03-29_16h08.21.422,hesp_baseline,2021.2.3,MacIntel,16.66666667
,,,,,,,,,,,,,,,,,nyöböznek,nyöbzenek,left,4.757,0,60,60,152,1,99,nyöbzik / nyöbözik,"nyöbzik, nyöbözni",nek,NA,"János imád nyöbözni, ezért sokat nyöbzik.",Ők ritkán...,nyöbzenek,nyöböznek,cselekszik,-zik,1,PR2002,2000,nő,nem,2022-03-29_16h08.21.422,hesp_baseline,2021.2.3,MacIntel,16.66666667
,,,,,,,,,,,,,,,,,kátédnél,kátédnál,left,7.764,0,61,61,37,1,92,kátéd,kátéd,nál,é,Ez itt egy kátéd.,Nincs is jobb egy jó...,kátédnél,kátédnál,dzsungel,NA,NA,PR2002,2000,nő,nem,2022-03-29_16h08.21.422,hesp_baseline,2021.2.3,MacIntel,16.66666667
,,,,,,,,,,,,,,,,,frálaslanak,frálasoznak,left,5.947,0,62,62,110,1,57,frálaslik / frálasozik,"frálaslik, frálasozni",nek,NA,"János imád frálasozni, ezért sokat frálaslik.",Ők ritkán...,frálaslanak,frálasoznak,cselekszik,-lik,2,PR2002,2000,nő,nem,2022-03-29_16h08.21.422,hesp_baseline,2021.2.3,MacIntel,16.66666667
,,,,,,,,,,,,,,,,,ruslom,ruslok,left,2.624,0,63,63,83,1,84,ruslik,ruslasz,NA,NA,Te bizony sokat ruslasz.,Én is sokat...,ruslok,ruslom,lakik,-lik,1,PR2002,2000,nő,nem,2022-03-29_16h08.21.422,hesp_baseline,2021.2.3,MacIntel,16.66666667
,,,,,,,,,,,,,,,,,kumlom,kumlok,left,1.869,0,64,64,105,1,106,kumlik,kumlasz,NA,NA,Te bizony sokat kumlasz.,Én is sokat...,kumlok,kumlom,lakik,-lik,1,PR2002,2000,nő,nem,2022-03-29_16h08.21.422,hesp_baseline,2021.2.3,MacIntel,16.66666667
,,,,,,,,,,,,,,,,,sprigzotok,sprigoztok,right,4.313,0,65,65,129,1,76,sprigzik / sprigozik,"sprigzik, sprigozni",tek,NA,"János imád sprigozni, ezért sokat sprigzik.",Ti ritkán...,sprigzotok,sprigoztok,cselekszik,-zik,1,PR2002,2000,nő,nem,2022-03-29_16h08.21.422,hesp_baseline,2021.2.3,MacIntel,16.66666667
,,,,,,,,,,,,,,,,,prihegszenek,prihegednek,right,8.503,0,66,66,155,1,102,prihegszik / prihegedik,"prihegszik, prihegedni",nek,NA,"János imád prihegedni, ezért sokat prihegszik.",Ők ritkán...,prihegszenek,prihegednek,cselekszik,-szik,2,PR2002,2000,nő,nem,2022-03-29_16h08.21.422,hesp_baseline,2021.2.3,MacIntel,16.66666667
,,,,,,,,,,,,,,,,,csubozunk,csubzunk,left,3.414,0,67,67,111,1,58,csubzik / csubozik,"csubzik, csubozni",ünk,NA,"János imád csubozni, ezért sokat csubzik.",Mi ritkán...,csubzunk,csubozunk,cselekszik,-zik,1,PR2002,2000,nő,nem,2022-03-29_16h08.21.422,hesp_baseline,2021.2.3,MacIntel,16.66666667
,,,,,,,,,,,,,,,,,dingecnek,dingecnak,left,3.211,0,68,68,42,1,97,dingec,dingec,nak,e,Ez itt egy dingec.,Elneveztem a kutyámat...,dingecnek,dingecnak,dzsungel,NA,NA,PR2002,2000,nő,nem,2022-03-29_16h08.21.422,hesp_baseline,2021.2.3,MacIntel,16.66666667
,,,,,,,,,,,,,,,,,jóbecnak,jóbecnek,right,2.445,0,69,69,11,1,66,jóbec,jóbec,nak,e,Ez itt egy jóbec.,Elneveztem a kutyámat...,jóbecnek,jóbecnak,dzsungel,NA,NA,PR2002,2000,nő,nem,2022-03-29_16h08.21.422,hesp_baseline,2021.2.3,MacIntel,16.66666667
,,,,,,,,,,,,,,,,,ribzok,ribzom,right,2.577,0,70,70,58,1,59,ribzik,ribzol,NA,NA,Te bizony sokat ribzol.,Én is sokat...,ribzok,ribzom,lakik,-zik,1,PR2002,2000,nő,nem,2022-03-29_16h08.21.422,hesp_baseline,2021.2.3,MacIntel,16.66666667
,,,,,,,,,,,,,,,,,flubokoztok,fluboklotok,left,4.855,0,71,71,151,1,98,fluboklik / flubokozik,"fluboklik, flubokozni",tek,NA,"János imád flubokozni, ezért sokat fluboklik.",Ti ritkán...,fluboklotok,flubokoztok,cselekszik,-lik,2,PR2002,2000,nő,nem,2022-03-29_16h08.21.422,hesp_baseline,2021.2.3,MacIntel,16.66666667
,,,,,,,,,,,,,,,,,bivégszem,bivégszek,left,6.047,0,72,72,68,1,69,bivégszik,bivégszel,NA,NA,Te bizony sokat bivégszel.,Én is sokat...,bivégszek,bivégszem,lakik,-szik,2,PR2002,2000,nő,nem,2022-03-29_16h08.21.422,hesp_baseline,2021.2.3,MacIntel,16.66666667
,,,,,,,,,,,,,,,,,spüjzök,spüjzöm,left,3.35,0,73,73,59,1,60,spüjzik,spüjzöl,NA,NA,Te bizony sokat spüjzöl.,Én is sokat...,spüjzök,spüjzöm,lakik,-zik,1,PR2002,2000,nő,nem,2022-03-29_16h08.21.422,hesp_baseline,2021.2.3,MacIntel,16.66666667
,,,,,,,,,,,,,,,,,míjozunk,míjzunk,right,4.782,0,74,74,114,1,61,míjzik / míjozik,"míjzik, míjozni",ünk,NA,"János imád míjozni, ezért sokat míjzik.",Mi ritkán...,míjzunk,míjozunk,cselekszik,-zik,1,PR2002,2000,nő,nem,2022-03-29_16h08.21.422,hesp_baseline,2021.2.3,MacIntel,16.66666667
,,,,,,,,,,,,,,,,,dihelynak,dihelynek,right,2.396,0,75,75,20,1,75,dihely,dihely,nak,e,Ez itt egy dihely.,Elneveztem a kutyámat...,dihelynek,dihelynak,dzsungel,NA,NA,PR2002,2000,nő,nem,2022-03-29_16h08.21.422,hesp_baseline,2021.2.3,MacIntel,16.66666667
,,,,,,,,,,,,,,,,,ribegzek,ribegzem,right,2.529,0,76,76,63,1,64,ribegzik,ribegzel,NA,NA,Te bizony sokat ribegzel.,Én is sokat...,ribegzek,ribegzem,lakik,-zik,2,PR2002,2000,nő,nem,2022-03-29_16h08.21.422,hesp_baseline,2021.2.3,MacIntel,16.66666667
,,,,,,,,,,,,,,,,,klűmöztök,klűmlötök,left,4.212,0,77,77,108,1,55,klűmlik / klűmözik,"klűmlik, klűmözni",tek,NA,"János imád klűmözni, ezért sokat klűmlik.",Ti ritkán...,klűmlötök,klűmöztök,cselekszik,-lik,1,PR2002,2000,nő,nem,2022-03-29_16h08.21.422,hesp_baseline,2021.2.3,MacIntel,16.66666667
,,,,,,,,,,,,,,,,,dóbemnek,dóbemnak,left,2.172,0,78,78,48,1,103,dóbem,dóbem,nak,e,Ez itt egy dóbem.,Elneveztem a kutyámat...,dóbemnek,dóbemnak,dzsungel,NA,NA,PR2002,2000,nő,nem,2022-03-29_16h08.21.422,hesp_baseline,2021.2.3,MacIntel,16.66666667
,,,,,,,,,,,,,,,,,prilepszünk,prilepedünk,left,3.836,0,79,79,161,1,108,prilepszik / prilepedik,"prilepszik, prilepedni",ünk,NA,"János imád prilepedni, ezért sokat prilepszik.",Mi ritkán...,prilepszünk,prilepedünk,cselekszik,-szik,2,PR2002,2000,nő,nem,2022-03-29_16h08.21.422,hesp_baseline,2021.2.3,MacIntel,16.66666667
,,,,,,,,,,,,,,,,,poslotok,posoztok,left,3.907,0,80,80,121,1,68,poslik / posozik,"poslik, posozni",tek,NA,"János imád posozni, ezért sokat poslik.",Ti ritkán...,poslotok,posoztok,cselekszik,-lik,1,PR2002,2000,nő,nem,2022-03-29_16h08.21.422,hesp_baseline,2021.2.3,MacIntel,16.66666667
,,,,,,,,,,,,,,,,,spihegzek,spihegzem,right,3.079,0,81,81,81,1,82,spihegzik,spihegzel,NA,NA,Te bizony sokat spihegzel.,Én is sokat...,spihegzek,spihegzem,lakik,-zik,2,PR2002,2000,nő,nem,2022-03-29_16h08.21.422,hesp_baseline,2021.2.3,MacIntel,16.66666667
,,,,,,,,,,,,,,,,,dabzotok,daboztok,right,5.354,0,82,82,109,1,56,dabzik / dabozik,"dabzik, dabozni",tek,NA,"János imád dabozni, ezért sokat dabzik.",Ti ritkán...,dabzotok,daboztok,cselekszik,-zik,1,PR2002,2000,nő,nem,2022-03-29_16h08.21.422,hesp_baseline,2021.2.3,MacIntel,16.66666667
,,,,,,,,,,,,,,,,,lingéknál,lingéknél,right,3.939,0,83,83,32,1,87,lingék,lingék,nál,é,Ez itt egy lingék.,Nincs is jobb egy jó...,lingéknél,lingéknál,dzsungel,NA,NA,PR2002,2000,nő,nem,2022-03-29_16h08.21.422,hesp_baseline,2021.2.3,MacIntel,16.66666667
,,,,,,,,,,,,,,,,,klajrénnek,klajrénnak,left,7.622,0,84,84,41,1,96,klajrén,klajrén,nak,é,Ez itt egy klajrén.,Elneveztem a kutyámat...,klajrénnek,klajrénnak,dzsungel,NA,NA,PR2002,2000,nő,nem,2022-03-29_16h08.21.422,hesp_baseline,2021.2.3,MacIntel,16.66666667
,,,,,,,,,,,,,,,,,fréslünk,frésezünk,right,9.288,0,85,85,138,1,85,fréslik / frésezik,"fréslik, frésezni",ünk,NA,"János imád frésezni, ezért sokat fréslik.",Mi ritkán...,fréslünk,frésezünk,cselekszik,-lik,1,PR2002,2000,nő,nem,2022-03-29_16h08.21.422,hesp_baseline,2021.2.3,MacIntel,16.66666667
,,,,,,,,,,,,,,,,,klidlok,klidlom,right,5.741,0,86,86,72,1,73,klidlik,klidlasz,NA,NA,Te bizony sokat klidlasz.,Én is sokat...,klidlok,klidlom,lakik,-lik,1,PR2002,2000,nő,nem,2022-03-29_16h08.21.422,hesp_baseline,2021.2.3,MacIntel,16.66666667
,,,,,,,,,,,,,,,,,tranékban,tranékben,left,2.922,0,87,87,2,1,57,tranék,tranék,ban,é,Ez itt egy tranék.,Ott vagyunk a...,tranékben,tranékban,dzsungel,NA,NA,PR2002,2000,nő,nem,2022-03-29_16h08.21.422,hesp_baseline,2021.2.3,MacIntel,16.66666667
,,,,,,,,,,,,,,,,,spatárzom,spatárzok,left,2.621,0,88,88,69,1,70,spatárzik,spatárzol,NA,NA,Te bizony sokat spatárzol.,Én is sokat...,spatárzok,spatárzom,lakik,-zik,2,PR2002,2000,nő,nem,2022-03-29_16h08.21.422,hesp_baseline,2021.2.3,MacIntel,16.66666667
,,,,,,,,,,,,,,,,,trírzunk,trírozunk,left,3.537,0,89,89,116,1,63,trírzik / trírozik,"trírzik, trírozni",ünk,NA,"János imád trírozni, ezért sokat trírzik.",Mi ritkán...,trírzunk,trírozunk,cselekszik,-zik,1,PR2002,2000,nő,nem,2022-03-29_16h08.21.422,hesp_baseline,2021.2.3,MacIntel,16.66666667
,,,,,,,,,,,,,,,,,spáraklom,spáraklok,left,3.339,0,90,90,96,1,97,spáraklik,spáraklasz,NA,NA,Te bizony sokat spáraklasz.,Én is sokat...,spáraklok,spáraklom,lakik,-lik,2,PR2002,2000,nő,nem,2022-03-29_16h08.21.422,hesp_baseline,2021.2.3,MacIntel,16.66666667
,,,,,,,,,,,,,,,,,nűröklök,nűröklöm,right,4.425,0,91,91,106,1,107,nűröklik,nűröklesz,NA,NA,Te bizony sokat nűröklesz.,Én is sokat...,nűröklök,nűröklöm,lakik,-lik,2,PR2002,2000,nő,nem,2022-03-29_16h08.21.422,hesp_baseline,2021.2.3,MacIntel,16.66666667
,,,,,,,,,,,,,,,,,lijeznek,lijeznak,left,2.142,0,92,92,40,1,95,lijez,lijez,nak,e,Ez itt egy lijez.,Elneveztem a kutyámat...,lijeznek,lijeznak,dzsungel,NA,NA,PR2002,2000,nő,nem,2022-03-29_16h08.21.422,hesp_baseline,2021.2.3,MacIntel,16.66666667
,,,,,,,,,,,,,,,,,jonylok,jonylom,right,2.758,0,93,93,55,1,56,jonylik,jonylasz,NA,NA,Te bizony sokat jonylasz.,Én is sokat...,jonylok,jonylom,lakik,-lik,1,PR2002,2000,nő,nem,2022-03-29_16h08.21.422,hesp_baseline,2021.2.3,MacIntel,16.66666667
,,,,,,,,,,,,,,,,,tribejeztek,tribejletek,right,9.359,0,94,94,132,1,79,tribejlik / tribejezik,"tribejlik, tribejezni",tek,NA,"János imád tribejezni, ezért sokat tribejlik.",Ti ritkán...,tribejletek,tribejeztek,cselekszik,-lik,2,PR2002,2000,nő,nem,2022-03-29_16h08.21.422,hesp_baseline,2021.2.3,MacIntel,16.66666667
,,,,,,,,,,,,,,,,,spivélnek,spivélnak,left,2.214,0,95,95,27,1,82,spivél,spivél,nak,é,Ez itt egy spivél.,Elneveztem a kutyámat...,spivélnek,spivélnak,dzsungel,NA,NA,PR2002,2000,nő,nem,2022-03-29_16h08.21.422,hesp_baseline,2021.2.3,MacIntel,16.66666667
,,,,,,,,,,,,,,,,,femlek,femlem,left,3.139,0,96,96,57,1,58,femlik,femlesz,NA,NA,Te bizony sokat femlesz.,Én is sokat...,femlek,femlem,lakik,-lik,1,PR2002,2000,nő,nem,2022-03-29_16h08.21.422,hesp_baseline,2021.2.3,MacIntel,16.66666667
,,,,,,,,,,,,,,,,,csólorzom,csólorzok,left,5.839,0,97,97,102,1,103,csólorzik,csólorzol,NA,NA,Te bizony sokat csólorzol.,Én is sokat...,csólorzok,csólorzom,lakik,-zik,2,PR2002,2000,nő,nem,2022-03-29_16h08.21.422,hesp_baseline,2021.2.3,MacIntel,16.66666667
,,,,,,,,,,,,,,,,,lírlanak,líroznak,right,5.169,0,98,98,115,1,62,lírlik / lírozik,"lírlik, lírozni",nek,NA,"János imád lírozni, ezért sokat lírlik.",Ők ritkán...,lírlanak,líroznak,cselekszik,-lik,1,PR2002,2000,nő,nem,2022-03-29_16h08.21.422,hesp_baseline,2021.2.3,MacIntel,16.66666667
,,,,,,,,,,,,,,,,,spülűdzök,spülűdzöm,left,14.023,0,99,99,56,1,57,spülűdzik,spülűdzöl,NA,NA,Te bizony sokat spülűdzöl.,Én is sokat...,spülűdzök,spülűdzöm,lakik,-zik,2,PR2002,2000,nő,nem,2022-03-29_16h08.21.422,hesp_baseline,2021.2.3,MacIntel,16.66666667
,,,,,,,,,,,,,,,,,frivamlunk,frivamozunk,right,7.139,0,100,100,122,1,69,frivamlik / frivamozik,"frivamlik, frivamozni",ünk,NA,"János imád frivamozni, ezért sokat frivamlik.",Mi ritkán...,frivamlunk,frivamozunk,cselekszik,-lik,2,PR2002,2000,nő,nem,2022-03-29_16h08.21.422,hesp_baseline,2021.2.3,MacIntel,16.66666667
,,,,,,,,,,,,,,,,,játlunk,játozunk,left,3.464,0,101,101,145,1,92,játlik / játozik,"játlik, játozni",ünk,NA,"János imád játozni, ezért sokat játlik.",Mi ritkán...,játlunk,játozunk,cselekszik,-lik,1,PR2002,2000,nő,nem,2022-03-29_16h08.21.422,hesp_baseline,2021.2.3,MacIntel,16.66666667
,,,,,,,,,,,,,,,,,flézeztek,flézletek,left,4.809,0,102,102,134,1,81,flézlik / flézezik,"flézlik, flézezni",tek,NA,"János imád flézezni, ezért sokat flézlik.",Ti ritkán...,flézletek,flézeztek,cselekszik,-lik,1,PR2002,2000,nő,nem,2022-03-29_16h08.21.422,hesp_baseline,2021.2.3,MacIntel,16.66666667
,,,,,,,,,,,,,,,,,flüröklötök,flürököztök,right,3.882,0,103,103,149,1,96,flüröklik / flüröközik,"flüröklik, flüröközni",tek,NA,"János imád flüröközni, ezért sokat flüröklik.",Ti ritkán...,flüröklötök,flürököztök,cselekszik,-lik,2,PR2002,2000,nő,nem,2022-03-29_16h08.21.422,hesp_baseline,2021.2.3,MacIntel,16.66666667
,,,,,,,,,,,,,,,,,branyoznak,branylanak,left,7.545,0,104,104,136,1,83,branylik / branyozik,"branylik, branyozni",nek,NA,"János imád branyozni, ezért sokat branylik.",Ők ritkán...,branylanak,branyoznak,cselekszik,-lik,1,PR2002,2000,nő,nem,2022-03-29_16h08.21.422,hesp_baseline,2021.2.3,MacIntel,16.66666667
,,,,,,,,,,,,,,,,,figlok,figlom,left,3.857,0,105,105,75,1,76,figlik,figlasz,NA,NA,Te bizony sokat figlasz.,Én is sokat...,figlok,figlom,lakik,-lik,1,PR2002,2000,nő,nem,2022-03-29_16h08.21.422,hesp_baseline,2021.2.3,MacIntel,16.66666667
,,,,,,,,,,,,,,,,,ikszertban,ikszertben,right,2.365,0,106,106,19,1,74,ikszert,ikszert,ban,e,Ez itt egy ikszert.,Ott vagyunk a...,ikszertben,ikszertban,dzsungel,NA,NA,PR2002,2000,nő,nem,2022-03-29_16h08.21.422,hesp_baseline,2021.2.3,MacIntel,16.66666667
,,,,,,,,,,,,,,,,,spöklünk,spöközünk,right,4.272,0,107,107,130,1,77,spöklik / spöközik,"spöklik, spöközni",ünk,NA,"János imád spöközni, ezért sokat spöklik.",Mi ritkán...,spöklünk,spöközünk,cselekszik,-lik,1,PR2002,2000,nő,nem,2022-03-29_16h08.21.422,hesp_baseline,2021.2.3,MacIntel,16.66666667
,,,,,,,,,,,,,,,,,hubonylotok,hubonyoztok,right,4.299,0,108,108,157,1,104,hubonylik / hubonyozik,"hubonylik, hubonyozni",tek,NA,"János imád hubonyozni, ezért sokat hubonylik.",Ti ritkán...,hubonylotok,hubonyoztok,cselekszik,-lik,2,PR2002,2000,nő,nem,2022-03-29_16h08.21.422,hesp_baseline,2021.2.3,MacIntel,16.66666667
,,,,,,,,,,,,,,,,,fojlegynek,fojlegynak,left,2.211,0,109,109,3,1,58,fojlegy,fojlegy,nak,e,Ez itt egy fojlegy.,Elneveztem a kutyámat...,fojlegynek,fojlegynak,dzsungel,NA,NA,PR2002,2000,nő,nem,2022-03-29_16h08.21.422,hesp_baseline,2021.2.3,MacIntel,16.66666667
,,,,,,,,,,,,,,,,,prihekszek,prihekszem,right,3.873,0,110,110,100,1,101,prihekszik,prihekszel,NA,NA,Te bizony sokat prihekszel.,Én is sokat...,prihekszek,prihekszem,lakik,-szik,2,PR2002,2000,nő,nem,2022-03-29_16h08.21.422,hesp_baseline,2021.2.3,MacIntel,16.66666667
,,,,,,,,,,,,,,,,,fröjöztök,fröjzötök,left,4.305,0,111,111,153,1,100,fröjzik / fröjözik,"fröjzik, fröjözni",tek,NA,"János imád fröjözni, ezért sokat fröjzik.",Ti ritkán...,fröjzötök,fröjöztök,cselekszik,-zik,1,PR2002,2000,nő,nem,2022-03-29_16h08.21.422,hesp_baseline,2021.2.3,MacIntel,16.66666667
,,,,,,,,,,,,,,,,,csíszlok,csíszlom,right,2.22,0,112,112,84,1,85,csíszlik,csíszlasz,NA,NA,Te bizony sokat csíszlasz.,Én is sokat...,csíszlok,csíszlom,lakik,-lik,1,PR2002,2000,nő,nem,2022-03-29_16h08.21.422,hesp_baseline,2021.2.3,MacIntel,16.66666667
,,,,,,,,,,,,,,,,,zutennél,zutennál,left,3.272,0,113,113,43,1,98,zuten,zuten,nál,e,Ez itt egy zuten.,Nincs is jobb egy jó...,zutennél,zutennál,dzsungel,NA,NA,PR2002,2000,nő,nem,2022-03-29_16h08.21.422,hesp_baseline,2021.2.3,MacIntel,16.66666667
,,,,,,,,,,,,,,,,,spátennak,spátennek,right,2.34,0,114,114,33,1,88,spáten,spáten,nak,e,Ez itt egy spáten.,Elneveztem a kutyámat...,spátennek,spátennak,dzsungel,NA,NA,PR2002,2000,nő,nem,2022-03-29_16h08.21.422,hesp_baseline,2021.2.3,MacIntel,16.66666667
,,,,,,,,,,,,,,,,,bingéjnek,bingéjnak,left,2.077,0,115,115,49,1,104,bingéj,bingéj,nak,é,Ez itt egy bingéj.,Elneveztem a kutyámat...,bingéjnek,bingéjnak,dzsungel,NA,NA,PR2002,2000,nő,nem,2022-03-29_16h08.21.422,hesp_baseline,2021.2.3,MacIntel,16.66666667
,,,,,,,,,,,,,,,,,forzédnak,forzédnek,right,2.779,0,116,116,46,1,101,forzéd,forzéd,nak,é,Ez itt egy forzéd.,Elneveztem a kutyámat...,forzédnek,forzédnak,dzsungel,NA,NA,PR2002,2000,nő,nem,2022-03-29_16h08.21.422,hesp_baseline,2021.2.3,MacIntel,16.66666667
,,,,,,,,,,,,,,,,,zihencnek,zihencnak,left,2.394,0,117,117,52,1,107,zihenc,zihenc,nak,e,Ez itt egy zihenc.,Elneveztem a kutyámat...,zihencnek,zihencnak,dzsungel,NA,NA,PR2002,2000,nő,nem,2022-03-29_16h08.21.422,hesp_baseline,2021.2.3,MacIntel,16.66666667
,,,,,,,,,,,,,,,,,pivegszem,pivegszek,left,2.214,0,118,118,99,1,100,pivegszik,pivegszel,NA,NA,Te bizony sokat pivegszel.,Én is sokat...,pivegszek,pivegszem,lakik,-szik,2,PR2002,2000,nő,nem,2022-03-29_16h08.21.422,hesp_baseline,2021.2.3,MacIntel,16.66666667
,,,,,,,,,,,,,,,,,klingeszben,klingeszban,left,4.088,0,119,119,1,1,56,klingesz,klingesz,ban,e,Ez itt egy klingesz.,Ott vagyunk a...,klingeszben,klingeszban,dzsungel,NA,NA,PR2002,2000,nő,nem,2022-03-29_16h08.21.422,hesp_baseline,2021.2.3,MacIntel,16.66666667
,,,,,,,,,,,,,,,,,nidétban,nidétben,right,2.501,0,120,120,39,1,94,nidét,nidét,ban,é,Ez itt egy nidét.,Ott vagyunk a...,nidétben,nidétban,dzsungel,NA,NA,PR2002,2000,nő,nem,2022-03-29_16h08.21.422,hesp_baseline,2021.2.3,MacIntel,16.66666667
,,,,,,,,,,,,,,,,,spiharzotok,spiharoztok,right,3.989,0,121,121,127,1,74,spiharzik / spiharozik,"spiharzik, spiharozni",tek,NA,"János imád spiharozni, ezért sokat spiharzik.",Ti ritkán...,spiharzotok,spiharoztok,cselekszik,-zik,2,PR2002,2000,nő,nem,2022-03-29_16h08.21.422,hesp_baseline,2021.2.3,MacIntel,16.66666667
,,,,,,,,,,,,,,,,,cságyeltben,cságyeltban,left,3.454,0,122,122,10,1,65,cságyelt,cságyelt,ban,e,Ez itt egy cságyelt.,Ott vagyunk a...,cságyeltben,cságyeltban,dzsungel,NA,NA,PR2002,2000,nő,nem,2022-03-29_16h08.21.422,hesp_baseline,2021.2.3,MacIntel,16.66666667
,,,,,,,,,,,,,,,,,plugzom,plugzok,left,2.123,0,123,123,60,1,61,plugzik,plugzol,NA,NA,Te bizony sokat plugzol.,Én is sokat...,plugzok,plugzom,lakik,-zik,1,PR2002,2000,nő,nem,2022-03-29_16h08.21.422,hesp_baseline,2021.2.3,MacIntel,16.66666667
,,,,,,,,,,,,,,,,,dilakoztok,dilaklotok,left,4.498,0,124,124,158,1,105,dilaklik / dilakozik,"dilaklik, dilakozni",tek,NA,"János imád dilakozni, ezért sokat dilaklik.",Ti ritkán...,dilaklotok,dilakoztok,cselekszik,-lik,2,PR2002,2000,nő,nem,2022-03-29_16h08.21.422,hesp_baseline,2021.2.3,MacIntel,16.66666667
,,,,,,,,,,,,,,,,,spubonylok,spubonylom,left,4.249,0,125,125,104,1,105,spubonylik,spubonylasz,NA,NA,Te bizony sokat spubonylasz.,Én is sokat...,spubonylok,spubonylom,lakik,-lik,2,PR2002,2000,nő,nem,2022-03-29_16h08.21.422,hesp_baseline,2021.2.3,MacIntel,16.66666667
,,,,,,,,,,,,,,,,,flátszom,flátszok,left,2.701,0,126,126,98,1,99,flátszik,flátszol,NA,NA,Te bizony sokat flátszol.,Én is sokat...,flátszok,flátszom,lakik,-szik,1,PR2002,2000,nő,nem,2022-03-29_16h08.21.422,hesp_baseline,2021.2.3,MacIntel,16.66666667
,,,,,,,,,,,,,,,,,vorszennél,vorszennál,left,2.998,0,127,127,30,1,85,vorszen,vorszen,nál,e,Ez itt egy vorszen.,Nincs is jobb egy jó...,vorszennél,vorszennál,dzsungel,NA,NA,PR2002,2000,nő,nem,2022-03-29_16h08.21.422,hesp_baseline,2021.2.3,MacIntel,16.66666667
,,,,,,,,,,,,,,,,,klazérban,klazérben,left,2.645,0,128,128,51,1,106,klazér,klazér,ban,é,Ez itt egy klazér.,Ott vagyunk a...,klazérben,klazérban,dzsungel,NA,NA,PR2002,2000,nő,nem,2022-03-29_16h08.21.422,hesp_baseline,2021.2.3,MacIntel,16.66666667
,,,,,,,,,,,,,,,,,dibágoztok,dibáglotok,left,5.865,0,129,129,154,1,101,dibáglik / dibágozik,"dibáglik, dibágozni",tek,NA,"János imád dibágozni, ezért sokat dibáglik.",Ti ritkán...,dibáglotok,dibágoztok,cselekszik,-lik,2,PR2002,2000,nő,nem,2022-03-29_16h08.21.422,hesp_baseline,2021.2.3,MacIntel,16.66666667
,,,,,,,,,,,,,,,,,pítendban,pítendben,right,2.328,0,130,130,18,1,73,pítend,pítend,ban,e,Ez itt egy pítend.,Ott vagyunk a...,pítendben,pítendban,dzsungel,NA,NA,PR2002,2000,nő,nem,2022-03-29_16h08.21.422,hesp_baseline,2021.2.3,MacIntel,16.66666667
,,,,,,,,,,,,,,,,,sojzom,sojzok,left,3.404,0,131,131,74,1,75,sojzik,sojzol,NA,NA,Te bizony sokat sojzol.,Én is sokat...,sojzok,sojzom,lakik,-zik,1,PR2002,2000,nő,nem,2022-03-29_16h08.21.422,hesp_baseline,2021.2.3,MacIntel,16.66666667
,,,,,,,,,,,,,,,,,flehékszek,flehékszem,left,2.462,0,132,132,77,1,78,flehékszik,flehékszel,NA,NA,Te bizony sokat flehékszel.,Én is sokat...,flehékszek,flehékszem,lakik,-szik,2,PR2002,2000,nő,nem,2022-03-29_16h08.21.422,hesp_baseline,2021.2.3,MacIntel,16.66666667
,,,,,,,,,,,,,,,,,jábézben,jábézban,left,2.642,0,133,133,34,1,89,jábéz,jábéz,ban,é,Ez itt egy jábéz.,Ott vagyunk a...,jábézben,jábézban,dzsungel,NA,NA,PR2002,2000,nő,nem,2022-03-29_16h08.21.422,hesp_baseline,2021.2.3,MacIntel,16.66666667
,,,,,,,,,,,,,,,,,gilárzok,gilárzom,right,4.658,0,134,134,94,1,95,gilárzik,gilárzol,NA,NA,Te bizony sokat gilárzol.,Én is sokat...,gilárzok,gilárzom,lakik,-zik,2,PR2002,2000,nő,nem,2022-03-29_16h08.21.422,hesp_baseline,2021.2.3,MacIntel,16.66666667
,,,,,,,,,,,,,,,,,sprebeznek,sprebzenek,left,5.247,0,135,135,139,1,86,sprebzik / sprebezik,"sprebzik, sprebezni",nek,NA,"János imád sprebezni, ezért sokat sprebzik.",Ők ritkán...,sprebzenek,sprebeznek,cselekszik,-zik,1,PR2002,2000,nő,nem,2022-03-29_16h08.21.422,hesp_baseline,2021.2.3,MacIntel,16.66666667
,,,,,,,,,,,,,,,,,pribemlek,pribemlem,right,2.656,0,136,136,107,1,108,pribemlik,pribemlesz,NA,NA,Te bizony sokat pribemlesz.,Én is sokat...,pribemlek,pribemlem,lakik,-lik,2,PR2002,2000,nő,nem,2022-03-29_16h08.21.422,hesp_baseline,2021.2.3,MacIntel,16.66666667
,,,,,,,,,,,,,,,,,klehényletek,klehényeztek,left,8.554,0,137,137,113,1,60,klehénylik / klehényezik,"klehénylik, klehényezni",tek,NA,"János imád klehényezni, ezért sokat klehénylik.",Ti ritkán...,klehényletek,klehényeztek,cselekszik,-lik,2,PR2002,2000,nő,nem,2022-03-29_16h08.21.422,hesp_baseline,2021.2.3,MacIntel,16.66666667
,,,,,,,,,,,,,,,,,flüröslök,flüröslöm,left,2.786,0,138,138,87,1,88,flüröslik,flüröslesz,NA,NA,Te bizony sokat flüröslesz.,Én is sokat...,flüröslök,flüröslöm,lakik,-lik,2,PR2002,2000,nő,nem,2022-03-29_16h08.21.422,hesp_baseline,2021.2.3,MacIntel,16.66666667
,,,,,,,,,,,,,,,,,júdernek,júdernak,left,2.686,0,139,139,53,1,108,júder,júder,nak,e,Ez itt egy júder.,Elneveztem a kutyámat...,júdernek,júdernak,dzsungel,NA,NA,PR2002,2000,nő,nem,2022-03-29_16h08.21.422,hesp_baseline,2021.2.3,MacIntel,16.66666667
,,,,,,,,,,,,,,,,,zsigénnél,zsigénnál,left,2.549,0,140,140,12,1,67,zsigén,zsigén,nál,é,Ez itt egy zsigén.,Nincs is jobb egy jó...,zsigénnél,zsigénnál,dzsungel,NA,NA,PR2002,2000,nő,nem,2022-03-29_16h08.21.422,hesp_baseline,2021.2.3,MacIntel,16.66666667
,,,,,,,,,,,,,,,,,brágédnak,brágédnek,left,3.288,0,141,141,45,1,100,brágéd,brágéd,nak,é,Ez itt egy brágéd.,Elneveztem a kutyámat...,brágédnek,brágédnak,dzsungel,NA,NA,PR2002,2000,nő,nem,2022-03-29_16h08.21.422,hesp_baseline,2021.2.3,MacIntel,16.66666667
,,,,,,,,,,,,,,,,,huroslom,huroslok,left,2.69,0,142,142,76,1,77,huroslik,huroslasz,NA,NA,Te bizony sokat huroslasz.,Én is sokat...,huroslok,huroslom,lakik,-lik,2,PR2002,2000,nő,nem,2022-03-29_16h08.21.422,hesp_baseline,2021.2.3,MacIntel,16.66666667
,,,,,,,,,,,,,,,,,klítegynél,klítegynál,left,3.057,0,143,143,5,1,60,klítegy,klítegy,nál,e,Ez itt egy klítegy.,Nincs is jobb egy jó...,klítegynél,klítegynál,dzsungel,NA,NA,PR2002,2000,nő,nem,2022-03-29_16h08.21.422,hesp_baseline,2021.2.3,MacIntel,16.66666667
,,,,,,,,,,,,,,,,,flitlok,flitlom,left,3.642,0,144,144,90,1,91,flitlik,flitlasz,NA,NA,Te bizony sokat flitlasz.,Én is sokat...,flitlok,flitlom,lakik,-lik,1,PR2002,2000,nő,nem,2022-03-29_16h08.21.422,hesp_baseline,2021.2.3,MacIntel,16.66666667
,,,,,,,,,,,,,,,,,kluhéjnél,kluhéjnál,left,3.22,0,145,145,24,1,79,kluhéj,kluhéj,nál,é,Ez itt egy kluhéj.,Nincs is jobb egy jó...,kluhéjnél,kluhéjnál,dzsungel,NA,NA,PR2002,2000,nő,nem,2022-03-29_16h08.21.422,hesp_baseline,2021.2.3,MacIntel,16.66666667
,,,,,,,,,,,,,,,,,tumélynál,tumélynél,right,2.227,0,146,146,28,1,83,tumély,tumély,nál,é,Ez itt egy tumély.,Nincs is jobb egy jó...,tumélynél,tumélynál,dzsungel,NA,NA,PR2002,2000,nő,nem,2022-03-29_16h08.21.422,hesp_baseline,2021.2.3,MacIntel,16.66666667
,,,,,,,,,,,,,,,,,flodoztok,flodlotok,left,3.639,0,147,147,144,1,91,flodlik / flodozik,"flodlik, flodozni",tek,NA,"János imád flodozni, ezért sokat flodlik.",Ti ritkán...,flodlotok,flodoztok,cselekszik,-lik,1,PR2002,2000,nő,nem,2022-03-29_16h08.21.422,hesp_baseline,2021.2.3,MacIntel,16.66666667
,,,,,,,,,,,,,,,,,drojozunk,drojzunk,right,4.848,0,148,148,140,1,87,drojzik / drojozik,"drojzik, drojozni",ünk,NA,"János imád drojozni, ezért sokat drojzik.",Mi ritkán...,drojzunk,drojozunk,cselekszik,-zik,1,PR2002,2000,nő,nem,2022-03-29_16h08.21.422,hesp_baseline,2021.2.3,MacIntel,16.66666667
,,,,,,,,,,,,,,,,,flagánylom,flagánylok,right,3.438,0,149,149,82,1,83,flagánylik,flagánylasz,NA,NA,Te bizony sokat flagánylasz.,Én is sokat...,flagánylok,flagánylom,lakik,-lik,2,PR2002,2000,nő,nem,2022-03-29_16h08.21.422,hesp_baseline,2021.2.3,MacIntel,16.66666667
,,,,,,,,,,,,,,,,,brivegzem,brivegzek,left,2.677,0,150,150,70,1,71,brivegzik,brivegzel,NA,NA,Te bizony sokat brivegzel.,Én is sokat...,brivegzek,brivegzem,lakik,-zik,2,PR2002,2000,nő,nem,2022-03-29_16h08.21.422,hesp_baseline,2021.2.3,MacIntel,16.66666667
,,,,,,,,,,,,,,,,,molszotok,molodtok,right,6.242,0,151,151,142,1,89,molszik / molodik,"molszik, molodni",tek,NA,"János imád molodni, ezért sokat molszik.",Ti ritkán...,molszotok,molodtok,cselekszik,-szik,1,PR2002,2000,nő,nem,2022-03-29_16h08.21.422,hesp_baseline,2021.2.3,MacIntel,16.66666667
,,,,,,,,,,,,,,,,,ronvetnak,ronvetnek,right,7.774,0,152,152,9,1,64,ronvet,ronvet,nak,e,Ez itt egy ronvet.,Elneveztem a kutyámat...,ronvetnek,ronvetnak,dzsungel,NA,NA,PR2002,2000,nő,nem,2022-03-29_16h08.21.422,hesp_baseline,2021.2.3,MacIntel,16.66666667
,,,,,,,,,,,,,,,,,brágaklok,brágaklom,left,7.511,0,153,153,71,1,72,brágaklik,brágaklasz,NA,NA,Te bizony sokat brágaklasz.,Én is sokat...,brágaklok,brágaklom,lakik,-lik,2,PR2002,2000,nő,nem,2022-03-29_16h08.21.422,hesp_baseline,2021.2.3,MacIntel,16.66666667
,,,,,,,,,,,,,,,,,tiregzek,tiregzem,left,19.914,0,154,154,64,1,65,tiregzik,tiregzel,NA,NA,Te bizony sokat tiregzel.,Én is sokat...,tiregzek,tiregzem,lakik,-zik,2,PR2002,2000,nő,nem,2022-03-29_16h08.21.422,hesp_baseline,2021.2.3,MacIntel,16.66666667
,,,,,,,,,,,,,,,,,gihesztnak,gihesztnek,right,2.183,0,155,155,36,1,91,giheszt,giheszt,nak,e,Ez itt egy giheszt.,Elneveztem a kutyámat...,gihesztnek,gihesztnak,dzsungel,NA,NA,PR2002,2000,nő,nem,2022-03-29_16h08.21.422,hesp_baseline,2021.2.3,MacIntel,16.66666667
,,,,,,,,,,,,,,,,,frodlom,frodlok,left,2.954,0,156,156,61,1,62,frodlik,frodlasz,NA,NA,Te bizony sokat frodlasz.,Én is sokat...,frodlok,frodlom,lakik,-lik,1,PR2002,2000,nő,nem,2022-03-29_16h08.21.422,hesp_baseline,2021.2.3,MacIntel,16.66666667
,,,,,,,,,,,,,,,,,nyametben,nyametban,left,3.741,0,157,157,17,1,72,nyamet,nyamet,ban,e,Ez itt egy nyamet.,Ott vagyunk a...,nyametben,nyametban,dzsungel,NA,NA,PR2002,2000,nő,nem,2022-03-29_16h08.21.422,hesp_baseline,2021.2.3,MacIntel,16.66666667
,,,,,,,,,,,,,,,,,bribékedtek,bribékszetek,left,3.785,0,158,158,141,1,88,bribékszik / bribékedik,"bribékszik, bribékedni",tek,NA,"János imád bribékedni, ezért sokat bribékszik.",Ti ritkán...,bribékszetek,bribékedtek,cselekszik,-szik,2,PR2002,2000,nő,nem,2022-03-29_16h08.21.422,hesp_baseline,2021.2.3,MacIntel,16.66666667
,,,,,,,,,,,,,,,,,fupétnél,fupétnál,left,2.53,0,159,159,14,1,69,fupét,fupét,nál,é,Ez itt egy fupét.,Nincs is jobb egy jó...,fupétnél,fupétnál,dzsungel,NA,NA,PR2002,2000,nő,nem,2022-03-29_16h08.21.422,hesp_baseline,2021.2.3,MacIntel,16.66666667
,,,,,,,,,,,,,,,,,fájézben,fájézban,right,2.608,0,160,160,7,1,62,fájéz,fájéz,ban,é,Ez itt egy fájéz.,Ott vagyunk a...,fájézben,fájézban,dzsungel,NA,NA,PR2002,2000,nő,nem,2022-03-29_16h08.21.422,hesp_baseline,2021.2.3,MacIntel,16.66666667
,,,,,,,,,,,,,,,,,dineltban,dineltben,right,2.296,0,161,161,0,1,55,dinelt,dinelt,ban,e,Ez itt egy dinelt.,Ott vagyunk a...,dineltben,dineltban,dzsungel,NA,NA,PR2002,2000,nő,nem,2022-03-29_16h08.21.422,hesp_baseline,2021.2.3,MacIntel,16.66666667
