my_list,key.keys,key.rt,key_2.keys,key_2.rt,keyboard_input_2.keys,keyboard_input_2.rt,key_3.keys,key_3.rt,keyboard_input_3.keys,keyboard_input_3.rt,key_4.keys,key_4.rt,keyboard_input_4.keys,keyboard_input_4.rt,key_5.keys,key_5.rt,my_button1,my_button2,keyboard_input.keys,keyboard_input.rt,withinBlock.thisRepN,withinBlock.thisTrialN,withinBlock.thisN,withinBlock.thisIndex,withinBlock.ran,rowname,word,prompt,suffix,vowel,carrier_sentence,target_sentence,target1,target2,category,derivational,nsyl,Azonosító,Melyik évben születtél?,Mi a nemed?,Tanultál nyelvészetet?,date,expName,psychopyVersion,OS,frameRate
list1.csv,space,198.4761,space,20.3861,right,8.6265,space,95.4606,left,6.2906,space,23.4504,left,11.2497,space,19.4448,szibánylom,szibánylok,right,18.1308,0,0,0,67,1,14,szibánylik,szibánylasz,NA,NA,Te bizony sokat szibánylasz.,Én is sokat...,szibánylok,szibánylom,lakik,-lik,2,PR2016,2000,nő,nem,2022-04-06_10h33.43.018,hesp_baseline,2021.2.3,Win32,59.83366242
,,,,,,,,,,,,,,,,,csarténynak,csarténynek,left,16.9816,0,1,1,36,1,37,csartény,csartény,nak,é,Ez itt egy csartény.,Elneveztem a kutyámat...,csarténynek,csarténynak,dzsungel,NA,NA,PR2016,2000,nő,nem,2022-04-06_10h33.43.018,hesp_baseline,2021.2.3,Win32,59.83366242
,,,,,,,,,,,,,,,,,tivencban,tivencben,right,11.4572,0,2,2,53,1,54,tivenc,tivenc,ban,e,Ez itt egy tivenc.,Ott vagyunk a...,tivencben,tivencban,dzsungel,NA,NA,PR2016,2000,nő,nem,2022-04-06_10h33.43.018,hesp_baseline,2021.2.3,Win32,59.83366242
,,,,,,,,,,,,,,,,,huklom,huklok,right,22.1802,0,3,3,78,1,25,huklik,huklasz,NA,NA,Te bizony sokat huklasz.,Én is sokat...,huklok,huklom,lakik,-lik,1,PR2016,2000,nő,nem,2022-04-06_10h33.43.018,hesp_baseline,2021.2.3,Win32,59.83366242
,,,,,,,,,,,,,,,,,dujoznak,dujzanak,right,10.3267,0,4,4,128,1,21,dujzik / dujozik,"dujzik, dujozni",nek,NA,"János imád dujozni, ezért sokat dujzik.",Ők ritkán...,dujzanak,dujoznak,cselekszik,-zik,1,PR2016,2000,nő,nem,2022-04-06_10h33.43.018,hesp_baseline,2021.2.3,Win32,59.83366242
,,,,,,,,,,,,,,,,,spábétban,spábétben,right,13.1925,0,5,5,51,1,52,spábét,spábét,ban,é,Ez itt egy spábét.,Ott vagyunk a...,spábétben,spábétban,dzsungel,NA,NA,PR2016,2000,nő,nem,2022-04-06_10h33.43.018,hesp_baseline,2021.2.3,Win32,59.83366242
,,,,,,,,,,,,,,,,,rokszom,rokszok,right,6.4388,0,6,6,101,1,48,rokszik,rokszol,NA,NA,Te bizony sokat rokszol.,Én is sokat...,rokszok,rokszom,lakik,-szik,1,PR2016,2000,nő,nem,2022-04-06_10h33.43.018,hesp_baseline,2021.2.3,Win32,59.83366242
,,,,,,,,,,,,,,,,,zsúdelnak,zsúdelnek,right,5.2681,0,7,7,14,1,15,zsúdel,zsúdel,nak,e,Ez itt egy zsúdel.,Elneveztem a kutyámat...,zsúdelnek,zsúdelnak,dzsungel,NA,NA,PR2016,2000,nő,nem,2022-04-06_10h33.43.018,hesp_baseline,2021.2.3,Win32,59.83366242
,,,,,,,,,,,,,,,,,frélegezünk,frélegzünk,left,11.5126,0,8,8,147,1,40,frélegzik / frélegezik,"frélegzik, frélegezni",ünk,NA,"János imád frélegezni, ezért sokat frélegzik.",Mi ritkán...,frélegzünk,frélegezünk,cselekszik,-zik,2,PR2016,2000,nő,nem,2022-04-06_10h33.43.018,hesp_baseline,2021.2.3,Win32,59.83366242
,,,,,,,,,,,,,,,,,plövőrzöm,plövőrzök,left,7.7129,0,9,9,58,1,5,plövőrzik,plövőrzöl,NA,NA,Te bizony sokat plövőrzöl.,Én is sokat...,plövőrzök,plövőrzöm,lakik,-zik,2,PR2016,2000,nő,nem,2022-04-06_10h33.43.018,hesp_baseline,2021.2.3,Win32,59.83366242
,,,,,,,,,,,,,,,,,brarlok,brarlom,left,12.7018,0,10,10,71,1,18,brarlik,brarlasz,NA,NA,Te bizony sokat brarlasz.,Én is sokat...,brarlok,brarlom,lakik,-lik,1,PR2016,2000,nő,nem,2022-04-06_10h33.43.018,hesp_baseline,2021.2.3,Win32,59.83366242
,,,,,,,,,,,,,,,,,dábegyben,dábegyban,left,5.7337,0,11,11,6,1,7,dábegy,dábegy,ban,e,Ez itt egy dábegy.,Ott vagyunk a...,dábegyben,dábegyban,dzsungel,NA,NA,PR2016,2000,nő,nem,2022-04-06_10h33.43.018,hesp_baseline,2021.2.3,Win32,59.83366242
,,,,,,,,,,,,,,,,,buhényben,buhényban,left,18.3184,0,12,12,43,1,44,buhény,buhény,ban,é,Ez itt egy buhény.,Ott vagyunk a...,buhényben,buhényban,dzsungel,NA,NA,PR2016,2000,nő,nem,2022-04-06_10h33.43.018,hesp_baseline,2021.2.3,Win32,59.83366242
,,,,,,,,,,,,,,,,,flagárzom,flagárzok,left,77.1809,0,13,13,64,1,11,flagárzik,flagárzol,NA,NA,Te bizony sokat flagárzol.,Én is sokat...,flagárzok,flagárzom,lakik,-zik,2,PR2016,2000,nő,nem,2022-04-06_10h33.43.018,hesp_baseline,2021.2.3,Win32,59.83366242
,,,,,,,,,,,,,,,,,lörűdzöm,lörűdzök,left,9.5308,0,14,14,77,1,24,lörűdzik,lörűdzöl,NA,NA,Te bizony sokat lörűdzöl.,Én is sokat...,lörűdzök,lörűdzöm,lakik,-zik,2,PR2016,2000,nő,nem,2022-04-06_10h33.43.018,hesp_baseline,2021.2.3,Win32,59.83366242
,,,,,,,,,,,,,,,,,préleglem,préleglek,right,5.0982,0,15,15,104,1,51,préleglik,préleglesz,NA,NA,Te bizony sokat préleglesz.,Én is sokat...,préleglek,préleglem,lakik,-lik,2,PR2016,2000,nő,nem,2022-04-06_10h33.43.018,hesp_baseline,2021.2.3,Win32,59.83366242
,,,,,,,,,,,,,,,,,zsalrénnak,zsalrénnek,right,7.3939,0,16,16,19,1,20,zsalrén,zsalrén,nak,é,Ez itt egy zsalrén.,Elneveztem a kutyámat...,zsalrénnek,zsalrénnak,dzsungel,NA,NA,PR2016,2000,nő,nem,2022-04-06_10h33.43.018,hesp_baseline,2021.2.3,Win32,59.83366242
,,,,,,,,,,,,,,,,,tragzok,tragzom,right,4.809,0,17,17,90,1,37,tragzik,tragzol,NA,NA,Te bizony sokat tragzol.,Én is sokat...,tragzok,tragzom,lakik,-zik,1,PR2016,2000,nő,nem,2022-04-06_10h33.43.018,hesp_baseline,2021.2.3,Win32,59.83366242
,,,,,,,,,,,,,,,,,tágarzunk,tágarozunk,right,7.8937,0,18,18,155,1,48,tágarzik / tágarozik,"tágarzik, tágarozni",ünk,NA,"János imád tágarozni, ezért sokat tágarzik.",Mi ritkán...,tágarzunk,tágarozunk,cselekszik,-zik,2,PR2016,2000,nő,nem,2022-04-06_10h33.43.018,hesp_baseline,2021.2.3,Win32,59.83366242
,,,,,,,,,,,,,,,,,darhénben,darhénban,left,4.4321,0,19,19,27,1,28,darhén,darhén,ban,é,Ez itt egy darhén.,Ott vagyunk a...,darhénben,darhénban,dzsungel,NA,NA,PR2016,2000,nő,nem,2022-04-06_10h33.43.018,hesp_baseline,2021.2.3,Win32,59.83366242
,,,,,,,,,,,,,,,,,spatszom,spatszok,left,5.2125,0,20,20,73,1,20,spatszik,spatszol,NA,NA,Te bizony sokat spatszol.,Én is sokat...,spatszok,spatszom,lakik,-szik,1,PR2016,2000,nő,nem,2022-04-06_10h33.43.018,hesp_baseline,2021.2.3,Win32,59.83366242
,,,,,,,,,,,,,,,,,bölszök,bölszöm,left,6.4188,0,21,21,105,1,52,bölszik,bölszöl,NA,NA,Te bizony sokat bölszöl.,Én is sokat...,bölszök,bölszöm,lakik,-szik,1,PR2016,2000,nő,nem,2022-04-06_10h33.43.018,hesp_baseline,2021.2.3,Win32,59.83366242
,,,,,,,,,,,,,,,,,incéjnek,incéjnak,left,4.7252,0,22,22,30,1,31,incéj,incéj,nak,é,Ez itt egy incéj.,Elneveztem a kutyámat...,incéjnek,incéjnak,dzsungel,NA,NA,PR2016,2000,nő,nem,2022-04-06_10h33.43.018,hesp_baseline,2021.2.3,Win32,59.83366242
,,,,,,,,,,,,,,,,,diránylanak,dirányoznak,right,12.6456,0,23,23,122,1,15,diránylik / dirányozik,"diránylik, dirányozni",nek,NA,"János imád dirányozni, ezért sokat diránylik.",Ők ritkán...,diránylanak,dirányoznak,cselekszik,-lik,2,PR2016,2000,nő,nem,2022-04-06_10h33.43.018,hesp_baseline,2021.2.3,Win32,59.83366242
,,,,,,,,,,,,,,,,,píjlom,píjlok,left,12.6427,0,24,24,75,1,22,píjlik,píjlasz,NA,NA,Te bizony sokat píjlasz.,Én is sokat...,píjlok,píjlom,lakik,-lik,1,PR2016,2000,nő,nem,2022-04-06_10h33.43.018,hesp_baseline,2021.2.3,Win32,59.83366242
,,,,,,,,,,,,,,,,,bregezünk,bregzünk,right,11.8849,0,25,25,139,1,32,bregzik / bregezik,"bregzik, bregezni",ünk,NA,"János imád bregezni, ezért sokat bregzik.",Mi ritkán...,bregzünk,bregezünk,cselekszik,-zik,1,PR2016,2000,nő,nem,2022-04-06_10h33.43.018,hesp_baseline,2021.2.3,Win32,59.83366242
,,,,,,,,,,,,,,,,,spihemlek,spihemlem,left,6.294,0,26,26,94,1,41,spihemlik,spihemlesz,NA,NA,Te bizony sokat spihemlesz.,Én is sokat...,spihemlek,spihemlem,lakik,-lik,2,PR2016,2000,nő,nem,2022-04-06_10h33.43.018,hesp_baseline,2021.2.3,Win32,59.83366242
,,,,,,,,,,,,,,,,,naremban,naremben,right,81.5268,0,27,27,2,1,3,narem,narem,ban,e,Ez itt egy narem.,Ott vagyunk a...,naremben,naremban,dzsungel,NA,NA,PR2016,2000,nő,nem,2022-04-06_10h33.43.018,hesp_baseline,2021.2.3,Win32,59.83366242
,,,,,,,,,,,,,,,,,köszöztök,köszlötök,left,20.0005,0,28,28,120,1,13,köszlik / köszözik,"köszlik, köszözni",tek,NA,"János imád köszözni, ezért sokat köszlik.",Ti ritkán...,köszlötök,köszöztök,cselekszik,-lik,1,PR2016,2000,nő,nem,2022-04-06_10h33.43.018,hesp_baseline,2021.2.3,Win32,59.83366242
,,,,,,,,,,,,,,,,,hosétnak,hosétnek,right,5.3252,0,29,29,8,1,9,hosét,hosét,nak,é,Ez itt egy hosét.,Elneveztem a kutyámat...,hosétnek,hosétnak,dzsungel,NA,NA,PR2016,2000,nő,nem,2022-04-06_10h33.43.018,hesp_baseline,2021.2.3,Win32,59.83366242
,,,,,,,,,,,,,,,,,hóbensben,hóbensban,left,4.2065,0,30,30,3,1,4,hóbens,hóbens,ban,e,Ez itt egy hóbens.,Ott vagyunk a...,hóbensben,hóbensban,dzsungel,NA,NA,PR2016,2000,nő,nem,2022-04-06_10h33.43.018,hesp_baseline,2021.2.3,Win32,59.83366242
,,,,,,,,,,,,,,,,,zopélynál,zopélynél,right,4.0729,0,31,31,5,1,6,zopély,zopély,nál,é,Ez itt egy zopély.,Nincs is jobb egy jó...,zopélynél,zopélynál,dzsungel,NA,NA,PR2016,2000,nő,nem,2022-04-06_10h33.43.018,hesp_baseline,2021.2.3,Win32,59.83366242
,,,,,,,,,,,,,,,,,jüslök,jüslöm,left,5.2316,0,32,32,56,1,3,jüslik,jüslesz,NA,NA,Te bizony sokat jüslesz.,Én is sokat...,jüslök,jüslöm,lakik,-lik,1,PR2016,2000,nő,nem,2022-04-06_10h33.43.018,hesp_baseline,2021.2.3,Win32,59.83366242
,,,,,,,,,,,,,,,,,frakozunk,fraklunk,right,16.737,0,33,33,159,1,52,fraklik / frakozik,"fraklik, frakozni",ünk,NA,"János imád frakozni, ezért sokat fraklik.",Mi ritkán...,fraklunk,frakozunk,cselekszik,-lik,1,PR2016,2000,nő,nem,2022-04-06_10h33.43.018,hesp_baseline,2021.2.3,Win32,59.83366242
,,,,,,,,,,,,,,,,,friheglünk,frihegezünk,right,6.4462,0,34,34,132,1,25,friheglik / frihegezik,"friheglik, frihegezni",ünk,NA,"János imád frihegezni, ezért sokat friheglik.",Mi ritkán...,friheglünk,frihegezünk,cselekszik,-lik,2,PR2016,2000,nő,nem,2022-04-06_10h33.43.018,hesp_baseline,2021.2.3,Win32,59.83366242
,,,,,,,,,,,,,,,,,hurjorzok,hurjorzom,left,7.9858,0,35,35,59,1,6,hurjorzik,hurjorzol,NA,NA,Te bizony sokat hurjorzol.,Én is sokat...,hurjorzok,hurjorzom,lakik,-zik,2,PR2016,2000,nő,nem,2022-04-06_10h33.43.018,hesp_baseline,2021.2.3,Win32,59.83366242
,,,,,,,,,,,,,,,,,csublényban,csublényben,right,4.1261,0,36,36,16,1,17,csublény,csublény,ban,é,Ez itt egy csublény.,Ott vagyunk a...,csublényben,csublényban,dzsungel,NA,NA,PR2016,2000,nő,nem,2022-04-06_10h33.43.018,hesp_baseline,2021.2.3,Win32,59.83366242
,,,,,,,,,,,,,,,,,prélemeznek,prélemlenek,left,15.8178,0,37,37,110,1,3,prélemlik / prélemezik,"prélemlik, prélemezni",nek,NA,"János imád prélemezni, ezért sokat prélemlik.",Ők ritkán...,prélemlenek,prélemeznek,cselekszik,-lik,2,PR2016,2000,nő,nem,2022-04-06_10h33.43.018,hesp_baseline,2021.2.3,Win32,59.83366242
,,,,,,,,,,,,,,,,,hilarzom,hilarzok,right,4.1836,0,38,38,69,1,16,hilarzik,hilarzol,NA,NA,Te bizony sokat hilarzol.,Én is sokat...,hilarzok,hilarzom,lakik,-zik,2,PR2016,2000,nő,nem,2022-04-06_10h33.43.018,hesp_baseline,2021.2.3,Win32,59.83366242
,,,,,,,,,,,,,,,,,breseznek,breslenek,left,49.5625,0,39,39,115,1,8,breslik / bresezik,"breslik, bresezni",nek,NA,"János imád bresezni, ezért sokat breslik.",Ők ritkán...,breslenek,breseznek,cselekszik,-lik,1,PR2016,2000,nő,nem,2022-04-06_10h33.43.018,hesp_baseline,2021.2.3,Win32,59.83366242
,,,,,,,,,,,,,,,,,monvegnél,monvegnál,left,3.893,0,40,40,26,1,27,monveg,monveg,nál,e,Ez itt egy monveg.,Nincs is jobb egy jó...,monvegnél,monvegnál,dzsungel,NA,NA,PR2016,2000,nő,nem,2022-04-06_10h33.43.018,hesp_baseline,2021.2.3,Win32,59.83366242
,,,,,,,,,,,,,,,,,mádépnál,mádépnél,right,4.5089,0,41,41,1,1,2,mádép,mádép,nál,é,Ez itt egy mádép.,Nincs is jobb egy jó...,mádépnél,mádépnál,dzsungel,NA,NA,PR2016,2000,nő,nem,2022-04-06_10h33.43.018,hesp_baseline,2021.2.3,Win32,59.83366242
,,,,,,,,,,,,,,,,,trodélyban,trodélyben,left,13.2162,0,42,42,28,1,29,trodély,trodély,ban,é,Ez itt egy trodély.,Ott vagyunk a...,trodélyben,trodélyban,dzsungel,NA,NA,PR2016,2000,nő,nem,2022-04-06_10h33.43.018,hesp_baseline,2021.2.3,Win32,59.83366242
,,,,,,,,,,,,,,,,,csibagzotok,csibagoztok,right,10.2935,0,43,43,114,1,7,csibagzik / csibagozik,"csibagzik, csibagozni",tek,NA,"János imád csibagozni, ezért sokat csibagzik.",Ti ritkán...,csibagzotok,csibagoztok,cselekszik,-zik,2,PR2016,2000,nő,nem,2022-04-06_10h33.43.018,hesp_baseline,2021.2.3,Win32,59.83366242
,,,,,,,,,,,,,,,,,spivejlenek,spivejeznek,right,10.1905,0,44,44,125,1,18,spivejlik / spivejezik,"spivejlik, spivejezni",nek,NA,"János imád spivejezni, ezért sokat spivejlik.",Ők ritkán...,spivejlenek,spivejeznek,cselekszik,-lik,2,PR2016,2000,nő,nem,2022-04-06_10h33.43.018,hesp_baseline,2021.2.3,Win32,59.83366242
,,,,,,,,,,,,,,,,,dunkészben,dunkészban,right,15.4523,0,45,45,24,1,25,dunkész,dunkész,ban,é,Ez itt egy dunkész.,Ott vagyunk a...,dunkészben,dunkészban,dzsungel,NA,NA,PR2016,2000,nő,nem,2022-04-06_10h33.43.018,hesp_baseline,2021.2.3,Win32,59.83366242
,,,,,,,,,,,,,,,,,spűmlöm,spűmlök,right,4.1166,0,46,46,86,1,33,spűmlik,spűmlesz,NA,NA,Te bizony sokat spűmlesz.,Én is sokat...,spűmlök,spűmlöm,lakik,-lik,1,PR2016,2000,nő,nem,2022-04-06_10h33.43.018,hesp_baseline,2021.2.3,Win32,59.83366242
,,,,,,,,,,,,,,,,,flivegeznek,flivegzenek,left,9.887,0,47,47,138,1,31,flivegzik / flivegezik,"flivegzik, flivegezni",nek,NA,"János imád flivegezni, ezért sokat flivegzik.",Ők ritkán...,flivegzenek,flivegeznek,cselekszik,-zik,2,PR2016,2000,nő,nem,2022-04-06_10h33.43.018,hesp_baseline,2021.2.3,Win32,59.83366242
,,,,,,,,,,,,,,,,,spéslek,spéslem,left,5.2603,0,48,48,93,1,40,spéslik,spéslesz,NA,NA,Te bizony sokat spéslesz.,Én is sokat...,spéslek,spéslem,lakik,-lik,1,PR2016,2000,nő,nem,2022-04-06_10h33.43.018,hesp_baseline,2021.2.3,Win32,59.83366242
,,,,,,,,,,,,,,,,,zsopédban,zsopédben,right,5.836,0,49,49,50,1,51,zsopéd,zsopéd,ban,é,Ez itt egy zsopéd.,Ott vagyunk a...,zsopédben,zsopédban,dzsungel,NA,NA,PR2016,2000,nő,nem,2022-04-06_10h33.43.018,hesp_baseline,2021.2.3,Win32,59.83366242
,,,,,,,,,,,,,,,,,klordénynek,klordénynak,right,5.0784,0,50,50,9,1,10,klordény,klordény,nak,é,Ez itt egy klordény.,Elneveztem a kutyámat...,klordénynek,klordénynak,dzsungel,NA,NA,PR2016,2000,nő,nem,2022-04-06_10h33.43.018,hesp_baseline,2021.2.3,Win32,59.83366242
,,,,,,,,,,,,,,,,,trukszotok,trukodtok,left,9.4788,0,51,51,157,1,50,trukszik / trukodik,"trukszik, trukodni",tek,NA,"János imád trukodni, ezért sokat trukszik.",Ti ritkán...,trukszotok,trukodtok,cselekszik,-szik,1,PR2016,2000,nő,nem,2022-04-06_10h33.43.018,hesp_baseline,2021.2.3,Win32,59.83366242
,,,,,,,,,,,,,,,,,gihejezünk,gihejlünk,left,8.8615,0,52,52,146,1,39,gihejlik / gihejezik,"gihejlik, gihejezni",ünk,NA,"János imád gihejezni, ezért sokat gihejlik.",Mi ritkán...,gihejlünk,gihejezünk,cselekszik,-lik,2,PR2016,2000,nő,nem,2022-04-06_10h33.43.018,hesp_baseline,2021.2.3,Win32,59.83366242
,,,,,,,,,,,,,,,,,flehénylem,flehénylek,right,3.9548,0,53,53,106,1,53,flehénylik,flehénylesz,NA,NA,Te bizony sokat flehénylesz.,Én is sokat...,flehénylek,flehénylem,lakik,-lik,2,PR2016,2000,nő,nem,2022-04-06_10h33.43.018,hesp_baseline,2021.2.3,Win32,59.83366242
,,,,,,,,,,,,,,,,,kalhésznek,kalhésznak,left,10.1817,0,54,54,46,1,47,kalhész,kalhész,nak,é,Ez itt egy kalhész.,Elneveztem a kutyámat...,kalhésznek,kalhésznak,dzsungel,NA,NA,PR2016,2000,nő,nem,2022-04-06_10h33.43.018,hesp_baseline,2021.2.3,Win32,59.83366242
,,,,,,,,,,,,,,,,,sprudozunk,sprudlunk,left,13.3444,0,55,55,136,1,29,sprudlik / sprudozik,"sprudlik, sprudozni",ünk,NA,"János imád sprudozni, ezért sokat sprudlik.",Mi ritkán...,sprudlunk,sprudozunk,cselekszik,-lik,1,PR2016,2000,nő,nem,2022-04-06_10h33.43.018,hesp_baseline,2021.2.3,Win32,59.83366242
,,,,,,,,,,,,,,,,,kűdöznek,kűdlenek,right,8.4448,0,56,56,142,1,35,kűdlik / kűdözik,"kűdlik, kűdözni",nek,NA,"János imád kűdözni, ezért sokat kűdlik.",Ők ritkán...,kűdlenek,kűdöznek,cselekszik,-lik,1,PR2016,2000,nő,nem,2022-04-06_10h33.43.018,hesp_baseline,2021.2.3,Win32,59.83366242
,,,,,,,,,,,,,,,,,géregeztek,géregletek,left,9.8247,0,57,57,124,1,17,géreglik / géregezik,"géreglik, géregezni",tek,NA,"János imád géregezni, ezért sokat géreglik.",Ti ritkán...,géregletek,géregeztek,cselekszik,-lik,2,PR2016,2000,nő,nem,2022-04-06_10h33.43.018,hesp_baseline,2021.2.3,Win32,59.83366242
,,,,,,,,,,,,,,,,,jukélnél,jukélnál,left,6.5103,0,58,58,42,1,43,jukél,jukél,nál,é,Ez itt egy jukél.,Nincs is jobb egy jó...,jukélnél,jukélnál,dzsungel,NA,NA,PR2016,2000,nő,nem,2022-04-06_10h33.43.018,hesp_baseline,2021.2.3,Win32,59.83366242
,,,,,,,,,,,,,,,,,privékszenek,privékednek,left,9.1369,0,59,59,149,1,42,privékszik / privékedik,"privékszik, privékedni",nek,NA,"János imád privékedni, ezért sokat privékszik.",Ők ritkán...,privékszenek,privékednek,cselekszik,-szik,2,PR2016,2000,nő,nem,2022-04-06_10h33.43.018,hesp_baseline,2021.2.3,Win32,59.83366242
,,,,,,,,,,,,,,,,,fádensnak,fádensnek,right,4.4999,0,60,60,33,1,34,fádens,fádens,nak,e,Ez itt egy fádens.,Elneveztem a kutyámat...,fádensnek,fádensnak,dzsungel,NA,NA,PR2016,2000,nő,nem,2022-04-06_10h33.43.018,hesp_baseline,2021.2.3,Win32,59.83366242
,,,,,,,,,,,,,,,,,aglok,aglom,left,3.6888,0,61,61,100,1,47,aglik,aglasz,NA,NA,Te bizony sokat aglasz.,Én is sokat...,aglok,aglom,lakik,-lik,1,PR2016,2000,nő,nem,2022-04-06_10h33.43.018,hesp_baseline,2021.2.3,Win32,59.83366242
,,,,,,,,,,,,,,,,,lorzensnál,lorzensnél,right,5.7607,0,62,62,34,1,35,lorzens,lorzens,nál,e,Ez itt egy lorzens.,Nincs is jobb egy jó...,lorzensnél,lorzensnál,dzsungel,NA,NA,PR2016,2000,nő,nem,2022-04-06_10h33.43.018,hesp_baseline,2021.2.3,Win32,59.83366242
,,,,,,,,,,,,,,,,,vodépnak,vodépnek,right,3.4701,0,63,63,41,1,42,vodép,vodép,nak,é,Ez itt egy vodép.,Elneveztem a kutyámat...,vodépnek,vodépnak,dzsungel,NA,NA,PR2016,2000,nő,nem,2022-04-06_10h33.43.018,hesp_baseline,2021.2.3,Win32,59.83366242
,,,,,,,,,,,,,,,,,prugorzotok,prugoroztok,right,9.0976,0,64,64,116,1,9,prugorzik / prugorozik,"prugorzik, prugorozni",tek,NA,"János imád prugorozni, ezért sokat prugorzik.",Ti ritkán...,prugorzotok,prugoroztok,cselekszik,-zik,2,PR2016,2000,nő,nem,2022-04-06_10h33.43.018,hesp_baseline,2021.2.3,Win32,59.83366242
,,,,,,,,,,,,,,,,,brüszlötök,brüszöztök,left,13.3186,0,65,65,130,1,23,brüszlik / brüszözik,"brüszlik, brüszözni",tek,NA,"János imád brüszözni, ezért sokat brüszlik.",Ti ritkán...,brüszlötök,brüszöztök,cselekszik,-lik,1,PR2016,2000,nő,nem,2022-04-06_10h33.43.018,hesp_baseline,2021.2.3,Win32,59.83366242
,,,,,,,,,,,,,,,,,vülődzök,vülődzöm,right,9.7646,0,66,66,81,1,28,vülődzik,vülődzöl,NA,NA,Te bizony sokat vülődzöl.,Én is sokat...,vülődzök,vülődzöm,lakik,-zik,2,PR2016,2000,nő,nem,2022-04-06_10h33.43.018,hesp_baseline,2021.2.3,Win32,59.83366242
,,,,,,,,,,,,,,,,,küslünk,küsözünk,left,8.9061,0,67,67,141,1,34,küslik / küsözik,"küslik, küsözni",ünk,NA,"János imád küsözni, ezért sokat küslik.",Mi ritkán...,küslünk,küsözünk,cselekszik,-lik,1,PR2016,2000,nő,nem,2022-04-06_10h33.43.018,hesp_baseline,2021.2.3,Win32,59.83366242
,,,,,,,,,,,,,,,,,püzöztök,püzlötök,left,7.0513,0,68,68,152,1,45,püzlik / püzözik,"püzlik, püzözni",tek,NA,"János imád püzözni, ezért sokat püzlik.",Ti ritkán...,püzlötök,püzöztök,cselekszik,-lik,1,PR2016,2000,nő,nem,2022-04-06_10h33.43.018,hesp_baseline,2021.2.3,Win32,59.83366242
,,,,,,,,,,,,,,,,,málapszom,málapszok,left,6.1567,0,69,69,66,1,13,málapszik,málapszol,NA,NA,Te bizony sokat málapszol.,Én is sokat...,málapszok,málapszom,lakik,-szik,2,PR2016,2000,nő,nem,2022-04-06_10h33.43.018,hesp_baseline,2021.2.3,Win32,59.83366242
,,,,,,,,,,,,,,,,,sztremlem,sztremlek,right,4.1387,0,70,70,95,1,42,sztremlik,sztremlesz,NA,NA,Te bizony sokat sztremlesz.,Én is sokat...,sztremlek,sztremlem,lakik,-lik,1,PR2016,2000,nő,nem,2022-04-06_10h33.43.018,hesp_baseline,2021.2.3,Win32,59.83366242
,,,,,,,,,,,,,,,,,salárzom,salárzok,left,4.3042,0,71,71,103,1,50,salárzik,salárzol,NA,NA,Te bizony sokat salárzol.,Én is sokat...,salárzok,salárzom,lakik,-zik,2,PR2016,2000,nő,nem,2022-04-06_10h33.43.018,hesp_baseline,2021.2.3,Win32,59.83366242
,,,,,,,,,,,,,,,,,klaráglok,klaráglom,left,6.9562,0,72,72,91,1,38,klaráglik,klaráglasz,NA,NA,Te bizony sokat klaráglasz.,Én is sokat...,klaráglok,klaráglom,lakik,-lik,2,PR2016,2000,nő,nem,2022-04-06_10h33.43.018,hesp_baseline,2021.2.3,Win32,59.83366242
,,,,,,,,,,,,,,,,,pisélyben,pisélyban,left,6.0977,0,73,73,21,1,22,pisély,pisély,ban,é,Ez itt egy pisély.,Ott vagyunk a...,pisélyben,pisélyban,dzsungel,NA,NA,PR2016,2000,nő,nem,2022-04-06_10h33.43.018,hesp_baseline,2021.2.3,Win32,59.83366242
,,,,,,,,,,,,,,,,,gatágozunk,gatáglunk,left,6.4732,0,74,74,137,1,30,gatáglik / gatágozik,"gatáglik, gatágozni",ünk,NA,"János imád gatágozni, ezért sokat gatáglik.",Mi ritkán...,gatáglunk,gatágozunk,cselekszik,-lik,2,PR2016,2000,nő,nem,2022-04-06_10h33.43.018,hesp_baseline,2021.2.3,Win32,59.83366242
,,,,,,,,,,,,,,,,,brivaklotok,brivakoztok,right,7.6102,0,75,75,134,1,27,brivaklik / brivakozik,"brivaklik, brivakozni",tek,NA,"János imád brivakozni, ezért sokat brivaklik.",Ti ritkán...,brivaklotok,brivakoztok,cselekszik,-lik,2,PR2016,2000,nő,nem,2022-04-06_10h33.43.018,hesp_baseline,2021.2.3,Win32,59.83366242
,,,,,,,,,,,,,,,,,plibzotok,pliboztok,right,14.7338,0,76,76,140,1,33,plibzik / plibozik,"plibzik, plibozni",tek,NA,"János imád plibozni, ezért sokat plibzik.",Ti ritkán...,plibzotok,pliboztok,cselekszik,-zik,1,PR2016,2000,nő,nem,2022-04-06_10h33.43.018,hesp_baseline,2021.2.3,Win32,59.83366242
,,,,,,,,,,,,,,,,,gábédnél,gábédnál,left,5.4635,0,77,77,39,1,40,gábéd,gábéd,nál,é,Ez itt egy gábéd.,Nincs is jobb egy jó...,gábédnél,gábédnál,dzsungel,NA,NA,PR2016,2000,nő,nem,2022-04-06_10h33.43.018,hesp_baseline,2021.2.3,Win32,59.83366242
,,,,,,,,,,,,,,,,,gyivepednek,gyivepszenek,left,5.496,0,78,78,160,1,53,gyivepszik / gyivepedik,"gyivepszik, gyivepedni",nek,NA,"János imád gyivepedni, ezért sokat gyivepszik.",Ők ritkán...,gyivepszenek,gyivepednek,cselekszik,-szik,2,PR2016,2000,nő,nem,2022-04-06_10h33.43.018,hesp_baseline,2021.2.3,Win32,59.83366242
,,,,,,,,,,,,,,,,,dutecnál,dutecnél,right,5.1942,0,79,79,22,1,23,dutec,dutec,nál,e,Ez itt egy dutec.,Nincs is jobb egy jó...,dutecnél,dutecnál,dzsungel,NA,NA,PR2016,2000,nő,nem,2022-04-06_10h33.43.018,hesp_baseline,2021.2.3,Win32,59.83366242
,,,,,,,,,,,,,,,,,vilakszok,vilakszom,right,6.0325,0,80,80,97,1,44,vilakszik,vilakszol,NA,NA,Te bizony sokat vilakszol.,Én is sokat...,vilakszok,vilakszom,lakik,-szik,2,PR2016,2000,nő,nem,2022-04-06_10h33.43.018,hesp_baseline,2021.2.3,Win32,59.83366242
,,,,,,,,,,,,,,,,,drügzök,drügzöm,left,4.7007,0,81,81,72,1,19,drügzik,drügzöl,NA,NA,Te bizony sokat drügzöl.,Én is sokat...,drügzök,drügzöm,lakik,-zik,1,PR2016,2000,nő,nem,2022-04-06_10h33.43.018,hesp_baseline,2021.2.3,Win32,59.83366242
,,,,,,,,,,,,,,,,,brubzom,brubzok,right,6.5774,0,82,82,92,1,39,brubzik,brubzol,NA,NA,Te bizony sokat brubzol.,Én is sokat...,brubzok,brubzom,lakik,-zik,1,PR2016,2000,nő,nem,2022-04-06_10h33.43.018,hesp_baseline,2021.2.3,Win32,59.83366242
,,,,,,,,,,,,,,,,,bribaslanak,bribasoznak,right,7.977,0,83,83,121,1,14,bribaslik / bribasozik,"bribaslik, bribasozni",nek,NA,"János imád bribasozni, ezért sokat bribaslik.",Ők ritkán...,bribaslanak,bribasoznak,cselekszik,-lik,2,PR2016,2000,nő,nem,2022-04-06_10h33.43.018,hesp_baseline,2021.2.3,Win32,59.83366242
,,,,,,,,,,,,,,,,,dajrensnél,dajrensnál,left,7.0261,0,84,84,49,1,50,dajrens,dajrens,nál,e,Ez itt egy dajrens.,Nincs is jobb egy jó...,dajrensnél,dajrensnál,dzsungel,NA,NA,PR2016,2000,nő,nem,2022-04-06_10h33.43.018,hesp_baseline,2021.2.3,Win32,59.83366242
,,,,,,,,,,,,,,,,,spicetnak,spicetnek,right,3.2251,0,85,85,35,1,36,spicet,spicet,nak,e,Ez itt egy spicet.,Elneveztem a kutyámat...,spicetnek,spicetnak,dzsungel,NA,NA,PR2016,2000,nő,nem,2022-04-06_10h33.43.018,hesp_baseline,2021.2.3,Win32,59.83366242
,,,,,,,,,,,,,,,,,vihapszunk,vihapodunk,left,6.2749,0,86,86,112,1,5,vihapszik / vihapodik,"vihapszik, vihapodni",ünk,NA,"János imád vihapodni, ezért sokat vihapszik.",Mi ritkán...,vihapszunk,vihapodunk,cselekszik,-szik,2,PR2016,2000,nő,nem,2022-04-06_10h33.43.018,hesp_baseline,2021.2.3,Win32,59.83366242
,,,,,,,,,,,,,,,,,filágzom,filágzok,left,19.5539,0,87,87,102,1,49,filágzik,filágzol,NA,NA,Te bizony sokat filágzol.,Én is sokat...,filágzok,filágzom,lakik,-zik,2,PR2016,2000,nő,nem,2022-04-06_10h33.43.018,hesp_baseline,2021.2.3,Win32,59.83366242
,,,,,,,,,,,,,,,,,froroznak,frorlanak,left,10.6631,0,88,88,143,1,36,frorlik / frorozik,"frorlik, frorozni",nek,NA,"János imád frorozni, ezért sokat frorlik.",Ők ritkán...,frorlanak,froroznak,cselekszik,-lik,1,PR2016,2000,nő,nem,2022-04-06_10h33.43.018,hesp_baseline,2021.2.3,Win32,59.83366242
,,,,,,,,,,,,,,,,,bügöznek,bügzenek,right,6.4102,0,89,89,118,1,11,bügzik / bügözik,"bügzik, bügözni",nek,NA,"János imád bügözni, ezért sokat bügzik.",Ők ritkán...,bügzenek,bügöznek,cselekszik,-zik,1,PR2016,2000,nő,nem,2022-04-06_10h33.43.018,hesp_baseline,2021.2.3,Win32,59.83366242
,,,,,,,,,,,,,,,,,gyibeslek,gyibeslem,right,16.7577,0,90,90,98,1,45,gyibeslik,gyibeslesz,NA,NA,Te bizony sokat gyibeslesz.,Én is sokat...,gyibeslek,gyibeslem,lakik,-lik,2,PR2016,2000,nő,nem,2022-04-06_10h33.43.018,hesp_baseline,2021.2.3,Win32,59.83366242
,,,,,,,,,,,,,,,,,plűbzöm,plűbzök,right,6.0837,0,91,91,107,1,54,plűbzik,plűbzöl,NA,NA,Te bizony sokat plűbzöl.,Én is sokat...,plűbzök,plűbzöm,lakik,-zik,1,PR2016,2000,nő,nem,2022-04-06_10h33.43.018,hesp_baseline,2021.2.3,Win32,59.83366242
,,,,,,,,,,,,,,,,,spélszek,spélszem,left,5.2397,0,92,92,68,1,15,spélszik,spélszel,NA,NA,Te bizony sokat spélszel.,Én is sokat...,spélszek,spélszem,lakik,-szik,1,PR2016,2000,nő,nem,2022-04-06_10h33.43.018,hesp_baseline,2021.2.3,Win32,59.83366242
,,,,,,,,,,,,,,,,,galároznak,galárzanak,left,6.4645,0,93,93,154,1,47,galárzik / galározik,"galárzik, galározni",nek,NA,"János imád galározni, ezért sokat galárzik.",Ők ritkán...,galárzanak,galároznak,cselekszik,-zik,2,PR2016,2000,nő,nem,2022-04-06_10h33.43.018,hesp_baseline,2021.2.3,Win32,59.83366242
,,,,,,,,,,,,,,,,,tránélynek,tránélynak,left,4.4939,0,94,94,17,1,18,tránély,tránély,nak,é,Ez itt egy tránély.,Elneveztem a kutyámat...,tránélynek,tránélynak,dzsungel,NA,NA,PR2016,2000,nő,nem,2022-04-06_10h33.43.018,hesp_baseline,2021.2.3,Win32,59.83366242
,,,,,,,,,,,,,,,,,sprédlem,sprédlek,right,5.7316,0,95,95,70,1,17,sprédlik,sprédlesz,NA,NA,Te bizony sokat sprédlesz.,Én is sokat...,sprédlek,sprédlem,lakik,-lik,1,PR2016,2000,nő,nem,2022-04-06_10h33.43.018,hesp_baseline,2021.2.3,Win32,59.83366242
,,,,,,,,,,,,,,,,,priszecben,priszecban,left,3.5122,0,96,96,15,1,16,priszec,priszec,ban,e,Ez itt egy priszec.,Ott vagyunk a...,priszecben,priszecban,dzsungel,NA,NA,PR2016,2000,nő,nem,2022-04-06_10h33.43.018,hesp_baseline,2021.2.3,Win32,59.83366242
,,,,,,,,,,,,,,,,,matézban,matézben,right,6.5962,0,97,97,37,1,38,matéz,matéz,ban,é,Ez itt egy matéz.,Ott vagyunk a...,matézben,matézban,dzsungel,NA,NA,PR2016,2000,nő,nem,2022-04-06_10h33.43.018,hesp_baseline,2021.2.3,Win32,59.83366242
,,,,,,,,,,,,,,,,,frinyozunk,frinylunk,left,13.2591,0,98,98,133,1,26,frinylik / frinyozik,"frinylik, frinyozni",ünk,NA,"János imád frinyozni, ezért sokat frinylik.",Mi ritkán...,frinylunk,frinyozunk,cselekszik,-lik,1,PR2016,2000,nő,nem,2022-04-06_10h33.43.018,hesp_baseline,2021.2.3,Win32,59.83366242
,,,,,,,,,,,,,,,,,vismernél,vismernál,left,3.8966,0,99,99,13,1,14,vismer,vismer,nál,e,Ez itt egy vismer.,Nincs is jobb egy jó...,vismernél,vismernál,dzsungel,NA,NA,PR2016,2000,nő,nem,2022-04-06_10h33.43.018,hesp_baseline,2021.2.3,Win32,59.83366242
,,,,,,,,,,,,,,,,,míslunk,mísozunk,left,9.2312,0,100,100,123,1,16,míslik / mísozik,"míslik, mísozni",ünk,NA,"János imád mísozni, ezért sokat míslik.",Mi ritkán...,míslunk,mísozunk,cselekszik,-lik,1,PR2016,2000,nő,nem,2022-04-06_10h33.43.018,hesp_baseline,2021.2.3,Win32,59.83366242
,,,,,,,,,,,,,,,,,nyülöklenek,nyülököznek,left,7.4481,0,101,101,108,1,1,nyülöklik / nyülöközik,"nyülöklik, nyülöközni",nek,NA,"János imád nyülöközni, ezért sokat nyülöklik.",Ők ritkán...,nyülöklenek,nyülököznek,cselekszik,-lik,2,PR2016,2000,nő,nem,2022-04-06_10h33.43.018,hesp_baseline,2021.2.3,Win32,59.83366242
,,,,,,,,,,,,,,,,,klörlök,klörlöm,left,5.7127,0,102,102,80,1,27,klörlik,klörlesz,NA,NA,Te bizony sokat klörlesz.,Én is sokat...,klörlök,klörlöm,lakik,-lik,1,PR2016,2000,nő,nem,2022-04-06_10h33.43.018,hesp_baseline,2021.2.3,Win32,59.83366242
,,,,,,,,,,,,,,,,,frágapszom,frágapszok,right,10.9178,0,103,103,60,1,7,frágapszik,frágapszol,NA,NA,Te bizony sokat frágapszol.,Én is sokat...,frágapszok,frágapszom,lakik,-szik,2,PR2016,2000,nő,nem,2022-04-06_10h33.43.018,hesp_baseline,2021.2.3,Win32,59.83366242
,,,,,,,,,,,,,,,,,brigesztnek,brigesztnak,left,3.5546,0,104,104,48,1,49,brigeszt,brigeszt,nak,e,Ez itt egy brigeszt.,Elneveztem a kutyámat...,brigesztnek,brigesztnak,dzsungel,NA,NA,PR2016,2000,nő,nem,2022-04-06_10h33.43.018,hesp_baseline,2021.2.3,Win32,59.83366242
,,,,,,,,,,,,,,,,,pítszok,pítszom,left,8.4181,0,105,105,62,1,9,pítszik,pítszol,NA,NA,Te bizony sokat pítszol.,Én is sokat...,pítszok,pítszom,lakik,-szik,1,PR2016,2000,nő,nem,2022-04-06_10h33.43.018,hesp_baseline,2021.2.3,Win32,59.83366242
,,,,,,,,,,,,,,,,,hijegynál,hijegynél,right,3.6687,0,106,106,4,1,5,hijegy,hijegy,nál,e,Ez itt egy hijegy.,Nincs is jobb egy jó...,hijegynél,hijegynál,dzsungel,NA,NA,PR2016,2000,nő,nem,2022-04-06_10h33.43.018,hesp_baseline,2021.2.3,Win32,59.83366242
,,,,,,,,,,,,,,,,,pebzek,pebzem,left,4.6841,0,107,107,57,1,4,pebzik,pebzel,NA,NA,Te bizony sokat pebzel.,Én is sokat...,pebzek,pebzem,lakik,-zik,1,PR2016,2000,nő,nem,2022-04-06_10h33.43.018,hesp_baseline,2021.2.3,Win32,59.83366242
,,,,,,,,,,,,,,,,,bralképban,bralképben,right,5.5937,0,108,108,12,1,13,bralkép,bralkép,ban,é,Ez itt egy bralkép.,Ott vagyunk a...,bralképben,bralképban,dzsungel,NA,NA,PR2016,2000,nő,nem,2022-04-06_10h33.43.018,hesp_baseline,2021.2.3,Win32,59.83366242
,,,,,,,,,,,,,,,,,pilégszenek,pilégednek,left,7.7153,0,109,109,150,1,43,pilégszik / pilégedik,"pilégszik, pilégedni",nek,NA,"János imád pilégedni, ezért sokat pilégszik.",Ők ritkán...,pilégszenek,pilégednek,cselekszik,-szik,2,PR2016,2000,nő,nem,2022-04-06_10h33.43.018,hesp_baseline,2021.2.3,Win32,59.83366242
,,,,,,,,,,,,,,,,,brobódzok,brobódzom,left,5.2542,0,110,110,96,1,43,brobódzik,brobódzol,NA,NA,Te bizony sokat brobódzol.,Én is sokat...,brobódzok,brobódzom,lakik,-zik,2,PR2016,2000,nő,nem,2022-04-06_10h33.43.018,hesp_baseline,2021.2.3,Win32,59.83366242
,,,,,,,,,,,,,,,,,flözlök,flözlöm,left,4.2663,0,111,111,74,1,21,flözlik,flözlesz,NA,NA,Te bizony sokat flözlesz.,Én is sokat...,flözlök,flözlöm,lakik,-lik,1,PR2016,2000,nő,nem,2022-04-06_10h33.43.018,hesp_baseline,2021.2.3,Win32,59.83366242
,,,,,,,,,,,,,,,,,prilegzem,prilegzek,right,9.4374,0,112,112,79,1,26,prilegzik,prilegzel,NA,NA,Te bizony sokat prilegzel.,Én is sokat...,prilegzek,prilegzem,lakik,-zik,2,PR2016,2000,nő,nem,2022-04-06_10h33.43.018,hesp_baseline,2021.2.3,Win32,59.83366242
,,,,,,,,,,,,,,,,,nuhétnél,nuhétnál,left,8.7447,0,113,113,29,1,30,nuhét,nuhét,nál,é,Ez itt egy nuhét.,Nincs is jobb egy jó...,nuhétnél,nuhétnál,dzsungel,NA,NA,PR2016,2000,nő,nem,2022-04-06_10h33.43.018,hesp_baseline,2021.2.3,Win32,59.83366242
,,,,,,,,,,,,,,,,,pöröztök,pörzötök,right,19.0757,0,114,114,153,1,46,pörzik / pörözik,"pörzik, pörözni",tek,NA,"János imád pörözni, ezért sokat pörzik.",Ti ritkán...,pörzötök,pöröztök,cselekszik,-zik,1,PR2016,2000,nő,nem,2022-04-06_10h33.43.018,hesp_baseline,2021.2.3,Win32,59.83366242
,,,,,,,,,,,,,,,,,spibádzom,spibádzok,right,7.3142,0,115,115,65,1,12,spibádzik,spibádzol,NA,NA,Te bizony sokat spibádzol.,Én is sokat...,spibádzok,spibádzom,lakik,-zik,2,PR2016,2000,nő,nem,2022-04-06_10h33.43.018,hesp_baseline,2021.2.3,Win32,59.83366242
,,,,,,,,,,,,,,,,,frirzunk,frirozunk,right,13.8303,0,116,116,129,1,22,frirzik / frirozik,"frirzik, frirozni",ünk,NA,"János imád frirozni, ezért sokat frirzik.",Mi ritkán...,frirzunk,frirozunk,cselekszik,-zik,1,PR2016,2000,nő,nem,2022-04-06_10h33.43.018,hesp_baseline,2021.2.3,Win32,59.83366242
,,,,,,,,,,,,,,,,,kliszernél,kliszernál,left,4.9125,0,117,117,31,1,32,kliszer,kliszer,nál,e,Ez itt egy kliszer.,Nincs is jobb egy jó...,kliszernél,kliszernál,dzsungel,NA,NA,PR2016,2000,nő,nem,2022-04-06_10h33.43.018,hesp_baseline,2021.2.3,Win32,59.83366242
,,,,,,,,,,,,,,,,,sztrajoznak,sztrajlanak,right,7.6917,0,118,118,144,1,37,sztrajlik / sztrajozik,"sztrajlik, sztrajozni",nek,NA,"János imád sztrajozni, ezért sokat sztrajlik.",Ők ritkán...,sztrajlanak,sztrajoznak,cselekszik,-lik,1,PR2016,2000,nő,nem,2022-04-06_10h33.43.018,hesp_baseline,2021.2.3,Win32,59.83366242
,,,,,,,,,,,,,,,,,kaszépnak,kaszépnek,right,3.6302,0,119,119,40,1,41,kaszép,kaszép,nak,é,Ez itt egy kaszép.,Elneveztem a kutyámat...,kaszépnek,kaszépnak,dzsungel,NA,NA,PR2016,2000,nő,nem,2022-04-06_10h33.43.018,hesp_baseline,2021.2.3,Win32,59.83366242
,,,,,,,,,,,,,,,,,jurlunk,jurozunk,left,5.9771,0,120,120,111,1,4,jurlik / jurozik,"jurlik, jurozni",ünk,NA,"János imád jurozni, ezért sokat jurlik.",Mi ritkán...,jurlunk,jurozunk,cselekszik,-lik,1,PR2016,2000,nő,nem,2022-04-06_10h33.43.018,hesp_baseline,2021.2.3,Win32,59.83366242
,,,,,,,,,,,,,,,,,spilágzok,spilágzom,right,7.4306,0,121,121,76,1,23,spilágzik,spilágzol,NA,NA,Te bizony sokat spilágzol.,Én is sokat...,spilágzok,spilágzom,lakik,-zik,2,PR2016,2000,nő,nem,2022-04-06_10h33.43.018,hesp_baseline,2021.2.3,Win32,59.83366242
,,,,,,,,,,,,,,,,,marzok,marzom,left,4.3592,0,122,122,99,1,46,marzik,marzol,NA,NA,Te bizony sokat marzol.,Én is sokat...,marzok,marzom,lakik,-zik,1,PR2016,2000,nő,nem,2022-04-06_10h33.43.018,hesp_baseline,2021.2.3,Win32,59.83366242
,,,,,,,,,,,,,,,,,sprimozunk,sprimlunk,left,10.4876,0,123,123,127,1,20,sprimlik / sprimozik,"sprimlik, sprimozni",ünk,NA,"János imád sprimozni, ezért sokat sprimlik.",Mi ritkán...,sprimlunk,sprimozunk,cselekszik,-lik,1,PR2016,2000,nő,nem,2022-04-06_10h33.43.018,hesp_baseline,2021.2.3,Win32,59.83366242
,,,,,,,,,,,,,,,,,bejzünk,bejezünk,left,6.1224,0,124,124,148,1,41,bejzik / bejezik,"bejzik, bejezni",ünk,NA,"János imád bejezni, ezért sokat bejzik.",Mi ritkán...,bejzünk,bejezünk,cselekszik,-zik,1,PR2016,2000,nő,nem,2022-04-06_10h33.43.018,hesp_baseline,2021.2.3,Win32,59.83366242
,,,,,,,,,,,,,,,,,klihasoztok,klihaslotok,left,6.3634,0,125,125,156,1,49,klihaslik / klihasozik,"klihaslik, klihasozni",tek,NA,"János imád klihasozni, ezért sokat klihaslik.",Ti ritkán...,klihaslotok,klihasoztok,cselekszik,-lik,2,PR2016,2000,nő,nem,2022-04-06_10h33.43.018,hesp_baseline,2021.2.3,Win32,59.83366242
,,,,,,,,,,,,,,,,,vanylom,vanylok,right,6.2339,0,126,126,61,1,8,vanylik,vanylasz,NA,NA,Te bizony sokat vanylasz.,Én is sokat...,vanylok,vanylom,lakik,-lik,1,PR2016,2000,nő,nem,2022-04-06_10h33.43.018,hesp_baseline,2021.2.3,Win32,59.83366242
,,,,,,,,,,,,,,,,,lihénynek,lihénynak,left,7.5241,0,127,127,23,1,24,lihény,lihény,nak,é,Ez itt egy lihény.,Elneveztem a kutyámat...,lihénynek,lihénynak,dzsungel,NA,NA,PR2016,2000,nő,nem,2022-04-06_10h33.43.018,hesp_baseline,2021.2.3,Win32,59.83366242
,,,,,,,,,,,,,,,,,hivépban,hivépben,right,3.2482,0,128,128,44,1,45,hivép,hivép,ban,é,Ez itt egy hivép.,Ott vagyunk a...,hivépben,hivépban,dzsungel,NA,NA,PR2016,2000,nő,nem,2022-04-06_10h33.43.018,hesp_baseline,2021.2.3,Win32,59.83366242
,,,,,,,,,,,,,,,,,gyivádzom,gyivádzok,left,5.1694,0,129,129,87,1,34,gyivádzik,gyivádzol,NA,NA,Te bizony sokat gyivádzol.,Én is sokat...,gyivádzok,gyivádzom,lakik,-zik,2,PR2016,2000,nő,nem,2022-04-06_10h33.43.018,hesp_baseline,2021.2.3,Win32,59.83366242
,,,,,,,,,,,,,,,,,drűrzenek,drűröznek,right,5.9332,0,130,130,126,1,19,drűrzik / drűrözik,"drűrzik, drűrözni",nek,NA,"János imád drűrözni, ezért sokat drűrzik.",Ők ritkán...,drűrzenek,drűröznek,cselekszik,-zik,1,PR2016,2000,nő,nem,2022-04-06_10h33.43.018,hesp_baseline,2021.2.3,Win32,59.83366242
,,,,,,,,,,,,,,,,,prögzötök,prögöztök,left,8.9415,0,131,131,151,1,44,prögzik / prögözik,"prögzik, prögözni",tek,NA,"János imád prögözni, ezért sokat prögzik.",Ti ritkán...,prögzötök,prögöztök,cselekszik,-zik,1,PR2016,2000,nő,nem,2022-04-06_10h33.43.018,hesp_baseline,2021.2.3,Win32,59.83366242
,,,,,,,,,,,,,,,,,hiragoznak,hiragzanak,right,8.5019,0,132,132,119,1,12,hiragzik / hiragozik,"hiragzik, hiragozni",nek,NA,"János imád hiragozni, ezért sokat hiragzik.",Ők ritkán...,hiragzanak,hiragoznak,cselekszik,-zik,2,PR2016,2000,nő,nem,2022-04-06_10h33.43.018,hesp_baseline,2021.2.3,Win32,59.83366242
,,,,,,,,,,,,,,,,,nyivágzunk,nyivágozunk,left,11.0655,0,133,133,113,1,6,nyivágzik / nyivágozik,"nyivágzik, nyivágozni",ünk,NA,"János imád nyivágozni, ezért sokat nyivágzik.",Mi ritkán...,nyivágzunk,nyivágozunk,cselekszik,-zik,2,PR2016,2000,nő,nem,2022-04-06_10h33.43.018,hesp_baseline,2021.2.3,Win32,59.83366242
,,,,,,,,,,,,,,,,,jutélynál,jutélynél,right,8.1463,0,134,134,11,1,12,jutély,jutély,nál,é,Ez itt egy jutély.,Nincs is jobb egy jó...,jutélynél,jutélynál,dzsungel,NA,NA,PR2016,2000,nő,nem,2022-04-06_10h33.43.018,hesp_baseline,2021.2.3,Win32,59.83366242
,,,,,,,,,,,,,,,,,gonszéknál,gonszéknél,right,4.8368,0,135,135,38,1,39,gonszék,gonszék,nál,é,Ez itt egy gonszék.,Nincs is jobb egy jó...,gonszéknél,gonszéknál,dzsungel,NA,NA,PR2016,2000,nő,nem,2022-04-06_10h33.43.018,hesp_baseline,2021.2.3,Win32,59.83366242
,,,,,,,,,,,,,,,,,feténylem,feténylek,right,4.3976,0,136,136,85,1,32,feténylik,feténylesz,NA,NA,Te bizony sokat feténylesz.,Én is sokat...,feténylek,feténylem,lakik,-lik,2,PR2016,2000,nő,nem,2022-04-06_10h33.43.018,hesp_baseline,2021.2.3,Win32,59.83366242
,,,,,,,,,,,,,,,,,herégszem,herégszek,left,4.7635,0,137,137,54,1,1,herégszik,herégszel,NA,NA,Te bizony sokat herégszel.,Én is sokat...,herégszek,herégszem,lakik,-szik,2,PR2016,2000,nő,nem,2022-04-06_10h33.43.018,hesp_baseline,2021.2.3,Win32,59.83366242
,,,,,,,,,,,,,,,,,fágyépnál,fágyépnél,right,6.1506,0,138,138,10,1,11,fágyép,fágyép,nál,é,Ez itt egy fágyép.,Nincs is jobb egy jó...,fágyépnél,fágyépnál,dzsungel,NA,NA,PR2016,2000,nő,nem,2022-04-06_10h33.43.018,hesp_baseline,2021.2.3,Win32,59.83366242
,,,,,,,,,,,,,,,,,pivédban,pivédben,right,3.061,0,139,139,52,1,53,pivéd,pivéd,ban,é,Ez itt egy pivéd.,Ott vagyunk a...,pivédben,pivédban,dzsungel,NA,NA,PR2016,2000,nő,nem,2022-04-06_10h33.43.018,hesp_baseline,2021.2.3,Win32,59.83366242
,,,,,,,,,,,,,,,,,ibáglom,ibáglok,right,4.5286,0,140,140,88,1,35,ibáglik,ibáglasz,NA,NA,Te bizony sokat ibáglasz.,Én is sokat...,ibáglok,ibáglom,lakik,-lik,2,PR2016,2000,nő,nem,2022-04-06_10h33.43.018,hesp_baseline,2021.2.3,Win32,59.83366242
,,,,,,,,,,,,,,,,,jalrénynél,jalrénynál,right,7.7838,0,141,141,0,1,1,jalrény,jalrény,nál,é,Ez itt egy jalrény.,Nincs is jobb egy jó...,jalrénynél,jalrénynál,dzsungel,NA,NA,PR2016,2000,nő,nem,2022-04-06_10h33.43.018,hesp_baseline,2021.2.3,Win32,59.83366242
,,,,,,,,,,,,,,,,,szibedben,szibedban,left,3.4841,0,142,142,47,1,48,szibed,szibed,ban,e,Ez itt egy szibed.,Ott vagyunk a...,szibedben,szibedban,dzsungel,NA,NA,PR2016,2000,nő,nem,2022-04-06_10h33.43.018,hesp_baseline,2021.2.3,Win32,59.83366242
,,,,,,,,,,,,,,,,,tarhézben,tarhézban,left,3.4974,0,143,143,25,1,26,tarhéz,tarhéz,ban,é,Ez itt egy tarhéz.,Ott vagyunk a...,tarhézben,tarhézban,dzsungel,NA,NA,PR2016,2000,nő,nem,2022-04-06_10h33.43.018,hesp_baseline,2021.2.3,Win32,59.83366242
,,,,,,,,,,,,,,,,,brözlötök,brözöztök,left,7.5042,0,144,144,145,1,38,brözlik / brözözik,"brözlik, brözözni",tek,NA,"János imád brözözni, ezért sokat brözlik.",Ti ritkán...,brözlötök,brözöztök,cselekszik,-lik,1,PR2016,2000,nő,nem,2022-04-06_10h33.43.018,hesp_baseline,2021.2.3,Win32,59.83366242
,,,,,,,,,,,,,,,,,pugoslok,pugoslom,left,5.1137,0,145,145,84,1,31,pugoslik,pugoslasz,NA,NA,Te bizony sokat pugoslasz.,Én is sokat...,pugoslok,pugoslom,lakik,-lik,2,PR2016,2000,nő,nem,2022-04-06_10h33.43.018,hesp_baseline,2021.2.3,Win32,59.83366242
,,,,,,,,,,,,,,,,,trihagzok,trihagzom,left,4.3518,0,146,146,83,1,30,trihagzik,trihagzol,NA,NA,Te bizony sokat trihagzol.,Én is sokat...,trihagzok,trihagzom,lakik,-zik,2,PR2016,2000,nő,nem,2022-04-06_10h33.43.018,hesp_baseline,2021.2.3,Win32,59.83366242
,,,,,,,,,,,,,,,,,lumézben,lumézban,left,3.5441,0,147,147,32,1,33,luméz,luméz,ban,é,Ez itt egy luméz.,Ott vagyunk a...,lumézben,lumézban,dzsungel,NA,NA,PR2016,2000,nő,nem,2022-04-06_10h33.43.018,hesp_baseline,2021.2.3,Win32,59.83366242
,,,,,,,,,,,,,,,,,spibaklok,spibaklom,left,4.1714,0,148,148,55,1,2,spibaklik,spibaklasz,NA,NA,Te bizony sokat spibaklasz.,Én is sokat...,spibaklok,spibaklom,lakik,-lik,2,PR2016,2000,nő,nem,2022-04-06_10h33.43.018,hesp_baseline,2021.2.3,Win32,59.83366242
,,,,,,,,,,,,,,,,,flérlem,flérlek,right,3.8034,0,149,149,89,1,36,flérlik,flérlesz,NA,NA,Te bizony sokat flérlesz.,Én is sokat...,flérlek,flérlem,lakik,-lik,1,PR2016,2000,nő,nem,2022-04-06_10h33.43.018,hesp_baseline,2021.2.3,Win32,59.83366242
,,,,,,,,,,,,,,,,,sihennál,sihennél,right,3.3683,0,150,150,18,1,19,sihen,sihen,nál,e,Ez itt egy sihen.,Nincs is jobb egy jó...,sihennél,sihennál,dzsungel,NA,NA,PR2016,2000,nő,nem,2022-04-06_10h33.43.018,hesp_baseline,2021.2.3,Win32,59.83366242
,,,,,,,,,,,,,,,,,riványlotok,riványoztok,right,7.8438,0,151,151,117,1,10,riványlik / riványozik,"riványlik, riványozni",tek,NA,"János imád riványozni, ezért sokat riványlik.",Ti ritkán...,riványlotok,riványoztok,cselekszik,-lik,2,PR2016,2000,nő,nem,2022-04-06_10h33.43.018,hesp_baseline,2021.2.3,Win32,59.83366242
,,,,,,,,,,,,,,,,,pekedünk,pekszünk,left,4.9793,0,152,152,161,1,54,pekszik / pekedik,"pekszik, pekedni",ünk,NA,"János imád pekedni, ezért sokat pekszik.",Mi ritkán...,pekszünk,pekedünk,cselekszik,-szik,1,PR2016,2000,nő,nem,2022-04-06_10h33.43.018,hesp_baseline,2021.2.3,Win32,59.83366242
,,,,,,,,,,,,,,,,,bötőrözünk,bötőrzünk,left,10.3443,0,153,153,158,1,51,bötőrzik / bötőrözik,"bötőrzik, bötőrözni",ünk,NA,"János imád bötőrözni, ezért sokat bötőrzik.",Mi ritkán...,bötőrzünk,bötőrözünk,cselekszik,-zik,2,PR2016,2000,nő,nem,2022-04-06_10h33.43.018,hesp_baseline,2021.2.3,Win32,59.83366242
,,,,,,,,,,,,,,,,,narádzok,narádzom,right,7.2076,0,154,154,63,1,10,narádzik,narádzol,NA,NA,Te bizony sokat narádzol.,Én is sokat...,narádzok,narádzom,lakik,-zik,2,PR2016,2000,nő,nem,2022-04-06_10h33.43.018,hesp_baseline,2021.2.3,Win32,59.83366242
,,,,,,,,,,,,,,,,,brülöslünk,brülösözünk,left,9.0001,0,155,155,109,1,2,brülöslik / brülösözik,"brülöslik, brülösözni",ünk,NA,"János imád brülösözni, ezért sokat brülöslik.",Mi ritkán...,brülöslünk,brülösözünk,cselekszik,-lik,2,PR2016,2000,nő,nem,2022-04-06_10h33.43.018,hesp_baseline,2021.2.3,Win32,59.83366242
,,,,,,,,,,,,,,,,,priszkencnek,priszkencnak,left,5.1116,0,156,156,20,1,21,priszkenc,priszkenc,nak,e,Ez itt egy priszkenc.,Elneveztem a kutyámat...,priszkencnek,priszkencnak,dzsungel,NA,NA,PR2016,2000,nő,nem,2022-04-06_10h33.43.018,hesp_baseline,2021.2.3,Win32,59.83366242
,,,,,,,,,,,,,,,,,livaklom,livaklok,right,4.4452,0,157,157,82,1,29,livaklik,livaklasz,NA,NA,Te bizony sokat livaklasz.,Én is sokat...,livaklok,livaklom,lakik,-lik,2,PR2016,2000,nő,nem,2022-04-06_10h33.43.018,hesp_baseline,2021.2.3,Win32,59.83366242
,,,,,,,,,,,,,,,,,kadérnál,kadérnél,right,3.197,0,158,158,7,1,8,kadér,kadér,nál,é,Ez itt egy kadér.,Nincs is jobb egy jó...,kadérnél,kadérnál,dzsungel,NA,NA,PR2016,2000,nő,nem,2022-04-06_10h33.43.018,hesp_baseline,2021.2.3,Win32,59.83366242
,,,,,,,,,,,,,,,,,jorzégnak,jorzégnek,right,7.3469,0,159,159,45,1,46,jorzég,jorzég,nak,é,Ez itt egy jorzég.,Elneveztem a kutyámat...,jorzégnek,jorzégnak,dzsungel,NA,NA,PR2016,2000,nő,nem,2022-04-06_10h33.43.018,hesp_baseline,2021.2.3,Win32,59.83366242
,,,,,,,,,,,,,,,,,föködnek,fökszenek,right,6.1441,0,160,160,131,1,24,fökszik / föködik,"fökszik, föködni",nek,NA,"János imád föködni, ezért sokat fökszik.",Ők ritkán...,fökszenek,föködnek,cselekszik,-szik,1,PR2016,2000,nő,nem,2022-04-06_10h33.43.018,hesp_baseline,2021.2.3,Win32,59.83366242
,,,,,,,,,,,,,,,,,nyizozunk,nyizlunk,left,6.0471,0,161,161,135,1,28,nyizlik / nyizozik,"nyizlik, nyizozni",ünk,NA,"János imád nyizozni, ezért sokat nyizlik.",Mi ritkán...,nyizlunk,nyizozunk,cselekszik,-lik,1,PR2016,2000,nő,nem,2022-04-06_10h33.43.018,hesp_baseline,2021.2.3,Win32,59.83366242
