my_list,key.keys,key.rt,key_2.keys,key_2.rt,keyboard_input_2.keys,keyboard_input_2.rt,key_3.keys,key_3.rt,keyboard_input_3.keys,keyboard_input_3.rt,key_4.keys,key_4.rt,keyboard_input_4.keys,keyboard_input_4.rt,key_5.keys,key_5.rt,my_button1,my_button2,keyboard_input.keys,keyboard_input.rt,withinBlock.thisRepN,withinBlock.thisTrialN,withinBlock.thisN,withinBlock.thisIndex,withinBlock.ran,rowname,word,prompt,suffix,vowel,carrier_sentence,target_sentence,target1,target2,category,derivational,nsyl,Azonosító,Melyik évben születtél?,Mi a nemed?,Tanultál nyelvészetet?,date,expName,psychopyVersion,OS,frameRate
list3.csv,space,33.061,space,12.056,right,6.127,space,24.962,left,5.932,space,6.726,left,13.48,space,47.303,bűtszök,bűtszöm,left,36.816,0,0,0,82,1,137,bűtszik,bűtszöl,NA,NA,Te bizony sokat bűtszöl.,Én is sokat...,bűtszök,bűtszöm,lakik,-szik,1,PR2089,2001,nő,nem,2022-04-19_23h18.00.513,hesp_baseline,2021.2.3,Win32,60.0240096
,,,,,,,,,,,,,,,,,trálaklanak,trálakoznak,right,43.365,0,1,1,116,1,117,trálaklik / trálakozik,"trálaklik, trálakozni",nek,NA,"János imád trálakozni, ezért sokat trálaklik.",Ők ritkán...,trálaklanak,trálakoznak,cselekszik,-lik,2,PR2089,2001,nő,nem,2022-04-19_23h18.00.513,hesp_baseline,2021.2.3,Win32,60.0240096
,,,,,,,,,,,,,,,,,virzanak,viroznak,left,25.376,0,2,2,125,1,126,virzik / virozik,"virzik, virozni",nek,NA,"János imád virozni, ezért sokat virzik.",Ők ritkán...,virzanak,viroznak,cselekszik,-zik,1,PR2089,2001,nő,nem,2022-04-19_23h18.00.513,hesp_baseline,2021.2.3,Win32,60.0240096
,,,,,,,,,,,,,,,,,gyibakszok,gyibakszom,right,15.773,0,3,3,57,1,112,gyibakszik,gyibakszol,NA,NA,Te bizony sokat gyibakszol.,Én is sokat...,gyibakszok,gyibakszom,lakik,-szik,2,PR2089,2001,nő,nem,2022-04-19_23h18.00.513,hesp_baseline,2021.2.3,Win32,60.0240096
,,,,,,,,,,,,,,,,,klibamlom,klibamlok,right,8.891,0,4,4,92,1,147,klibamlik,klibamlasz,NA,NA,Te bizony sokat klibamlasz.,Én is sokat...,klibamlok,klibamlom,lakik,-lik,2,PR2089,2001,nő,nem,2022-04-19_23h18.00.513,hesp_baseline,2021.2.3,Win32,60.0240096
,,,,,,,,,,,,,,,,,büglöm,büglök,right,4.876,0,5,5,101,1,156,büglik,büglesz,NA,NA,Te bizony sokat büglesz.,Én is sokat...,büglök,büglöm,lakik,-lik,1,PR2089,2001,nő,nem,2022-04-19_23h18.00.513,hesp_baseline,2021.2.3,Win32,60.0240096
,,,,,,,,,,,,,,,,,kátelnak,kátelnek,right,5.396,0,6,6,12,1,121,kátel,kátel,nak,e,Ez itt egy kátel.,Elneveztem a kutyámat...,kátelnek,kátelnak,dzsungel,NA,NA,PR2089,2001,nő,nem,2022-04-19_23h18.00.513,hesp_baseline,2021.2.3,Win32,60.0240096
,,,,,,,,,,,,,,,,,siladzom,siladzok,left,10.306,0,7,7,93,1,148,siladzik,siladzol,NA,NA,Te bizony sokat siladzol.,Én is sokat...,siladzok,siladzom,lakik,-zik,2,PR2089,2001,nő,nem,2022-04-19_23h18.00.513,hesp_baseline,2021.2.3,Win32,60.0240096
,,,,,,,,,,,,,,,,,pristélben,pristélban,left,9.636,0,8,8,1,1,110,pristél,pristél,ban,é,Ez itt egy pristél.,Ott vagyunk a...,pristélben,pristélban,dzsungel,NA,NA,PR2089,2001,nő,nem,2022-04-19_23h18.00.513,hesp_baseline,2021.2.3,Win32,60.0240096
,,,,,,,,,,,,,,,,,brürzenek,brüröznek,right,10.421,0,9,9,110,1,111,brürzik / brürözik,"brürzik, brürözni",nek,NA,"János imád brürözni, ezért sokat brürzik.",Ők ritkán...,brürzenek,brüröznek,cselekszik,-zik,1,PR2089,2001,nő,nem,2022-04-19_23h18.00.513,hesp_baseline,2021.2.3,Win32,60.0240096
,,,,,,,,,,,,,,,,,frilegszem,frilegszek,left,6.755,0,10,10,72,1,127,frilegszik,frilegszel,NA,NA,Te bizony sokat frilegszel.,Én is sokat...,frilegszek,frilegszem,lakik,-szik,2,PR2089,2001,nő,nem,2022-04-19_23h18.00.513,hesp_baseline,2021.2.3,Win32,60.0240096
,,,,,,,,,,,,,,,,,vobzotok,voboztok,left,14.685,0,11,11,158,1,159,vobzik / vobozik,"vobzik, vobozni",tek,NA,"János imád vobozni, ezért sokat vobzik.",Ti ritkán...,vobzotok,voboztok,cselekszik,-zik,1,PR2089,2001,nő,nem,2022-04-19_23h18.00.513,hesp_baseline,2021.2.3,Win32,60.0240096
,,,,,,,,,,,,,,,,,spüszlök,spüszlöm,left,7.888,0,12,12,96,1,151,spüszlik,spüszlesz,NA,NA,Te bizony sokat spüszlesz.,Én is sokat...,spüszlök,spüszlöm,lakik,-lik,1,PR2089,2001,nő,nem,2022-04-19_23h18.00.513,hesp_baseline,2021.2.3,Win32,60.0240096
,,,,,,,,,,,,,,,,,mülőrzünk,mülőrözünk,left,15.84,0,13,13,120,1,121,mülőrzik / mülőrözik,"mülőrzik, mülőrözni",ünk,NA,"János imád mülőrözni, ezért sokat mülőrzik.",Mi ritkán...,mülőrzünk,mülőrözünk,cselekszik,-zik,2,PR2089,2001,nő,nem,2022-04-19_23h18.00.513,hesp_baseline,2021.2.3,Win32,60.0240096
,,,,,,,,,,,,,,,,,lűköznek,lűklenek,right,8.221,0,14,14,136,1,137,lűklik / lűközik,"lűklik, lűközni",nek,NA,"János imád lűközni, ezért sokat lűklik.",Ők ritkán...,lűklenek,lűköznek,cselekszik,-lik,1,PR2089,2001,nő,nem,2022-04-19_23h18.00.513,hesp_baseline,2021.2.3,Win32,60.0240096
,,,,,,,,,,,,,,,,,vodecnél,vodecnál,left,6.156,0,15,15,30,1,139,vodec,vodec,nál,e,Ez itt egy vodec.,Nincs is jobb egy jó...,vodecnél,vodecnál,dzsungel,NA,NA,PR2089,2001,nő,nem,2022-04-19_23h18.00.513,hesp_baseline,2021.2.3,Win32,60.0240096
,,,,,,,,,,,,,,,,,féjzek,féjzem,left,7.503,0,16,16,91,1,146,féjzik,féjzel,NA,NA,Te bizony sokat féjzel.,Én is sokat...,féjzek,féjzem,lakik,-zik,1,PR2089,2001,nő,nem,2022-04-19_23h18.00.513,hesp_baseline,2021.2.3,Win32,60.0240096
,,,,,,,,,,,,,,,,,spalároznak,spalárzanak,right,10.519,0,17,17,137,1,138,spalárzik / spalározik,"spalárzik, spalározni",nek,NA,"János imád spalározni, ezért sokat spalárzik.",Ők ritkán...,spalárzanak,spalároznak,cselekszik,-zik,2,PR2089,2001,nő,nem,2022-04-19_23h18.00.513,hesp_baseline,2021.2.3,Win32,60.0240096
,,,,,,,,,,,,,,,,,klosétnak,klosétnek,left,9.155,0,18,18,45,1,154,klosét,klosét,nak,é,Ez itt egy klosét.,Elneveztem a kutyámat...,klosétnek,klosétnak,dzsungel,NA,NA,PR2089,2001,nő,nem,2022-04-19_23h18.00.513,hesp_baseline,2021.2.3,Win32,60.0240096
,,,,,,,,,,,,,,,,,dalencnál,dalencnél,right,13.344,0,19,19,31,1,140,dalenc,dalenc,nál,e,Ez itt egy dalenc.,Nincs is jobb egy jó...,dalencnél,dalencnál,dzsungel,NA,NA,PR2089,2001,nő,nem,2022-04-19_23h18.00.513,hesp_baseline,2021.2.3,Win32,60.0240096
,,,,,,,,,,,,,,,,,klégezünk,kléglünk,right,42.299,0,20,20,122,1,123,kléglik / klégezik,"kléglik, klégezni",ünk,NA,"János imád klégezni, ezért sokat kléglik.",Mi ritkán...,kléglünk,klégezünk,cselekszik,-lik,1,PR2089,2001,nő,nem,2022-04-19_23h18.00.513,hesp_baseline,2021.2.3,Win32,60.0240096
,,,,,,,,,,,,,,,,,finceknél,finceknál,left,8.754,0,21,21,9,1,118,fincek,fincek,nál,e,Ez itt egy fincek.,Nincs is jobb egy jó...,finceknél,finceknál,dzsungel,NA,NA,PR2089,2001,nő,nem,2022-04-19_23h18.00.513,hesp_baseline,2021.2.3,Win32,60.0240096
,,,,,,,,,,,,,,,,,flököztök,flöklötök,left,16.542,0,22,22,121,1,122,flöklik / flöközik,"flöklik, flöközni",tek,NA,"János imád flöközni, ezért sokat flöklik.",Ti ritkán...,flöklötök,flököztök,cselekszik,-lik,1,PR2089,2001,nő,nem,2022-04-19_23h18.00.513,hesp_baseline,2021.2.3,Win32,60.0240096
,,,,,,,,,,,,,,,,,trikoztok,triklotok,right,11.104,0,23,23,160,1,161,triklik / trikozik,"triklik, trikozni",tek,NA,"János imád trikozni, ezért sokat triklik.",Ti ritkán...,triklotok,trikoztok,cselekszik,-lik,1,PR2089,2001,nő,nem,2022-04-19_23h18.00.513,hesp_baseline,2021.2.3,Win32,60.0240096
,,,,,,,,,,,,,,,,,lumoztok,lumlotok,right,7.322,0,24,24,149,1,150,lumlik / lumozik,"lumlik, lumozni",tek,NA,"János imád lumozni, ezért sokat lumlik.",Ti ritkán...,lumlotok,lumoztok,cselekszik,-lik,1,PR2089,2001,nő,nem,2022-04-19_23h18.00.513,hesp_baseline,2021.2.3,Win32,60.0240096
,,,,,,,,,,,,,,,,,spröbzök,spröbzöm,right,6.16,0,25,25,90,1,145,spröbzik,spröbzöl,NA,NA,Te bizony sokat spröbzöl.,Én is sokat...,spröbzök,spröbzöm,lakik,-zik,1,PR2089,2001,nő,nem,2022-04-19_23h18.00.513,hesp_baseline,2021.2.3,Win32,60.0240096
,,,,,,,,,,,,,,,,,vehékszünk,vehékedünk,left,10.985,0,26,26,117,1,118,vehékszik / vehékedik,"vehékszik, vehékedni",ünk,NA,"János imád vehékedni, ezért sokat vehékszik.",Mi ritkán...,vehékszünk,vehékedünk,cselekszik,-szik,2,PR2089,2001,nő,nem,2022-04-19_23h18.00.513,hesp_baseline,2021.2.3,Win32,60.0240096
,,,,,,,,,,,,,,,,,pibegeznek,pibegzenek,left,8.625,0,27,27,127,1,128,pibegzik / pibegezik,"pibegzik, pibegezni",nek,NA,"János imád pibegezni, ezért sokat pibegzik.",Ők ritkán...,pibegzenek,pibegeznek,cselekszik,-zik,2,PR2089,2001,nő,nem,2022-04-19_23h18.00.513,hesp_baseline,2021.2.3,Win32,60.0240096
,,,,,,,,,,,,,,,,,prínylom,prínylok,right,4.257,0,28,28,102,1,157,prínylik,prínylasz,NA,NA,Te bizony sokat prínylasz.,Én is sokat...,prínylok,prínylom,lakik,-lik,1,PR2089,2001,nő,nem,2022-04-19_23h18.00.513,hesp_baseline,2021.2.3,Win32,60.0240096
,,,,,,,,,,,,,,,,,trehégszek,trehégszem,left,8.258,0,29,29,86,1,141,trehégszik,trehégszel,NA,NA,Te bizony sokat trehégszel.,Én is sokat...,trehégszek,trehégszem,lakik,-szik,2,PR2089,2001,nő,nem,2022-04-19_23h18.00.513,hesp_baseline,2021.2.3,Win32,60.0240096
,,,,,,,,,,,,,,,,,lájoztok,lájzotok,right,8.024,0,30,30,159,1,160,lájzik / lájozik,"lájzik, lájozni",tek,NA,"János imád lájozni, ezért sokat lájzik.",Ti ritkán...,lájzotok,lájoztok,cselekszik,-zik,1,PR2089,2001,nő,nem,2022-04-19_23h18.00.513,hesp_baseline,2021.2.3,Win32,60.0240096
,,,,,,,,,,,,,,,,,szihétnak,szihétnek,right,3.973,0,31,31,4,1,113,szihét,szihét,nak,é,Ez itt egy szihét.,Elneveztem a kutyámat...,szihétnek,szihétnak,dzsungel,NA,NA,PR2089,2001,nő,nem,2022-04-19_23h18.00.513,hesp_baseline,2021.2.3,Win32,60.0240096
,,,,,,,,,,,,,,,,,sűzlöm,sűzlök,right,4.36,0,32,32,54,1,109,sűzlik,sűzlesz,NA,NA,Te bizony sokat sűzlesz.,Én is sokat...,sűzlök,sűzlöm,lakik,-lik,1,PR2089,2001,nő,nem,2022-04-19_23h18.00.513,hesp_baseline,2021.2.3,Win32,60.0240096
,,,,,,,,,,,,,,,,,zatéjnál,zatéjnél,left,4.857,0,33,33,34,1,143,zatéj,zatéj,nál,é,Ez itt egy zatéj.,Nincs is jobb egy jó...,zatéjnél,zatéjnál,dzsungel,NA,NA,PR2089,2001,nő,nem,2022-04-19_23h18.00.513,hesp_baseline,2021.2.3,Win32,60.0240096
,,,,,,,,,,,,,,,,,klétszem,klétszek,right,8.556,0,34,34,60,1,115,klétszik,klétszel,NA,NA,Te bizony sokat klétszel.,Én is sokat...,klétszek,klétszem,lakik,-szik,1,PR2089,2001,nő,nem,2022-04-19_23h18.00.513,hesp_baseline,2021.2.3,Win32,60.0240096
,,,,,,,,,,,,,,,,,murdesnál,murdesnél,left,10.392,0,35,35,47,1,156,murdes,murdes,nál,e,Ez itt egy murdes.,Nincs is jobb egy jó...,murdesnél,murdesnál,dzsungel,NA,NA,PR2089,2001,nő,nem,2022-04-19_23h18.00.513,hesp_baseline,2021.2.3,Win32,60.0240096
,,,,,,,,,,,,,,,,,lismévben,lismévban,left,7.287,0,36,36,0,1,109,lismév,lismév,ban,é,Ez itt egy lismév.,Ott vagyunk a...,lismévben,lismévban,dzsungel,NA,NA,PR2089,2001,nő,nem,2022-04-19_23h18.00.513,hesp_baseline,2021.2.3,Win32,60.0240096
,,,,,,,,,,,,,,,,,frálapodtok,frálapszotok,right,18.247,0,37,37,150,1,151,frálapszik / frálapodik,"frálapszik, frálapodni",tek,NA,"János imád frálapodni, ezért sokat frálapszik.",Ti ritkán...,frálapszotok,frálapodtok,cselekszik,-szik,2,PR2089,2001,nő,nem,2022-04-19_23h18.00.513,hesp_baseline,2021.2.3,Win32,60.0240096
,,,,,,,,,,,,,,,,,nivároztok,nivárzotok,right,6.827,0,38,38,146,1,147,nivárzik / nivározik,"nivárzik, nivározni",tek,NA,"János imád nivározni, ezért sokat nivárzik.",Ti ritkán...,nivárzotok,nivároztok,cselekszik,-zik,2,PR2089,2001,nő,nem,2022-04-19_23h18.00.513,hesp_baseline,2021.2.3,Win32,60.0240096
,,,,,,,,,,,,,,,,,narjárzok,narjárzom,right,5.707,0,39,39,61,1,116,narjárzik,narjárzol,NA,NA,Te bizony sokat narjárzol.,Én is sokat...,narjárzok,narjárzom,lakik,-zik,2,PR2089,2001,nő,nem,2022-04-19_23h18.00.513,hesp_baseline,2021.2.3,Win32,60.0240096
,,,,,,,,,,,,,,,,,bródesznak,bródesznek,right,3.919,0,40,40,32,1,141,bródesz,bródesz,nak,e,Ez itt egy bródesz.,Elneveztem a kutyámat...,bródesznek,bródesznak,dzsungel,NA,NA,PR2089,2001,nő,nem,2022-04-19_23h18.00.513,hesp_baseline,2021.2.3,Win32,60.0240096
,,,,,,,,,,,,,,,,,filánylunk,filányozunk,right,1.661,0,41,41,134,1,135,filánylik / filányozik,"filánylik, filányozni",ünk,NA,"János imád filányozni, ezért sokat filánylik.",Mi ritkán...,filánylunk,filányozunk,cselekszik,-lik,2,PR2089,2001,nő,nem,2022-04-19_23h18.00.513,hesp_baseline,2021.2.3,Win32,60.0240096
,,,,,,,,,,,,,,,,,bihánylom,bihánylok,right,5.797,0,42,42,89,1,144,bihánylik,bihánylasz,NA,NA,Te bizony sokat bihánylasz.,Én is sokat...,bihánylok,bihánylom,lakik,-lik,2,PR2089,2001,nő,nem,2022-04-19_23h18.00.513,hesp_baseline,2021.2.3,Win32,60.0240096
,,,,,,,,,,,,,,,,,mágamlunk,mágamozunk,left,5.956,0,43,43,140,1,141,mágamlik / mágamozik,"mágamlik, mágamozni",ünk,NA,"János imád mágamozni, ezért sokat mágamlik.",Mi ritkán...,mágamlunk,mágamozunk,cselekszik,-lik,2,PR2089,2001,nő,nem,2022-04-19_23h18.00.513,hesp_baseline,2021.2.3,Win32,60.0240096
,,,,,,,,,,,,,,,,,sprozlanak,sprozoznak,left,7.587,0,44,44,147,1,148,sprozlik / sprozozik,"sprozlik, sprozozni",nek,NA,"János imád sprozozni, ezért sokat sprozlik.",Ők ritkán...,sprozlanak,sprozoznak,cselekszik,-lik,1,PR2089,2001,nő,nem,2022-04-19_23h18.00.513,hesp_baseline,2021.2.3,Win32,60.0240096
,,,,,,,,,,,,,,,,,bivejlek,bivejlem,left,3.458,0,45,45,73,1,128,bivejlik,bivejlesz,NA,NA,Te bizony sokat bivejlesz.,Én is sokat...,bivejlek,bivejlem,lakik,-lik,2,PR2089,2001,nő,nem,2022-04-19_23h18.00.513,hesp_baseline,2021.2.3,Win32,60.0240096
,,,,,,,,,,,,,,,,,gótemnak,gótemnek,right,11.453,0,46,46,35,1,144,gótem,gótem,nak,e,Ez itt egy gótem.,Elneveztem a kutyámat...,gótemnek,gótemnak,dzsungel,NA,NA,PR2089,2001,nő,nem,2022-04-19_23h18.00.513,hesp_baseline,2021.2.3,Win32,60.0240096
,,,,,,,,,,,,,,,,,fizendban,fizendben,right,4.735,0,47,47,49,1,158,fizend,fizend,ban,e,Ez itt egy fizend.,Ott vagyunk a...,fizendben,fizendban,dzsungel,NA,NA,PR2089,2001,nő,nem,2022-04-19_23h18.00.513,hesp_baseline,2021.2.3,Win32,60.0240096
,,,,,,,,,,,,,,,,,zödlöm,zödlök,right,2.985,0,48,48,106,1,161,zödlik,zödlesz,NA,NA,Te bizony sokat zödlesz.,Én is sokat...,zödlök,zödlöm,lakik,-lik,1,PR2089,2001,nő,nem,2022-04-19_23h18.00.513,hesp_baseline,2021.2.3,Win32,60.0240096
,,,,,,,,,,,,,,,,,treglek,treglem,left,6.195,0,49,49,81,1,136,treglik,treglesz,NA,NA,Te bizony sokat treglesz.,Én is sokat...,treglek,treglem,lakik,-lik,1,PR2089,2001,nő,nem,2022-04-19_23h18.00.513,hesp_baseline,2021.2.3,Win32,60.0240096
,,,,,,,,,,,,,,,,,brárlanak,brároznak,left,9.274,0,50,50,126,1,127,brárlik / brározik,"brárlik, brározni",nek,NA,"János imád brározni, ezért sokat brárlik.",Ők ritkán...,brárlanak,brároznak,cselekszik,-lik,1,PR2089,2001,nő,nem,2022-04-19_23h18.00.513,hesp_baseline,2021.2.3,Win32,60.0240096
,,,,,,,,,,,,,,,,,tűgzötök,tűgöztök,left,5.424,0,51,51,143,1,144,tűgzik / tűgözik,"tűgzik, tűgözni",tek,NA,"János imád tűgözni, ezért sokat tűgzik.",Ti ritkán...,tűgzötök,tűgöztök,cselekszik,-zik,1,PR2089,2001,nő,nem,2022-04-19_23h18.00.513,hesp_baseline,2021.2.3,Win32,60.0240096
,,,,,,,,,,,,,,,,,kláragodtok,kláragszotok,right,12.536,0,52,52,123,1,124,kláragszik / kláragodik,"kláragszik, kláragodni",tek,NA,"János imád kláragodni, ezért sokat kláragszik.",Ti ritkán...,kláragszotok,kláragodtok,cselekszik,-szik,2,PR2089,2001,nő,nem,2022-04-19_23h18.00.513,hesp_baseline,2021.2.3,Win32,60.0240096
,,,,,,,,,,,,,,,,,brüjlöm,brüjlök,right,4.578,0,53,53,55,1,110,brüjlik,brüjlesz,NA,NA,Te bizony sokat brüjlesz.,Én is sokat...,brüjlök,brüjlöm,lakik,-lik,1,PR2089,2001,nő,nem,2022-04-19_23h18.00.513,hesp_baseline,2021.2.3,Win32,60.0240096
,,,,,,,,,,,,,,,,,sztredeztek,sztredletek,right,3.191,0,54,54,145,1,146,sztredlik / sztredezik,"sztredlik, sztredezni",tek,NA,"János imád sztredezni, ezért sokat sztredlik.",Ti ritkán...,sztredletek,sztredeztek,cselekszik,-lik,1,PR2089,2001,nő,nem,2022-04-19_23h18.00.513,hesp_baseline,2021.2.3,Win32,60.0240096
,,,,,,,,,,,,,,,,,jurdentnál,jurdentnél,right,5.632,0,55,55,16,1,125,jurdent,jurdent,nál,e,Ez itt egy jurdent.,Nincs is jobb egy jó...,jurdentnél,jurdentnál,dzsungel,NA,NA,PR2089,2001,nő,nem,2022-04-19_23h18.00.513,hesp_baseline,2021.2.3,Win32,60.0240096
,,,,,,,,,,,,,,,,,nágapszanak,nágapodnak,left,5.107,0,56,56,152,1,153,nágapszik / nágapodik,"nágapszik, nágapodni",nek,NA,"János imád nágapodni, ezért sokat nágapszik.",Ők ritkán...,nágapszanak,nágapodnak,cselekszik,-szik,2,PR2089,2001,nő,nem,2022-04-19_23h18.00.513,hesp_baseline,2021.2.3,Win32,60.0240096
,,,,,,,,,,,,,,,,,prezlem,prezlek,right,3.359,0,57,57,87,1,142,prezlik,prezlesz,NA,NA,Te bizony sokat prezlesz.,Én is sokat...,prezlek,prezlem,lakik,-lik,1,PR2089,2001,nő,nem,2022-04-19_23h18.00.513,hesp_baseline,2021.2.3,Win32,60.0240096
,,,,,,,,,,,,,,,,,trincsegban,trincsegben,right,4.106,0,58,58,46,1,155,trincseg,trincseg,ban,e,Ez itt egy trincseg.,Ott vagyunk a...,trincsegben,trincsegban,dzsungel,NA,NA,PR2089,2001,nő,nem,2022-04-19_23h18.00.513,hesp_baseline,2021.2.3,Win32,60.0240096
,,,,,,,,,,,,,,,,,sztrijzom,sztrijzok,right,3.448,0,59,59,68,1,123,sztrijzik,sztrijzol,NA,NA,Te bizony sokat sztrijzol.,Én is sokat...,sztrijzok,sztrijzom,lakik,-zik,1,PR2089,2001,nő,nem,2022-04-19_23h18.00.513,hesp_baseline,2021.2.3,Win32,60.0240096
,,,,,,,,,,,,,,,,,sztruglom,sztruglok,right,6.042,0,60,60,67,1,122,sztruglik,sztruglasz,NA,NA,Te bizony sokat sztruglasz.,Én is sokat...,sztruglok,sztruglom,lakik,-lik,1,PR2089,2001,nő,nem,2022-04-19_23h18.00.513,hesp_baseline,2021.2.3,Win32,60.0240096
,,,,,,,,,,,,,,,,,spanélnél,spanélnál,right,7.228,0,61,61,24,1,133,spanél,spanél,nál,é,Ez itt egy spanél.,Nincs is jobb egy jó...,spanélnél,spanélnál,dzsungel,NA,NA,PR2089,2001,nő,nem,2022-04-19_23h18.00.513,hesp_baseline,2021.2.3,Win32,60.0240096
,,,,,,,,,,,,,,,,,sztrozlok,sztrozlom,left,4.191,0,62,62,104,1,159,sztrozlik,sztrozlasz,NA,NA,Te bizony sokat sztrozlasz.,Én is sokat...,sztrozlok,sztrozlom,lakik,-lik,1,PR2089,2001,nő,nem,2022-04-19_23h18.00.513,hesp_baseline,2021.2.3,Win32,60.0240096
,,,,,,,,,,,,,,,,,brálamoznak,brálamlanak,right,11.249,0,63,63,144,1,145,brálamlik / brálamozik,"brálamlik, brálamozni",nek,NA,"János imád brálamozni, ezért sokat brálamlik.",Ők ritkán...,brálamlanak,brálamoznak,cselekszik,-lik,2,PR2089,2001,nő,nem,2022-04-19_23h18.00.513,hesp_baseline,2021.2.3,Win32,60.0240096
,,,,,,,,,,,,,,,,,nyupérnél,nyupérnál,right,7.09,0,64,64,52,1,161,nyupér,nyupér,nál,é,Ez itt egy nyupér.,Nincs is jobb egy jó...,nyupérnél,nyupérnál,dzsungel,NA,NA,PR2089,2001,nő,nem,2022-04-19_23h18.00.513,hesp_baseline,2021.2.3,Win32,60.0240096
,,,,,,,,,,,,,,,,,trűnylenek,trűnyöznek,left,4.061,0,65,65,119,1,120,trűnylik / trűnyözik,"trűnylik, trűnyözni",nek,NA,"János imád trűnyözni, ezért sokat trűnylik.",Ők ritkán...,trűnylenek,trűnyöznek,cselekszik,-lik,1,PR2089,2001,nő,nem,2022-04-19_23h18.00.513,hesp_baseline,2021.2.3,Win32,60.0240096
,,,,,,,,,,,,,,,,,ronszekban,ronszekben,left,11.488,0,66,66,18,1,127,ronszek,ronszek,ban,e,Ez itt egy ronszek.,Ott vagyunk a...,ronszekben,ronszekban,dzsungel,NA,NA,PR2089,2001,nő,nem,2022-04-19_23h18.00.513,hesp_baseline,2021.2.3,Win32,60.0240096
,,,,,,,,,,,,,,,,,gicéjnél,gicéjnál,left,8.786,0,67,67,17,1,126,gicéj,gicéj,nál,é,Ez itt egy gicéj.,Nincs is jobb egy jó...,gicéjnél,gicéjnál,dzsungel,NA,NA,PR2089,2001,nő,nem,2022-04-19_23h18.00.513,hesp_baseline,2021.2.3,Win32,60.0240096
,,,,,,,,,,,,,,,,,düjzöm,düjzök,left,3.339,0,68,68,97,1,152,düjzik,düjzöl,NA,NA,Te bizony sokat düjzöl.,Én is sokat...,düjzök,düjzöm,lakik,-zik,1,PR2089,2001,nő,nem,2022-04-19_23h18.00.513,hesp_baseline,2021.2.3,Win32,60.0240096
,,,,,,,,,,,,,,,,,vűjlök,vűjlöm,right,2.458,0,69,69,94,1,149,vűjlik,vűjlesz,NA,NA,Te bizony sokat vűjlesz.,Én is sokat...,vűjlök,vűjlöm,lakik,-lik,1,PR2089,2001,nő,nem,2022-04-19_23h18.00.513,hesp_baseline,2021.2.3,Win32,60.0240096
,,,,,,,,,,,,,,,,,drilarozunk,drilarzunk,right,7.175,0,70,70,131,1,132,drilarzik / drilarozik,"drilarzik, drilarozni",ünk,NA,"János imád drilarozni, ezért sokat drilarzik.",Mi ritkán...,drilarzunk,drilarozunk,cselekszik,-zik,2,PR2089,2001,nő,nem,2022-04-19_23h18.00.513,hesp_baseline,2021.2.3,Win32,60.0240096
,,,,,,,,,,,,,,,,,trapszegynál,trapszegynél,right,5.652,0,71,71,39,1,148,trapszegy,trapszegy,nál,e,Ez itt egy trapszegy.,Nincs is jobb egy jó...,trapszegynél,trapszegynál,dzsungel,NA,NA,PR2089,2001,nő,nem,2022-04-19_23h18.00.513,hesp_baseline,2021.2.3,Win32,60.0240096
,,,,,,,,,,,,,,,,,sprálszom,sprálszok,right,14.818,0,72,72,65,1,120,sprálszik,sprálszol,NA,NA,Te bizony sokat sprálszol.,Én is sokat...,sprálszok,sprálszom,lakik,-szik,1,PR2089,2001,nő,nem,2022-04-19_23h18.00.513,hesp_baseline,2021.2.3,Win32,60.0240096
,,,,,,,,,,,,,,,,,diroztok,dirlotok,right,4.426,0,73,73,148,1,149,dirlik / dirozik,"dirlik, dirozni",tek,NA,"János imád dirozni, ezért sokat dirlik.",Ti ritkán...,dirlotok,diroztok,cselekszik,-lik,1,PR2089,2001,nő,nem,2022-04-19_23h18.00.513,hesp_baseline,2021.2.3,Win32,60.0240096
,,,,,,,,,,,,,,,,,spibamlanak,spibamoznak,left,4.346,0,74,74,142,1,143,spibamlik / spibamozik,"spibamlik, spibamozni",nek,NA,"János imád spibamozni, ezért sokat spibamlik.",Ők ritkán...,spibamlanak,spibamoznak,cselekszik,-lik,2,PR2089,2001,nő,nem,2022-04-19_23h18.00.513,hesp_baseline,2021.2.3,Win32,60.0240096
,,,,,,,,,,,,,,,,,piragszok,piragszom,left,4.594,0,75,75,83,1,138,piragszik,piragszol,NA,NA,Te bizony sokat piragszol.,Én is sokat...,piragszok,piragszom,lakik,-szik,2,PR2089,2001,nő,nem,2022-04-19_23h18.00.513,hesp_baseline,2021.2.3,Win32,60.0240096
,,,,,,,,,,,,,,,,,drivegeztek,drivegzetek,right,10.369,0,76,76,112,1,113,drivegzik / drivegezik,"drivegzik, drivegezni",tek,NA,"János imád drivegezni, ezért sokat drivegzik.",Ti ritkán...,drivegzetek,drivegeztek,cselekszik,-zik,2,PR2089,2001,nő,nem,2022-04-19_23h18.00.513,hesp_baseline,2021.2.3,Win32,60.0240096
,,,,,,,,,,,,,,,,,brotesban,brotesben,left,3.638,0,77,77,53,1,162,brotes,brotes,ban,e,Ez itt egy brotes.,Ott vagyunk a...,brotesben,brotesban,dzsungel,NA,NA,PR2089,2001,nő,nem,2022-04-19_23h18.00.513,hesp_baseline,2021.2.3,Win32,60.0240096
,,,,,,,,,,,,,,,,,frivajlom,frivajlok,right,6.89,0,78,78,78,1,133,frivajlik,frivajlasz,NA,NA,Te bizony sokat frivajlasz.,Én is sokat...,frivajlok,frivajlom,lakik,-lik,2,PR2089,2001,nő,nem,2022-04-19_23h18.00.513,hesp_baseline,2021.2.3,Win32,60.0240096
,,,,,,,,,,,,,,,,,huméknak,huméknek,right,7.121,0,79,79,23,1,132,humék,humék,nak,é,Ez itt egy humék.,Elneveztem a kutyámat...,huméknek,huméknak,dzsungel,NA,NA,PR2089,2001,nő,nem,2022-04-19_23h18.00.513,hesp_baseline,2021.2.3,Win32,60.0240096
,,,,,,,,,,,,,,,,,böjzök,böjzöm,right,4.058,0,80,80,80,1,135,böjzik,böjzöl,NA,NA,Te bizony sokat böjzöl.,Én is sokat...,böjzök,böjzöm,lakik,-zik,1,PR2089,2001,nő,nem,2022-04-19_23h18.00.513,hesp_baseline,2021.2.3,Win32,60.0240096
,,,,,,,,,,,,,,,,,surnegynél,surnegynál,left,8.172,0,81,81,8,1,117,surnegy,surnegy,nál,e,Ez itt egy surnegy.,Nincs is jobb egy jó...,surnegynél,surnegynál,dzsungel,NA,NA,PR2089,2001,nő,nem,2022-04-19_23h18.00.513,hesp_baseline,2021.2.3,Win32,60.0240096
,,,,,,,,,,,,,,,,,brivepszünk,brivepedünk,left,16.783,0,82,82,113,1,114,brivepszik / brivepedik,"brivepszik, brivepedni",ünk,NA,"János imád brivepedni, ezért sokat brivepszik.",Mi ritkán...,brivepszünk,brivepedünk,cselekszik,-szik,2,PR2089,2001,nő,nem,2022-04-19_23h18.00.513,hesp_baseline,2021.2.3,Win32,60.0240096
,,,,,,,,,,,,,,,,,zsáderban,zsáderben,right,2.673,0,83,83,25,1,134,zsáder,zsáder,ban,e,Ez itt egy zsáder.,Ott vagyunk a...,zsáderben,zsáderban,dzsungel,NA,NA,PR2089,2001,nő,nem,2022-04-19_23h18.00.513,hesp_baseline,2021.2.3,Win32,60.0240096
,,,,,,,,,,,,,,,,,spuménynak,spuménynek,left,7.256,0,84,84,19,1,128,spumény,spumény,nak,é,Ez itt egy spumény.,Elneveztem a kutyámat...,spuménynek,spuménynak,dzsungel,NA,NA,PR2089,2001,nő,nem,2022-04-19_23h18.00.513,hesp_baseline,2021.2.3,Win32,60.0240096
,,,,,,,,,,,,,,,,,táklom,táklok,left,3.475,0,85,85,79,1,134,táklik,táklasz,NA,NA,Te bizony sokat táklasz.,Én is sokat...,táklok,táklom,lakik,-lik,1,PR2089,2001,nő,nem,2022-04-19_23h18.00.513,hesp_baseline,2021.2.3,Win32,60.0240096
,,,,,,,,,,,,,,,,,zinednek,zinednak,left,4.411,0,86,86,22,1,131,zined,zined,nak,e,Ez itt egy zined.,Elneveztem a kutyámat...,zinednek,zinednak,dzsungel,NA,NA,PR2089,2001,nő,nem,2022-04-19_23h18.00.513,hesp_baseline,2021.2.3,Win32,60.0240096
,,,,,,,,,,,,,,,,,hágyétnek,hágyétnak,right,7.81,0,87,87,42,1,151,hágyét,hágyét,nak,é,Ez itt egy hágyét.,Elneveztem a kutyámat...,hágyétnek,hágyétnak,dzsungel,NA,NA,PR2089,2001,nő,nem,2022-04-19_23h18.00.513,hesp_baseline,2021.2.3,Win32,60.0240096
,,,,,,,,,,,,,,,,,trismélnek,trismélnak,left,3.559,0,88,88,5,1,114,trismél,trismél,nak,é,Ez itt egy trismél.,Elneveztem a kutyámat...,trismélnek,trismélnak,dzsungel,NA,NA,PR2089,2001,nő,nem,2022-04-19_23h18.00.513,hesp_baseline,2021.2.3,Win32,60.0240096
,,,,,,,,,,,,,,,,,spülőrzöm,spülőrzök,right,4.328,0,89,89,69,1,124,spülőrzik,spülőrzöl,NA,NA,Te bizony sokat spülőrzöl.,Én is sokat...,spülőrzök,spülőrzöm,lakik,-zik,2,PR2089,2001,nő,nem,2022-04-19_23h18.00.513,hesp_baseline,2021.2.3,Win32,60.0240096
,,,,,,,,,,,,,,,,,sprökszöm,sprökszök,right,16.584,0,90,90,88,1,143,sprökszik,sprökszöl,NA,NA,Te bizony sokat sprökszöl.,Én is sokat...,sprökszök,sprökszöm,lakik,-szik,1,PR2089,2001,nő,nem,2022-04-19_23h18.00.513,hesp_baseline,2021.2.3,Win32,60.0240096
,,,,,,,,,,,,,,,,,sartelyban,sartelyben,right,3.067,0,91,91,40,1,149,sartely,sartely,ban,e,Ez itt egy sartely.,Ott vagyunk a...,sartelyben,sartelyban,dzsungel,NA,NA,PR2089,2001,nő,nem,2022-04-19_23h18.00.513,hesp_baseline,2021.2.3,Win32,60.0240096
,,,,,,,,,,,,,,,,,rájzok,rájzom,left,2.115,0,92,92,70,1,125,rájzik,rájzol,NA,NA,Te bizony sokat rájzol.,Én is sokat...,rájzok,rájzom,lakik,-zik,1,PR2089,2001,nő,nem,2022-04-19_23h18.00.513,hesp_baseline,2021.2.3,Win32,60.0240096
,,,,,,,,,,,,,,,,,sztritlanak,sztritoznak,left,4.34,0,93,93,154,1,155,sztritlik / sztritozik,"sztritlik, sztritozni",nek,NA,"János imád sztritozni, ezért sokat sztritlik.",Ők ritkán...,sztritlanak,sztritoznak,cselekszik,-lik,1,PR2089,2001,nő,nem,2022-04-19_23h18.00.513,hesp_baseline,2021.2.3,Win32,60.0240096
,,,,,,,,,,,,,,,,,spuboroznak,spuborzanak,right,5.217,0,94,94,161,1,162,spuborzik / spuborozik,"spuborzik, spuborozni",nek,NA,"János imád spuborozni, ezért sokat spuborzik.",Ők ritkán...,spuborzanak,spuboroznak,cselekszik,-zik,2,PR2089,2001,nő,nem,2022-04-19_23h18.00.513,hesp_baseline,2021.2.3,Win32,60.0240096
,,,,,,,,,,,,,,,,,pribagszok,pribagszom,left,2.245,0,95,95,76,1,131,pribagszik,pribagszol,NA,NA,Te bizony sokat pribagszol.,Én is sokat...,pribagszok,pribagszom,lakik,-szik,2,PR2089,2001,nő,nem,2022-04-19_23h18.00.513,hesp_baseline,2021.2.3,Win32,60.0240096
,,,,,,,,,,,,,,,,,sztrűkszök,sztrűkszöm,right,2.315,0,96,96,77,1,132,sztrűkszik,sztrűkszöl,NA,NA,Te bizony sokat sztrűkszöl.,Én is sokat...,sztrűkszök,sztrűkszöm,lakik,-szik,1,PR2089,2001,nő,nem,2022-04-19_23h18.00.513,hesp_baseline,2021.2.3,Win32,60.0240096
,,,,,,,,,,,,,,,,,nyáslom,nyáslok,right,1.588,0,97,97,100,1,155,nyáslik,nyáslasz,NA,NA,Te bizony sokat nyáslasz.,Én is sokat...,nyáslok,nyáslom,lakik,-lik,1,PR2089,2001,nő,nem,2022-04-19_23h18.00.513,hesp_baseline,2021.2.3,Win32,60.0240096
,,,,,,,,,,,,,,,,,triképben,triképban,left,5.622,0,98,98,33,1,142,trikép,trikép,ban,é,Ez itt egy trikép.,Ott vagyunk a...,triképben,triképban,dzsungel,NA,NA,PR2089,2001,nő,nem,2022-04-19_23h18.00.513,hesp_baseline,2021.2.3,Win32,60.0240096
,,,,,,,,,,,,,,,,,brukésznél,brukésznál,left,2.66,0,99,99,10,1,119,brukész,brukész,nál,é,Ez itt egy brukész.,Nincs is jobb egy jó...,brukésznél,brukésznál,dzsungel,NA,NA,PR2089,2001,nő,nem,2022-04-19_23h18.00.513,hesp_baseline,2021.2.3,Win32,60.0240096
,,,,,,,,,,,,,,,,,briváglanak,brivágoznak,left,6.116,0,100,100,138,1,139,briváglik / brivágozik,"briváglik, brivágozni",nek,NA,"János imád brivágozni, ezért sokat briváglik.",Ők ritkán...,briváglanak,brivágoznak,cselekszik,-lik,2,PR2089,2001,nő,nem,2022-04-19_23h18.00.513,hesp_baseline,2021.2.3,Win32,60.0240096
,,,,,,,,,,,,,,,,,ribegedtek,ribegszetek,left,6.827,0,101,101,141,1,142,ribegszik / ribegedik,"ribegszik, ribegedni",tek,NA,"János imád ribegedni, ezért sokat ribegszik.",Ti ritkán...,ribegszetek,ribegedtek,cselekszik,-szik,2,PR2089,2001,nő,nem,2022-04-19_23h18.00.513,hesp_baseline,2021.2.3,Win32,60.0240096
,,,,,,,,,,,,,,,,,szutendban,szutendben,right,3.04,0,102,102,11,1,120,szutend,szutend,ban,e,Ez itt egy szutend.,Ott vagyunk a...,szutendben,szutendban,dzsungel,NA,NA,PR2089,2001,nő,nem,2022-04-19_23h18.00.513,hesp_baseline,2021.2.3,Win32,60.0240096
,,,,,,,,,,,,,,,,,brűklötök,brűköztök,left,3.969,0,103,103,153,1,154,brűklik / brűközik,"brűklik, brűközni",tek,NA,"János imád brűközni, ezért sokat brűklik.",Ti ritkán...,brűklötök,brűköztök,cselekszik,-lik,1,PR2089,2001,nő,nem,2022-04-19_23h18.00.513,hesp_baseline,2021.2.3,Win32,60.0240096
,,,,,,,,,,,,,,,,,flugonyoznak,flugonylanak,right,40.855,0,104,104,111,1,112,flugonylik / flugonyozik,"flugonylik, flugonyozni",nek,NA,"János imád flugonyozni, ezért sokat flugonylik.",Ők ritkán...,flugonylanak,flugonyoznak,cselekszik,-lik,2,PR2089,2001,nő,nem,2022-04-19_23h18.00.513,hesp_baseline,2021.2.3,Win32,60.0240096
,,,,,,,,,,,,,,,,,tibaroznak,tibarzanak,right,20.368,0,105,105,155,1,156,tibarzik / tibarozik,"tibarzik, tibarozni",nek,NA,"János imád tibarozni, ezért sokat tibarzik.",Ők ritkán...,tibarzanak,tibaroznak,cselekszik,-zik,2,PR2089,2001,nő,nem,2022-04-19_23h18.00.513,hesp_baseline,2021.2.3,Win32,60.0240096
,,,,,,,,,,,,,,,,,trálszunk,trálodunk,right,7.235,0,106,106,130,1,131,trálszik / trálodik,"trálszik, trálodni",ünk,NA,"János imád trálodni, ezért sokat trálszik.",Mi ritkán...,trálszunk,trálodunk,cselekszik,-szik,1,PR2089,2001,nő,nem,2022-04-19_23h18.00.513,hesp_baseline,2021.2.3,Win32,60.0240096
,,,,,,,,,,,,,,,,,dibezben,dibezban,left,3.447,0,107,107,27,1,136,dibez,dibez,ban,e,Ez itt egy dibez.,Ott vagyunk a...,dibezben,dibezban,dzsungel,NA,NA,PR2089,2001,nő,nem,2022-04-19_23h18.00.513,hesp_baseline,2021.2.3,Win32,60.0240096
,,,,,,,,,,,,,,,,,spülöklöm,spülöklök,right,2.513,0,108,108,56,1,111,spülöklik,spülöklesz,NA,NA,Te bizony sokat spülöklesz.,Én is sokat...,spülöklök,spülöklöm,lakik,-lik,2,PR2089,2001,nő,nem,2022-04-19_23h18.00.513,hesp_baseline,2021.2.3,Win32,60.0240096
,,,,,,,,,,,,,,,,,gerénylem,gerénylek,right,3.07,0,109,109,99,1,154,gerénylik,gerénylesz,NA,NA,Te bizony sokat gerénylesz.,Én is sokat...,gerénylek,gerénylem,lakik,-lik,2,PR2089,2001,nő,nem,2022-04-19_23h18.00.513,hesp_baseline,2021.2.3,Win32,60.0240096
,,,,,,,,,,,,,,,,,csodegnál,csodegnél,left,1.993,0,110,110,28,1,137,csodeg,csodeg,nál,e,Ez itt egy csodeg.,Nincs is jobb egy jó...,csodegnél,csodegnál,dzsungel,NA,NA,PR2089,2001,nő,nem,2022-04-19_23h18.00.513,hesp_baseline,2021.2.3,Win32,60.0240096
,,,,,,,,,,,,,,,,,nyítemben,nyítemban,left,3.508,0,111,111,41,1,150,nyítem,nyítem,ban,e,Ez itt egy nyítem.,Ott vagyunk a...,nyítemben,nyítemban,dzsungel,NA,NA,PR2089,2001,nő,nem,2022-04-19_23h18.00.513,hesp_baseline,2021.2.3,Win32,60.0240096
,,,,,,,,,,,,,,,,,trivakodunk,trivakszunk,left,5.107,0,112,112,118,1,119,trivakszik / trivakodik,"trivakszik, trivakodni",ünk,NA,"János imád trivakodni, ezért sokat trivakszik.",Mi ritkán...,trivakszunk,trivakodunk,cselekszik,-szik,2,PR2089,2001,nő,nem,2022-04-19_23h18.00.513,hesp_baseline,2021.2.3,Win32,60.0240096
,,,,,,,,,,,,,,,,,dralágozunk,dralágzunk,left,5.492,0,113,113,156,1,157,dralágzik / dralágozik,"dralágzik, dralágozni",ünk,NA,"János imád dralágozni, ezért sokat dralágzik.",Mi ritkán...,dralágzunk,dralágozunk,cselekszik,-zik,2,PR2089,2001,nő,nem,2022-04-19_23h18.00.513,hesp_baseline,2021.2.3,Win32,60.0240096
,,,,,,,,,,,,,,,,,briskédnál,briskédnél,right,2.198,0,114,114,51,1,160,briskéd,briskéd,nál,é,Ez itt egy briskéd.,Nincs is jobb egy jó...,briskédnél,briskédnál,dzsungel,NA,NA,PR2089,2001,nő,nem,2022-04-19_23h18.00.513,hesp_baseline,2021.2.3,Win32,60.0240096
,,,,,,,,,,,,,,,,,zsádévnak,zsádévnek,left,5.481,0,115,115,20,1,129,zsádév,zsádév,nak,é,Ez itt egy zsádév.,Elneveztem a kutyámat...,zsádévnek,zsádévnak,dzsungel,NA,NA,PR2089,2001,nő,nem,2022-04-19_23h18.00.513,hesp_baseline,2021.2.3,Win32,60.0240096
,,,,,,,,,,,,,,,,,hűgzök,hűgzöm,left,16.077,0,116,116,107,1,162,hűgzik,hűgzöl,NA,NA,Te bizony sokat hűgzöl.,Én is sokat...,hűgzök,hűgzöm,lakik,-zik,1,PR2089,2001,nő,nem,2022-04-19_23h18.00.513,hesp_baseline,2021.2.3,Win32,60.0240096
,,,,,,,,,,,,,,,,,ibékszek,ibékszem,left,24.682,0,117,117,95,1,150,ibékszik,ibékszel,NA,NA,Te bizony sokat ibékszel.,Én is sokat...,ibékszek,ibékszem,lakik,-szik,2,PR2089,2001,nő,nem,2022-04-19_23h18.00.513,hesp_baseline,2021.2.3,Win32,60.0240096
,,,,,,,,,,,,,,,,,spiráglotok,spirágoztok,left,4.539,0,118,118,135,1,136,spiráglik / spirágozik,"spiráglik, spirágozni",tek,NA,"János imád spirágozni, ezért sokat spiráglik.",Ti ritkán...,spiráglotok,spirágoztok,cselekszik,-lik,2,PR2089,2001,nő,nem,2022-04-19_23h18.00.513,hesp_baseline,2021.2.3,Win32,60.0240096
,,,,,,,,,,,,,,,,,brilegzünk,brilegezünk,left,4.484,0,119,119,124,1,125,brilegzik / brilegezik,"brilegzik, brilegezni",ünk,NA,"János imád brilegezni, ezért sokat brilegzik.",Mi ritkán...,brilegzünk,brilegezünk,cselekszik,-zik,2,PR2089,2001,nő,nem,2022-04-19_23h18.00.513,hesp_baseline,2021.2.3,Win32,60.0240096
,,,,,,,,,,,,,,,,,spírzok,spírzom,left,1.158,0,120,120,64,1,119,spírzik,spírzol,NA,NA,Te bizony sokat spírzol.,Én is sokat...,spírzok,spírzom,lakik,-zik,1,PR2089,2001,nő,nem,2022-04-19_23h18.00.513,hesp_baseline,2021.2.3,Win32,60.0240096
,,,,,,,,,,,,,,,,,klivaslom,klivaslok,right,4.587,0,121,121,62,1,117,klivaslik,klivaslasz,NA,NA,Te bizony sokat klivaslasz.,Én is sokat...,klivaslok,klivaslom,lakik,-lik,2,PR2089,2001,nő,nem,2022-04-19_23h18.00.513,hesp_baseline,2021.2.3,Win32,60.0240096
,,,,,,,,,,,,,,,,,brindeznak,brindeznek,right,2.445,0,122,122,6,1,115,brindez,brindez,nak,e,Ez itt egy brindez.,Elneveztem a kutyámat...,brindeznek,brindeznak,dzsungel,NA,NA,PR2089,2001,nő,nem,2022-04-19_23h18.00.513,hesp_baseline,2021.2.3,Win32,60.0240096
,,,,,,,,,,,,,,,,,drubódzok,drubódzom,left,2.409,0,123,123,63,1,118,drubódzik,drubódzol,NA,NA,Te bizony sokat drubódzol.,Én is sokat...,drubódzok,drubódzom,lakik,-zik,2,PR2089,2001,nő,nem,2022-04-19_23h18.00.513,hesp_baseline,2021.2.3,Win32,60.0240096
,,,,,,,,,,,,,,,,,trugoklanak,trugokoznak,left,5.234,0,124,124,109,1,110,trugoklik / trugokozik,"trugoklik, trugokozni",nek,NA,"János imád trugokozni, ezért sokat trugoklik.",Ők ritkán...,trugoklanak,trugokoznak,cselekszik,-lik,2,PR2089,2001,nő,nem,2022-04-19_23h18.00.513,hesp_baseline,2021.2.3,Win32,60.0240096
,,,,,,,,,,,,,,,,,bidemben,bidemban,left,2.483,0,125,125,2,1,111,bidem,bidem,ban,e,Ez itt egy bidem.,Ott vagyunk a...,bidemben,bidemban,dzsungel,NA,NA,PR2089,2001,nő,nem,2022-04-19_23h18.00.513,hesp_baseline,2021.2.3,Win32,60.0240096
,,,,,,,,,,,,,,,,,pragányoztok,pragánylotok,right,4.362,0,126,126,133,1,134,pragánylik / pragányozik,"pragánylik, pragányozni",tek,NA,"János imád pragányozni, ezért sokat pragánylik.",Ti ritkán...,pragánylotok,pragányoztok,cselekszik,-lik,2,PR2089,2001,nő,nem,2022-04-19_23h18.00.513,hesp_baseline,2021.2.3,Win32,60.0240096
,,,,,,,,,,,,,,,,,flátlotok,flátoztok,left,28.779,0,127,127,132,1,133,flátlik / flátozik,"flátlik, flátozni",tek,NA,"János imád flátozni, ezért sokat flátlik.",Ti ritkán...,flátlotok,flátoztok,cselekszik,-lik,1,PR2089,2001,nő,nem,2022-04-19_23h18.00.513,hesp_baseline,2021.2.3,Win32,60.0240096
,,,,,,,,,,,,,,,,,prűrlök,prűrlöm,left,5.119,0,128,128,75,1,130,prűrlik,prűrlesz,NA,NA,Te bizony sokat prűrlesz.,Én is sokat...,prűrlök,prűrlöm,lakik,-lik,1,PR2089,2001,nő,nem,2022-04-19_23h18.00.513,hesp_baseline,2021.2.3,Win32,60.0240096
,,,,,,,,,,,,,,,,,nyarcéjnek,nyarcéjnak,right,4.341,0,129,129,37,1,146,nyarcéj,nyarcéj,nak,é,Ez itt egy nyarcéj.,Elneveztem a kutyámat...,nyarcéjnek,nyarcéjnak,dzsungel,NA,NA,PR2089,2001,nő,nem,2022-04-19_23h18.00.513,hesp_baseline,2021.2.3,Win32,60.0240096
,,,,,,,,,,,,,,,,,bupézban,bupézben,left,2.794,0,130,130,48,1,157,bupéz,bupéz,ban,é,Ez itt egy bupéz.,Ott vagyunk a...,bupézben,bupézban,dzsungel,NA,NA,PR2089,2001,nő,nem,2022-04-19_23h18.00.513,hesp_baseline,2021.2.3,Win32,60.0240096
,,,,,,,,,,,,,,,,,trádlok,trádlom,left,2.46,0,131,131,105,1,160,trádlik,trádlasz,NA,NA,Te bizony sokat trádlasz.,Én is sokat...,trádlok,trádlom,lakik,-lik,1,PR2089,2001,nő,nem,2022-04-19_23h18.00.513,hesp_baseline,2021.2.3,Win32,60.0240096
,,,,,,,,,,,,,,,,,pazévnál,pazévnél,left,2.725,0,132,132,36,1,145,pazév,pazév,nál,é,Ez itt egy pazév.,Nincs is jobb egy jó...,pazévnél,pazévnál,dzsungel,NA,NA,PR2089,2001,nő,nem,2022-04-19_23h18.00.513,hesp_baseline,2021.2.3,Win32,60.0240096
,,,,,,,,,,,,,,,,,trilszok,trilszom,left,1.593,0,133,133,103,1,158,trilszik,trilszol,NA,NA,Te bizony sokat trilszol.,Én is sokat...,trilszok,trilszom,lakik,-szik,1,PR2089,2001,nő,nem,2022-04-19_23h18.00.513,hesp_baseline,2021.2.3,Win32,60.0240096
,,,,,,,,,,,,,,,,,braszencnál,braszencnél,right,4.138,0,134,134,7,1,116,braszenc,braszenc,nál,e,Ez itt egy braszenc.,Nincs is jobb egy jó...,braszencnél,braszencnál,dzsungel,NA,NA,PR2089,2001,nő,nem,2022-04-19_23h18.00.513,hesp_baseline,2021.2.3,Win32,60.0240096
,,,,,,,,,,,,,,,,,kábesznál,kábesznél,right,2.329,0,135,135,44,1,153,kábesz,kábesz,nál,e,Ez itt egy kábesz.,Nincs is jobb egy jó...,kábesznél,kábesznál,dzsungel,NA,NA,PR2089,2001,nő,nem,2022-04-19_23h18.00.513,hesp_baseline,2021.2.3,Win32,60.0240096
,,,,,,,,,,,,,,,,,vilesezünk,vileslünk,right,30.126,0,136,136,139,1,140,vileslik / vilesezik,"vileslik, vilesezni",ünk,NA,"János imád vilesezni, ezért sokat vileslik.",Mi ritkán...,vileslünk,vilesezünk,cselekszik,-lik,2,PR2089,2001,nő,nem,2022-04-19_23h18.00.513,hesp_baseline,2021.2.3,Win32,60.0240096
,,,,,,,,,,,,,,,,,trájegben,trájegban,right,6.62,0,137,137,14,1,123,trájeg,trájeg,ban,e,Ez itt egy trájeg.,Ott vagyunk a...,trájegben,trájegban,dzsungel,NA,NA,PR2089,2001,nő,nem,2022-04-19_23h18.00.513,hesp_baseline,2021.2.3,Win32,60.0240096
,,,,,,,,,,,,,,,,,bratárzanak,bratároznak,right,6.255,0,138,138,108,1,109,bratárzik / bratározik,"bratárzik, bratározni",nek,NA,"János imád bratározni, ezért sokat bratárzik.",Ők ritkán...,bratárzanak,bratároznak,cselekszik,-zik,2,PR2089,2001,nő,nem,2022-04-19_23h18.00.513,hesp_baseline,2021.2.3,Win32,60.0240096
,,,,,,,,,,,,,,,,,pijélnál,pijélnél,right,2.873,0,139,139,3,1,112,pijél,pijél,nál,é,Ez itt egy pijél.,Nincs is jobb egy jó...,pijélnél,pijélnál,dzsungel,NA,NA,PR2089,2001,nő,nem,2022-04-19_23h18.00.513,hesp_baseline,2021.2.3,Win32,60.0240096
,,,,,,,,,,,,,,,,,vubletnál,vubletnél,right,2.231,0,140,140,26,1,135,vublet,vublet,nál,e,Ez itt egy vublet.,Nincs is jobb egy jó...,vubletnél,vubletnál,dzsungel,NA,NA,PR2089,2001,nő,nem,2022-04-19_23h18.00.513,hesp_baseline,2021.2.3,Win32,60.0240096
,,,,,,,,,,,,,,,,,tínylom,tínylok,right,2.259,0,141,141,58,1,113,tínylik,tínylasz,NA,NA,Te bizony sokat tínylasz.,Én is sokat...,tínylok,tínylom,lakik,-lik,1,PR2089,2001,nő,nem,2022-04-19_23h18.00.513,hesp_baseline,2021.2.3,Win32,60.0240096
,,,,,,,,,,,,,,,,,pehégszetek,pehégedtek,left,8.079,0,142,142,151,1,152,pehégszik / pehégedik,"pehégszik, pehégedni",tek,NA,"János imád pehégedni, ezért sokat pehégszik.",Ti ritkán...,pehégszetek,pehégedtek,cselekszik,-szik,2,PR2089,2001,nő,nem,2022-04-19_23h18.00.513,hesp_baseline,2021.2.3,Win32,60.0240096
,,,,,,,,,,,,,,,,,dorzéjnak,dorzéjnek,right,8.322,0,143,143,29,1,138,dorzéj,dorzéj,nak,é,Ez itt egy dorzéj.,Elneveztem a kutyámat...,dorzéjnek,dorzéjnak,dzsungel,NA,NA,PR2089,2001,nő,nem,2022-04-19_23h18.00.513,hesp_baseline,2021.2.3,Win32,60.0240096
,,,,,,,,,,,,,,,,,vihepszek,vihepszem,right,3.529,0,144,144,59,1,114,vihepszik,vihepszel,NA,NA,Te bizony sokat vihepszel.,Én is sokat...,vihepszek,vihepszem,lakik,-szik,2,PR2089,2001,nő,nem,2022-04-19_23h18.00.513,hesp_baseline,2021.2.3,Win32,60.0240096
,,,,,,,,,,,,,,,,,klarágoztok,klarágzotok,left,6.592,0,145,145,114,1,115,klarágzik / klarágozik,"klarágzik, klarágozni",tek,NA,"János imád klarágozni, ezért sokat klarágzik.",Ti ritkán...,klarágzotok,klarágoztok,cselekszik,-zik,2,PR2089,2001,nő,nem,2022-04-19_23h18.00.513,hesp_baseline,2021.2.3,Win32,60.0240096
,,,,,,,,,,,,,,,,,licegyban,licegyben,right,2.742,0,146,146,15,1,124,licegy,licegy,ban,e,Ez itt egy licegy.,Ott vagyunk a...,licegyben,licegyban,dzsungel,NA,NA,PR2089,2001,nő,nem,2022-04-19_23h18.00.513,hesp_baseline,2021.2.3,Win32,60.0240096
,,,,,,,,,,,,,,,,,sprivencnél,sprivencnál,left,1.875,0,147,147,13,1,122,sprivenc,sprivenc,nál,e,Ez itt egy sprivenc.,Nincs is jobb egy jó...,sprivencnél,sprivencnál,dzsungel,NA,NA,PR2089,2001,nő,nem,2022-04-19_23h18.00.513,hesp_baseline,2021.2.3,Win32,60.0240096
,,,,,,,,,,,,,,,,,döjlenek,döjöznek,left,2.576,0,148,148,129,1,130,döjlik / döjözik,"döjlik, döjözni",nek,NA,"János imád döjözni, ezért sokat döjlik.",Ők ritkán...,döjlenek,döjöznek,cselekszik,-lik,1,PR2089,2001,nő,nem,2022-04-19_23h18.00.513,hesp_baseline,2021.2.3,Win32,60.0240096
,,,,,,,,,,,,,,,,,trilekedtek,trilekszetek,right,2.492,0,149,149,157,1,158,trilekszik / trilekedik,"trilekszik, trilekedni",tek,NA,"János imád trilekedni, ezért sokat trilekszik.",Ti ritkán...,trilekszetek,trilekedtek,cselekszik,-szik,2,PR2089,2001,nő,nem,2022-04-19_23h18.00.513,hesp_baseline,2021.2.3,Win32,60.0240096
,,,,,,,,,,,,,,,,,sűjözünk,sűjlünk,left,2.995,0,150,150,128,1,129,sűjlik / sűjözik,"sűjlik, sűjözni",ünk,NA,"János imád sűjözni, ezért sokat sűjlik.",Mi ritkán...,sűjlünk,sűjözünk,cselekszik,-lik,1,PR2089,2001,nő,nem,2022-04-19_23h18.00.513,hesp_baseline,2021.2.3,Win32,60.0240096
,,,,,,,,,,,,,,,,,tuboklok,tuboklom,left,3.699,0,151,151,84,1,139,tuboklik,tuboklasz,NA,NA,Te bizony sokat tuboklasz.,Én is sokat...,tuboklok,tuboklom,lakik,-lik,2,PR2089,2001,nő,nem,2022-04-19_23h18.00.513,hesp_baseline,2021.2.3,Win32,60.0240096
,,,,,,,,,,,,,,,,,fretszek,fretszem,left,1.316,0,152,152,66,1,121,fretszik,fretszel,NA,NA,Te bizony sokat fretszel.,Én is sokat...,fretszek,fretszem,lakik,-szik,1,PR2089,2001,nő,nem,2022-04-19_23h18.00.513,hesp_baseline,2021.2.3,Win32,60.0240096
,,,,,,,,,,,,,,,,,klárzok,klárzom,right,1.046,0,153,153,85,1,140,klárzik,klárzol,NA,NA,Te bizony sokat klárzol.,Én is sokat...,klárzok,klárzom,lakik,-zik,1,PR2089,2001,nő,nem,2022-04-19_23h18.00.513,hesp_baseline,2021.2.3,Win32,60.0240096
,,,,,,,,,,,,,,,,,zábénynek,zábénynak,left,4.089,0,154,154,43,1,152,zábény,zábény,nak,é,Ez itt egy zábény.,Elneveztem a kutyámat...,zábénynek,zábénynak,dzsungel,NA,NA,PR2089,2001,nő,nem,2022-04-19_23h18.00.513,hesp_baseline,2021.2.3,Win32,60.0240096
,,,,,,,,,,,,,,,,,plágadzok,plágadzom,left,3.991,0,155,155,74,1,129,plágadzik,plágadzol,NA,NA,Te bizony sokat plágadzol.,Én is sokat...,plágadzok,plágadzom,lakik,-zik,2,PR2089,2001,nő,nem,2022-04-19_23h18.00.513,hesp_baseline,2021.2.3,Win32,60.0240096
,,,,,,,,,,,,,,,,,danétnél,danétnál,left,3.341,0,156,156,38,1,147,danét,danét,nál,é,Ez itt egy danét.,Nincs is jobb egy jó...,danétnél,danétnál,dzsungel,NA,NA,PR2089,2001,nő,nem,2022-04-19_23h18.00.513,hesp_baseline,2021.2.3,Win32,60.0240096
,,,,,,,,,,,,,,,,,vurnelnek,vurnelnak,left,3.078,0,157,157,50,1,159,vurnel,vurnel,nak,e,Ez itt egy vurnel.,Elneveztem a kutyámat...,vurnelnek,vurnelnak,dzsungel,NA,NA,PR2089,2001,nő,nem,2022-04-19_23h18.00.513,hesp_baseline,2021.2.3,Win32,60.0240096
,,,,,,,,,,,,,,,,,spatelnek,spatelnak,left,1.891,0,158,158,21,1,130,spatel,spatel,nak,e,Ez itt egy spatel.,Elneveztem a kutyámat...,spatelnek,spatelnak,dzsungel,NA,NA,PR2089,2001,nő,nem,2022-04-19_23h18.00.513,hesp_baseline,2021.2.3,Win32,60.0240096
,,,,,,,,,,,,,,,,,gibemlünk,gibemezünk,left,4.477,0,159,159,115,1,116,gibemlik / gibemezik,"gibemlik, gibemezni",ünk,NA,"János imád gibemezni, ezért sokat gibemlik.",Mi ritkán...,gibemlünk,gibemezünk,cselekszik,-lik,2,PR2089,2001,nő,nem,2022-04-19_23h18.00.513,hesp_baseline,2021.2.3,Win32,60.0240096
,,,,,,,,,,,,,,,,,mékszem,mékszek,right,2.975,0,160,160,71,1,126,mékszik,mékszel,NA,NA,Te bizony sokat mékszel.,Én is sokat...,mékszek,mékszem,lakik,-szik,1,PR2089,2001,nő,nem,2022-04-19_23h18.00.513,hesp_baseline,2021.2.3,Win32,60.0240096
,,,,,,,,,,,,,,,,,fliraklok,fliraklom,left,30.88,0,161,161,98,1,153,fliraklik,fliraklasz,NA,NA,Te bizony sokat fliraklasz.,Én is sokat...,fliraklok,fliraklom,lakik,-lik,2,PR2089,2001,nő,nem,2022-04-19_23h18.00.513,hesp_baseline,2021.2.3,Win32,60.0240096
