my_list,key.keys,key.rt,key_2.keys,key_2.rt,keyboard_input_2.keys,keyboard_input_2.rt,key_3.keys,key_3.rt,keyboard_input_3.keys,keyboard_input_3.rt,key_4.keys,key_4.rt,keyboard_input_4.keys,keyboard_input_4.rt,key_5.keys,key_5.rt,my_button1,my_button2,keyboard_input.keys,keyboard_input.rt,withinBlock.thisRepN,withinBlock.thisTrialN,withinBlock.thisN,withinBlock.thisIndex,withinBlock.ran,rowname,word,prompt,suffix,vowel,carrier_sentence,target_sentence,target1,target2,category,derivational,nsyl,Azonosító,Melyik évben születtél?,Mi a nemed?,Tanultál nyelvészetet?,date,expName,psychopyVersion,OS,frameRate
list3.csv,space,47.322,space,9.4046,right,8.4929,space,21.0761,left,7.5259,space,8.961,left,11.0537,space,15.6421,brindeznek,brindeznak,left,8.302,0,0,0,6,1,115,brindez,brindez,nak,e,Ez itt egy brindez.,Elneveztem a kutyámat...,brindeznek,brindeznak,dzsungel,NA,NA,PR2038,2002,nő,nem,2022-04-18_13h59.41.621,hesp_baseline,2021.2.3,Win32,60.0240096
,,,,,,,,,,,,,,,,,vobzotok,voboztok,left,16.3584,0,1,1,158,1,159,vobzik / vobozik,"vobzik, vobozni",tek,NA,"János imád vobozni, ezért sokat vobzik.",Ti ritkán...,vobzotok,voboztok,cselekszik,-zik,1,PR2038,2002,nő,nem,2022-04-18_13h59.41.621,hesp_baseline,2021.2.3,Win32,60.0240096
,,,,,,,,,,,,,,,,,büglök,büglöm,left,7.1373,0,2,2,101,1,156,büglik,büglesz,NA,NA,Te bizony sokat büglesz.,Én is sokat...,büglök,büglöm,lakik,-lik,1,PR2038,2002,nő,nem,2022-04-18_13h59.41.621,hesp_baseline,2021.2.3,Win32,60.0240096
,,,,,,,,,,,,,,,,,flugonyoznak,flugonylanak,right,20.9246,0,3,3,111,1,112,flugonylik / flugonyozik,"flugonylik, flugonyozni",nek,NA,"János imád flugonyozni, ezért sokat flugonylik.",Ők ritkán...,flugonylanak,flugonyoznak,cselekszik,-lik,2,PR2038,2002,nő,nem,2022-04-18_13h59.41.621,hesp_baseline,2021.2.3,Win32,60.0240096
,,,,,,,,,,,,,,,,,brivágoznak,briváglanak,right,6.659,0,4,4,138,1,139,briváglik / brivágozik,"briváglik, brivágozni",nek,NA,"János imád brivágozni, ezért sokat briváglik.",Ők ritkán...,briváglanak,brivágoznak,cselekszik,-lik,2,PR2038,2002,nő,nem,2022-04-18_13h59.41.621,hesp_baseline,2021.2.3,Win32,60.0240096
,,,,,,,,,,,,,,,,,brukésznél,brukésznál,left,7.4263,0,5,5,10,1,119,brukész,brukész,nál,é,Ez itt egy brukész.,Nincs is jobb egy jó...,brukésznél,brukésznál,dzsungel,NA,NA,PR2038,2002,nő,nem,2022-04-18_13h59.41.621,hesp_baseline,2021.2.3,Win32,60.0240096
,,,,,,,,,,,,,,,,,gerénylem,gerénylek,right,5.0477,0,6,6,99,1,154,gerénylik,gerénylesz,NA,NA,Te bizony sokat gerénylesz.,Én is sokat...,gerénylek,gerénylem,lakik,-lik,2,PR2038,2002,nő,nem,2022-04-18_13h59.41.621,hesp_baseline,2021.2.3,Win32,60.0240096
,,,,,,,,,,,,,,,,,spülőrzöm,spülőrzök,right,7.2588,0,7,7,69,1,124,spülőrzik,spülőrzöl,NA,NA,Te bizony sokat spülőrzöl.,Én is sokat...,spülőrzök,spülőrzöm,lakik,-zik,2,PR2038,2002,nő,nem,2022-04-18_13h59.41.621,hesp_baseline,2021.2.3,Win32,60.0240096
,,,,,,,,,,,,,,,,,treglem,treglek,right,4.0605,0,8,8,81,1,136,treglik,treglesz,NA,NA,Te bizony sokat treglesz.,Én is sokat...,treglek,treglem,lakik,-lik,1,PR2038,2002,nő,nem,2022-04-18_13h59.41.621,hesp_baseline,2021.2.3,Win32,60.0240096
,,,,,,,,,,,,,,,,,ronszekban,ronszekben,right,6.2636,0,9,9,18,1,127,ronszek,ronszek,ban,e,Ez itt egy ronszek.,Ott vagyunk a...,ronszekben,ronszekban,dzsungel,NA,NA,PR2038,2002,nő,nem,2022-04-18_13h59.41.621,hesp_baseline,2021.2.3,Win32,60.0240096
,,,,,,,,,,,,,,,,,gicéjnál,gicéjnél,right,5.3242,0,10,10,17,1,126,gicéj,gicéj,nál,é,Ez itt egy gicéj.,Nincs is jobb egy jó...,gicéjnél,gicéjnál,dzsungel,NA,NA,PR2038,2002,nő,nem,2022-04-18_13h59.41.621,hesp_baseline,2021.2.3,Win32,60.0240096
,,,,,,,,,,,,,,,,,böjzöm,böjzök,right,3.7207,0,11,11,80,1,135,böjzik,böjzöl,NA,NA,Te bizony sokat böjzöl.,Én is sokat...,böjzök,böjzöm,lakik,-zik,1,PR2038,2002,nő,nem,2022-04-18_13h59.41.621,hesp_baseline,2021.2.3,Win32,60.0240096
,,,,,,,,,,,,,,,,,klárzok,klárzom,left,7.0656,0,12,12,85,1,140,klárzik,klárzol,NA,NA,Te bizony sokat klárzol.,Én is sokat...,klárzok,klárzom,lakik,-zik,1,PR2038,2002,nő,nem,2022-04-18_13h59.41.621,hesp_baseline,2021.2.3,Win32,60.0240096
,,,,,,,,,,,,,,,,,klosétnak,klosétnek,left,6.6608,0,13,13,45,1,154,klosét,klosét,nak,é,Ez itt egy klosét.,Elneveztem a kutyámat...,klosétnek,klosétnak,dzsungel,NA,NA,PR2038,2002,nő,nem,2022-04-18_13h59.41.621,hesp_baseline,2021.2.3,Win32,60.0240096
,,,,,,,,,,,,,,,,,trájegben,trájegban,left,4.9442,0,14,14,14,1,123,trájeg,trájeg,ban,e,Ez itt egy trájeg.,Ott vagyunk a...,trájegben,trájegban,dzsungel,NA,NA,PR2038,2002,nő,nem,2022-04-18_13h59.41.621,hesp_baseline,2021.2.3,Win32,60.0240096
,,,,,,,,,,,,,,,,,fliraklom,fliraklok,right,8.4779,0,15,15,98,1,153,fliraklik,fliraklasz,NA,NA,Te bizony sokat fliraklasz.,Én is sokat...,fliraklok,fliraklom,lakik,-lik,2,PR2038,2002,nő,nem,2022-04-18_13h59.41.621,hesp_baseline,2021.2.3,Win32,60.0240096
,,,,,,,,,,,,,,,,,briskédnél,briskédnál,left,5.9219,0,16,16,51,1,160,briskéd,briskéd,nál,é,Ez itt egy briskéd.,Nincs is jobb egy jó...,briskédnél,briskédnál,dzsungel,NA,NA,PR2038,2002,nő,nem,2022-04-18_13h59.41.621,hesp_baseline,2021.2.3,Win32,60.0240096
,,,,,,,,,,,,,,,,,siladzok,siladzom,left,4.1896,0,17,17,93,1,148,siladzik,siladzol,NA,NA,Te bizony sokat siladzol.,Én is sokat...,siladzok,siladzom,lakik,-zik,2,PR2038,2002,nő,nem,2022-04-18_13h59.41.621,hesp_baseline,2021.2.3,Win32,60.0240096
,,,,,,,,,,,,,,,,,sztritlanak,sztritoznak,left,9.2318,0,18,18,154,1,155,sztritlik / sztritozik,"sztritlik, sztritozni",nek,NA,"János imád sztritozni, ezért sokat sztritlik.",Ők ritkán...,sztritlanak,sztritoznak,cselekszik,-lik,1,PR2038,2002,nő,nem,2022-04-18_13h59.41.621,hesp_baseline,2021.2.3,Win32,60.0240096
,,,,,,,,,,,,,,,,,sprökszöm,sprökszök,left,8.9944,0,19,19,88,1,143,sprökszik,sprökszöl,NA,NA,Te bizony sokat sprökszöl.,Én is sokat...,sprökszök,sprökszöm,lakik,-szik,1,PR2038,2002,nő,nem,2022-04-18_13h59.41.621,hesp_baseline,2021.2.3,Win32,60.0240096
,,,,,,,,,,,,,,,,,prínylom,prínylok,right,4.307,0,20,20,102,1,157,prínylik,prínylasz,NA,NA,Te bizony sokat prínylasz.,Én is sokat...,prínylok,prínylom,lakik,-lik,1,PR2038,2002,nő,nem,2022-04-18_13h59.41.621,hesp_baseline,2021.2.3,Win32,60.0240096
,,,,,,,,,,,,,,,,,vodecnél,vodecnál,left,6.8589,0,21,21,30,1,139,vodec,vodec,nál,e,Ez itt egy vodec.,Nincs is jobb egy jó...,vodecnél,vodecnál,dzsungel,NA,NA,PR2038,2002,nő,nem,2022-04-18_13h59.41.621,hesp_baseline,2021.2.3,Win32,60.0240096
,,,,,,,,,,,,,,,,,ribegedtek,ribegszetek,left,6.0087,0,22,22,141,1,142,ribegszik / ribegedik,"ribegszik, ribegedni",tek,NA,"János imád ribegedni, ezért sokat ribegszik.",Ti ritkán...,ribegszetek,ribegedtek,cselekszik,-szik,2,PR2038,2002,nő,nem,2022-04-18_13h59.41.621,hesp_baseline,2021.2.3,Win32,60.0240096
,,,,,,,,,,,,,,,,,nyarcéjnak,nyarcéjnek,left,6.7268,0,23,23,37,1,146,nyarcéj,nyarcéj,nak,é,Ez itt egy nyarcéj.,Elneveztem a kutyámat...,nyarcéjnek,nyarcéjnak,dzsungel,NA,NA,PR2038,2002,nő,nem,2022-04-18_13h59.41.621,hesp_baseline,2021.2.3,Win32,60.0240096
,,,,,,,,,,,,,,,,,frilegszem,frilegszek,right,4.0784,0,24,24,72,1,127,frilegszik,frilegszel,NA,NA,Te bizony sokat frilegszel.,Én is sokat...,frilegszek,frilegszem,lakik,-szik,2,PR2038,2002,nő,nem,2022-04-18_13h59.41.621,hesp_baseline,2021.2.3,Win32,60.0240096
,,,,,,,,,,,,,,,,,fizendban,fizendben,right,4.7905,0,25,25,49,1,158,fizend,fizend,ban,e,Ez itt egy fizend.,Ott vagyunk a...,fizendben,fizendban,dzsungel,NA,NA,PR2038,2002,nő,nem,2022-04-18_13h59.41.621,hesp_baseline,2021.2.3,Win32,60.0240096
,,,,,,,,,,,,,,,,,trugokoznak,trugoklanak,right,6.3247,0,26,26,109,1,110,trugoklik / trugokozik,"trugoklik, trugokozni",nek,NA,"János imád trugokozni, ezért sokat trugoklik.",Ők ritkán...,trugoklanak,trugokoznak,cselekszik,-lik,2,PR2038,2002,nő,nem,2022-04-18_13h59.41.621,hesp_baseline,2021.2.3,Win32,60.0240096
,,,,,,,,,,,,,,,,,hágyétnak,hágyétnek,left,3.6384,0,27,27,42,1,151,hágyét,hágyét,nak,é,Ez itt egy hágyét.,Elneveztem a kutyámat...,hágyétnek,hágyétnak,dzsungel,NA,NA,PR2038,2002,nő,nem,2022-04-18_13h59.41.621,hesp_baseline,2021.2.3,Win32,60.0240096
,,,,,,,,,,,,,,,,,bihánylom,bihánylok,right,3.7219,0,28,28,89,1,144,bihánylik,bihánylasz,NA,NA,Te bizony sokat bihánylasz.,Én is sokat...,bihánylok,bihánylom,lakik,-lik,2,PR2038,2002,nő,nem,2022-04-18_13h59.41.621,hesp_baseline,2021.2.3,Win32,60.0240096
,,,,,,,,,,,,,,,,,prűrlöm,prűrlök,right,3.7608,0,29,29,75,1,130,prűrlik,prűrlesz,NA,NA,Te bizony sokat prűrlesz.,Én is sokat...,prűrlök,prűrlöm,lakik,-lik,1,PR2038,2002,nő,nem,2022-04-18_13h59.41.621,hesp_baseline,2021.2.3,Win32,60.0240096
,,,,,,,,,,,,,,,,,spröbzöm,spröbzök,right,9.7548,0,30,30,90,1,145,spröbzik,spröbzöl,NA,NA,Te bizony sokat spröbzöl.,Én is sokat...,spröbzök,spröbzöm,lakik,-zik,1,PR2038,2002,nő,nem,2022-04-18_13h59.41.621,hesp_baseline,2021.2.3,Win32,60.0240096
,,,,,,,,,,,,,,,,,zábénynek,zábénynak,right,6.4249,0,31,31,43,1,152,zábény,zábény,nak,é,Ez itt egy zábény.,Elneveztem a kutyámat...,zábénynek,zábénynak,dzsungel,NA,NA,PR2038,2002,nő,nem,2022-04-18_13h59.41.621,hesp_baseline,2021.2.3,Win32,60.0240096
,,,,,,,,,,,,,,,,,piragszom,piragszok,left,6.4843,0,32,32,83,1,138,piragszik,piragszol,NA,NA,Te bizony sokat piragszol.,Én is sokat...,piragszok,piragszom,lakik,-szik,2,PR2038,2002,nő,nem,2022-04-18_13h59.41.621,hesp_baseline,2021.2.3,Win32,60.0240096
,,,,,,,,,,,,,,,,,brivepszünk,brivepedünk,left,6.0077,0,33,33,113,1,114,brivepszik / brivepedik,"brivepszik, brivepedni",ünk,NA,"János imád brivepedni, ezért sokat brivepszik.",Mi ritkán...,brivepszünk,brivepedünk,cselekszik,-szik,2,PR2038,2002,nő,nem,2022-04-18_13h59.41.621,hesp_baseline,2021.2.3,Win32,60.0240096
,,,,,,,,,,,,,,,,,vihepszem,vihepszek,right,4.9077,0,34,34,59,1,114,vihepszik,vihepszel,NA,NA,Te bizony sokat vihepszel.,Én is sokat...,vihepszek,vihepszem,lakik,-szik,2,PR2038,2002,nő,nem,2022-04-18_13h59.41.621,hesp_baseline,2021.2.3,Win32,60.0240096
,,,,,,,,,,,,,,,,,brűklötök,brűköztök,left,6.5097,0,35,35,153,1,154,brűklik / brűközik,"brűklik, brűközni",tek,NA,"János imád brűközni, ezért sokat brűklik.",Ti ritkán...,brűklötök,brűköztök,cselekszik,-lik,1,PR2038,2002,nő,nem,2022-04-18_13h59.41.621,hesp_baseline,2021.2.3,Win32,60.0240096
,,,,,,,,,,,,,,,,,vurnelnek,vurnelnak,left,3.7128,0,36,36,50,1,159,vurnel,vurnel,nak,e,Ez itt egy vurnel.,Elneveztem a kutyámat...,vurnelnek,vurnelnak,dzsungel,NA,NA,PR2038,2002,nő,nem,2022-04-18_13h59.41.621,hesp_baseline,2021.2.3,Win32,60.0240096
,,,,,,,,,,,,,,,,,trálodunk,trálszunk,right,9.6527,0,37,37,130,1,131,trálszik / trálodik,"trálszik, trálodni",ünk,NA,"János imád trálodni, ezért sokat trálszik.",Mi ritkán...,trálszunk,trálodunk,cselekszik,-szik,1,PR2038,2002,nő,nem,2022-04-18_13h59.41.621,hesp_baseline,2021.2.3,Win32,60.0240096
,,,,,,,,,,,,,,,,,tínylok,tínylom,left,4.7782,0,38,38,58,1,113,tínylik,tínylasz,NA,NA,Te bizony sokat tínylasz.,Én is sokat...,tínylok,tínylom,lakik,-lik,1,PR2038,2002,nő,nem,2022-04-18_13h59.41.621,hesp_baseline,2021.2.3,Win32,60.0240096
,,,,,,,,,,,,,,,,,drivegzetek,drivegeztek,right,6.2807,0,39,39,112,1,113,drivegzik / drivegezik,"drivegzik, drivegezni",tek,NA,"János imád drivegezni, ezért sokat drivegzik.",Ti ritkán...,drivegzetek,drivegeztek,cselekszik,-zik,2,PR2038,2002,nő,nem,2022-04-18_13h59.41.621,hesp_baseline,2021.2.3,Win32,60.0240096
,,,,,,,,,,,,,,,,,dalencnál,dalencnél,left,4.4809,0,40,40,31,1,140,dalenc,dalenc,nál,e,Ez itt egy dalenc.,Nincs is jobb egy jó...,dalencnél,dalencnál,dzsungel,NA,NA,PR2038,2002,nő,nem,2022-04-18_13h59.41.621,hesp_baseline,2021.2.3,Win32,60.0240096
,,,,,,,,,,,,,,,,,ibékszem,ibékszek,left,8.7116,0,41,41,95,1,150,ibékszik,ibékszel,NA,NA,Te bizony sokat ibékszel.,Én is sokat...,ibékszek,ibékszem,lakik,-szik,2,PR2038,2002,nő,nem,2022-04-18_13h59.41.621,hesp_baseline,2021.2.3,Win32,60.0240096
,,,,,,,,,,,,,,,,,pijélnél,pijélnál,left,9.0981,0,42,42,3,1,112,pijél,pijél,nál,é,Ez itt egy pijél.,Nincs is jobb egy jó...,pijélnél,pijélnál,dzsungel,NA,NA,PR2038,2002,nő,nem,2022-04-18_13h59.41.621,hesp_baseline,2021.2.3,Win32,60.0240096
,,,,,,,,,,,,,,,,,murdesnél,murdesnál,right,10.7358,0,43,43,47,1,156,murdes,murdes,nál,e,Ez itt egy murdes.,Nincs is jobb egy jó...,murdesnél,murdesnál,dzsungel,NA,NA,PR2038,2002,nő,nem,2022-04-18_13h59.41.621,hesp_baseline,2021.2.3,Win32,60.0240096
,,,,,,,,,,,,,,,,,kábesznál,kábesznél,left,4.8233,0,44,44,44,1,153,kábesz,kábesz,nál,e,Ez itt egy kábesz.,Nincs is jobb egy jó...,kábesznél,kábesznál,dzsungel,NA,NA,PR2038,2002,nő,nem,2022-04-18_13h59.41.621,hesp_baseline,2021.2.3,Win32,60.0240096
,,,,,,,,,,,,,,,,,nágapszanak,nágapodnak,left,6.0087,0,45,45,152,1,153,nágapszik / nágapodik,"nágapszik, nágapodni",nek,NA,"János imád nágapodni, ezért sokat nágapszik.",Ők ritkán...,nágapszanak,nágapodnak,cselekszik,-szik,2,PR2038,2002,nő,nem,2022-04-18_13h59.41.621,hesp_baseline,2021.2.3,Win32,60.0240096
,,,,,,,,,,,,,,,,,tuboklom,tuboklok,right,4.658,0,46,46,84,1,139,tuboklik,tuboklasz,NA,NA,Te bizony sokat tuboklasz.,Én is sokat...,tuboklok,tuboklom,lakik,-lik,2,PR2038,2002,nő,nem,2022-04-18_13h59.41.621,hesp_baseline,2021.2.3,Win32,60.0240096
,,,,,,,,,,,,,,,,,gyibakszom,gyibakszok,right,7.8104,0,47,47,57,1,112,gyibakszik,gyibakszol,NA,NA,Te bizony sokat gyibakszol.,Én is sokat...,gyibakszok,gyibakszom,lakik,-szik,2,PR2038,2002,nő,nem,2022-04-18_13h59.41.621,hesp_baseline,2021.2.3,Win32,60.0240096
,,,,,,,,,,,,,,,,,táklom,táklok,right,2.793,0,48,48,79,1,134,táklik,táklasz,NA,NA,Te bizony sokat táklasz.,Én is sokat...,táklok,táklom,lakik,-lik,1,PR2038,2002,nő,nem,2022-04-18_13h59.41.621,hesp_baseline,2021.2.3,Win32,60.0240096
,,,,,,,,,,,,,,,,,vileslünk,vilesezünk,left,7.1573,0,49,49,139,1,140,vileslik / vilesezik,"vileslik, vilesezni",ünk,NA,"János imád vilesezni, ezért sokat vileslik.",Mi ritkán...,vileslünk,vilesezünk,cselekszik,-lik,2,PR2038,2002,nő,nem,2022-04-18_13h59.41.621,hesp_baseline,2021.2.3,Win32,60.0240096
,,,,,,,,,,,,,,,,,düjzök,düjzöm,left,6.6595,0,50,50,97,1,152,düjzik,düjzöl,NA,NA,Te bizony sokat düjzöl.,Én is sokat...,düjzök,düjzöm,lakik,-zik,1,PR2038,2002,nő,nem,2022-04-18_13h59.41.621,hesp_baseline,2021.2.3,Win32,60.0240096
,,,,,,,,,,,,,,,,,frivajlom,frivajlok,right,3.6775,0,51,51,78,1,133,frivajlik,frivajlasz,NA,NA,Te bizony sokat frivajlasz.,Én is sokat...,frivajlok,frivajlom,lakik,-lik,2,PR2038,2002,nő,nem,2022-04-18_13h59.41.621,hesp_baseline,2021.2.3,Win32,60.0240096
,,,,,,,,,,,,,,,,,dirlotok,diroztok,left,4.5469,0,52,52,148,1,149,dirlik / dirozik,"dirlik, dirozni",tek,NA,"János imád dirozni, ezért sokat dirlik.",Ti ritkán...,dirlotok,diroztok,cselekszik,-lik,1,PR2038,2002,nő,nem,2022-04-18_13h59.41.621,hesp_baseline,2021.2.3,Win32,60.0240096
,,,,,,,,,,,,,,,,,spülöklök,spülöklöm,left,7.727,0,53,53,56,1,111,spülöklik,spülöklesz,NA,NA,Te bizony sokat spülöklesz.,Én is sokat...,spülöklök,spülöklöm,lakik,-lik,2,PR2038,2002,nő,nem,2022-04-18_13h59.41.621,hesp_baseline,2021.2.3,Win32,60.0240096
,,,,,,,,,,,,,,,,,kátelnek,kátelnak,left,3.5058,0,54,54,12,1,121,kátel,kátel,nak,e,Ez itt egy kátel.,Elneveztem a kutyámat...,kátelnek,kátelnak,dzsungel,NA,NA,PR2038,2002,nő,nem,2022-04-18_13h59.41.621,hesp_baseline,2021.2.3,Win32,60.0240096
,,,,,,,,,,,,,,,,,finceknél,finceknál,left,4.6564,0,55,55,9,1,118,fincek,fincek,nál,e,Ez itt egy fincek.,Nincs is jobb egy jó...,finceknél,finceknál,dzsungel,NA,NA,PR2038,2002,nő,nem,2022-04-18_13h59.41.621,hesp_baseline,2021.2.3,Win32,60.0240096
,,,,,,,,,,,,,,,,,nyupérnál,nyupérnél,left,3.4549,0,56,56,52,1,161,nyupér,nyupér,nál,é,Ez itt egy nyupér.,Nincs is jobb egy jó...,nyupérnél,nyupérnál,dzsungel,NA,NA,PR2038,2002,nő,nem,2022-04-18_13h59.41.621,hesp_baseline,2021.2.3,Win32,60.0240096
,,,,,,,,,,,,,,,,,trűnyöznek,trűnylenek,right,5.2789,0,57,57,119,1,120,trűnylik / trűnyözik,"trűnylik, trűnyözni",nek,NA,"János imád trűnyözni, ezért sokat trűnylik.",Ők ritkán...,trűnylenek,trűnyöznek,cselekszik,-lik,1,PR2038,2002,nő,nem,2022-04-18_13h59.41.621,hesp_baseline,2021.2.3,Win32,60.0240096
,,,,,,,,,,,,,,,,,triképben,triképban,left,4.5321,0,58,58,33,1,142,trikép,trikép,ban,é,Ez itt egy trikép.,Ott vagyunk a...,triképben,triképban,dzsungel,NA,NA,PR2038,2002,nő,nem,2022-04-18_13h59.41.621,hesp_baseline,2021.2.3,Win32,60.0240096
,,,,,,,,,,,,,,,,,brürzenek,brüröznek,left,12.3308,0,59,59,110,1,111,brürzik / brürözik,"brürzik, brürözni",nek,NA,"János imád brürözni, ezért sokat brürzik.",Ők ritkán...,brürzenek,brüröznek,cselekszik,-zik,1,PR2038,2002,nő,nem,2022-04-18_13h59.41.621,hesp_baseline,2021.2.3,Win32,60.0240096
,,,,,,,,,,,,,,,,,spatelnak,spatelnek,left,4.1388,0,60,60,21,1,130,spatel,spatel,nak,e,Ez itt egy spatel.,Elneveztem a kutyámat...,spatelnek,spatelnak,dzsungel,NA,NA,PR2038,2002,nő,nem,2022-04-18_13h59.41.621,hesp_baseline,2021.2.3,Win32,60.0240096
,,,,,,,,,,,,,,,,,lismévben,lismévban,left,3.7718,0,61,61,0,1,109,lismév,lismév,ban,é,Ez itt egy lismév.,Ott vagyunk a...,lismévben,lismévban,dzsungel,NA,NA,PR2038,2002,nő,nem,2022-04-18_13h59.41.621,hesp_baseline,2021.2.3,Win32,60.0240096
,,,,,,,,,,,,,,,,,hűgzök,hűgzöm,left,6.9236,0,62,62,107,1,162,hűgzik,hűgzöl,NA,NA,Te bizony sokat hűgzöl.,Én is sokat...,hűgzök,hűgzöm,lakik,-zik,1,PR2038,2002,nő,nem,2022-04-18_13h59.41.621,hesp_baseline,2021.2.3,Win32,60.0240096
,,,,,,,,,,,,,,,,,szihétnek,szihétnak,left,4.5893,0,63,63,4,1,113,szihét,szihét,nak,é,Ez itt egy szihét.,Elneveztem a kutyámat...,szihétnek,szihétnak,dzsungel,NA,NA,PR2038,2002,nő,nem,2022-04-18_13h59.41.621,hesp_baseline,2021.2.3,Win32,60.0240096
,,,,,,,,,,,,,,,,,szutendben,szutendban,right,3.9053,0,64,64,11,1,120,szutend,szutend,ban,e,Ez itt egy szutend.,Ott vagyunk a...,szutendben,szutendban,dzsungel,NA,NA,PR2038,2002,nő,nem,2022-04-18_13h59.41.621,hesp_baseline,2021.2.3,Win32,60.0240096
,,,,,,,,,,,,,,,,,drubódzok,drubódzom,left,4.7565,0,65,65,63,1,118,drubódzik,drubódzol,NA,NA,Te bizony sokat drubódzol.,Én is sokat...,drubódzok,drubódzom,lakik,-zik,2,PR2038,2002,nő,nem,2022-04-18_13h59.41.621,hesp_baseline,2021.2.3,Win32,60.0240096
,,,,,,,,,,,,,,,,,mágamozunk,mágamlunk,right,6.634,0,66,66,140,1,141,mágamlik / mágamozik,"mágamlik, mágamozni",ünk,NA,"János imád mágamozni, ezért sokat mágamlik.",Mi ritkán...,mágamlunk,mágamozunk,cselekszik,-lik,2,PR2038,2002,nő,nem,2022-04-18_13h59.41.621,hesp_baseline,2021.2.3,Win32,60.0240096
,,,,,,,,,,,,,,,,,zsádévnak,zsádévnek,left,4.6926,0,67,67,20,1,129,zsádév,zsádév,nak,é,Ez itt egy zsádév.,Elneveztem a kutyámat...,zsádévnek,zsádévnak,dzsungel,NA,NA,PR2038,2002,nő,nem,2022-04-18_13h59.41.621,hesp_baseline,2021.2.3,Win32,60.0240096
,,,,,,,,,,,,,,,,,bivejlek,bivejlem,left,4.8487,0,68,68,73,1,128,bivejlik,bivejlesz,NA,NA,Te bizony sokat bivejlesz.,Én is sokat...,bivejlek,bivejlem,lakik,-lik,2,PR2038,2002,nő,nem,2022-04-18_13h59.41.621,hesp_baseline,2021.2.3,Win32,60.0240096
,,,,,,,,,,,,,,,,,brüjlöm,brüjlök,right,2.858,0,69,69,55,1,110,brüjlik,brüjlesz,NA,NA,Te bizony sokat brüjlesz.,Én is sokat...,brüjlök,brüjlöm,lakik,-lik,1,PR2038,2002,nő,nem,2022-04-18_13h59.41.621,hesp_baseline,2021.2.3,Win32,60.0240096
,,,,,,,,,,,,,,,,,bupézben,bupézban,right,4.5305,0,70,70,48,1,157,bupéz,bupéz,ban,é,Ez itt egy bupéz.,Ott vagyunk a...,bupézben,bupézban,dzsungel,NA,NA,PR2038,2002,nő,nem,2022-04-18_13h59.41.621,hesp_baseline,2021.2.3,Win32,60.0240096
,,,,,,,,,,,,,,,,,trapszegynél,trapszegynál,right,7.5753,0,71,71,39,1,148,trapszegy,trapszegy,nál,e,Ez itt egy trapszegy.,Nincs is jobb egy jó...,trapszegynél,trapszegynál,dzsungel,NA,NA,PR2038,2002,nő,nem,2022-04-18_13h59.41.621,hesp_baseline,2021.2.3,Win32,60.0240096
,,,,,,,,,,,,,,,,,nyáslok,nyáslom,left,3.6524,0,72,72,100,1,155,nyáslik,nyáslasz,NA,NA,Te bizony sokat nyáslasz.,Én is sokat...,nyáslok,nyáslom,lakik,-lik,1,PR2038,2002,nő,nem,2022-04-18_13h59.41.621,hesp_baseline,2021.2.3,Win32,60.0240096
,,,,,,,,,,,,,,,,,sartelyben,sartelyban,left,4.9734,0,73,73,40,1,149,sartely,sartely,ban,e,Ez itt egy sartely.,Ott vagyunk a...,sartelyben,sartelyban,dzsungel,NA,NA,PR2038,2002,nő,nem,2022-04-18_13h59.41.621,hesp_baseline,2021.2.3,Win32,60.0240096
,,,,,,,,,,,,,,,,,sztrijzok,sztrijzom,left,4.7374,0,74,74,68,1,123,sztrijzik,sztrijzol,NA,NA,Te bizony sokat sztrijzol.,Én is sokat...,sztrijzok,sztrijzom,lakik,-zik,1,PR2038,2002,nő,nem,2022-04-18_13h59.41.621,hesp_baseline,2021.2.3,Win32,60.0240096
,,,,,,,,,,,,,,,,,huméknek,huméknak,right,4.6661,0,75,75,23,1,132,humék,humék,nak,é,Ez itt egy humék.,Elneveztem a kutyámat...,huméknek,huméknak,dzsungel,NA,NA,PR2038,2002,nő,nem,2022-04-18_13h59.41.621,hesp_baseline,2021.2.3,Win32,60.0240096
,,,,,,,,,,,,,,,,,trikoztok,triklotok,right,4.5902,0,76,76,160,1,161,triklik / trikozik,"triklik, trikozni",tek,NA,"János imád trikozni, ezért sokat triklik.",Ti ritkán...,triklotok,trikoztok,cselekszik,-lik,1,PR2038,2002,nő,nem,2022-04-18_13h59.41.621,hesp_baseline,2021.2.3,Win32,60.0240096
,,,,,,,,,,,,,,,,,klibamlok,klibamlom,left,5.1277,0,77,77,92,1,147,klibamlik,klibamlasz,NA,NA,Te bizony sokat klibamlasz.,Én is sokat...,klibamlok,klibamlom,lakik,-lik,2,PR2038,2002,nő,nem,2022-04-18_13h59.41.621,hesp_baseline,2021.2.3,Win32,60.0240096
,,,,,,,,,,,,,,,,,zsáderben,zsáderban,left,3.604,0,78,78,25,1,134,zsáder,zsáder,ban,e,Ez itt egy zsáder.,Ott vagyunk a...,zsáderben,zsáderban,dzsungel,NA,NA,PR2038,2002,nő,nem,2022-04-18_13h59.41.621,hesp_baseline,2021.2.3,Win32,60.0240096
,,,,,,,,,,,,,,,,,surnegynál,surnegynél,right,2.729,0,79,79,8,1,117,surnegy,surnegy,nál,e,Ez itt egy surnegy.,Nincs is jobb egy jó...,surnegynél,surnegynál,dzsungel,NA,NA,PR2038,2002,nő,nem,2022-04-18_13h59.41.621,hesp_baseline,2021.2.3,Win32,60.0240096
,,,,,,,,,,,,,,,,,mékszek,mékszem,left,3.9052,0,80,80,71,1,126,mékszik,mékszel,NA,NA,Te bizony sokat mékszel.,Én is sokat...,mékszek,mékszem,lakik,-szik,1,PR2038,2002,nő,nem,2022-04-18_13h59.41.621,hesp_baseline,2021.2.3,Win32,60.0240096
,,,,,,,,,,,,,,,,,rájzom,rájzok,right,5.8499,0,81,81,70,1,125,rájzik,rájzol,NA,NA,Te bizony sokat rájzol.,Én is sokat...,rájzok,rájzom,lakik,-zik,1,PR2038,2002,nő,nem,2022-04-18_13h59.41.621,hesp_baseline,2021.2.3,Win32,60.0240096
,,,,,,,,,,,,,,,,,pragányoztok,pragánylotok,right,4.0461,0,82,82,133,1,134,pragánylik / pragányozik,"pragánylik, pragányozni",tek,NA,"János imád pragányozni, ezért sokat pragánylik.",Ti ritkán...,pragánylotok,pragányoztok,cselekszik,-lik,2,PR2038,2002,nő,nem,2022-04-18_13h59.41.621,hesp_baseline,2021.2.3,Win32,60.0240096
,,,,,,,,,,,,,,,,,narjárzok,narjárzom,left,7.2266,0,83,83,61,1,116,narjárzik,narjárzol,NA,NA,Te bizony sokat narjárzol.,Én is sokat...,narjárzok,narjárzom,lakik,-zik,2,PR2038,2002,nő,nem,2022-04-18_13h59.41.621,hesp_baseline,2021.2.3,Win32,60.0240096
,,,,,,,,,,,,,,,,,vűjlök,vűjlöm,left,4.5968,0,84,84,94,1,149,vűjlik,vűjlesz,NA,NA,Te bizony sokat vűjlesz.,Én is sokat...,vűjlök,vűjlöm,lakik,-lik,1,PR2038,2002,nő,nem,2022-04-18_13h59.41.621,hesp_baseline,2021.2.3,Win32,60.0240096
,,,,,,,,,,,,,,,,,klivaslok,klivaslom,left,6.4085,0,85,85,62,1,117,klivaslik,klivaslasz,NA,NA,Te bizony sokat klivaslasz.,Én is sokat...,klivaslok,klivaslom,lakik,-lik,2,PR2038,2002,nő,nem,2022-04-18_13h59.41.621,hesp_baseline,2021.2.3,Win32,60.0240096
,,,,,,,,,,,,,,,,,féjzem,féjzek,left,4.6753,0,86,86,91,1,146,féjzik,féjzel,NA,NA,Te bizony sokat féjzel.,Én is sokat...,féjzek,féjzem,lakik,-zik,1,PR2038,2002,nő,nem,2022-04-18_13h59.41.621,hesp_baseline,2021.2.3,Win32,60.0240096
,,,,,,,,,,,,,,,,,pibegeznek,pibegzenek,right,6.8636,0,87,87,127,1,128,pibegzik / pibegezik,"pibegzik, pibegezni",nek,NA,"János imád pibegezni, ezért sokat pibegzik.",Ők ritkán...,pibegzenek,pibegeznek,cselekszik,-zik,2,PR2038,2002,nő,nem,2022-04-18_13h59.41.621,hesp_baseline,2021.2.3,Win32,60.0240096
,,,,,,,,,,,,,,,,,nivároztok,nivárzotok,right,4.9732,0,88,88,146,1,147,nivárzik / nivározik,"nivárzik, nivározni",tek,NA,"János imád nivározni, ezért sokat nivárzik.",Ti ritkán...,nivárzotok,nivároztok,cselekszik,-zik,2,PR2038,2002,nő,nem,2022-04-18_13h59.41.621,hesp_baseline,2021.2.3,Win32,60.0240096
,,,,,,,,,,,,,,,,,lumlotok,lumoztok,left,3.6737,0,89,89,149,1,150,lumlik / lumozik,"lumlik, lumozni",tek,NA,"János imád lumozni, ezért sokat lumlik.",Ti ritkán...,lumlotok,lumoztok,cselekszik,-lik,1,PR2038,2002,nő,nem,2022-04-18_13h59.41.621,hesp_baseline,2021.2.3,Win32,60.0240096
,,,,,,,,,,,,,,,,,spalárzanak,spalároznak,left,9.6621,0,90,90,137,1,138,spalárzik / spalározik,"spalárzik, spalározni",nek,NA,"János imád spalározni, ezért sokat spalárzik.",Ők ritkán...,spalárzanak,spalároznak,cselekszik,-zik,2,PR2038,2002,nő,nem,2022-04-18_13h59.41.621,hesp_baseline,2021.2.3,Win32,60.0240096
,,,,,,,,,,,,,,,,,zinednek,zinednak,left,2.6133,0,91,91,22,1,131,zined,zined,nak,e,Ez itt egy zined.,Elneveztem a kutyámat...,zinednek,zinednak,dzsungel,NA,NA,PR2038,2002,nő,nem,2022-04-18_13h59.41.621,hesp_baseline,2021.2.3,Win32,60.0240096
,,,,,,,,,,,,,,,,,spuboroznak,spuborzanak,right,4.6486,0,92,92,161,1,162,spuborzik / spuborozik,"spuborzik, spuborozni",nek,NA,"János imád spuborozni, ezért sokat spuborzik.",Ők ritkán...,spuborzanak,spuboroznak,cselekszik,-zik,2,PR2038,2002,nő,nem,2022-04-18_13h59.41.621,hesp_baseline,2021.2.3,Win32,60.0240096
,,,,,,,,,,,,,,,,,gótemnek,gótemnak,left,2.8982,0,93,93,35,1,144,gótem,gótem,nak,e,Ez itt egy gótem.,Elneveztem a kutyámat...,gótemnek,gótemnak,dzsungel,NA,NA,PR2038,2002,nő,nem,2022-04-18_13h59.41.621,hesp_baseline,2021.2.3,Win32,60.0240096
,,,,,,,,,,,,,,,,,bidemben,bidemban,left,4.3717,0,94,94,2,1,111,bidem,bidem,ban,e,Ez itt egy bidem.,Ott vagyunk a...,bidemben,bidemban,dzsungel,NA,NA,PR2038,2002,nő,nem,2022-04-18_13h59.41.621,hesp_baseline,2021.2.3,Win32,60.0240096
,,,,,,,,,,,,,,,,,danétnál,danétnél,left,2.7298,0,95,95,38,1,147,danét,danét,nál,é,Ez itt egy danét.,Nincs is jobb egy jó...,danétnél,danétnál,dzsungel,NA,NA,PR2038,2002,nő,nem,2022-04-18_13h59.41.621,hesp_baseline,2021.2.3,Win32,60.0240096
,,,,,,,,,,,,,,,,,spírzok,spírzom,left,3.6275,0,96,96,64,1,119,spírzik,spírzol,NA,NA,Te bizony sokat spírzol.,Én is sokat...,spírzok,spírzom,lakik,-zik,1,PR2038,2002,nő,nem,2022-04-18_13h59.41.621,hesp_baseline,2021.2.3,Win32,60.0240096
,,,,,,,,,,,,,,,,,jurdentnál,jurdentnél,left,4.6824,0,97,97,16,1,125,jurdent,jurdent,nál,e,Ez itt egy jurdent.,Nincs is jobb egy jó...,jurdentnél,jurdentnál,dzsungel,NA,NA,PR2038,2002,nő,nem,2022-04-18_13h59.41.621,hesp_baseline,2021.2.3,Win32,60.0240096
,,,,,,,,,,,,,,,,,sztrűkszöm,sztrűkszök,right,4.5221,0,98,98,77,1,132,sztrűkszik,sztrűkszöl,NA,NA,Te bizony sokat sztrűkszöl.,Én is sokat...,sztrűkszök,sztrűkszöm,lakik,-szik,1,PR2038,2002,nő,nem,2022-04-18_13h59.41.621,hesp_baseline,2021.2.3,Win32,60.0240096
,,,,,,,,,,,,,,,,,plágadzok,plágadzom,right,4.8733,0,99,99,74,1,129,plágadzik,plágadzol,NA,NA,Te bizony sokat plágadzol.,Én is sokat...,plágadzok,plágadzom,lakik,-zik,2,PR2038,2002,nő,nem,2022-04-18_13h59.41.621,hesp_baseline,2021.2.3,Win32,60.0240096
,,,,,,,,,,,,,,,,,spuménynek,spuménynak,right,5.2317,0,100,100,19,1,128,spumény,spumény,nak,é,Ez itt egy spumény.,Elneveztem a kutyámat...,spuménynek,spuménynak,dzsungel,NA,NA,PR2038,2002,nő,nem,2022-04-18_13h59.41.621,hesp_baseline,2021.2.3,Win32,60.0240096
,,,,,,,,,,,,,,,,,frálapszotok,frálapodtok,left,7.243,0,101,101,150,1,151,frálapszik / frálapodik,"frálapszik, frálapodni",tek,NA,"János imád frálapodni, ezért sokat frálapszik.",Ti ritkán...,frálapszotok,frálapodtok,cselekszik,-szik,2,PR2038,2002,nő,nem,2022-04-18_13h59.41.621,hesp_baseline,2021.2.3,Win32,60.0240096
,,,,,,,,,,,,,,,,,mülőrzünk,mülőrözünk,left,7.0428,0,102,102,120,1,121,mülőrzik / mülőrözik,"mülőrzik, mülőrözni",ünk,NA,"János imád mülőrözni, ezért sokat mülőrzik.",Mi ritkán...,mülőrzünk,mülőrözünk,cselekszik,-zik,2,PR2038,2002,nő,nem,2022-04-18_13h59.41.621,hesp_baseline,2021.2.3,Win32,60.0240096
,,,,,,,,,,,,,,,,,gibemlünk,gibemezünk,left,4.9899,0,103,103,115,1,116,gibemlik / gibemezik,"gibemlik, gibemezni",ünk,NA,"János imád gibemezni, ezért sokat gibemlik.",Mi ritkán...,gibemlünk,gibemezünk,cselekszik,-lik,2,PR2038,2002,nő,nem,2022-04-18_13h59.41.621,hesp_baseline,2021.2.3,Win32,60.0240096
,,,,,,,,,,,,,,,,,prezlem,prezlek,right,10.7296,0,104,104,87,1,142,prezlik,prezlesz,NA,NA,Te bizony sokat prezlesz.,Én is sokat...,prezlek,prezlem,lakik,-lik,1,PR2038,2002,nő,nem,2022-04-18_13h59.41.621,hesp_baseline,2021.2.3,Win32,60.0240096
,,,,,,,,,,,,,,,,,licegyben,licegyban,left,2.7719,0,105,105,15,1,124,licegy,licegy,ban,e,Ez itt egy licegy.,Ott vagyunk a...,licegyben,licegyban,dzsungel,NA,NA,PR2038,2002,nő,nem,2022-04-18_13h59.41.621,hesp_baseline,2021.2.3,Win32,60.0240096
,,,,,,,,,,,,,,,,,tűgöztök,tűgzötök,right,7.9761,0,106,106,143,1,144,tűgzik / tűgözik,"tűgzik, tűgözni",tek,NA,"János imád tűgözni, ezért sokat tűgzik.",Ti ritkán...,tűgzötök,tűgöztök,cselekszik,-zik,1,PR2038,2002,nő,nem,2022-04-18_13h59.41.621,hesp_baseline,2021.2.3,Win32,60.0240096
,,,,,,,,,,,,,,,,,spanélnál,spanélnél,left,3.7054,0,107,107,24,1,133,spanél,spanél,nál,é,Ez itt egy spanél.,Nincs is jobb egy jó...,spanélnél,spanélnál,dzsungel,NA,NA,PR2038,2002,nő,nem,2022-04-18_13h59.41.621,hesp_baseline,2021.2.3,Win32,60.0240096
,,,,,,,,,,,,,,,,,sprivencnél,sprivencnál,left,4.0225,0,108,108,13,1,122,sprivenc,sprivenc,nál,e,Ez itt egy sprivenc.,Nincs is jobb egy jó...,sprivencnél,sprivencnál,dzsungel,NA,NA,PR2038,2002,nő,nem,2022-04-18_13h59.41.621,hesp_baseline,2021.2.3,Win32,60.0240096
,,,,,,,,,,,,,,,,,pristélban,pristélben,right,3.3798,0,109,109,1,1,110,pristél,pristél,ban,é,Ez itt egy pristél.,Ott vagyunk a...,pristélben,pristélban,dzsungel,NA,NA,PR2038,2002,nő,nem,2022-04-18_13h59.41.621,hesp_baseline,2021.2.3,Win32,60.0240096
,,,,,,,,,,,,,,,,,lájzotok,lájoztok,left,5.8351,0,110,110,159,1,160,lájzik / lájozik,"lájzik, lájozni",tek,NA,"János imád lájozni, ezért sokat lájzik.",Ti ritkán...,lájzotok,lájoztok,cselekszik,-zik,1,PR2038,2002,nő,nem,2022-04-18_13h59.41.621,hesp_baseline,2021.2.3,Win32,60.0240096
,,,,,,,,,,,,,,,,,sűjözünk,sűjlünk,right,4.8229,0,111,111,128,1,129,sűjlik / sűjözik,"sűjlik, sűjözni",ünk,NA,"János imád sűjözni, ezért sokat sűjlik.",Mi ritkán...,sűjlünk,sűjözünk,cselekszik,-lik,1,PR2038,2002,nő,nem,2022-04-18_13h59.41.621,hesp_baseline,2021.2.3,Win32,60.0240096
,,,,,,,,,,,,,,,,,drilarozunk,drilarzunk,right,8.403,0,112,112,131,1,132,drilarzik / drilarozik,"drilarzik, drilarozni",ünk,NA,"János imád drilarozni, ezért sokat drilarzik.",Mi ritkán...,drilarzunk,drilarozunk,cselekszik,-zik,2,PR2038,2002,nő,nem,2022-04-18_13h59.41.621,hesp_baseline,2021.2.3,Win32,60.0240096
,,,,,,,,,,,,,,,,,klarágzotok,klarágoztok,left,12.1813,0,113,113,114,1,115,klarágzik / klarágozik,"klarágzik, klarágozni",tek,NA,"János imád klarágozni, ezért sokat klarágzik.",Ti ritkán...,klarágzotok,klarágoztok,cselekszik,-zik,2,PR2038,2002,nő,nem,2022-04-18_13h59.41.621,hesp_baseline,2021.2.3,Win32,60.0240096
,,,,,,,,,,,,,,,,,trivakodunk,trivakszunk,right,3.339,0,114,114,118,1,119,trivakszik / trivakodik,"trivakszik, trivakodni",ünk,NA,"János imád trivakodni, ezért sokat trivakszik.",Mi ritkán...,trivakszunk,trivakodunk,cselekszik,-szik,2,PR2038,2002,nő,nem,2022-04-18_13h59.41.621,hesp_baseline,2021.2.3,Win32,60.0240096
,,,,,,,,,,,,,,,,,trincsegban,trincsegben,right,3.3215,0,115,115,46,1,155,trincseg,trincseg,ban,e,Ez itt egy trincseg.,Ott vagyunk a...,trincsegben,trincsegban,dzsungel,NA,NA,PR2038,2002,nő,nem,2022-04-18_13h59.41.621,hesp_baseline,2021.2.3,Win32,60.0240096
,,,,,,,,,,,,,,,,,sűzlöm,sűzlök,right,5.7585,0,116,116,54,1,109,sűzlik,sűzlesz,NA,NA,Te bizony sokat sűzlesz.,Én is sokat...,sűzlök,sűzlöm,lakik,-lik,1,PR2038,2002,nő,nem,2022-04-18_13h59.41.621,hesp_baseline,2021.2.3,Win32,60.0240096
,,,,,,,,,,,,,,,,,pehégszetek,pehégedtek,left,5.2795,0,117,117,151,1,152,pehégszik / pehégedik,"pehégszik, pehégedni",tek,NA,"János imád pehégedni, ezért sokat pehégszik.",Ti ritkán...,pehégszetek,pehégedtek,cselekszik,-szik,2,PR2038,2002,nő,nem,2022-04-18_13h59.41.621,hesp_baseline,2021.2.3,Win32,60.0240096
,,,,,,,,,,,,,,,,,pazévnál,pazévnél,left,4.9334,0,118,118,36,1,145,pazév,pazév,nál,é,Ez itt egy pazév.,Nincs is jobb egy jó...,pazévnél,pazévnál,dzsungel,NA,NA,PR2038,2002,nő,nem,2022-04-18_13h59.41.621,hesp_baseline,2021.2.3,Win32,60.0240096
,,,,,,,,,,,,,,,,,brárlanak,brároznak,left,5.5404,0,119,119,126,1,127,brárlik / brározik,"brárlik, brározni",nek,NA,"János imád brározni, ezért sokat brárlik.",Ők ritkán...,brárlanak,brároznak,cselekszik,-lik,1,PR2038,2002,nő,nem,2022-04-18_13h59.41.621,hesp_baseline,2021.2.3,Win32,60.0240096
,,,,,,,,,,,,,,,,,nyítemben,nyítemban,left,2.887,0,120,120,41,1,150,nyítem,nyítem,ban,e,Ez itt egy nyítem.,Ott vagyunk a...,nyítemben,nyítemban,dzsungel,NA,NA,PR2038,2002,nő,nem,2022-04-18_13h59.41.621,hesp_baseline,2021.2.3,Win32,60.0240096
,,,,,,,,,,,,,,,,,braszencnél,braszencnál,left,4.7306,0,121,121,7,1,116,braszenc,braszenc,nál,e,Ez itt egy braszenc.,Nincs is jobb egy jó...,braszencnél,braszencnál,dzsungel,NA,NA,PR2038,2002,nő,nem,2022-04-18_13h59.41.621,hesp_baseline,2021.2.3,Win32,60.0240096
,,,,,,,,,,,,,,,,,trádlom,trádlok,right,3.2046,0,122,122,105,1,160,trádlik,trádlasz,NA,NA,Te bizony sokat trádlasz.,Én is sokat...,trádlok,trádlom,lakik,-lik,1,PR2038,2002,nő,nem,2022-04-18_13h59.41.621,hesp_baseline,2021.2.3,Win32,60.0240096
,,,,,,,,,,,,,,,,,spiráglotok,spirágoztok,left,5.1722,0,123,123,135,1,136,spiráglik / spirágozik,"spiráglik, spirágozni",tek,NA,"János imád spirágozni, ezért sokat spiráglik.",Ti ritkán...,spiráglotok,spirágoztok,cselekszik,-lik,2,PR2038,2002,nő,nem,2022-04-18_13h59.41.621,hesp_baseline,2021.2.3,Win32,60.0240096
,,,,,,,,,,,,,,,,,brotesben,brotesban,right,3.6558,0,124,124,53,1,162,brotes,brotes,ban,e,Ez itt egy brotes.,Ott vagyunk a...,brotesben,brotesban,dzsungel,NA,NA,PR2038,2002,nő,nem,2022-04-18_13h59.41.621,hesp_baseline,2021.2.3,Win32,60.0240096
,,,,,,,,,,,,,,,,,dorzéjnak,dorzéjnek,left,4.0059,0,125,125,29,1,138,dorzéj,dorzéj,nak,é,Ez itt egy dorzéj.,Elneveztem a kutyámat...,dorzéjnek,dorzéjnak,dzsungel,NA,NA,PR2038,2002,nő,nem,2022-04-18_13h59.41.621,hesp_baseline,2021.2.3,Win32,60.0240096
,,,,,,,,,,,,,,,,,filánylunk,filányozunk,left,4.3726,0,126,126,134,1,135,filánylik / filányozik,"filánylik, filányozni",ünk,NA,"János imád filányozni, ezért sokat filánylik.",Mi ritkán...,filánylunk,filányozunk,cselekszik,-lik,2,PR2038,2002,nő,nem,2022-04-18_13h59.41.621,hesp_baseline,2021.2.3,Win32,60.0240096
,,,,,,,,,,,,,,,,,dibezban,dibezben,right,2.7442,0,127,127,27,1,136,dibez,dibez,ban,e,Ez itt egy dibez.,Ott vagyunk a...,dibezben,dibezban,dzsungel,NA,NA,PR2038,2002,nő,nem,2022-04-18_13h59.41.621,hesp_baseline,2021.2.3,Win32,60.0240096
,,,,,,,,,,,,,,,,,kláragszotok,kláragodtok,left,3.3447,0,128,128,123,1,124,kláragszik / kláragodik,"kláragszik, kláragodni",tek,NA,"János imád kláragodni, ezért sokat kláragszik.",Ti ritkán...,kláragszotok,kláragodtok,cselekszik,-szik,2,PR2038,2002,nő,nem,2022-04-18_13h59.41.621,hesp_baseline,2021.2.3,Win32,60.0240096
,,,,,,,,,,,,,,,,,lűköznek,lűklenek,right,3.6825,0,129,129,136,1,137,lűklik / lűközik,"lűklik, lűközni",nek,NA,"János imád lűközni, ezért sokat lűklik.",Ők ritkán...,lűklenek,lűköznek,cselekszik,-lik,1,PR2038,2002,nő,nem,2022-04-18_13h59.41.621,hesp_baseline,2021.2.3,Win32,60.0240096
,,,,,,,,,,,,,,,,,csodegnál,csodegnél,left,4.9406,0,130,130,28,1,137,csodeg,csodeg,nál,e,Ez itt egy csodeg.,Nincs is jobb egy jó...,csodegnél,csodegnál,dzsungel,NA,NA,PR2038,2002,nő,nem,2022-04-18_13h59.41.621,hesp_baseline,2021.2.3,Win32,60.0240096
,,,,,,,,,,,,,,,,,trismélnek,trismélnak,left,3.3464,0,131,131,5,1,114,trismél,trismél,nak,é,Ez itt egy trismél.,Elneveztem a kutyámat...,trismélnek,trismélnak,dzsungel,NA,NA,PR2038,2002,nő,nem,2022-04-18_13h59.41.621,hesp_baseline,2021.2.3,Win32,60.0240096
,,,,,,,,,,,,,,,,,brálamoznak,brálamlanak,right,4.1944,0,132,132,144,1,145,brálamlik / brálamozik,"brálamlik, brálamozni",nek,NA,"János imád brálamozni, ezért sokat brálamlik.",Ők ritkán...,brálamlanak,brálamoznak,cselekszik,-lik,2,PR2038,2002,nő,nem,2022-04-18_13h59.41.621,hesp_baseline,2021.2.3,Win32,60.0240096
,,,,,,,,,,,,,,,,,döjlenek,döjöznek,left,3.1399,0,133,133,129,1,130,döjlik / döjözik,"döjlik, döjözni",nek,NA,"János imád döjözni, ezért sokat döjlik.",Ők ritkán...,döjlenek,döjöznek,cselekszik,-lik,1,PR2038,2002,nő,nem,2022-04-18_13h59.41.621,hesp_baseline,2021.2.3,Win32,60.0240096
,,,,,,,,,,,,,,,,,sprozlanak,sprozoznak,left,3.805,0,134,134,147,1,148,sprozlik / sprozozik,"sprozlik, sprozozni",nek,NA,"János imád sprozozni, ezért sokat sprozlik.",Ők ritkán...,sprozlanak,sprozoznak,cselekszik,-lik,1,PR2038,2002,nő,nem,2022-04-18_13h59.41.621,hesp_baseline,2021.2.3,Win32,60.0240096
,,,,,,,,,,,,,,,,,dralágozunk,dralágzunk,right,4.3803,0,135,135,156,1,157,dralágzik / dralágozik,"dralágzik, dralágozni",ünk,NA,"János imád dralágozni, ezért sokat dralágzik.",Mi ritkán...,dralágzunk,dralágozunk,cselekszik,-zik,2,PR2038,2002,nő,nem,2022-04-18_13h59.41.621,hesp_baseline,2021.2.3,Win32,60.0240096
,,,,,,,,,,,,,,,,,fretszek,fretszem,left,4.6732,0,136,136,66,1,121,fretszik,fretszel,NA,NA,Te bizony sokat fretszel.,Én is sokat...,fretszek,fretszem,lakik,-szik,1,PR2038,2002,nő,nem,2022-04-18_13h59.41.621,hesp_baseline,2021.2.3,Win32,60.0240096
,,,,,,,,,,,,,,,,,pribagszok,pribagszom,left,6.2574,0,137,137,76,1,131,pribagszik,pribagszol,NA,NA,Te bizony sokat pribagszol.,Én is sokat...,pribagszok,pribagszom,lakik,-szik,2,PR2038,2002,nő,nem,2022-04-18_13h59.41.621,hesp_baseline,2021.2.3,Win32,60.0240096
,,,,,,,,,,,,,,,,,trálakoznak,trálaklanak,right,5.7424,0,138,138,116,1,117,trálaklik / trálakozik,"trálaklik, trálakozni",nek,NA,"János imád trálakozni, ezért sokat trálaklik.",Ők ritkán...,trálaklanak,trálakoznak,cselekszik,-lik,2,PR2038,2002,nő,nem,2022-04-18_13h59.41.621,hesp_baseline,2021.2.3,Win32,60.0240096
,,,,,,,,,,,,,,,,,bródesznak,bródesznek,right,3.0378,0,139,139,32,1,141,bródesz,bródesz,nak,e,Ez itt egy bródesz.,Elneveztem a kutyámat...,bródesznek,bródesznak,dzsungel,NA,NA,PR2038,2002,nő,nem,2022-04-18_13h59.41.621,hesp_baseline,2021.2.3,Win32,60.0240096
,,,,,,,,,,,,,,,,,spibamoznak,spibamlanak,right,4.0284,0,140,140,142,1,143,spibamlik / spibamozik,"spibamlik, spibamozni",nek,NA,"János imád spibamozni, ezért sokat spibamlik.",Ők ritkán...,spibamlanak,spibamoznak,cselekszik,-lik,2,PR2038,2002,nő,nem,2022-04-18_13h59.41.621,hesp_baseline,2021.2.3,Win32,60.0240096
,,,,,,,,,,,,,,,,,zatéjnál,zatéjnél,left,4.1711,0,141,141,34,1,143,zatéj,zatéj,nál,é,Ez itt egy zatéj.,Nincs is jobb egy jó...,zatéjnél,zatéjnál,dzsungel,NA,NA,PR2038,2002,nő,nem,2022-04-18_13h59.41.621,hesp_baseline,2021.2.3,Win32,60.0240096
,,,,,,,,,,,,,,,,,flátoztok,flátlotok,right,8.1439,0,142,142,132,1,133,flátlik / flátozik,"flátlik, flátozni",tek,NA,"János imád flátozni, ezért sokat flátlik.",Ti ritkán...,flátlotok,flátoztok,cselekszik,-lik,1,PR2038,2002,nő,nem,2022-04-18_13h59.41.621,hesp_baseline,2021.2.3,Win32,60.0240096
,,,,,,,,,,,,,,,,,kléglünk,klégezünk,left,7.552,0,143,143,122,1,123,kléglik / klégezik,"kléglik, klégezni",ünk,NA,"János imád klégezni, ezért sokat kléglik.",Mi ritkán...,kléglünk,klégezünk,cselekszik,-lik,1,PR2038,2002,nő,nem,2022-04-18_13h59.41.621,hesp_baseline,2021.2.3,Win32,60.0240096
,,,,,,,,,,,,,,,,,trehégszek,trehégszem,right,4.2423,0,144,144,86,1,141,trehégszik,trehégszel,NA,NA,Te bizony sokat trehégszel.,Én is sokat...,trehégszek,trehégszem,lakik,-szik,2,PR2038,2002,nő,nem,2022-04-18_13h59.41.621,hesp_baseline,2021.2.3,Win32,60.0240096
,,,,,,,,,,,,,,,,,vehékszünk,vehékedünk,left,4.0731,0,145,145,117,1,118,vehékszik / vehékedik,"vehékszik, vehékedni",ünk,NA,"János imád vehékedni, ezért sokat vehékszik.",Mi ritkán...,vehékszünk,vehékedünk,cselekszik,-szik,2,PR2038,2002,nő,nem,2022-04-18_13h59.41.621,hesp_baseline,2021.2.3,Win32,60.0240096
,,,,,,,,,,,,,,,,,spüszlöm,spüszlök,right,3.1093,0,146,146,96,1,151,spüszlik,spüszlesz,NA,NA,Te bizony sokat spüszlesz.,Én is sokat...,spüszlök,spüszlöm,lakik,-lik,1,PR2038,2002,nő,nem,2022-04-18_13h59.41.621,hesp_baseline,2021.2.3,Win32,60.0240096
,,,,,,,,,,,,,,,,,klétszem,klétszek,right,6.7297,0,147,147,60,1,115,klétszik,klétszel,NA,NA,Te bizony sokat klétszel.,Én is sokat...,klétszek,klétszem,lakik,-szik,1,PR2038,2002,nő,nem,2022-04-18_13h59.41.621,hesp_baseline,2021.2.3,Win32,60.0240096
,,,,,,,,,,,,,,,,,brilegzünk,brilegezünk,left,5.2734,0,148,148,124,1,125,brilegzik / brilegezik,"brilegzik, brilegezni",ünk,NA,"János imád brilegezni, ezért sokat brilegzik.",Mi ritkán...,brilegzünk,brilegezünk,cselekszik,-zik,2,PR2038,2002,nő,nem,2022-04-18_13h59.41.621,hesp_baseline,2021.2.3,Win32,60.0240096
,,,,,,,,,,,,,,,,,bratároznak,bratárzanak,left,7.6759,0,149,149,108,1,109,bratárzik / bratározik,"bratárzik, bratározni",nek,NA,"János imád bratározni, ezért sokat bratárzik.",Ők ritkán...,bratárzanak,bratároznak,cselekszik,-zik,2,PR2038,2002,nő,nem,2022-04-18_13h59.41.621,hesp_baseline,2021.2.3,Win32,60.0240096
,,,,,,,,,,,,,,,,,vubletnél,vubletnál,right,4.8684,0,150,150,26,1,135,vublet,vublet,nál,e,Ez itt egy vublet.,Nincs is jobb egy jó...,vubletnél,vubletnál,dzsungel,NA,NA,PR2038,2002,nő,nem,2022-04-18_13h59.41.621,hesp_baseline,2021.2.3,Win32,60.0240096
,,,,,,,,,,,,,,,,,sztruglom,sztruglok,right,4.0816,0,151,151,67,1,122,sztruglik,sztruglasz,NA,NA,Te bizony sokat sztruglasz.,Én is sokat...,sztruglok,sztruglom,lakik,-lik,1,PR2038,2002,nő,nem,2022-04-18_13h59.41.621,hesp_baseline,2021.2.3,Win32,60.0240096
,,,,,,,,,,,,,,,,,flöklötök,flököztök,left,5.1831,0,152,152,121,1,122,flöklik / flöközik,"flöklik, flöközni",tek,NA,"János imád flöközni, ezért sokat flöklik.",Ti ritkán...,flöklötök,flököztök,cselekszik,-lik,1,PR2038,2002,nő,nem,2022-04-18_13h59.41.621,hesp_baseline,2021.2.3,Win32,60.0240096
,,,,,,,,,,,,,,,,,sztredletek,sztredeztek,left,4.4076,0,153,153,145,1,146,sztredlik / sztredezik,"sztredlik, sztredezni",tek,NA,"János imád sztredezni, ezért sokat sztredlik.",Ti ritkán...,sztredletek,sztredeztek,cselekszik,-lik,1,PR2038,2002,nő,nem,2022-04-18_13h59.41.621,hesp_baseline,2021.2.3,Win32,60.0240096
,,,,,,,,,,,,,,,,,bűtszöm,bűtszök,right,2.6135,0,154,154,82,1,137,bűtszik,bűtszöl,NA,NA,Te bizony sokat bűtszöl.,Én is sokat...,bűtszök,bűtszöm,lakik,-szik,1,PR2038,2002,nő,nem,2022-04-18_13h59.41.621,hesp_baseline,2021.2.3,Win32,60.0240096
,,,,,,,,,,,,,,,,,trilekszetek,trilekedtek,left,3.0773,0,155,155,157,1,158,trilekszik / trilekedik,"trilekszik, trilekedni",tek,NA,"János imád trilekedni, ezért sokat trilekszik.",Ti ritkán...,trilekszetek,trilekedtek,cselekszik,-szik,2,PR2038,2002,nő,nem,2022-04-18_13h59.41.621,hesp_baseline,2021.2.3,Win32,60.0240096
,,,,,,,,,,,,,,,,,zödlöm,zödlök,right,2.6648,0,156,156,106,1,161,zödlik,zödlesz,NA,NA,Te bizony sokat zödlesz.,Én is sokat...,zödlök,zödlöm,lakik,-lik,1,PR2038,2002,nő,nem,2022-04-18_13h59.41.621,hesp_baseline,2021.2.3,Win32,60.0240096
,,,,,,,,,,,,,,,,,sztrozlom,sztrozlok,right,3.9504,0,157,157,104,1,159,sztrozlik,sztrozlasz,NA,NA,Te bizony sokat sztrozlasz.,Én is sokat...,sztrozlok,sztrozlom,lakik,-lik,1,PR2038,2002,nő,nem,2022-04-18_13h59.41.621,hesp_baseline,2021.2.3,Win32,60.0240096
,,,,,,,,,,,,,,,,,virzanak,viroznak,left,5.0867,0,158,158,125,1,126,virzik / virozik,"virzik, virozni",nek,NA,"János imád virozni, ezért sokat virzik.",Ők ritkán...,virzanak,viroznak,cselekszik,-zik,1,PR2038,2002,nő,nem,2022-04-18_13h59.41.621,hesp_baseline,2021.2.3,Win32,60.0240096
,,,,,,,,,,,,,,,,,trilszok,trilszom,left,5.4458,0,159,159,103,1,158,trilszik,trilszol,NA,NA,Te bizony sokat trilszol.,Én is sokat...,trilszok,trilszom,lakik,-szik,1,PR2038,2002,nő,nem,2022-04-18_13h59.41.621,hesp_baseline,2021.2.3,Win32,60.0240096
,,,,,,,,,,,,,,,,,tibaroznak,tibarzanak,right,5.4117,0,160,160,155,1,156,tibarzik / tibarozik,"tibarzik, tibarozni",nek,NA,"János imád tibarozni, ezért sokat tibarzik.",Ők ritkán...,tibarzanak,tibaroznak,cselekszik,-zik,2,PR2038,2002,nő,nem,2022-04-18_13h59.41.621,hesp_baseline,2021.2.3,Win32,60.0240096
,,,,,,,,,,,,,,,,,sprálszok,sprálszom,left,4.8655,0,161,161,65,1,120,sprálszik,sprálszol,NA,NA,Te bizony sokat sprálszol.,Én is sokat...,sprálszok,sprálszom,lakik,-szik,1,PR2038,2002,nő,nem,2022-04-18_13h59.41.621,hesp_baseline,2021.2.3,Win32,60.0240096
