my_list,key.keys,key.rt,key_2.keys,key_2.rt,keyboard_input_2.keys,keyboard_input_2.rt,key_3.keys,key_3.rt,keyboard_input_3.keys,keyboard_input_3.rt,key_4.keys,key_4.rt,keyboard_input_4.keys,keyboard_input_4.rt,key_5.keys,key_5.rt,my_button1,my_button2,keyboard_input.keys,keyboard_input.rt,withinBlock.thisRepN,withinBlock.thisTrialN,withinBlock.thisN,withinBlock.thisIndex,withinBlock.ran,rowname,word,prompt,suffix,vowel,carrier_sentence,target_sentence,target1,target2,category,derivational,nsyl,Azonosító,Melyik évben születtél?,Mi a nemed?,Tanultál nyelvészetet?,date,expName,psychopyVersion,OS,frameRate
list3.csv,space,11.703,space,6.177,right,9.544,space,10.297,left,4.936,space,6.414,left,6.238,space,10.269,nyáslom,nyáslok,right,7.042,0,0,0,100,1,155,nyáslik,nyáslasz,NA,NA,Te bizony sokat nyáslasz.,Én is sokat...,nyáslok,nyáslom,lakik,-lik,1,PR2056,1986,nő,nem,2022-04-14_12h38.46.238,hesp_baseline,2021.2.3,Win32,59.95203837
,,,,,,,,,,,,,,,,,nyarcéjnak,nyarcéjnek,right,13.384,0,1,1,37,1,146,nyarcéj,nyarcéj,nak,é,Ez itt egy nyarcéj.,Elneveztem a kutyámat...,nyarcéjnek,nyarcéjnak,dzsungel,NA,NA,PR2056,1986,nő,nem,2022-04-14_12h38.46.238,hesp_baseline,2021.2.3,Win32,59.95203837
,,,,,,,,,,,,,,,,,sartelyban,sartelyben,right,6.227,0,2,2,40,1,149,sartely,sartely,ban,e,Ez itt egy sartely.,Ott vagyunk a...,sartelyben,sartelyban,dzsungel,NA,NA,PR2056,1986,nő,nem,2022-04-14_12h38.46.238,hesp_baseline,2021.2.3,Win32,59.95203837
,,,,,,,,,,,,,,,,,licegyban,licegyben,right,3.963,0,3,3,15,1,124,licegy,licegy,ban,e,Ez itt egy licegy.,Ott vagyunk a...,licegyben,licegyban,dzsungel,NA,NA,PR2056,1986,nő,nem,2022-04-14_12h38.46.238,hesp_baseline,2021.2.3,Win32,59.95203837
,,,,,,,,,,,,,,,,,gicéjnál,gicéjnél,right,3.846,0,4,4,17,1,126,gicéj,gicéj,nál,é,Ez itt egy gicéj.,Nincs is jobb egy jó...,gicéjnél,gicéjnál,dzsungel,NA,NA,PR2056,1986,nő,nem,2022-04-14_12h38.46.238,hesp_baseline,2021.2.3,Win32,59.95203837
,,,,,,,,,,,,,,,,,pibegzenek,pibegeznek,right,7.189,0,5,5,127,1,128,pibegzik / pibegezik,"pibegzik, pibegezni",nek,NA,"János imád pibegezni, ezért sokat pibegzik.",Ők ritkán...,pibegzenek,pibegeznek,cselekszik,-zik,2,PR2056,1986,nő,nem,2022-04-14_12h38.46.238,hesp_baseline,2021.2.3,Win32,59.95203837
,,,,,,,,,,,,,,,,,virzanak,viroznak,right,12.294,0,6,6,125,1,126,virzik / virozik,"virzik, virozni",nek,NA,"János imád virozni, ezért sokat virzik.",Ők ritkán...,virzanak,viroznak,cselekszik,-zik,1,PR2056,1986,nő,nem,2022-04-14_12h38.46.238,hesp_baseline,2021.2.3,Win32,59.95203837
,,,,,,,,,,,,,,,,,pristélban,pristélben,right,6.56,0,7,7,1,1,110,pristél,pristél,ban,é,Ez itt egy pristél.,Ott vagyunk a...,pristélben,pristélban,dzsungel,NA,NA,PR2056,1986,nő,nem,2022-04-14_12h38.46.238,hesp_baseline,2021.2.3,Win32,59.95203837
,,,,,,,,,,,,,,,,,braszencnél,braszencnál,left,11.794,0,8,8,7,1,116,braszenc,braszenc,nál,e,Ez itt egy braszenc.,Nincs is jobb egy jó...,braszencnél,braszencnál,dzsungel,NA,NA,PR2056,1986,nő,nem,2022-04-14_12h38.46.238,hesp_baseline,2021.2.3,Win32,59.95203837
,,,,,,,,,,,,,,,,,trálakoznak,trálaklanak,left,15.71,0,9,9,116,1,117,trálaklik / trálakozik,"trálaklik, trálakozni",nek,NA,"János imád trálakozni, ezért sokat trálaklik.",Ők ritkán...,trálaklanak,trálakoznak,cselekszik,-lik,2,PR2056,1986,nő,nem,2022-04-14_12h38.46.238,hesp_baseline,2021.2.3,Win32,59.95203837
,,,,,,,,,,,,,,,,,brotesban,brotesben,right,4.597,0,10,10,53,1,162,brotes,brotes,ban,e,Ez itt egy brotes.,Ott vagyunk a...,brotesben,brotesban,dzsungel,NA,NA,PR2056,1986,nő,nem,2022-04-14_12h38.46.238,hesp_baseline,2021.2.3,Win32,59.95203837
,,,,,,,,,,,,,,,,,trilekszetek,trilekedtek,right,18.593,0,11,11,157,1,158,trilekszik / trilekedik,"trilekszik, trilekedni",tek,NA,"János imád trilekedni, ezért sokat trilekszik.",Ti ritkán...,trilekszetek,trilekedtek,cselekszik,-szik,2,PR2056,1986,nő,nem,2022-04-14_12h38.46.238,hesp_baseline,2021.2.3,Win32,59.95203837
,,,,,,,,,,,,,,,,,spírzom,spírzok,left,5.571,0,12,12,64,1,119,spírzik,spírzol,NA,NA,Te bizony sokat spírzol.,Én is sokat...,spírzok,spírzom,lakik,-zik,1,PR2056,1986,nő,nem,2022-04-14_12h38.46.238,hesp_baseline,2021.2.3,Win32,59.95203837
,,,,,,,,,,,,,,,,,sprökszök,sprökszöm,left,10.777,0,13,13,88,1,143,sprökszik,sprökszöl,NA,NA,Te bizony sokat sprökszöl.,Én is sokat...,sprökszök,sprökszöm,lakik,-szik,1,PR2056,1986,nő,nem,2022-04-14_12h38.46.238,hesp_baseline,2021.2.3,Win32,59.95203837
,,,,,,,,,,,,,,,,,sztrijzom,sztrijzok,right,2.647,0,14,14,68,1,123,sztrijzik,sztrijzol,NA,NA,Te bizony sokat sztrijzol.,Én is sokat...,sztrijzok,sztrijzom,lakik,-zik,1,PR2056,1986,nő,nem,2022-04-14_12h38.46.238,hesp_baseline,2021.2.3,Win32,59.95203837
,,,,,,,,,,,,,,,,,brukésznál,brukésznél,right,5.559,0,15,15,10,1,119,brukész,brukész,nál,é,Ez itt egy brukész.,Nincs is jobb egy jó...,brukésznél,brukésznál,dzsungel,NA,NA,PR2056,1986,nő,nem,2022-04-14_12h38.46.238,hesp_baseline,2021.2.3,Win32,59.95203837
,,,,,,,,,,,,,,,,,brindeznak,brindeznek,right,3.994,0,16,16,6,1,115,brindez,brindez,nak,e,Ez itt egy brindez.,Elneveztem a kutyámat...,brindeznek,brindeznak,dzsungel,NA,NA,PR2056,1986,nő,nem,2022-04-14_12h38.46.238,hesp_baseline,2021.2.3,Win32,59.95203837
,,,,,,,,,,,,,,,,,bivejlem,bivejlek,right,3.73,0,17,17,73,1,128,bivejlik,bivejlesz,NA,NA,Te bizony sokat bivejlesz.,Én is sokat...,bivejlek,bivejlem,lakik,-lik,2,PR2056,1986,nő,nem,2022-04-14_12h38.46.238,hesp_baseline,2021.2.3,Win32,59.95203837
,,,,,,,,,,,,,,,,,fliraklom,fliraklok,right,5.444,0,18,18,98,1,153,fliraklik,fliraklasz,NA,NA,Te bizony sokat fliraklasz.,Én is sokat...,fliraklok,fliraklom,lakik,-lik,2,PR2056,1986,nő,nem,2022-04-14_12h38.46.238,hesp_baseline,2021.2.3,Win32,59.95203837
,,,,,,,,,,,,,,,,,brálamoznak,brálamlanak,left,7.277,0,19,19,144,1,145,brálamlik / brálamozik,"brálamlik, brálamozni",nek,NA,"János imád brálamozni, ezért sokat brálamlik.",Ők ritkán...,brálamlanak,brálamoznak,cselekszik,-lik,2,PR2056,1986,nő,nem,2022-04-14_12h38.46.238,hesp_baseline,2021.2.3,Win32,59.95203837
,,,,,,,,,,,,,,,,,prezlek,prezlem,left,6.804,0,20,20,87,1,142,prezlik,prezlesz,NA,NA,Te bizony sokat prezlesz.,Én is sokat...,prezlek,prezlem,lakik,-lik,1,PR2056,1986,nő,nem,2022-04-14_12h38.46.238,hesp_baseline,2021.2.3,Win32,59.95203837
,,,,,,,,,,,,,,,,,ribegedtek,ribegszetek,right,11.174,0,21,21,141,1,142,ribegszik / ribegedik,"ribegszik, ribegedni",tek,NA,"János imád ribegedni, ezért sokat ribegszik.",Ti ritkán...,ribegszetek,ribegedtek,cselekszik,-szik,2,PR2056,1986,nő,nem,2022-04-14_12h38.46.238,hesp_baseline,2021.2.3,Win32,59.95203837
,,,,,,,,,,,,,,,,,vehékedünk,vehékszünk,left,10.01,0,22,22,117,1,118,vehékszik / vehékedik,"vehékszik, vehékedni",ünk,NA,"János imád vehékedni, ezért sokat vehékszik.",Mi ritkán...,vehékszünk,vehékedünk,cselekszik,-szik,2,PR2056,1986,nő,nem,2022-04-14_12h38.46.238,hesp_baseline,2021.2.3,Win32,59.95203837
,,,,,,,,,,,,,,,,,sztritlanak,sztritoznak,right,13.226,0,23,23,154,1,155,sztritlik / sztritozik,"sztritlik, sztritozni",nek,NA,"János imád sztritozni, ezért sokat sztritlik.",Ők ritkán...,sztritlanak,sztritoznak,cselekszik,-lik,1,PR2056,1986,nő,nem,2022-04-14_12h38.46.238,hesp_baseline,2021.2.3,Win32,59.95203837
,,,,,,,,,,,,,,,,,flököztök,flöklötök,left,5.944,0,24,24,121,1,122,flöklik / flöközik,"flöklik, flöközni",tek,NA,"János imád flöközni, ezért sokat flöklik.",Ti ritkán...,flöklötök,flököztök,cselekszik,-lik,1,PR2056,1986,nő,nem,2022-04-14_12h38.46.238,hesp_baseline,2021.2.3,Win32,59.95203837
,,,,,,,,,,,,,,,,,nyupérnél,nyupérnál,left,8.735,0,25,25,52,1,161,nyupér,nyupér,nál,é,Ez itt egy nyupér.,Nincs is jobb egy jó...,nyupérnél,nyupérnál,dzsungel,NA,NA,PR2056,1986,nő,nem,2022-04-14_12h38.46.238,hesp_baseline,2021.2.3,Win32,59.95203837
,,,,,,,,,,,,,,,,,nágapszanak,nágapodnak,right,6.026,0,26,26,152,1,153,nágapszik / nágapodik,"nágapszik, nágapodni",nek,NA,"János imád nágapodni, ezért sokat nágapszik.",Ők ritkán...,nágapszanak,nágapodnak,cselekszik,-szik,2,PR2056,1986,nő,nem,2022-04-14_12h38.46.238,hesp_baseline,2021.2.3,Win32,59.95203837
,,,,,,,,,,,,,,,,,gyibakszok,gyibakszom,left,2.578,0,27,27,57,1,112,gyibakszik,gyibakszol,NA,NA,Te bizony sokat gyibakszol.,Én is sokat...,gyibakszok,gyibakszom,lakik,-szik,2,PR2056,1986,nő,nem,2022-04-14_12h38.46.238,hesp_baseline,2021.2.3,Win32,59.95203837
,,,,,,,,,,,,,,,,,zsádévnek,zsádévnak,right,14.592,0,28,28,20,1,129,zsádév,zsádév,nak,é,Ez itt egy zsádév.,Elneveztem a kutyámat...,zsádévnek,zsádévnak,dzsungel,NA,NA,PR2056,1986,nő,nem,2022-04-14_12h38.46.238,hesp_baseline,2021.2.3,Win32,59.95203837
,,,,,,,,,,,,,,,,,bidemban,bidemben,right,4.424,0,29,29,2,1,111,bidem,bidem,ban,e,Ez itt egy bidem.,Ott vagyunk a...,bidemben,bidemban,dzsungel,NA,NA,PR2056,1986,nő,nem,2022-04-14_12h38.46.238,hesp_baseline,2021.2.3,Win32,59.95203837
,,,,,,,,,,,,,,,,,mékszem,mékszek,right,4.694,0,30,30,71,1,126,mékszik,mékszel,NA,NA,Te bizony sokat mékszel.,Én is sokat...,mékszek,mékszem,lakik,-szik,1,PR2056,1986,nő,nem,2022-04-14_12h38.46.238,hesp_baseline,2021.2.3,Win32,59.95203837
,,,,,,,,,,,,,,,,,hágyétnak,hágyétnek,left,8.329,0,31,31,42,1,151,hágyét,hágyét,nak,é,Ez itt egy hágyét.,Elneveztem a kutyámat...,hágyétnek,hágyétnak,dzsungel,NA,NA,PR2056,1986,nő,nem,2022-04-14_12h38.46.238,hesp_baseline,2021.2.3,Win32,59.95203837
,,,,,,,,,,,,,,,,,vurnelnek,vurnelnak,left,3.854,0,32,32,50,1,159,vurnel,vurnel,nak,e,Ez itt egy vurnel.,Elneveztem a kutyámat...,vurnelnek,vurnelnak,dzsungel,NA,NA,PR2056,1986,nő,nem,2022-04-14_12h38.46.238,hesp_baseline,2021.2.3,Win32,59.95203837
,,,,,,,,,,,,,,,,,spülöklöm,spülöklök,right,4.111,0,33,33,56,1,111,spülöklik,spülöklesz,NA,NA,Te bizony sokat spülöklesz.,Én is sokat...,spülöklök,spülöklöm,lakik,-lik,2,PR2056,1986,nő,nem,2022-04-14_12h38.46.238,hesp_baseline,2021.2.3,Win32,59.95203837
,,,,,,,,,,,,,,,,,flugonyoznak,flugonylanak,left,5.239,0,34,34,111,1,112,flugonylik / flugonyozik,"flugonylik, flugonyozni",nek,NA,"János imád flugonyozni, ezért sokat flugonylik.",Ők ritkán...,flugonylanak,flugonyoznak,cselekszik,-lik,2,PR2056,1986,nő,nem,2022-04-14_12h38.46.238,hesp_baseline,2021.2.3,Win32,59.95203837
,,,,,,,,,,,,,,,,,táklok,táklom,left,2.445,0,35,35,79,1,134,táklik,táklasz,NA,NA,Te bizony sokat táklasz.,Én is sokat...,táklok,táklom,lakik,-lik,1,PR2056,1986,nő,nem,2022-04-14_12h38.46.238,hesp_baseline,2021.2.3,Win32,59.95203837
,,,,,,,,,,,,,,,,,bihánylok,bihánylom,left,2.496,0,36,36,89,1,144,bihánylik,bihánylasz,NA,NA,Te bizony sokat bihánylasz.,Én is sokat...,bihánylok,bihánylom,lakik,-lik,2,PR2056,1986,nő,nem,2022-04-14_12h38.46.238,hesp_baseline,2021.2.3,Win32,59.95203837
,,,,,,,,,,,,,,,,,spalároznak,spalárzanak,left,4.682,0,37,37,137,1,138,spalárzik / spalározik,"spalárzik, spalározni",nek,NA,"János imád spalározni, ezért sokat spalárzik.",Ők ritkán...,spalárzanak,spalároznak,cselekszik,-zik,2,PR2056,1986,nő,nem,2022-04-14_12h38.46.238,hesp_baseline,2021.2.3,Win32,59.95203837
,,,,,,,,,,,,,,,,,fizendben,fizendban,left,3.129,0,38,38,49,1,158,fizend,fizend,ban,e,Ez itt egy fizend.,Ott vagyunk a...,fizendben,fizendban,dzsungel,NA,NA,PR2056,1986,nő,nem,2022-04-14_12h38.46.238,hesp_baseline,2021.2.3,Win32,59.95203837
,,,,,,,,,,,,,,,,,trehégszek,trehégszem,left,2.404,0,39,39,86,1,141,trehégszik,trehégszel,NA,NA,Te bizony sokat trehégszel.,Én is sokat...,trehégszek,trehégszem,lakik,-szik,2,PR2056,1986,nő,nem,2022-04-14_12h38.46.238,hesp_baseline,2021.2.3,Win32,59.95203837
,,,,,,,,,,,,,,,,,bratároznak,bratárzanak,left,4.898,0,40,40,108,1,109,bratárzik / bratározik,"bratárzik, bratározni",nek,NA,"János imád bratározni, ezért sokat bratárzik.",Ők ritkán...,bratárzanak,bratároznak,cselekszik,-zik,2,PR2056,1986,nő,nem,2022-04-14_12h38.46.238,hesp_baseline,2021.2.3,Win32,59.95203837
,,,,,,,,,,,,,,,,,dirlotok,diroztok,right,15.693,0,41,41,148,1,149,dirlik / dirozik,"dirlik, dirozni",tek,NA,"János imád dirozni, ezért sokat dirlik.",Ti ritkán...,dirlotok,diroztok,cselekszik,-lik,1,PR2056,1986,nő,nem,2022-04-14_12h38.46.238,hesp_baseline,2021.2.3,Win32,59.95203837
,,,,,,,,,,,,,,,,,drubódzok,drubódzom,left,3.379,0,42,42,63,1,118,drubódzik,drubódzol,NA,NA,Te bizony sokat drubódzol.,Én is sokat...,drubódzok,drubódzom,lakik,-zik,2,PR2056,1986,nő,nem,2022-04-14_12h38.46.238,hesp_baseline,2021.2.3,Win32,59.95203837
,,,,,,,,,,,,,,,,,pijélnél,pijélnál,left,3.312,0,43,43,3,1,112,pijél,pijél,nál,é,Ez itt egy pijél.,Nincs is jobb egy jó...,pijélnél,pijélnál,dzsungel,NA,NA,PR2056,1986,nő,nem,2022-04-14_12h38.46.238,hesp_baseline,2021.2.3,Win32,59.95203837
,,,,,,,,,,,,,,,,,sűjlünk,sűjözünk,right,20.205,0,44,44,128,1,129,sűjlik / sűjözik,"sűjlik, sűjözni",ünk,NA,"János imád sűjözni, ezért sokat sűjlik.",Mi ritkán...,sűjlünk,sűjözünk,cselekszik,-lik,1,PR2056,1986,nő,nem,2022-04-14_12h38.46.238,hesp_baseline,2021.2.3,Win32,59.95203837
,,,,,,,,,,,,,,,,,dralágzunk,dralágozunk,left,7.178,0,45,45,156,1,157,dralágzik / dralágozik,"dralágzik, dralágozni",ünk,NA,"János imád dralágozni, ezért sokat dralágzik.",Mi ritkán...,dralágzunk,dralágozunk,cselekszik,-zik,2,PR2056,1986,nő,nem,2022-04-14_12h38.46.238,hesp_baseline,2021.2.3,Win32,59.95203837
,,,,,,,,,,,,,,,,,spuborzanak,spuboroznak,right,5.009,0,46,46,161,1,162,spuborzik / spuborozik,"spuborzik, spuborozni",nek,NA,"János imád spuborozni, ezért sokat spuborzik.",Ők ritkán...,spuborzanak,spuboroznak,cselekszik,-zik,2,PR2056,1986,nő,nem,2022-04-14_12h38.46.238,hesp_baseline,2021.2.3,Win32,59.95203837
,,,,,,,,,,,,,,,,,fretszek,fretszem,left,4.031,0,47,47,66,1,121,fretszik,fretszel,NA,NA,Te bizony sokat fretszel.,Én is sokat...,fretszek,fretszem,lakik,-szik,1,PR2056,1986,nő,nem,2022-04-14_12h38.46.238,hesp_baseline,2021.2.3,Win32,59.95203837
,,,,,,,,,,,,,,,,,trikoztok,triklotok,left,14.655,0,48,48,160,1,161,triklik / trikozik,"triklik, trikozni",tek,NA,"János imád trikozni, ezért sokat triklik.",Ti ritkán...,triklotok,trikoztok,cselekszik,-lik,1,PR2056,1986,nő,nem,2022-04-14_12h38.46.238,hesp_baseline,2021.2.3,Win32,59.95203837
,,,,,,,,,,,,,,,,,spüszlöm,spüszlök,right,2.574,0,49,49,96,1,151,spüszlik,spüszlesz,NA,NA,Te bizony sokat spüszlesz.,Én is sokat...,spüszlök,spüszlöm,lakik,-lik,1,PR2056,1986,nő,nem,2022-04-14_12h38.46.238,hesp_baseline,2021.2.3,Win32,59.95203837
,,,,,,,,,,,,,,,,,brürzenek,brüröznek,right,5.579,0,50,50,110,1,111,brürzik / brürözik,"brürzik, brürözni",nek,NA,"János imád brürözni, ezért sokat brürzik.",Ők ritkán...,brürzenek,brüröznek,cselekszik,-zik,1,PR2056,1986,nő,nem,2022-04-14_12h38.46.238,hesp_baseline,2021.2.3,Win32,59.95203837
,,,,,,,,,,,,,,,,,murdesnál,murdesnél,right,3.335,0,51,51,47,1,156,murdes,murdes,nál,e,Ez itt egy murdes.,Nincs is jobb egy jó...,murdesnél,murdesnál,dzsungel,NA,NA,PR2056,1986,nő,nem,2022-04-14_12h38.46.238,hesp_baseline,2021.2.3,Win32,59.95203837
,,,,,,,,,,,,,,,,,bűtszöm,bűtszök,right,2.876,0,52,52,82,1,137,bűtszik,bűtszöl,NA,NA,Te bizony sokat bűtszöl.,Én is sokat...,bűtszök,bűtszöm,lakik,-szik,1,PR2056,1986,nő,nem,2022-04-14_12h38.46.238,hesp_baseline,2021.2.3,Win32,59.95203837
,,,,,,,,,,,,,,,,,spibamoznak,spibamlanak,left,4.576,0,53,53,142,1,143,spibamlik / spibamozik,"spibamlik, spibamozni",nek,NA,"János imád spibamozni, ezért sokat spibamlik.",Ők ritkán...,spibamlanak,spibamoznak,cselekszik,-lik,2,PR2056,1986,nő,nem,2022-04-14_12h38.46.238,hesp_baseline,2021.2.3,Win32,59.95203837
,,,,,,,,,,,,,,,,,piragszok,piragszom,right,2.445,0,54,54,83,1,138,piragszik,piragszol,NA,NA,Te bizony sokat piragszol.,Én is sokat...,piragszok,piragszom,lakik,-szik,2,PR2056,1986,nő,nem,2022-04-14_12h38.46.238,hesp_baseline,2021.2.3,Win32,59.95203837
,,,,,,,,,,,,,,,,,gótemnek,gótemnak,left,4.829,0,55,55,35,1,144,gótem,gótem,nak,e,Ez itt egy gótem.,Elneveztem a kutyámat...,gótemnek,gótemnak,dzsungel,NA,NA,PR2056,1986,nő,nem,2022-04-14_12h38.46.238,hesp_baseline,2021.2.3,Win32,59.95203837
,,,,,,,,,,,,,,,,,nivárzotok,nivároztok,right,6.528,0,56,56,146,1,147,nivárzik / nivározik,"nivárzik, nivározni",tek,NA,"János imád nivározni, ezért sokat nivárzik.",Ti ritkán...,nivárzotok,nivároztok,cselekszik,-zik,2,PR2056,1986,nő,nem,2022-04-14_12h38.46.238,hesp_baseline,2021.2.3,Win32,59.95203837
,,,,,,,,,,,,,,,,,trálszunk,trálodunk,left,8.12,0,57,57,130,1,131,trálszik / trálodik,"trálszik, trálodni",ünk,NA,"János imád trálodni, ezért sokat trálszik.",Mi ritkán...,trálszunk,trálodunk,cselekszik,-szik,1,PR2056,1986,nő,nem,2022-04-14_12h38.46.238,hesp_baseline,2021.2.3,Win32,59.95203837
,,,,,,,,,,,,,,,,,kábesznél,kábesznál,left,4.324,0,58,58,44,1,153,kábesz,kábesz,nál,e,Ez itt egy kábesz.,Nincs is jobb egy jó...,kábesznél,kábesznál,dzsungel,NA,NA,PR2056,1986,nő,nem,2022-04-14_12h38.46.238,hesp_baseline,2021.2.3,Win32,59.95203837
,,,,,,,,,,,,,,,,,treglek,treglem,left,2.379,0,59,59,81,1,136,treglik,treglesz,NA,NA,Te bizony sokat treglesz.,Én is sokat...,treglek,treglem,lakik,-lik,1,PR2056,1986,nő,nem,2022-04-14_12h38.46.238,hesp_baseline,2021.2.3,Win32,59.95203837
,,,,,,,,,,,,,,,,,spuménynak,spuménynek,right,4.095,0,60,60,19,1,128,spumény,spumény,nak,é,Ez itt egy spumény.,Elneveztem a kutyámat...,spuménynek,spuménynak,dzsungel,NA,NA,PR2056,1986,nő,nem,2022-04-14_12h38.46.238,hesp_baseline,2021.2.3,Win32,59.95203837
,,,,,,,,,,,,,,,,,gibemlünk,gibemezünk,left,3.912,0,61,61,115,1,116,gibemlik / gibemezik,"gibemlik, gibemezni",ünk,NA,"János imád gibemezni, ezért sokat gibemlik.",Mi ritkán...,gibemlünk,gibemezünk,cselekszik,-lik,2,PR2056,1986,nő,nem,2022-04-14_12h38.46.238,hesp_baseline,2021.2.3,Win32,59.95203837
,,,,,,,,,,,,,,,,,lűklenek,lűköznek,right,7.58,0,62,62,136,1,137,lűklik / lűközik,"lűklik, lűközni",nek,NA,"János imád lűközni, ezért sokat lűklik.",Ők ritkán...,lűklenek,lűköznek,cselekszik,-lik,1,PR2056,1986,nő,nem,2022-04-14_12h38.46.238,hesp_baseline,2021.2.3,Win32,59.95203837
,,,,,,,,,,,,,,,,,sztruglom,sztruglok,right,2.209,0,63,63,67,1,122,sztruglik,sztruglasz,NA,NA,Te bizony sokat sztruglasz.,Én is sokat...,sztruglok,sztruglom,lakik,-lik,1,PR2056,1986,nő,nem,2022-04-14_12h38.46.238,hesp_baseline,2021.2.3,Win32,59.95203837
,,,,,,,,,,,,,,,,,trűnylenek,trűnyöznek,right,5.251,0,64,64,119,1,120,trűnylik / trűnyözik,"trűnylik, trűnyözni",nek,NA,"János imád trűnyözni, ezért sokat trűnylik.",Ők ritkán...,trűnylenek,trűnyöznek,cselekszik,-lik,1,PR2056,1986,nő,nem,2022-04-14_12h38.46.238,hesp_baseline,2021.2.3,Win32,59.95203837
,,,,,,,,,,,,,,,,,dalencnél,dalencnál,left,11.162,0,65,65,31,1,140,dalenc,dalenc,nál,e,Ez itt egy dalenc.,Nincs is jobb egy jó...,dalencnél,dalencnál,dzsungel,NA,NA,PR2056,1986,nő,nem,2022-04-14_12h38.46.238,hesp_baseline,2021.2.3,Win32,59.95203837
,,,,,,,,,,,,,,,,,plágadzok,plágadzom,left,2.434,0,66,66,74,1,129,plágadzik,plágadzol,NA,NA,Te bizony sokat plágadzol.,Én is sokat...,plágadzok,plágadzom,lakik,-zik,2,PR2056,1986,nő,nem,2022-04-14_12h38.46.238,hesp_baseline,2021.2.3,Win32,59.95203837
,,,,,,,,,,,,,,,,,triképben,triképban,left,3.744,0,67,67,33,1,142,trikép,trikép,ban,é,Ez itt egy trikép.,Ott vagyunk a...,triképben,triképban,dzsungel,NA,NA,PR2056,1986,nő,nem,2022-04-14_12h38.46.238,hesp_baseline,2021.2.3,Win32,59.95203837
,,,,,,,,,,,,,,,,,flátoztok,flátlotok,left,4.761,0,68,68,132,1,133,flátlik / flátozik,"flátlik, flátozni",tek,NA,"János imád flátozni, ezért sokat flátlik.",Ti ritkán...,flátlotok,flátoztok,cselekszik,-lik,1,PR2056,1986,nő,nem,2022-04-14_12h38.46.238,hesp_baseline,2021.2.3,Win32,59.95203837
,,,,,,,,,,,,,,,,,klosétnek,klosétnak,left,3.946,0,69,69,45,1,154,klosét,klosét,nak,é,Ez itt egy klosét.,Elneveztem a kutyámat...,klosétnek,klosétnak,dzsungel,NA,NA,PR2056,1986,nő,nem,2022-04-14_12h38.46.238,hesp_baseline,2021.2.3,Win32,59.95203837
,,,,,,,,,,,,,,,,,böjzök,böjzöm,left,2.312,0,70,70,80,1,135,böjzik,böjzöl,NA,NA,Te bizony sokat böjzöl.,Én is sokat...,böjzök,böjzöm,lakik,-zik,1,PR2056,1986,nő,nem,2022-04-14_12h38.46.238,hesp_baseline,2021.2.3,Win32,59.95203837
,,,,,,,,,,,,,,,,,frivajlom,frivajlok,right,5.313,0,71,71,78,1,133,frivajlik,frivajlasz,NA,NA,Te bizony sokat frivajlasz.,Én is sokat...,frivajlok,frivajlom,lakik,-lik,2,PR2056,1986,nő,nem,2022-04-14_12h38.46.238,hesp_baseline,2021.2.3,Win32,59.95203837
,,,,,,,,,,,,,,,,,prűrlöm,prűrlök,right,3.446,0,72,72,75,1,130,prűrlik,prűrlesz,NA,NA,Te bizony sokat prűrlesz.,Én is sokat...,prűrlök,prűrlöm,lakik,-lik,1,PR2056,1986,nő,nem,2022-04-14_12h38.46.238,hesp_baseline,2021.2.3,Win32,59.95203837
,,,,,,,,,,,,,,,,,jurdentnál,jurdentnél,right,3.394,0,73,73,16,1,125,jurdent,jurdent,nál,e,Ez itt egy jurdent.,Nincs is jobb egy jó...,jurdentnél,jurdentnál,dzsungel,NA,NA,PR2056,1986,nő,nem,2022-04-14_12h38.46.238,hesp_baseline,2021.2.3,Win32,59.95203837
,,,,,,,,,,,,,,,,,klárzok,klárzom,left,2.747,0,74,74,85,1,140,klárzik,klárzol,NA,NA,Te bizony sokat klárzol.,Én is sokat...,klárzok,klárzom,lakik,-zik,1,PR2056,1986,nő,nem,2022-04-14_12h38.46.238,hesp_baseline,2021.2.3,Win32,59.95203837
,,,,,,,,,,,,,,,,,briváglanak,brivágoznak,right,4.863,0,75,75,138,1,139,briváglik / brivágozik,"briváglik, brivágozni",nek,NA,"János imád brivágozni, ezért sokat briváglik.",Ők ritkán...,briváglanak,brivágoznak,cselekszik,-lik,2,PR2056,1986,nő,nem,2022-04-14_12h38.46.238,hesp_baseline,2021.2.3,Win32,59.95203837
,,,,,,,,,,,,,,,,,surnegynél,surnegynál,left,3.463,0,76,76,8,1,117,surnegy,surnegy,nál,e,Ez itt egy surnegy.,Nincs is jobb egy jó...,surnegynél,surnegynál,dzsungel,NA,NA,PR2056,1986,nő,nem,2022-04-14_12h38.46.238,hesp_baseline,2021.2.3,Win32,59.95203837
,,,,,,,,,,,,,,,,,tibaroznak,tibarzanak,left,4.679,0,77,77,155,1,156,tibarzik / tibarozik,"tibarzik, tibarozni",nek,NA,"János imád tibarozni, ezért sokat tibarzik.",Ők ritkán...,tibarzanak,tibaroznak,cselekszik,-zik,2,PR2056,1986,nő,nem,2022-04-14_12h38.46.238,hesp_baseline,2021.2.3,Win32,59.95203837
,,,,,,,,,,,,,,,,,huméknak,huméknek,right,3.31,0,78,78,23,1,132,humék,humék,nak,é,Ez itt egy humék.,Elneveztem a kutyámat...,huméknek,huméknak,dzsungel,NA,NA,PR2056,1986,nő,nem,2022-04-14_12h38.46.238,hesp_baseline,2021.2.3,Win32,59.95203837
,,,,,,,,,,,,,,,,,csodegnál,csodegnél,right,2.409,0,79,79,28,1,137,csodeg,csodeg,nál,e,Ez itt egy csodeg.,Nincs is jobb egy jó...,csodegnél,csodegnál,dzsungel,NA,NA,PR2056,1986,nő,nem,2022-04-14_12h38.46.238,hesp_baseline,2021.2.3,Win32,59.95203837
,,,,,,,,,,,,,,,,,lumlotok,lumoztok,right,4.632,0,80,80,149,1,150,lumlik / lumozik,"lumlik, lumozni",tek,NA,"János imád lumozni, ezért sokat lumlik.",Ti ritkán...,lumlotok,lumoztok,cselekszik,-lik,1,PR2056,1986,nő,nem,2022-04-14_12h38.46.238,hesp_baseline,2021.2.3,Win32,59.95203837
,,,,,,,,,,,,,,,,,kátelnak,kátelnek,right,2.346,0,81,81,12,1,121,kátel,kátel,nak,e,Ez itt egy kátel.,Elneveztem a kutyámat...,kátelnek,kátelnak,dzsungel,NA,NA,PR2056,1986,nő,nem,2022-04-14_12h38.46.238,hesp_baseline,2021.2.3,Win32,59.95203837
,,,,,,,,,,,,,,,,,brároznak,brárlanak,left,7.527,0,82,82,126,1,127,brárlik / brározik,"brárlik, brározni",nek,NA,"János imád brározni, ezért sokat brárlik.",Ők ritkán...,brárlanak,brároznak,cselekszik,-lik,1,PR2056,1986,nő,nem,2022-04-14_12h38.46.238,hesp_baseline,2021.2.3,Win32,59.95203837
,,,,,,,,,,,,,,,,,tuboklom,tuboklok,right,5.179,0,83,83,84,1,139,tuboklik,tuboklasz,NA,NA,Te bizony sokat tuboklasz.,Én is sokat...,tuboklok,tuboklom,lakik,-lik,2,PR2056,1986,nő,nem,2022-04-14_12h38.46.238,hesp_baseline,2021.2.3,Win32,59.95203837
,,,,,,,,,,,,,,,,,lájoztok,lájzotok,left,5.543,0,84,84,159,1,160,lájzik / lájozik,"lájzik, lájozni",tek,NA,"János imád lájozni, ezért sokat lájzik.",Ti ritkán...,lájzotok,lájoztok,cselekszik,-zik,1,PR2056,1986,nő,nem,2022-04-14_12h38.46.238,hesp_baseline,2021.2.3,Win32,59.95203837
,,,,,,,,,,,,,,,,,vobzotok,voboztok,right,4.311,0,85,85,158,1,159,vobzik / vobozik,"vobzik, vobozni",tek,NA,"János imád vobozni, ezért sokat vobzik.",Ti ritkán...,vobzotok,voboztok,cselekszik,-zik,1,PR2056,1986,nő,nem,2022-04-14_12h38.46.238,hesp_baseline,2021.2.3,Win32,59.95203837
,,,,,,,,,,,,,,,,,brüjlöm,brüjlök,right,3.645,0,86,86,55,1,110,brüjlik,brüjlesz,NA,NA,Te bizony sokat brüjlesz.,Én is sokat...,brüjlök,brüjlöm,lakik,-lik,1,PR2056,1986,nő,nem,2022-04-14_12h38.46.238,hesp_baseline,2021.2.3,Win32,59.95203837
,,,,,,,,,,,,,,,,,brűköztök,brűklötök,left,4.226,0,87,87,153,1,154,brűklik / brűközik,"brűklik, brűközni",tek,NA,"János imád brűközni, ezért sokat brűklik.",Ti ritkán...,brűklötök,brűköztök,cselekszik,-lik,1,PR2056,1986,nő,nem,2022-04-14_12h38.46.238,hesp_baseline,2021.2.3,Win32,59.95203837
,,,,,,,,,,,,,,,,,klivaslok,klivaslom,left,5.497,0,88,88,62,1,117,klivaslik,klivaslasz,NA,NA,Te bizony sokat klivaslasz.,Én is sokat...,klivaslok,klivaslom,lakik,-lik,2,PR2056,1986,nő,nem,2022-04-14_12h38.46.238,hesp_baseline,2021.2.3,Win32,59.95203837
,,,,,,,,,,,,,,,,,lismévben,lismévban,left,4.177,0,89,89,0,1,109,lismév,lismév,ban,é,Ez itt egy lismév.,Ott vagyunk a...,lismévben,lismévban,dzsungel,NA,NA,PR2056,1986,nő,nem,2022-04-14_12h38.46.238,hesp_baseline,2021.2.3,Win32,59.95203837
,,,,,,,,,,,,,,,,,rájzom,rájzok,right,2.061,0,90,90,70,1,125,rájzik,rájzol,NA,NA,Te bizony sokat rájzol.,Én is sokat...,rájzok,rájzom,lakik,-zik,1,PR2056,1986,nő,nem,2022-04-14_12h38.46.238,hesp_baseline,2021.2.3,Win32,59.95203837
,,,,,,,,,,,,,,,,,tűgöztök,tűgzötök,left,3.212,0,91,91,143,1,144,tűgzik / tűgözik,"tűgzik, tűgözni",tek,NA,"János imád tűgözni, ezért sokat tűgzik.",Ti ritkán...,tűgzötök,tűgöztök,cselekszik,-zik,1,PR2056,1986,nő,nem,2022-04-14_12h38.46.238,hesp_baseline,2021.2.3,Win32,59.95203837
,,,,,,,,,,,,,,,,,vűjlöm,vűjlök,right,1.939,0,92,92,94,1,149,vűjlik,vűjlesz,NA,NA,Te bizony sokat vűjlesz.,Én is sokat...,vűjlök,vűjlöm,lakik,-lik,1,PR2056,1986,nő,nem,2022-04-14_12h38.46.238,hesp_baseline,2021.2.3,Win32,59.95203837
,,,,,,,,,,,,,,,,,frálapszotok,frálapodtok,right,5.308,0,93,93,150,1,151,frálapszik / frálapodik,"frálapszik, frálapodni",tek,NA,"János imád frálapodni, ezért sokat frálapszik.",Ti ritkán...,frálapszotok,frálapodtok,cselekszik,-szik,2,PR2056,1986,nő,nem,2022-04-14_12h38.46.238,hesp_baseline,2021.2.3,Win32,59.95203837
,,,,,,,,,,,,,,,,,mülőrözünk,mülőrzünk,left,4.308,0,94,94,120,1,121,mülőrzik / mülőrözik,"mülőrzik, mülőrözni",ünk,NA,"János imád mülőrözni, ezért sokat mülőrzik.",Mi ritkán...,mülőrzünk,mülőrözünk,cselekszik,-zik,2,PR2056,1986,nő,nem,2022-04-14_12h38.46.238,hesp_baseline,2021.2.3,Win32,59.95203837
,,,,,,,,,,,,,,,,,trájegban,trájegben,right,11.011,0,95,95,14,1,123,trájeg,trájeg,ban,e,Ez itt egy trájeg.,Ott vagyunk a...,trájegben,trájegban,dzsungel,NA,NA,PR2056,1986,nő,nem,2022-04-14_12h38.46.238,hesp_baseline,2021.2.3,Win32,59.95203837
,,,,,,,,,,,,,,,,,danétnál,danétnél,left,3.128,0,96,96,38,1,147,danét,danét,nál,é,Ez itt egy danét.,Nincs is jobb egy jó...,danétnél,danétnál,dzsungel,NA,NA,PR2056,1986,nő,nem,2022-04-14_12h38.46.238,hesp_baseline,2021.2.3,Win32,59.95203837
,,,,,,,,,,,,,,,,,klibamlok,klibamlom,left,4.495,0,97,97,92,1,147,klibamlik,klibamlasz,NA,NA,Te bizony sokat klibamlasz.,Én is sokat...,klibamlok,klibamlom,lakik,-lik,2,PR2056,1986,nő,nem,2022-04-14_12h38.46.238,hesp_baseline,2021.2.3,Win32,59.95203837
,,,,,,,,,,,,,,,,,sztrozlom,sztrozlok,right,2.066,0,98,98,104,1,159,sztrozlik,sztrozlasz,NA,NA,Te bizony sokat sztrozlasz.,Én is sokat...,sztrozlok,sztrozlom,lakik,-lik,1,PR2056,1986,nő,nem,2022-04-14_12h38.46.238,hesp_baseline,2021.2.3,Win32,59.95203837
,,,,,,,,,,,,,,,,,brivepszünk,brivepedünk,left,3.655,0,99,99,113,1,114,brivepszik / brivepedik,"brivepszik, brivepedni",ünk,NA,"János imád brivepedni, ezért sokat brivepszik.",Mi ritkán...,brivepszünk,brivepedünk,cselekszik,-szik,2,PR2056,1986,nő,nem,2022-04-14_12h38.46.238,hesp_baseline,2021.2.3,Win32,59.95203837
,,,,,,,,,,,,,,,,,bupézban,bupézben,left,3.828,0,100,100,48,1,157,bupéz,bupéz,ban,é,Ez itt egy bupéz.,Ott vagyunk a...,bupézben,bupézban,dzsungel,NA,NA,PR2056,1986,nő,nem,2022-04-14_12h38.46.238,hesp_baseline,2021.2.3,Win32,59.95203837
,,,,,,,,,,,,,,,,,klarágoztok,klarágzotok,left,8.628,0,101,101,114,1,115,klarágzik / klarágozik,"klarágzik, klarágozni",tek,NA,"János imád klarágozni, ezért sokat klarágzik.",Ti ritkán...,klarágzotok,klarágoztok,cselekszik,-zik,2,PR2056,1986,nő,nem,2022-04-14_12h38.46.238,hesp_baseline,2021.2.3,Win32,59.95203837
,,,,,,,,,,,,,,,,,trincsegban,trincsegben,right,3.861,0,102,102,46,1,155,trincseg,trincseg,ban,e,Ez itt egy trincseg.,Ott vagyunk a...,trincsegben,trincsegban,dzsungel,NA,NA,PR2056,1986,nő,nem,2022-04-14_12h38.46.238,hesp_baseline,2021.2.3,Win32,59.95203837
,,,,,,,,,,,,,,,,,szihétnak,szihétnek,right,2.446,0,103,103,4,1,113,szihét,szihét,nak,é,Ez itt egy szihét.,Elneveztem a kutyámat...,szihétnek,szihétnak,dzsungel,NA,NA,PR2056,1986,nő,nem,2022-04-14_12h38.46.238,hesp_baseline,2021.2.3,Win32,59.95203837
,,,,,,,,,,,,,,,,,büglök,büglöm,left,2.278,0,104,104,101,1,156,büglik,büglesz,NA,NA,Te bizony sokat büglesz.,Én is sokat...,büglök,büglöm,lakik,-lik,1,PR2056,1986,nő,nem,2022-04-14_12h38.46.238,hesp_baseline,2021.2.3,Win32,59.95203837
,,,,,,,,,,,,,,,,,sztrűkszök,sztrűkszöm,left,2.964,0,105,105,77,1,132,sztrűkszik,sztrűkszöl,NA,NA,Te bizony sokat sztrűkszöl.,Én is sokat...,sztrűkszök,sztrűkszöm,lakik,-szik,1,PR2056,1986,nő,nem,2022-04-14_12h38.46.238,hesp_baseline,2021.2.3,Win32,59.95203837
,,,,,,,,,,,,,,,,,sprozoznak,sprozlanak,left,5.126,0,106,106,147,1,148,sprozlik / sprozozik,"sprozlik, sprozozni",nek,NA,"János imád sprozozni, ezért sokat sprozlik.",Ők ritkán...,sprozlanak,sprozoznak,cselekszik,-lik,1,PR2056,1986,nő,nem,2022-04-14_12h38.46.238,hesp_baseline,2021.2.3,Win32,59.95203837
,,,,,,,,,,,,,,,,,ibékszem,ibékszek,right,3.131,0,107,107,95,1,150,ibékszik,ibékszel,NA,NA,Te bizony sokat ibékszel.,Én is sokat...,ibékszek,ibékszem,lakik,-szik,2,PR2056,1986,nő,nem,2022-04-14_12h38.46.238,hesp_baseline,2021.2.3,Win32,59.95203837
,,,,,,,,,,,,,,,,,finceknál,finceknél,right,3.003,0,108,108,9,1,118,fincek,fincek,nál,e,Ez itt egy fincek.,Nincs is jobb egy jó...,finceknél,finceknál,dzsungel,NA,NA,PR2056,1986,nő,nem,2022-04-14_12h38.46.238,hesp_baseline,2021.2.3,Win32,59.95203837
,,,,,,,,,,,,,,,,,trádlok,trádlom,left,4.198,0,109,109,105,1,160,trádlik,trádlasz,NA,NA,Te bizony sokat trádlasz.,Én is sokat...,trádlok,trádlom,lakik,-lik,1,PR2056,1986,nő,nem,2022-04-14_12h38.46.238,hesp_baseline,2021.2.3,Win32,59.95203837
,,,,,,,,,,,,,,,,,zatéjnál,zatéjnél,right,3.533,0,110,110,34,1,143,zatéj,zatéj,nál,é,Ez itt egy zatéj.,Nincs is jobb egy jó...,zatéjnél,zatéjnál,dzsungel,NA,NA,PR2056,1986,nő,nem,2022-04-14_12h38.46.238,hesp_baseline,2021.2.3,Win32,59.95203837
,,,,,,,,,,,,,,,,,bródesznak,bródesznek,right,2.644,0,111,111,32,1,141,bródesz,bródesz,nak,e,Ez itt egy bródesz.,Elneveztem a kutyámat...,bródesznek,bródesznak,dzsungel,NA,NA,PR2056,1986,nő,nem,2022-04-14_12h38.46.238,hesp_baseline,2021.2.3,Win32,59.95203837
,,,,,,,,,,,,,,,,,vodecnál,vodecnél,right,2.595,0,112,112,30,1,139,vodec,vodec,nál,e,Ez itt egy vodec.,Nincs is jobb egy jó...,vodecnél,vodecnál,dzsungel,NA,NA,PR2056,1986,nő,nem,2022-04-14_12h38.46.238,hesp_baseline,2021.2.3,Win32,59.95203837
,,,,,,,,,,,,,,,,,prínylom,prínylok,right,1.831,0,113,113,102,1,157,prínylik,prínylasz,NA,NA,Te bizony sokat prínylasz.,Én is sokat...,prínylok,prínylom,lakik,-lik,1,PR2056,1986,nő,nem,2022-04-14_12h38.46.238,hesp_baseline,2021.2.3,Win32,59.95203837
,,,,,,,,,,,,,,,,,brilegezünk,brilegzünk,right,7.066,0,114,114,124,1,125,brilegzik / brilegezik,"brilegzik, brilegezni",ünk,NA,"János imád brilegezni, ezért sokat brilegzik.",Mi ritkán...,brilegzünk,brilegezünk,cselekszik,-zik,2,PR2056,1986,nő,nem,2022-04-14_12h38.46.238,hesp_baseline,2021.2.3,Win32,59.95203837
,,,,,,,,,,,,,,,,,ronszekben,ronszekban,left,2.756,0,115,115,18,1,127,ronszek,ronszek,ban,e,Ez itt egy ronszek.,Ott vagyunk a...,ronszekben,ronszekban,dzsungel,NA,NA,PR2056,1986,nő,nem,2022-04-14_12h38.46.238,hesp_baseline,2021.2.3,Win32,59.95203837
,,,,,,,,,,,,,,,,,szutendben,szutendban,left,2.828,0,116,116,11,1,120,szutend,szutend,ban,e,Ez itt egy szutend.,Ott vagyunk a...,szutendben,szutendban,dzsungel,NA,NA,PR2056,1986,nő,nem,2022-04-14_12h38.46.238,hesp_baseline,2021.2.3,Win32,59.95203837
,,,,,,,,,,,,,,,,,tínylok,tínylom,left,2.903,0,117,117,58,1,113,tínylik,tínylasz,NA,NA,Te bizony sokat tínylasz.,Én is sokat...,tínylok,tínylom,lakik,-lik,1,PR2056,1986,nő,nem,2022-04-14_12h38.46.238,hesp_baseline,2021.2.3,Win32,59.95203837
,,,,,,,,,,,,,,,,,spatelnak,spatelnek,right,2.613,0,118,118,21,1,130,spatel,spatel,nak,e,Ez itt egy spatel.,Elneveztem a kutyámat...,spatelnek,spatelnak,dzsungel,NA,NA,PR2056,1986,nő,nem,2022-04-14_12h38.46.238,hesp_baseline,2021.2.3,Win32,59.95203837
,,,,,,,,,,,,,,,,,döjlenek,döjöznek,left,5.794,0,119,119,129,1,130,döjlik / döjözik,"döjlik, döjözni",nek,NA,"János imád döjözni, ezért sokat döjlik.",Ők ritkán...,döjlenek,döjöznek,cselekszik,-lik,1,PR2056,1986,nő,nem,2022-04-14_12h38.46.238,hesp_baseline,2021.2.3,Win32,59.95203837
,,,,,,,,,,,,,,,,,sprivencnál,sprivencnél,right,4.946,0,120,120,13,1,122,sprivenc,sprivenc,nál,e,Ez itt egy sprivenc.,Nincs is jobb egy jó...,sprivencnél,sprivencnál,dzsungel,NA,NA,PR2056,1986,nő,nem,2022-04-14_12h38.46.238,hesp_baseline,2021.2.3,Win32,59.95203837
,,,,,,,,,,,,,,,,,narjárzok,narjárzom,left,1.96,0,121,121,61,1,116,narjárzik,narjárzol,NA,NA,Te bizony sokat narjárzol.,Én is sokat...,narjárzok,narjárzom,lakik,-zik,2,PR2056,1986,nő,nem,2022-04-14_12h38.46.238,hesp_baseline,2021.2.3,Win32,59.95203837
,,,,,,,,,,,,,,,,,sprálszom,sprálszok,right,2.996,0,122,122,65,1,120,sprálszik,sprálszol,NA,NA,Te bizony sokat sprálszol.,Én is sokat...,sprálszok,sprálszom,lakik,-szik,1,PR2056,1986,nő,nem,2022-04-14_12h38.46.238,hesp_baseline,2021.2.3,Win32,59.95203837
,,,,,,,,,,,,,,,,,trismélnak,trismélnek,left,2.663,0,123,123,5,1,114,trismél,trismél,nak,é,Ez itt egy trismél.,Elneveztem a kutyámat...,trismélnek,trismélnak,dzsungel,NA,NA,PR2056,1986,nő,nem,2022-04-14_12h38.46.238,hesp_baseline,2021.2.3,Win32,59.95203837
,,,,,,,,,,,,,,,,,drivegeztek,drivegzetek,left,6.143,0,124,124,112,1,113,drivegzik / drivegezik,"drivegzik, drivegezni",tek,NA,"János imád drivegezni, ezért sokat drivegzik.",Ti ritkán...,drivegzetek,drivegeztek,cselekszik,-zik,2,PR2056,1986,nő,nem,2022-04-14_12h38.46.238,hesp_baseline,2021.2.3,Win32,59.95203837
,,,,,,,,,,,,,,,,,vilesezünk,vileslünk,left,4.968,0,125,125,139,1,140,vileslik / vilesezik,"vileslik, vilesezni",ünk,NA,"János imád vilesezni, ezért sokat vileslik.",Mi ritkán...,vileslünk,vilesezünk,cselekszik,-lik,2,PR2056,1986,nő,nem,2022-04-14_12h38.46.238,hesp_baseline,2021.2.3,Win32,59.95203837
,,,,,,,,,,,,,,,,,féjzek,féjzem,left,2.561,0,126,126,91,1,146,féjzik,féjzel,NA,NA,Te bizony sokat féjzel.,Én is sokat...,féjzek,féjzem,lakik,-zik,1,PR2056,1986,nő,nem,2022-04-14_12h38.46.238,hesp_baseline,2021.2.3,Win32,59.95203837
,,,,,,,,,,,,,,,,,dorzéjnek,dorzéjnak,left,2.63,0,127,127,29,1,138,dorzéj,dorzéj,nak,é,Ez itt egy dorzéj.,Elneveztem a kutyámat...,dorzéjnek,dorzéjnak,dzsungel,NA,NA,PR2056,1986,nő,nem,2022-04-14_12h38.46.238,hesp_baseline,2021.2.3,Win32,59.95203837
,,,,,,,,,,,,,,,,,zinednak,zinednek,right,3.53,0,128,128,22,1,131,zined,zined,nak,e,Ez itt egy zined.,Elneveztem a kutyámat...,zinednek,zinednak,dzsungel,NA,NA,PR2056,1986,nő,nem,2022-04-14_12h38.46.238,hesp_baseline,2021.2.3,Win32,59.95203837
,,,,,,,,,,,,,,,,,sűzlök,sűzlöm,left,2.528,0,129,129,54,1,109,sűzlik,sűzlesz,NA,NA,Te bizony sokat sűzlesz.,Én is sokat...,sűzlök,sűzlöm,lakik,-lik,1,PR2056,1986,nő,nem,2022-04-14_12h38.46.238,hesp_baseline,2021.2.3,Win32,59.95203837
,,,,,,,,,,,,,,,,,klégezünk,kléglünk,left,4.819,0,130,130,122,1,123,kléglik / klégezik,"kléglik, klégezni",ünk,NA,"János imád klégezni, ezért sokat kléglik.",Mi ritkán...,kléglünk,klégezünk,cselekszik,-lik,1,PR2056,1986,nő,nem,2022-04-14_12h38.46.238,hesp_baseline,2021.2.3,Win32,59.95203837
,,,,,,,,,,,,,,,,,zödlöm,zödlök,right,2.029,0,131,131,106,1,161,zödlik,zödlesz,NA,NA,Te bizony sokat zödlesz.,Én is sokat...,zödlök,zödlöm,lakik,-lik,1,PR2056,1986,nő,nem,2022-04-14_12h38.46.238,hesp_baseline,2021.2.3,Win32,59.95203837
,,,,,,,,,,,,,,,,,mágamozunk,mágamlunk,left,4.247,0,132,132,140,1,141,mágamlik / mágamozik,"mágamlik, mágamozni",ünk,NA,"János imád mágamozni, ezért sokat mágamlik.",Mi ritkán...,mágamlunk,mágamozunk,cselekszik,-lik,2,PR2056,1986,nő,nem,2022-04-14_12h38.46.238,hesp_baseline,2021.2.3,Win32,59.95203837
,,,,,,,,,,,,,,,,,zsáderben,zsáderban,right,3.834,0,133,133,25,1,134,zsáder,zsáder,ban,e,Ez itt egy zsáder.,Ott vagyunk a...,zsáderben,zsáderban,dzsungel,NA,NA,PR2056,1986,nő,nem,2022-04-14_12h38.46.238,hesp_baseline,2021.2.3,Win32,59.95203837
,,,,,,,,,,,,,,,,,pribagszok,pribagszom,left,2.283,0,134,134,76,1,131,pribagszik,pribagszol,NA,NA,Te bizony sokat pribagszol.,Én is sokat...,pribagszok,pribagszom,lakik,-szik,2,PR2056,1986,nő,nem,2022-04-14_12h38.46.238,hesp_baseline,2021.2.3,Win32,59.95203837
,,,,,,,,,,,,,,,,,spanélnél,spanélnál,right,6.694,0,135,135,24,1,133,spanél,spanél,nál,é,Ez itt egy spanél.,Nincs is jobb egy jó...,spanélnél,spanélnál,dzsungel,NA,NA,PR2056,1986,nő,nem,2022-04-14_12h38.46.238,hesp_baseline,2021.2.3,Win32,59.95203837
,,,,,,,,,,,,,,,,,frilegszem,frilegszek,right,2.05,0,136,136,72,1,127,frilegszik,frilegszel,NA,NA,Te bizony sokat frilegszel.,Én is sokat...,frilegszek,frilegszem,lakik,-szik,2,PR2056,1986,nő,nem,2022-04-14_12h38.46.238,hesp_baseline,2021.2.3,Win32,59.95203837
,,,,,,,,,,,,,,,,,zábénynek,zábénynak,right,5.364,0,137,137,43,1,152,zábény,zábény,nak,é,Ez itt egy zábény.,Elneveztem a kutyámat...,zábénynek,zábénynak,dzsungel,NA,NA,PR2056,1986,nő,nem,2022-04-14_12h38.46.238,hesp_baseline,2021.2.3,Win32,59.95203837
,,,,,,,,,,,,,,,,,pehégszetek,pehégedtek,right,4.905,0,138,138,151,1,152,pehégszik / pehégedik,"pehégszik, pehégedni",tek,NA,"János imád pehégedni, ezért sokat pehégszik.",Ti ritkán...,pehégszetek,pehégedtek,cselekszik,-szik,2,PR2056,1986,nő,nem,2022-04-14_12h38.46.238,hesp_baseline,2021.2.3,Win32,59.95203837
,,,,,,,,,,,,,,,,,briskédnál,briskédnél,right,2.477,0,139,139,51,1,160,briskéd,briskéd,nál,é,Ez itt egy briskéd.,Nincs is jobb egy jó...,briskédnél,briskédnál,dzsungel,NA,NA,PR2056,1986,nő,nem,2022-04-14_12h38.46.238,hesp_baseline,2021.2.3,Win32,59.95203837
,,,,,,,,,,,,,,,,,spülőrzök,spülőrzöm,left,2.312,0,140,140,69,1,124,spülőrzik,spülőrzöl,NA,NA,Te bizony sokat spülőrzöl.,Én is sokat...,spülőrzök,spülőrzöm,lakik,-zik,2,PR2056,1986,nő,nem,2022-04-14_12h38.46.238,hesp_baseline,2021.2.3,Win32,59.95203837
,,,,,,,,,,,,,,,,,spiráglotok,spirágoztok,right,4.213,0,141,141,135,1,136,spiráglik / spirágozik,"spiráglik, spirágozni",tek,NA,"János imád spirágozni, ezért sokat spiráglik.",Ti ritkán...,spiráglotok,spirágoztok,cselekszik,-lik,2,PR2056,1986,nő,nem,2022-04-14_12h38.46.238,hesp_baseline,2021.2.3,Win32,59.95203837
,,,,,,,,,,,,,,,,,nyítemben,nyítemban,left,2.953,0,142,142,41,1,150,nyítem,nyítem,ban,e,Ez itt egy nyítem.,Ott vagyunk a...,nyítemben,nyítemban,dzsungel,NA,NA,PR2056,1986,nő,nem,2022-04-14_12h38.46.238,hesp_baseline,2021.2.3,Win32,59.95203837
,,,,,,,,,,,,,,,,,pazévnél,pazévnál,left,9.494,0,143,143,36,1,145,pazév,pazév,nál,é,Ez itt egy pazév.,Nincs is jobb egy jó...,pazévnél,pazévnál,dzsungel,NA,NA,PR2056,1986,nő,nem,2022-04-14_12h38.46.238,hesp_baseline,2021.2.3,Win32,59.95203837
,,,,,,,,,,,,,,,,,spröbzöm,spröbzök,right,4.796,0,144,144,90,1,145,spröbzik,spröbzöl,NA,NA,Te bizony sokat spröbzöl.,Én is sokat...,spröbzök,spröbzöm,lakik,-zik,1,PR2056,1986,nő,nem,2022-04-14_12h38.46.238,hesp_baseline,2021.2.3,Win32,59.95203837
,,,,,,,,,,,,,,,,,trapszegynál,trapszegynél,right,9.694,0,145,145,39,1,148,trapszegy,trapszegy,nál,e,Ez itt egy trapszegy.,Nincs is jobb egy jó...,trapszegynél,trapszegynál,dzsungel,NA,NA,PR2056,1986,nő,nem,2022-04-14_12h38.46.238,hesp_baseline,2021.2.3,Win32,59.95203837
,,,,,,,,,,,,,,,,,vubletnál,vubletnél,right,2.632,0,146,146,26,1,135,vublet,vublet,nál,e,Ez itt egy vublet.,Nincs is jobb egy jó...,vubletnél,vubletnál,dzsungel,NA,NA,PR2056,1986,nő,nem,2022-04-14_12h38.46.238,hesp_baseline,2021.2.3,Win32,59.95203837
,,,,,,,,,,,,,,,,,trugokoznak,trugoklanak,left,5.313,0,147,147,109,1,110,trugoklik / trugokozik,"trugoklik, trugokozni",nek,NA,"János imád trugokozni, ezért sokat trugoklik.",Ők ritkán...,trugoklanak,trugokoznak,cselekszik,-lik,2,PR2056,1986,nő,nem,2022-04-14_12h38.46.238,hesp_baseline,2021.2.3,Win32,59.95203837
,,,,,,,,,,,,,,,,,vihepszek,vihepszem,left,3.703,0,148,148,59,1,114,vihepszik,vihepszel,NA,NA,Te bizony sokat vihepszel.,Én is sokat...,vihepszek,vihepszem,lakik,-szik,2,PR2056,1986,nő,nem,2022-04-14_12h38.46.238,hesp_baseline,2021.2.3,Win32,59.95203837
,,,,,,,,,,,,,,,,,dibezben,dibezban,left,111.066,0,149,149,27,1,136,dibez,dibez,ban,e,Ez itt egy dibez.,Ott vagyunk a...,dibezben,dibezban,dzsungel,NA,NA,PR2056,1986,nő,nem,2022-04-14_12h38.46.238,hesp_baseline,2021.2.3,Win32,59.95203837
,,,,,,,,,,,,,,,,,pragányoztok,pragánylotok,left,3.239,0,150,150,133,1,134,pragánylik / pragányozik,"pragánylik, pragányozni",tek,NA,"János imád pragányozni, ezért sokat pragánylik.",Ti ritkán...,pragánylotok,pragányoztok,cselekszik,-lik,2,PR2056,1986,nő,nem,2022-04-14_12h38.46.238,hesp_baseline,2021.2.3,Win32,59.95203837
,,,,,,,,,,,,,,,,,siladzok,siladzom,right,3.845,0,151,151,93,1,148,siladzik,siladzol,NA,NA,Te bizony sokat siladzol.,Én is sokat...,siladzok,siladzom,lakik,-zik,2,PR2056,1986,nő,nem,2022-04-14_12h38.46.238,hesp_baseline,2021.2.3,Win32,59.95203837
,,,,,,,,,,,,,,,,,düjzöm,düjzök,left,3.179,0,152,152,97,1,152,düjzik,düjzöl,NA,NA,Te bizony sokat düjzöl.,Én is sokat...,düjzök,düjzöm,lakik,-zik,1,PR2056,1986,nő,nem,2022-04-14_12h38.46.238,hesp_baseline,2021.2.3,Win32,59.95203837
,,,,,,,,,,,,,,,,,klétszem,klétszek,right,3.896,0,153,153,60,1,115,klétszik,klétszel,NA,NA,Te bizony sokat klétszel.,Én is sokat...,klétszek,klétszem,lakik,-szik,1,PR2056,1986,nő,nem,2022-04-14_12h38.46.238,hesp_baseline,2021.2.3,Win32,59.95203837
,,,,,,,,,,,,,,,,,filányozunk,filánylunk,left,8.615,0,154,154,134,1,135,filánylik / filányozik,"filánylik, filányozni",ünk,NA,"János imád filányozni, ezért sokat filánylik.",Mi ritkán...,filánylunk,filányozunk,cselekszik,-lik,2,PR2056,1986,nő,nem,2022-04-14_12h38.46.238,hesp_baseline,2021.2.3,Win32,59.95203837
,,,,,,,,,,,,,,,,,trilszok,trilszom,right,3.402,0,155,155,103,1,158,trilszik,trilszol,NA,NA,Te bizony sokat trilszol.,Én is sokat...,trilszok,trilszom,lakik,-szik,1,PR2056,1986,nő,nem,2022-04-14_12h38.46.238,hesp_baseline,2021.2.3,Win32,59.95203837
,,,,,,,,,,,,,,,,,gerénylem,gerénylek,right,8.581,0,156,156,99,1,154,gerénylik,gerénylesz,NA,NA,Te bizony sokat gerénylesz.,Én is sokat...,gerénylek,gerénylem,lakik,-lik,2,PR2056,1986,nő,nem,2022-04-14_12h38.46.238,hesp_baseline,2021.2.3,Win32,59.95203837
,,,,,,,,,,,,,,,,,hűgzök,hűgzöm,right,3.195,0,157,157,107,1,162,hűgzik,hűgzöl,NA,NA,Te bizony sokat hűgzöl.,Én is sokat...,hűgzök,hűgzöm,lakik,-zik,1,PR2056,1986,nő,nem,2022-04-14_12h38.46.238,hesp_baseline,2021.2.3,Win32,59.95203837
,,,,,,,,,,,,,,,,,sztredeztek,sztredletek,right,5.271,0,158,158,145,1,146,sztredlik / sztredezik,"sztredlik, sztredezni",tek,NA,"János imád sztredezni, ezért sokat sztredlik.",Ti ritkán...,sztredletek,sztredeztek,cselekszik,-lik,1,PR2056,1986,nő,nem,2022-04-14_12h38.46.238,hesp_baseline,2021.2.3,Win32,59.95203837
,,,,,,,,,,,,,,,,,drilarozunk,drilarzunk,left,3.856,0,159,159,131,1,132,drilarzik / drilarozik,"drilarzik, drilarozni",ünk,NA,"János imád drilarozni, ezért sokat drilarzik.",Mi ritkán...,drilarzunk,drilarozunk,cselekszik,-zik,2,PR2056,1986,nő,nem,2022-04-14_12h38.46.238,hesp_baseline,2021.2.3,Win32,59.95203837
,,,,,,,,,,,,,,,,,trivakodunk,trivakszunk,left,3.532,0,160,160,118,1,119,trivakszik / trivakodik,"trivakszik, trivakodni",ünk,NA,"János imád trivakodni, ezért sokat trivakszik.",Mi ritkán...,trivakszunk,trivakodunk,cselekszik,-szik,2,PR2056,1986,nő,nem,2022-04-14_12h38.46.238,hesp_baseline,2021.2.3,Win32,59.95203837
,,,,,,,,,,,,,,,,,kláragodtok,kláragszotok,left,23.793,0,161,161,123,1,124,kláragszik / kláragodik,"kláragszik, kláragodni",tek,NA,"János imád kláragodni, ezért sokat kláragszik.",Ti ritkán...,kláragszotok,kláragodtok,cselekszik,-szik,2,PR2056,1986,nő,nem,2022-04-14_12h38.46.238,hesp_baseline,2021.2.3,Win32,59.95203837
