my_list,key.keys,key.rt,key_2.keys,key_2.rt,keyboard_input_2.keys,keyboard_input_2.rt,key_3.keys,key_3.rt,keyboard_input_3.keys,keyboard_input_3.rt,key_4.keys,key_4.rt,keyboard_input_4.keys,keyboard_input_4.rt,key_5.keys,key_5.rt,my_button1,my_button2,keyboard_input.keys,keyboard_input.rt,withinBlock.thisRepN,withinBlock.thisTrialN,withinBlock.thisN,withinBlock.thisIndex,withinBlock.ran,rowname,word,prompt,suffix,vowel,carrier_sentence,target_sentence,target1,target2,category,derivational,nsyl,Azonosító,Melyik évben születtél?,Mi a nemed?,Tanultál nyelvészetet?,date,expName,psychopyVersion,OS,frameRate
list1.csv,space,29.0506,space,7.7207,right,4.3854,space,13.6253,left,3.4242,space,7.0522,left,5.3091,space,13.0135,zsalrénnek,zsalrénnak,right,9.4775,0,0,0,19,1,20,zsalrén,zsalrén,nak,é,Ez itt egy zsalrén.,Elneveztem a kutyámat...,zsalrénnek,zsalrénnak,dzsungel,NA,NA,PR2048,2002,nő,nem,2022-04-13_14h34.46.523,hesp_baseline,2021.2.3,Win32,59.94125757
,,,,,,,,,,,,,,,,,matézban,matézben,left,14.1495,0,1,1,37,1,38,matéz,matéz,ban,é,Ez itt egy matéz.,Ott vagyunk a...,matézben,matézban,dzsungel,NA,NA,PR2048,2002,nő,nem,2022-04-13_14h34.46.523,hesp_baseline,2021.2.3,Win32,59.94125757
,,,,,,,,,,,,,,,,,spicetnek,spicetnak,right,6.9862,0,2,2,35,1,36,spicet,spicet,nak,e,Ez itt egy spicet.,Elneveztem a kutyámat...,spicetnek,spicetnak,dzsungel,NA,NA,PR2048,2002,nő,nem,2022-04-13_14h34.46.523,hesp_baseline,2021.2.3,Win32,59.94125757
,,,,,,,,,,,,,,,,,sprudozunk,sprudlunk,left,16.4362,0,3,3,136,1,29,sprudlik / sprudozik,"sprudlik, sprudozni",ünk,NA,"János imád sprudozni, ezért sokat sprudlik.",Mi ritkán...,sprudlunk,sprudozunk,cselekszik,-lik,1,PR2048,2002,nő,nem,2022-04-13_14h34.46.523,hesp_baseline,2021.2.3,Win32,59.94125757
,,,,,,,,,,,,,,,,,zsúdelnak,zsúdelnek,right,5.9377,0,4,4,14,1,15,zsúdel,zsúdel,nak,e,Ez itt egy zsúdel.,Elneveztem a kutyámat...,zsúdelnek,zsúdelnak,dzsungel,NA,NA,PR2048,2002,nő,nem,2022-04-13_14h34.46.523,hesp_baseline,2021.2.3,Win32,59.94125757
,,,,,,,,,,,,,,,,,brözlötök,brözöztök,left,29.7634,0,5,5,145,1,38,brözlik / brözözik,"brözlik, brözözni",tek,NA,"János imád brözözni, ezért sokat brözlik.",Ti ritkán...,brözlötök,brözöztök,cselekszik,-lik,1,PR2048,2002,nő,nem,2022-04-13_14h34.46.523,hesp_baseline,2021.2.3,Win32,59.94125757
,,,,,,,,,,,,,,,,,mádépnál,mádépnél,left,5.8254,0,6,6,1,1,2,mádép,mádép,nál,é,Ez itt egy mádép.,Nincs is jobb egy jó...,mádépnél,mádépnál,dzsungel,NA,NA,PR2048,2002,nő,nem,2022-04-13_14h34.46.523,hesp_baseline,2021.2.3,Win32,59.94125757
,,,,,,,,,,,,,,,,,spélszem,spélszek,right,10.5756,0,7,7,68,1,15,spélszik,spélszel,NA,NA,Te bizony sokat spélszel.,Én is sokat...,spélszek,spélszem,lakik,-szik,1,PR2048,2002,nő,nem,2022-04-13_14h34.46.523,hesp_baseline,2021.2.3,Win32,59.94125757
,,,,,,,,,,,,,,,,,brivakoztok,brivaklotok,left,6.0354,0,8,8,134,1,27,brivaklik / brivakozik,"brivaklik, brivakozni",tek,NA,"János imád brivakozni, ezért sokat brivaklik.",Ti ritkán...,brivaklotok,brivakoztok,cselekszik,-lik,2,PR2048,2002,nő,nem,2022-04-13_14h34.46.523,hesp_baseline,2021.2.3,Win32,59.94125757
,,,,,,,,,,,,,,,,,narádzok,narádzom,left,11.464,0,9,9,63,1,10,narádzik,narádzol,NA,NA,Te bizony sokat narádzol.,Én is sokat...,narádzok,narádzom,lakik,-zik,2,PR2048,2002,nő,nem,2022-04-13_14h34.46.523,hesp_baseline,2021.2.3,Win32,59.94125757
,,,,,,,,,,,,,,,,,míslunk,mísozunk,left,8.5018,0,10,10,123,1,16,míslik / mísozik,"míslik, mísozni",ünk,NA,"János imád mísozni, ezért sokat míslik.",Mi ritkán...,míslunk,mísozunk,cselekszik,-lik,1,PR2048,2002,nő,nem,2022-04-13_14h34.46.523,hesp_baseline,2021.2.3,Win32,59.94125757
,,,,,,,,,,,,,,,,,pebzek,pebzem,left,3.4676,0,11,11,57,1,4,pebzik,pebzel,NA,NA,Te bizony sokat pebzel.,Én is sokat...,pebzek,pebzem,lakik,-zik,1,PR2048,2002,nő,nem,2022-04-13_14h34.46.523,hesp_baseline,2021.2.3,Win32,59.94125757
,,,,,,,,,,,,,,,,,kaszépnek,kaszépnak,left,5.7754,0,12,12,40,1,41,kaszép,kaszép,nak,é,Ez itt egy kaszép.,Elneveztem a kutyámat...,kaszépnek,kaszépnak,dzsungel,NA,NA,PR2048,2002,nő,nem,2022-04-13_14h34.46.523,hesp_baseline,2021.2.3,Win32,59.94125757
,,,,,,,,,,,,,,,,,dujoznak,dujzanak,right,17.8229,0,13,13,128,1,21,dujzik / dujozik,"dujzik, dujozni",nek,NA,"János imád dujozni, ezért sokat dujzik.",Ők ritkán...,dujzanak,dujoznak,cselekszik,-zik,1,PR2048,2002,nő,nem,2022-04-13_14h34.46.523,hesp_baseline,2021.2.3,Win32,59.94125757
,,,,,,,,,,,,,,,,,géregeztek,géregletek,right,8.0026,0,14,14,124,1,17,géreglik / géregezik,"géreglik, géregezni",tek,NA,"János imád géregezni, ezért sokat géreglik.",Ti ritkán...,géregletek,géregeztek,cselekszik,-lik,2,PR2048,2002,nő,nem,2022-04-13_14h34.46.523,hesp_baseline,2021.2.3,Win32,59.94125757
,,,,,,,,,,,,,,,,,hiragoznak,hiragzanak,right,9.1671,0,15,15,119,1,12,hiragzik / hiragozik,"hiragzik, hiragozni",nek,NA,"János imád hiragozni, ezért sokat hiragzik.",Ők ritkán...,hiragzanak,hiragoznak,cselekszik,-zik,2,PR2048,2002,nő,nem,2022-04-13_14h34.46.523,hesp_baseline,2021.2.3,Win32,59.94125757
,,,,,,,,,,,,,,,,,spilágzok,spilágzom,left,6.8606,0,16,16,76,1,23,spilágzik,spilágzol,NA,NA,Te bizony sokat spilágzol.,Én is sokat...,spilágzok,spilágzom,lakik,-zik,2,PR2048,2002,nő,nem,2022-04-13_14h34.46.523,hesp_baseline,2021.2.3,Win32,59.94125757
,,,,,,,,,,,,,,,,,herégszek,herégszem,left,4.1852,0,17,17,54,1,1,herégszik,herégszel,NA,NA,Te bizony sokat herégszel.,Én is sokat...,herégszek,herégszem,lakik,-szik,2,PR2048,2002,nő,nem,2022-04-13_14h34.46.523,hesp_baseline,2021.2.3,Win32,59.94125757
,,,,,,,,,,,,,,,,,livaklok,livaklom,left,3.6009,0,18,18,82,1,29,livaklik,livaklasz,NA,NA,Te bizony sokat livaklasz.,Én is sokat...,livaklok,livaklom,lakik,-lik,2,PR2048,2002,nő,nem,2022-04-13_14h34.46.523,hesp_baseline,2021.2.3,Win32,59.94125757
,,,,,,,,,,,,,,,,,friheglünk,frihegezünk,left,7.283,0,19,19,132,1,25,friheglik / frihegezik,"friheglik, frihegezni",ünk,NA,"János imád frihegezni, ezért sokat friheglik.",Mi ritkán...,friheglünk,frihegezünk,cselekszik,-lik,2,PR2048,2002,nő,nem,2022-04-13_14h34.46.523,hesp_baseline,2021.2.3,Win32,59.94125757
,,,,,,,,,,,,,,,,,dábegyben,dábegyban,left,2.9996,0,20,20,6,1,7,dábegy,dábegy,ban,e,Ez itt egy dábegy.,Ott vagyunk a...,dábegyben,dábegyban,dzsungel,NA,NA,PR2048,2002,nő,nem,2022-04-13_14h34.46.523,hesp_baseline,2021.2.3,Win32,59.94125757
,,,,,,,,,,,,,,,,,bügzenek,bügöznek,left,8.1181,0,21,21,118,1,11,bügzik / bügözik,"bügzik, bügözni",nek,NA,"János imád bügözni, ezért sokat bügzik.",Ők ritkán...,bügzenek,bügöznek,cselekszik,-zik,1,PR2048,2002,nő,nem,2022-04-13_14h34.46.523,hesp_baseline,2021.2.3,Win32,59.94125757
,,,,,,,,,,,,,,,,,bribaslanak,bribasoznak,left,12.7618,0,22,22,121,1,14,bribaslik / bribasozik,"bribaslik, bribasozni",nek,NA,"János imád bribasozni, ezért sokat bribaslik.",Ők ritkán...,bribaslanak,bribasoznak,cselekszik,-lik,2,PR2048,2002,nő,nem,2022-04-13_14h34.46.523,hesp_baseline,2021.2.3,Win32,59.94125757
,,,,,,,,,,,,,,,,,frakozunk,fraklunk,left,7.2166,0,23,23,159,1,52,fraklik / frakozik,"fraklik, frakozni",ünk,NA,"János imád frakozni, ezért sokat fraklik.",Mi ritkán...,fraklunk,frakozunk,cselekszik,-lik,1,PR2048,2002,nő,nem,2022-04-13_14h34.46.523,hesp_baseline,2021.2.3,Win32,59.94125757
,,,,,,,,,,,,,,,,,zsopédban,zsopédben,right,5.5012,0,24,24,50,1,51,zsopéd,zsopéd,ban,é,Ez itt egy zsopéd.,Ott vagyunk a...,zsopédben,zsopédban,dzsungel,NA,NA,PR2048,2002,nő,nem,2022-04-13_14h34.46.523,hesp_baseline,2021.2.3,Win32,59.94125757
,,,,,,,,,,,,,,,,,lumézben,lumézban,left,3.0442,0,25,25,32,1,33,luméz,luméz,ban,é,Ez itt egy luméz.,Ott vagyunk a...,lumézben,lumézban,dzsungel,NA,NA,PR2048,2002,nő,nem,2022-04-13_14h34.46.523,hesp_baseline,2021.2.3,Win32,59.94125757
,,,,,,,,,,,,,,,,,feténylek,feténylem,left,3.192,0,26,26,85,1,32,feténylik,feténylesz,NA,NA,Te bizony sokat feténylesz.,Én is sokat...,feténylek,feténylem,lakik,-lik,2,PR2048,2002,nő,nem,2022-04-13_14h34.46.523,hesp_baseline,2021.2.3,Win32,59.94125757
,,,,,,,,,,,,,,,,,plövőrzöm,plövőrzök,right,9.0745,0,27,27,58,1,5,plövőrzik,plövőrzöl,NA,NA,Te bizony sokat plövőrzöl.,Én is sokat...,plövőrzök,plövőrzöm,lakik,-zik,2,PR2048,2002,nő,nem,2022-04-13_14h34.46.523,hesp_baseline,2021.2.3,Win32,59.94125757
,,,,,,,,,,,,,,,,,naremben,naremban,left,4.1898,0,28,28,2,1,3,narem,narem,ban,e,Ez itt egy narem.,Ott vagyunk a...,naremben,naremban,dzsungel,NA,NA,PR2048,2002,nő,nem,2022-04-13_14h34.46.523,hesp_baseline,2021.2.3,Win32,59.94125757
,,,,,,,,,,,,,,,,,pítszom,pítszok,right,4.04,0,29,29,62,1,9,pítszik,pítszol,NA,NA,Te bizony sokat pítszol.,Én is sokat...,pítszok,pítszom,lakik,-szik,1,PR2048,2002,nő,nem,2022-04-13_14h34.46.523,hesp_baseline,2021.2.3,Win32,59.94125757
,,,,,,,,,,,,,,,,,tágarzunk,tágarozunk,left,13.0521,0,30,30,155,1,48,tágarzik / tágarozik,"tágarzik, tágarozni",ünk,NA,"János imád tágarozni, ezért sokat tágarzik.",Mi ritkán...,tágarzunk,tágarozunk,cselekszik,-zik,2,PR2048,2002,nő,nem,2022-04-13_14h34.46.523,hesp_baseline,2021.2.3,Win32,59.94125757
,,,,,,,,,,,,,,,,,jalrénynél,jalrénynál,right,4.749,0,31,31,0,1,1,jalrény,jalrény,nál,é,Ez itt egy jalrény.,Nincs is jobb egy jó...,jalrénynél,jalrénynál,dzsungel,NA,NA,PR2048,2002,nő,nem,2022-04-13_14h34.46.523,hesp_baseline,2021.2.3,Win32,59.94125757
,,,,,,,,,,,,,,,,,bregzünk,bregezünk,left,2.8002,0,32,32,139,1,32,bregzik / bregezik,"bregzik, bregezni",ünk,NA,"János imád bregezni, ezért sokat bregzik.",Mi ritkán...,bregzünk,bregezünk,cselekszik,-zik,1,PR2048,2002,nő,nem,2022-04-13_14h34.46.523,hesp_baseline,2021.2.3,Win32,59.94125757
,,,,,,,,,,,,,,,,,dunkészban,dunkészben,right,2.8256,0,33,33,24,1,25,dunkész,dunkész,ban,é,Ez itt egy dunkész.,Ott vagyunk a...,dunkészben,dunkészban,dzsungel,NA,NA,PR2048,2002,nő,nem,2022-04-13_14h34.46.523,hesp_baseline,2021.2.3,Win32,59.94125757
,,,,,,,,,,,,,,,,,flehénylek,flehénylem,left,6.4168,0,34,34,106,1,53,flehénylik,flehénylesz,NA,NA,Te bizony sokat flehénylesz.,Én is sokat...,flehénylek,flehénylem,lakik,-lik,2,PR2048,2002,nő,nem,2022-04-13_14h34.46.523,hesp_baseline,2021.2.3,Win32,59.94125757
,,,,,,,,,,,,,,,,,gyibeslem,gyibeslek,right,3.878,0,35,35,98,1,45,gyibeslik,gyibeslesz,NA,NA,Te bizony sokat gyibeslesz.,Én is sokat...,gyibeslek,gyibeslem,lakik,-lik,2,PR2048,2002,nő,nem,2022-04-13_14h34.46.523,hesp_baseline,2021.2.3,Win32,59.94125757
,,,,,,,,,,,,,,,,,bralképban,bralképben,right,6.8096,0,36,36,12,1,13,bralkép,bralkép,ban,é,Ez itt egy bralkép.,Ott vagyunk a...,bralképben,bralképban,dzsungel,NA,NA,PR2048,2002,nő,nem,2022-04-13_14h34.46.523,hesp_baseline,2021.2.3,Win32,59.94125757
,,,,,,,,,,,,,,,,,tivencban,tivencben,right,2.5364,0,37,37,53,1,54,tivenc,tivenc,ban,e,Ez itt egy tivenc.,Ott vagyunk a...,tivencben,tivencban,dzsungel,NA,NA,PR2048,2002,nő,nem,2022-04-13_14h34.46.523,hesp_baseline,2021.2.3,Win32,59.94125757
,,,,,,,,,,,,,,,,,spűmlöm,spűmlök,right,2.8928,0,38,38,86,1,33,spűmlik,spűmlesz,NA,NA,Te bizony sokat spűmlesz.,Én is sokat...,spűmlök,spűmlöm,lakik,-lik,1,PR2048,2002,nő,nem,2022-04-13_14h34.46.523,hesp_baseline,2021.2.3,Win32,59.94125757
,,,,,,,,,,,,,,,,,drügzök,drügzöm,left,10.8812,0,39,39,72,1,19,drügzik,drügzöl,NA,NA,Te bizony sokat drügzöl.,Én is sokat...,drügzök,drügzöm,lakik,-zik,1,PR2048,2002,nő,nem,2022-04-13_14h34.46.523,hesp_baseline,2021.2.3,Win32,59.94125757
,,,,,,,,,,,,,,,,,gonszéknél,gonszéknál,right,3.2693,0,40,40,38,1,39,gonszék,gonszék,nál,é,Ez itt egy gonszék.,Nincs is jobb egy jó...,gonszéknél,gonszéknál,dzsungel,NA,NA,PR2048,2002,nő,nem,2022-04-13_14h34.46.523,hesp_baseline,2021.2.3,Win32,59.94125757
,,,,,,,,,,,,,,,,,incéjnek,incéjnak,left,2.2506,0,41,41,30,1,31,incéj,incéj,nak,é,Ez itt egy incéj.,Elneveztem a kutyámat...,incéjnek,incéjnak,dzsungel,NA,NA,PR2048,2002,nő,nem,2022-04-13_14h34.46.523,hesp_baseline,2021.2.3,Win32,59.94125757
,,,,,,,,,,,,,,,,,lorzensnél,lorzensnál,right,11.5334,0,42,42,34,1,35,lorzens,lorzens,nál,e,Ez itt egy lorzens.,Nincs is jobb egy jó...,lorzensnél,lorzensnál,dzsungel,NA,NA,PR2048,2002,nő,nem,2022-04-13_14h34.46.523,hesp_baseline,2021.2.3,Win32,59.94125757
,,,,,,,,,,,,,,,,,sihennál,sihennél,right,2.9642,0,43,43,18,1,19,sihen,sihen,nál,e,Ez itt egy sihen.,Nincs is jobb egy jó...,sihennél,sihennál,dzsungel,NA,NA,PR2048,2002,nő,nem,2022-04-13_14h34.46.523,hesp_baseline,2021.2.3,Win32,59.94125757
,,,,,,,,,,,,,,,,,buhényben,buhényban,right,4.6349,0,44,44,43,1,44,buhény,buhény,ban,é,Ez itt egy buhény.,Ott vagyunk a...,buhényben,buhényban,dzsungel,NA,NA,PR2048,2002,nő,nem,2022-04-13_14h34.46.523,hesp_baseline,2021.2.3,Win32,59.94125757
,,,,,,,,,,,,,,,,,brüszöztök,brüszlötök,right,9.5756,0,45,45,130,1,23,brüszlik / brüszözik,"brüszlik, brüszözni",tek,NA,"János imád brüszözni, ezért sokat brüszlik.",Ti ritkán...,brüszlötök,brüszöztök,cselekszik,-lik,1,PR2048,2002,nő,nem,2022-04-13_14h34.46.523,hesp_baseline,2021.2.3,Win32,59.94125757
,,,,,,,,,,,,,,,,,dutecnál,dutecnél,right,2.8472,0,46,46,22,1,23,dutec,dutec,nál,e,Ez itt egy dutec.,Nincs is jobb egy jó...,dutecnél,dutecnál,dzsungel,NA,NA,PR2048,2002,nő,nem,2022-04-13_14h34.46.523,hesp_baseline,2021.2.3,Win32,59.94125757
,,,,,,,,,,,,,,,,,sprédlek,sprédlem,left,5.5048,0,47,47,70,1,17,sprédlik,sprédlesz,NA,NA,Te bizony sokat sprédlesz.,Én is sokat...,sprédlek,sprédlem,lakik,-lik,1,PR2048,2002,nő,nem,2022-04-13_14h34.46.523,hesp_baseline,2021.2.3,Win32,59.94125757
,,,,,,,,,,,,,,,,,köszlötök,köszöztök,right,11.4846,0,48,48,120,1,13,köszlik / köszözik,"köszlik, köszözni",tek,NA,"János imád köszözni, ezért sokat köszlik.",Ti ritkán...,köszlötök,köszöztök,cselekszik,-lik,1,PR2048,2002,nő,nem,2022-04-13_14h34.46.523,hesp_baseline,2021.2.3,Win32,59.94125757
,,,,,,,,,,,,,,,,,marzom,marzok,right,5.7455,0,49,49,99,1,46,marzik,marzol,NA,NA,Te bizony sokat marzol.,Én is sokat...,marzok,marzom,lakik,-zik,1,PR2048,2002,nő,nem,2022-04-13_14h34.46.523,hesp_baseline,2021.2.3,Win32,59.94125757
,,,,,,,,,,,,,,,,,pliboztok,plibzotok,left,9.2921,0,50,50,140,1,33,plibzik / plibozik,"plibzik, plibozni",tek,NA,"János imád plibozni, ezért sokat plibzik.",Ti ritkán...,plibzotok,pliboztok,cselekszik,-zik,1,PR2048,2002,nő,nem,2022-04-13_14h34.46.523,hesp_baseline,2021.2.3,Win32,59.94125757
,,,,,,,,,,,,,,,,,drűrzenek,drűröznek,right,8.4825,0,51,51,126,1,19,drűrzik / drűrözik,"drűrzik, drűrözni",nek,NA,"János imád drűrözni, ezért sokat drűrzik.",Ők ritkán...,drűrzenek,drűröznek,cselekszik,-zik,1,PR2048,2002,nő,nem,2022-04-13_14h34.46.523,hesp_baseline,2021.2.3,Win32,59.94125757
,,,,,,,,,,,,,,,,,bölszöm,bölszök,right,5.2002,0,52,52,105,1,52,bölszik,bölszöl,NA,NA,Te bizony sokat bölszöl.,Én is sokat...,bölszök,bölszöm,lakik,-szik,1,PR2048,2002,nő,nem,2022-04-13_14h34.46.523,hesp_baseline,2021.2.3,Win32,59.94125757
,,,,,,,,,,,,,,,,,gatágozunk,gatáglunk,right,31.0472,0,53,53,137,1,30,gatáglik / gatágozik,"gatáglik, gatágozni",ünk,NA,"János imád gatágozni, ezért sokat gatáglik.",Mi ritkán...,gatáglunk,gatágozunk,cselekszik,-lik,2,PR2048,2002,nő,nem,2022-04-13_14h34.46.523,hesp_baseline,2021.2.3,Win32,59.94125757
,,,,,,,,,,,,,,,,,tragzom,tragzok,right,2.8706,0,54,54,90,1,37,tragzik,tragzol,NA,NA,Te bizony sokat tragzol.,Én is sokat...,tragzok,tragzom,lakik,-zik,1,PR2048,2002,nő,nem,2022-04-13_14h34.46.523,hesp_baseline,2021.2.3,Win32,59.94125757
,,,,,,,,,,,,,,,,,kalhésznak,kalhésznek,left,5.6949,0,55,55,46,1,47,kalhész,kalhész,nak,é,Ez itt egy kalhész.,Elneveztem a kutyámat...,kalhésznek,kalhésznak,dzsungel,NA,NA,PR2048,2002,nő,nem,2022-04-13_14h34.46.523,hesp_baseline,2021.2.3,Win32,59.94125757
,,,,,,,,,,,,,,,,,püzlötök,püzöztök,right,11.2658,0,56,56,152,1,45,püzlik / püzözik,"püzlik, püzözni",tek,NA,"János imád püzözni, ezért sokat püzlik.",Ti ritkán...,püzlötök,püzöztök,cselekszik,-lik,1,PR2048,2002,nő,nem,2022-04-13_14h34.46.523,hesp_baseline,2021.2.3,Win32,59.94125757
,,,,,,,,,,,,,,,,,huklok,huklom,right,4.467,0,57,57,78,1,25,huklik,huklasz,NA,NA,Te bizony sokat huklasz.,Én is sokat...,huklok,huklom,lakik,-lik,1,PR2048,2002,nő,nem,2022-04-13_14h34.46.523,hesp_baseline,2021.2.3,Win32,59.94125757
,,,,,,,,,,,,,,,,,préleglek,préleglem,right,5.686,0,58,58,104,1,51,préleglik,préleglesz,NA,NA,Te bizony sokat préleglesz.,Én is sokat...,préleglek,préleglem,lakik,-lik,2,PR2048,2002,nő,nem,2022-04-13_14h34.46.523,hesp_baseline,2021.2.3,Win32,59.94125757
,,,,,,,,,,,,,,,,,píjlom,píjlok,right,8.9919,0,59,59,75,1,22,píjlik,píjlasz,NA,NA,Te bizony sokat píjlasz.,Én is sokat...,píjlok,píjlom,lakik,-lik,1,PR2048,2002,nő,nem,2022-04-13_14h34.46.523,hesp_baseline,2021.2.3,Win32,59.94125757
,,,,,,,,,,,,,,,,,frélegezünk,frélegzünk,right,9.3818,0,60,60,147,1,40,frélegzik / frélegezik,"frélegzik, frélegezni",ünk,NA,"János imád frélegezni, ezért sokat frélegzik.",Mi ritkán...,frélegzünk,frélegezünk,cselekszik,-zik,2,PR2048,2002,nő,nem,2022-04-13_14h34.46.523,hesp_baseline,2021.2.3,Win32,59.94125757
,,,,,,,,,,,,,,,,,klordénynak,klordénynek,right,4.8667,0,61,61,9,1,10,klordény,klordény,nak,é,Ez itt egy klordény.,Elneveztem a kutyámat...,klordénynek,klordénynak,dzsungel,NA,NA,PR2048,2002,nő,nem,2022-04-13_14h34.46.523,hesp_baseline,2021.2.3,Win32,59.94125757
,,,,,,,,,,,,,,,,,monvegnál,monvegnél,right,10.8082,0,62,62,26,1,27,monveg,monveg,nál,e,Ez itt egy monveg.,Nincs is jobb egy jó...,monvegnél,monvegnál,dzsungel,NA,NA,PR2048,2002,nő,nem,2022-04-13_14h34.46.523,hesp_baseline,2021.2.3,Win32,59.94125757
,,,,,,,,,,,,,,,,,flivegzenek,flivegeznek,left,14.6154,0,63,63,138,1,31,flivegzik / flivegezik,"flivegzik, flivegezni",nek,NA,"János imád flivegezni, ezért sokat flivegzik.",Ők ritkán...,flivegzenek,flivegeznek,cselekszik,-zik,2,PR2048,2002,nő,nem,2022-04-13_14h34.46.523,hesp_baseline,2021.2.3,Win32,59.94125757
,,,,,,,,,,,,,,,,,nuhétnál,nuhétnél,right,3.5701,0,64,64,29,1,30,nuhét,nuhét,nál,é,Ez itt egy nuhét.,Nincs is jobb egy jó...,nuhétnél,nuhétnál,dzsungel,NA,NA,PR2048,2002,nő,nem,2022-04-13_14h34.46.523,hesp_baseline,2021.2.3,Win32,59.94125757
,,,,,,,,,,,,,,,,,flagárzom,flagárzok,right,3.7335,0,65,65,64,1,11,flagárzik,flagárzol,NA,NA,Te bizony sokat flagárzol.,Én is sokat...,flagárzok,flagárzom,lakik,-zik,2,PR2048,2002,nő,nem,2022-04-13_14h34.46.523,hesp_baseline,2021.2.3,Win32,59.94125757
,,,,,,,,,,,,,,,,,szibánylok,szibánylom,left,2.8613,0,66,66,67,1,14,szibánylik,szibánylasz,NA,NA,Te bizony sokat szibánylasz.,Én is sokat...,szibánylok,szibánylom,lakik,-lik,2,PR2048,2002,nő,nem,2022-04-13_14h34.46.523,hesp_baseline,2021.2.3,Win32,59.94125757
,,,,,,,,,,,,,,,,,nyülököznek,nyülöklenek,right,4.6503,0,67,67,108,1,1,nyülöklik / nyülöközik,"nyülöklik, nyülöközni",nek,NA,"János imád nyülöközni, ezért sokat nyülöklik.",Ők ritkán...,nyülöklenek,nyülököznek,cselekszik,-lik,2,PR2048,2002,nő,nem,2022-04-13_14h34.46.523,hesp_baseline,2021.2.3,Win32,59.94125757
,,,,,,,,,,,,,,,,,prilegzem,prilegzek,right,1.5698,0,68,68,79,1,26,prilegzik,prilegzel,NA,NA,Te bizony sokat prilegzel.,Én is sokat...,prilegzek,prilegzem,lakik,-zik,2,PR2048,2002,nő,nem,2022-04-13_14h34.46.523,hesp_baseline,2021.2.3,Win32,59.94125757
,,,,,,,,,,,,,,,,,fádensnek,fádensnak,right,5.8749,0,69,69,33,1,34,fádens,fádens,nak,e,Ez itt egy fádens.,Elneveztem a kutyámat...,fádensnek,fádensnak,dzsungel,NA,NA,PR2048,2002,nő,nem,2022-04-13_14h34.46.523,hesp_baseline,2021.2.3,Win32,59.94125757
,,,,,,,,,,,,,,,,,vismernál,vismernél,right,7.1166,0,70,70,13,1,14,vismer,vismer,nál,e,Ez itt egy vismer.,Nincs is jobb egy jó...,vismernél,vismernál,dzsungel,NA,NA,PR2048,2002,nő,nem,2022-04-13_14h34.46.523,hesp_baseline,2021.2.3,Win32,59.94125757
,,,,,,,,,,,,,,,,,flérlek,flérlem,left,2.8339,0,71,71,89,1,36,flérlik,flérlesz,NA,NA,Te bizony sokat flérlesz.,Én is sokat...,flérlek,flérlem,lakik,-lik,1,PR2048,2002,nő,nem,2022-04-13_14h34.46.523,hesp_baseline,2021.2.3,Win32,59.94125757
,,,,,,,,,,,,,,,,,vilakszom,vilakszok,right,1.9498,0,72,72,97,1,44,vilakszik,vilakszol,NA,NA,Te bizony sokat vilakszol.,Én is sokat...,vilakszok,vilakszom,lakik,-szik,2,PR2048,2002,nő,nem,2022-04-13_14h34.46.523,hesp_baseline,2021.2.3,Win32,59.94125757
,,,,,,,,,,,,,,,,,darhénban,darhénben,left,6.5771,0,73,73,27,1,28,darhén,darhén,ban,é,Ez itt egy darhén.,Ott vagyunk a...,darhénben,darhénban,dzsungel,NA,NA,PR2048,2002,nő,nem,2022-04-13_14h34.46.523,hesp_baseline,2021.2.3,Win32,59.94125757
,,,,,,,,,,,,,,,,,brarlok,brarlom,left,2.9755,0,74,74,71,1,18,brarlik,brarlasz,NA,NA,Te bizony sokat brarlasz.,Én is sokat...,brarlok,brarlom,lakik,-lik,1,PR2048,2002,nő,nem,2022-04-13_14h34.46.523,hesp_baseline,2021.2.3,Win32,59.94125757
,,,,,,,,,,,,,,,,,frorlanak,froroznak,left,6.2002,0,75,75,143,1,36,frorlik / frorozik,"frorlik, frorozni",nek,NA,"János imád frorozni, ezért sokat frorlik.",Ők ritkán...,frorlanak,froroznak,cselekszik,-lik,1,PR2048,2002,nő,nem,2022-04-13_14h34.46.523,hesp_baseline,2021.2.3,Win32,59.94125757
,,,,,,,,,,,,,,,,,brigesztnak,brigesztnek,right,5.233,0,76,76,48,1,49,brigeszt,brigeszt,nak,e,Ez itt egy brigeszt.,Elneveztem a kutyámat...,brigesztnek,brigesztnak,dzsungel,NA,NA,PR2048,2002,nő,nem,2022-04-13_14h34.46.523,hesp_baseline,2021.2.3,Win32,59.94125757
,,,,,,,,,,,,,,,,,spábétben,spábétban,right,11.0001,0,77,77,51,1,52,spábét,spábét,ban,é,Ez itt egy spábét.,Ott vagyunk a...,spábétben,spábétban,dzsungel,NA,NA,PR2048,2002,nő,nem,2022-04-13_14h34.46.523,hesp_baseline,2021.2.3,Win32,59.94125757
,,,,,,,,,,,,,,,,,prélemlenek,prélemeznek,left,7.6839,0,78,78,110,1,3,prélemlik / prélemezik,"prélemlik, prélemezni",nek,NA,"János imád prélemezni, ezért sokat prélemlik.",Ők ritkán...,prélemlenek,prélemeznek,cselekszik,-lik,2,PR2048,2002,nő,nem,2022-04-13_14h34.46.523,hesp_baseline,2021.2.3,Win32,59.94125757
,,,,,,,,,,,,,,,,,hurjorzom,hurjorzok,right,42.0024,0,79,79,59,1,6,hurjorzik,hurjorzol,NA,NA,Te bizony sokat hurjorzol.,Én is sokat...,hurjorzok,hurjorzom,lakik,-zik,2,PR2048,2002,nő,nem,2022-04-13_14h34.46.523,hesp_baseline,2021.2.3,Win32,59.94125757
,,,,,,,,,,,,,,,,,frinylunk,frinyozunk,left,4.7562,0,80,80,133,1,26,frinylik / frinyozik,"frinylik, frinyozni",ünk,NA,"János imád frinyozni, ezért sokat frinylik.",Mi ritkán...,frinylunk,frinyozunk,cselekszik,-lik,1,PR2048,2002,nő,nem,2022-04-13_14h34.46.523,hesp_baseline,2021.2.3,Win32,59.94125757
,,,,,,,,,,,,,,,,,jutélynál,jutélynél,left,4.4418,0,81,81,11,1,12,jutély,jutély,nál,é,Ez itt egy jutély.,Nincs is jobb egy jó...,jutélynél,jutélynál,dzsungel,NA,NA,PR2048,2002,nő,nem,2022-04-13_14h34.46.523,hesp_baseline,2021.2.3,Win32,59.94125757
,,,,,,,,,,,,,,,,,hóbensban,hóbensben,right,4.1307,0,82,82,3,1,4,hóbens,hóbens,ban,e,Ez itt egy hóbens.,Ott vagyunk a...,hóbensben,hóbensban,dzsungel,NA,NA,PR2048,2002,nő,nem,2022-04-13_14h34.46.523,hesp_baseline,2021.2.3,Win32,59.94125757
,,,,,,,,,,,,,,,,,salárzok,salárzom,left,2.8525,0,83,83,103,1,50,salárzik,salárzol,NA,NA,Te bizony sokat salárzol.,Én is sokat...,salárzok,salárzom,lakik,-zik,2,PR2048,2002,nő,nem,2022-04-13_14h34.46.523,hesp_baseline,2021.2.3,Win32,59.94125757
,,,,,,,,,,,,,,,,,filágzom,filágzok,right,1.2082,0,84,84,102,1,49,filágzik,filágzol,NA,NA,Te bizony sokat filágzol.,Én is sokat...,filágzok,filágzom,lakik,-zik,2,PR2048,2002,nő,nem,2022-04-13_14h34.46.523,hesp_baseline,2021.2.3,Win32,59.94125757
,,,,,,,,,,,,,,,,,diránylanak,dirányoznak,left,4.8744,0,85,85,122,1,15,diránylik / dirányozik,"diránylik, dirányozni",nek,NA,"János imád dirányozni, ezért sokat diránylik.",Ők ritkán...,diránylanak,dirányoznak,cselekszik,-lik,2,PR2048,2002,nő,nem,2022-04-13_14h34.46.523,hesp_baseline,2021.2.3,Win32,59.94125757
,,,,,,,,,,,,,,,,,frirzunk,frirozunk,left,9.9391,0,86,86,129,1,22,frirzik / frirozik,"frirzik, frirozni",ünk,NA,"János imád frirozni, ezért sokat frirzik.",Mi ritkán...,frirzunk,frirozunk,cselekszik,-zik,1,PR2048,2002,nő,nem,2022-04-13_14h34.46.523,hesp_baseline,2021.2.3,Win32,59.94125757
,,,,,,,,,,,,,,,,,csarténynek,csarténynak,right,3.1495,0,87,87,36,1,37,csartény,csartény,nak,é,Ez itt egy csartény.,Elneveztem a kutyámat...,csarténynek,csarténynak,dzsungel,NA,NA,PR2048,2002,nő,nem,2022-04-13_14h34.46.523,hesp_baseline,2021.2.3,Win32,59.94125757
,,,,,,,,,,,,,,,,,trukszotok,trukodtok,left,8.1937,0,88,88,157,1,50,trukszik / trukodik,"trukszik, trukodni",tek,NA,"János imád trukodni, ezért sokat trukszik.",Ti ritkán...,trukszotok,trukodtok,cselekszik,-szik,1,PR2048,2002,nő,nem,2022-04-13_14h34.46.523,hesp_baseline,2021.2.3,Win32,59.94125757
,,,,,,,,,,,,,,,,,kliszernál,kliszernél,right,3.9548,0,89,89,31,1,32,kliszer,kliszer,nál,e,Ez itt egy kliszer.,Nincs is jobb egy jó...,kliszernél,kliszernál,dzsungel,NA,NA,PR2048,2002,nő,nem,2022-04-13_14h34.46.523,hesp_baseline,2021.2.3,Win32,59.94125757
,,,,,,,,,,,,,,,,,tránélynak,tránélynek,right,4.5108,0,90,90,17,1,18,tránély,tránély,nak,é,Ez itt egy tránély.,Elneveztem a kutyámat...,tránélynek,tránélynak,dzsungel,NA,NA,PR2048,2002,nő,nem,2022-04-13_14h34.46.523,hesp_baseline,2021.2.3,Win32,59.94125757
,,,,,,,,,,,,,,,,,hilarzok,hilarzom,left,2.6334,0,91,91,69,1,16,hilarzik,hilarzol,NA,NA,Te bizony sokat hilarzol.,Én is sokat...,hilarzok,hilarzom,lakik,-zik,2,PR2048,2002,nő,nem,2022-04-13_14h34.46.523,hesp_baseline,2021.2.3,Win32,59.94125757
,,,,,,,,,,,,,,,,,flözlöm,flözlök,right,3.8149,0,92,92,74,1,21,flözlik,flözlesz,NA,NA,Te bizony sokat flözlesz.,Én is sokat...,flözlök,flözlöm,lakik,-lik,1,PR2048,2002,nő,nem,2022-04-13_14h34.46.523,hesp_baseline,2021.2.3,Win32,59.94125757
,,,,,,,,,,,,,,,,,trodélyben,trodélyban,right,8.5059,0,93,93,28,1,29,trodély,trodély,ban,é,Ez itt egy trodély.,Ott vagyunk a...,trodélyben,trodélyban,dzsungel,NA,NA,PR2048,2002,nő,nem,2022-04-13_14h34.46.523,hesp_baseline,2021.2.3,Win32,59.94125757
,,,,,,,,,,,,,,,,,pivédben,pivédban,left,4.6001,0,94,94,52,1,53,pivéd,pivéd,ban,é,Ez itt egy pivéd.,Ott vagyunk a...,pivédben,pivédban,dzsungel,NA,NA,PR2048,2002,nő,nem,2022-04-13_14h34.46.523,hesp_baseline,2021.2.3,Win32,59.94125757
,,,,,,,,,,,,,,,,,privékszenek,privékednek,left,41.6488,0,95,95,149,1,42,privékszik / privékedik,"privékszik, privékedni",nek,NA,"János imád privékedni, ezért sokat privékszik.",Ők ritkán...,privékszenek,privékednek,cselekszik,-szik,2,PR2048,2002,nő,nem,2022-04-13_14h34.46.523,hesp_baseline,2021.2.3,Win32,59.94125757
,,,,,,,,,,,,,,,,,klörlöm,klörlök,right,1.2314,0,96,96,80,1,27,klörlik,klörlesz,NA,NA,Te bizony sokat klörlesz.,Én is sokat...,klörlök,klörlöm,lakik,-lik,1,PR2048,2002,nő,nem,2022-04-13_14h34.46.523,hesp_baseline,2021.2.3,Win32,59.94125757
,,,,,,,,,,,,,,,,,pöröztök,pörzötök,right,0.9169,0,97,97,153,1,46,pörzik / pörözik,"pörzik, pörözni",tek,NA,"János imád pörözni, ezért sokat pörzik.",Ti ritkán...,pörzötök,pöröztök,cselekszik,-zik,1,PR2048,2002,nő,nem,2022-04-13_14h34.46.523,hesp_baseline,2021.2.3,Win32,59.94125757
,,,,,,,,,,,,,,,,,spihemlem,spihemlek,right,38.4953,0,98,98,94,1,41,spihemlik,spihemlesz,NA,NA,Te bizony sokat spihemlesz.,Én is sokat...,spihemlek,spihemlem,lakik,-lik,2,PR2048,2002,nő,nem,2022-04-13_14h34.46.523,hesp_baseline,2021.2.3,Win32,59.94125757
,,,,,,,,,,,,,,,,,kadérnál,kadérnél,left,4.9669,0,99,99,7,1,8,kadér,kadér,nál,é,Ez itt egy kadér.,Nincs is jobb egy jó...,kadérnél,kadérnál,dzsungel,NA,NA,PR2048,2002,nő,nem,2022-04-13_14h34.46.523,hesp_baseline,2021.2.3,Win32,59.94125757
,,,,,,,,,,,,,,,,,málapszok,málapszom,left,2.0804,0,100,100,66,1,13,málapszik,málapszol,NA,NA,Te bizony sokat málapszol.,Én is sokat...,málapszok,málapszom,lakik,-szik,2,PR2048,2002,nő,nem,2022-04-13_14h34.46.523,hesp_baseline,2021.2.3,Win32,59.94125757
,,,,,,,,,,,,,,,,,tarhézban,tarhézben,left,4.7438,0,101,101,25,1,26,tarhéz,tarhéz,ban,é,Ez itt egy tarhéz.,Ott vagyunk a...,tarhézben,tarhézban,dzsungel,NA,NA,PR2048,2002,nő,nem,2022-04-13_14h34.46.523,hesp_baseline,2021.2.3,Win32,59.94125757
,,,,,,,,,,,,,,,,,küslünk,küsözünk,left,6.8659,0,102,102,141,1,34,küslik / küsözik,"küslik, küsözni",ünk,NA,"János imád küsözni, ezért sokat küslik.",Mi ritkán...,küslünk,küsözünk,cselekszik,-lik,1,PR2048,2002,nő,nem,2022-04-13_14h34.46.523,hesp_baseline,2021.2.3,Win32,59.94125757
,,,,,,,,,,,,,,,,,vodépnek,vodépnak,right,3.1164,0,103,103,41,1,42,vodép,vodép,nak,é,Ez itt egy vodép.,Elneveztem a kutyámat...,vodépnek,vodépnak,dzsungel,NA,NA,PR2048,2002,nő,nem,2022-04-13_14h34.46.523,hesp_baseline,2021.2.3,Win32,59.94125757
,,,,,,,,,,,,,,,,,breslenek,breseznek,left,9.9029,0,104,104,115,1,8,breslik / bresezik,"breslik, bresezni",nek,NA,"János imád bresezni, ezért sokat breslik.",Ők ritkán...,breslenek,breseznek,cselekszik,-lik,1,PR2048,2002,nő,nem,2022-04-13_14h34.46.523,hesp_baseline,2021.2.3,Win32,59.94125757
,,,,,,,,,,,,,,,,,trihagzom,trihagzok,right,4.6849,0,105,105,83,1,30,trihagzik,trihagzol,NA,NA,Te bizony sokat trihagzol.,Én is sokat...,trihagzok,trihagzom,lakik,-zik,2,PR2048,2002,nő,nem,2022-04-13_14h34.46.523,hesp_baseline,2021.2.3,Win32,59.94125757
,,,,,,,,,,,,,,,,,klihaslotok,klihasoztok,left,6.4005,0,106,106,156,1,49,klihaslik / klihasozik,"klihaslik, klihasozni",tek,NA,"János imád klihasozni, ezért sokat klihaslik.",Ti ritkán...,klihaslotok,klihasoztok,cselekszik,-lik,2,PR2048,2002,nő,nem,2022-04-13_14h34.46.523,hesp_baseline,2021.2.3,Win32,59.94125757
,,,,,,,,,,,,,,,,,ibáglok,ibáglom,left,6.5271,0,107,107,88,1,35,ibáglik,ibáglasz,NA,NA,Te bizony sokat ibáglasz.,Én is sokat...,ibáglok,ibáglom,lakik,-lik,2,PR2048,2002,nő,nem,2022-04-13_14h34.46.523,hesp_baseline,2021.2.3,Win32,59.94125757
,,,,,,,,,,,,,,,,,sztrajlanak,sztrajoznak,left,12.9002,0,108,108,144,1,37,sztrajlik / sztrajozik,"sztrajlik, sztrajozni",nek,NA,"János imád sztrajozni, ezért sokat sztrajlik.",Ők ritkán...,sztrajlanak,sztrajoznak,cselekszik,-lik,1,PR2048,2002,nő,nem,2022-04-13_14h34.46.523,hesp_baseline,2021.2.3,Win32,59.94125757
,,,,,,,,,,,,,,,,,lörűdzök,lörűdzöm,left,10.2767,0,109,109,77,1,24,lörűdzik,lörűdzöl,NA,NA,Te bizony sokat lörűdzöl.,Én is sokat...,lörűdzök,lörűdzöm,lakik,-zik,2,PR2048,2002,nő,nem,2022-04-13_14h34.46.523,hesp_baseline,2021.2.3,Win32,59.94125757
,,,,,,,,,,,,,,,,,brubzom,brubzok,right,7.8173,0,110,110,92,1,39,brubzik,brubzol,NA,NA,Te bizony sokat brubzol.,Én is sokat...,brubzok,brubzom,lakik,-zik,1,PR2048,2002,nő,nem,2022-04-13_14h34.46.523,hesp_baseline,2021.2.3,Win32,59.94125757
,,,,,,,,,,,,,,,,,spibaklom,spibaklok,right,1.5367,0,111,111,55,1,2,spibaklik,spibaklasz,NA,NA,Te bizony sokat spibaklasz.,Én is sokat...,spibaklok,spibaklom,lakik,-lik,2,PR2048,2002,nő,nem,2022-04-13_14h34.46.523,hesp_baseline,2021.2.3,Win32,59.94125757
,,,,,,,,,,,,,,,,,gyivádzok,gyivádzom,left,1.7067,0,112,112,87,1,34,gyivádzik,gyivádzol,NA,NA,Te bizony sokat gyivádzol.,Én is sokat...,gyivádzok,gyivádzom,lakik,-zik,2,PR2048,2002,nő,nem,2022-04-13_14h34.46.523,hesp_baseline,2021.2.3,Win32,59.94125757
,,,,,,,,,,,,,,,,,jurozunk,jurlunk,right,3.1662,0,113,113,111,1,4,jurlik / jurozik,"jurlik, jurozni",ünk,NA,"János imád jurozni, ezért sokat jurlik.",Mi ritkán...,jurlunk,jurozunk,cselekszik,-lik,1,PR2048,2002,nő,nem,2022-04-13_14h34.46.523,hesp_baseline,2021.2.3,Win32,59.94125757
,,,,,,,,,,,,,,,,,kűdöznek,kűdlenek,right,4.01,0,114,114,142,1,35,kűdlik / kűdözik,"kűdlik, kűdözni",nek,NA,"János imád kűdözni, ezért sokat kűdlik.",Ők ritkán...,kűdlenek,kűdöznek,cselekszik,-lik,1,PR2048,2002,nő,nem,2022-04-13_14h34.46.523,hesp_baseline,2021.2.3,Win32,59.94125757
,,,,,,,,,,,,,,,,,vihapodunk,vihapszunk,right,3.2178,0,115,115,112,1,5,vihapszik / vihapodik,"vihapszik, vihapodni",ünk,NA,"János imád vihapodni, ezért sokat vihapszik.",Mi ritkán...,vihapszunk,vihapodunk,cselekszik,-szik,2,PR2048,2002,nő,nem,2022-04-13_14h34.46.523,hesp_baseline,2021.2.3,Win32,59.94125757
,,,,,,,,,,,,,,,,,hosétnek,hosétnak,left,4.6848,0,116,116,8,1,9,hosét,hosét,nak,é,Ez itt egy hosét.,Elneveztem a kutyámat...,hosétnek,hosétnak,dzsungel,NA,NA,PR2048,2002,nő,nem,2022-04-13_14h34.46.523,hesp_baseline,2021.2.3,Win32,59.94125757
,,,,,,,,,,,,,,,,,spibádzok,spibádzom,left,4.6825,0,117,117,65,1,12,spibádzik,spibádzol,NA,NA,Te bizony sokat spibádzol.,Én is sokat...,spibádzok,spibádzom,lakik,-zik,2,PR2048,2002,nő,nem,2022-04-13_14h34.46.523,hesp_baseline,2021.2.3,Win32,59.94125757
,,,,,,,,,,,,,,,,,dajrensnál,dajrensnél,right,46.387,0,118,118,49,1,50,dajrens,dajrens,nál,e,Ez itt egy dajrens.,Nincs is jobb egy jó...,dajrensnél,dajrensnál,dzsungel,NA,NA,PR2048,2002,nő,nem,2022-04-13_14h34.46.523,hesp_baseline,2021.2.3,Win32,59.94125757
,,,,,,,,,,,,,,,,,rokszok,rokszom,left,2.282,0,119,119,101,1,48,rokszik,rokszol,NA,NA,Te bizony sokat rokszol.,Én is sokat...,rokszok,rokszom,lakik,-szik,1,PR2048,2002,nő,nem,2022-04-13_14h34.46.523,hesp_baseline,2021.2.3,Win32,59.94125757
,,,,,,,,,,,,,,,,,gábédnél,gábédnál,right,8.4759,0,120,120,39,1,40,gábéd,gábéd,nál,é,Ez itt egy gábéd.,Nincs is jobb egy jó...,gábédnél,gábédnál,dzsungel,NA,NA,PR2048,2002,nő,nem,2022-04-13_14h34.46.523,hesp_baseline,2021.2.3,Win32,59.94125757
,,,,,,,,,,,,,,,,,csibagoztok,csibagzotok,left,8.7606,0,121,121,114,1,7,csibagzik / csibagozik,"csibagzik, csibagozni",tek,NA,"János imád csibagozni, ezért sokat csibagzik.",Ti ritkán...,csibagzotok,csibagoztok,cselekszik,-zik,2,PR2048,2002,nő,nem,2022-04-13_14h34.46.523,hesp_baseline,2021.2.3,Win32,59.94125757
,,,,,,,,,,,,,,,,,jorzégnak,jorzégnek,left,3.1497,0,122,122,45,1,46,jorzég,jorzég,nak,é,Ez itt egy jorzég.,Elneveztem a kutyámat...,jorzégnek,jorzégnak,dzsungel,NA,NA,PR2048,2002,nő,nem,2022-04-13_14h34.46.523,hesp_baseline,2021.2.3,Win32,59.94125757
,,,,,,,,,,,,,,,,,csublényban,csublényben,left,4.3162,0,123,123,16,1,17,csublény,csublény,ban,é,Ez itt egy csublény.,Ott vagyunk a...,csublényben,csublényban,dzsungel,NA,NA,PR2048,2002,nő,nem,2022-04-13_14h34.46.523,hesp_baseline,2021.2.3,Win32,59.94125757
,,,,,,,,,,,,,,,,,pilégednek,pilégszenek,right,5.916,0,124,124,150,1,43,pilégszik / pilégedik,"pilégszik, pilégedni",nek,NA,"János imád pilégedni, ezért sokat pilégszik.",Ők ritkán...,pilégszenek,pilégednek,cselekszik,-szik,2,PR2048,2002,nő,nem,2022-04-13_14h34.46.523,hesp_baseline,2021.2.3,Win32,59.94125757
,,,,,,,,,,,,,,,,,nyizlunk,nyizozunk,left,5.3323,0,125,125,135,1,28,nyizlik / nyizozik,"nyizlik, nyizozni",ünk,NA,"János imád nyizozni, ezért sokat nyizlik.",Mi ritkán...,nyizlunk,nyizozunk,cselekszik,-lik,1,PR2048,2002,nő,nem,2022-04-13_14h34.46.523,hesp_baseline,2021.2.3,Win32,59.94125757
,,,,,,,,,,,,,,,,,sprimlunk,sprimozunk,left,6.3983,0,126,126,127,1,20,sprimlik / sprimozik,"sprimlik, sprimozni",ünk,NA,"János imád sprimozni, ezért sokat sprimlik.",Mi ritkán...,sprimlunk,sprimozunk,cselekszik,-lik,1,PR2048,2002,nő,nem,2022-04-13_14h34.46.523,hesp_baseline,2021.2.3,Win32,59.94125757
,,,,,,,,,,,,,,,,,bötőrözünk,bötőrzünk,right,5.1275,0,127,127,158,1,51,bötőrzik / bötőrözik,"bötőrzik, bötőrözni",ünk,NA,"János imád bötőrözni, ezért sokat bötőrzik.",Mi ritkán...,bötőrzünk,bötőrözünk,cselekszik,-zik,2,PR2048,2002,nő,nem,2022-04-13_14h34.46.523,hesp_baseline,2021.2.3,Win32,59.94125757
,,,,,,,,,,,,,,,,,hivépban,hivépben,left,4.6111,0,128,128,44,1,45,hivép,hivép,ban,é,Ez itt egy hivép.,Ott vagyunk a...,hivépben,hivépban,dzsungel,NA,NA,PR2048,2002,nő,nem,2022-04-13_14h34.46.523,hesp_baseline,2021.2.3,Win32,59.94125757
,,,,,,,,,,,,,,,,,spatszom,spatszok,right,4.4912,0,129,129,73,1,20,spatszik,spatszol,NA,NA,Te bizony sokat spatszol.,Én is sokat...,spatszok,spatszom,lakik,-szik,1,PR2048,2002,nő,nem,2022-04-13_14h34.46.523,hesp_baseline,2021.2.3,Win32,59.94125757
,,,,,,,,,,,,,,,,,szibedben,szibedban,right,9.6188,0,130,130,47,1,48,szibed,szibed,ban,e,Ez itt egy szibed.,Ott vagyunk a...,szibedben,szibedban,dzsungel,NA,NA,PR2048,2002,nő,nem,2022-04-13_14h34.46.523,hesp_baseline,2021.2.3,Win32,59.94125757
,,,,,,,,,,,,,,,,,jüslök,jüslöm,left,3.1852,0,131,131,56,1,3,jüslik,jüslesz,NA,NA,Te bizony sokat jüslesz.,Én is sokat...,jüslök,jüslöm,lakik,-lik,1,PR2048,2002,nő,nem,2022-04-13_14h34.46.523,hesp_baseline,2021.2.3,Win32,59.94125757
,,,,,,,,,,,,,,,,,frágapszom,frágapszok,right,2.9316,0,132,132,60,1,7,frágapszik,frágapszol,NA,NA,Te bizony sokat frágapszol.,Én is sokat...,frágapszok,frágapszom,lakik,-szik,2,PR2048,2002,nő,nem,2022-04-13_14h34.46.523,hesp_baseline,2021.2.3,Win32,59.94125757
,,,,,,,,,,,,,,,,,jukélnál,jukélnél,right,6.7954,0,133,133,42,1,43,jukél,jukél,nál,é,Ez itt egy jukél.,Nincs is jobb egy jó...,jukélnél,jukélnál,dzsungel,NA,NA,PR2048,2002,nő,nem,2022-04-13_14h34.46.523,hesp_baseline,2021.2.3,Win32,59.94125757
,,,,,,,,,,,,,,,,,prugorzotok,prugoroztok,left,10.0955,0,134,134,116,1,9,prugorzik / prugorozik,"prugorzik, prugorozni",tek,NA,"János imád prugorozni, ezért sokat prugorzik.",Ti ritkán...,prugorzotok,prugoroztok,cselekszik,-zik,2,PR2048,2002,nő,nem,2022-04-13_14h34.46.523,hesp_baseline,2021.2.3,Win32,59.94125757
,,,,,,,,,,,,,,,,,brülösözünk,brülöslünk,right,8.2654,0,135,135,109,1,2,brülöslik / brülösözik,"brülöslik, brülösözni",ünk,NA,"János imád brülösözni, ezért sokat brülöslik.",Mi ritkán...,brülöslünk,brülösözünk,cselekszik,-lik,2,PR2048,2002,nő,nem,2022-04-13_14h34.46.523,hesp_baseline,2021.2.3,Win32,59.94125757
,,,,,,,,,,,,,,,,,föködnek,fökszenek,right,5.8073,0,136,136,131,1,24,fökszik / föködik,"fökszik, föködni",nek,NA,"János imád föködni, ezért sokat fökszik.",Ők ritkán...,fökszenek,föködnek,cselekszik,-szik,1,PR2048,2002,nő,nem,2022-04-13_14h34.46.523,hesp_baseline,2021.2.3,Win32,59.94125757
,,,,,,,,,,,,,,,,,spéslek,spéslem,left,3.5175,0,137,137,93,1,40,spéslik,spéslesz,NA,NA,Te bizony sokat spéslesz.,Én is sokat...,spéslek,spéslem,lakik,-lik,1,PR2048,2002,nő,nem,2022-04-13_14h34.46.523,hesp_baseline,2021.2.3,Win32,59.94125757
,,,,,,,,,,,,,,,,,galárzanak,galároznak,left,6.6659,0,138,138,154,1,47,galárzik / galározik,"galárzik, galározni",nek,NA,"János imád galározni, ezért sokat galárzik.",Ők ritkán...,galárzanak,galároznak,cselekszik,-zik,2,PR2048,2002,nő,nem,2022-04-13_14h34.46.523,hesp_baseline,2021.2.3,Win32,59.94125757
,,,,,,,,,,,,,,,,,bejezünk,bejzünk,right,3.4273,0,139,139,148,1,41,bejzik / bejezik,"bejzik, bejezni",ünk,NA,"János imád bejezni, ezért sokat bejzik.",Mi ritkán...,bejzünk,bejezünk,cselekszik,-zik,1,PR2048,2002,nő,nem,2022-04-13_14h34.46.523,hesp_baseline,2021.2.3,Win32,59.94125757
,,,,,,,,,,,,,,,,,sztremlek,sztremlem,left,4.4809,0,140,140,95,1,42,sztremlik,sztremlesz,NA,NA,Te bizony sokat sztremlesz.,Én is sokat...,sztremlek,sztremlem,lakik,-lik,1,PR2048,2002,nő,nem,2022-04-13_14h34.46.523,hesp_baseline,2021.2.3,Win32,59.94125757
,,,,,,,,,,,,,,,,,pekszünk,pekedünk,left,2.6788,0,141,141,161,1,54,pekszik / pekedik,"pekszik, pekedni",ünk,NA,"János imád pekedni, ezért sokat pekszik.",Mi ritkán...,pekszünk,pekedünk,cselekszik,-szik,1,PR2048,2002,nő,nem,2022-04-13_14h34.46.523,hesp_baseline,2021.2.3,Win32,59.94125757
,,,,,,,,,,,,,,,,,hijegynál,hijegynél,left,8.5973,0,142,142,4,1,5,hijegy,hijegy,nál,e,Ez itt egy hijegy.,Nincs is jobb egy jó...,hijegynél,hijegynál,dzsungel,NA,NA,PR2048,2002,nő,nem,2022-04-13_14h34.46.523,hesp_baseline,2021.2.3,Win32,59.94125757
,,,,,,,,,,,,,,,,,lihénynek,lihénynak,left,6.6195,0,143,143,23,1,24,lihény,lihény,nak,é,Ez itt egy lihény.,Elneveztem a kutyámat...,lihénynek,lihénynak,dzsungel,NA,NA,PR2048,2002,nő,nem,2022-04-13_14h34.46.523,hesp_baseline,2021.2.3,Win32,59.94125757
,,,,,,,,,,,,,,,,,klaráglom,klaráglok,right,5.8841,0,144,144,91,1,38,klaráglik,klaráglasz,NA,NA,Te bizony sokat klaráglasz.,Én is sokat...,klaráglok,klaráglom,lakik,-lik,2,PR2048,2002,nő,nem,2022-04-13_14h34.46.523,hesp_baseline,2021.2.3,Win32,59.94125757
,,,,,,,,,,,,,,,,,aglok,aglom,right,2.1162,0,145,145,100,1,47,aglik,aglasz,NA,NA,Te bizony sokat aglasz.,Én is sokat...,aglok,aglom,lakik,-lik,1,PR2048,2002,nő,nem,2022-04-13_14h34.46.523,hesp_baseline,2021.2.3,Win32,59.94125757
,,,,,,,,,,,,,,,,,gihejezünk,gihejlünk,right,9.1615,0,146,146,146,1,39,gihejlik / gihejezik,"gihejlik, gihejezni",ünk,NA,"János imád gihejezni, ezért sokat gihejlik.",Mi ritkán...,gihejlünk,gihejezünk,cselekszik,-lik,2,PR2048,2002,nő,nem,2022-04-13_14h34.46.523,hesp_baseline,2021.2.3,Win32,59.94125757
,,,,,,,,,,,,,,,,,brobódzom,brobódzok,right,3.0233,0,147,147,96,1,43,brobódzik,brobódzol,NA,NA,Te bizony sokat brobódzol.,Én is sokat...,brobódzok,brobódzom,lakik,-zik,2,PR2048,2002,nő,nem,2022-04-13_14h34.46.523,hesp_baseline,2021.2.3,Win32,59.94125757
,,,,,,,,,,,,,,,,,nyivágzunk,nyivágozunk,left,4.6336,0,148,148,113,1,6,nyivágzik / nyivágozik,"nyivágzik, nyivágozni",ünk,NA,"János imád nyivágozni, ezért sokat nyivágzik.",Mi ritkán...,nyivágzunk,nyivágozunk,cselekszik,-zik,2,PR2048,2002,nő,nem,2022-04-13_14h34.46.523,hesp_baseline,2021.2.3,Win32,59.94125757
,,,,,,,,,,,,,,,,,priszkencnak,priszkencnek,right,4.9578,0,149,149,20,1,21,priszkenc,priszkenc,nak,e,Ez itt egy priszkenc.,Elneveztem a kutyámat...,priszkencnek,priszkencnak,dzsungel,NA,NA,PR2048,2002,nő,nem,2022-04-13_14h34.46.523,hesp_baseline,2021.2.3,Win32,59.94125757
,,,,,,,,,,,,,,,,,priszecben,priszecban,left,3.9541,0,150,150,15,1,16,priszec,priszec,ban,e,Ez itt egy priszec.,Ott vagyunk a...,priszecben,priszecban,dzsungel,NA,NA,PR2048,2002,nő,nem,2022-04-13_14h34.46.523,hesp_baseline,2021.2.3,Win32,59.94125757
,,,,,,,,,,,,,,,,,riványoztok,riványlotok,right,7.7981,0,151,151,117,1,10,riványlik / riványozik,"riványlik, riványozni",tek,NA,"János imád riványozni, ezért sokat riványlik.",Ti ritkán...,riványlotok,riványoztok,cselekszik,-lik,2,PR2048,2002,nő,nem,2022-04-13_14h34.46.523,hesp_baseline,2021.2.3,Win32,59.94125757
,,,,,,,,,,,,,,,,,pugoslok,pugoslom,left,2.8254,0,152,152,84,1,31,pugoslik,pugoslasz,NA,NA,Te bizony sokat pugoslasz.,Én is sokat...,pugoslok,pugoslom,lakik,-lik,2,PR2048,2002,nő,nem,2022-04-13_14h34.46.523,hesp_baseline,2021.2.3,Win32,59.94125757
,,,,,,,,,,,,,,,,,zopélynél,zopélynál,right,5.9166,0,153,153,5,1,6,zopély,zopély,nál,é,Ez itt egy zopély.,Nincs is jobb egy jó...,zopélynél,zopélynál,dzsungel,NA,NA,PR2048,2002,nő,nem,2022-04-13_14h34.46.523,hesp_baseline,2021.2.3,Win32,59.94125757
,,,,,,,,,,,,,,,,,plűbzöm,plűbzök,right,2.6027,0,154,154,107,1,54,plűbzik,plűbzöl,NA,NA,Te bizony sokat plűbzöl.,Én is sokat...,plűbzök,plűbzöm,lakik,-zik,1,PR2048,2002,nő,nem,2022-04-13_14h34.46.523,hesp_baseline,2021.2.3,Win32,59.94125757
,,,,,,,,,,,,,,,,,fágyépnál,fágyépnél,left,4.5455,0,155,155,10,1,11,fágyép,fágyép,nál,é,Ez itt egy fágyép.,Nincs is jobb egy jó...,fágyépnél,fágyépnál,dzsungel,NA,NA,PR2048,2002,nő,nem,2022-04-13_14h34.46.523,hesp_baseline,2021.2.3,Win32,59.94125757
,,,,,,,,,,,,,,,,,gyivepszenek,gyivepednek,left,6.2336,0,156,156,160,1,53,gyivepszik / gyivepedik,"gyivepszik, gyivepedni",nek,NA,"János imád gyivepedni, ezért sokat gyivepszik.",Ők ritkán...,gyivepszenek,gyivepednek,cselekszik,-szik,2,PR2048,2002,nő,nem,2022-04-13_14h34.46.523,hesp_baseline,2021.2.3,Win32,59.94125757
,,,,,,,,,,,,,,,,,prögzötök,prögöztök,left,5.479,0,157,157,151,1,44,prögzik / prögözik,"prögzik, prögözni",tek,NA,"János imád prögözni, ezért sokat prögzik.",Ti ritkán...,prögzötök,prögöztök,cselekszik,-zik,1,PR2048,2002,nő,nem,2022-04-13_14h34.46.523,hesp_baseline,2021.2.3,Win32,59.94125757
,,,,,,,,,,,,,,,,,vanylok,vanylom,left,2.3757,0,158,158,61,1,8,vanylik,vanylasz,NA,NA,Te bizony sokat vanylasz.,Én is sokat...,vanylok,vanylom,lakik,-lik,1,PR2048,2002,nő,nem,2022-04-13_14h34.46.523,hesp_baseline,2021.2.3,Win32,59.94125757
,,,,,,,,,,,,,,,,,vülődzöm,vülődzök,right,3.5883,0,159,159,81,1,28,vülődzik,vülődzöl,NA,NA,Te bizony sokat vülődzöl.,Én is sokat...,vülődzök,vülődzöm,lakik,-zik,2,PR2048,2002,nő,nem,2022-04-13_14h34.46.523,hesp_baseline,2021.2.3,Win32,59.94125757
,,,,,,,,,,,,,,,,,spivejlenek,spivejeznek,left,9.2989,0,160,160,125,1,18,spivejlik / spivejezik,"spivejlik, spivejezni",nek,NA,"János imád spivejezni, ezért sokat spivejlik.",Ők ritkán...,spivejlenek,spivejeznek,cselekszik,-lik,2,PR2048,2002,nő,nem,2022-04-13_14h34.46.523,hesp_baseline,2021.2.3,Win32,59.94125757
,,,,,,,,,,,,,,,,,pisélyben,pisélyban,left,16.4817,0,161,161,21,1,22,pisély,pisély,ban,é,Ez itt egy pisély.,Ott vagyunk a...,pisélyben,pisélyban,dzsungel,NA,NA,PR2048,2002,nő,nem,2022-04-13_14h34.46.523,hesp_baseline,2021.2.3,Win32,59.94125757
