my_list,key.keys,key.rt,key_2.keys,key_2.rt,keyboard_input_2.keys,keyboard_input_2.rt,key_3.keys,key_3.rt,keyboard_input_3.keys,keyboard_input_3.rt,key_4.keys,key_4.rt,keyboard_input_4.keys,keyboard_input_4.rt,key_5.keys,key_5.rt,my_button1,my_button2,keyboard_input.keys,keyboard_input.rt,withinBlock.thisRepN,withinBlock.thisTrialN,withinBlock.thisN,withinBlock.thisIndex,withinBlock.ran,rowname,word,prompt,suffix,vowel,carrier_sentence,target_sentence,target1,target2,category,derivational,nsyl,Azonosító,Melyik évben születtél?,Mi a nemed?,Tanultál nyelvészetet?,date,expName,psychopyVersion,OS,frameRate
list1.csv,space,30.5337,space,4.0591,right,5.6667,space,7.4828,left,4.1468,space,5.8005,left,10.5754,space,11.7723,jalrénynél,jalrénynál,left,8.4677,0,0,0,0,1,1,jalrény,jalrény,nál,é,Ez itt egy jalrény.,Nincs is jobb egy jó...,jalrénynél,jalrénynál,dzsungel,NA,NA,PR2009,1998,nő,nem,2022-04-04_20h33.02.806,hesp_baseline,2021.2.3,Win32,59.94125757
,,,,,,,,,,,,,,,,,zsúdelnek,zsúdelnak,right,3.4115,0,1,1,14,1,15,zsúdel,zsúdel,nak,e,Ez itt egy zsúdel.,Elneveztem a kutyámat...,zsúdelnek,zsúdelnak,dzsungel,NA,NA,PR2009,1998,nő,nem,2022-04-04_20h33.02.806,hesp_baseline,2021.2.3,Win32,59.94125757
,,,,,,,,,,,,,,,,,kűdöznek,kűdlenek,right,5.7038,0,2,2,142,1,35,kűdlik / kűdözik,"kűdlik, kűdözni",nek,NA,"János imád kűdözni, ezért sokat kűdlik.",Ők ritkán...,kűdlenek,kűdöznek,cselekszik,-lik,1,PR2009,1998,nő,nem,2022-04-04_20h33.02.806,hesp_baseline,2021.2.3,Win32,59.94125757
,,,,,,,,,,,,,,,,,gyivádzom,gyivádzok,left,6.6769,0,3,3,87,1,34,gyivádzik,gyivádzol,NA,NA,Te bizony sokat gyivádzol.,Én is sokat...,gyivádzok,gyivádzom,lakik,-zik,2,PR2009,1998,nő,nem,2022-04-04_20h33.02.806,hesp_baseline,2021.2.3,Win32,59.94125757
,,,,,,,,,,,,,,,,,kliszernél,kliszernál,left,3.6467,0,4,4,31,1,32,kliszer,kliszer,nál,e,Ez itt egy kliszer.,Nincs is jobb egy jó...,kliszernél,kliszernál,dzsungel,NA,NA,PR2009,1998,nő,nem,2022-04-04_20h33.02.806,hesp_baseline,2021.2.3,Win32,59.94125757
,,,,,,,,,,,,,,,,,sprimlunk,sprimozunk,left,6.9113,0,5,5,127,1,20,sprimlik / sprimozik,"sprimlik, sprimozni",ünk,NA,"János imád sprimozni, ezért sokat sprimlik.",Mi ritkán...,sprimlunk,sprimozunk,cselekszik,-lik,1,PR2009,1998,nő,nem,2022-04-04_20h33.02.806,hesp_baseline,2021.2.3,Win32,59.94125757
,,,,,,,,,,,,,,,,,vodépnek,vodépnak,left,4.2894,0,6,6,41,1,42,vodép,vodép,nak,é,Ez itt egy vodép.,Elneveztem a kutyámat...,vodépnek,vodépnak,dzsungel,NA,NA,PR2009,1998,nő,nem,2022-04-04_20h33.02.806,hesp_baseline,2021.2.3,Win32,59.94125757
,,,,,,,,,,,,,,,,,dutecnál,dutecnél,right,2.9999,0,7,7,22,1,23,dutec,dutec,nál,e,Ez itt egy dutec.,Nincs is jobb egy jó...,dutecnél,dutecnál,dzsungel,NA,NA,PR2009,1998,nő,nem,2022-04-04_20h33.02.806,hesp_baseline,2021.2.3,Win32,59.94125757
,,,,,,,,,,,,,,,,,géregletek,géregeztek,right,16.1171,0,8,8,124,1,17,géreglik / géregezik,"géreglik, géregezni",tek,NA,"János imád géregezni, ezért sokat géreglik.",Ti ritkán...,géregletek,géregeztek,cselekszik,-lik,2,PR2009,1998,nő,nem,2022-04-04_20h33.02.806,hesp_baseline,2021.2.3,Win32,59.94125757
,,,,,,,,,,,,,,,,,pivédban,pivédben,right,4.2604,0,9,9,52,1,53,pivéd,pivéd,ban,é,Ez itt egy pivéd.,Ott vagyunk a...,pivédben,pivédban,dzsungel,NA,NA,PR2009,1998,nő,nem,2022-04-04_20h33.02.806,hesp_baseline,2021.2.3,Win32,59.94125757
,,,,,,,,,,,,,,,,,püzlötök,püzöztök,left,3.9308,0,10,10,152,1,45,püzlik / püzözik,"püzlik, püzözni",tek,NA,"János imád püzözni, ezért sokat püzlik.",Ti ritkán...,püzlötök,püzöztök,cselekszik,-lik,1,PR2009,1998,nő,nem,2022-04-04_20h33.02.806,hesp_baseline,2021.2.3,Win32,59.94125757
,,,,,,,,,,,,,,,,,darhénben,darhénban,right,3.0477,0,11,11,27,1,28,darhén,darhén,ban,é,Ez itt egy darhén.,Ott vagyunk a...,darhénben,darhénban,dzsungel,NA,NA,PR2009,1998,nő,nem,2022-04-04_20h33.02.806,hesp_baseline,2021.2.3,Win32,59.94125757
,,,,,,,,,,,,,,,,,trodélyban,trodélyben,left,3.1012,0,12,12,28,1,29,trodély,trodély,ban,é,Ez itt egy trodély.,Ott vagyunk a...,trodélyben,trodélyban,dzsungel,NA,NA,PR2009,1998,nő,nem,2022-04-04_20h33.02.806,hesp_baseline,2021.2.3,Win32,59.94125757
,,,,,,,,,,,,,,,,,brüszlötök,brüszöztök,right,4.0917,0,13,13,130,1,23,brüszlik / brüszözik,"brüszlik, brüszözni",tek,NA,"János imád brüszözni, ezért sokat brüszlik.",Ti ritkán...,brüszlötök,brüszöztök,cselekszik,-lik,1,PR2009,1998,nő,nem,2022-04-04_20h33.02.806,hesp_baseline,2021.2.3,Win32,59.94125757
,,,,,,,,,,,,,,,,,prélemeznek,prélemlenek,left,11.5343,0,14,14,110,1,3,prélemlik / prélemezik,"prélemlik, prélemezni",nek,NA,"János imád prélemezni, ezért sokat prélemlik.",Ők ritkán...,prélemlenek,prélemeznek,cselekszik,-lik,2,PR2009,1998,nő,nem,2022-04-04_20h33.02.806,hesp_baseline,2021.2.3,Win32,59.94125757
,,,,,,,,,,,,,,,,,flivegzenek,flivegeznek,right,4.0476,0,15,15,138,1,31,flivegzik / flivegezik,"flivegzik, flivegezni",nek,NA,"János imád flivegezni, ezért sokat flivegzik.",Ők ritkán...,flivegzenek,flivegeznek,cselekszik,-zik,2,PR2009,1998,nő,nem,2022-04-04_20h33.02.806,hesp_baseline,2021.2.3,Win32,59.94125757
,,,,,,,,,,,,,,,,,nuhétnál,nuhétnél,right,3.0636,0,16,16,29,1,30,nuhét,nuhét,nál,é,Ez itt egy nuhét.,Nincs is jobb egy jó...,nuhétnél,nuhétnál,dzsungel,NA,NA,PR2009,1998,nő,nem,2022-04-04_20h33.02.806,hesp_baseline,2021.2.3,Win32,59.94125757
,,,,,,,,,,,,,,,,,flözlöm,flözlök,right,4.3116,0,17,17,74,1,21,flözlik,flözlesz,NA,NA,Te bizony sokat flözlesz.,Én is sokat...,flözlök,flözlöm,lakik,-lik,1,PR2009,1998,nő,nem,2022-04-04_20h33.02.806,hesp_baseline,2021.2.3,Win32,59.94125757
,,,,,,,,,,,,,,,,,mísozunk,míslunk,left,4.2281,0,18,18,123,1,16,míslik / mísozik,"míslik, mísozni",ünk,NA,"János imád mísozni, ezért sokat míslik.",Mi ritkán...,míslunk,mísozunk,cselekszik,-lik,1,PR2009,1998,nő,nem,2022-04-04_20h33.02.806,hesp_baseline,2021.2.3,Win32,59.94125757
,,,,,,,,,,,,,,,,,drügzök,drügzöm,left,3.2383,0,19,19,72,1,19,drügzik,drügzöl,NA,NA,Te bizony sokat drügzöl.,Én is sokat...,drügzök,drügzöm,lakik,-zik,1,PR2009,1998,nő,nem,2022-04-04_20h33.02.806,hesp_baseline,2021.2.3,Win32,59.94125757
,,,,,,,,,,,,,,,,,jüslöm,jüslök,right,5.4087,0,20,20,56,1,3,jüslik,jüslesz,NA,NA,Te bizony sokat jüslesz.,Én is sokat...,jüslök,jüslöm,lakik,-lik,1,PR2009,1998,nő,nem,2022-04-04_20h33.02.806,hesp_baseline,2021.2.3,Win32,59.94125757
,,,,,,,,,,,,,,,,,prilegzem,prilegzek,left,3.5847,0,21,21,79,1,26,prilegzik,prilegzel,NA,NA,Te bizony sokat prilegzel.,Én is sokat...,prilegzek,prilegzem,lakik,-zik,2,PR2009,1998,nő,nem,2022-04-04_20h33.02.806,hesp_baseline,2021.2.3,Win32,59.94125757
,,,,,,,,,,,,,,,,,brülösözünk,brülöslünk,right,8.2999,0,22,22,109,1,2,brülöslik / brülösözik,"brülöslik, brülösözni",ünk,NA,"János imád brülösözni, ezért sokat brülöslik.",Mi ritkán...,brülöslünk,brülösözünk,cselekszik,-lik,2,PR2009,1998,nő,nem,2022-04-04_20h33.02.806,hesp_baseline,2021.2.3,Win32,59.94125757
,,,,,,,,,,,,,,,,,spéslek,spéslem,left,5.0094,0,23,23,93,1,40,spéslik,spéslesz,NA,NA,Te bizony sokat spéslesz.,Én is sokat...,spéslek,spéslem,lakik,-lik,1,PR2009,1998,nő,nem,2022-04-04_20h33.02.806,hesp_baseline,2021.2.3,Win32,59.94125757
,,,,,,,,,,,,,,,,,mádépnál,mádépnél,right,6.3925,0,24,24,1,1,2,mádép,mádép,nál,é,Ez itt egy mádép.,Nincs is jobb egy jó...,mádépnél,mádépnál,dzsungel,NA,NA,PR2009,1998,nő,nem,2022-04-04_20h33.02.806,hesp_baseline,2021.2.3,Win32,59.94125757
,,,,,,,,,,,,,,,,,vihapszunk,vihapodunk,left,3.9759,0,25,25,112,1,5,vihapszik / vihapodik,"vihapszik, vihapodni",ünk,NA,"János imád vihapodni, ezért sokat vihapszik.",Mi ritkán...,vihapszunk,vihapodunk,cselekszik,-szik,2,PR2009,1998,nő,nem,2022-04-04_20h33.02.806,hesp_baseline,2021.2.3,Win32,59.94125757
,,,,,,,,,,,,,,,,,salárzok,salárzom,left,8.7455,0,26,26,103,1,50,salárzik,salárzol,NA,NA,Te bizony sokat salárzol.,Én is sokat...,salárzok,salárzom,lakik,-zik,2,PR2009,1998,nő,nem,2022-04-04_20h33.02.806,hesp_baseline,2021.2.3,Win32,59.94125757
,,,,,,,,,,,,,,,,,nyivágzunk,nyivágozunk,left,3.7316,0,27,27,113,1,6,nyivágzik / nyivágozik,"nyivágzik, nyivágozni",ünk,NA,"János imád nyivágozni, ezért sokat nyivágzik.",Mi ritkán...,nyivágzunk,nyivágozunk,cselekszik,-zik,2,PR2009,1998,nő,nem,2022-04-04_20h33.02.806,hesp_baseline,2021.2.3,Win32,59.94125757
,,,,,,,,,,,,,,,,,gatáglunk,gatágozunk,left,3.2758,0,28,28,137,1,30,gatáglik / gatágozik,"gatáglik, gatágozni",ünk,NA,"János imád gatágozni, ezért sokat gatáglik.",Mi ritkán...,gatáglunk,gatágozunk,cselekszik,-lik,2,PR2009,1998,nő,nem,2022-04-04_20h33.02.806,hesp_baseline,2021.2.3,Win32,59.94125757
,,,,,,,,,,,,,,,,,trukodtok,trukszotok,right,5.4166,0,29,29,157,1,50,trukszik / trukodik,"trukszik, trukodni",tek,NA,"János imád trukodni, ezért sokat trukszik.",Ti ritkán...,trukszotok,trukodtok,cselekszik,-szik,1,PR2009,1998,nő,nem,2022-04-04_20h33.02.806,hesp_baseline,2021.2.3,Win32,59.94125757
,,,,,,,,,,,,,,,,,hóbensben,hóbensban,left,2.7213,0,30,30,3,1,4,hóbens,hóbens,ban,e,Ez itt egy hóbens.,Ott vagyunk a...,hóbensben,hóbensban,dzsungel,NA,NA,PR2009,1998,nő,nem,2022-04-04_20h33.02.806,hesp_baseline,2021.2.3,Win32,59.94125757
,,,,,,,,,,,,,,,,,priszkencnak,priszkencnek,right,2.9813,0,31,31,20,1,21,priszkenc,priszkenc,nak,e,Ez itt egy priszkenc.,Elneveztem a kutyámat...,priszkencnek,priszkencnak,dzsungel,NA,NA,PR2009,1998,nő,nem,2022-04-04_20h33.02.806,hesp_baseline,2021.2.3,Win32,59.94125757
,,,,,,,,,,,,,,,,,prögöztök,prögzötök,left,9.2136,0,32,32,151,1,44,prögzik / prögözik,"prögzik, prögözni",tek,NA,"János imád prögözni, ezért sokat prögzik.",Ti ritkán...,prögzötök,prögöztök,cselekszik,-zik,1,PR2009,1998,nő,nem,2022-04-04_20h33.02.806,hesp_baseline,2021.2.3,Win32,59.94125757
,,,,,,,,,,,,,,,,,tránélynek,tránélynak,right,3.6828,0,33,33,17,1,18,tránély,tránély,nak,é,Ez itt egy tránély.,Elneveztem a kutyámat...,tránélynek,tránélynak,dzsungel,NA,NA,PR2009,1998,nő,nem,2022-04-04_20h33.02.806,hesp_baseline,2021.2.3,Win32,59.94125757
,,,,,,,,,,,,,,,,,kadérnél,kadérnál,right,4.4405,0,34,34,7,1,8,kadér,kadér,nál,é,Ez itt egy kadér.,Nincs is jobb egy jó...,kadérnél,kadérnál,dzsungel,NA,NA,PR2009,1998,nő,nem,2022-04-04_20h33.02.806,hesp_baseline,2021.2.3,Win32,59.94125757
,,,,,,,,,,,,,,,,,aglok,aglom,left,3.4536,0,35,35,100,1,47,aglik,aglasz,NA,NA,Te bizony sokat aglasz.,Én is sokat...,aglok,aglom,lakik,-lik,1,PR2009,1998,nő,nem,2022-04-04_20h33.02.806,hesp_baseline,2021.2.3,Win32,59.94125757
,,,,,,,,,,,,,,,,,brarlok,brarlom,left,3.2711,0,36,36,71,1,18,brarlik,brarlasz,NA,NA,Te bizony sokat brarlasz.,Én is sokat...,brarlok,brarlom,lakik,-lik,1,PR2009,1998,nő,nem,2022-04-04_20h33.02.806,hesp_baseline,2021.2.3,Win32,59.94125757
,,,,,,,,,,,,,,,,,breslenek,breseznek,left,3.2078,0,37,37,115,1,8,breslik / bresezik,"breslik, bresezni",nek,NA,"János imád bresezni, ezért sokat breslik.",Ők ritkán...,breslenek,breseznek,cselekszik,-lik,1,PR2009,1998,nő,nem,2022-04-04_20h33.02.806,hesp_baseline,2021.2.3,Win32,59.94125757
,,,,,,,,,,,,,,,,,feténylem,feténylek,right,3.1417,0,38,38,85,1,32,feténylik,feténylesz,NA,NA,Te bizony sokat feténylesz.,Én is sokat...,feténylek,feténylem,lakik,-lik,2,PR2009,1998,nő,nem,2022-04-04_20h33.02.806,hesp_baseline,2021.2.3,Win32,59.94125757
,,,,,,,,,,,,,,,,,spélszem,spélszek,right,6.4648,0,39,39,68,1,15,spélszik,spélszel,NA,NA,Te bizony sokat spélszel.,Én is sokat...,spélszek,spélszem,lakik,-szik,1,PR2009,1998,nő,nem,2022-04-04_20h33.02.806,hesp_baseline,2021.2.3,Win32,59.94125757
,,,,,,,,,,,,,,,,,pisélyban,pisélyben,right,3.3775,0,40,40,21,1,22,pisély,pisély,ban,é,Ez itt egy pisély.,Ott vagyunk a...,pisélyben,pisélyban,dzsungel,NA,NA,PR2009,1998,nő,nem,2022-04-04_20h33.02.806,hesp_baseline,2021.2.3,Win32,59.94125757
,,,,,,,,,,,,,,,,,hurjorzom,hurjorzok,left,3.149,0,41,41,59,1,6,hurjorzik,hurjorzol,NA,NA,Te bizony sokat hurjorzol.,Én is sokat...,hurjorzok,hurjorzom,lakik,-zik,2,PR2009,1998,nő,nem,2022-04-04_20h33.02.806,hesp_baseline,2021.2.3,Win32,59.94125757
,,,,,,,,,,,,,,,,,vanylom,vanylok,right,2.818,0,42,42,61,1,8,vanylik,vanylasz,NA,NA,Te bizony sokat vanylasz.,Én is sokat...,vanylok,vanylom,lakik,-lik,1,PR2009,1998,nő,nem,2022-04-04_20h33.02.806,hesp_baseline,2021.2.3,Win32,59.94125757
,,,,,,,,,,,,,,,,,zsopédben,zsopédban,right,2.1704,0,43,43,50,1,51,zsopéd,zsopéd,ban,é,Ez itt egy zsopéd.,Ott vagyunk a...,zsopédben,zsopédban,dzsungel,NA,NA,PR2009,1998,nő,nem,2022-04-04_20h33.02.806,hesp_baseline,2021.2.3,Win32,59.94125757
,,,,,,,,,,,,,,,,,gyibeslem,gyibeslek,right,4.4634,0,44,44,98,1,45,gyibeslik,gyibeslesz,NA,NA,Te bizony sokat gyibeslesz.,Én is sokat...,gyibeslek,gyibeslem,lakik,-lik,2,PR2009,1998,nő,nem,2022-04-04_20h33.02.806,hesp_baseline,2021.2.3,Win32,59.94125757
,,,,,,,,,,,,,,,,,galároznak,galárzanak,left,4.5153,0,45,45,154,1,47,galárzik / galározik,"galárzik, galározni",nek,NA,"János imád galározni, ezért sokat galárzik.",Ők ritkán...,galárzanak,galároznak,cselekszik,-zik,2,PR2009,1998,nő,nem,2022-04-04_20h33.02.806,hesp_baseline,2021.2.3,Win32,59.94125757
,,,,,,,,,,,,,,,,,hilarzom,hilarzok,left,2.1656,0,46,46,69,1,16,hilarzik,hilarzol,NA,NA,Te bizony sokat hilarzol.,Én is sokat...,hilarzok,hilarzom,lakik,-zik,2,PR2009,1998,nő,nem,2022-04-04_20h33.02.806,hesp_baseline,2021.2.3,Win32,59.94125757
,,,,,,,,,,,,,,,,,klörlöm,klörlök,right,2.5677,0,47,47,80,1,27,klörlik,klörlesz,NA,NA,Te bizony sokat klörlesz.,Én is sokat...,klörlök,klörlöm,lakik,-lik,1,PR2009,1998,nő,nem,2022-04-04_20h33.02.806,hesp_baseline,2021.2.3,Win32,59.94125757
,,,,,,,,,,,,,,,,,bregezünk,bregzünk,right,3.3642,0,48,48,139,1,32,bregzik / bregezik,"bregzik, bregezni",ünk,NA,"János imád bregezni, ezért sokat bregzik.",Mi ritkán...,bregzünk,bregezünk,cselekszik,-zik,1,PR2009,1998,nő,nem,2022-04-04_20h33.02.806,hesp_baseline,2021.2.3,Win32,59.94125757
,,,,,,,,,,,,,,,,,dábegyben,dábegyban,left,2.4398,0,49,49,6,1,7,dábegy,dábegy,ban,e,Ez itt egy dábegy.,Ott vagyunk a...,dábegyben,dábegyban,dzsungel,NA,NA,PR2009,1998,nő,nem,2022-04-04_20h33.02.806,hesp_baseline,2021.2.3,Win32,59.94125757
,,,,,,,,,,,,,,,,,naremben,naremban,left,2.1539,0,50,50,2,1,3,narem,narem,ban,e,Ez itt egy narem.,Ott vagyunk a...,naremben,naremban,dzsungel,NA,NA,PR2009,1998,nő,nem,2022-04-04_20h33.02.806,hesp_baseline,2021.2.3,Win32,59.94125757
,,,,,,,,,,,,,,,,,tivencben,tivencban,left,3.4865,0,51,51,53,1,54,tivenc,tivenc,ban,e,Ez itt egy tivenc.,Ott vagyunk a...,tivencben,tivencban,dzsungel,NA,NA,PR2009,1998,nő,nem,2022-04-04_20h33.02.806,hesp_baseline,2021.2.3,Win32,59.94125757
,,,,,,,,,,,,,,,,,préleglek,préleglem,left,5.1343,0,52,52,104,1,51,préleglik,préleglesz,NA,NA,Te bizony sokat préleglesz.,Én is sokat...,préleglek,préleglem,lakik,-lik,2,PR2009,1998,nő,nem,2022-04-04_20h33.02.806,hesp_baseline,2021.2.3,Win32,59.94125757
,,,,,,,,,,,,,,,,,zsalrénnek,zsalrénnak,right,3.5872,0,53,53,19,1,20,zsalrén,zsalrén,nak,é,Ez itt egy zsalrén.,Elneveztem a kutyámat...,zsalrénnek,zsalrénnak,dzsungel,NA,NA,PR2009,1998,nő,nem,2022-04-04_20h33.02.806,hesp_baseline,2021.2.3,Win32,59.94125757
,,,,,,,,,,,,,,,,,narádzom,narádzok,left,2.2638,0,54,54,63,1,10,narádzik,narádzol,NA,NA,Te bizony sokat narádzol.,Én is sokat...,narádzok,narádzom,lakik,-zik,2,PR2009,1998,nő,nem,2022-04-04_20h33.02.806,hesp_baseline,2021.2.3,Win32,59.94125757
,,,,,,,,,,,,,,,,,fádensnek,fádensnak,right,1.8816,0,55,55,33,1,34,fádens,fádens,nak,e,Ez itt egy fádens.,Elneveztem a kutyámat...,fádensnek,fádensnak,dzsungel,NA,NA,PR2009,1998,nő,nem,2022-04-04_20h33.02.806,hesp_baseline,2021.2.3,Win32,59.94125757
,,,,,,,,,,,,,,,,,spicetnak,spicetnek,right,2.123,0,56,56,35,1,36,spicet,spicet,nak,e,Ez itt egy spicet.,Elneveztem a kutyámat...,spicetnek,spicetnak,dzsungel,NA,NA,PR2009,1998,nő,nem,2022-04-04_20h33.02.806,hesp_baseline,2021.2.3,Win32,59.94125757
,,,,,,,,,,,,,,,,,dajrensnál,dajrensnél,right,2.5158,0,57,57,49,1,50,dajrens,dajrens,nál,e,Ez itt egy dajrens.,Nincs is jobb egy jó...,dajrensnél,dajrensnál,dzsungel,NA,NA,PR2009,1998,nő,nem,2022-04-04_20h33.02.806,hesp_baseline,2021.2.3,Win32,59.94125757
,,,,,,,,,,,,,,,,,lorzensnál,lorzensnél,right,4.0343,0,58,58,34,1,35,lorzens,lorzens,nál,e,Ez itt egy lorzens.,Nincs is jobb egy jó...,lorzensnél,lorzensnál,dzsungel,NA,NA,PR2009,1998,nő,nem,2022-04-04_20h33.02.806,hesp_baseline,2021.2.3,Win32,59.94125757
,,,,,,,,,,,,,,,,,szibedban,szibedben,right,6.1991,0,59,59,47,1,48,szibed,szibed,ban,e,Ez itt egy szibed.,Ott vagyunk a...,szibedben,szibedban,dzsungel,NA,NA,PR2009,1998,nő,nem,2022-04-04_20h33.02.806,hesp_baseline,2021.2.3,Win32,59.94125757
,,,,,,,,,,,,,,,,,gábédnél,gábédnál,left,2.7728,0,60,60,39,1,40,gábéd,gábéd,nál,é,Ez itt egy gábéd.,Nincs is jobb egy jó...,gábédnél,gábédnál,dzsungel,NA,NA,PR2009,1998,nő,nem,2022-04-04_20h33.02.806,hesp_baseline,2021.2.3,Win32,59.94125757
,,,,,,,,,,,,,,,,,huklok,huklom,right,7.8454,0,61,61,78,1,25,huklik,huklasz,NA,NA,Te bizony sokat huklasz.,Én is sokat...,huklok,huklom,lakik,-lik,1,PR2009,1998,nő,nem,2022-04-04_20h33.02.806,hesp_baseline,2021.2.3,Win32,59.94125757
,,,,,,,,,,,,,,,,,lumézban,lumézben,left,3.1647,0,62,62,32,1,33,luméz,luméz,ban,é,Ez itt egy luméz.,Ott vagyunk a...,lumézben,lumézban,dzsungel,NA,NA,PR2009,1998,nő,nem,2022-04-04_20h33.02.806,hesp_baseline,2021.2.3,Win32,59.94125757
,,,,,,,,,,,,,,,,,buhényban,buhényben,left,4.2009,0,63,63,43,1,44,buhény,buhény,ban,é,Ez itt egy buhény.,Ott vagyunk a...,buhényben,buhényban,dzsungel,NA,NA,PR2009,1998,nő,nem,2022-04-04_20h33.02.806,hesp_baseline,2021.2.3,Win32,59.94125757
,,,,,,,,,,,,,,,,,incéjnek,incéjnak,left,2.5561,0,64,64,30,1,31,incéj,incéj,nak,é,Ez itt egy incéj.,Elneveztem a kutyámat...,incéjnek,incéjnak,dzsungel,NA,NA,PR2009,1998,nő,nem,2022-04-04_20h33.02.806,hesp_baseline,2021.2.3,Win32,59.94125757
,,,,,,,,,,,,,,,,,dunkészban,dunkészben,right,2.9464,0,65,65,24,1,25,dunkész,dunkész,ban,é,Ez itt egy dunkész.,Ott vagyunk a...,dunkészben,dunkészban,dzsungel,NA,NA,PR2009,1998,nő,nem,2022-04-04_20h33.02.806,hesp_baseline,2021.2.3,Win32,59.94125757
,,,,,,,,,,,,,,,,,spűmlöm,spűmlök,right,3.2929,0,66,66,86,1,33,spűmlik,spűmlesz,NA,NA,Te bizony sokat spűmlesz.,Én is sokat...,spűmlök,spűmlöm,lakik,-lik,1,PR2009,1998,nő,nem,2022-04-04_20h33.02.806,hesp_baseline,2021.2.3,Win32,59.94125757
,,,,,,,,,,,,,,,,,pítszok,pítszom,left,4.724,0,67,67,62,1,9,pítszik,pítszol,NA,NA,Te bizony sokat pítszol.,Én is sokat...,pítszok,pítszom,lakik,-szik,1,PR2009,1998,nő,nem,2022-04-04_20h33.02.806,hesp_baseline,2021.2.3,Win32,59.94125757
,,,,,,,,,,,,,,,,,küslünk,küsözünk,left,3.1125,0,68,68,141,1,34,küslik / küsözik,"küslik, küsözni",ünk,NA,"János imád küsözni, ezért sokat küslik.",Mi ritkán...,küslünk,küsözünk,cselekszik,-lik,1,PR2009,1998,nő,nem,2022-04-04_20h33.02.806,hesp_baseline,2021.2.3,Win32,59.94125757
,,,,,,,,,,,,,,,,,bötőrözünk,bötőrzünk,right,8.7996,0,69,69,158,1,51,bötőrzik / bötőrözik,"bötőrzik, bötőrözni",ünk,NA,"János imád bötőrözni, ezért sokat bötőrzik.",Mi ritkán...,bötőrzünk,bötőrözünk,cselekszik,-zik,2,PR2009,1998,nő,nem,2022-04-04_20h33.02.806,hesp_baseline,2021.2.3,Win32,59.94125757
,,,,,,,,,,,,,,,,,vülődzök,vülődzöm,left,3.8452,0,70,70,81,1,28,vülődzik,vülődzöl,NA,NA,Te bizony sokat vülődzöl.,Én is sokat...,vülődzök,vülődzöm,lakik,-zik,2,PR2009,1998,nő,nem,2022-04-04_20h33.02.806,hesp_baseline,2021.2.3,Win32,59.94125757
,,,,,,,,,,,,,,,,,froroznak,frorlanak,right,4.2039,0,71,71,143,1,36,frorlik / frorozik,"frorlik, frorozni",nek,NA,"János imád frorozni, ezért sokat frorlik.",Ők ritkán...,frorlanak,froroznak,cselekszik,-lik,1,PR2009,1998,nő,nem,2022-04-04_20h33.02.806,hesp_baseline,2021.2.3,Win32,59.94125757
,,,,,,,,,,,,,,,,,klaráglom,klaráglok,left,3.8813,0,72,72,91,1,38,klaráglik,klaráglasz,NA,NA,Te bizony sokat klaráglasz.,Én is sokat...,klaráglok,klaráglom,lakik,-lik,2,PR2009,1998,nő,nem,2022-04-04_20h33.02.806,hesp_baseline,2021.2.3,Win32,59.94125757
,,,,,,,,,,,,,,,,,zopélynál,zopélynél,right,2.2116,0,73,73,5,1,6,zopély,zopély,nál,é,Ez itt egy zopély.,Nincs is jobb egy jó...,zopélynél,zopélynál,dzsungel,NA,NA,PR2009,1998,nő,nem,2022-04-04_20h33.02.806,hesp_baseline,2021.2.3,Win32,59.94125757
,,,,,,,,,,,,,,,,,spilágzok,spilágzom,left,3.9658,0,74,74,76,1,23,spilágzik,spilágzol,NA,NA,Te bizony sokat spilágzol.,Én is sokat...,spilágzok,spilágzom,lakik,-zik,2,PR2009,1998,nő,nem,2022-04-04_20h33.02.806,hesp_baseline,2021.2.3,Win32,59.94125757
,,,,,,,,,,,,,,,,,nyizozunk,nyizlunk,right,2.9143,0,75,75,135,1,28,nyizlik / nyizozik,"nyizlik, nyizozni",ünk,NA,"János imád nyizozni, ezért sokat nyizlik.",Mi ritkán...,nyizlunk,nyizozunk,cselekszik,-lik,1,PR2009,1998,nő,nem,2022-04-04_20h33.02.806,hesp_baseline,2021.2.3,Win32,59.94125757
,,,,,,,,,,,,,,,,,spibaklok,spibaklom,right,3.9846,0,76,76,55,1,2,spibaklik,spibaklasz,NA,NA,Te bizony sokat spibaklasz.,Én is sokat...,spibaklok,spibaklom,lakik,-lik,2,PR2009,1998,nő,nem,2022-04-04_20h33.02.806,hesp_baseline,2021.2.3,Win32,59.94125757
,,,,,,,,,,,,,,,,,píjlom,píjlok,right,5.1006,0,77,77,75,1,22,píjlik,píjlasz,NA,NA,Te bizony sokat píjlasz.,Én is sokat...,píjlok,píjlom,lakik,-lik,1,PR2009,1998,nő,nem,2022-04-04_20h33.02.806,hesp_baseline,2021.2.3,Win32,59.94125757
,,,,,,,,,,,,,,,,,jukélnél,jukélnál,left,2.7996,0,78,78,42,1,43,jukél,jukél,nál,é,Ez itt egy jukél.,Nincs is jobb egy jó...,jukélnél,jukélnál,dzsungel,NA,NA,PR2009,1998,nő,nem,2022-04-04_20h33.02.806,hesp_baseline,2021.2.3,Win32,59.94125757
,,,,,,,,,,,,,,,,,plövőrzök,plövőrzöm,left,3.4608,0,79,79,58,1,5,plövőrzik,plövőrzöl,NA,NA,Te bizony sokat plövőrzöl.,Én is sokat...,plövőrzök,plövőrzöm,lakik,-zik,2,PR2009,1998,nő,nem,2022-04-04_20h33.02.806,hesp_baseline,2021.2.3,Win32,59.94125757
,,,,,,,,,,,,,,,,,jorzégnak,jorzégnek,left,3.082,0,80,80,45,1,46,jorzég,jorzég,nak,é,Ez itt egy jorzég.,Elneveztem a kutyámat...,jorzégnek,jorzégnak,dzsungel,NA,NA,PR2009,1998,nő,nem,2022-04-04_20h33.02.806,hesp_baseline,2021.2.3,Win32,59.94125757
,,,,,,,,,,,,,,,,,bribasoznak,bribaslanak,right,4.6641,0,81,81,121,1,14,bribaslik / bribasozik,"bribaslik, bribasozni",nek,NA,"János imád bribasozni, ezért sokat bribaslik.",Ők ritkán...,bribaslanak,bribasoznak,cselekszik,-lik,2,PR2009,1998,nő,nem,2022-04-04_20h33.02.806,hesp_baseline,2021.2.3,Win32,59.94125757
,,,,,,,,,,,,,,,,,brözlötök,brözöztök,left,5.0849,0,82,82,145,1,38,brözlik / brözözik,"brözlik, brözözni",tek,NA,"János imád brözözni, ezért sokat brözlik.",Ti ritkán...,brözlötök,brözöztök,cselekszik,-lik,1,PR2009,1998,nő,nem,2022-04-04_20h33.02.806,hesp_baseline,2021.2.3,Win32,59.94125757
,,,,,,,,,,,,,,,,,klihasoztok,klihaslotok,left,6.7175,0,83,83,156,1,49,klihaslik / klihasozik,"klihaslik, klihasozni",tek,NA,"János imád klihasozni, ezért sokat klihaslik.",Ti ritkán...,klihaslotok,klihasoztok,cselekszik,-lik,2,PR2009,1998,nő,nem,2022-04-04_20h33.02.806,hesp_baseline,2021.2.3,Win32,59.94125757
,,,,,,,,,,,,,,,,,hosétnek,hosétnak,right,2.284,0,84,84,8,1,9,hosét,hosét,nak,é,Ez itt egy hosét.,Elneveztem a kutyámat...,hosétnek,hosétnak,dzsungel,NA,NA,PR2009,1998,nő,nem,2022-04-04_20h33.02.806,hesp_baseline,2021.2.3,Win32,59.94125757
,,,,,,,,,,,,,,,,,drűröznek,drűrzenek,right,9.5876,0,85,85,126,1,19,drűrzik / drűrözik,"drűrzik, drűrözni",nek,NA,"János imád drűrözni, ezért sokat drűrzik.",Ők ritkán...,drűrzenek,drűröznek,cselekszik,-zik,1,PR2009,1998,nő,nem,2022-04-04_20h33.02.806,hesp_baseline,2021.2.3,Win32,59.94125757
,,,,,,,,,,,,,,,,,hivépban,hivépben,right,2.9643,0,86,86,44,1,45,hivép,hivép,ban,é,Ez itt egy hivép.,Ott vagyunk a...,hivépben,hivépban,dzsungel,NA,NA,PR2009,1998,nő,nem,2022-04-04_20h33.02.806,hesp_baseline,2021.2.3,Win32,59.94125757
,,,,,,,,,,,,,,,,,hijegynél,hijegynál,left,2.8866,0,87,87,4,1,5,hijegy,hijegy,nál,e,Ez itt egy hijegy.,Nincs is jobb egy jó...,hijegynél,hijegynál,dzsungel,NA,NA,PR2009,1998,nő,nem,2022-04-04_20h33.02.806,hesp_baseline,2021.2.3,Win32,59.94125757
,,,,,,,,,,,,,,,,,pekedünk,pekszünk,right,3.1465,0,88,88,161,1,54,pekszik / pekedik,"pekszik, pekedni",ünk,NA,"János imád pekedni, ezért sokat pekszik.",Mi ritkán...,pekszünk,pekedünk,cselekszik,-szik,1,PR2009,1998,nő,nem,2022-04-04_20h33.02.806,hesp_baseline,2021.2.3,Win32,59.94125757
,,,,,,,,,,,,,,,,,bejezünk,bejzünk,right,2.5744,0,89,89,148,1,41,bejzik / bejezik,"bejzik, bejezni",ünk,NA,"János imád bejezni, ezért sokat bejzik.",Mi ritkán...,bejzünk,bejezünk,cselekszik,-zik,1,PR2009,1998,nő,nem,2022-04-04_20h33.02.806,hesp_baseline,2021.2.3,Win32,59.94125757
,,,,,,,,,,,,,,,,,sztremlem,sztremlek,right,3.5272,0,90,90,95,1,42,sztremlik,sztremlesz,NA,NA,Te bizony sokat sztremlesz.,Én is sokat...,sztremlek,sztremlem,lakik,-lik,1,PR2009,1998,nő,nem,2022-04-04_20h33.02.806,hesp_baseline,2021.2.3,Win32,59.94125757
,,,,,,,,,,,,,,,,,flagárzom,flagárzok,left,2.3787,0,91,91,64,1,11,flagárzik,flagárzol,NA,NA,Te bizony sokat flagárzol.,Én is sokat...,flagárzok,flagárzom,lakik,-zik,2,PR2009,1998,nő,nem,2022-04-04_20h33.02.806,hesp_baseline,2021.2.3,Win32,59.94125757
,,,,,,,,,,,,,,,,,brobódzok,brobódzom,left,4.9843,0,92,92,96,1,43,brobódzik,brobódzol,NA,NA,Te bizony sokat brobódzol.,Én is sokat...,brobódzok,brobódzom,lakik,-zik,2,PR2009,1998,nő,nem,2022-04-04_20h33.02.806,hesp_baseline,2021.2.3,Win32,59.94125757
,,,,,,,,,,,,,,,,,vismernál,vismernél,right,2.9347,0,93,93,13,1,14,vismer,vismer,nál,e,Ez itt egy vismer.,Nincs is jobb egy jó...,vismernél,vismernál,dzsungel,NA,NA,PR2009,1998,nő,nem,2022-04-04_20h33.02.806,hesp_baseline,2021.2.3,Win32,59.94125757
,,,,,,,,,,,,,,,,,privékszenek,privékednek,left,6.931,0,94,94,149,1,42,privékszik / privékedik,"privékszik, privékedni",nek,NA,"János imád privékedni, ezért sokat privékszik.",Ők ritkán...,privékszenek,privékednek,cselekszik,-szik,2,PR2009,1998,nő,nem,2022-04-04_20h33.02.806,hesp_baseline,2021.2.3,Win32,59.94125757
,,,,,,,,,,,,,,,,,vilakszok,vilakszom,left,2.7081,0,95,95,97,1,44,vilakszik,vilakszol,NA,NA,Te bizony sokat vilakszol.,Én is sokat...,vilakszok,vilakszom,lakik,-szik,2,PR2009,1998,nő,nem,2022-04-04_20h33.02.806,hesp_baseline,2021.2.3,Win32,59.94125757
,,,,,,,,,,,,,,,,,csarténynak,csarténynek,left,2.5056,0,96,96,36,1,37,csartény,csartény,nak,é,Ez itt egy csartény.,Elneveztem a kutyámat...,csarténynek,csarténynak,dzsungel,NA,NA,PR2009,1998,nő,nem,2022-04-04_20h33.02.806,hesp_baseline,2021.2.3,Win32,59.94125757
,,,,,,,,,,,,,,,,,lihénynak,lihénynek,right,2.0199,0,97,97,23,1,24,lihény,lihény,nak,é,Ez itt egy lihény.,Elneveztem a kutyámat...,lihénynek,lihénynak,dzsungel,NA,NA,PR2009,1998,nő,nem,2022-04-04_20h33.02.806,hesp_baseline,2021.2.3,Win32,59.94125757
,,,,,,,,,,,,,,,,,fágyépnál,fágyépnél,left,3.0161,0,98,98,10,1,11,fágyép,fágyép,nál,é,Ez itt egy fágyép.,Nincs is jobb egy jó...,fágyépnél,fágyépnál,dzsungel,NA,NA,PR2009,1998,nő,nem,2022-04-04_20h33.02.806,hesp_baseline,2021.2.3,Win32,59.94125757
,,,,,,,,,,,,,,,,,brubzok,brubzom,left,2.6593,0,99,99,92,1,39,brubzik,brubzol,NA,NA,Te bizony sokat brubzol.,Én is sokat...,brubzok,brubzom,lakik,-zik,1,PR2009,1998,nő,nem,2022-04-04_20h33.02.806,hesp_baseline,2021.2.3,Win32,59.94125757
,,,,,,,,,,,,,,,,,livaklom,livaklok,left,4.285,0,100,100,82,1,29,livaklik,livaklasz,NA,NA,Te bizony sokat livaklasz.,Én is sokat...,livaklok,livaklom,lakik,-lik,2,PR2009,1998,nő,nem,2022-04-04_20h33.02.806,hesp_baseline,2021.2.3,Win32,59.94125757
,,,,,,,,,,,,,,,,,gyivepednek,gyivepszenek,left,9.0324,0,101,101,160,1,53,gyivepszik / gyivepedik,"gyivepszik, gyivepedni",nek,NA,"János imád gyivepedni, ezért sokat gyivepszik.",Ők ritkán...,gyivepszenek,gyivepednek,cselekszik,-szik,2,PR2009,1998,nő,nem,2022-04-04_20h33.02.806,hesp_baseline,2021.2.3,Win32,59.94125757
,,,,,,,,,,,,,,,,,nyülöklenek,nyülököznek,left,6.9542,0,102,102,108,1,1,nyülöklik / nyülöközik,"nyülöklik, nyülöközni",nek,NA,"János imád nyülöközni, ezért sokat nyülöklik.",Ők ritkán...,nyülöklenek,nyülököznek,cselekszik,-lik,2,PR2009,1998,nő,nem,2022-04-04_20h33.02.806,hesp_baseline,2021.2.3,Win32,59.94125757
,,,,,,,,,,,,,,,,,riványlotok,riványoztok,left,3.3333,0,103,103,117,1,10,riványlik / riványozik,"riványlik, riványozni",tek,NA,"János imád riványozni, ezért sokat riványlik.",Ti ritkán...,riványlotok,riványoztok,cselekszik,-lik,2,PR2009,1998,nő,nem,2022-04-04_20h33.02.806,hesp_baseline,2021.2.3,Win32,59.94125757
,,,,,,,,,,,,,,,,,jutélynél,jutélynál,right,3.4424,0,104,104,11,1,12,jutély,jutély,nál,é,Ez itt egy jutély.,Nincs is jobb egy jó...,jutélynél,jutélynál,dzsungel,NA,NA,PR2009,1998,nő,nem,2022-04-04_20h33.02.806,hesp_baseline,2021.2.3,Win32,59.94125757
,,,,,,,,,,,,,,,,,sprudlunk,sprudozunk,left,3.07,0,105,105,136,1,29,sprudlik / sprudozik,"sprudlik, sprudozni",ünk,NA,"János imád sprudozni, ezért sokat sprudlik.",Mi ritkán...,sprudlunk,sprudozunk,cselekszik,-lik,1,PR2009,1998,nő,nem,2022-04-04_20h33.02.806,hesp_baseline,2021.2.3,Win32,59.94125757
,,,,,,,,,,,,,,,,,spivejeznek,spivejlenek,right,11.2808,0,106,106,125,1,18,spivejlik / spivejezik,"spivejlik, spivejezni",nek,NA,"János imád spivejezni, ezért sokat spivejlik.",Ők ritkán...,spivejlenek,spivejeznek,cselekszik,-lik,2,PR2009,1998,nő,nem,2022-04-04_20h33.02.806,hesp_baseline,2021.2.3,Win32,59.94125757
,,,,,,,,,,,,,,,,,málapszok,málapszom,left,2.4171,0,107,107,66,1,13,málapszik,málapszol,NA,NA,Te bizony sokat málapszol.,Én is sokat...,málapszok,málapszom,lakik,-szik,2,PR2009,1998,nő,nem,2022-04-04_20h33.02.806,hesp_baseline,2021.2.3,Win32,59.94125757
,,,,,,,,,,,,,,,,,pebzek,pebzem,left,1.9183,0,108,108,57,1,4,pebzik,pebzel,NA,NA,Te bizony sokat pebzel.,Én is sokat...,pebzek,pebzem,lakik,-zik,1,PR2009,1998,nő,nem,2022-04-04_20h33.02.806,hesp_baseline,2021.2.3,Win32,59.94125757
,,,,,,,,,,,,,,,,,spibádzom,spibádzok,right,2.9998,0,109,109,65,1,12,spibádzik,spibádzol,NA,NA,Te bizony sokat spibádzol.,Én is sokat...,spibádzok,spibádzom,lakik,-zik,2,PR2009,1998,nő,nem,2022-04-04_20h33.02.806,hesp_baseline,2021.2.3,Win32,59.94125757
,,,,,,,,,,,,,,,,,klordénynek,klordénynak,right,2.6009,0,110,110,9,1,10,klordény,klordény,nak,é,Ez itt egy klordény.,Elneveztem a kutyámat...,klordénynek,klordénynak,dzsungel,NA,NA,PR2009,1998,nő,nem,2022-04-04_20h33.02.806,hesp_baseline,2021.2.3,Win32,59.94125757
,,,,,,,,,,,,,,,,,szibánylom,szibánylok,right,3.447,0,111,111,67,1,14,szibánylik,szibánylasz,NA,NA,Te bizony sokat szibánylasz.,Én is sokat...,szibánylok,szibánylom,lakik,-lik,2,PR2009,1998,nő,nem,2022-04-04_20h33.02.806,hesp_baseline,2021.2.3,Win32,59.94125757
,,,,,,,,,,,,,,,,,frirozunk,frirzunk,right,4.4439,0,112,112,129,1,22,frirzik / frirozik,"frirzik, frirozni",ünk,NA,"János imád frirozni, ezért sokat frirzik.",Mi ritkán...,frirzunk,frirozunk,cselekszik,-zik,1,PR2009,1998,nő,nem,2022-04-04_20h33.02.806,hesp_baseline,2021.2.3,Win32,59.94125757
,,,,,,,,,,,,,,,,,sihennél,sihennál,left,2.5146,0,113,113,18,1,19,sihen,sihen,nál,e,Ez itt egy sihen.,Nincs is jobb egy jó...,sihennél,sihennál,dzsungel,NA,NA,PR2009,1998,nő,nem,2022-04-04_20h33.02.806,hesp_baseline,2021.2.3,Win32,59.94125757
,,,,,,,,,,,,,,,,,ibáglok,ibáglom,left,2.5545,0,114,114,88,1,35,ibáglik,ibáglasz,NA,NA,Te bizony sokat ibáglasz.,Én is sokat...,ibáglok,ibáglom,lakik,-lik,2,PR2009,1998,nő,nem,2022-04-04_20h33.02.806,hesp_baseline,2021.2.3,Win32,59.94125757
,,,,,,,,,,,,,,,,,frihegezünk,friheglünk,right,2.8335,0,115,115,132,1,25,friheglik / frihegezik,"friheglik, frihegezni",ünk,NA,"János imád frihegezni, ezért sokat friheglik.",Mi ritkán...,friheglünk,frihegezünk,cselekszik,-lik,2,PR2009,1998,nő,nem,2022-04-04_20h33.02.806,hesp_baseline,2021.2.3,Win32,59.94125757
,,,,,,,,,,,,,,,,,diránylanak,dirányoznak,right,3.6366,0,116,116,122,1,15,diránylik / dirányozik,"diránylik, dirányozni",nek,NA,"János imád dirányozni, ezért sokat diránylik.",Ők ritkán...,diránylanak,dirányoznak,cselekszik,-lik,2,PR2009,1998,nő,nem,2022-04-04_20h33.02.806,hesp_baseline,2021.2.3,Win32,59.94125757
,,,,,,,,,,,,,,,,,tragzok,tragzom,left,2.3398,0,117,117,90,1,37,tragzik,tragzol,NA,NA,Te bizony sokat tragzol.,Én is sokat...,tragzok,tragzom,lakik,-zik,1,PR2009,1998,nő,nem,2022-04-04_20h33.02.806,hesp_baseline,2021.2.3,Win32,59.94125757
,,,,,,,,,,,,,,,,,bügöznek,bügzenek,right,3.5356,0,118,118,118,1,11,bügzik / bügözik,"bügzik, bügözni",nek,NA,"János imád bügözni, ezért sokat bügzik.",Ők ritkán...,bügzenek,bügöznek,cselekszik,-zik,1,PR2009,1998,nő,nem,2022-04-04_20h33.02.806,hesp_baseline,2021.2.3,Win32,59.94125757
,,,,,,,,,,,,,,,,,kaszépnak,kaszépnek,left,2.3839,0,119,119,40,1,41,kaszép,kaszép,nak,é,Ez itt egy kaszép.,Elneveztem a kutyámat...,kaszépnek,kaszépnak,dzsungel,NA,NA,PR2009,1998,nő,nem,2022-04-04_20h33.02.806,hesp_baseline,2021.2.3,Win32,59.94125757
,,,,,,,,,,,,,,,,,trihagzom,trihagzok,left,3.8743,0,120,120,83,1,30,trihagzik,trihagzol,NA,NA,Te bizony sokat trihagzol.,Én is sokat...,trihagzok,trihagzom,lakik,-zik,2,PR2009,1998,nő,nem,2022-04-04_20h33.02.806,hesp_baseline,2021.2.3,Win32,59.94125757
,,,,,,,,,,,,,,,,,rokszom,rokszok,left,2.72,0,121,121,101,1,48,rokszik,rokszol,NA,NA,Te bizony sokat rokszol.,Én is sokat...,rokszok,rokszom,lakik,-szik,1,PR2009,1998,nő,nem,2022-04-04_20h33.02.806,hesp_baseline,2021.2.3,Win32,59.94125757
,,,,,,,,,,,,,,,,,brigesztnak,brigesztnek,right,4.1139,0,122,122,48,1,49,brigeszt,brigeszt,nak,e,Ez itt egy brigeszt.,Elneveztem a kutyámat...,brigesztnek,brigesztnak,dzsungel,NA,NA,PR2009,1998,nő,nem,2022-04-04_20h33.02.806,hesp_baseline,2021.2.3,Win32,59.94125757
,,,,,,,,,,,,,,,,,lörűdzök,lörűdzöm,left,5.1384,0,123,123,77,1,24,lörűdzik,lörűdzöl,NA,NA,Te bizony sokat lörűdzöl.,Én is sokat...,lörűdzök,lörűdzöm,lakik,-zik,2,PR2009,1998,nő,nem,2022-04-04_20h33.02.806,hesp_baseline,2021.2.3,Win32,59.94125757
,,,,,,,,,,,,,,,,,jurozunk,jurlunk,right,11.6809,0,124,124,111,1,4,jurlik / jurozik,"jurlik, jurozni",ünk,NA,"János imád jurozni, ezért sokat jurlik.",Mi ritkán...,jurlunk,jurozunk,cselekszik,-lik,1,PR2009,1998,nő,nem,2022-04-04_20h33.02.806,hesp_baseline,2021.2.3,Win32,59.94125757
,,,,,,,,,,,,,,,,,hiragoznak,hiragzanak,left,3.6822,0,125,125,119,1,12,hiragzik / hiragozik,"hiragzik, hiragozni",nek,NA,"János imád hiragozni, ezért sokat hiragzik.",Ők ritkán...,hiragzanak,hiragoznak,cselekszik,-zik,2,PR2009,1998,nő,nem,2022-04-04_20h33.02.806,hesp_baseline,2021.2.3,Win32,59.94125757
,,,,,,,,,,,,,,,,,herégszem,herégszek,left,3.6161,0,126,126,54,1,1,herégszik,herégszel,NA,NA,Te bizony sokat herégszel.,Én is sokat...,herégszek,herégszem,lakik,-szik,2,PR2009,1998,nő,nem,2022-04-04_20h33.02.806,hesp_baseline,2021.2.3,Win32,59.94125757
,,,,,,,,,,,,,,,,,dujzanak,dujoznak,left,4.2388,0,127,127,128,1,21,dujzik / dujozik,"dujzik, dujozni",nek,NA,"János imád dujozni, ezért sokat dujzik.",Ők ritkán...,dujzanak,dujoznak,cselekszik,-zik,1,PR2009,1998,nő,nem,2022-04-04_20h33.02.806,hesp_baseline,2021.2.3,Win32,59.94125757
,,,,,,,,,,,,,,,,,priszecban,priszecben,right,2.5743,0,128,128,15,1,16,priszec,priszec,ban,e,Ez itt egy priszec.,Ott vagyunk a...,priszecben,priszecban,dzsungel,NA,NA,PR2009,1998,nő,nem,2022-04-04_20h33.02.806,hesp_baseline,2021.2.3,Win32,59.94125757
,,,,,,,,,,,,,,,,,kalhésznak,kalhésznek,left,2.2185,0,129,129,46,1,47,kalhész,kalhész,nak,é,Ez itt egy kalhész.,Elneveztem a kutyámat...,kalhésznek,kalhésznak,dzsungel,NA,NA,PR2009,1998,nő,nem,2022-04-04_20h33.02.806,hesp_baseline,2021.2.3,Win32,59.94125757
,,,,,,,,,,,,,,,,,gihejlünk,gihejezünk,left,2.895,0,130,130,146,1,39,gihejlik / gihejezik,"gihejlik, gihejezni",ünk,NA,"János imád gihejezni, ezért sokat gihejlik.",Mi ritkán...,gihejlünk,gihejezünk,cselekszik,-lik,2,PR2009,1998,nő,nem,2022-04-04_20h33.02.806,hesp_baseline,2021.2.3,Win32,59.94125757
,,,,,,,,,,,,,,,,,filágzom,filágzok,left,3.0294,0,131,131,102,1,49,filágzik,filágzol,NA,NA,Te bizony sokat filágzol.,Én is sokat...,filágzok,filágzom,lakik,-zik,2,PR2009,1998,nő,nem,2022-04-04_20h33.02.806,hesp_baseline,2021.2.3,Win32,59.94125757
,,,,,,,,,,,,,,,,,matézben,matézban,right,1.8057,0,132,132,37,1,38,matéz,matéz,ban,é,Ez itt egy matéz.,Ott vagyunk a...,matézben,matézban,dzsungel,NA,NA,PR2009,1998,nő,nem,2022-04-04_20h33.02.806,hesp_baseline,2021.2.3,Win32,59.94125757
,,,,,,,,,,,,,,,,,köszlötök,köszöztök,left,3.8171,0,133,133,120,1,13,köszlik / köszözik,"köszlik, köszözni",tek,NA,"János imád köszözni, ezért sokat köszlik.",Ti ritkán...,köszlötök,köszöztök,cselekszik,-lik,1,PR2009,1998,nő,nem,2022-04-04_20h33.02.806,hesp_baseline,2021.2.3,Win32,59.94125757
,,,,,,,,,,,,,,,,,gonszéknél,gonszéknál,right,2.3144,0,134,134,38,1,39,gonszék,gonszék,nál,é,Ez itt egy gonszék.,Nincs is jobb egy jó...,gonszéknél,gonszéknál,dzsungel,NA,NA,PR2009,1998,nő,nem,2022-04-04_20h33.02.806,hesp_baseline,2021.2.3,Win32,59.94125757
,,,,,,,,,,,,,,,,,csibagoztok,csibagzotok,left,7.382,0,135,135,114,1,7,csibagzik / csibagozik,"csibagzik, csibagozni",tek,NA,"János imád csibagozni, ezért sokat csibagzik.",Ti ritkán...,csibagzotok,csibagoztok,cselekszik,-zik,2,PR2009,1998,nő,nem,2022-04-04_20h33.02.806,hesp_baseline,2021.2.3,Win32,59.94125757
,,,,,,,,,,,,,,,,,frágapszok,frágapszom,left,3.7162,0,136,136,60,1,7,frágapszik,frágapszol,NA,NA,Te bizony sokat frágapszol.,Én is sokat...,frágapszok,frágapszom,lakik,-szik,2,PR2009,1998,nő,nem,2022-04-04_20h33.02.806,hesp_baseline,2021.2.3,Win32,59.94125757
,,,,,,,,,,,,,,,,,bölszöm,bölszök,left,2.0512,0,137,137,105,1,52,bölszik,bölszöl,NA,NA,Te bizony sokat bölszöl.,Én is sokat...,bölszök,bölszöm,lakik,-szik,1,PR2009,1998,nő,nem,2022-04-04_20h33.02.806,hesp_baseline,2021.2.3,Win32,59.94125757
,,,,,,,,,,,,,,,,,pilégszenek,pilégednek,left,3.8206,0,138,138,150,1,43,pilégszik / pilégedik,"pilégszik, pilégedni",nek,NA,"János imád pilégedni, ezért sokat pilégszik.",Ők ritkán...,pilégszenek,pilégednek,cselekszik,-szik,2,PR2009,1998,nő,nem,2022-04-04_20h33.02.806,hesp_baseline,2021.2.3,Win32,59.94125757
,,,,,,,,,,,,,,,,,prugoroztok,prugorzotok,left,8.2528,0,139,139,116,1,9,prugorzik / prugorozik,"prugorzik, prugorozni",tek,NA,"János imád prugorozni, ezért sokat prugorzik.",Ti ritkán...,prugorzotok,prugoroztok,cselekszik,-zik,2,PR2009,1998,nő,nem,2022-04-04_20h33.02.806,hesp_baseline,2021.2.3,Win32,59.94125757
,,,,,,,,,,,,,,,,,spábétben,spábétban,right,2.6515,0,140,140,51,1,52,spábét,spábét,ban,é,Ez itt egy spábét.,Ott vagyunk a...,spábétben,spábétban,dzsungel,NA,NA,PR2009,1998,nő,nem,2022-04-04_20h33.02.806,hesp_baseline,2021.2.3,Win32,59.94125757
,,,,,,,,,,,,,,,,,pugoslom,pugoslok,right,3.7779,0,141,141,84,1,31,pugoslik,pugoslasz,NA,NA,Te bizony sokat pugoslasz.,Én is sokat...,pugoslok,pugoslom,lakik,-lik,2,PR2009,1998,nő,nem,2022-04-04_20h33.02.806,hesp_baseline,2021.2.3,Win32,59.94125757
,,,,,,,,,,,,,,,,,sprédlek,sprédlem,left,1.9928,0,142,142,70,1,17,sprédlik,sprédlesz,NA,NA,Te bizony sokat sprédlesz.,Én is sokat...,sprédlek,sprédlem,lakik,-lik,1,PR2009,1998,nő,nem,2022-04-04_20h33.02.806,hesp_baseline,2021.2.3,Win32,59.94125757
,,,,,,,,,,,,,,,,,plűbzök,plűbzöm,left,1.9707,0,143,143,107,1,54,plűbzik,plűbzöl,NA,NA,Te bizony sokat plűbzöl.,Én is sokat...,plűbzök,plűbzöm,lakik,-zik,1,PR2009,1998,nő,nem,2022-04-04_20h33.02.806,hesp_baseline,2021.2.3,Win32,59.94125757
,,,,,,,,,,,,,,,,,frakozunk,fraklunk,right,2.7984,0,144,144,159,1,52,fraklik / frakozik,"fraklik, frakozni",ünk,NA,"János imád frakozni, ezért sokat fraklik.",Mi ritkán...,fraklunk,frakozunk,cselekszik,-lik,1,PR2009,1998,nő,nem,2022-04-04_20h33.02.806,hesp_baseline,2021.2.3,Win32,59.94125757
,,,,,,,,,,,,,,,,,tarhézben,tarhézban,right,2.7319,0,145,145,25,1,26,tarhéz,tarhéz,ban,é,Ez itt egy tarhéz.,Ott vagyunk a...,tarhézben,tarhézban,dzsungel,NA,NA,PR2009,1998,nő,nem,2022-04-04_20h33.02.806,hesp_baseline,2021.2.3,Win32,59.94125757
,,,,,,,,,,,,,,,,,monvegnél,monvegnál,left,2.6305,0,146,146,26,1,27,monveg,monveg,nál,e,Ez itt egy monveg.,Nincs is jobb egy jó...,monvegnél,monvegnál,dzsungel,NA,NA,PR2009,1998,nő,nem,2022-04-04_20h33.02.806,hesp_baseline,2021.2.3,Win32,59.94125757
,,,,,,,,,,,,,,,,,plibzotok,pliboztok,right,3.1508,0,147,147,140,1,33,plibzik / plibozik,"plibzik, plibozni",tek,NA,"János imád plibozni, ezért sokat plibzik.",Ti ritkán...,plibzotok,pliboztok,cselekszik,-zik,1,PR2009,1998,nő,nem,2022-04-04_20h33.02.806,hesp_baseline,2021.2.3,Win32,59.94125757
,,,,,,,,,,,,,,,,,tágarozunk,tágarzunk,right,4.3801,0,148,148,155,1,48,tágarzik / tágarozik,"tágarzik, tágarozni",ünk,NA,"János imád tágarozni, ezért sokat tágarzik.",Mi ritkán...,tágarzunk,tágarozunk,cselekszik,-zik,2,PR2009,1998,nő,nem,2022-04-04_20h33.02.806,hesp_baseline,2021.2.3,Win32,59.94125757
,,,,,,,,,,,,,,,,,spatszom,spatszok,left,3.7481,0,149,149,73,1,20,spatszik,spatszol,NA,NA,Te bizony sokat spatszol.,Én is sokat...,spatszok,spatszom,lakik,-szik,1,PR2009,1998,nő,nem,2022-04-04_20h33.02.806,hesp_baseline,2021.2.3,Win32,59.94125757
,,,,,,,,,,,,,,,,,spihemlem,spihemlek,right,4.9574,0,150,150,94,1,41,spihemlik,spihemlesz,NA,NA,Te bizony sokat spihemlesz.,Én is sokat...,spihemlek,spihemlem,lakik,-lik,2,PR2009,1998,nő,nem,2022-04-04_20h33.02.806,hesp_baseline,2021.2.3,Win32,59.94125757
,,,,,,,,,,,,,,,,,bralképben,bralképban,right,9.8324,0,151,151,12,1,13,bralkép,bralkép,ban,é,Ez itt egy bralkép.,Ott vagyunk a...,bralképben,bralképban,dzsungel,NA,NA,PR2009,1998,nő,nem,2022-04-04_20h33.02.806,hesp_baseline,2021.2.3,Win32,59.94125757
,,,,,,,,,,,,,,,,,frélegzünk,frélegezünk,left,7.8636,0,152,152,147,1,40,frélegzik / frélegezik,"frélegzik, frélegezni",ünk,NA,"János imád frélegezni, ezért sokat frélegzik.",Mi ritkán...,frélegzünk,frélegezünk,cselekszik,-zik,2,PR2009,1998,nő,nem,2022-04-04_20h33.02.806,hesp_baseline,2021.2.3,Win32,59.94125757
,,,,,,,,,,,,,,,,,frinylunk,frinyozunk,left,3.1226,0,153,153,133,1,26,frinylik / frinyozik,"frinylik, frinyozni",ünk,NA,"János imád frinyozni, ezért sokat frinylik.",Mi ritkán...,frinylunk,frinyozunk,cselekszik,-lik,1,PR2009,1998,nő,nem,2022-04-04_20h33.02.806,hesp_baseline,2021.2.3,Win32,59.94125757
,,,,,,,,,,,,,,,,,brivaklotok,brivakoztok,left,17.6142,0,154,154,134,1,27,brivaklik / brivakozik,"brivaklik, brivakozni",tek,NA,"János imád brivakozni, ezért sokat brivaklik.",Ti ritkán...,brivaklotok,brivakoztok,cselekszik,-lik,2,PR2009,1998,nő,nem,2022-04-04_20h33.02.806,hesp_baseline,2021.2.3,Win32,59.94125757
,,,,,,,,,,,,,,,,,sztrajoznak,sztrajlanak,right,3.2638,0,155,155,144,1,37,sztrajlik / sztrajozik,"sztrajlik, sztrajozni",nek,NA,"János imád sztrajozni, ezért sokat sztrajlik.",Ők ritkán...,sztrajlanak,sztrajoznak,cselekszik,-lik,1,PR2009,1998,nő,nem,2022-04-04_20h33.02.806,hesp_baseline,2021.2.3,Win32,59.94125757
,,,,,,,,,,,,,,,,,pöröztök,pörzötök,left,2.5504,0,156,156,153,1,46,pörzik / pörözik,"pörzik, pörözni",tek,NA,"János imád pörözni, ezért sokat pörzik.",Ti ritkán...,pörzötök,pöröztök,cselekszik,-zik,1,PR2009,1998,nő,nem,2022-04-04_20h33.02.806,hesp_baseline,2021.2.3,Win32,59.94125757
,,,,,,,,,,,,,,,,,flehénylek,flehénylem,left,3.1728,0,157,157,106,1,53,flehénylik,flehénylesz,NA,NA,Te bizony sokat flehénylesz.,Én is sokat...,flehénylek,flehénylem,lakik,-lik,2,PR2009,1998,nő,nem,2022-04-04_20h33.02.806,hesp_baseline,2021.2.3,Win32,59.94125757
,,,,,,,,,,,,,,,,,flérlek,flérlem,left,2.9726,0,158,158,89,1,36,flérlik,flérlesz,NA,NA,Te bizony sokat flérlesz.,Én is sokat...,flérlek,flérlem,lakik,-lik,1,PR2009,1998,nő,nem,2022-04-04_20h33.02.806,hesp_baseline,2021.2.3,Win32,59.94125757
,,,,,,,,,,,,,,,,,csublényben,csublényban,right,2.0987,0,159,159,16,1,17,csublény,csublény,ban,é,Ez itt egy csublény.,Ott vagyunk a...,csublényben,csublényban,dzsungel,NA,NA,PR2009,1998,nő,nem,2022-04-04_20h33.02.806,hesp_baseline,2021.2.3,Win32,59.94125757
,,,,,,,,,,,,,,,,,marzom,marzok,right,2.5805,0,160,160,99,1,46,marzik,marzol,NA,NA,Te bizony sokat marzol.,Én is sokat...,marzok,marzom,lakik,-zik,1,PR2009,1998,nő,nem,2022-04-04_20h33.02.806,hesp_baseline,2021.2.3,Win32,59.94125757
,,,,,,,,,,,,,,,,,föködnek,fökszenek,left,3.0556,0,161,161,131,1,24,fökszik / föködik,"fökszik, föködni",nek,NA,"János imád föködni, ezért sokat fökszik.",Ők ritkán...,fökszenek,föködnek,cselekszik,-szik,1,PR2009,1998,nő,nem,2022-04-04_20h33.02.806,hesp_baseline,2021.2.3,Win32,59.94125757
