my_list,key.keys,key.rt,key_2.keys,key_2.rt,keyboard_input_2.keys,keyboard_input_2.rt,key_3.keys,key_3.rt,keyboard_input_3.keys,keyboard_input_3.rt,key_4.keys,key_4.rt,keyboard_input_4.keys,keyboard_input_4.rt,key_5.keys,key_5.rt,my_button1,my_button2,keyboard_input.keys,keyboard_input.rt,withinBlock.thisRepN,withinBlock.thisTrialN,withinBlock.thisN,withinBlock.thisIndex,withinBlock.ran,rowname,word,prompt,suffix,vowel,carrier_sentence,target_sentence,target1,target2,category,derivational,nsyl,Azonosító,Melyik évben születtél?,Mi a nemed?,Tanultál nyelvészetet?,date,expName,psychopyVersion,OS,frameRate
list1.csv,space,42.0915,space,8.1305,right,8.4382,space,10.7628,left,6.6814,space,6.7309,left,7.8644,space,24.4075,szibánylok,szibánylom,left,11.6909,0,0,0,67,1,14,szibánylik,szibánylasz,NA,NA,Te bizony sokat szibánylasz.,Én is sokat...,szibánylok,szibánylom,lakik,-lik,2,PR2043,1980,nő,nem,2022-04-15_20h19.37.479,hesp_baseline,2021.2.3,Win32,60.0132029
,,,,,,,,,,,,,,,,,vilakszok,vilakszom,right,10.4023,0,1,1,97,1,44,vilakszik,vilakszol,NA,NA,Te bizony sokat vilakszol.,Én is sokat...,vilakszok,vilakszom,lakik,-szik,2,PR2043,1980,nő,nem,2022-04-15_20h19.37.479,hesp_baseline,2021.2.3,Win32,60.0132029
,,,,,,,,,,,,,,,,,salárzok,salárzom,left,4.7982,0,2,2,103,1,50,salárzik,salárzol,NA,NA,Te bizony sokat salárzol.,Én is sokat...,salárzok,salárzom,lakik,-zik,2,PR2043,1980,nő,nem,2022-04-15_20h19.37.479,hesp_baseline,2021.2.3,Win32,60.0132029
,,,,,,,,,,,,,,,,,narádzom,narádzok,right,9.2636,0,3,3,63,1,10,narádzik,narádzol,NA,NA,Te bizony sokat narádzol.,Én is sokat...,narádzok,narádzom,lakik,-zik,2,PR2043,1980,nő,nem,2022-04-15_20h19.37.479,hesp_baseline,2021.2.3,Win32,60.0132029
,,,,,,,,,,,,,,,,,sprudozunk,sprudlunk,left,11.4323,0,4,4,136,1,29,sprudlik / sprudozik,"sprudlik, sprudozni",ünk,NA,"János imád sprudozni, ezért sokat sprudlik.",Mi ritkán...,sprudlunk,sprudozunk,cselekszik,-lik,1,PR2043,1980,nő,nem,2022-04-15_20h19.37.479,hesp_baseline,2021.2.3,Win32,60.0132029
,,,,,,,,,,,,,,,,,kliszernél,kliszernál,left,7.7582,0,5,5,31,1,32,kliszer,kliszer,nál,e,Ez itt egy kliszer.,Nincs is jobb egy jó...,kliszernél,kliszernál,dzsungel,NA,NA,PR2043,1980,nő,nem,2022-04-15_20h19.37.479,hesp_baseline,2021.2.3,Win32,60.0132029
,,,,,,,,,,,,,,,,,gyivepszenek,gyivepednek,right,9.9812,0,6,6,160,1,53,gyivepszik / gyivepedik,"gyivepszik, gyivepedni",nek,NA,"János imád gyivepedni, ezért sokat gyivepszik.",Ők ritkán...,gyivepszenek,gyivepednek,cselekszik,-szik,2,PR2043,1980,nő,nem,2022-04-15_20h19.37.479,hesp_baseline,2021.2.3,Win32,60.0132029
,,,,,,,,,,,,,,,,,brözöztök,brözlötök,right,8.0124,0,7,7,145,1,38,brözlik / brözözik,"brözlik, brözözni",tek,NA,"János imád brözözni, ezért sokat brözlik.",Ti ritkán...,brözlötök,brözöztök,cselekszik,-lik,1,PR2043,1980,nő,nem,2022-04-15_20h19.37.479,hesp_baseline,2021.2.3,Win32,60.0132029
,,,,,,,,,,,,,,,,,hilarzok,hilarzom,left,7.0235,0,8,8,69,1,16,hilarzik,hilarzol,NA,NA,Te bizony sokat hilarzol.,Én is sokat...,hilarzok,hilarzom,lakik,-zik,2,PR2043,1980,nő,nem,2022-04-15_20h19.37.479,hesp_baseline,2021.2.3,Win32,60.0132029
,,,,,,,,,,,,,,,,,vülődzök,vülődzöm,right,6.7648,0,9,9,81,1,28,vülődzik,vülődzöl,NA,NA,Te bizony sokat vülődzöl.,Én is sokat...,vülődzök,vülődzöm,lakik,-zik,2,PR2043,1980,nő,nem,2022-04-15_20h19.37.479,hesp_baseline,2021.2.3,Win32,60.0132029
,,,,,,,,,,,,,,,,,bribaslanak,bribasoznak,right,16.6788,0,10,10,121,1,14,bribaslik / bribasozik,"bribaslik, bribasozni",nek,NA,"János imád bribasozni, ezért sokat bribaslik.",Ők ritkán...,bribaslanak,bribasoznak,cselekszik,-lik,2,PR2043,1980,nő,nem,2022-04-15_20h19.37.479,hesp_baseline,2021.2.3,Win32,60.0132029
,,,,,,,,,,,,,,,,,dábegyben,dábegyban,left,8.8809,0,11,11,6,1,7,dábegy,dábegy,ban,e,Ez itt egy dábegy.,Ott vagyunk a...,dábegyben,dábegyban,dzsungel,NA,NA,PR2043,1980,nő,nem,2022-04-15_20h19.37.479,hesp_baseline,2021.2.3,Win32,60.0132029
,,,,,,,,,,,,,,,,,diránylanak,dirányoznak,right,7.068,0,12,12,122,1,15,diránylik / dirányozik,"diránylik, dirányozni",nek,NA,"János imád dirányozni, ezért sokat diránylik.",Ők ritkán...,diránylanak,dirányoznak,cselekszik,-lik,2,PR2043,1980,nő,nem,2022-04-15_20h19.37.479,hesp_baseline,2021.2.3,Win32,60.0132029
,,,,,,,,,,,,,,,,,livaklok,livaklom,right,4.449,0,13,13,82,1,29,livaklik,livaklasz,NA,NA,Te bizony sokat livaklasz.,Én is sokat...,livaklok,livaklom,lakik,-lik,2,PR2043,1980,nő,nem,2022-04-15_20h19.37.479,hesp_baseline,2021.2.3,Win32,60.0132029
,,,,,,,,,,,,,,,,,lihénynak,lihénynek,right,4.7155,0,14,14,23,1,24,lihény,lihény,nak,é,Ez itt egy lihény.,Elneveztem a kutyámat...,lihénynek,lihénynak,dzsungel,NA,NA,PR2043,1980,nő,nem,2022-04-15_20h19.37.479,hesp_baseline,2021.2.3,Win32,60.0132029
,,,,,,,,,,,,,,,,,sztrajlanak,sztrajoznak,right,4.0325,0,15,15,144,1,37,sztrajlik / sztrajozik,"sztrajlik, sztrajozni",nek,NA,"János imád sztrajozni, ezért sokat sztrajlik.",Ők ritkán...,sztrajlanak,sztrajoznak,cselekszik,-lik,1,PR2043,1980,nő,nem,2022-04-15_20h19.37.479,hesp_baseline,2021.2.3,Win32,60.0132029
,,,,,,,,,,,,,,,,,pebzek,pebzem,left,3.0564,0,16,16,57,1,4,pebzik,pebzel,NA,NA,Te bizony sokat pebzel.,Én is sokat...,pebzek,pebzem,lakik,-zik,1,PR2043,1980,nő,nem,2022-04-15_20h19.37.479,hesp_baseline,2021.2.3,Win32,60.0132029
,,,,,,,,,,,,,,,,,gyivádzok,gyivádzom,right,5.9653,0,17,17,87,1,34,gyivádzik,gyivádzol,NA,NA,Te bizony sokat gyivádzol.,Én is sokat...,gyivádzok,gyivádzom,lakik,-zik,2,PR2043,1980,nő,nem,2022-04-15_20h19.37.479,hesp_baseline,2021.2.3,Win32,60.0132029
,,,,,,,,,,,,,,,,,bregezünk,bregzünk,right,11.7133,0,18,18,139,1,32,bregzik / bregezik,"bregzik, bregezni",ünk,NA,"János imád bregezni, ezért sokat bregzik.",Mi ritkán...,bregzünk,bregezünk,cselekszik,-zik,1,PR2043,1980,nő,nem,2022-04-15_20h19.37.479,hesp_baseline,2021.2.3,Win32,60.0132029
,,,,,,,,,,,,,,,,,dunkészban,dunkészben,left,4.8656,0,19,19,24,1,25,dunkész,dunkész,ban,é,Ez itt egy dunkész.,Ott vagyunk a...,dunkészben,dunkészban,dzsungel,NA,NA,PR2043,1980,nő,nem,2022-04-15_20h19.37.479,hesp_baseline,2021.2.3,Win32,60.0132029
,,,,,,,,,,,,,,,,,préleglem,préleglek,right,3.7663,0,20,20,104,1,51,préleglik,préleglesz,NA,NA,Te bizony sokat préleglesz.,Én is sokat...,préleglek,préleglem,lakik,-lik,2,PR2043,1980,nő,nem,2022-04-15_20h19.37.479,hesp_baseline,2021.2.3,Win32,60.0132029
,,,,,,,,,,,,,,,,,gonszéknél,gonszéknál,left,7.6479,0,21,21,38,1,39,gonszék,gonszék,nál,é,Ez itt egy gonszék.,Nincs is jobb egy jó...,gonszéknél,gonszéknál,dzsungel,NA,NA,PR2043,1980,nő,nem,2022-04-15_20h19.37.479,hesp_baseline,2021.2.3,Win32,60.0132029
,,,,,,,,,,,,,,,,,priszkencnak,priszkencnek,right,5.6321,0,22,22,20,1,21,priszkenc,priszkenc,nak,e,Ez itt egy priszkenc.,Elneveztem a kutyámat...,priszkencnek,priszkencnak,dzsungel,NA,NA,PR2043,1980,nő,nem,2022-04-15_20h19.37.479,hesp_baseline,2021.2.3,Win32,60.0132029
,,,,,,,,,,,,,,,,,tivencban,tivencben,right,3.8493,0,23,23,53,1,54,tivenc,tivenc,ban,e,Ez itt egy tivenc.,Ott vagyunk a...,tivencben,tivencban,dzsungel,NA,NA,PR2043,1980,nő,nem,2022-04-15_20h19.37.479,hesp_baseline,2021.2.3,Win32,60.0132029
,,,,,,,,,,,,,,,,,jüslöm,jüslök,left,5.8825,0,24,24,56,1,3,jüslik,jüslesz,NA,NA,Te bizony sokat jüslesz.,Én is sokat...,jüslök,jüslöm,lakik,-lik,1,PR2043,1980,nő,nem,2022-04-15_20h19.37.479,hesp_baseline,2021.2.3,Win32,60.0132029
,,,,,,,,,,,,,,,,,jukélnél,jukélnál,left,3.6154,0,25,25,42,1,43,jukél,jukél,nál,é,Ez itt egy jukél.,Nincs is jobb egy jó...,jukélnél,jukélnál,dzsungel,NA,NA,PR2043,1980,nő,nem,2022-04-15_20h19.37.479,hesp_baseline,2021.2.3,Win32,60.0132029
,,,,,,,,,,,,,,,,,pörzötök,pöröztök,right,9.4805,0,26,26,153,1,46,pörzik / pörözik,"pörzik, pörözni",tek,NA,"János imád pörözni, ezért sokat pörzik.",Ti ritkán...,pörzötök,pöröztök,cselekszik,-zik,1,PR2043,1980,nő,nem,2022-04-15_20h19.37.479,hesp_baseline,2021.2.3,Win32,60.0132029
,,,,,,,,,,,,,,,,,pugoslom,pugoslok,right,5.299,0,27,27,84,1,31,pugoslik,pugoslasz,NA,NA,Te bizony sokat pugoslasz.,Én is sokat...,pugoslok,pugoslom,lakik,-lik,2,PR2043,1980,nő,nem,2022-04-15_20h19.37.479,hesp_baseline,2021.2.3,Win32,60.0132029
,,,,,,,,,,,,,,,,,kűdöznek,kűdlenek,right,7.0646,0,28,28,142,1,35,kűdlik / kűdözik,"kűdlik, kűdözni",nek,NA,"János imád kűdözni, ezért sokat kűdlik.",Ők ritkán...,kűdlenek,kűdöznek,cselekszik,-lik,1,PR2043,1980,nő,nem,2022-04-15_20h19.37.479,hesp_baseline,2021.2.3,Win32,60.0132029
,,,,,,,,,,,,,,,,,csibagoztok,csibagzotok,left,33.7093,0,29,29,114,1,7,csibagzik / csibagozik,"csibagzik, csibagozni",tek,NA,"János imád csibagozni, ezért sokat csibagzik.",Ti ritkán...,csibagzotok,csibagoztok,cselekszik,-zik,2,PR2043,1980,nő,nem,2022-04-15_20h19.37.479,hesp_baseline,2021.2.3,Win32,60.0132029
,,,,,,,,,,,,,,,,,klordénynek,klordénynak,right,18.0625,0,30,30,9,1,10,klordény,klordény,nak,é,Ez itt egy klordény.,Elneveztem a kutyámat...,klordénynek,klordénynak,dzsungel,NA,NA,PR2043,1980,nő,nem,2022-04-15_20h19.37.479,hesp_baseline,2021.2.3,Win32,60.0132029
,,,,,,,,,,,,,,,,,ibáglok,ibáglom,left,4.732,0,31,31,88,1,35,ibáglik,ibáglasz,NA,NA,Te bizony sokat ibáglasz.,Én is sokat...,ibáglok,ibáglom,lakik,-lik,2,PR2043,1980,nő,nem,2022-04-15_20h19.37.479,hesp_baseline,2021.2.3,Win32,60.0132029
,,,,,,,,,,,,,,,,,brobódzok,brobódzom,right,6.693,0,32,32,96,1,43,brobódzik,brobódzol,NA,NA,Te bizony sokat brobódzol.,Én is sokat...,brobódzok,brobódzom,lakik,-zik,2,PR2043,1980,nő,nem,2022-04-15_20h19.37.479,hesp_baseline,2021.2.3,Win32,60.0132029
,,,,,,,,,,,,,,,,,plűbzök,plűbzöm,left,2.8019,0,33,33,107,1,54,plűbzik,plűbzöl,NA,NA,Te bizony sokat plűbzöl.,Én is sokat...,plűbzök,plűbzöm,lakik,-zik,1,PR2043,1980,nő,nem,2022-04-15_20h19.37.479,hesp_baseline,2021.2.3,Win32,60.0132029
,,,,,,,,,,,,,,,,,fökszenek,föködnek,left,7.5164,0,34,34,131,1,24,fökszik / föködik,"fökszik, föködni",nek,NA,"János imád föködni, ezért sokat fökszik.",Ők ritkán...,fökszenek,föködnek,cselekszik,-szik,1,PR2043,1980,nő,nem,2022-04-15_20h19.37.479,hesp_baseline,2021.2.3,Win32,60.0132029
,,,,,,,,,,,,,,,,,matézben,matézban,right,3.0936,0,35,35,37,1,38,matéz,matéz,ban,é,Ez itt egy matéz.,Ott vagyunk a...,matézben,matézban,dzsungel,NA,NA,PR2043,1980,nő,nem,2022-04-15_20h19.37.479,hesp_baseline,2021.2.3,Win32,60.0132029
,,,,,,,,,,,,,,,,,csarténynak,csarténynek,left,5.9009,0,36,36,36,1,37,csartény,csartény,nak,é,Ez itt egy csartény.,Elneveztem a kutyámat...,csarténynek,csarténynak,dzsungel,NA,NA,PR2043,1980,nő,nem,2022-04-15_20h19.37.479,hesp_baseline,2021.2.3,Win32,60.0132029
,,,,,,,,,,,,,,,,,kalhésznak,kalhésznek,left,3.6768,0,37,37,46,1,47,kalhész,kalhész,nak,é,Ez itt egy kalhész.,Elneveztem a kutyámat...,kalhésznek,kalhésznak,dzsungel,NA,NA,PR2043,1980,nő,nem,2022-04-15_20h19.37.479,hesp_baseline,2021.2.3,Win32,60.0132029
,,,,,,,,,,,,,,,,,gyibeslem,gyibeslek,right,3.6971,0,38,38,98,1,45,gyibeslik,gyibeslesz,NA,NA,Te bizony sokat gyibeslesz.,Én is sokat...,gyibeslek,gyibeslem,lakik,-lik,2,PR2043,1980,nő,nem,2022-04-15_20h19.37.479,hesp_baseline,2021.2.3,Win32,60.0132029
,,,,,,,,,,,,,,,,,bötőrözünk,bötőrzünk,right,7.8491,0,39,39,158,1,51,bötőrzik / bötőrözik,"bötőrzik, bötőrözni",ünk,NA,"János imád bötőrözni, ezért sokat bötőrzik.",Mi ritkán...,bötőrzünk,bötőrözünk,cselekszik,-zik,2,PR2043,1980,nő,nem,2022-04-15_20h19.37.479,hesp_baseline,2021.2.3,Win32,60.0132029
,,,,,,,,,,,,,,,,,vismernél,vismernál,left,3.0275,0,40,40,13,1,14,vismer,vismer,nál,e,Ez itt egy vismer.,Nincs is jobb egy jó...,vismernél,vismernál,dzsungel,NA,NA,PR2043,1980,nő,nem,2022-04-15_20h19.37.479,hesp_baseline,2021.2.3,Win32,60.0132029
,,,,,,,,,,,,,,,,,jorzégnak,jorzégnek,left,3.3591,0,41,41,45,1,46,jorzég,jorzég,nak,é,Ez itt egy jorzég.,Elneveztem a kutyámat...,jorzégnek,jorzégnak,dzsungel,NA,NA,PR2043,1980,nő,nem,2022-04-15_20h19.37.479,hesp_baseline,2021.2.3,Win32,60.0132029
,,,,,,,,,,,,,,,,,riványoztok,riványlotok,right,7.1128,0,42,42,117,1,10,riványlik / riványozik,"riványlik, riványozni",tek,NA,"János imád riványozni, ezért sokat riványlik.",Ti ritkán...,riványlotok,riványoztok,cselekszik,-lik,2,PR2043,1980,nő,nem,2022-04-15_20h19.37.479,hesp_baseline,2021.2.3,Win32,60.0132029
,,,,,,,,,,,,,,,,,lörűdzöm,lörűdzök,right,7.7082,0,43,43,77,1,24,lörűdzik,lörűdzöl,NA,NA,Te bizony sokat lörűdzöl.,Én is sokat...,lörűdzök,lörűdzöm,lakik,-zik,2,PR2043,1980,nő,nem,2022-04-15_20h19.37.479,hesp_baseline,2021.2.3,Win32,60.0132029
,,,,,,,,,,,,,,,,,spicetnek,spicetnak,left,7.1253,0,44,44,35,1,36,spicet,spicet,nak,e,Ez itt egy spicet.,Elneveztem a kutyámat...,spicetnek,spicetnak,dzsungel,NA,NA,PR2043,1980,nő,nem,2022-04-15_20h19.37.479,hesp_baseline,2021.2.3,Win32,60.0132029
,,,,,,,,,,,,,,,,,püzlötök,püzöztök,right,18.5627,0,45,45,152,1,45,püzlik / püzözik,"püzlik, püzözni",tek,NA,"János imád püzözni, ezért sokat püzlik.",Ti ritkán...,püzlötök,püzöztök,cselekszik,-lik,1,PR2043,1980,nő,nem,2022-04-15_20h19.37.479,hesp_baseline,2021.2.3,Win32,60.0132029
,,,,,,,,,,,,,,,,,frihegezünk,friheglünk,left,12.7119,0,46,46,132,1,25,friheglik / frihegezik,"friheglik, frihegezni",ünk,NA,"János imád frihegezni, ezért sokat friheglik.",Mi ritkán...,friheglünk,frihegezünk,cselekszik,-lik,2,PR2043,1980,nő,nem,2022-04-15_20h19.37.479,hesp_baseline,2021.2.3,Win32,60.0132029
,,,,,,,,,,,,,,,,,spábétben,spábétban,right,5.1764,0,47,47,51,1,52,spábét,spábét,ban,é,Ez itt egy spábét.,Ott vagyunk a...,spábétben,spábétban,dzsungel,NA,NA,PR2043,1980,nő,nem,2022-04-15_20h19.37.479,hesp_baseline,2021.2.3,Win32,60.0132029
,,,,,,,,,,,,,,,,,brivakoztok,brivaklotok,left,6.9617,0,48,48,134,1,27,brivaklik / brivakozik,"brivaklik, brivakozni",tek,NA,"János imád brivakozni, ezért sokat brivaklik.",Ti ritkán...,brivaklotok,brivakoztok,cselekszik,-lik,2,PR2043,1980,nő,nem,2022-04-15_20h19.37.479,hesp_baseline,2021.2.3,Win32,60.0132029
,,,,,,,,,,,,,,,,,gatáglunk,gatágozunk,right,8.7776,0,49,49,137,1,30,gatáglik / gatágozik,"gatáglik, gatágozni",ünk,NA,"János imád gatágozni, ezért sokat gatáglik.",Mi ritkán...,gatáglunk,gatágozunk,cselekszik,-lik,2,PR2043,1980,nő,nem,2022-04-15_20h19.37.479,hesp_baseline,2021.2.3,Win32,60.0132029
,,,,,,,,,,,,,,,,,pisélyban,pisélyben,right,5.8428,0,50,50,21,1,22,pisély,pisély,ban,é,Ez itt egy pisély.,Ott vagyunk a...,pisélyben,pisélyban,dzsungel,NA,NA,PR2043,1980,nő,nem,2022-04-15_20h19.37.479,hesp_baseline,2021.2.3,Win32,60.0132029
,,,,,,,,,,,,,,,,,frélegzünk,frélegezünk,right,8.5432,0,51,51,147,1,40,frélegzik / frélegezik,"frélegzik, frélegezni",ünk,NA,"János imád frélegezni, ezért sokat frélegzik.",Mi ritkán...,frélegzünk,frélegezünk,cselekszik,-zik,2,PR2043,1980,nő,nem,2022-04-15_20h19.37.479,hesp_baseline,2021.2.3,Win32,60.0132029
,,,,,,,,,,,,,,,,,tarhézban,tarhézben,left,16.454,0,52,52,25,1,26,tarhéz,tarhéz,ban,é,Ez itt egy tarhéz.,Ott vagyunk a...,tarhézben,tarhézban,dzsungel,NA,NA,PR2043,1980,nő,nem,2022-04-15_20h19.37.479,hesp_baseline,2021.2.3,Win32,60.0132029
,,,,,,,,,,,,,,,,,hóbensben,hóbensban,right,3.9467,0,53,53,3,1,4,hóbens,hóbens,ban,e,Ez itt egy hóbens.,Ott vagyunk a...,hóbensben,hóbensban,dzsungel,NA,NA,PR2043,1980,nő,nem,2022-04-15_20h19.37.479,hesp_baseline,2021.2.3,Win32,60.0132029
,,,,,,,,,,,,,,,,,prögöztök,prögzötök,right,14.809,0,54,54,151,1,44,prögzik / prögözik,"prögzik, prögözni",tek,NA,"János imád prögözni, ezért sokat prögzik.",Ti ritkán...,prögzötök,prögöztök,cselekszik,-zik,1,PR2043,1980,nő,nem,2022-04-15_20h19.37.479,hesp_baseline,2021.2.3,Win32,60.0132029
,,,,,,,,,,,,,,,,,vanylom,vanylok,right,3.0819,0,55,55,61,1,8,vanylik,vanylasz,NA,NA,Te bizony sokat vanylasz.,Én is sokat...,vanylok,vanylom,lakik,-lik,1,PR2043,1980,nő,nem,2022-04-15_20h19.37.479,hesp_baseline,2021.2.3,Win32,60.0132029
,,,,,,,,,,,,,,,,,sztremlem,sztremlek,right,3.8413,0,56,56,95,1,42,sztremlik,sztremlesz,NA,NA,Te bizony sokat sztremlesz.,Én is sokat...,sztremlek,sztremlem,lakik,-lik,1,PR2043,1980,nő,nem,2022-04-15_20h19.37.479,hesp_baseline,2021.2.3,Win32,60.0132029
,,,,,,,,,,,,,,,,,spivejeznek,spivejlenek,left,7.1239,0,57,57,125,1,18,spivejlik / spivejezik,"spivejlik, spivejezni",nek,NA,"János imád spivejezni, ezért sokat spivejlik.",Ők ritkán...,spivejlenek,spivejeznek,cselekszik,-lik,2,PR2043,1980,nő,nem,2022-04-15_20h19.37.479,hesp_baseline,2021.2.3,Win32,60.0132029
,,,,,,,,,,,,,,,,,flivegzenek,flivegeznek,left,12.8311,0,58,58,138,1,31,flivegzik / flivegezik,"flivegzik, flivegezni",nek,NA,"János imád flivegezni, ezért sokat flivegzik.",Ők ritkán...,flivegzenek,flivegeznek,cselekszik,-zik,2,PR2043,1980,nő,nem,2022-04-15_20h19.37.479,hesp_baseline,2021.2.3,Win32,60.0132029
,,,,,,,,,,,,,,,,,tránélynak,tránélynek,left,4.336,0,59,59,17,1,18,tránély,tránély,nak,é,Ez itt egy tránély.,Elneveztem a kutyámat...,tránélynek,tránélynak,dzsungel,NA,NA,PR2043,1980,nő,nem,2022-04-15_20h19.37.479,hesp_baseline,2021.2.3,Win32,60.0132029
,,,,,,,,,,,,,,,,,szibedban,szibedben,right,3.227,0,60,60,47,1,48,szibed,szibed,ban,e,Ez itt egy szibed.,Ott vagyunk a...,szibedben,szibedban,dzsungel,NA,NA,PR2043,1980,nő,nem,2022-04-15_20h19.37.479,hesp_baseline,2021.2.3,Win32,60.0132029
,,,,,,,,,,,,,,,,,filágzok,filágzom,right,3.4517,0,61,61,102,1,49,filágzik,filágzol,NA,NA,Te bizony sokat filágzol.,Én is sokat...,filágzok,filágzom,lakik,-zik,2,PR2043,1980,nő,nem,2022-04-15_20h19.37.479,hesp_baseline,2021.2.3,Win32,60.0132029
,,,,,,,,,,,,,,,,,dutecnál,dutecnél,right,6.6422,0,62,62,22,1,23,dutec,dutec,nál,e,Ez itt egy dutec.,Nincs is jobb egy jó...,dutecnél,dutecnál,dzsungel,NA,NA,PR2043,1980,nő,nem,2022-04-15_20h19.37.479,hesp_baseline,2021.2.3,Win32,60.0132029
,,,,,,,,,,,,,,,,,sprimozunk,sprimlunk,left,11.4087,0,63,63,127,1,20,sprimlik / sprimozik,"sprimlik, sprimozni",ünk,NA,"János imád sprimozni, ezért sokat sprimlik.",Mi ritkán...,sprimlunk,sprimozunk,cselekszik,-lik,1,PR2043,1980,nő,nem,2022-04-15_20h19.37.479,hesp_baseline,2021.2.3,Win32,60.0132029
,,,,,,,,,,,,,,,,,géregletek,géregeztek,left,4.878,0,64,64,124,1,17,géreglik / géregezik,"géreglik, géregezni",tek,NA,"János imád géregezni, ezért sokat géreglik.",Ti ritkán...,géregletek,géregeztek,cselekszik,-lik,2,PR2043,1980,nő,nem,2022-04-15_20h19.37.479,hesp_baseline,2021.2.3,Win32,60.0132029
,,,,,,,,,,,,,,,,,flözlöm,flözlök,right,4.3808,0,65,65,74,1,21,flözlik,flözlesz,NA,NA,Te bizony sokat flözlesz.,Én is sokat...,flözlök,flözlöm,lakik,-lik,1,PR2043,1980,nő,nem,2022-04-15_20h19.37.479,hesp_baseline,2021.2.3,Win32,60.0132029
,,,,,,,,,,,,,,,,,hijegynál,hijegynél,right,3.8794,0,66,66,4,1,5,hijegy,hijegy,nál,e,Ez itt egy hijegy.,Nincs is jobb egy jó...,hijegynél,hijegynál,dzsungel,NA,NA,PR2043,1980,nő,nem,2022-04-15_20h19.37.479,hesp_baseline,2021.2.3,Win32,60.0132029
,,,,,,,,,,,,,,,,,mísozunk,míslunk,left,9.4408,0,67,67,123,1,16,míslik / mísozik,"míslik, mísozni",ünk,NA,"János imád mísozni, ezért sokat míslik.",Mi ritkán...,míslunk,mísozunk,cselekszik,-lik,1,PR2043,1980,nő,nem,2022-04-15_20h19.37.479,hesp_baseline,2021.2.3,Win32,60.0132029
,,,,,,,,,,,,,,,,,brülösözünk,brülöslünk,left,9.2543,0,68,68,109,1,2,brülöslik / brülösözik,"brülöslik, brülösözni",ünk,NA,"János imád brülösözni, ezért sokat brülöslik.",Mi ritkán...,brülöslünk,brülösözünk,cselekszik,-lik,2,PR2043,1980,nő,nem,2022-04-15_20h19.37.479,hesp_baseline,2021.2.3,Win32,60.0132029
,,,,,,,,,,,,,,,,,tragzok,tragzom,right,4.2452,0,69,69,90,1,37,tragzik,tragzol,NA,NA,Te bizony sokat tragzol.,Én is sokat...,tragzok,tragzom,lakik,-zik,1,PR2043,1980,nő,nem,2022-04-15_20h19.37.479,hesp_baseline,2021.2.3,Win32,60.0132029
,,,,,,,,,,,,,,,,,frinylunk,frinyozunk,right,13.5176,0,70,70,133,1,26,frinylik / frinyozik,"frinylik, frinyozni",ünk,NA,"János imád frinyozni, ezért sokat frinylik.",Mi ritkán...,frinylunk,frinyozunk,cselekszik,-lik,1,PR2043,1980,nő,nem,2022-04-15_20h19.37.479,hesp_baseline,2021.2.3,Win32,60.0132029
,,,,,,,,,,,,,,,,,brigesztnak,brigesztnek,right,3.7079,0,71,71,48,1,49,brigeszt,brigeszt,nak,e,Ez itt egy brigeszt.,Elneveztem a kutyámat...,brigesztnek,brigesztnak,dzsungel,NA,NA,PR2043,1980,nő,nem,2022-04-15_20h19.37.479,hesp_baseline,2021.2.3,Win32,60.0132029
,,,,,,,,,,,,,,,,,frágapszom,frágapszok,right,11.4965,0,72,72,60,1,7,frágapszik,frágapszol,NA,NA,Te bizony sokat frágapszol.,Én is sokat...,frágapszok,frágapszom,lakik,-szik,2,PR2043,1980,nő,nem,2022-04-15_20h19.37.479,hesp_baseline,2021.2.3,Win32,60.0132029
,,,,,,,,,,,,,,,,,pítszom,pítszok,right,9.1192,0,73,73,62,1,9,pítszik,pítszol,NA,NA,Te bizony sokat pítszol.,Én is sokat...,pítszok,pítszom,lakik,-szik,1,PR2043,1980,nő,nem,2022-04-15_20h19.37.479,hesp_baseline,2021.2.3,Win32,60.0132029
,,,,,,,,,,,,,,,,,prilegzek,prilegzem,left,6.0025,0,74,74,79,1,26,prilegzik,prilegzel,NA,NA,Te bizony sokat prilegzel.,Én is sokat...,prilegzek,prilegzem,lakik,-zik,2,PR2043,1980,nő,nem,2022-04-15_20h19.37.479,hesp_baseline,2021.2.3,Win32,60.0132029
,,,,,,,,,,,,,,,,,aglok,aglom,left,2.7614,0,75,75,100,1,47,aglik,aglasz,NA,NA,Te bizony sokat aglasz.,Én is sokat...,aglok,aglom,lakik,-lik,1,PR2043,1980,nő,nem,2022-04-15_20h19.37.479,hesp_baseline,2021.2.3,Win32,60.0132029
,,,,,,,,,,,,,,,,,kaszépnek,kaszépnak,right,3.8756,0,76,76,40,1,41,kaszép,kaszép,nak,é,Ez itt egy kaszép.,Elneveztem a kutyámat...,kaszépnek,kaszépnak,dzsungel,NA,NA,PR2043,1980,nő,nem,2022-04-15_20h19.37.479,hesp_baseline,2021.2.3,Win32,60.0132029
,,,,,,,,,,,,,,,,,gihejlünk,gihejezünk,right,5.2092,0,77,77,146,1,39,gihejlik / gihejezik,"gihejlik, gihejezni",ünk,NA,"János imád gihejezni, ezért sokat gihejlik.",Mi ritkán...,gihejlünk,gihejezünk,cselekszik,-lik,2,PR2043,1980,nő,nem,2022-04-15_20h19.37.479,hesp_baseline,2021.2.3,Win32,60.0132029
,,,,,,,,,,,,,,,,,klörlök,klörlöm,right,5.2227,0,78,78,80,1,27,klörlik,klörlesz,NA,NA,Te bizony sokat klörlesz.,Én is sokat...,klörlök,klörlöm,lakik,-lik,1,PR2043,1980,nő,nem,2022-04-15_20h19.37.479,hesp_baseline,2021.2.3,Win32,60.0132029
,,,,,,,,,,,,,,,,,naremben,naremban,right,9.2778,0,79,79,2,1,3,narem,narem,ban,e,Ez itt egy narem.,Ott vagyunk a...,naremben,naremban,dzsungel,NA,NA,PR2043,1980,nő,nem,2022-04-15_20h19.37.479,hesp_baseline,2021.2.3,Win32,60.0132029
,,,,,,,,,,,,,,,,,breslenek,breseznek,left,4.0939,0,80,80,115,1,8,breslik / bresezik,"breslik, bresezni",nek,NA,"János imád bresezni, ezért sokat breslik.",Ők ritkán...,breslenek,breseznek,cselekszik,-lik,1,PR2043,1980,nő,nem,2022-04-15_20h19.37.479,hesp_baseline,2021.2.3,Win32,60.0132029
,,,,,,,,,,,,,,,,,spűmlök,spűmlöm,left,3.95,0,81,81,86,1,33,spűmlik,spűmlesz,NA,NA,Te bizony sokat spűmlesz.,Én is sokat...,spűmlök,spűmlöm,lakik,-lik,1,PR2043,1980,nő,nem,2022-04-15_20h19.37.479,hesp_baseline,2021.2.3,Win32,60.0132029
,,,,,,,,,,,,,,,,,klaráglom,klaráglok,right,5.0531,0,82,82,91,1,38,klaráglik,klaráglasz,NA,NA,Te bizony sokat klaráglasz.,Én is sokat...,klaráglok,klaráglom,lakik,-lik,2,PR2043,1980,nő,nem,2022-04-15_20h19.37.479,hesp_baseline,2021.2.3,Win32,60.0132029
,,,,,,,,,,,,,,,,,klihaslotok,klihasoztok,right,5.8239,0,83,83,156,1,49,klihaslik / klihasozik,"klihaslik, klihasozni",tek,NA,"János imád klihasozni, ezért sokat klihaslik.",Ti ritkán...,klihaslotok,klihasoztok,cselekszik,-lik,2,PR2043,1980,nő,nem,2022-04-15_20h19.37.479,hesp_baseline,2021.2.3,Win32,60.0132029
,,,,,,,,,,,,,,,,,froroznak,frorlanak,right,7.7476,0,84,84,143,1,36,frorlik / frorozik,"frorlik, frorozni",nek,NA,"János imád frorozni, ezért sokat frorlik.",Ők ritkán...,frorlanak,froroznak,cselekszik,-lik,1,PR2043,1980,nő,nem,2022-04-15_20h19.37.479,hesp_baseline,2021.2.3,Win32,60.0132029
,,,,,,,,,,,,,,,,,spéslek,spéslem,left,7.3555,0,85,85,93,1,40,spéslik,spéslesz,NA,NA,Te bizony sokat spéslesz.,Én is sokat...,spéslek,spéslem,lakik,-lik,1,PR2043,1980,nő,nem,2022-04-15_20h19.37.479,hesp_baseline,2021.2.3,Win32,60.0132029
,,,,,,,,,,,,,,,,,fádensnak,fádensnek,left,5.0948,0,86,86,33,1,34,fádens,fádens,nak,e,Ez itt egy fádens.,Elneveztem a kutyámat...,fádensnek,fádensnak,dzsungel,NA,NA,PR2043,1980,nő,nem,2022-04-15_20h19.37.479,hesp_baseline,2021.2.3,Win32,60.0132029
,,,,,,,,,,,,,,,,,flérlem,flérlek,right,2.6507,0,87,87,89,1,36,flérlik,flérlesz,NA,NA,Te bizony sokat flérlesz.,Én is sokat...,flérlek,flérlem,lakik,-lik,1,PR2043,1980,nő,nem,2022-04-15_20h19.37.479,hesp_baseline,2021.2.3,Win32,60.0132029
,,,,,,,,,,,,,,,,,vihapszunk,vihapodunk,left,5.6266,0,88,88,112,1,5,vihapszik / vihapodik,"vihapszik, vihapodni",ünk,NA,"János imád vihapodni, ezért sokat vihapszik.",Mi ritkán...,vihapszunk,vihapodunk,cselekszik,-szik,2,PR2043,1980,nő,nem,2022-04-15_20h19.37.479,hesp_baseline,2021.2.3,Win32,60.0132029
,,,,,,,,,,,,,,,,,incéjnek,incéjnak,left,4.4378,0,89,89,30,1,31,incéj,incéj,nak,é,Ez itt egy incéj.,Elneveztem a kutyámat...,incéjnek,incéjnak,dzsungel,NA,NA,PR2043,1980,nő,nem,2022-04-15_20h19.37.479,hesp_baseline,2021.2.3,Win32,60.0132029
,,,,,,,,,,,,,,,,,nyülöklenek,nyülököznek,right,6.6413,0,90,90,108,1,1,nyülöklik / nyülöközik,"nyülöklik, nyülöközni",nek,NA,"János imád nyülöközni, ezért sokat nyülöklik.",Ők ritkán...,nyülöklenek,nyülököznek,cselekszik,-lik,2,PR2043,1980,nő,nem,2022-04-15_20h19.37.479,hesp_baseline,2021.2.3,Win32,60.0132029
,,,,,,,,,,,,,,,,,hivépben,hivépban,left,4.6274,0,91,91,44,1,45,hivép,hivép,ban,é,Ez itt egy hivép.,Ott vagyunk a...,hivépben,hivépban,dzsungel,NA,NA,PR2043,1980,nő,nem,2022-04-15_20h19.37.479,hesp_baseline,2021.2.3,Win32,60.0132029
,,,,,,,,,,,,,,,,,gábédnél,gábédnál,right,15.3112,0,92,92,39,1,40,gábéd,gábéd,nál,é,Ez itt egy gábéd.,Nincs is jobb egy jó...,gábédnél,gábédnál,dzsungel,NA,NA,PR2043,1980,nő,nem,2022-04-15_20h19.37.479,hesp_baseline,2021.2.3,Win32,60.0132029
,,,,,,,,,,,,,,,,,hosétnek,hosétnak,right,6.7137,0,93,93,8,1,9,hosét,hosét,nak,é,Ez itt egy hosét.,Elneveztem a kutyámat...,hosétnek,hosétnak,dzsungel,NA,NA,PR2043,1980,nő,nem,2022-04-15_20h19.37.479,hesp_baseline,2021.2.3,Win32,60.0132029
,,,,,,,,,,,,,,,,,mádépnál,mádépnél,right,5.8264,0,94,94,1,1,2,mádép,mádép,nál,é,Ez itt egy mádép.,Nincs is jobb egy jó...,mádépnél,mádépnál,dzsungel,NA,NA,PR2043,1980,nő,nem,2022-04-15_20h19.37.479,hesp_baseline,2021.2.3,Win32,60.0132029
,,,,,,,,,,,,,,,,,bügöznek,bügzenek,right,4.1324,0,95,95,118,1,11,bügzik / bügözik,"bügzik, bügözni",nek,NA,"János imád bügözni, ezért sokat bügzik.",Ők ritkán...,bügzenek,bügöznek,cselekszik,-zik,1,PR2043,1980,nő,nem,2022-04-15_20h19.37.479,hesp_baseline,2021.2.3,Win32,60.0132029
,,,,,,,,,,,,,,,,,sprédlem,sprédlek,right,5.4678,0,96,96,70,1,17,sprédlik,sprédlesz,NA,NA,Te bizony sokat sprédlesz.,Én is sokat...,sprédlek,sprédlem,lakik,-lik,1,PR2043,1980,nő,nem,2022-04-15_20h19.37.479,hesp_baseline,2021.2.3,Win32,60.0132029
,,,,,,,,,,,,,,,,,privékednek,privékszenek,left,6.2316,0,97,97,149,1,42,privékszik / privékedik,"privékszik, privékedni",nek,NA,"János imád privékedni, ezért sokat privékszik.",Ők ritkán...,privékszenek,privékednek,cselekszik,-szik,2,PR2043,1980,nő,nem,2022-04-15_20h19.37.479,hesp_baseline,2021.2.3,Win32,60.0132029
,,,,,,,,,,,,,,,,,kadérnál,kadérnél,right,2.9685,0,98,98,7,1,8,kadér,kadér,nál,é,Ez itt egy kadér.,Nincs is jobb egy jó...,kadérnél,kadérnál,dzsungel,NA,NA,PR2043,1980,nő,nem,2022-04-15_20h19.37.479,hesp_baseline,2021.2.3,Win32,60.0132029
,,,,,,,,,,,,,,,,,monvegnál,monvegnél,right,4.0823,0,99,99,26,1,27,monveg,monveg,nál,e,Ez itt egy monveg.,Nincs is jobb egy jó...,monvegnél,monvegnál,dzsungel,NA,NA,PR2043,1980,nő,nem,2022-04-15_20h19.37.479,hesp_baseline,2021.2.3,Win32,60.0132029
,,,,,,,,,,,,,,,,,herégszem,herégszek,left,10.6972,0,100,100,54,1,1,herégszik,herégszel,NA,NA,Te bizony sokat herégszel.,Én is sokat...,herégszek,herégszem,lakik,-szik,2,PR2043,1980,nő,nem,2022-04-15_20h19.37.479,hesp_baseline,2021.2.3,Win32,60.0132029
,,,,,,,,,,,,,,,,,jutélynél,jutélynál,right,4.5162,0,101,101,11,1,12,jutély,jutély,nál,é,Ez itt egy jutély.,Nincs is jobb egy jó...,jutélynél,jutélynál,dzsungel,NA,NA,PR2043,1980,nő,nem,2022-04-15_20h19.37.479,hesp_baseline,2021.2.3,Win32,60.0132029
,,,,,,,,,,,,,,,,,zsúdelnek,zsúdelnak,left,4.449,0,102,102,14,1,15,zsúdel,zsúdel,nak,e,Ez itt egy zsúdel.,Elneveztem a kutyámat...,zsúdelnek,zsúdelnak,dzsungel,NA,NA,PR2043,1980,nő,nem,2022-04-15_20h19.37.479,hesp_baseline,2021.2.3,Win32,60.0132029
,,,,,,,,,,,,,,,,,lumézban,lumézben,left,4.032,0,103,103,32,1,33,luméz,luméz,ban,é,Ez itt egy luméz.,Ott vagyunk a...,lumézben,lumézban,dzsungel,NA,NA,PR2043,1980,nő,nem,2022-04-15_20h19.37.479,hesp_baseline,2021.2.3,Win32,60.0132029
,,,,,,,,,,,,,,,,,pekedünk,pekszünk,right,7.3627,0,104,104,161,1,54,pekszik / pekedik,"pekszik, pekedni",ünk,NA,"János imád pekedni, ezért sokat pekszik.",Mi ritkán...,pekszünk,pekedünk,cselekszik,-szik,1,PR2043,1980,nő,nem,2022-04-15_20h19.37.479,hesp_baseline,2021.2.3,Win32,60.0132029
,,,,,,,,,,,,,,,,,pivédban,pivédben,right,4.326,0,105,105,52,1,53,pivéd,pivéd,ban,é,Ez itt egy pivéd.,Ott vagyunk a...,pivédben,pivédban,dzsungel,NA,NA,PR2043,1980,nő,nem,2022-04-15_20h19.37.479,hesp_baseline,2021.2.3,Win32,60.0132029
,,,,,,,,,,,,,,,,,bölszöm,bölszök,right,4.6789,0,106,106,105,1,52,bölszik,bölszöl,NA,NA,Te bizony sokat bölszöl.,Én is sokat...,bölszök,bölszöm,lakik,-szik,1,PR2043,1980,nő,nem,2022-04-15_20h19.37.479,hesp_baseline,2021.2.3,Win32,60.0132029
,,,,,,,,,,,,,,,,,hurjorzom,hurjorzok,right,3.7497,0,107,107,59,1,6,hurjorzik,hurjorzol,NA,NA,Te bizony sokat hurjorzol.,Én is sokat...,hurjorzok,hurjorzom,lakik,-zik,2,PR2043,1980,nő,nem,2022-04-15_20h19.37.479,hesp_baseline,2021.2.3,Win32,60.0132029
,,,,,,,,,,,,,,,,,málapszok,málapszom,right,5.1998,0,108,108,66,1,13,málapszik,málapszol,NA,NA,Te bizony sokat málapszol.,Én is sokat...,málapszok,málapszom,lakik,-szik,2,PR2043,1980,nő,nem,2022-04-15_20h19.37.479,hesp_baseline,2021.2.3,Win32,60.0132029
,,,,,,,,,,,,,,,,,frirozunk,frirzunk,right,12.9409,0,109,109,129,1,22,frirzik / frirozik,"frirzik, frirozni",ünk,NA,"János imád frirozni, ezért sokat frirzik.",Mi ritkán...,frirzunk,frirozunk,cselekszik,-zik,1,PR2043,1980,nő,nem,2022-04-15_20h19.37.479,hesp_baseline,2021.2.3,Win32,60.0132029
,,,,,,,,,,,,,,,,,spihemlek,spihemlem,left,3.8387,0,110,110,94,1,41,spihemlik,spihemlesz,NA,NA,Te bizony sokat spihemlesz.,Én is sokat...,spihemlek,spihemlem,lakik,-lik,2,PR2043,1980,nő,nem,2022-04-15_20h19.37.479,hesp_baseline,2021.2.3,Win32,60.0132029
,,,,,,,,,,,,,,,,,feténylem,feténylek,right,5.2329,0,111,111,85,1,32,feténylik,feténylesz,NA,NA,Te bizony sokat feténylesz.,Én is sokat...,feténylek,feténylem,lakik,-lik,2,PR2043,1980,nő,nem,2022-04-15_20h19.37.479,hesp_baseline,2021.2.3,Win32,60.0132029
,,,,,,,,,,,,,,,,,priszecben,priszecban,left,3.4029,0,112,112,15,1,16,priszec,priszec,ban,e,Ez itt egy priszec.,Ott vagyunk a...,priszecben,priszecban,dzsungel,NA,NA,PR2043,1980,nő,nem,2022-04-15_20h19.37.479,hesp_baseline,2021.2.3,Win32,60.0132029
,,,,,,,,,,,,,,,,,sihennél,sihennál,left,5.8353,0,113,113,18,1,19,sihen,sihen,nál,e,Ez itt egy sihen.,Nincs is jobb egy jó...,sihennél,sihennál,dzsungel,NA,NA,PR2043,1980,nő,nem,2022-04-15_20h19.37.479,hesp_baseline,2021.2.3,Win32,60.0132029
,,,,,,,,,,,,,,,,,brubzok,brubzom,left,5.3921,0,114,114,92,1,39,brubzik,brubzol,NA,NA,Te bizony sokat brubzol.,Én is sokat...,brubzok,brubzom,lakik,-zik,1,PR2043,1980,nő,nem,2022-04-15_20h19.37.479,hesp_baseline,2021.2.3,Win32,60.0132029
,,,,,,,,,,,,,,,,,pilégednek,pilégszenek,right,4.4926,0,115,115,150,1,43,pilégszik / pilégedik,"pilégszik, pilégedni",nek,NA,"János imád pilégedni, ezért sokat pilégszik.",Ők ritkán...,pilégszenek,pilégednek,cselekszik,-szik,2,PR2043,1980,nő,nem,2022-04-15_20h19.37.479,hesp_baseline,2021.2.3,Win32,60.0132029
,,,,,,,,,,,,,,,,,fágyépnél,fágyépnál,right,6.4658,0,116,116,10,1,11,fágyép,fágyép,nál,é,Ez itt egy fágyép.,Nincs is jobb egy jó...,fágyépnél,fágyépnál,dzsungel,NA,NA,PR2043,1980,nő,nem,2022-04-15_20h19.37.479,hesp_baseline,2021.2.3,Win32,60.0132029
,,,,,,,,,,,,,,,,,trodélyben,trodélyban,right,3.1328,0,117,117,28,1,29,trodély,trodély,ban,é,Ez itt egy trodély.,Ott vagyunk a...,trodélyben,trodélyban,dzsungel,NA,NA,PR2043,1980,nő,nem,2022-04-15_20h19.37.479,hesp_baseline,2021.2.3,Win32,60.0132029
,,,,,,,,,,,,,,,,,nyivágzunk,nyivágozunk,left,9.455,0,118,118,113,1,6,nyivágzik / nyivágozik,"nyivágzik, nyivágozni",ünk,NA,"János imád nyivágozni, ezért sokat nyivágzik.",Mi ritkán...,nyivágzunk,nyivágozunk,cselekszik,-zik,2,PR2043,1980,nő,nem,2022-04-15_20h19.37.479,hesp_baseline,2021.2.3,Win32,60.0132029
,,,,,,,,,,,,,,,,,bejezünk,bejzünk,left,7.044,0,119,119,148,1,41,bejzik / bejezik,"bejzik, bejezni",ünk,NA,"János imád bejezni, ezért sokat bejzik.",Mi ritkán...,bejzünk,bejezünk,cselekszik,-zik,1,PR2043,1980,nő,nem,2022-04-15_20h19.37.479,hesp_baseline,2021.2.3,Win32,60.0132029
,,,,,,,,,,,,,,,,,zsalrénnek,zsalrénnak,right,5.3418,0,120,120,19,1,20,zsalrén,zsalrén,nak,é,Ez itt egy zsalrén.,Elneveztem a kutyámat...,zsalrénnek,zsalrénnak,dzsungel,NA,NA,PR2043,1980,nő,nem,2022-04-15_20h19.37.479,hesp_baseline,2021.2.3,Win32,60.0132029
,,,,,,,,,,,,,,,,,jurozunk,jurlunk,right,3.7432,0,121,121,111,1,4,jurlik / jurozik,"jurlik, jurozni",ünk,NA,"János imád jurozni, ezért sokat jurlik.",Mi ritkán...,jurlunk,jurozunk,cselekszik,-lik,1,PR2043,1980,nő,nem,2022-04-15_20h19.37.479,hesp_baseline,2021.2.3,Win32,60.0132029
,,,,,,,,,,,,,,,,,bralképben,bralképban,right,5.0623,0,122,122,12,1,13,bralkép,bralkép,ban,é,Ez itt egy bralkép.,Ott vagyunk a...,bralképben,bralképban,dzsungel,NA,NA,PR2043,1980,nő,nem,2022-04-15_20h19.37.479,hesp_baseline,2021.2.3,Win32,60.0132029
,,,,,,,,,,,,,,,,,fraklunk,frakozunk,right,5.3466,0,123,123,159,1,52,fraklik / frakozik,"fraklik, frakozni",ünk,NA,"János imád frakozni, ezért sokat fraklik.",Mi ritkán...,fraklunk,frakozunk,cselekszik,-lik,1,PR2043,1980,nő,nem,2022-04-15_20h19.37.479,hesp_baseline,2021.2.3,Win32,60.0132029
,,,,,,,,,,,,,,,,,nuhétnél,nuhétnál,left,4.098,0,124,124,29,1,30,nuhét,nuhét,nál,é,Ez itt egy nuhét.,Nincs is jobb egy jó...,nuhétnél,nuhétnál,dzsungel,NA,NA,PR2043,1980,nő,nem,2022-04-15_20h19.37.479,hesp_baseline,2021.2.3,Win32,60.0132029
,,,,,,,,,,,,,,,,,rokszok,rokszom,right,6.6501,0,125,125,101,1,48,rokszik,rokszol,NA,NA,Te bizony sokat rokszol.,Én is sokat...,rokszok,rokszom,lakik,-szik,1,PR2043,1980,nő,nem,2022-04-15_20h19.37.479,hesp_baseline,2021.2.3,Win32,60.0132029
,,,,,,,,,,,,,,,,,drűrzenek,drűröznek,right,9.2453,0,126,126,126,1,19,drűrzik / drűrözik,"drűrzik, drűrözni",nek,NA,"János imád drűrözni, ezért sokat drűrzik.",Ők ritkán...,drűrzenek,drűröznek,cselekszik,-zik,1,PR2043,1980,nő,nem,2022-04-15_20h19.37.479,hesp_baseline,2021.2.3,Win32,60.0132029
,,,,,,,,,,,,,,,,,marzom,marzok,right,7.2757,0,127,127,99,1,46,marzik,marzol,NA,NA,Te bizony sokat marzol.,Én is sokat...,marzok,marzom,lakik,-zik,1,PR2043,1980,nő,nem,2022-04-15_20h19.37.479,hesp_baseline,2021.2.3,Win32,60.0132029
,,,,,,,,,,,,,,,,,lorzensnél,lorzensnál,left,2.9749,0,128,128,34,1,35,lorzens,lorzens,nál,e,Ez itt egy lorzens.,Nincs is jobb egy jó...,lorzensnél,lorzensnál,dzsungel,NA,NA,PR2043,1980,nő,nem,2022-04-15_20h19.37.479,hesp_baseline,2021.2.3,Win32,60.0132029
,,,,,,,,,,,,,,,,,hiragzanak,hiragoznak,left,10.7465,0,129,129,119,1,12,hiragzik / hiragozik,"hiragzik, hiragozni",nek,NA,"János imád hiragozni, ezért sokat hiragzik.",Ők ritkán...,hiragzanak,hiragoznak,cselekszik,-zik,2,PR2043,1980,nő,nem,2022-04-15_20h19.37.479,hesp_baseline,2021.2.3,Win32,60.0132029
,,,,,,,,,,,,,,,,,zopélynél,zopélynál,right,7.2286,0,130,130,5,1,6,zopély,zopély,nál,é,Ez itt egy zopély.,Nincs is jobb egy jó...,zopélynél,zopélynál,dzsungel,NA,NA,PR2043,1980,nő,nem,2022-04-15_20h19.37.479,hesp_baseline,2021.2.3,Win32,60.0132029
,,,,,,,,,,,,,,,,,trukszotok,trukodtok,right,4.7597,0,131,131,157,1,50,trukszik / trukodik,"trukszik, trukodni",tek,NA,"János imád trukodni, ezért sokat trukszik.",Ti ritkán...,trukszotok,trukodtok,cselekszik,-szik,1,PR2043,1980,nő,nem,2022-04-15_20h19.37.479,hesp_baseline,2021.2.3,Win32,60.0132029
,,,,,,,,,,,,,,,,,prélemlenek,prélemeznek,left,3.7316,0,132,132,110,1,3,prélemlik / prélemezik,"prélemlik, prélemezni",nek,NA,"János imád prélemezni, ezért sokat prélemlik.",Ők ritkán...,prélemlenek,prélemeznek,cselekszik,-lik,2,PR2043,1980,nő,nem,2022-04-15_20h19.37.479,hesp_baseline,2021.2.3,Win32,60.0132029
,,,,,,,,,,,,,,,,,vodépnek,vodépnak,left,3.8304,0,133,133,41,1,42,vodép,vodép,nak,é,Ez itt egy vodép.,Elneveztem a kutyámat...,vodépnek,vodépnak,dzsungel,NA,NA,PR2043,1980,nő,nem,2022-04-15_20h19.37.479,hesp_baseline,2021.2.3,Win32,60.0132029
,,,,,,,,,,,,,,,,,prugorzotok,prugoroztok,right,6.4601,0,134,134,116,1,9,prugorzik / prugorozik,"prugorzik, prugorozni",tek,NA,"János imád prugorozni, ezért sokat prugorzik.",Ti ritkán...,prugorzotok,prugoroztok,cselekszik,-zik,2,PR2043,1980,nő,nem,2022-04-15_20h19.37.479,hesp_baseline,2021.2.3,Win32,60.0132029
,,,,,,,,,,,,,,,,,spilágzok,spilágzom,right,18.5868,0,135,135,76,1,23,spilágzik,spilágzol,NA,NA,Te bizony sokat spilágzol.,Én is sokat...,spilágzok,spilágzom,lakik,-zik,2,PR2043,1980,nő,nem,2022-04-15_20h19.37.479,hesp_baseline,2021.2.3,Win32,60.0132029
,,,,,,,,,,,,,,,,,plövőrzöm,plövőrzök,right,3.4659,0,136,136,58,1,5,plövőrzik,plövőrzöl,NA,NA,Te bizony sokat plövőrzöl.,Én is sokat...,plövőrzök,plövőrzöm,lakik,-zik,2,PR2043,1980,nő,nem,2022-04-15_20h19.37.479,hesp_baseline,2021.2.3,Win32,60.0132029
,,,,,,,,,,,,,,,,,jalrénynél,jalrénynál,right,4.5314,0,137,137,0,1,1,jalrény,jalrény,nál,é,Ez itt egy jalrény.,Nincs is jobb egy jó...,jalrénynél,jalrénynál,dzsungel,NA,NA,PR2043,1980,nő,nem,2022-04-15_20h19.37.479,hesp_baseline,2021.2.3,Win32,60.0132029
,,,,,,,,,,,,,,,,,pliboztok,plibzotok,right,5.9153,0,138,138,140,1,33,plibzik / plibozik,"plibzik, plibozni",tek,NA,"János imád plibozni, ezért sokat plibzik.",Ti ritkán...,plibzotok,pliboztok,cselekszik,-zik,1,PR2043,1980,nő,nem,2022-04-15_20h19.37.479,hesp_baseline,2021.2.3,Win32,60.0132029
,,,,,,,,,,,,,,,,,darhénban,darhénben,left,2.8994,0,139,139,27,1,28,darhén,darhén,ban,é,Ez itt egy darhén.,Ott vagyunk a...,darhénben,darhénban,dzsungel,NA,NA,PR2043,1980,nő,nem,2022-04-15_20h19.37.479,hesp_baseline,2021.2.3,Win32,60.0132029
,,,,,,,,,,,,,,,,,drügzöm,drügzök,right,2.4997,0,140,140,72,1,19,drügzik,drügzöl,NA,NA,Te bizony sokat drügzöl.,Én is sokat...,drügzök,drügzöm,lakik,-zik,1,PR2043,1980,nő,nem,2022-04-15_20h19.37.479,hesp_baseline,2021.2.3,Win32,60.0132029
,,,,,,,,,,,,,,,,,tágarozunk,tágarzunk,right,7.6961,0,141,141,155,1,48,tágarzik / tágarozik,"tágarzik, tágarozni",ünk,NA,"János imád tágarozni, ezért sokat tágarzik.",Mi ritkán...,tágarzunk,tágarozunk,cselekszik,-zik,2,PR2043,1980,nő,nem,2022-04-15_20h19.37.479,hesp_baseline,2021.2.3,Win32,60.0132029
,,,,,,,,,,,,,,,,,píjlom,píjlok,right,2.5706,0,142,142,75,1,22,píjlik,píjlasz,NA,NA,Te bizony sokat píjlasz.,Én is sokat...,píjlok,píjlom,lakik,-lik,1,PR2043,1980,nő,nem,2022-04-15_20h19.37.479,hesp_baseline,2021.2.3,Win32,60.0132029
,,,,,,,,,,,,,,,,,zsopédban,zsopédben,left,3.5087,0,143,143,50,1,51,zsopéd,zsopéd,ban,é,Ez itt egy zsopéd.,Ott vagyunk a...,zsopédben,zsopédban,dzsungel,NA,NA,PR2043,1980,nő,nem,2022-04-15_20h19.37.479,hesp_baseline,2021.2.3,Win32,60.0132029
,,,,,,,,,,,,,,,,,galároznak,galárzanak,left,6.7827,0,144,144,154,1,47,galárzik / galározik,"galárzik, galározni",nek,NA,"János imád galározni, ezért sokat galárzik.",Ők ritkán...,galárzanak,galároznak,cselekszik,-zik,2,PR2043,1980,nő,nem,2022-04-15_20h19.37.479,hesp_baseline,2021.2.3,Win32,60.0132029
,,,,,,,,,,,,,,,,,spibádzom,spibádzok,right,2.5809,0,145,145,65,1,12,spibádzik,spibádzol,NA,NA,Te bizony sokat spibádzol.,Én is sokat...,spibádzok,spibádzom,lakik,-zik,2,PR2043,1980,nő,nem,2022-04-15_20h19.37.479,hesp_baseline,2021.2.3,Win32,60.0132029
,,,,,,,,,,,,,,,,,buhényban,buhényben,left,5.203,0,146,146,43,1,44,buhény,buhény,ban,é,Ez itt egy buhény.,Ott vagyunk a...,buhényben,buhényban,dzsungel,NA,NA,PR2043,1980,nő,nem,2022-04-15_20h19.37.479,hesp_baseline,2021.2.3,Win32,60.0132029
,,,,,,,,,,,,,,,,,dujoznak,dujzanak,right,4.5482,0,147,147,128,1,21,dujzik / dujozik,"dujzik, dujozni",nek,NA,"János imád dujozni, ezért sokat dujzik.",Ők ritkán...,dujzanak,dujoznak,cselekszik,-zik,1,PR2043,1980,nő,nem,2022-04-15_20h19.37.479,hesp_baseline,2021.2.3,Win32,60.0132029
,,,,,,,,,,,,,,,,,trihagzom,trihagzok,right,4.5685,0,148,148,83,1,30,trihagzik,trihagzol,NA,NA,Te bizony sokat trihagzol.,Én is sokat...,trihagzok,trihagzom,lakik,-zik,2,PR2043,1980,nő,nem,2022-04-15_20h19.37.479,hesp_baseline,2021.2.3,Win32,60.0132029
,,,,,,,,,,,,,,,,,spatszom,spatszok,right,4.58,0,149,149,73,1,20,spatszik,spatszol,NA,NA,Te bizony sokat spatszol.,Én is sokat...,spatszok,spatszom,lakik,-szik,1,PR2043,1980,nő,nem,2022-04-15_20h19.37.479,hesp_baseline,2021.2.3,Win32,60.0132029
,,,,,,,,,,,,,,,,,csublényban,csublényben,left,2.9986,0,150,150,16,1,17,csublény,csublény,ban,é,Ez itt egy csublény.,Ott vagyunk a...,csublényben,csublényban,dzsungel,NA,NA,PR2043,1980,nő,nem,2022-04-15_20h19.37.479,hesp_baseline,2021.2.3,Win32,60.0132029
,,,,,,,,,,,,,,,,,brarlom,brarlok,right,3.8954,0,151,151,71,1,18,brarlik,brarlasz,NA,NA,Te bizony sokat brarlasz.,Én is sokat...,brarlok,brarlom,lakik,-lik,1,PR2043,1980,nő,nem,2022-04-15_20h19.37.479,hesp_baseline,2021.2.3,Win32,60.0132029
,,,,,,,,,,,,,,,,,köszöztök,köszlötök,right,10.7472,0,152,152,120,1,13,köszlik / köszözik,"köszlik, köszözni",tek,NA,"János imád köszözni, ezért sokat köszlik.",Ti ritkán...,köszlötök,köszöztök,cselekszik,-lik,1,PR2043,1980,nő,nem,2022-04-15_20h19.37.479,hesp_baseline,2021.2.3,Win32,60.0132029
,,,,,,,,,,,,,,,,,küslünk,küsözünk,right,7.2248,0,153,153,141,1,34,küslik / küsözik,"küslik, küsözni",ünk,NA,"János imád küsözni, ezért sokat küslik.",Mi ritkán...,küslünk,küsözünk,cselekszik,-lik,1,PR2043,1980,nő,nem,2022-04-15_20h19.37.479,hesp_baseline,2021.2.3,Win32,60.0132029
,,,,,,,,,,,,,,,,,huklok,huklom,left,6.8489,0,154,154,78,1,25,huklik,huklasz,NA,NA,Te bizony sokat huklasz.,Én is sokat...,huklok,huklom,lakik,-lik,1,PR2043,1980,nő,nem,2022-04-15_20h19.37.479,hesp_baseline,2021.2.3,Win32,60.0132029
,,,,,,,,,,,,,,,,,spibaklom,spibaklok,right,4.6896,0,155,155,55,1,2,spibaklik,spibaklasz,NA,NA,Te bizony sokat spibaklasz.,Én is sokat...,spibaklok,spibaklom,lakik,-lik,2,PR2043,1980,nő,nem,2022-04-15_20h19.37.479,hesp_baseline,2021.2.3,Win32,60.0132029
,,,,,,,,,,,,,,,,,dajrensnél,dajrensnál,left,4.359,0,156,156,49,1,50,dajrens,dajrens,nál,e,Ez itt egy dajrens.,Nincs is jobb egy jó...,dajrensnél,dajrensnál,dzsungel,NA,NA,PR2043,1980,nő,nem,2022-04-15_20h19.37.479,hesp_baseline,2021.2.3,Win32,60.0132029
,,,,,,,,,,,,,,,,,flehénylem,flehénylek,right,4.1248,0,157,157,106,1,53,flehénylik,flehénylesz,NA,NA,Te bizony sokat flehénylesz.,Én is sokat...,flehénylek,flehénylem,lakik,-lik,2,PR2043,1980,nő,nem,2022-04-15_20h19.37.479,hesp_baseline,2021.2.3,Win32,60.0132029
,,,,,,,,,,,,,,,,,flagárzok,flagárzom,left,2.3833,0,158,158,64,1,11,flagárzik,flagárzol,NA,NA,Te bizony sokat flagárzol.,Én is sokat...,flagárzok,flagárzom,lakik,-zik,2,PR2043,1980,nő,nem,2022-04-15_20h19.37.479,hesp_baseline,2021.2.3,Win32,60.0132029
,,,,,,,,,,,,,,,,,spélszek,spélszem,left,3.7827,0,159,159,68,1,15,spélszik,spélszel,NA,NA,Te bizony sokat spélszel.,Én is sokat...,spélszek,spélszem,lakik,-szik,1,PR2043,1980,nő,nem,2022-04-15_20h19.37.479,hesp_baseline,2021.2.3,Win32,60.0132029
,,,,,,,,,,,,,,,,,nyizlunk,nyizozunk,left,5.9983,0,160,160,135,1,28,nyizlik / nyizozik,"nyizlik, nyizozni",ünk,NA,"János imád nyizozni, ezért sokat nyizlik.",Mi ritkán...,nyizlunk,nyizozunk,cselekszik,-lik,1,PR2043,1980,nő,nem,2022-04-15_20h19.37.479,hesp_baseline,2021.2.3,Win32,60.0132029
,,,,,,,,,,,,,,,,,brüszöztök,brüszlötök,right,6.1483,0,161,161,130,1,23,brüszlik / brüszözik,"brüszlik, brüszözni",tek,NA,"János imád brüszözni, ezért sokat brüszlik.",Ti ritkán...,brüszlötök,brüszöztök,cselekszik,-lik,1,PR2043,1980,nő,nem,2022-04-15_20h19.37.479,hesp_baseline,2021.2.3,Win32,60.0132029
