my_list,key.keys,key.rt,key_2.keys,key_2.rt,keyboard_input_2.keys,keyboard_input_2.rt,key_3.keys,key_3.rt,keyboard_input_3.keys,keyboard_input_3.rt,key_4.keys,key_4.rt,keyboard_input_4.keys,keyboard_input_4.rt,key_5.keys,key_5.rt,my_button1,my_button2,keyboard_input.keys,keyboard_input.rt,withinBlock.thisRepN,withinBlock.thisTrialN,withinBlock.thisN,withinBlock.thisIndex,withinBlock.ran,rowname,word,prompt,suffix,vowel,carrier_sentence,target_sentence,target1,target2,category,derivational,nsyl,Azonosító,Melyik évben születtél?,Mi a nemed?,Tanultál nyelvészetet?,date,expName,psychopyVersion,OS,frameRate
list1.csv,space,19.1474,space,5.7547,right,9.2701,space,12.6992,right,6.7633,space,6.6583,right,9.0591,space,11.8464,drügzök,drügzöm,right,9.8548,0,0,0,72,1,19,drügzik,drügzöl,NA,NA,Te bizony sokat drügzöl.,Én is sokat...,drügzök,drügzöm,lakik,-zik,1,PR2055,1985,nő,nem,2022-04-14_09h44.16.379,hesp_baseline,2021.2.3,Win32,59.35422602
,,,,,,,,,,,,,,,,,fádensnek,fádensnak,left,5.8467,0,1,1,33,1,34,fádens,fádens,nak,e,Ez itt egy fádens.,Elneveztem a kutyámat...,fádensnek,fádensnak,dzsungel,NA,NA,PR2055,1985,nő,nem,2022-04-14_09h44.16.379,hesp_baseline,2021.2.3,Win32,59.35422602
,,,,,,,,,,,,,,,,,gonszéknél,gonszéknál,right,5.0629,0,2,2,38,1,39,gonszék,gonszék,nál,é,Ez itt egy gonszék.,Nincs is jobb egy jó...,gonszéknél,gonszéknál,dzsungel,NA,NA,PR2055,1985,nő,nem,2022-04-14_09h44.16.379,hesp_baseline,2021.2.3,Win32,59.35422602
,,,,,,,,,,,,,,,,,darhénben,darhénban,right,5.8828,0,3,3,27,1,28,darhén,darhén,ban,é,Ez itt egy darhén.,Ott vagyunk a...,darhénben,darhénban,dzsungel,NA,NA,PR2055,1985,nő,nem,2022-04-14_09h44.16.379,hesp_baseline,2021.2.3,Win32,59.35422602
,,,,,,,,,,,,,,,,,pebzek,pebzem,right,3.8161,0,4,4,57,1,4,pebzik,pebzel,NA,NA,Te bizony sokat pebzel.,Én is sokat...,pebzek,pebzem,lakik,-zik,1,PR2055,1985,nő,nem,2022-04-14_09h44.16.379,hesp_baseline,2021.2.3,Win32,59.35422602
,,,,,,,,,,,,,,,,,hosétnek,hosétnak,right,4.7836,0,5,5,8,1,9,hosét,hosét,nak,é,Ez itt egy hosét.,Elneveztem a kutyámat...,hosétnek,hosétnak,dzsungel,NA,NA,PR2055,1985,nő,nem,2022-04-14_09h44.16.379,hesp_baseline,2021.2.3,Win32,59.35422602
,,,,,,,,,,,,,,,,,pekszünk,pekedünk,left,4.8654,0,6,6,161,1,54,pekszik / pekedik,"pekszik, pekedni",ünk,NA,"János imád pekedni, ezért sokat pekszik.",Mi ritkán...,pekszünk,pekedünk,cselekszik,-szik,1,PR2055,1985,nő,nem,2022-04-14_09h44.16.379,hesp_baseline,2021.2.3,Win32,59.35422602
,,,,,,,,,,,,,,,,,píjlom,píjlok,left,3.666,0,7,7,75,1,22,píjlik,píjlasz,NA,NA,Te bizony sokat píjlasz.,Én is sokat...,píjlok,píjlom,lakik,-lik,1,PR2055,1985,nő,nem,2022-04-14_09h44.16.379,hesp_baseline,2021.2.3,Win32,59.35422602
,,,,,,,,,,,,,,,,,spibaklok,spibaklom,right,6.3519,0,8,8,55,1,2,spibaklik,spibaklasz,NA,NA,Te bizony sokat spibaklasz.,Én is sokat...,spibaklok,spibaklom,lakik,-lik,2,PR2055,1985,nő,nem,2022-04-14_09h44.16.379,hesp_baseline,2021.2.3,Win32,59.35422602
,,,,,,,,,,,,,,,,,buhényben,buhényban,left,2.7143,0,9,9,43,1,44,buhény,buhény,ban,é,Ez itt egy buhény.,Ott vagyunk a...,buhényben,buhényban,dzsungel,NA,NA,PR2055,1985,nő,nem,2022-04-14_09h44.16.379,hesp_baseline,2021.2.3,Win32,59.35422602
,,,,,,,,,,,,,,,,,galárzanak,galároznak,right,5.5963,0,10,10,154,1,47,galárzik / galározik,"galárzik, galározni",nek,NA,"János imád galározni, ezért sokat galárzik.",Ők ritkán...,galárzanak,galároznak,cselekszik,-zik,2,PR2055,1985,nő,nem,2022-04-14_09h44.16.379,hesp_baseline,2021.2.3,Win32,59.35422602
,,,,,,,,,,,,,,,,,prugoroztok,prugorzotok,left,8.1065,0,11,11,116,1,9,prugorzik / prugorozik,"prugorzik, prugorozni",tek,NA,"János imád prugorozni, ezért sokat prugorzik.",Ti ritkán...,prugorzotok,prugoroztok,cselekszik,-zik,2,PR2055,1985,nő,nem,2022-04-14_09h44.16.379,hesp_baseline,2021.2.3,Win32,59.35422602
,,,,,,,,,,,,,,,,,kűdlenek,kűdöznek,right,9.5592,0,12,12,142,1,35,kűdlik / kűdözik,"kűdlik, kűdözni",nek,NA,"János imád kűdözni, ezért sokat kűdlik.",Ők ritkán...,kűdlenek,kűdöznek,cselekszik,-lik,1,PR2055,1985,nő,nem,2022-04-14_09h44.16.379,hesp_baseline,2021.2.3,Win32,59.35422602
,,,,,,,,,,,,,,,,,pugoslok,pugoslom,right,3.0867,0,13,13,84,1,31,pugoslik,pugoslasz,NA,NA,Te bizony sokat pugoslasz.,Én is sokat...,pugoslok,pugoslom,lakik,-lik,2,PR2055,1985,nő,nem,2022-04-14_09h44.16.379,hesp_baseline,2021.2.3,Win32,59.35422602
,,,,,,,,,,,,,,,,,prilegzek,prilegzem,right,3.2682,0,14,14,79,1,26,prilegzik,prilegzel,NA,NA,Te bizony sokat prilegzel.,Én is sokat...,prilegzek,prilegzem,lakik,-zik,2,PR2055,1985,nő,nem,2022-04-14_09h44.16.379,hesp_baseline,2021.2.3,Win32,59.35422602
,,,,,,,,,,,,,,,,,frélegezünk,frélegzünk,left,4.9204,0,15,15,147,1,40,frélegzik / frélegezik,"frélegzik, frélegezni",ünk,NA,"János imád frélegezni, ezért sokat frélegzik.",Mi ritkán...,frélegzünk,frélegezünk,cselekszik,-zik,2,PR2055,1985,nő,nem,2022-04-14_09h44.16.379,hesp_baseline,2021.2.3,Win32,59.35422602
,,,,,,,,,,,,,,,,,pítszok,pítszom,right,3.5336,0,16,16,62,1,9,pítszik,pítszol,NA,NA,Te bizony sokat pítszol.,Én is sokat...,pítszok,pítszom,lakik,-szik,1,PR2055,1985,nő,nem,2022-04-14_09h44.16.379,hesp_baseline,2021.2.3,Win32,59.35422602
,,,,,,,,,,,,,,,,,privékednek,privékszenek,right,4.9871,0,17,17,149,1,42,privékszik / privékedik,"privékszik, privékedni",nek,NA,"János imád privékedni, ezért sokat privékszik.",Ők ritkán...,privékszenek,privékednek,cselekszik,-szik,2,PR2055,1985,nő,nem,2022-04-14_09h44.16.379,hesp_baseline,2021.2.3,Win32,59.35422602
,,,,,,,,,,,,,,,,,nuhétnél,nuhétnál,right,3.0186,0,18,18,29,1,30,nuhét,nuhét,nál,é,Ez itt egy nuhét.,Nincs is jobb egy jó...,nuhétnél,nuhétnál,dzsungel,NA,NA,PR2055,1985,nő,nem,2022-04-14_09h44.16.379,hesp_baseline,2021.2.3,Win32,59.35422602
,,,,,,,,,,,,,,,,,prögöztök,prögzötök,left,4.5196,0,19,19,151,1,44,prögzik / prögözik,"prögzik, prögözni",tek,NA,"János imád prögözni, ezért sokat prögzik.",Ti ritkán...,prögzötök,prögöztök,cselekszik,-zik,1,PR2055,1985,nő,nem,2022-04-14_09h44.16.379,hesp_baseline,2021.2.3,Win32,59.35422602
,,,,,,,,,,,,,,,,,mísozunk,míslunk,left,10.3725,0,20,20,123,1,16,míslik / mísozik,"míslik, mísozni",ünk,NA,"János imád mísozni, ezért sokat míslik.",Mi ritkán...,míslunk,mísozunk,cselekszik,-lik,1,PR2055,1985,nő,nem,2022-04-14_09h44.16.379,hesp_baseline,2021.2.3,Win32,59.35422602
,,,,,,,,,,,,,,,,,zopélynál,zopélynél,left,3.6549,0,21,21,5,1,6,zopély,zopély,nál,é,Ez itt egy zopély.,Nincs is jobb egy jó...,zopélynél,zopélynál,dzsungel,NA,NA,PR2055,1985,nő,nem,2022-04-14_09h44.16.379,hesp_baseline,2021.2.3,Win32,59.35422602
,,,,,,,,,,,,,,,,,priszkencnek,priszkencnak,left,3.2288,0,22,22,20,1,21,priszkenc,priszkenc,nak,e,Ez itt egy priszkenc.,Elneveztem a kutyámat...,priszkencnek,priszkencnak,dzsungel,NA,NA,PR2055,1985,nő,nem,2022-04-14_09h44.16.379,hesp_baseline,2021.2.3,Win32,59.35422602
,,,,,,,,,,,,,,,,,trihagzom,trihagzok,left,3.2012,0,23,23,83,1,30,trihagzik,trihagzol,NA,NA,Te bizony sokat trihagzol.,Én is sokat...,trihagzok,trihagzom,lakik,-zik,2,PR2055,1985,nő,nem,2022-04-14_09h44.16.379,hesp_baseline,2021.2.3,Win32,59.35422602
,,,,,,,,,,,,,,,,,prélemlenek,prélemeznek,right,9.274,0,24,24,110,1,3,prélemlik / prélemezik,"prélemlik, prélemezni",nek,NA,"János imád prélemezni, ezért sokat prélemlik.",Ők ritkán...,prélemlenek,prélemeznek,cselekszik,-lik,2,PR2055,1985,nő,nem,2022-04-14_09h44.16.379,hesp_baseline,2021.2.3,Win32,59.35422602
,,,,,,,,,,,,,,,,,gyivepszenek,gyivepednek,right,4.7767,0,25,25,160,1,53,gyivepszik / gyivepedik,"gyivepszik, gyivepedni",nek,NA,"János imád gyivepedni, ezért sokat gyivepszik.",Ők ritkán...,gyivepszenek,gyivepednek,cselekszik,-szik,2,PR2055,1985,nő,nem,2022-04-14_09h44.16.379,hesp_baseline,2021.2.3,Win32,59.35422602
,,,,,,,,,,,,,,,,,dutecnél,dutecnál,right,3.6558,0,26,26,22,1,23,dutec,dutec,nál,e,Ez itt egy dutec.,Nincs is jobb egy jó...,dutecnél,dutecnál,dzsungel,NA,NA,PR2055,1985,nő,nem,2022-04-14_09h44.16.379,hesp_baseline,2021.2.3,Win32,59.35422602
,,,,,,,,,,,,,,,,,flivegeznek,flivegzenek,left,4.2759,0,27,27,138,1,31,flivegzik / flivegezik,"flivegzik, flivegezni",nek,NA,"János imád flivegezni, ezért sokat flivegzik.",Ők ritkán...,flivegzenek,flivegeznek,cselekszik,-zik,2,PR2055,1985,nő,nem,2022-04-14_09h44.16.379,hesp_baseline,2021.2.3,Win32,59.35422602
,,,,,,,,,,,,,,,,,klordénynak,klordénynek,left,3.437,0,28,28,9,1,10,klordény,klordény,nak,é,Ez itt egy klordény.,Elneveztem a kutyámat...,klordénynek,klordénynak,dzsungel,NA,NA,PR2055,1985,nő,nem,2022-04-14_09h44.16.379,hesp_baseline,2021.2.3,Win32,59.35422602
,,,,,,,,,,,,,,,,,gatáglunk,gatágozunk,right,4.7958,0,29,29,137,1,30,gatáglik / gatágozik,"gatáglik, gatágozni",ünk,NA,"János imád gatágozni, ezért sokat gatáglik.",Mi ritkán...,gatáglunk,gatágozunk,cselekszik,-lik,2,PR2055,1985,nő,nem,2022-04-14_09h44.16.379,hesp_baseline,2021.2.3,Win32,59.35422602
,,,,,,,,,,,,,,,,,szibedban,szibedben,right,6.314,0,30,30,47,1,48,szibed,szibed,ban,e,Ez itt egy szibed.,Ott vagyunk a...,szibedben,szibedban,dzsungel,NA,NA,PR2055,1985,nő,nem,2022-04-14_09h44.16.379,hesp_baseline,2021.2.3,Win32,59.35422602
,,,,,,,,,,,,,,,,,klaráglom,klaráglok,right,4.0719,0,31,31,91,1,38,klaráglik,klaráglasz,NA,NA,Te bizony sokat klaráglasz.,Én is sokat...,klaráglok,klaráglom,lakik,-lik,2,PR2055,1985,nő,nem,2022-04-14_09h44.16.379,hesp_baseline,2021.2.3,Win32,59.35422602
,,,,,,,,,,,,,,,,,bregzünk,bregezünk,right,3.2602,0,32,32,139,1,32,bregzik / bregezik,"bregzik, bregezni",ünk,NA,"János imád bregezni, ezért sokat bregzik.",Mi ritkán...,bregzünk,bregezünk,cselekszik,-zik,1,PR2055,1985,nő,nem,2022-04-14_09h44.16.379,hesp_baseline,2021.2.3,Win32,59.35422602
,,,,,,,,,,,,,,,,,klörlök,klörlöm,right,3.3443,0,33,33,80,1,27,klörlik,klörlesz,NA,NA,Te bizony sokat klörlesz.,Én is sokat...,klörlök,klörlöm,lakik,-lik,1,PR2055,1985,nő,nem,2022-04-14_09h44.16.379,hesp_baseline,2021.2.3,Win32,59.35422602
,,,,,,,,,,,,,,,,,brarlok,brarlom,right,4.5435,0,34,34,71,1,18,brarlik,brarlasz,NA,NA,Te bizony sokat brarlasz.,Én is sokat...,brarlok,brarlom,lakik,-lik,1,PR2055,1985,nő,nem,2022-04-14_09h44.16.379,hesp_baseline,2021.2.3,Win32,59.35422602
,,,,,,,,,,,,,,,,,zsúdelnek,zsúdelnak,left,3.2137,0,35,35,14,1,15,zsúdel,zsúdel,nak,e,Ez itt egy zsúdel.,Elneveztem a kutyámat...,zsúdelnek,zsúdelnak,dzsungel,NA,NA,PR2055,1985,nő,nem,2022-04-14_09h44.16.379,hesp_baseline,2021.2.3,Win32,59.35422602
,,,,,,,,,,,,,,,,,kalhésznak,kalhésznek,left,7.5634,0,36,36,46,1,47,kalhész,kalhész,nak,é,Ez itt egy kalhész.,Elneveztem a kutyámat...,kalhésznek,kalhésznak,dzsungel,NA,NA,PR2055,1985,nő,nem,2022-04-14_09h44.16.379,hesp_baseline,2021.2.3,Win32,59.35422602
,,,,,,,,,,,,,,,,,sprédlem,sprédlek,right,3.5716,0,37,37,70,1,17,sprédlik,sprédlesz,NA,NA,Te bizony sokat sprédlesz.,Én is sokat...,sprédlek,sprédlem,lakik,-lik,1,PR2055,1985,nő,nem,2022-04-14_09h44.16.379,hesp_baseline,2021.2.3,Win32,59.35422602
,,,,,,,,,,,,,,,,,drűröznek,drűrzenek,left,5.3049,0,38,38,126,1,19,drűrzik / drűrözik,"drűrzik, drűrözni",nek,NA,"János imád drűrözni, ezért sokat drűrzik.",Ők ritkán...,drűrzenek,drűröznek,cselekszik,-zik,1,PR2055,1985,nő,nem,2022-04-14_09h44.16.379,hesp_baseline,2021.2.3,Win32,59.35422602
,,,,,,,,,,,,,,,,,brivaklotok,brivakoztok,left,5.6072,0,39,39,134,1,27,brivaklik / brivakozik,"brivaklik, brivakozni",tek,NA,"János imád brivakozni, ezért sokat brivaklik.",Ti ritkán...,brivaklotok,brivakoztok,cselekszik,-lik,2,PR2055,1985,nő,nem,2022-04-14_09h44.16.379,hesp_baseline,2021.2.3,Win32,59.35422602
,,,,,,,,,,,,,,,,,plövőrzök,plövőrzöm,left,7.1944,0,40,40,58,1,5,plövőrzik,plövőrzöl,NA,NA,Te bizony sokat plövőrzöl.,Én is sokat...,plövőrzök,plövőrzöm,lakik,-zik,2,PR2055,1985,nő,nem,2022-04-14_09h44.16.379,hesp_baseline,2021.2.3,Win32,59.35422602
,,,,,,,,,,,,,,,,,hóbensben,hóbensban,left,3.3421,0,41,41,3,1,4,hóbens,hóbens,ban,e,Ez itt egy hóbens.,Ott vagyunk a...,hóbensben,hóbensban,dzsungel,NA,NA,PR2055,1985,nő,nem,2022-04-14_09h44.16.379,hesp_baseline,2021.2.3,Win32,59.35422602
,,,,,,,,,,,,,,,,,flérlek,flérlem,left,2.4917,0,42,42,89,1,36,flérlik,flérlesz,NA,NA,Te bizony sokat flérlesz.,Én is sokat...,flérlek,flérlem,lakik,-lik,1,PR2055,1985,nő,nem,2022-04-14_09h44.16.379,hesp_baseline,2021.2.3,Win32,59.35422602
,,,,,,,,,,,,,,,,,préleglek,préleglem,left,3.7267,0,43,43,104,1,51,préleglik,préleglesz,NA,NA,Te bizony sokat préleglesz.,Én is sokat...,préleglek,préleglem,lakik,-lik,2,PR2055,1985,nő,nem,2022-04-14_09h44.16.379,hesp_baseline,2021.2.3,Win32,59.35422602
,,,,,,,,,,,,,,,,,jüslöm,jüslök,left,2.8502,0,44,44,56,1,3,jüslik,jüslesz,NA,NA,Te bizony sokat jüslesz.,Én is sokat...,jüslök,jüslöm,lakik,-lik,1,PR2055,1985,nő,nem,2022-04-14_09h44.16.379,hesp_baseline,2021.2.3,Win32,59.35422602
,,,,,,,,,,,,,,,,,kadérnál,kadérnél,right,3.307,0,45,45,7,1,8,kadér,kadér,nál,é,Ez itt egy kadér.,Nincs is jobb egy jó...,kadérnél,kadérnál,dzsungel,NA,NA,PR2055,1985,nő,nem,2022-04-14_09h44.16.379,hesp_baseline,2021.2.3,Win32,59.35422602
,,,,,,,,,,,,,,,,,monvegnál,monvegnél,right,4.2522,0,46,46,26,1,27,monveg,monveg,nál,e,Ez itt egy monveg.,Nincs is jobb egy jó...,monvegnél,monvegnál,dzsungel,NA,NA,PR2055,1985,nő,nem,2022-04-14_09h44.16.379,hesp_baseline,2021.2.3,Win32,59.35422602
,,,,,,,,,,,,,,,,,hilarzom,hilarzok,left,2.8493,0,47,47,69,1,16,hilarzik,hilarzol,NA,NA,Te bizony sokat hilarzol.,Én is sokat...,hilarzok,hilarzom,lakik,-zik,2,PR2055,1985,nő,nem,2022-04-14_09h44.16.379,hesp_baseline,2021.2.3,Win32,59.35422602
,,,,,,,,,,,,,,,,,tránélynek,tránélynak,left,4.1917,0,48,48,17,1,18,tránély,tránély,nak,é,Ez itt egy tránély.,Elneveztem a kutyámat...,tránélynek,tránélynak,dzsungel,NA,NA,PR2055,1985,nő,nem,2022-04-14_09h44.16.379,hesp_baseline,2021.2.3,Win32,59.35422602
,,,,,,,,,,,,,,,,,jutélynél,jutélynál,right,2.5892,0,49,49,11,1,12,jutély,jutély,nál,é,Ez itt egy jutély.,Nincs is jobb egy jó...,jutélynél,jutélynál,dzsungel,NA,NA,PR2055,1985,nő,nem,2022-04-14_09h44.16.379,hesp_baseline,2021.2.3,Win32,59.35422602
,,,,,,,,,,,,,,,,,kaszépnek,kaszépnak,right,3.2676,0,50,50,40,1,41,kaszép,kaszép,nak,é,Ez itt egy kaszép.,Elneveztem a kutyámat...,kaszépnek,kaszépnak,dzsungel,NA,NA,PR2055,1985,nő,nem,2022-04-14_09h44.16.379,hesp_baseline,2021.2.3,Win32,59.35422602
,,,,,,,,,,,,,,,,,bralképben,bralképban,left,2.8577,0,51,51,12,1,13,bralkép,bralkép,ban,é,Ez itt egy bralkép.,Ott vagyunk a...,bralképben,bralképban,dzsungel,NA,NA,PR2055,1985,nő,nem,2022-04-14_09h44.16.379,hesp_baseline,2021.2.3,Win32,59.35422602
,,,,,,,,,,,,,,,,,feténylem,feténylek,right,2.3725,0,52,52,85,1,32,feténylik,feténylesz,NA,NA,Te bizony sokat feténylesz.,Én is sokat...,feténylek,feténylem,lakik,-lik,2,PR2055,1985,nő,nem,2022-04-14_09h44.16.379,hesp_baseline,2021.2.3,Win32,59.35422602
,,,,,,,,,,,,,,,,,froroznak,frorlanak,left,5.4064,0,53,53,143,1,36,frorlik / frorozik,"frorlik, frorozni",nek,NA,"János imád frorozni, ezért sokat frorlik.",Ők ritkán...,frorlanak,froroznak,cselekszik,-lik,1,PR2055,1985,nő,nem,2022-04-14_09h44.16.379,hesp_baseline,2021.2.3,Win32,59.35422602
,,,,,,,,,,,,,,,,,vihapszunk,vihapodunk,right,4.6712,0,54,54,112,1,5,vihapszik / vihapodik,"vihapszik, vihapodni",ünk,NA,"János imád vihapodni, ezért sokat vihapszik.",Mi ritkán...,vihapszunk,vihapodunk,cselekszik,-szik,2,PR2055,1985,nő,nem,2022-04-14_09h44.16.379,hesp_baseline,2021.2.3,Win32,59.35422602
,,,,,,,,,,,,,,,,,flözlök,flözlöm,right,2.1618,0,55,55,74,1,21,flözlik,flözlesz,NA,NA,Te bizony sokat flözlesz.,Én is sokat...,flözlök,flözlöm,lakik,-lik,1,PR2055,1985,nő,nem,2022-04-14_09h44.16.379,hesp_baseline,2021.2.3,Win32,59.35422602
,,,,,,,,,,,,,,,,,málapszok,málapszom,right,2.6932,0,56,56,66,1,13,málapszik,málapszol,NA,NA,Te bizony sokat málapszol.,Én is sokat...,málapszok,málapszom,lakik,-szik,2,PR2055,1985,nő,nem,2022-04-14_09h44.16.379,hesp_baseline,2021.2.3,Win32,59.35422602
,,,,,,,,,,,,,,,,,vilakszom,vilakszok,left,2.3463,0,57,57,97,1,44,vilakszik,vilakszol,NA,NA,Te bizony sokat vilakszol.,Én is sokat...,vilakszok,vilakszom,lakik,-szik,2,PR2055,1985,nő,nem,2022-04-14_09h44.16.379,hesp_baseline,2021.2.3,Win32,59.35422602
,,,,,,,,,,,,,,,,,tágarozunk,tágarzunk,left,3.4819,0,58,58,155,1,48,tágarzik / tágarozik,"tágarzik, tágarozni",ünk,NA,"János imád tágarozni, ezért sokat tágarzik.",Mi ritkán...,tágarzunk,tágarozunk,cselekszik,-zik,2,PR2055,1985,nő,nem,2022-04-14_09h44.16.379,hesp_baseline,2021.2.3,Win32,59.35422602
,,,,,,,,,,,,,,,,,priszecban,priszecben,right,3.3558,0,59,59,15,1,16,priszec,priszec,ban,e,Ez itt egy priszec.,Ott vagyunk a...,priszecben,priszecban,dzsungel,NA,NA,PR2055,1985,nő,nem,2022-04-14_09h44.16.379,hesp_baseline,2021.2.3,Win32,59.35422602
,,,,,,,,,,,,,,,,,sprimozunk,sprimlunk,left,3.4088,0,60,60,127,1,20,sprimlik / sprimozik,"sprimlik, sprimozni",ünk,NA,"János imád sprimozni, ezért sokat sprimlik.",Mi ritkán...,sprimlunk,sprimozunk,cselekszik,-lik,1,PR2055,1985,nő,nem,2022-04-14_09h44.16.379,hesp_baseline,2021.2.3,Win32,59.35422602
,,,,,,,,,,,,,,,,,jorzégnak,jorzégnek,right,2.4754,0,61,61,45,1,46,jorzég,jorzég,nak,é,Ez itt egy jorzég.,Elneveztem a kutyámat...,jorzégnek,jorzégnak,dzsungel,NA,NA,PR2055,1985,nő,nem,2022-04-14_09h44.16.379,hesp_baseline,2021.2.3,Win32,59.35422602
,,,,,,,,,,,,,,,,,spilágzom,spilágzok,left,4.0939,0,62,62,76,1,23,spilágzik,spilágzol,NA,NA,Te bizony sokat spilágzol.,Én is sokat...,spilágzok,spilágzom,lakik,-zik,2,PR2055,1985,nő,nem,2022-04-14_09h44.16.379,hesp_baseline,2021.2.3,Win32,59.35422602
,,,,,,,,,,,,,,,,,hijegynél,hijegynál,left,2.726,0,63,63,4,1,5,hijegy,hijegy,nál,e,Ez itt egy hijegy.,Nincs is jobb egy jó...,hijegynél,hijegynál,dzsungel,NA,NA,PR2055,1985,nő,nem,2022-04-14_09h44.16.379,hesp_baseline,2021.2.3,Win32,59.35422602
,,,,,,,,,,,,,,,,,tivencban,tivencben,right,2.2103,0,64,64,53,1,54,tivenc,tivenc,ban,e,Ez itt egy tivenc.,Ott vagyunk a...,tivencben,tivencban,dzsungel,NA,NA,PR2055,1985,nő,nem,2022-04-14_09h44.16.379,hesp_baseline,2021.2.3,Win32,59.35422602
,,,,,,,,,,,,,,,,,gábédnél,gábédnál,right,3.2065,0,65,65,39,1,40,gábéd,gábéd,nál,é,Ez itt egy gábéd.,Nincs is jobb egy jó...,gábédnél,gábédnál,dzsungel,NA,NA,PR2055,1985,nő,nem,2022-04-14_09h44.16.379,hesp_baseline,2021.2.3,Win32,59.35422602
,,,,,,,,,,,,,,,,,dunkészban,dunkészben,right,2.0302,0,66,66,24,1,25,dunkész,dunkész,ban,é,Ez itt egy dunkész.,Ott vagyunk a...,dunkészben,dunkészban,dzsungel,NA,NA,PR2055,1985,nő,nem,2022-04-14_09h44.16.379,hesp_baseline,2021.2.3,Win32,59.35422602
,,,,,,,,,,,,,,,,,huklok,huklom,right,2.1434,0,67,67,78,1,25,huklik,huklasz,NA,NA,Te bizony sokat huklasz.,Én is sokat...,huklok,huklom,lakik,-lik,1,PR2055,1985,nő,nem,2022-04-14_09h44.16.379,hesp_baseline,2021.2.3,Win32,59.35422602
,,,,,,,,,,,,,,,,,brubzok,brubzom,right,2.1088,0,68,68,92,1,39,brubzik,brubzol,NA,NA,Te bizony sokat brubzol.,Én is sokat...,brubzok,brubzom,lakik,-zik,1,PR2055,1985,nő,nem,2022-04-14_09h44.16.379,hesp_baseline,2021.2.3,Win32,59.35422602
,,,,,,,,,,,,,,,,,trodélyben,trodélyban,right,3.7768,0,69,69,28,1,29,trodély,trodély,ban,é,Ez itt egy trodély.,Ott vagyunk a...,trodélyben,trodélyban,dzsungel,NA,NA,PR2055,1985,nő,nem,2022-04-14_09h44.16.379,hesp_baseline,2021.2.3,Win32,59.35422602
,,,,,,,,,,,,,,,,,breslenek,breseznek,right,3.5171,0,70,70,115,1,8,breslik / bresezik,"breslik, bresezni",nek,NA,"János imád bresezni, ezért sokat breslik.",Ők ritkán...,breslenek,breseznek,cselekszik,-lik,1,PR2055,1985,nő,nem,2022-04-14_09h44.16.379,hesp_baseline,2021.2.3,Win32,59.35422602
,,,,,,,,,,,,,,,,,marzok,marzom,right,1.8389,0,71,71,99,1,46,marzik,marzol,NA,NA,Te bizony sokat marzol.,Én is sokat...,marzok,marzom,lakik,-zik,1,PR2055,1985,nő,nem,2022-04-14_09h44.16.379,hesp_baseline,2021.2.3,Win32,59.35422602
,,,,,,,,,,,,,,,,,hurjorzok,hurjorzom,right,1.8195,0,72,72,59,1,6,hurjorzik,hurjorzol,NA,NA,Te bizony sokat hurjorzol.,Én is sokat...,hurjorzok,hurjorzom,lakik,-zik,2,PR2055,1985,nő,nem,2022-04-14_09h44.16.379,hesp_baseline,2021.2.3,Win32,59.35422602
,,,,,,,,,,,,,,,,,jukélnál,jukélnél,right,2.3609,0,73,73,42,1,43,jukél,jukél,nál,é,Ez itt egy jukél.,Nincs is jobb egy jó...,jukélnél,jukélnál,dzsungel,NA,NA,PR2055,1985,nő,nem,2022-04-14_09h44.16.379,hesp_baseline,2021.2.3,Win32,59.35422602
,,,,,,,,,,,,,,,,,vanylom,vanylok,right,2.3572,0,74,74,61,1,8,vanylik,vanylasz,NA,NA,Te bizony sokat vanylasz.,Én is sokat...,vanylok,vanylom,lakik,-lik,1,PR2055,1985,nő,nem,2022-04-14_09h44.16.379,hesp_baseline,2021.2.3,Win32,59.35422602
,,,,,,,,,,,,,,,,,bügzenek,bügöznek,right,2.6303,0,75,75,118,1,11,bügzik / bügözik,"bügzik, bügözni",nek,NA,"János imád bügözni, ezért sokat bügzik.",Ők ritkán...,bügzenek,bügöznek,cselekszik,-zik,1,PR2055,1985,nő,nem,2022-04-14_09h44.16.379,hesp_baseline,2021.2.3,Win32,59.35422602
,,,,,,,,,,,,,,,,,nyülöklenek,nyülököznek,left,5.7774,0,76,76,108,1,1,nyülöklik / nyülöközik,"nyülöklik, nyülöközni",nek,NA,"János imád nyülöközni, ezért sokat nyülöklik.",Ők ritkán...,nyülöklenek,nyülököznek,cselekszik,-lik,2,PR2055,1985,nő,nem,2022-04-14_09h44.16.379,hesp_baseline,2021.2.3,Win32,59.35422602
,,,,,,,,,,,,,,,,,csublényben,csublényban,left,2.7571,0,77,77,16,1,17,csublény,csublény,ban,é,Ez itt egy csublény.,Ott vagyunk a...,csublényben,csublényban,dzsungel,NA,NA,PR2055,1985,nő,nem,2022-04-14_09h44.16.379,hesp_baseline,2021.2.3,Win32,59.35422602
,,,,,,,,,,,,,,,,,salárzok,salárzom,right,3.8306,0,78,78,103,1,50,salárzik,salárzol,NA,NA,Te bizony sokat salárzol.,Én is sokat...,salárzok,salárzom,lakik,-zik,2,PR2055,1985,nő,nem,2022-04-14_09h44.16.379,hesp_baseline,2021.2.3,Win32,59.35422602
,,,,,,,,,,,,,,,,,lorzensnál,lorzensnél,right,3.4326,0,79,79,34,1,35,lorzens,lorzens,nál,e,Ez itt egy lorzens.,Nincs is jobb egy jó...,lorzensnél,lorzensnál,dzsungel,NA,NA,PR2055,1985,nő,nem,2022-04-14_09h44.16.379,hesp_baseline,2021.2.3,Win32,59.35422602
,,,,,,,,,,,,,,,,,sprudlunk,sprudozunk,right,3.5331,0,80,80,136,1,29,sprudlik / sprudozik,"sprudlik, sprudozni",ünk,NA,"János imád sprudozni, ezért sokat sprudlik.",Mi ritkán...,sprudlunk,sprudozunk,cselekszik,-lik,1,PR2055,1985,nő,nem,2022-04-14_09h44.16.379,hesp_baseline,2021.2.3,Win32,59.35422602
,,,,,,,,,,,,,,,,,brobódzom,brobódzok,left,4.1739,0,81,81,96,1,43,brobódzik,brobódzol,NA,NA,Te bizony sokat brobódzol.,Én is sokat...,brobódzok,brobódzom,lakik,-zik,2,PR2055,1985,nő,nem,2022-04-14_09h44.16.379,hesp_baseline,2021.2.3,Win32,59.35422602
,,,,,,,,,,,,,,,,,spicetnak,spicetnek,right,2.7449,0,82,82,35,1,36,spicet,spicet,nak,e,Ez itt egy spicet.,Elneveztem a kutyámat...,spicetnek,spicetnak,dzsungel,NA,NA,PR2055,1985,nő,nem,2022-04-14_09h44.16.379,hesp_baseline,2021.2.3,Win32,59.35422602
,,,,,,,,,,,,,,,,,zsopédben,zsopédban,right,3.0236,0,83,83,50,1,51,zsopéd,zsopéd,ban,é,Ez itt egy zsopéd.,Ott vagyunk a...,zsopédben,zsopédban,dzsungel,NA,NA,PR2055,1985,nő,nem,2022-04-14_09h44.16.379,hesp_baseline,2021.2.3,Win32,59.35422602
,,,,,,,,,,,,,,,,,püzöztök,püzlötök,left,9.0914,0,84,84,152,1,45,püzlik / püzözik,"püzlik, püzözni",tek,NA,"János imád püzözni, ezért sokat püzlik.",Ti ritkán...,püzlötök,püzöztök,cselekszik,-lik,1,PR2055,1985,nő,nem,2022-04-14_09h44.16.379,hesp_baseline,2021.2.3,Win32,59.35422602
,,,,,,,,,,,,,,,,,pivédben,pivédban,left,2.1901,0,85,85,52,1,53,pivéd,pivéd,ban,é,Ez itt egy pivéd.,Ott vagyunk a...,pivédben,pivédban,dzsungel,NA,NA,PR2055,1985,nő,nem,2022-04-14_09h44.16.379,hesp_baseline,2021.2.3,Win32,59.35422602
,,,,,,,,,,,,,,,,,spélszek,spélszem,right,3.7562,0,86,86,68,1,15,spélszik,spélszel,NA,NA,Te bizony sokat spélszel.,Én is sokat...,spélszek,spélszem,lakik,-szik,1,PR2055,1985,nő,nem,2022-04-14_09h44.16.379,hesp_baseline,2021.2.3,Win32,59.35422602
,,,,,,,,,,,,,,,,,klihasoztok,klihaslotok,left,6.7245,0,87,87,156,1,49,klihaslik / klihasozik,"klihaslik, klihasozni",tek,NA,"János imád klihasozni, ezért sokat klihaslik.",Ti ritkán...,klihaslotok,klihasoztok,cselekszik,-lik,2,PR2055,1985,nő,nem,2022-04-14_09h44.16.379,hesp_baseline,2021.2.3,Win32,59.35422602
,,,,,,,,,,,,,,,,,matézban,matézben,left,3.7569,0,88,88,37,1,38,matéz,matéz,ban,é,Ez itt egy matéz.,Ott vagyunk a...,matézben,matézban,dzsungel,NA,NA,PR2055,1985,nő,nem,2022-04-14_09h44.16.379,hesp_baseline,2021.2.3,Win32,59.35422602
,,,,,,,,,,,,,,,,,köszlötök,köszöztök,right,4.8769,0,89,89,120,1,13,köszlik / köszözik,"köszlik, köszözni",tek,NA,"János imád köszözni, ezért sokat köszlik.",Ti ritkán...,köszlötök,köszöztök,cselekszik,-lik,1,PR2055,1985,nő,nem,2022-04-14_09h44.16.379,hesp_baseline,2021.2.3,Win32,59.35422602
,,,,,,,,,,,,,,,,,tragzok,tragzom,right,2.0072,0,90,90,90,1,37,tragzik,tragzol,NA,NA,Te bizony sokat tragzol.,Én is sokat...,tragzok,tragzom,lakik,-zik,1,PR2055,1985,nő,nem,2022-04-14_09h44.16.379,hesp_baseline,2021.2.3,Win32,59.35422602
,,,,,,,,,,,,,,,,,vismernél,vismernál,left,2.7209,0,91,91,13,1,14,vismer,vismer,nál,e,Ez itt egy vismer.,Nincs is jobb egy jó...,vismernél,vismernál,dzsungel,NA,NA,PR2055,1985,nő,nem,2022-04-14_09h44.16.379,hesp_baseline,2021.2.3,Win32,59.35422602
,,,,,,,,,,,,,,,,,hivépben,hivépban,left,3.1865,0,92,92,44,1,45,hivép,hivép,ban,é,Ez itt egy hivép.,Ott vagyunk a...,hivépben,hivépban,dzsungel,NA,NA,PR2055,1985,nő,nem,2022-04-14_09h44.16.379,hesp_baseline,2021.2.3,Win32,59.35422602
,,,,,,,,,,,,,,,,,spihemlem,spihemlek,left,2.8774,0,93,93,94,1,41,spihemlik,spihemlesz,NA,NA,Te bizony sokat spihemlesz.,Én is sokat...,spihemlek,spihemlem,lakik,-lik,2,PR2055,1985,nő,nem,2022-04-14_09h44.16.379,hesp_baseline,2021.2.3,Win32,59.35422602
,,,,,,,,,,,,,,,,,spatszom,spatszok,left,2.4948,0,94,94,73,1,20,spatszik,spatszol,NA,NA,Te bizony sokat spatszol.,Én is sokat...,spatszok,spatszom,lakik,-szik,1,PR2055,1985,nő,nem,2022-04-14_09h44.16.379,hesp_baseline,2021.2.3,Win32,59.35422602
,,,,,,,,,,,,,,,,,lörűdzöm,lörűdzök,left,1.8423,0,95,95,77,1,24,lörűdzik,lörűdzöl,NA,NA,Te bizony sokat lörűdzöl.,Én is sokat...,lörűdzök,lörűdzöm,lakik,-zik,2,PR2055,1985,nő,nem,2022-04-14_09h44.16.379,hesp_baseline,2021.2.3,Win32,59.35422602
,,,,,,,,,,,,,,,,,incéjnak,incéjnek,right,3.9513,0,96,96,30,1,31,incéj,incéj,nak,é,Ez itt egy incéj.,Elneveztem a kutyámat...,incéjnek,incéjnak,dzsungel,NA,NA,PR2055,1985,nő,nem,2022-04-14_09h44.16.379,hesp_baseline,2021.2.3,Win32,59.35422602
,,,,,,,,,,,,,,,,,rokszom,rokszok,left,2.8453,0,97,97,101,1,48,rokszik,rokszol,NA,NA,Te bizony sokat rokszol.,Én is sokat...,rokszok,rokszom,lakik,-szik,1,PR2055,1985,nő,nem,2022-04-14_09h44.16.379,hesp_baseline,2021.2.3,Win32,59.35422602
,,,,,,,,,,,,,,,,,frirozunk,frirzunk,left,4.6981,0,98,98,129,1,22,frirzik / frirozik,"frirzik, frirozni",ünk,NA,"János imád frirozni, ezért sokat frirzik.",Mi ritkán...,frirzunk,frirozunk,cselekszik,-zik,1,PR2055,1985,nő,nem,2022-04-14_09h44.16.379,hesp_baseline,2021.2.3,Win32,59.35422602
,,,,,,,,,,,,,,,,,spéslek,spéslem,right,3.2752,0,99,99,93,1,40,spéslik,spéslesz,NA,NA,Te bizony sokat spéslesz.,Én is sokat...,spéslek,spéslem,lakik,-lik,1,PR2055,1985,nő,nem,2022-04-14_09h44.16.379,hesp_baseline,2021.2.3,Win32,59.35422602
,,,,,,,,,,,,,,,,,filágzom,filágzok,left,2.7038,0,100,100,102,1,49,filágzik,filágzol,NA,NA,Te bizony sokat filágzol.,Én is sokat...,filágzok,filágzom,lakik,-zik,2,PR2055,1985,nő,nem,2022-04-14_09h44.16.379,hesp_baseline,2021.2.3,Win32,59.35422602
,,,,,,,,,,,,,,,,,flagárzok,flagárzom,right,1.7432,0,101,101,64,1,11,flagárzik,flagárzol,NA,NA,Te bizony sokat flagárzol.,Én is sokat...,flagárzok,flagárzom,lakik,-zik,2,PR2055,1985,nő,nem,2022-04-14_09h44.16.379,hesp_baseline,2021.2.3,Win32,59.35422602
,,,,,,,,,,,,,,,,,flehénylek,flehénylem,left,3.5597,0,102,102,106,1,53,flehénylik,flehénylesz,NA,NA,Te bizony sokat flehénylesz.,Én is sokat...,flehénylek,flehénylem,lakik,-lik,2,PR2055,1985,nő,nem,2022-04-14_09h44.16.379,hesp_baseline,2021.2.3,Win32,59.35422602
,,,,,,,,,,,,,,,,,fágyépnél,fágyépnál,left,2.4063,0,103,103,10,1,11,fágyép,fágyép,nál,é,Ez itt egy fágyép.,Nincs is jobb egy jó...,fágyépnél,fágyépnál,dzsungel,NA,NA,PR2055,1985,nő,nem,2022-04-14_09h44.16.379,hesp_baseline,2021.2.3,Win32,59.35422602
,,,,,,,,,,,,,,,,,brözlötök,brözöztök,left,5.0981,0,104,104,145,1,38,brözlik / brözözik,"brözlik, brözözni",tek,NA,"János imád brözözni, ezért sokat brözlik.",Ti ritkán...,brözlötök,brözöztök,cselekszik,-lik,1,PR2055,1985,nő,nem,2022-04-14_09h44.16.379,hesp_baseline,2021.2.3,Win32,59.35422602
,,,,,,,,,,,,,,,,,jurozunk,jurlunk,left,3.0246,0,105,105,111,1,4,jurlik / jurozik,"jurlik, jurozni",ünk,NA,"János imád jurozni, ezért sokat jurlik.",Mi ritkán...,jurlunk,jurozunk,cselekszik,-lik,1,PR2055,1985,nő,nem,2022-04-14_09h44.16.379,hesp_baseline,2021.2.3,Win32,59.35422602
,,,,,,,,,,,,,,,,,brigesztnek,brigesztnak,left,3.1586,0,106,106,48,1,49,brigeszt,brigeszt,nak,e,Ez itt egy brigeszt.,Elneveztem a kutyámat...,brigesztnek,brigesztnak,dzsungel,NA,NA,PR2055,1985,nő,nem,2022-04-14_09h44.16.379,hesp_baseline,2021.2.3,Win32,59.35422602
,,,,,,,,,,,,,,,,,frihegezünk,friheglünk,left,5.5406,0,107,107,132,1,25,friheglik / frihegezik,"friheglik, frihegezni",ünk,NA,"János imád frihegezni, ezért sokat friheglik.",Mi ritkán...,friheglünk,frihegezünk,cselekszik,-lik,2,PR2055,1985,nő,nem,2022-04-14_09h44.16.379,hesp_baseline,2021.2.3,Win32,59.35422602
,,,,,,,,,,,,,,,,,csibagoztok,csibagzotok,left,2.8455,0,108,108,114,1,7,csibagzik / csibagozik,"csibagzik, csibagozni",tek,NA,"János imád csibagozni, ezért sokat csibagzik.",Ti ritkán...,csibagzotok,csibagoztok,cselekszik,-zik,2,PR2055,1985,nő,nem,2022-04-14_09h44.16.379,hesp_baseline,2021.2.3,Win32,59.35422602
,,,,,,,,,,,,,,,,,mádépnél,mádépnál,right,3.7593,0,109,109,1,1,2,mádép,mádép,nál,é,Ez itt egy mádép.,Nincs is jobb egy jó...,mádépnél,mádépnál,dzsungel,NA,NA,PR2055,1985,nő,nem,2022-04-14_09h44.16.379,hesp_baseline,2021.2.3,Win32,59.35422602
,,,,,,,,,,,,,,,,,livaklom,livaklok,left,2.4456,0,110,110,82,1,29,livaklik,livaklasz,NA,NA,Te bizony sokat livaklasz.,Én is sokat...,livaklok,livaklom,lakik,-lik,2,PR2055,1985,nő,nem,2022-04-14_09h44.16.379,hesp_baseline,2021.2.3,Win32,59.35422602
,,,,,,,,,,,,,,,,,gihejlünk,gihejezünk,right,4.6415,0,111,111,146,1,39,gihejlik / gihejezik,"gihejlik, gihejezni",ünk,NA,"János imád gihejezni, ezért sokat gihejlik.",Mi ritkán...,gihejlünk,gihejezünk,cselekszik,-lik,2,PR2055,1985,nő,nem,2022-04-14_09h44.16.379,hesp_baseline,2021.2.3,Win32,59.35422602
,,,,,,,,,,,,,,,,,pliboztok,plibzotok,left,4.3882,0,112,112,140,1,33,plibzik / plibozik,"plibzik, plibozni",tek,NA,"János imád plibozni, ezért sokat plibzik.",Ti ritkán...,plibzotok,pliboztok,cselekszik,-zik,1,PR2055,1985,nő,nem,2022-04-14_09h44.16.379,hesp_baseline,2021.2.3,Win32,59.35422602
,,,,,,,,,,,,,,,,,vülődzöm,vülődzök,left,3.1875,0,113,113,81,1,28,vülődzik,vülődzöl,NA,NA,Te bizony sokat vülődzöl.,Én is sokat...,vülődzök,vülődzöm,lakik,-zik,2,PR2055,1985,nő,nem,2022-04-14_09h44.16.379,hesp_baseline,2021.2.3,Win32,59.35422602
,,,,,,,,,,,,,,,,,pöröztök,pörzötök,left,2.7071,0,114,114,153,1,46,pörzik / pörözik,"pörzik, pörözni",tek,NA,"János imád pörözni, ezért sokat pörzik.",Ti ritkán...,pörzötök,pöröztök,cselekszik,-zik,1,PR2055,1985,nő,nem,2022-04-14_09h44.16.379,hesp_baseline,2021.2.3,Win32,59.35422602
,,,,,,,,,,,,,,,,,tarhézben,tarhézban,right,3.2998,0,115,115,25,1,26,tarhéz,tarhéz,ban,é,Ez itt egy tarhéz.,Ott vagyunk a...,tarhézben,tarhézban,dzsungel,NA,NA,PR2055,1985,nő,nem,2022-04-14_09h44.16.379,hesp_baseline,2021.2.3,Win32,59.35422602
,,,,,,,,,,,,,,,,,bribasoznak,bribaslanak,left,2.9005,0,116,116,121,1,14,bribaslik / bribasozik,"bribaslik, bribasozni",nek,NA,"János imád bribasozni, ezért sokat bribaslik.",Ők ritkán...,bribaslanak,bribasoznak,cselekszik,-lik,2,PR2055,1985,nő,nem,2022-04-14_09h44.16.379,hesp_baseline,2021.2.3,Win32,59.35422602
,,,,,,,,,,,,,,,,,hiragoznak,hiragzanak,left,3.7187,0,117,117,119,1,12,hiragzik / hiragozik,"hiragzik, hiragozni",nek,NA,"János imád hiragozni, ezért sokat hiragzik.",Ők ritkán...,hiragzanak,hiragoznak,cselekszik,-zik,2,PR2055,1985,nő,nem,2022-04-14_09h44.16.379,hesp_baseline,2021.2.3,Win32,59.35422602
,,,,,,,,,,,,,,,,,spibádzom,spibádzok,left,2.8318,0,118,118,65,1,12,spibádzik,spibádzol,NA,NA,Te bizony sokat spibádzol.,Én is sokat...,spibádzok,spibádzom,lakik,-zik,2,PR2055,1985,nő,nem,2022-04-14_09h44.16.379,hesp_baseline,2021.2.3,Win32,59.35422602
,,,,,,,,,,,,,,,,,sztremlek,sztremlem,left,2.5509,0,119,119,95,1,42,sztremlik,sztremlesz,NA,NA,Te bizony sokat sztremlesz.,Én is sokat...,sztremlek,sztremlem,lakik,-lik,1,PR2055,1985,nő,nem,2022-04-14_09h44.16.379,hesp_baseline,2021.2.3,Win32,59.35422602
,,,,,,,,,,,,,,,,,riványlotok,riványoztok,right,4.7624,0,120,120,117,1,10,riványlik / riványozik,"riványlik, riványozni",tek,NA,"János imád riványozni, ezért sokat riványlik.",Ti ritkán...,riványlotok,riványoztok,cselekszik,-lik,2,PR2055,1985,nő,nem,2022-04-14_09h44.16.379,hesp_baseline,2021.2.3,Win32,59.35422602
,,,,,,,,,,,,,,,,,aglok,aglom,right,2.6419,0,121,121,100,1,47,aglik,aglasz,NA,NA,Te bizony sokat aglasz.,Én is sokat...,aglok,aglom,lakik,-lik,1,PR2055,1985,nő,nem,2022-04-14_09h44.16.379,hesp_baseline,2021.2.3,Win32,59.35422602
,,,,,,,,,,,,,,,,,gyibeslem,gyibeslek,left,4.6035,0,122,122,98,1,45,gyibeslik,gyibeslesz,NA,NA,Te bizony sokat gyibeslesz.,Én is sokat...,gyibeslek,gyibeslem,lakik,-lik,2,PR2055,1985,nő,nem,2022-04-14_09h44.16.379,hesp_baseline,2021.2.3,Win32,59.35422602
,,,,,,,,,,,,,,,,,sztrajlanak,sztrajoznak,right,7.8732,0,123,123,144,1,37,sztrajlik / sztrajozik,"sztrajlik, sztrajozni",nek,NA,"János imád sztrajozni, ezért sokat sztrajlik.",Ők ritkán...,sztrajlanak,sztrajoznak,cselekszik,-lik,1,PR2055,1985,nő,nem,2022-04-14_09h44.16.379,hesp_baseline,2021.2.3,Win32,59.35422602
,,,,,,,,,,,,,,,,,csarténynak,csarténynek,left,3.0731,0,124,124,36,1,37,csartény,csartény,nak,é,Ez itt egy csartény.,Elneveztem a kutyámat...,csarténynek,csarténynak,dzsungel,NA,NA,PR2055,1985,nő,nem,2022-04-14_09h44.16.379,hesp_baseline,2021.2.3,Win32,59.35422602
,,,,,,,,,,,,,,,,,nyizlunk,nyizozunk,left,6.4296,0,125,125,135,1,28,nyizlik / nyizozik,"nyizlik, nyizozni",ünk,NA,"János imád nyizozni, ezért sokat nyizlik.",Mi ritkán...,nyizlunk,nyizozunk,cselekszik,-lik,1,PR2055,1985,nő,nem,2022-04-14_09h44.16.379,hesp_baseline,2021.2.3,Win32,59.35422602
,,,,,,,,,,,,,,,,,lumézban,lumézben,left,2.0114,0,126,126,32,1,33,luméz,luméz,ban,é,Ez itt egy luméz.,Ott vagyunk a...,lumézben,lumézban,dzsungel,NA,NA,PR2055,1985,nő,nem,2022-04-14_09h44.16.379,hesp_baseline,2021.2.3,Win32,59.35422602
,,,,,,,,,,,,,,,,,spábétban,spábétben,left,2.2762,0,127,127,51,1,52,spábét,spábét,ban,é,Ez itt egy spábét.,Ott vagyunk a...,spábétben,spábétban,dzsungel,NA,NA,PR2055,1985,nő,nem,2022-04-14_09h44.16.379,hesp_baseline,2021.2.3,Win32,59.35422602
,,,,,,,,,,,,,,,,,dujoznak,dujzanak,left,3.7398,0,128,128,128,1,21,dujzik / dujozik,"dujzik, dujozni",nek,NA,"János imád dujozni, ezért sokat dujzik.",Ők ritkán...,dujzanak,dujoznak,cselekszik,-zik,1,PR2055,1985,nő,nem,2022-04-14_09h44.16.379,hesp_baseline,2021.2.3,Win32,59.35422602
,,,,,,,,,,,,,,,,,zsalrénnak,zsalrénnek,right,2.6225,0,129,129,19,1,20,zsalrén,zsalrén,nak,é,Ez itt egy zsalrén.,Elneveztem a kutyámat...,zsalrénnek,zsalrénnak,dzsungel,NA,NA,PR2055,1985,nő,nem,2022-04-14_09h44.16.379,hesp_baseline,2021.2.3,Win32,59.35422602
,,,,,,,,,,,,,,,,,jalrénynál,jalrénynél,left,3.5837,0,130,130,0,1,1,jalrény,jalrény,nál,é,Ez itt egy jalrény.,Nincs is jobb egy jó...,jalrénynél,jalrénynál,dzsungel,NA,NA,PR2055,1985,nő,nem,2022-04-14_09h44.16.379,hesp_baseline,2021.2.3,Win32,59.35422602
,,,,,,,,,,,,,,,,,plűbzöm,plűbzök,left,3.2399,0,131,131,107,1,54,plűbzik,plűbzöl,NA,NA,Te bizony sokat plűbzöl.,Én is sokat...,plűbzök,plűbzöm,lakik,-zik,1,PR2055,1985,nő,nem,2022-04-14_09h44.16.379,hesp_baseline,2021.2.3,Win32,59.35422602
,,,,,,,,,,,,,,,,,kliszernál,kliszernél,right,2.9685,0,132,132,31,1,32,kliszer,kliszer,nál,e,Ez itt egy kliszer.,Nincs is jobb egy jó...,kliszernél,kliszernál,dzsungel,NA,NA,PR2055,1985,nő,nem,2022-04-14_09h44.16.379,hesp_baseline,2021.2.3,Win32,59.35422602
,,,,,,,,,,,,,,,,,brülöslünk,brülösözünk,right,4.1395,0,133,133,109,1,2,brülöslik / brülösözik,"brülöslik, brülösözni",ünk,NA,"János imád brülösözni, ezért sokat brülöslik.",Mi ritkán...,brülöslünk,brülösözünk,cselekszik,-lik,2,PR2055,1985,nő,nem,2022-04-14_09h44.16.379,hesp_baseline,2021.2.3,Win32,59.35422602
,,,,,,,,,,,,,,,,,narádzom,narádzok,left,3.2452,0,134,134,63,1,10,narádzik,narádzol,NA,NA,Te bizony sokat narádzol.,Én is sokat...,narádzok,narádzom,lakik,-zik,2,PR2055,1985,nő,nem,2022-04-14_09h44.16.379,hesp_baseline,2021.2.3,Win32,59.35422602
,,,,,,,,,,,,,,,,,lihénynek,lihénynak,left,1.7581,0,135,135,23,1,24,lihény,lihény,nak,é,Ez itt egy lihény.,Elneveztem a kutyámat...,lihénynek,lihénynak,dzsungel,NA,NA,PR2055,1985,nő,nem,2022-04-14_09h44.16.379,hesp_baseline,2021.2.3,Win32,59.35422602
,,,,,,,,,,,,,,,,,szibánylom,szibánylok,left,2.8745,0,136,136,67,1,14,szibánylik,szibánylasz,NA,NA,Te bizony sokat szibánylasz.,Én is sokat...,szibánylok,szibánylom,lakik,-lik,2,PR2055,1985,nő,nem,2022-04-14_09h44.16.379,hesp_baseline,2021.2.3,Win32,59.35422602
,,,,,,,,,,,,,,,,,frinyozunk,frinylunk,left,4.9566,0,137,137,133,1,26,frinylik / frinyozik,"frinylik, frinyozni",ünk,NA,"János imád frinyozni, ezért sokat frinylik.",Mi ritkán...,frinylunk,frinyozunk,cselekszik,-lik,1,PR2055,1985,nő,nem,2022-04-14_09h44.16.379,hesp_baseline,2021.2.3,Win32,59.35422602
,,,,,,,,,,,,,,,,,spivejlenek,spivejeznek,right,3.3056,0,138,138,125,1,18,spivejlik / spivejezik,"spivejlik, spivejezni",nek,NA,"János imád spivejezni, ezért sokat spivejlik.",Ők ritkán...,spivejlenek,spivejeznek,cselekszik,-lik,2,PR2055,1985,nő,nem,2022-04-14_09h44.16.379,hesp_baseline,2021.2.3,Win32,59.35422602
,,,,,,,,,,,,,,,,,naremban,naremben,left,3.8729,0,139,139,2,1,3,narem,narem,ban,e,Ez itt egy narem.,Ott vagyunk a...,naremben,naremban,dzsungel,NA,NA,PR2055,1985,nő,nem,2022-04-14_09h44.16.379,hesp_baseline,2021.2.3,Win32,59.35422602
,,,,,,,,,,,,,,,,,dirányoznak,diránylanak,left,3.478,0,140,140,122,1,15,diránylik / dirányozik,"diránylik, dirányozni",nek,NA,"János imád dirányozni, ezért sokat diránylik.",Ők ritkán...,diránylanak,dirányoznak,cselekszik,-lik,2,PR2055,1985,nő,nem,2022-04-14_09h44.16.379,hesp_baseline,2021.2.3,Win32,59.35422602
,,,,,,,,,,,,,,,,,küslünk,küsözünk,right,3.9565,0,141,141,141,1,34,küslik / küsözik,"küslik, küsözni",ünk,NA,"János imád küsözni, ezért sokat küslik.",Mi ritkán...,küslünk,küsözünk,cselekszik,-lik,1,PR2055,1985,nő,nem,2022-04-14_09h44.16.379,hesp_baseline,2021.2.3,Win32,59.35422602
,,,,,,,,,,,,,,,,,géregeztek,géregletek,left,3.2069,0,142,142,124,1,17,géreglik / géregezik,"géreglik, géregezni",tek,NA,"János imád géregezni, ezért sokat géreglik.",Ti ritkán...,géregletek,géregeztek,cselekszik,-lik,2,PR2055,1985,nő,nem,2022-04-14_09h44.16.379,hesp_baseline,2021.2.3,Win32,59.35422602
,,,,,,,,,,,,,,,,,nyivágzunk,nyivágozunk,right,3.4401,0,143,143,113,1,6,nyivágzik / nyivágozik,"nyivágzik, nyivágozni",ünk,NA,"János imád nyivágozni, ezért sokat nyivágzik.",Mi ritkán...,nyivágzunk,nyivágozunk,cselekszik,-zik,2,PR2055,1985,nő,nem,2022-04-14_09h44.16.379,hesp_baseline,2021.2.3,Win32,59.35422602
,,,,,,,,,,,,,,,,,dajrensnél,dajrensnál,left,2.8103,0,144,144,49,1,50,dajrens,dajrens,nál,e,Ez itt egy dajrens.,Nincs is jobb egy jó...,dajrensnél,dajrensnál,dzsungel,NA,NA,PR2055,1985,nő,nem,2022-04-14_09h44.16.379,hesp_baseline,2021.2.3,Win32,59.35422602
,,,,,,,,,,,,,,,,,sihennél,sihennál,left,3.3692,0,145,145,18,1,19,sihen,sihen,nál,e,Ez itt egy sihen.,Nincs is jobb egy jó...,sihennél,sihennál,dzsungel,NA,NA,PR2055,1985,nő,nem,2022-04-14_09h44.16.379,hesp_baseline,2021.2.3,Win32,59.35422602
,,,,,,,,,,,,,,,,,pisélyban,pisélyben,right,4.3905,0,146,146,21,1,22,pisély,pisély,ban,é,Ez itt egy pisély.,Ott vagyunk a...,pisélyben,pisélyban,dzsungel,NA,NA,PR2055,1985,nő,nem,2022-04-14_09h44.16.379,hesp_baseline,2021.2.3,Win32,59.35422602
,,,,,,,,,,,,,,,,,dábegyban,dábegyben,right,1.8929,0,147,147,6,1,7,dábegy,dábegy,ban,e,Ez itt egy dábegy.,Ott vagyunk a...,dábegyben,dábegyban,dzsungel,NA,NA,PR2055,1985,nő,nem,2022-04-14_09h44.16.379,hesp_baseline,2021.2.3,Win32,59.35422602
,,,,,,,,,,,,,,,,,vodépnak,vodépnek,right,3.3678,0,148,148,41,1,42,vodép,vodép,nak,é,Ez itt egy vodép.,Elneveztem a kutyámat...,vodépnek,vodépnak,dzsungel,NA,NA,PR2055,1985,nő,nem,2022-04-14_09h44.16.379,hesp_baseline,2021.2.3,Win32,59.35422602
,,,,,,,,,,,,,,,,,spűmlöm,spűmlök,right,3.3417,0,149,149,86,1,33,spűmlik,spűmlesz,NA,NA,Te bizony sokat spűmlesz.,Én is sokat...,spűmlök,spűmlöm,lakik,-lik,1,PR2055,1985,nő,nem,2022-04-14_09h44.16.379,hesp_baseline,2021.2.3,Win32,59.35422602
,,,,,,,,,,,,,,,,,gyivádzom,gyivádzok,left,1.8923,0,150,150,87,1,34,gyivádzik,gyivádzol,NA,NA,Te bizony sokat gyivádzol.,Én is sokat...,gyivádzok,gyivádzom,lakik,-zik,2,PR2055,1985,nő,nem,2022-04-14_09h44.16.379,hesp_baseline,2021.2.3,Win32,59.35422602
,,,,,,,,,,,,,,,,,fraklunk,frakozunk,right,2.2579,0,151,151,159,1,52,fraklik / frakozik,"fraklik, frakozni",ünk,NA,"János imád frakozni, ezért sokat fraklik.",Mi ritkán...,fraklunk,frakozunk,cselekszik,-lik,1,PR2055,1985,nő,nem,2022-04-14_09h44.16.379,hesp_baseline,2021.2.3,Win32,59.35422602
,,,,,,,,,,,,,,,,,ibáglok,ibáglom,right,3.1277,0,152,152,88,1,35,ibáglik,ibáglasz,NA,NA,Te bizony sokat ibáglasz.,Én is sokat...,ibáglok,ibáglom,lakik,-lik,2,PR2055,1985,nő,nem,2022-04-14_09h44.16.379,hesp_baseline,2021.2.3,Win32,59.35422602
,,,,,,,,,,,,,,,,,herégszem,herégszek,left,1.7441,0,153,153,54,1,1,herégszik,herégszel,NA,NA,Te bizony sokat herégszel.,Én is sokat...,herégszek,herégszem,lakik,-szik,2,PR2055,1985,nő,nem,2022-04-14_09h44.16.379,hesp_baseline,2021.2.3,Win32,59.35422602
,,,,,,,,,,,,,,,,,frágapszok,frágapszom,right,3.6048,0,154,154,60,1,7,frágapszik,frágapszol,NA,NA,Te bizony sokat frágapszol.,Én is sokat...,frágapszok,frágapszom,lakik,-szik,2,PR2055,1985,nő,nem,2022-04-14_09h44.16.379,hesp_baseline,2021.2.3,Win32,59.35422602
,,,,,,,,,,,,,,,,,föködnek,fökszenek,left,3.7389,0,155,155,131,1,24,fökszik / föködik,"fökszik, föködni",nek,NA,"János imád föködni, ezért sokat fökszik.",Ők ritkán...,fökszenek,föködnek,cselekszik,-szik,1,PR2055,1985,nő,nem,2022-04-14_09h44.16.379,hesp_baseline,2021.2.3,Win32,59.35422602
,,,,,,,,,,,,,,,,,brüszlötök,brüszöztök,right,3.6199,0,156,156,130,1,23,brüszlik / brüszözik,"brüszlik, brüszözni",tek,NA,"János imád brüszözni, ezért sokat brüszlik.",Ti ritkán...,brüszlötök,brüszöztök,cselekszik,-lik,1,PR2055,1985,nő,nem,2022-04-14_09h44.16.379,hesp_baseline,2021.2.3,Win32,59.35422602
,,,,,,,,,,,,,,,,,bötőrözünk,bötőrzünk,left,5.0917,0,157,157,158,1,51,bötőrzik / bötőrözik,"bötőrzik, bötőrözni",ünk,NA,"János imád bötőrözni, ezért sokat bötőrzik.",Mi ritkán...,bötőrzünk,bötőrözünk,cselekszik,-zik,2,PR2055,1985,nő,nem,2022-04-14_09h44.16.379,hesp_baseline,2021.2.3,Win32,59.35422602
,,,,,,,,,,,,,,,,,bölszöm,bölszök,left,2.3053,0,158,158,105,1,52,bölszik,bölszöl,NA,NA,Te bizony sokat bölszöl.,Én is sokat...,bölszök,bölszöm,lakik,-szik,1,PR2055,1985,nő,nem,2022-04-14_09h44.16.379,hesp_baseline,2021.2.3,Win32,59.35422602
,,,,,,,,,,,,,,,,,trukodtok,trukszotok,right,2.8637,0,159,159,157,1,50,trukszik / trukodik,"trukszik, trukodni",tek,NA,"János imád trukodni, ezért sokat trukszik.",Ti ritkán...,trukszotok,trukodtok,cselekszik,-szik,1,PR2055,1985,nő,nem,2022-04-14_09h44.16.379,hesp_baseline,2021.2.3,Win32,59.35422602
,,,,,,,,,,,,,,,,,pilégszenek,pilégednek,right,2.5743,0,160,160,150,1,43,pilégszik / pilégedik,"pilégszik, pilégedni",nek,NA,"János imád pilégedni, ezért sokat pilégszik.",Ők ritkán...,pilégszenek,pilégednek,cselekszik,-szik,2,PR2055,1985,nő,nem,2022-04-14_09h44.16.379,hesp_baseline,2021.2.3,Win32,59.35422602
,,,,,,,,,,,,,,,,,bejezünk,bejzünk,right,2.9759,0,161,161,148,1,41,bejzik / bejezik,"bejzik, bejezni",ünk,NA,"János imád bejezni, ezért sokat bejzik.",Mi ritkán...,bejzünk,bejezünk,cselekszik,-zik,1,PR2055,1985,nő,nem,2022-04-14_09h44.16.379,hesp_baseline,2021.2.3,Win32,59.35422602
