my_list,key.keys,key.rt,key_2.keys,key_2.rt,keyboard_input_2.keys,keyboard_input_2.rt,key_3.keys,key_3.rt,keyboard_input_3.keys,keyboard_input_3.rt,key_4.keys,key_4.rt,keyboard_input_4.keys,keyboard_input_4.rt,key_5.keys,key_5.rt,my_button1,my_button2,keyboard_input.keys,keyboard_input.rt,withinBlock.thisRepN,withinBlock.thisTrialN,withinBlock.thisN,withinBlock.thisIndex,withinBlock.ran,rowname,word,prompt,suffix,vowel,carrier_sentence,target_sentence,target1,target2,category,derivational,nsyl,Azonosító,Melyik évben születtél?,Mi a nemed?,Tanultál nyelvészetet?,date,expName,psychopyVersion,OS,frameRate
list2.csv,space,9.136,space,4.775,right,3.202,space,8.34,left,3.829,space,4.658,left,4.711,space,13.856,brivegzem,brivegzek,left,3.365,0,0,0,70,1,71,brivegzik,brivegzel,NA,NA,Te bizony sokat brivegzel.,Én is sokat...,brivegzek,brivegzem,lakik,-zik,2,PR2093,1995,nő,nem,2022-05-06_13h34.32.233,hesp_baseline,2021.2.3,MacIntel,250
,,,,,,,,,,,,,,,,,dóbemnak,dóbemnek,right,3.198,0,1,1,48,1,103,dóbem,dóbem,nak,e,Ez itt egy dóbem.,Elneveztem a kutyámat...,dóbemnek,dóbemnak,dzsungel,NA,NA,PR2093,1995,nő,nem,2022-05-06_13h34.32.233,hesp_baseline,2021.2.3,MacIntel,250
,,,,,,,,,,,,,,,,,praslom,praslok,right,3.746,0,2,2,80,1,81,praslik,praslasz,NA,NA,Te bizony sokat praslasz.,Én is sokat...,praslok,praslom,lakik,-lik,1,PR2093,1995,nő,nem,2022-05-06_13h34.32.233,hesp_baseline,2021.2.3,MacIntel,250
,,,,,,,,,,,,,,,,,zsigénnál,zsigénnél,right,2.405,0,3,3,12,1,67,zsigén,zsigén,nál,é,Ez itt egy zsigén.,Nincs is jobb egy jó...,zsigénnél,zsigénnál,dzsungel,NA,NA,PR2093,1995,nő,nem,2022-05-06_13h34.32.233,hesp_baseline,2021.2.3,MacIntel,250
,,,,,,,,,,,,,,,,,lihadzom,lihadzok,left,2.835,0,4,4,101,1,102,lihadzik,lihadzol,NA,NA,Te bizony sokat lihadzol.,Én is sokat...,lihadzok,lihadzom,lakik,-zik,2,PR2093,1995,nő,nem,2022-05-06_13h34.32.233,hesp_baseline,2021.2.3,MacIntel,250
,,,,,,,,,,,,,,,,,prohódzok,prohódzom,right,3.244,0,5,5,66,1,67,prohódzik,prohódzol,NA,NA,Te bizony sokat prohódzol.,Én is sokat...,prohódzok,prohódzom,lakik,-zik,2,PR2093,1995,nő,nem,2022-05-06_13h34.32.233,hesp_baseline,2021.2.3,MacIntel,250
,,,,,,,,,,,,,,,,,klítegynál,klítegynél,right,5.82,0,6,6,5,1,60,klítegy,klítegy,nál,e,Ez itt egy klítegy.,Nincs is jobb egy jó...,klítegynél,klítegynál,dzsungel,NA,NA,PR2093,1995,nő,nem,2022-05-06_13h34.32.233,hesp_baseline,2021.2.3,MacIntel,250
,,,,,,,,,,,,,,,,,fligzom,fligzok,left,2.373,0,7,7,103,1,104,fligzik,fligzol,NA,NA,Te bizony sokat fligzol.,Én is sokat...,fligzok,fligzom,lakik,-zik,1,PR2093,1995,nő,nem,2022-05-06_13h34.32.233,hesp_baseline,2021.2.3,MacIntel,250
,,,,,,,,,,,,,,,,,dárakodunk,dárakszunk,right,84.506,0,8,8,126,1,73,dárakszik / dárakodik,"dárakszik, dárakodni",ünk,NA,"János imád dárakodni, ezért sokat dárakszik.",Mi ritkán...,dárakszunk,dárakodunk,cselekszik,-szik,2,PR2093,1995,nő,nem,2022-05-06_13h34.32.233,hesp_baseline,2021.2.3,MacIntel,250
,,,,,,,,,,,,,,,,,spizecnak,spizecnek,right,3.251,0,9,9,6,1,61,spizec,spizec,nak,e,Ez itt egy spizec.,Elneveztem a kutyámat...,spizecnek,spizecnak,dzsungel,NA,NA,PR2093,1995,nő,nem,2022-05-06_13h34.32.233,hesp_baseline,2021.2.3,MacIntel,250
,,,,,,,,,,,,,,,,,lorjódzok,lorjódzom,right,1.738,0,10,10,88,1,89,lorjódzik,lorjódzol,NA,NA,Te bizony sokat lorjódzol.,Én is sokat...,lorjódzok,lorjódzom,lakik,-zik,2,PR2093,1995,nő,nem,2022-05-06_13h34.32.233,hesp_baseline,2021.2.3,MacIntel,250
,,,,,,,,,,,,,,,,,sprigoztok,sprigzotok,right,1.797,0,11,11,129,1,76,sprigzik / sprigozik,"sprigzik, sprigozni",tek,NA,"János imád sprigozni, ezért sokat sprigzik.",Ti ritkán...,sprigzotok,sprigoztok,cselekszik,-zik,1,PR2093,1995,nő,nem,2022-05-06_13h34.32.233,hesp_baseline,2021.2.3,MacIntel,250
,,,,,,,,,,,,,,,,,bingéjnek,bingéjnak,left,2.619,0,12,12,49,1,104,bingéj,bingéj,nak,é,Ez itt egy bingéj.,Elneveztem a kutyámat...,bingéjnek,bingéjnak,dzsungel,NA,NA,PR2093,1995,nő,nem,2022-05-06_13h34.32.233,hesp_baseline,2021.2.3,MacIntel,250
,,,,,,,,,,,,,,,,,spivélnek,spivélnak,left,2.445,0,13,13,27,1,82,spivél,spivél,nak,é,Ez itt egy spivél.,Elneveztem a kutyámat...,spivélnek,spivélnak,dzsungel,NA,NA,PR2093,1995,nő,nem,2022-05-06_13h34.32.233,hesp_baseline,2021.2.3,MacIntel,250
,,,,,,,,,,,,,,,,,navecban,navecben,right,2.22,0,14,14,8,1,63,navec,navec,ban,e,Ez itt egy navec.,Ott vagyunk a...,navecben,navecban,dzsungel,NA,NA,PR2093,1995,nő,nem,2022-05-06_13h34.32.233,hesp_baseline,2021.2.3,MacIntel,250
,,,,,,,,,,,,,,,,,tranékban,tranékben,left,3.701,0,15,15,2,1,57,tranék,tranék,ban,é,Ez itt egy tranék.,Ott vagyunk a...,tranékben,tranékban,dzsungel,NA,NA,PR2093,1995,nő,nem,2022-05-06_13h34.32.233,hesp_baseline,2021.2.3,MacIntel,250
,,,,,,,,,,,,,,,,,fibamlok,fibamlom,left,3.478,0,16,16,65,1,66,fibamlik,fibamlasz,NA,NA,Te bizony sokat fibamlasz.,Én is sokat...,fibamlok,fibamlom,lakik,-lik,2,PR2093,1995,nő,nem,2022-05-06_13h34.32.233,hesp_baseline,2021.2.3,MacIntel,250
,,,,,,,,,,,,,,,,,tumélynél,tumélynál,left,2.024,0,17,17,28,1,83,tumély,tumély,nál,é,Ez itt egy tumély.,Nincs is jobb egy jó...,tumélynél,tumélynál,dzsungel,NA,NA,PR2093,1995,nő,nem,2022-05-06_13h34.32.233,hesp_baseline,2021.2.3,MacIntel,250
,,,,,,,,,,,,,,,,,driládzok,driládzom,right,3.399,0,18,18,67,1,68,driládzik,driládzol,NA,NA,Te bizony sokat driládzol.,Én is sokat...,driládzok,driládzom,lakik,-zik,2,PR2093,1995,nő,nem,2022-05-06_13h34.32.233,hesp_baseline,2021.2.3,MacIntel,250
,,,,,,,,,,,,,,,,,spátennek,spátennak,left,1.94,0,19,19,33,1,88,spáten,spáten,nak,e,Ez itt egy spáten.,Elneveztem a kutyámat...,spátennek,spátennak,dzsungel,NA,NA,PR2093,1995,nő,nem,2022-05-06_13h34.32.233,hesp_baseline,2021.2.3,MacIntel,250
,,,,,,,,,,,,,,,,,nyöböznek,nyöbzenek,right,5.256,0,20,20,152,1,99,nyöbzik / nyöbözik,"nyöbzik, nyöbözni",nek,NA,"János imád nyöbözni, ezért sokat nyöbzik.",Ők ritkán...,nyöbzenek,nyöböznek,cselekszik,-zik,1,PR2093,1995,nő,nem,2022-05-06_13h34.32.233,hesp_baseline,2021.2.3,MacIntel,250
,,,,,,,,,,,,,,,,,flemlünk,flemezünk,right,3.879,0,21,21,137,1,84,flemlik / flemezik,"flemlik, flemezni",ünk,NA,"János imád flemezni, ezért sokat flemlik.",Mi ritkán...,flemlünk,flemezünk,cselekszik,-lik,1,PR2093,1995,nő,nem,2022-05-06_13h34.32.233,hesp_baseline,2021.2.3,MacIntel,250
,,,,,,,,,,,,,,,,,rapszeknél,rapszeknál,left,2.173,0,22,22,35,1,90,rapszek,rapszek,nál,e,Ez itt egy rapszek.,Nincs is jobb egy jó...,rapszeknél,rapszeknál,dzsungel,NA,NA,PR2093,1995,nő,nem,2022-05-06_13h34.32.233,hesp_baseline,2021.2.3,MacIntel,250
,,,,,,,,,,,,,,,,,cságyeltben,cságyeltban,left,3.213,0,23,23,10,1,65,cságyelt,cságyelt,ban,e,Ez itt egy cságyelt.,Ott vagyunk a...,cságyeltben,cságyeltban,dzsungel,NA,NA,PR2093,1995,nő,nem,2022-05-06_13h34.32.233,hesp_baseline,2021.2.3,MacIntel,250
,,,,,,,,,,,,,,,,,garcépnál,garcépnél,right,2.205,0,24,24,38,1,93,garcép,garcép,nál,é,Ez itt egy garcép.,Nincs is jobb egy jó...,garcépnél,garcépnál,dzsungel,NA,NA,PR2093,1995,nő,nem,2022-05-06_13h34.32.233,hesp_baseline,2021.2.3,MacIntel,250
,,,,,,,,,,,,,,,,,figlom,figlok,left,6.945,0,25,25,75,1,76,figlik,figlasz,NA,NA,Te bizony sokat figlasz.,Én is sokat...,figlok,figlom,lakik,-lik,1,PR2093,1995,nő,nem,2022-05-06_13h34.32.233,hesp_baseline,2021.2.3,MacIntel,250
,,,,,,,,,,,,,,,,,szirlom,szirlok,right,2.056,0,26,26,62,1,63,szirlik,szirlasz,NA,NA,Te bizony sokat szirlasz.,Én is sokat...,szirlok,szirlom,lakik,-lik,1,PR2093,1995,nő,nem,2022-05-06_13h34.32.233,hesp_baseline,2021.2.3,MacIntel,250
,,,,,,,,,,,,,,,,,lírlanak,líroznak,left,3.224,0,27,27,115,1,62,lírlik / lírozik,"lírlik, lírozni",nek,NA,"János imád lírozni, ezért sokat lírlik.",Ők ritkán...,lírlanak,líroznak,cselekszik,-lik,1,PR2093,1995,nő,nem,2022-05-06_13h34.32.233,hesp_baseline,2021.2.3,MacIntel,250
,,,,,,,,,,,,,,,,,csubzunk,csubozunk,left,3.328,0,28,28,111,1,58,csubzik / csubozik,"csubzik, csubozni",ünk,NA,"János imád csubozni, ezért sokat csubzik.",Mi ritkán...,csubzunk,csubozunk,cselekszik,-zik,1,PR2093,1995,nő,nem,2022-05-06_13h34.32.233,hesp_baseline,2021.2.3,MacIntel,250
,,,,,,,,,,,,,,,,,tribejeztek,tribejletek,right,2.997,0,29,29,132,1,79,tribejlik / tribejezik,"tribejlik, tribejezni",tek,NA,"János imád tribejezni, ezért sokat tribejlik.",Ti ritkán...,tribejletek,tribejeztek,cselekszik,-lik,2,PR2093,1995,nő,nem,2022-05-06_13h34.32.233,hesp_baseline,2021.2.3,MacIntel,250
,,,,,,,,,,,,,,,,,péleslek,péleslem,left,2.729,0,30,30,73,1,74,péleslik,péleslesz,NA,NA,Te bizony sokat péleslesz.,Én is sokat...,péleslek,péleslem,lakik,-lik,2,PR2093,1995,nő,nem,2022-05-06_13h34.32.233,hesp_baseline,2021.2.3,MacIntel,250
,,,,,,,,,,,,,,,,,fojlegynak,fojlegynek,right,2.38,0,31,31,3,1,58,fojlegy,fojlegy,nak,e,Ez itt egy fojlegy.,Elneveztem a kutyámat...,fojlegynek,fojlegynak,dzsungel,NA,NA,PR2093,1995,nő,nem,2022-05-06_13h34.32.233,hesp_baseline,2021.2.3,MacIntel,250
,,,,,,,,,,,,,,,,,spöklünk,spöközünk,left,3.536,0,32,32,130,1,77,spöklik / spöközik,"spöklik, spöközni",ünk,NA,"János imád spöközni, ezért sokat spöklik.",Mi ritkán...,spöklünk,spöközünk,cselekszik,-lik,1,PR2093,1995,nő,nem,2022-05-06_13h34.32.233,hesp_baseline,2021.2.3,MacIntel,250
,,,,,,,,,,,,,,,,,játlunk,játozunk,left,3.182,0,33,33,145,1,92,játlik / játozik,"játlik, játozni",ünk,NA,"János imád játozni, ezért sokat játlik.",Mi ritkán...,játlunk,játozunk,cselekszik,-lik,1,PR2093,1995,nő,nem,2022-05-06_13h34.32.233,hesp_baseline,2021.2.3,MacIntel,250
,,,,,,,,,,,,,,,,,livényezünk,livénylünk,left,2.198,0,34,34,128,1,75,livénylik / livényezik,"livénylik, livényezni",ünk,NA,"János imád livényezni, ezért sokat livénylik.",Mi ritkán...,livénylünk,livényezünk,cselekszik,-lik,2,PR2093,1995,nő,nem,2022-05-06_13h34.32.233,hesp_baseline,2021.2.3,MacIntel,250
,,,,,,,,,,,,,,,,,tosélyban,tosélyben,right,1.767,0,35,35,25,1,80,tosély,tosély,ban,é,Ez itt egy tosély.,Ott vagyunk a...,tosélyben,tosélyban,dzsungel,NA,NA,PR2093,1995,nő,nem,2022-05-06_13h34.32.233,hesp_baseline,2021.2.3,MacIntel,250
,,,,,,,,,,,,,,,,,spiharoztok,spiharzotok,left,3.776,0,36,36,127,1,74,spiharzik / spiharozik,"spiharzik, spiharozni",tek,NA,"János imád spiharozni, ezért sokat spiharzik.",Ti ritkán...,spiharzotok,spiharoztok,cselekszik,-zik,2,PR2093,1995,nő,nem,2022-05-06_13h34.32.233,hesp_baseline,2021.2.3,MacIntel,250
,,,,,,,,,,,,,,,,,pratánylok,pratánylom,left,2.224,0,37,37,95,1,96,pratánylik,pratánylasz,NA,NA,Te bizony sokat pratánylasz.,Én is sokat...,pratánylok,pratánylom,lakik,-lik,2,PR2093,1995,nő,nem,2022-05-06_13h34.32.233,hesp_baseline,2021.2.3,MacIntel,250
,,,,,,,,,,,,,,,,,prazozunk,prazlunk,right,3.1,0,38,38,119,1,66,prazlik / prazozik,"prazlik, prazozni",ünk,NA,"János imád prazozni, ezért sokat prazlik.",Mi ritkán...,prazlunk,prazozunk,cselekszik,-lik,1,PR2093,1995,nő,nem,2022-05-06_13h34.32.233,hesp_baseline,2021.2.3,MacIntel,250
,,,,,,,,,,,,,,,,,fájézban,fájézben,right,2.23,0,39,39,7,1,62,fájéz,fájéz,ban,é,Ez itt egy fájéz.,Ott vagyunk a...,fájézben,fájézban,dzsungel,NA,NA,PR2093,1995,nő,nem,2022-05-06_13h34.32.233,hesp_baseline,2021.2.3,MacIntel,250
,,,,,,,,,,,,,,,,,fréslünk,frésezünk,left,3.564,0,40,40,138,1,85,fréslik / frésezik,"fréslik, frésezni",ünk,NA,"János imád frésezni, ezért sokat fréslik.",Mi ritkán...,fréslünk,frésezünk,cselekszik,-lik,1,PR2093,1995,nő,nem,2022-05-06_13h34.32.233,hesp_baseline,2021.2.3,MacIntel,250
,,,,,,,,,,,,,,,,,femlem,femlek,right,2.4,0,41,41,57,1,58,femlik,femlesz,NA,NA,Te bizony sokat femlesz.,Én is sokat...,femlek,femlem,lakik,-lik,1,PR2093,1995,nő,nem,2022-05-06_13h34.32.233,hesp_baseline,2021.2.3,MacIntel,250
,,,,,,,,,,,,,,,,,tögöznek,töglenek,right,2.746,0,42,42,156,1,103,töglik / tögözik,"töglik, tögözni",nek,NA,"János imád tögözni, ezért sokat töglik.",Ők ritkán...,töglenek,tögöznek,cselekszik,-lik,1,PR2093,1995,nő,nem,2022-05-06_13h34.32.233,hesp_baseline,2021.2.3,MacIntel,250
,,,,,,,,,,,,,,,,,prihegednek,prihegszenek,left,3.233,0,43,43,155,1,102,prihegszik / prihegedik,"prihegszik, prihegedni",nek,NA,"János imád prihegedni, ezért sokat prihegszik.",Ők ritkán...,prihegszenek,prihegednek,cselekszik,-szik,2,PR2093,1995,nő,nem,2022-05-06_13h34.32.233,hesp_baseline,2021.2.3,MacIntel,250
,,,,,,,,,,,,,,,,,mihágoztok,mihágzotok,right,4.225,0,44,44,118,1,65,mihágzik / mihágozik,"mihágzik, mihágozni",tek,NA,"János imád mihágozni, ezért sokat mihágzik.",Ti ritkán...,mihágzotok,mihágoztok,cselekszik,-zik,2,PR2093,1995,nő,nem,2022-05-06_13h34.32.233,hesp_baseline,2021.2.3,MacIntel,250
,,,,,,,,,,,,,,,,,dibáglotok,dibágoztok,right,4.759,0,45,45,154,1,101,dibáglik / dibágozik,"dibáglik, dibágozni",tek,NA,"János imád dibágozni, ezért sokat dibáglik.",Ti ritkán...,dibáglotok,dibágoztok,cselekszik,-lik,2,PR2093,1995,nő,nem,2022-05-06_13h34.32.233,hesp_baseline,2021.2.3,MacIntel,250
,,,,,,,,,,,,,,,,,jonylok,jonylom,left,4.539,0,46,46,55,1,56,jonylik,jonylasz,NA,NA,Te bizony sokat jonylasz.,Én is sokat...,jonylok,jonylom,lakik,-lik,1,PR2093,1995,nő,nem,2022-05-06_13h34.32.233,hesp_baseline,2021.2.3,MacIntel,250
,,,,,,,,,,,,,,,,,sprízemnél,sprízemnál,left,2.02,0,47,47,22,1,77,sprízem,sprízem,nál,e,Ez itt egy sprízem.,Nincs is jobb egy jó...,sprízemnél,sprízemnál,dzsungel,NA,NA,PR2093,1995,nő,nem,2022-05-06_13h34.32.233,hesp_baseline,2021.2.3,MacIntel,250
,,,,,,,,,,,,,,,,,sprebeznek,sprebzenek,right,2.228,0,48,48,139,1,86,sprebzik / sprebezik,"sprebzik, sprebezni",nek,NA,"János imád sprebezni, ezért sokat sprebzik.",Ők ritkán...,sprebzenek,sprebeznek,cselekszik,-zik,1,PR2093,1995,nő,nem,2022-05-06_13h34.32.233,hesp_baseline,2021.2.3,MacIntel,250
,,,,,,,,,,,,,,,,,vorszennál,vorszennél,right,2.031,0,49,49,30,1,85,vorszen,vorszen,nál,e,Ez itt egy vorszen.,Nincs is jobb egy jó...,vorszennél,vorszennál,dzsungel,NA,NA,PR2093,1995,nő,nem,2022-05-06_13h34.32.233,hesp_baseline,2021.2.3,MacIntel,250
,,,,,,,,,,,,,,,,,spihegzek,spihegzem,right,2.157,0,50,50,81,1,82,spihegzik,spihegzel,NA,NA,Te bizony sokat spihegzel.,Én is sokat...,spihegzek,spihegzem,lakik,-zik,2,PR2093,1995,nő,nem,2022-05-06_13h34.32.233,hesp_baseline,2021.2.3,MacIntel,250
,,,,,,,,,,,,,,,,,gilárzok,gilárzom,right,1.958,0,51,51,94,1,95,gilárzik,gilárzol,NA,NA,Te bizony sokat gilárzol.,Én is sokat...,gilárzok,gilárzom,lakik,-zik,2,PR2093,1995,nő,nem,2022-05-06_13h34.32.233,hesp_baseline,2021.2.3,MacIntel,250
,,,,,,,,,,,,,,,,,trírozunk,trírzunk,right,3.017,0,52,52,116,1,63,trírzik / trírozik,"trírzik, trírozni",ünk,NA,"János imád trírozni, ezért sokat trírzik.",Mi ritkán...,trírzunk,trírozunk,cselekszik,-zik,1,PR2093,1995,nő,nem,2022-05-06_13h34.32.233,hesp_baseline,2021.2.3,MacIntel,250
,,,,,,,,,,,,,,,,,klűmlötök,klűmöztök,right,2.166,0,53,53,108,1,55,klűmlik / klűmözik,"klűmlik, klűmözni",tek,NA,"János imád klűmözni, ezért sokat klűmlik.",Ti ritkán...,klűmlötök,klűmöztök,cselekszik,-lik,1,PR2093,1995,nő,nem,2022-05-06_13h34.32.233,hesp_baseline,2021.2.3,MacIntel,250
,,,,,,,,,,,,,,,,,kluzoztok,kluzlotok,left,3.748,0,54,54,148,1,95,kluzlik / kluzozik,"kluzlik, kluzozni",tek,NA,"János imád kluzozni, ezért sokat kluzlik.",Ti ritkán...,kluzlotok,kluzoztok,cselekszik,-lik,1,PR2093,1995,nő,nem,2022-05-06_13h34.32.233,hesp_baseline,2021.2.3,MacIntel,250
,,,,,,,,,,,,,,,,,flürököztök,flüröklötök,right,2.829,0,55,55,149,1,96,flüröklik / flüröközik,"flüröklik, flüröközni",tek,NA,"János imád flüröközni, ezért sokat flüröklik.",Ti ritkán...,flüröklötök,flürököztök,cselekszik,-lik,2,PR2093,1995,nő,nem,2022-05-06_13h34.32.233,hesp_baseline,2021.2.3,MacIntel,250
,,,,,,,,,,,,,,,,,plugzom,plugzok,left,2.163,0,56,56,60,1,61,plugzik,plugzol,NA,NA,Te bizony sokat plugzol.,Én is sokat...,plugzok,plugzom,lakik,-zik,1,PR2093,1995,nő,nem,2022-05-06_13h34.32.233,hesp_baseline,2021.2.3,MacIntel,250
,,,,,,,,,,,,,,,,,fröjözünk,fröjlünk,left,2.707,0,57,57,117,1,64,fröjlik / fröjözik,"fröjlik, fröjözni",ünk,NA,"János imád fröjözni, ezért sokat fröjlik.",Mi ritkán...,fröjlünk,fröjözünk,cselekszik,-lik,1,PR2093,1995,nő,nem,2022-05-06_13h34.32.233,hesp_baseline,2021.2.3,MacIntel,250
,,,,,,,,,,,,,,,,,brágédnak,brágédnek,right,2.132,0,58,58,45,1,100,brágéd,brágéd,nak,é,Ez itt egy brágéd.,Elneveztem a kutyámat...,brágédnek,brágédnak,dzsungel,NA,NA,PR2093,1995,nő,nem,2022-05-06_13h34.32.233,hesp_baseline,2021.2.3,MacIntel,250
,,,,,,,,,,,,,,,,,gihesztnak,gihesztnek,right,2.084,0,59,59,36,1,91,giheszt,giheszt,nak,e,Ez itt egy giheszt.,Elneveztem a kutyámat...,gihesztnek,gihesztnak,dzsungel,NA,NA,PR2093,1995,nő,nem,2022-05-06_13h34.32.233,hesp_baseline,2021.2.3,MacIntel,250
,,,,,,,,,,,,,,,,,csólorzok,csólorzom,right,2.331,0,60,60,102,1,103,csólorzik,csólorzol,NA,NA,Te bizony sokat csólorzol.,Én is sokat...,csólorzok,csólorzom,lakik,-zik,2,PR2093,1995,nő,nem,2022-05-06_13h34.32.233,hesp_baseline,2021.2.3,MacIntel,250
,,,,,,,,,,,,,,,,,sponylanak,sponyoznak,left,3.095,0,61,61,125,1,72,sponylik / sponyozik,"sponylik, sponyozni",nek,NA,"János imád sponyozni, ezért sokat sponylik.",Ők ritkán...,sponylanak,sponyoznak,cselekszik,-lik,1,PR2093,1995,nő,nem,2022-05-06_13h34.32.233,hesp_baseline,2021.2.3,MacIntel,250
,,,,,,,,,,,,,,,,,dihelynak,dihelynek,right,2.024,0,62,62,20,1,75,dihely,dihely,nak,e,Ez itt egy dihely.,Elneveztem a kutyámat...,dihelynek,dihelynak,dzsungel,NA,NA,PR2093,1995,nő,nem,2022-05-06_13h34.32.233,hesp_baseline,2021.2.3,MacIntel,250
,,,,,,,,,,,,,,,,,flibekszek,flibekszem,right,2.142,0,63,63,93,1,94,flibekszik,flibekszel,NA,NA,Te bizony sokat flibekszel.,Én is sokat...,flibekszek,flibekszem,lakik,-szik,2,PR2093,1995,nő,nem,2022-05-06_13h34.32.233,hesp_baseline,2021.2.3,MacIntel,250
,,,,,,,,,,,,,,,,,dineltben,dineltban,left,2.356,0,64,64,0,1,55,dinelt,dinelt,ban,e,Ez itt egy dinelt.,Ott vagyunk a...,dineltben,dineltban,dzsungel,NA,NA,PR2093,1995,nő,nem,2022-05-06_13h34.32.233,hesp_baseline,2021.2.3,MacIntel,250
,,,,,,,,,,,,,,,,,zihencnak,zihencnek,right,1.671,0,65,65,52,1,107,zihenc,zihenc,nak,e,Ez itt egy zihenc.,Elneveztem a kutyámat...,zihencnek,zihencnak,dzsungel,NA,NA,PR2093,1995,nő,nem,2022-05-06_13h34.32.233,hesp_baseline,2021.2.3,MacIntel,250
,,,,,,,,,,,,,,,,,zutennél,zutennál,left,2.709,0,66,66,43,1,98,zuten,zuten,nál,e,Ez itt egy zuten.,Nincs is jobb egy jó...,zutennél,zutennál,dzsungel,NA,NA,PR2093,1995,nő,nem,2022-05-06_13h34.32.233,hesp_baseline,2021.2.3,MacIntel,250
,,,,,,,,,,,,,,,,,kátédnél,kátédnál,left,5.369,0,67,67,37,1,92,kátéd,kátéd,nál,é,Ez itt egy kátéd.,Nincs is jobb egy jó...,kátédnél,kátédnál,dzsungel,NA,NA,PR2093,1995,nő,nem,2022-05-06_13h34.32.233,hesp_baseline,2021.2.3,MacIntel,250
,,,,,,,,,,,,,,,,,forzédnak,forzédnek,right,1.791,0,68,68,46,1,101,forzéd,forzéd,nak,é,Ez itt egy forzéd.,Elneveztem a kutyámat...,forzédnek,forzédnak,dzsungel,NA,NA,PR2093,1995,nő,nem,2022-05-06_13h34.32.233,hesp_baseline,2021.2.3,MacIntel,250
,,,,,,,,,,,,,,,,,sporzemnek,sporzemnak,left,2.487,0,69,69,26,1,81,sporzem,sporzem,nak,e,Ez itt egy sporzem.,Elneveztem a kutyámat...,sporzemnek,sporzemnak,dzsungel,NA,NA,PR2093,1995,nő,nem,2022-05-06_13h34.32.233,hesp_baseline,2021.2.3,MacIntel,250
,,,,,,,,,,,,,,,,,júdernek,júdernak,left,2.285,0,70,70,53,1,108,júder,júder,nak,e,Ez itt egy júder.,Elneveztem a kutyámat...,júdernek,júdernak,dzsungel,NA,NA,PR2093,1995,nő,nem,2022-05-06_13h34.32.233,hesp_baseline,2021.2.3,MacIntel,250
,,,,,,,,,,,,,,,,,branylanak,branyoznak,left,3.031,0,71,71,136,1,83,branylik / branyozik,"branylik, branyozni",nek,NA,"János imád branyozni, ezért sokat branylik.",Ők ritkán...,branylanak,branyoznak,cselekszik,-lik,1,PR2093,1995,nő,nem,2022-05-06_13h34.32.233,hesp_baseline,2021.2.3,MacIntel,250
,,,,,,,,,,,,,,,,,ribegzem,ribegzek,left,2.383,0,72,72,63,1,64,ribegzik,ribegzel,NA,NA,Te bizony sokat ribegzel.,Én is sokat...,ribegzek,ribegzem,lakik,-zik,2,PR2093,1995,nő,nem,2022-05-06_13h34.32.233,hesp_baseline,2021.2.3,MacIntel,250
,,,,,,,,,,,,,,,,,kalrézban,kalrézben,right,3.556,0,73,73,16,1,71,kalréz,kalréz,ban,é,Ez itt egy kalréz.,Ott vagyunk a...,kalrézben,kalrézban,dzsungel,NA,NA,PR2093,1995,nő,nem,2022-05-06_13h34.32.233,hesp_baseline,2021.2.3,MacIntel,250
,,,,,,,,,,,,,,,,,lingéknál,lingéknél,right,3.03,0,74,74,32,1,87,lingék,lingék,nál,é,Ez itt egy lingék.,Nincs is jobb egy jó...,lingéknél,lingéknál,dzsungel,NA,NA,PR2093,1995,nő,nem,2022-05-06_13h34.32.233,hesp_baseline,2021.2.3,MacIntel,250
,,,,,,,,,,,,,,,,,gihamlanak,gihamoznak,left,10.248,0,75,75,133,1,80,gihamlik / gihamozik,"gihamlik, gihamozni",nek,NA,"János imád gihamozni, ezért sokat gihamlik.",Ők ritkán...,gihamlanak,gihamoznak,cselekszik,-lik,2,PR2093,1995,nő,nem,2022-05-06_13h34.32.233,hesp_baseline,2021.2.3,MacIntel,250
,,,,,,,,,,,,,,,,,pribemlem,pribemlek,right,23.767,0,76,76,107,1,108,pribemlik,pribemlesz,NA,NA,Te bizony sokat pribemlesz.,Én is sokat...,pribemlek,pribemlem,lakik,-lik,2,PR2093,1995,nő,nem,2022-05-06_13h34.32.233,hesp_baseline,2021.2.3,MacIntel,250
,,,,,,,,,,,,,,,,,poslotok,posoztok,left,7.808,0,77,77,121,1,68,poslik / posozik,"poslik, posozni",tek,NA,"János imád posozni, ezért sokat poslik.",Ti ritkán...,poslotok,posoztok,cselekszik,-lik,1,PR2093,1995,nő,nem,2022-05-06_13h34.32.233,hesp_baseline,2021.2.3,MacIntel,250
,,,,,,,,,,,,,,,,,ronvetnek,ronvetnak,left,1.896,0,78,78,9,1,64,ronvet,ronvet,nak,e,Ez itt egy ronvet.,Elneveztem a kutyámat...,ronvetnek,ronvetnak,dzsungel,NA,NA,PR2093,1995,nő,nem,2022-05-06_13h34.32.233,hesp_baseline,2021.2.3,MacIntel,250
,,,,,,,,,,,,,,,,,flézletek,flézeztek,right,2.096,0,79,79,134,1,81,flézlik / flézezik,"flézlik, flézezni",tek,NA,"János imád flézezni, ezért sokat flézlik.",Ti ritkán...,flézletek,flézeztek,cselekszik,-lik,1,PR2093,1995,nő,nem,2022-05-06_13h34.32.233,hesp_baseline,2021.2.3,MacIntel,250
,,,,,,,,,,,,,,,,,sprűrlenek,sprűröznek,left,1.822,0,80,80,135,1,82,sprűrlik / sprűrözik,"sprűrlik, sprűrözni",nek,NA,"János imád sprűrözni, ezért sokat sprűrlik.",Ők ritkán...,sprűrlenek,sprűröznek,cselekszik,-lik,1,PR2093,1995,nő,nem,2022-05-06_13h34.32.233,hesp_baseline,2021.2.3,MacIntel,250
,,,,,,,,,,,,,,,,,ikszertban,ikszertben,right,1.584,0,81,81,19,1,74,ikszert,ikszert,ban,e,Ez itt egy ikszert.,Ott vagyunk a...,ikszertben,ikszertban,dzsungel,NA,NA,PR2093,1995,nő,nem,2022-05-06_13h34.32.233,hesp_baseline,2021.2.3,MacIntel,250
,,,,,,,,,,,,,,,,,fröjzötök,fröjöztök,left,2.42,0,82,82,153,1,100,fröjzik / fröjözik,"fröjzik, fröjözni",tek,NA,"János imád fröjözni, ezért sokat fröjzik.",Ti ritkán...,fröjzötök,fröjöztök,cselekszik,-zik,1,PR2093,1995,nő,nem,2022-05-06_13h34.32.233,hesp_baseline,2021.2.3,MacIntel,250
,,,,,,,,,,,,,,,,,frálasoznak,frálaslanak,right,2.932,0,83,83,110,1,57,frálaslik / frálasozik,"frálaslik, frálasozni",nek,NA,"János imád frálasozni, ezért sokat frálaslik.",Ők ritkán...,frálaslanak,frálasoznak,cselekszik,-lik,2,PR2093,1995,nő,nem,2022-05-06_13h34.32.233,hesp_baseline,2021.2.3,MacIntel,250
,,,,,,,,,,,,,,,,,klazérben,klazérban,right,1.85,0,84,84,51,1,106,klazér,klazér,ban,é,Ez itt egy klazér.,Ott vagyunk a...,klazérben,klazérban,dzsungel,NA,NA,PR2093,1995,nő,nem,2022-05-06_13h34.32.233,hesp_baseline,2021.2.3,MacIntel,250
,,,,,,,,,,,,,,,,,fivénylek,fivénylem,left,1.999,0,85,85,78,1,79,fivénylik,fivénylesz,NA,NA,Te bizony sokat fivénylesz.,Én is sokat...,fivénylek,fivénylem,lakik,-lik,2,PR2093,1995,nő,nem,2022-05-06_13h34.32.233,hesp_baseline,2021.2.3,MacIntel,250
,,,,,,,,,,,,,,,,,nidétben,nidétban,left,2.382,0,86,86,39,1,94,nidét,nidét,ban,é,Ez itt egy nidét.,Ott vagyunk a...,nidétben,nidétban,dzsungel,NA,NA,PR2093,1995,nő,nem,2022-05-06_13h34.32.233,hesp_baseline,2021.2.3,MacIntel,250
,,,,,,,,,,,,,,,,,huroslom,huroslok,right,2.399,0,87,87,76,1,77,huroslik,huroslasz,NA,NA,Te bizony sokat huroslasz.,Én is sokat...,huroslok,huroslom,lakik,-lik,2,PR2093,1995,nő,nem,2022-05-06_13h34.32.233,hesp_baseline,2021.2.3,MacIntel,250
,,,,,,,,,,,,,,,,,klidlok,klidlom,left,2.341,0,88,88,72,1,73,klidlik,klidlasz,NA,NA,Te bizony sokat klidlasz.,Én is sokat...,klidlok,klidlom,lakik,-lik,1,PR2093,1995,nő,nem,2022-05-06_13h34.32.233,hesp_baseline,2021.2.3,MacIntel,250
,,,,,,,,,,,,,,,,,csimennál,csimennél,right,2.038,0,89,89,44,1,99,csimen,csimen,nál,e,Ez itt egy csimen.,Nincs is jobb egy jó...,csimennél,csimennál,dzsungel,NA,NA,PR2093,1995,nő,nem,2022-05-06_13h34.32.233,hesp_baseline,2021.2.3,MacIntel,250
,,,,,,,,,,,,,,,,,drojozunk,drojzunk,right,3.054,0,90,90,140,1,87,drojzik / drojozik,"drojzik, drojozni",ünk,NA,"János imád drojozni, ezért sokat drojzik.",Mi ritkán...,drojzunk,drojozunk,cselekszik,-zik,1,PR2093,1995,nő,nem,2022-05-06_13h34.32.233,hesp_baseline,2021.2.3,MacIntel,250
,,,,,,,,,,,,,,,,,spüjzök,spüjzöm,right,3.012,0,91,91,59,1,60,spüjzik,spüjzöl,NA,NA,Te bizony sokat spüjzöl.,Én is sokat...,spüjzök,spüjzöm,lakik,-zik,1,PR2093,1995,nő,nem,2022-05-06_13h34.32.233,hesp_baseline,2021.2.3,MacIntel,250
,,,,,,,,,,,,,,,,,klajrénnek,klajrénnak,left,2.358,0,92,92,41,1,96,klajrén,klajrén,nak,é,Ez itt egy klajrén.,Elneveztem a kutyámat...,klajrénnek,klajrénnak,dzsungel,NA,NA,PR2093,1995,nő,nem,2022-05-06_13h34.32.233,hesp_baseline,2021.2.3,MacIntel,250
,,,,,,,,,,,,,,,,,nuroklunk,nurokozunk,left,4.297,0,93,93,131,1,78,nuroklik / nurokozik,"nuroklik, nurokozni",ünk,NA,"János imád nurokozni, ezért sokat nuroklik.",Mi ritkán...,nuroklunk,nurokozunk,cselekszik,-lik,2,PR2093,1995,nő,nem,2022-05-06_13h34.32.233,hesp_baseline,2021.2.3,MacIntel,250
,,,,,,,,,,,,,,,,,nyüröznek,nyürzenek,right,4.199,0,94,94,123,1,70,nyürzik / nyürözik,"nyürzik, nyürözni",nek,NA,"János imád nyürözni, ezért sokat nyürzik.",Ők ritkán...,nyürzenek,nyüröznek,cselekszik,-zik,1,PR2093,1995,nő,nem,2022-05-06_13h34.32.233,hesp_baseline,2021.2.3,MacIntel,250
,,,,,,,,,,,,,,,,,spülűdzöm,spülűdzök,right,1.79,0,95,95,56,1,57,spülűdzik,spülűdzöl,NA,NA,Te bizony sokat spülűdzöl.,Én is sokat...,spülűdzök,spülűdzöm,lakik,-zik,2,PR2093,1995,nő,nem,2022-05-06_13h34.32.233,hesp_baseline,2021.2.3,MacIntel,250
,,,,,,,,,,,,,,,,,metégednek,metégszenek,right,4.604,0,96,96,112,1,59,metégszik / metégedik,"metégszik, metégedni",nek,NA,"János imád metégedni, ezért sokat metégszik.",Ők ritkán...,metégszenek,metégednek,cselekszik,-szik,2,PR2093,1995,nő,nem,2022-05-06_13h34.32.233,hesp_baseline,2021.2.3,MacIntel,250
,,,,,,,,,,,,,,,,,pítendban,pítendben,right,2.822,0,97,97,18,1,73,pítend,pítend,ban,e,Ez itt egy pítend.,Ott vagyunk a...,pítendben,pítendban,dzsungel,NA,NA,PR2093,1995,nő,nem,2022-05-06_13h34.32.233,hesp_baseline,2021.2.3,MacIntel,250
,,,,,,,,,,,,,,,,,juszlok,juszlom,left,2.737,0,98,98,79,1,80,juszlik,juszlasz,NA,NA,Te bizony sokat juszlasz.,Én is sokat...,juszlok,juszlom,lakik,-lik,1,PR2093,1995,nő,nem,2022-05-06_13h34.32.233,hesp_baseline,2021.2.3,MacIntel,250
,,,,,,,,,,,,,,,,,spáraklok,spáraklom,left,2.603,0,99,99,96,1,97,spáraklik,spáraklasz,NA,NA,Te bizony sokat spáraklasz.,Én is sokat...,spáraklok,spáraklom,lakik,-lik,2,PR2093,1995,nő,nem,2022-05-06_13h34.32.233,hesp_baseline,2021.2.3,MacIntel,250
,,,,,,,,,,,,,,,,,míjozunk,míjzunk,right,2.316,0,100,100,114,1,61,míjzik / míjozik,"míjzik, míjozni",ünk,NA,"János imád míjozni, ezért sokat míjzik.",Mi ritkán...,míjzunk,míjozunk,cselekszik,-zik,1,PR2093,1995,nő,nem,2022-05-06_13h34.32.233,hesp_baseline,2021.2.3,MacIntel,250
,,,,,,,,,,,,,,,,,nyábétben,nyábétban,left,2.629,0,101,101,21,1,76,nyábét,nyábét,ban,é,Ez itt egy nyábét.,Ott vagyunk a...,nyábétben,nyábétban,dzsungel,NA,NA,PR2093,1995,nő,nem,2022-05-06_13h34.32.233,hesp_baseline,2021.2.3,MacIntel,250
,,,,,,,,,,,,,,,,,flüröslök,flüröslöm,left,3.248,0,102,102,87,1,88,flüröslik,flüröslesz,NA,NA,Te bizony sokat flüröslesz.,Én is sokat...,flüröslök,flüröslöm,lakik,-lik,2,PR2093,1995,nő,nem,2022-05-06_13h34.32.233,hesp_baseline,2021.2.3,MacIntel,250
,,,,,,,,,,,,,,,,,csintékban,csintékben,right,2.04,0,103,103,23,1,78,csinték,csinték,ban,é,Ez itt egy csinték.,Ott vagyunk a...,csintékben,csintékban,dzsungel,NA,NA,PR2093,1995,nő,nem,2022-05-06_13h34.32.233,hesp_baseline,2021.2.3,MacIntel,250
,,,,,,,,,,,,,,,,,flerékedünk,flerékszünk,right,2.716,0,104,104,159,1,106,flerékszik / flerékedik,"flerékszik, flerékedni",ünk,NA,"János imád flerékedni, ezért sokat flerékszik.",Mi ritkán...,flerékszünk,flerékedünk,cselekszik,-szik,2,PR2093,1995,nő,nem,2022-05-06_13h34.32.233,hesp_baseline,2021.2.3,MacIntel,250
,,,,,,,,,,,,,,,,,flűgzünk,flűgözünk,left,2.109,0,105,105,160,1,107,flűgzik / flűgözik,"flűgzik, flűgözni",ünk,NA,"János imád flűgözni, ezért sokat flűgzik.",Mi ritkán...,flűgzünk,flűgözünk,cselekszik,-zik,1,PR2093,1995,nő,nem,2022-05-06_13h34.32.233,hesp_baseline,2021.2.3,MacIntel,250
,,,,,,,,,,,,,,,,,sojzom,sojzok,right,1.771,0,106,106,74,1,75,sojzik,sojzol,NA,NA,Te bizony sokat sojzol.,Én is sokat...,sojzok,sojzom,lakik,-zik,1,PR2093,1995,nő,nem,2022-05-06_13h34.32.233,hesp_baseline,2021.2.3,MacIntel,250
,,,,,,,,,,,,,,,,,sortemnél,sortemnál,right,1.654,0,107,107,15,1,70,sortem,sortem,nál,e,Ez itt egy sortem.,Nincs is jobb egy jó...,sortemnél,sortemnál,dzsungel,NA,NA,PR2093,1995,nő,nem,2022-05-06_13h34.32.233,hesp_baseline,2021.2.3,MacIntel,250
,,,,,,,,,,,,,,,,,daboztok,dabzotok,right,4.622,0,108,108,109,1,56,dabzik / dabozik,"dabzik, dabozni",tek,NA,"János imád dabozni, ezért sokat dabzik.",Ti ritkán...,dabzotok,daboztok,cselekszik,-zik,1,PR2093,1995,nő,nem,2022-05-06_13h34.32.233,hesp_baseline,2021.2.3,MacIntel,250
,,,,,,,,,,,,,,,,,tiregzem,tiregzek,left,1.916,0,109,109,64,1,65,tiregzik,tiregzel,NA,NA,Te bizony sokat tiregzel.,Én is sokat...,tiregzek,tiregzem,lakik,-zik,2,PR2093,1995,nő,nem,2022-05-06_13h34.32.233,hesp_baseline,2021.2.3,MacIntel,250
,,,,,,,,,,,,,,,,,dilaklotok,dilakoztok,left,3.001,0,110,110,158,1,105,dilaklik / dilakozik,"dilaklik, dilakozni",tek,NA,"János imád dilakozni, ezért sokat dilaklik.",Ti ritkán...,dilaklotok,dilakoztok,cselekszik,-lik,2,PR2093,1995,nő,nem,2022-05-06_13h34.32.233,hesp_baseline,2021.2.3,MacIntel,250
,,,,,,,,,,,,,,,,,tomlom,tomlok,right,2.021,0,111,111,86,1,87,tomlik,tomlasz,NA,NA,Te bizony sokat tomlasz.,Én is sokat...,tomlok,tomlom,lakik,-lik,1,PR2093,1995,nő,nem,2022-05-06_13h34.32.233,hesp_baseline,2021.2.3,MacIntel,250
,,,,,,,,,,,,,,,,,prilepedünk,prilepszünk,right,3.522,0,112,112,161,1,108,prilepszik / prilepedik,"prilepszik, prilepedni",ünk,NA,"János imád prilepedni, ezért sokat prilepszik.",Mi ritkán...,prilepszünk,prilepedünk,cselekszik,-szik,2,PR2093,1995,nő,nem,2022-05-06_13h34.32.233,hesp_baseline,2021.2.3,MacIntel,250
,,,,,,,,,,,,,,,,,prihekszek,prihekszem,right,2.889,0,113,113,100,1,101,prihekszik,prihekszel,NA,NA,Te bizony sokat prihekszel.,Én is sokat...,prihekszek,prihekszem,lakik,-szik,2,PR2093,1995,nő,nem,2022-05-06_13h34.32.233,hesp_baseline,2021.2.3,MacIntel,250
,,,,,,,,,,,,,,,,,flátszok,flátszom,right,2.308,0,114,114,98,1,99,flátszik,flátszol,NA,NA,Te bizony sokat flátszol.,Én is sokat...,flátszok,flátszom,lakik,-szik,1,PR2093,1995,nő,nem,2022-05-06_13h34.32.233,hesp_baseline,2021.2.3,MacIntel,250
,,,,,,,,,,,,,,,,,frivamozunk,frivamlunk,right,2.695,0,115,115,122,1,69,frivamlik / frivamozik,"frivamlik, frivamozni",ünk,NA,"János imád frivamozni, ezért sokat frivamlik.",Mi ritkán...,frivamlunk,frivamozunk,cselekszik,-lik,2,PR2093,1995,nő,nem,2022-05-06_13h34.32.233,hesp_baseline,2021.2.3,MacIntel,250
,,,,,,,,,,,,,,,,,gúdenben,gúdenban,left,2.403,0,116,116,4,1,59,gúden,gúden,ban,e,Ez itt egy gúden.,Ott vagyunk a...,gúdenben,gúdenban,dzsungel,NA,NA,PR2093,1995,nő,nem,2022-05-06_13h34.32.233,hesp_baseline,2021.2.3,MacIntel,250
,,,,,,,,,,,,,,,,,ribzok,ribzom,right,1.734,0,117,117,58,1,59,ribzik,ribzol,NA,NA,Te bizony sokat ribzol.,Én is sokat...,ribzok,ribzom,lakik,-zik,1,PR2093,1995,nő,nem,2022-05-06_13h34.32.233,hesp_baseline,2021.2.3,MacIntel,250
,,,,,,,,,,,,,,,,,zarcégnél,zarcégnál,left,3.171,0,118,118,29,1,84,zarcég,zarcég,nál,é,Ez itt egy zarcég.,Nincs is jobb egy jó...,zarcégnél,zarcégnál,dzsungel,NA,NA,PR2093,1995,nő,nem,2022-05-06_13h34.32.233,hesp_baseline,2021.2.3,MacIntel,250
,,,,,,,,,,,,,,,,,kluhéjnél,kluhéjnál,left,1.909,0,119,119,24,1,79,kluhéj,kluhéj,nál,é,Ez itt egy kluhéj.,Nincs is jobb egy jó...,kluhéjnél,kluhéjnál,dzsungel,NA,NA,PR2093,1995,nő,nem,2022-05-06_13h34.32.233,hesp_baseline,2021.2.3,MacIntel,250
,,,,,,,,,,,,,,,,,flitlom,flitlok,right,1.888,0,120,120,90,1,91,flitlik,flitlasz,NA,NA,Te bizony sokat flitlasz.,Én is sokat...,flitlok,flitlom,lakik,-lik,1,PR2093,1995,nő,nem,2022-05-06_13h34.32.233,hesp_baseline,2021.2.3,MacIntel,250
,,,,,,,,,,,,,,,,,sprogzom,sprogzok,left,2.178,0,121,121,89,1,90,sprogzik,sprogzol,NA,NA,Te bizony sokat sprogzol.,Én is sokat...,sprogzok,sprogzom,lakik,-zik,1,PR2093,1995,nő,nem,2022-05-06_13h34.32.233,hesp_baseline,2021.2.3,MacIntel,250
,,,,,,,,,,,,,,,,,molodtok,molszotok,right,3.524,0,122,122,142,1,89,molszik / molodik,"molszik, molodni",tek,NA,"János imád molodni, ezért sokat molszik.",Ti ritkán...,molszotok,molodtok,cselekszik,-szik,1,PR2093,1995,nő,nem,2022-05-06_13h34.32.233,hesp_baseline,2021.2.3,MacIntel,250
,,,,,,,,,,,,,,,,,spibeglünk,spibegezünk,left,2.421,0,123,123,147,1,94,spibeglik / spibegezik,"spibeglik, spibegezni",ünk,NA,"János imád spibegezni, ezért sokat spibeglik.",Mi ritkán...,spibeglünk,spibegezünk,cselekszik,-lik,2,PR2093,1995,nő,nem,2022-05-06_13h34.32.233,hesp_baseline,2021.2.3,MacIntel,250
,,,,,,,,,,,,,,,,,szűslöm,szűslök,left,2.414,0,124,124,85,1,86,szűslik,szűslesz,NA,NA,Te bizony sokat szűslesz.,Én is sokat...,szűslök,szűslöm,lakik,-lik,1,PR2093,1995,nő,nem,2022-05-06_13h34.32.233,hesp_baseline,2021.2.3,MacIntel,250
,,,,,,,,,,,,,,,,,pratelynak,pratelynek,right,1.962,0,125,125,47,1,102,prately,prately,nak,e,Ez itt egy prately.,Elneveztem a kutyámat...,pratelynek,pratelynak,dzsungel,NA,NA,PR2093,1995,nő,nem,2022-05-06_13h34.32.233,hesp_baseline,2021.2.3,MacIntel,250
,,,,,,,,,,,,,,,,,flehékszem,flehékszek,left,2.459,0,126,126,77,1,78,flehékszik,flehékszel,NA,NA,Te bizony sokat flehékszel.,Én is sokat...,flehékszek,flehékszem,lakik,-szik,2,PR2093,1995,nő,nem,2022-05-06_13h34.32.233,hesp_baseline,2021.2.3,MacIntel,250
,,,,,,,,,,,,,,,,,spügözünk,spügzünk,left,2.682,0,127,127,143,1,90,spügzik / spügözik,"spügzik, spügözni",ünk,NA,"János imád spügözni, ezért sokat spügzik.",Mi ritkán...,spügzünk,spügözünk,cselekszik,-zik,1,PR2093,1995,nő,nem,2022-05-06_13h34.32.233,hesp_baseline,2021.2.3,MacIntel,250
,,,,,,,,,,,,,,,,,szanéjnak,szanéjnek,right,1.94,0,128,128,13,1,68,szanéj,szanéj,nak,é,Ez itt egy szanéj.,Elneveztem a kutyámat...,szanéjnek,szanéjnak,dzsungel,NA,NA,PR2093,1995,nő,nem,2022-05-06_13h34.32.233,hesp_baseline,2021.2.3,MacIntel,250
,,,,,,,,,,,,,,,,,nűröklöm,nűröklök,right,1.564,0,129,129,106,1,107,nűröklik,nűröklesz,NA,NA,Te bizony sokat nűröklesz.,Én is sokat...,nűröklök,nűröklöm,lakik,-lik,2,PR2093,1995,nő,nem,2022-05-06_13h34.32.233,hesp_baseline,2021.2.3,MacIntel,250
,,,,,,,,,,,,,,,,,flodlotok,flodoztok,right,4.246,0,130,130,144,1,91,flodlik / flodozik,"flodlik, flodozni",tek,NA,"János imád flodozni, ezért sokat flodlik.",Ti ritkán...,flodlotok,flodoztok,cselekszik,-lik,1,PR2093,1995,nő,nem,2022-05-06_13h34.32.233,hesp_baseline,2021.2.3,MacIntel,250
,,,,,,,,,,,,,,,,,brágaklok,brágaklom,right,3.29,0,131,131,71,1,72,brágaklik,brágaklasz,NA,NA,Te bizony sokat brágaklasz.,Én is sokat...,brágaklok,brágaklom,lakik,-lik,2,PR2093,1995,nő,nem,2022-05-06_13h34.32.233,hesp_baseline,2021.2.3,MacIntel,250
,,,,,,,,,,,,,,,,,jóbecnek,jóbecnak,right,1.566,0,132,132,11,1,66,jóbec,jóbec,nak,e,Ez itt egy jóbec.,Elneveztem a kutyámat...,jóbecnek,jóbecnak,dzsungel,NA,NA,PR2093,1995,nő,nem,2022-05-06_13h34.32.233,hesp_baseline,2021.2.3,MacIntel,250
,,,,,,,,,,,,,,,,,flagánylom,flagánylok,left,2.696,0,133,133,82,1,83,flagánylik,flagánylasz,NA,NA,Te bizony sokat flagánylasz.,Én is sokat...,flagánylok,flagánylom,lakik,-lik,2,PR2093,1995,nő,nem,2022-05-06_13h34.32.233,hesp_baseline,2021.2.3,MacIntel,250
,,,,,,,,,,,,,,,,,lijeznak,lijeznek,right,2.072,0,134,134,40,1,95,lijez,lijez,nak,e,Ez itt egy lijez.,Elneveztem a kutyámat...,lijeznek,lijeznak,dzsungel,NA,NA,PR2093,1995,nő,nem,2022-05-06_13h34.32.233,hesp_baseline,2021.2.3,MacIntel,250
,,,,,,,,,,,,,,,,,ítensban,ítensben,right,3.29,0,135,135,50,1,105,ítens,ítens,ban,e,Ez itt egy ítens.,Ott vagyunk a...,ítensben,ítensban,dzsungel,NA,NA,PR2093,1995,nő,nem,2022-05-06_13h34.32.233,hesp_baseline,2021.2.3,MacIntel,250
,,,,,,,,,,,,,,,,,flűmlök,flűmlöm,left,2.71,0,136,136,54,1,55,flűmlik,flűmlesz,NA,NA,Te bizony sokat flűmlesz.,Én is sokat...,flűmlök,flűmlöm,lakik,-lik,1,PR2093,1995,nő,nem,2022-05-06_13h34.32.233,hesp_baseline,2021.2.3,MacIntel,250
,,,,,,,,,,,,,,,,,flubokoztok,fluboklotok,right,3.64,0,137,137,151,1,98,fluboklik / flubokozik,"fluboklik, flubokozni",tek,NA,"János imád flubokozni, ezért sokat fluboklik.",Ti ritkán...,fluboklotok,flubokoztok,cselekszik,-lik,2,PR2093,1995,nő,nem,2022-05-06_13h34.32.233,hesp_baseline,2021.2.3,MacIntel,250
,,,,,,,,,,,,,,,,,hákodnak,hákszanak,left,4.017,0,138,138,150,1,97,hákszik / hákodik,"hákszik, hákodni",nek,NA,"János imád hákodni, ezért sokat hákszik.",Ők ritkán...,hákszanak,hákodnak,cselekszik,-szik,1,PR2093,1995,nő,nem,2022-05-06_13h34.32.233,hesp_baseline,2021.2.3,MacIntel,250
,,,,,,,,,,,,,,,,,pivegszem,pivegszek,left,1.947,0,139,139,99,1,100,pivegszik,pivegszel,NA,NA,Te bizony sokat pivegszel.,Én is sokat...,pivegszek,pivegszem,lakik,-szik,2,PR2093,1995,nő,nem,2022-05-06_13h34.32.233,hesp_baseline,2021.2.3,MacIntel,250
,,,,,,,,,,,,,,,,,spubonylok,spubonylom,left,2.95,0,140,140,104,1,105,spubonylik,spubonylasz,NA,NA,Te bizony sokat spubonylasz.,Én is sokat...,spubonylok,spubonylom,lakik,-lik,2,PR2093,1995,nő,nem,2022-05-06_13h34.32.233,hesp_baseline,2021.2.3,MacIntel,250
,,,,,,,,,,,,,,,,,frodlok,frodlom,right,1.869,0,141,141,61,1,62,frodlik,frodlasz,NA,NA,Te bizony sokat frodlasz.,Én is sokat...,frodlok,frodlom,lakik,-lik,1,PR2093,1995,nő,nem,2022-05-06_13h34.32.233,hesp_baseline,2021.2.3,MacIntel,250
,,,,,,,,,,,,,,,,,nyametben,nyametban,left,2.374,0,142,142,17,1,72,nyamet,nyamet,ban,e,Ez itt egy nyamet.,Ott vagyunk a...,nyametben,nyametban,dzsungel,NA,NA,PR2093,1995,nő,nem,2022-05-06_13h34.32.233,hesp_baseline,2021.2.3,MacIntel,250
,,,,,,,,,,,,,,,,,ruslom,ruslok,right,2.222,0,143,143,83,1,84,ruslik,ruslasz,NA,NA,Te bizony sokat ruslasz.,Én is sokat...,ruslok,ruslom,lakik,-lik,1,PR2093,1995,nő,nem,2022-05-06_13h34.32.233,hesp_baseline,2021.2.3,MacIntel,250
,,,,,,,,,,,,,,,,,gyihegeztek,gyihegzetek,right,2.722,0,144,144,124,1,71,gyihegzik / gyihegezik,"gyihegzik, gyihegezni",tek,NA,"János imád gyihegezni, ezért sokat gyihegzik.",Ti ritkán...,gyihegzetek,gyihegeztek,cselekszik,-zik,2,PR2093,1995,nő,nem,2022-05-06_13h34.32.233,hesp_baseline,2021.2.3,MacIntel,250
,,,,,,,,,,,,,,,,,flűröklöm,flűröklök,left,2.471,0,145,145,91,1,92,flűröklik,flűröklesz,NA,NA,Te bizony sokat flűröklesz.,Én is sokat...,flűröklök,flűröklöm,lakik,-lik,2,PR2093,1995,nő,nem,2022-05-06_13h34.32.233,hesp_baseline,2021.2.3,MacIntel,250
,,,,,,,,,,,,,,,,,trigencnak,trigencnek,right,1.73,0,146,146,31,1,86,trigenc,trigenc,nak,e,Ez itt egy trigenc.,Elneveztem a kutyámat...,trigencnek,trigencnak,dzsungel,NA,NA,PR2093,1995,nő,nem,2022-05-06_13h34.32.233,hesp_baseline,2021.2.3,MacIntel,250
,,,,,,,,,,,,,,,,,bivégszem,bivégszek,left,4.288,0,147,147,68,1,69,bivégszik,bivégszel,NA,NA,Te bizony sokat bivégszel.,Én is sokat...,bivégszek,bivégszem,lakik,-szik,2,PR2093,1995,nő,nem,2022-05-06_13h34.32.233,hesp_baseline,2021.2.3,MacIntel,250
,,,,,,,,,,,,,,,,,dingecnek,dingecnak,left,2.049,0,148,148,42,1,97,dingec,dingec,nak,e,Ez itt egy dingec.,Elneveztem a kutyámat...,dingecnek,dingecnak,dzsungel,NA,NA,PR2093,1995,nő,nem,2022-05-06_13h34.32.233,hesp_baseline,2021.2.3,MacIntel,250
,,,,,,,,,,,,,,,,,hubonylotok,hubonyoztok,left,3.093,0,149,149,157,1,104,hubonylik / hubonyozik,"hubonylik, hubonyozni",tek,NA,"János imád hubonyozni, ezért sokat hubonylik.",Ti ritkán...,hubonylotok,hubonyoztok,cselekszik,-lik,2,PR2093,1995,nő,nem,2022-05-06_13h34.32.233,hesp_baseline,2021.2.3,MacIntel,250
,,,,,,,,,,,,,,,,,nyádlanak,nyádoznak,left,2.773,0,150,150,120,1,67,nyádlik / nyádozik,"nyádlik, nyádozni",nek,NA,"János imád nyádozni, ezért sokat nyádlik.",Ők ritkán...,nyádlanak,nyádoznak,cselekszik,-lik,1,PR2093,1995,nő,nem,2022-05-06_13h34.32.233,hesp_baseline,2021.2.3,MacIntel,250
,,,,,,,,,,,,,,,,,friszlom,friszlok,left,1.89,0,151,151,97,1,98,friszlik,friszlasz,NA,NA,Te bizony sokat friszlasz.,Én is sokat...,friszlok,friszlom,lakik,-lik,1,PR2093,1995,nő,nem,2022-05-06_13h34.32.233,hesp_baseline,2021.2.3,MacIntel,250
,,,,,,,,,,,,,,,,,jábézben,jábézban,left,2.022,0,152,152,34,1,89,jábéz,jábéz,ban,é,Ez itt egy jábéz.,Ott vagyunk a...,jábézben,jábézban,dzsungel,NA,NA,PR2093,1995,nő,nem,2022-05-06_13h34.32.233,hesp_baseline,2021.2.3,MacIntel,250
,,,,,,,,,,,,,,,,,bribékszetek,bribékedtek,left,2.326,0,153,153,141,1,88,bribékszik / bribékedik,"bribékszik, bribékedni",tek,NA,"János imád bribékedni, ezért sokat bribékszik.",Ti ritkán...,bribékszetek,bribékedtek,cselekszik,-szik,2,PR2093,1995,nő,nem,2022-05-06_13h34.32.233,hesp_baseline,2021.2.3,MacIntel,250
,,,,,,,,,,,,,,,,,trugoznak,trugzanak,left,2.506,0,154,154,146,1,93,trugzik / trugozik,"trugzik, trugozni",nek,NA,"János imád trugozni, ezért sokat trugzik.",Ők ritkán...,trugzanak,trugoznak,cselekszik,-zik,1,PR2093,1995,nő,nem,2022-05-06_13h34.32.233,hesp_baseline,2021.2.3,MacIntel,250
,,,,,,,,,,,,,,,,,spatárzom,spatárzok,left,1.923,0,155,155,69,1,70,spatárzik,spatárzol,NA,NA,Te bizony sokat spatárzol.,Én is sokat...,spatárzok,spatárzom,lakik,-zik,2,PR2093,1995,nő,nem,2022-05-06_13h34.32.233,hesp_baseline,2021.2.3,MacIntel,250
,,,,,,,,,,,,,,,,,kumlok,kumlom,left,2.281,0,156,156,105,1,106,kumlik,kumlasz,NA,NA,Te bizony sokat kumlasz.,Én is sokat...,kumlok,kumlom,lakik,-lik,1,PR2093,1995,nő,nem,2022-05-06_13h34.32.233,hesp_baseline,2021.2.3,MacIntel,250
,,,,,,,,,,,,,,,,,fupétnél,fupétnál,left,2.149,0,157,157,14,1,69,fupét,fupét,nál,é,Ez itt egy fupét.,Nincs is jobb egy jó...,fupétnél,fupétnál,dzsungel,NA,NA,PR2093,1995,nő,nem,2022-05-06_13h34.32.233,hesp_baseline,2021.2.3,MacIntel,250
,,,,,,,,,,,,,,,,,klehényeztek,klehényletek,right,3.462,0,158,158,113,1,60,klehénylik / klehényezik,"klehénylik, klehényezni",tek,NA,"János imád klehényezni, ezért sokat klehénylik.",Ti ritkán...,klehényletek,klehényeztek,cselekszik,-lik,2,PR2093,1995,nő,nem,2022-05-06_13h34.32.233,hesp_baseline,2021.2.3,MacIntel,250
,,,,,,,,,,,,,,,,,csíszlom,csíszlok,left,1.914,0,159,159,84,1,85,csíszlik,csíszlasz,NA,NA,Te bizony sokat csíszlasz.,Én is sokat...,csíszlok,csíszlom,lakik,-lik,1,PR2093,1995,nő,nem,2022-05-06_13h34.32.233,hesp_baseline,2021.2.3,MacIntel,250
,,,,,,,,,,,,,,,,,floglok,floglom,right,3.557,0,160,160,92,1,93,floglik,floglasz,NA,NA,Te bizony sokat floglasz.,Én is sokat...,floglok,floglom,lakik,-lik,1,PR2093,1995,nő,nem,2022-05-06_13h34.32.233,hesp_baseline,2021.2.3,MacIntel,250
,,,,,,,,,,,,,,,,,klingeszben,klingeszban,left,2.048,0,161,161,1,1,56,klingesz,klingesz,ban,e,Ez itt egy klingesz.,Ott vagyunk a...,klingeszben,klingeszban,dzsungel,NA,NA,PR2093,1995,nő,nem,2022-05-06_13h34.32.233,hesp_baseline,2021.2.3,MacIntel,250
