my_list,key.keys,key.rt,key_2.keys,key_2.rt,keyboard_input_2.keys,keyboard_input_2.rt,key_3.keys,key_3.rt,keyboard_input_3.keys,keyboard_input_3.rt,key_4.keys,key_4.rt,keyboard_input_4.keys,keyboard_input_4.rt,key_5.keys,key_5.rt,my_button1,my_button2,keyboard_input.keys,keyboard_input.rt,withinBlock.thisRepN,withinBlock.thisTrialN,withinBlock.thisN,withinBlock.thisIndex,withinBlock.ran,rowname,word,prompt,suffix,vowel,carrier_sentence,target_sentence,target1,target2,category,derivational,nsyl,Azonosító,Melyik évben születtél?,Mi a nemed?,Tanultál nyelvészetet?,date,expName,psychopyVersion,OS,frameRate
list1.csv,space,0.661,space,0.454,right,0.289,space,0.394,right,0.526,space,0.325,right,0.693,space,0.59,spilágzom,spilágzok,right,0.813,0,0,0,76,1,23,spilágzik,spilágzol,NA,NA,Te bizony sokat spilágzol.,Én is sokat...,spilágzok,spilágzom,lakik,-zik,2,nincsen,1990,nő,nem,2022-03-20_11h59.00.161,hesp_baseline,2021.2.3,MacIntel,60.16847172
,,,,,,,,,,,,,,,,,priszecban,priszecben,right,0.414,0,1,1,15,1,16,priszec,priszec,ban,e,Ez itt egy priszec.,Ott vagyunk a...,priszecben,priszecban,dzsungel,NA,NA,nincsen,1990,nő,nem,2022-03-20_11h59.00.161,hesp_baseline,2021.2.3,MacIntel,60.16847172
,,,,,,,,,,,,,,,,,narádzom,narádzok,right,0.382,0,2,2,63,1,10,narádzik,narádzol,NA,NA,Te bizony sokat narádzol.,Én is sokat...,narádzok,narádzom,lakik,-zik,2,nincsen,1990,nő,nem,2022-03-20_11h59.00.161,hesp_baseline,2021.2.3,MacIntel,60.16847172
,,,,,,,,,,,,,,,,,prilegzek,prilegzem,right,0.321,0,3,3,79,1,26,prilegzik,prilegzel,NA,NA,Te bizony sokat prilegzel.,Én is sokat...,prilegzek,prilegzem,lakik,-zik,2,nincsen,1990,nő,nem,2022-03-20_11h59.00.161,hesp_baseline,2021.2.3,MacIntel,60.16847172
,,,,,,,,,,,,,,,,,hóbensban,hóbensben,right,0.345,0,4,4,3,1,4,hóbens,hóbens,ban,e,Ez itt egy hóbens.,Ott vagyunk a...,hóbensben,hóbensban,dzsungel,NA,NA,nincsen,1990,nő,nem,2022-03-20_11h59.00.161,hesp_baseline,2021.2.3,MacIntel,60.16847172
,,,,,,,,,,,,,,,,,drűrzenek,drűröznek,right,0.347,0,5,5,126,1,19,drűrzik / drűrözik,"drűrzik, drűrözni",nek,NA,"János imád drűrözni, ezért sokat drűrzik.",Ők ritkán...,drűrzenek,drűröznek,cselekszik,-zik,1,nincsen,1990,nő,nem,2022-03-20_11h59.00.161,hesp_baseline,2021.2.3,MacIntel,60.16847172
,,,,,,,,,,,,,,,,,dajrensnél,dajrensnál,right,5.121,0,6,6,49,1,50,dajrens,dajrens,nál,e,Ez itt egy dajrens.,Nincs is jobb egy jó...,dajrensnél,dajrensnál,dzsungel,NA,NA,nincsen,1990,nő,nem,2022-03-20_11h59.00.161,hesp_baseline,2021.2.3,MacIntel,60.16847172
,,,,,,,,,,,,,,,,,kadérnál,kadérnél,right,0.772,0,7,7,7,1,8,kadér,kadér,nál,é,Ez itt egy kadér.,Nincs is jobb egy jó...,kadérnél,kadérnál,dzsungel,NA,NA,nincsen,1990,nő,nem,2022-03-20_11h59.00.161,hesp_baseline,2021.2.3,MacIntel,60.16847172
,,,,,,,,,,,,,,,,,gyivepednek,gyivepszenek,right,0.295,0,8,8,160,1,53,gyivepszik / gyivepedik,"gyivepszik, gyivepedni",nek,NA,"János imád gyivepedni, ezért sokat gyivepszik.",Ők ritkán...,gyivepszenek,gyivepednek,cselekszik,-szik,2,nincsen,1990,nő,nem,2022-03-20_11h59.00.161,hesp_baseline,2021.2.3,MacIntel,60.16847172
,,,,,,,,,,,,,,,,,nyizozunk,nyizlunk,right,0.022,0,9,9,135,1,28,nyizlik / nyizozik,"nyizlik, nyizozni",ünk,NA,"János imád nyizozni, ezért sokat nyizlik.",Mi ritkán...,nyizlunk,nyizozunk,cselekszik,-lik,1,nincsen,1990,nő,nem,2022-03-20_11h59.00.161,hesp_baseline,2021.2.3,MacIntel,60.16847172
,,,,,,,,,,,,,,,,,vismernál,vismernél,right,0.163,0,10,10,13,1,14,vismer,vismer,nál,e,Ez itt egy vismer.,Nincs is jobb egy jó...,vismernél,vismernál,dzsungel,NA,NA,nincsen,1990,nő,nem,2022-03-20_11h59.00.161,hesp_baseline,2021.2.3,MacIntel,60.16847172
,,,,,,,,,,,,,,,,,pilégszenek,pilégednek,right,0.127,0,11,11,150,1,43,pilégszik / pilégedik,"pilégszik, pilégedni",nek,NA,"János imád pilégedni, ezért sokat pilégszik.",Ők ritkán...,pilégszenek,pilégednek,cselekszik,-szik,2,nincsen,1990,nő,nem,2022-03-20_11h59.00.161,hesp_baseline,2021.2.3,MacIntel,60.16847172
,,,,,,,,,,,,,,,,,jalrénynál,jalrénynél,right,0.288,0,12,12,0,1,1,jalrény,jalrény,nál,é,Ez itt egy jalrény.,Nincs is jobb egy jó...,jalrénynél,jalrénynál,dzsungel,NA,NA,nincsen,1990,nő,nem,2022-03-20_11h59.00.161,hesp_baseline,2021.2.3,MacIntel,60.16847172
,,,,,,,,,,,,,,,,,gihejezünk,gihejlünk,right,0.265,0,13,13,146,1,39,gihejlik / gihejezik,"gihejlik, gihejezni",ünk,NA,"János imád gihejezni, ezért sokat gihejlik.",Mi ritkán...,gihejlünk,gihejezünk,cselekszik,-lik,2,nincsen,1990,nő,nem,2022-03-20_11h59.00.161,hesp_baseline,2021.2.3,MacIntel,60.16847172
,,,,,,,,,,,,,,,,,brigesztnak,brigesztnek,right,0.279,0,14,14,48,1,49,brigeszt,brigeszt,nak,e,Ez itt egy brigeszt.,Elneveztem a kutyámat...,brigesztnek,brigesztnak,dzsungel,NA,NA,nincsen,1990,nő,nem,2022-03-20_11h59.00.161,hesp_baseline,2021.2.3,MacIntel,60.16847172
,,,,,,,,,,,,,,,,,klordénynek,klordénynak,right,0.205,0,15,15,9,1,10,klordény,klordény,nak,é,Ez itt egy klordény.,Elneveztem a kutyámat...,klordénynek,klordénynak,dzsungel,NA,NA,nincsen,1990,nő,nem,2022-03-20_11h59.00.161,hesp_baseline,2021.2.3,MacIntel,60.16847172
,,,,,,,,,,,,,,,,,tránélynek,tránélynak,right,0.18,0,16,16,17,1,18,tránély,tránély,nak,é,Ez itt egy tránély.,Elneveztem a kutyámat...,tránélynek,tránélynak,dzsungel,NA,NA,nincsen,1990,nő,nem,2022-03-20_11h59.00.161,hesp_baseline,2021.2.3,MacIntel,60.16847172
,,,,,,,,,,,,,,,,,brubzom,brubzok,right,0.156,0,17,17,92,1,39,brubzik,brubzol,NA,NA,Te bizony sokat brubzol.,Én is sokat...,brubzok,brubzom,lakik,-zik,1,nincsen,1990,nő,nem,2022-03-20_11h59.00.161,hesp_baseline,2021.2.3,MacIntel,60.16847172
,,,,,,,,,,,,,,,,,mísozunk,míslunk,right,0.181,0,18,18,123,1,16,míslik / mísozik,"míslik, mísozni",ünk,NA,"János imád mísozni, ezért sokat míslik.",Mi ritkán...,míslunk,mísozunk,cselekszik,-lik,1,nincsen,1990,nő,nem,2022-03-20_11h59.00.161,hesp_baseline,2021.2.3,MacIntel,60.16847172
,,,,,,,,,,,,,,,,,dábegyben,dábegyban,right,0.167,0,19,19,6,1,7,dábegy,dábegy,ban,e,Ez itt egy dábegy.,Ott vagyunk a...,dábegyben,dábegyban,dzsungel,NA,NA,nincsen,1990,nő,nem,2022-03-20_11h59.00.161,hesp_baseline,2021.2.3,MacIntel,60.16847172
,,,,,,,,,,,,,,,,,vanylok,vanylom,right,0.152,0,20,20,61,1,8,vanylik,vanylasz,NA,NA,Te bizony sokat vanylasz.,Én is sokat...,vanylok,vanylom,lakik,-lik,1,nincsen,1990,nő,nem,2022-03-20_11h59.00.161,hesp_baseline,2021.2.3,MacIntel,60.16847172
,,,,,,,,,,,,,,,,,nyülököznek,nyülöklenek,right,0.189,0,21,21,108,1,1,nyülöklik / nyülöközik,"nyülöklik, nyülöközni",nek,NA,"János imád nyülöközni, ezért sokat nyülöklik.",Ők ritkán...,nyülöklenek,nyülököznek,cselekszik,-lik,2,nincsen,1990,nő,nem,2022-03-20_11h59.00.161,hesp_baseline,2021.2.3,MacIntel,60.16847172
,,,,,,,,,,,,,,,,,dirányoznak,diránylanak,right,0.203,0,22,22,122,1,15,diránylik / dirányozik,"diránylik, dirányozni",nek,NA,"János imád dirányozni, ezért sokat diránylik.",Ők ritkán...,diránylanak,dirányoznak,cselekszik,-lik,2,nincsen,1990,nő,nem,2022-03-20_11h59.00.161,hesp_baseline,2021.2.3,MacIntel,60.16847172
,,,,,,,,,,,,,,,,,dunkészben,dunkészban,right,0.131,0,23,23,24,1,25,dunkész,dunkész,ban,é,Ez itt egy dunkész.,Ott vagyunk a...,dunkészben,dunkészban,dzsungel,NA,NA,nincsen,1990,nő,nem,2022-03-20_11h59.00.161,hesp_baseline,2021.2.3,MacIntel,60.16847172
,,,,,,,,,,,,,,,,,kűdlenek,kűdöznek,right,0.181,0,24,24,142,1,35,kűdlik / kűdözik,"kűdlik, kűdözni",nek,NA,"János imád kűdözni, ezért sokat kűdlik.",Ők ritkán...,kűdlenek,kűdöznek,cselekszik,-lik,1,nincsen,1990,nő,nem,2022-03-20_11h59.00.161,hesp_baseline,2021.2.3,MacIntel,60.16847172
,,,,,,,,,,,,,,,,,püzlötök,püzöztök,right,0.088,0,25,25,152,1,45,püzlik / püzözik,"püzlik, püzözni",tek,NA,"János imád püzözni, ezért sokat püzlik.",Ti ritkán...,püzlötök,püzöztök,cselekszik,-lik,1,nincsen,1990,nő,nem,2022-03-20_11h59.00.161,hesp_baseline,2021.2.3,MacIntel,60.16847172
,,,,,,,,,,,,,,,,,fökszenek,föködnek,right,0.13,0,26,26,131,1,24,fökszik / föködik,"fökszik, föködni",nek,NA,"János imád föködni, ezért sokat fökszik.",Ők ritkán...,fökszenek,föködnek,cselekszik,-szik,1,nincsen,1990,nő,nem,2022-03-20_11h59.00.161,hesp_baseline,2021.2.3,MacIntel,60.16847172
,,,,,,,,,,,,,,,,,hiragoznak,hiragzanak,right,0.148,0,27,27,119,1,12,hiragzik / hiragozik,"hiragzik, hiragozni",nek,NA,"János imád hiragozni, ezért sokat hiragzik.",Ők ritkán...,hiragzanak,hiragoznak,cselekszik,-zik,2,nincsen,1990,nő,nem,2022-03-20_11h59.00.161,hesp_baseline,2021.2.3,MacIntel,60.16847172
,,,,,,,,,,,,,,,,,feténylek,feténylem,right,0.138,0,28,28,85,1,32,feténylik,feténylesz,NA,NA,Te bizony sokat feténylesz.,Én is sokat...,feténylek,feténylem,lakik,-lik,2,nincsen,1990,nő,nem,2022-03-20_11h59.00.161,hesp_baseline,2021.2.3,MacIntel,60.16847172
,,,,,,,,,,,,,,,,,flagárzom,flagárzok,right,0.167,0,29,29,64,1,11,flagárzik,flagárzol,NA,NA,Te bizony sokat flagárzol.,Én is sokat...,flagárzok,flagárzom,lakik,-zik,2,nincsen,1990,nő,nem,2022-03-20_11h59.00.161,hesp_baseline,2021.2.3,MacIntel,60.16847172
,,,,,,,,,,,,,,,,,küslünk,küsözünk,right,0.218,0,30,30,141,1,34,küslik / küsözik,"küslik, küsözni",ünk,NA,"János imád küsözni, ezért sokat küslik.",Mi ritkán...,küslünk,küsözünk,cselekszik,-lik,1,nincsen,1990,nő,nem,2022-03-20_11h59.00.161,hesp_baseline,2021.2.3,MacIntel,60.16847172
,,,,,,,,,,,,,,,,,pekszünk,pekedünk,right,0.164,0,31,31,161,1,54,pekszik / pekedik,"pekszik, pekedni",ünk,NA,"János imád pekedni, ezért sokat pekszik.",Mi ritkán...,pekszünk,pekedünk,cselekszik,-szik,1,nincsen,1990,nő,nem,2022-03-20_11h59.00.161,hesp_baseline,2021.2.3,MacIntel,60.16847172
,,,,,,,,,,,,,,,,,tragzok,tragzom,right,0.154,0,32,32,90,1,37,tragzik,tragzol,NA,NA,Te bizony sokat tragzol.,Én is sokat...,tragzok,tragzom,lakik,-zik,1,nincsen,1990,nő,nem,2022-03-20_11h59.00.161,hesp_baseline,2021.2.3,MacIntel,60.16847172
,,,,,,,,,,,,,,,,,mádépnál,mádépnél,right,0.152,0,33,33,1,1,2,mádép,mádép,nál,é,Ez itt egy mádép.,Nincs is jobb egy jó...,mádépnél,mádépnál,dzsungel,NA,NA,nincsen,1990,nő,nem,2022-03-20_11h59.00.161,hesp_baseline,2021.2.3,MacIntel,60.16847172
,,,,,,,,,,,,,,,,,incéjnek,incéjnak,right,0.153,0,34,34,30,1,31,incéj,incéj,nak,é,Ez itt egy incéj.,Elneveztem a kutyámat...,incéjnek,incéjnak,dzsungel,NA,NA,nincsen,1990,nő,nem,2022-03-20_11h59.00.161,hesp_baseline,2021.2.3,MacIntel,60.16847172
,,,,,,,,,,,,,,,,,gyibeslek,gyibeslem,right,0.14,0,35,35,98,1,45,gyibeslik,gyibeslesz,NA,NA,Te bizony sokat gyibeslesz.,Én is sokat...,gyibeslek,gyibeslem,lakik,-lik,2,nincsen,1990,nő,nem,2022-03-20_11h59.00.161,hesp_baseline,2021.2.3,MacIntel,60.16847172
,,,,,,,,,,,,,,,,,géregletek,géregeztek,right,0.135,0,36,36,124,1,17,géreglik / géregezik,"géreglik, géregezni",tek,NA,"János imád géregezni, ezért sokat géreglik.",Ti ritkán...,géregletek,géregeztek,cselekszik,-lik,2,nincsen,1990,nő,nem,2022-03-20_11h59.00.161,hesp_baseline,2021.2.3,MacIntel,60.16847172
,,,,,,,,,,,,,,,,,píjlom,píjlok,right,0.135,0,37,37,75,1,22,píjlik,píjlasz,NA,NA,Te bizony sokat píjlasz.,Én is sokat...,píjlok,píjlom,lakik,-lik,1,nincsen,1990,nő,nem,2022-03-20_11h59.00.161,hesp_baseline,2021.2.3,MacIntel,60.16847172
,,,,,,,,,,,,,,,,,monvegnél,monvegnál,right,0.131,0,38,38,26,1,27,monveg,monveg,nál,e,Ez itt egy monveg.,Nincs is jobb egy jó...,monvegnél,monvegnál,dzsungel,NA,NA,nincsen,1990,nő,nem,2022-03-20_11h59.00.161,hesp_baseline,2021.2.3,MacIntel,60.16847172
,,,,,,,,,,,,,,,,,pivédban,pivédben,right,0.135,0,39,39,52,1,53,pivéd,pivéd,ban,é,Ez itt egy pivéd.,Ott vagyunk a...,pivédben,pivédban,dzsungel,NA,NA,nincsen,1990,nő,nem,2022-03-20_11h59.00.161,hesp_baseline,2021.2.3,MacIntel,60.16847172
,,,,,,,,,,,,,,,,,tivencben,tivencban,right,0.189,0,40,40,53,1,54,tivenc,tivenc,ban,e,Ez itt egy tivenc.,Ott vagyunk a...,tivencben,tivencban,dzsungel,NA,NA,nincsen,1990,nő,nem,2022-03-20_11h59.00.161,hesp_baseline,2021.2.3,MacIntel,60.16847172
,,,,,,,,,,,,,,,,,jutélynál,jutélynél,right,0.14,0,41,41,11,1,12,jutély,jutély,nál,é,Ez itt egy jutély.,Nincs is jobb egy jó...,jutélynél,jutélynál,dzsungel,NA,NA,nincsen,1990,nő,nem,2022-03-20_11h59.00.161,hesp_baseline,2021.2.3,MacIntel,60.16847172
,,,,,,,,,,,,,,,,,dutecnál,dutecnél,right,0.172,0,42,42,22,1,23,dutec,dutec,nál,e,Ez itt egy dutec.,Nincs is jobb egy jó...,dutecnél,dutecnál,dzsungel,NA,NA,nincsen,1990,nő,nem,2022-03-20_11h59.00.161,hesp_baseline,2021.2.3,MacIntel,60.16847172
,,,,,,,,,,,,,,,,,spibádzok,spibádzom,right,0.135,0,43,43,65,1,12,spibádzik,spibádzol,NA,NA,Te bizony sokat spibádzol.,Én is sokat...,spibádzok,spibádzom,lakik,-zik,2,nincsen,1990,nő,nem,2022-03-20_11h59.00.161,hesp_baseline,2021.2.3,MacIntel,60.16847172
,,,,,,,,,,,,,,,,,lihénynek,lihénynak,right,0.173,0,44,44,23,1,24,lihény,lihény,nak,é,Ez itt egy lihény.,Elneveztem a kutyámat...,lihénynek,lihénynak,dzsungel,NA,NA,nincsen,1990,nő,nem,2022-03-20_11h59.00.161,hesp_baseline,2021.2.3,MacIntel,60.16847172
,,,,,,,,,,,,,,,,,spéslek,spéslem,right,0.164,0,45,45,93,1,40,spéslik,spéslesz,NA,NA,Te bizony sokat spéslesz.,Én is sokat...,spéslek,spéslem,lakik,-lik,1,nincsen,1990,nő,nem,2022-03-20_11h59.00.161,hesp_baseline,2021.2.3,MacIntel,60.16847172
,,,,,,,,,,,,,,,,,filágzom,filágzok,right,0.152,0,46,46,102,1,49,filágzik,filágzol,NA,NA,Te bizony sokat filágzol.,Én is sokat...,filágzok,filágzom,lakik,-zik,2,nincsen,1990,nő,nem,2022-03-20_11h59.00.161,hesp_baseline,2021.2.3,MacIntel,60.16847172
,,,,,,,,,,,,,,,,,nyivágozunk,nyivágzunk,right,0.13,0,47,47,113,1,6,nyivágzik / nyivágozik,"nyivágzik, nyivágozni",ünk,NA,"János imád nyivágozni, ezért sokat nyivágzik.",Mi ritkán...,nyivágzunk,nyivágozunk,cselekszik,-zik,2,nincsen,1990,nő,nem,2022-03-20_11h59.00.161,hesp_baseline,2021.2.3,MacIntel,60.16847172
,,,,,,,,,,,,,,,,,gonszéknál,gonszéknél,right,0.131,0,48,48,38,1,39,gonszék,gonszék,nál,é,Ez itt egy gonszék.,Nincs is jobb egy jó...,gonszéknél,gonszéknál,dzsungel,NA,NA,nincsen,1990,nő,nem,2022-03-20_11h59.00.161,hesp_baseline,2021.2.3,MacIntel,60.16847172
,,,,,,,,,,,,,,,,,frágapszok,frágapszom,right,0.18,0,49,49,60,1,7,frágapszik,frágapszol,NA,NA,Te bizony sokat frágapszol.,Én is sokat...,frágapszok,frágapszom,lakik,-szik,2,nincsen,1990,nő,nem,2022-03-20_11h59.00.161,hesp_baseline,2021.2.3,MacIntel,60.16847172
,,,,,,,,,,,,,,,,,bügöznek,bügzenek,right,0.168,0,50,50,118,1,11,bügzik / bügözik,"bügzik, bügözni",nek,NA,"János imád bügözni, ezért sokat bügzik.",Ők ritkán...,bügzenek,bügöznek,cselekszik,-zik,1,nincsen,1990,nő,nem,2022-03-20_11h59.00.161,hesp_baseline,2021.2.3,MacIntel,60.16847172
,,,,,,,,,,,,,,,,,kalhésznak,kalhésznek,right,0.08,0,51,51,46,1,47,kalhész,kalhész,nak,é,Ez itt egy kalhész.,Elneveztem a kutyámat...,kalhésznek,kalhésznak,dzsungel,NA,NA,nincsen,1990,nő,nem,2022-03-20_11h59.00.161,hesp_baseline,2021.2.3,MacIntel,60.16847172
,,,,,,,,,,,,,,,,,lörűdzöm,lörűdzök,right,0.105,0,52,52,77,1,24,lörűdzik,lörűdzöl,NA,NA,Te bizony sokat lörűdzöl.,Én is sokat...,lörűdzök,lörűdzöm,lakik,-zik,2,nincsen,1990,nő,nem,2022-03-20_11h59.00.161,hesp_baseline,2021.2.3,MacIntel,60.16847172
,,,,,,,,,,,,,,,,,bejezünk,bejzünk,right,0.154,0,53,53,148,1,41,bejzik / bejezik,"bejzik, bejezni",ünk,NA,"János imád bejezni, ezért sokat bejzik.",Mi ritkán...,bejzünk,bejezünk,cselekszik,-zik,1,nincsen,1990,nő,nem,2022-03-20_11h59.00.161,hesp_baseline,2021.2.3,MacIntel,60.16847172
,,,,,,,,,,,,,,,,,salárzok,salárzom,right,0.169,0,54,54,103,1,50,salárzik,salárzol,NA,NA,Te bizony sokat salárzol.,Én is sokat...,salárzok,salárzom,lakik,-zik,2,nincsen,1990,nő,nem,2022-03-20_11h59.00.161,hesp_baseline,2021.2.3,MacIntel,60.16847172
,,,,,,,,,,,,,,,,,pliboztok,plibzotok,right,0.151,0,55,55,140,1,33,plibzik / plibozik,"plibzik, plibozni",tek,NA,"János imád plibozni, ezért sokat plibzik.",Ti ritkán...,plibzotok,pliboztok,cselekszik,-zik,1,nincsen,1990,nő,nem,2022-03-20_11h59.00.161,hesp_baseline,2021.2.3,MacIntel,60.16847172
,,,,,,,,,,,,,,,,,flivegzenek,flivegeznek,right,0.18,0,56,56,138,1,31,flivegzik / flivegezik,"flivegzik, flivegezni",nek,NA,"János imád flivegezni, ezért sokat flivegzik.",Ők ritkán...,flivegzenek,flivegeznek,cselekszik,-zik,2,nincsen,1990,nő,nem,2022-03-20_11h59.00.161,hesp_baseline,2021.2.3,MacIntel,60.16847172
,,,,,,,,,,,,,,,,,frinylunk,frinyozunk,right,0.12,0,57,57,133,1,26,frinylik / frinyozik,"frinylik, frinyozni",ünk,NA,"János imád frinyozni, ezért sokat frinylik.",Mi ritkán...,frinylunk,frinyozunk,cselekszik,-lik,1,nincsen,1990,nő,nem,2022-03-20_11h59.00.161,hesp_baseline,2021.2.3,MacIntel,60.16847172
,,,,,,,,,,,,,,,,,gatáglunk,gatágozunk,right,0.106,0,58,58,137,1,30,gatáglik / gatágozik,"gatáglik, gatágozni",ünk,NA,"János imád gatágozni, ezért sokat gatáglik.",Mi ritkán...,gatáglunk,gatágozunk,cselekszik,-lik,2,nincsen,1990,nő,nem,2022-03-20_11h59.00.161,hesp_baseline,2021.2.3,MacIntel,60.16847172
,,,,,,,,,,,,,,,,,spicetnek,spicetnak,right,0.174,0,59,59,35,1,36,spicet,spicet,nak,e,Ez itt egy spicet.,Elneveztem a kutyámat...,spicetnek,spicetnak,dzsungel,NA,NA,nincsen,1990,nő,nem,2022-03-20_11h59.00.161,hesp_baseline,2021.2.3,MacIntel,60.16847172
,,,,,,,,,,,,,,,,,buhényben,buhényban,right,0.14,0,60,60,43,1,44,buhény,buhény,ban,é,Ez itt egy buhény.,Ott vagyunk a...,buhényben,buhényban,dzsungel,NA,NA,nincsen,1990,nő,nem,2022-03-20_11h59.00.161,hesp_baseline,2021.2.3,MacIntel,60.16847172
,,,,,,,,,,,,,,,,,sztrajoznak,sztrajlanak,right,0.197,0,61,61,144,1,37,sztrajlik / sztrajozik,"sztrajlik, sztrajozni",nek,NA,"János imád sztrajozni, ezért sokat sztrajlik.",Ők ritkán...,sztrajlanak,sztrajoznak,cselekszik,-lik,1,nincsen,1990,nő,nem,2022-03-20_11h59.00.161,hesp_baseline,2021.2.3,MacIntel,60.16847172
,,,,,,,,,,,,,,,,,zopélynél,zopélynál,right,0.146,0,62,62,5,1,6,zopély,zopély,nál,é,Ez itt egy zopély.,Nincs is jobb egy jó...,zopélynél,zopélynál,dzsungel,NA,NA,nincsen,1990,nő,nem,2022-03-20_11h59.00.161,hesp_baseline,2021.2.3,MacIntel,60.16847172
,,,,,,,,,,,,,,,,,friheglünk,frihegezünk,right,0.13,0,63,63,132,1,25,friheglik / frihegezik,"friheglik, frihegezni",ünk,NA,"János imád frihegezni, ezért sokat friheglik.",Mi ritkán...,friheglünk,frihegezünk,cselekszik,-lik,2,nincsen,1990,nő,nem,2022-03-20_11h59.00.161,hesp_baseline,2021.2.3,MacIntel,60.16847172
,,,,,,,,,,,,,,,,,bötőrzünk,bötőrözünk,right,0.136,0,64,64,158,1,51,bötőrzik / bötőrözik,"bötőrzik, bötőrözni",ünk,NA,"János imád bötőrözni, ezért sokat bötőrzik.",Mi ritkán...,bötőrzünk,bötőrözünk,cselekszik,-zik,2,nincsen,1990,nő,nem,2022-03-20_11h59.00.161,hesp_baseline,2021.2.3,MacIntel,60.16847172
,,,,,,,,,,,,,,,,,trukodtok,trukszotok,right,0.171,0,65,65,157,1,50,trukszik / trukodik,"trukszik, trukodni",tek,NA,"János imád trukodni, ezért sokat trukszik.",Ti ritkán...,trukszotok,trukodtok,cselekszik,-szik,1,nincsen,1990,nő,nem,2022-03-20_11h59.00.161,hesp_baseline,2021.2.3,MacIntel,60.16847172
,,,,,,,,,,,,,,,,,tarhézban,tarhézben,right,0.14,0,66,66,25,1,26,tarhéz,tarhéz,ban,é,Ez itt egy tarhéz.,Ott vagyunk a...,tarhézben,tarhézban,dzsungel,NA,NA,nincsen,1990,nő,nem,2022-03-20_11h59.00.161,hesp_baseline,2021.2.3,MacIntel,60.16847172
,,,,,,,,,,,,,,,,,marzom,marzok,right,0.169,0,67,67,99,1,46,marzik,marzol,NA,NA,Te bizony sokat marzol.,Én is sokat...,marzok,marzom,lakik,-zik,1,nincsen,1990,nő,nem,2022-03-20_11h59.00.161,hesp_baseline,2021.2.3,MacIntel,60.16847172
,,,,,,,,,,,,,,,,,sprédlek,sprédlem,right,0.137,0,68,68,70,1,17,sprédlik,sprédlesz,NA,NA,Te bizony sokat sprédlesz.,Én is sokat...,sprédlek,sprédlem,lakik,-lik,1,nincsen,1990,nő,nem,2022-03-20_11h59.00.161,hesp_baseline,2021.2.3,MacIntel,60.16847172
,,,,,,,,,,,,,,,,,bralképben,bralképban,right,0.149,0,69,69,12,1,13,bralkép,bralkép,ban,é,Ez itt egy bralkép.,Ott vagyunk a...,bralképben,bralképban,dzsungel,NA,NA,nincsen,1990,nő,nem,2022-03-20_11h59.00.161,hesp_baseline,2021.2.3,MacIntel,60.16847172
,,,,,,,,,,,,,,,,,frirozunk,frirzunk,right,0.164,0,70,70,129,1,22,frirzik / frirozik,"frirzik, frirozni",ünk,NA,"János imád frirozni, ezért sokat frirzik.",Mi ritkán...,frirzunk,frirozunk,cselekszik,-zik,1,nincsen,1990,nő,nem,2022-03-20_11h59.00.161,hesp_baseline,2021.2.3,MacIntel,60.16847172
,,,,,,,,,,,,,,,,,froroznak,frorlanak,right,0.147,0,71,71,143,1,36,frorlik / frorozik,"frorlik, frorozni",nek,NA,"János imád frorozni, ezért sokat frorlik.",Ők ritkán...,frorlanak,froroznak,cselekszik,-lik,1,nincsen,1990,nő,nem,2022-03-20_11h59.00.161,hesp_baseline,2021.2.3,MacIntel,60.16847172
,,,,,,,,,,,,,,,,,sihennál,sihennél,right,0.14,0,72,72,18,1,19,sihen,sihen,nál,e,Ez itt egy sihen.,Nincs is jobb egy jó...,sihennél,sihennál,dzsungel,NA,NA,nincsen,1990,nő,nem,2022-03-20_11h59.00.161,hesp_baseline,2021.2.3,MacIntel,60.16847172
,,,,,,,,,,,,,,,,,jukélnél,jukélnál,right,0.156,0,73,73,42,1,43,jukél,jukél,nál,é,Ez itt egy jukél.,Nincs is jobb egy jó...,jukélnél,jukélnál,dzsungel,NA,NA,nincsen,1990,nő,nem,2022-03-20_11h59.00.161,hesp_baseline,2021.2.3,MacIntel,60.16847172
,,,,,,,,,,,,,,,,,lumézben,lumézban,right,0.121,0,74,74,32,1,33,luméz,luméz,ban,é,Ez itt egy luméz.,Ott vagyunk a...,lumézben,lumézban,dzsungel,NA,NA,nincsen,1990,nő,nem,2022-03-20_11h59.00.161,hesp_baseline,2021.2.3,MacIntel,60.16847172
,,,,,,,,,,,,,,,,,nuhétnál,nuhétnél,right,0.136,0,75,75,29,1,30,nuhét,nuhét,nál,é,Ez itt egy nuhét.,Nincs is jobb egy jó...,nuhétnél,nuhétnál,dzsungel,NA,NA,nincsen,1990,nő,nem,2022-03-20_11h59.00.161,hesp_baseline,2021.2.3,MacIntel,60.16847172
,,,,,,,,,,,,,,,,,zsopédban,zsopédben,right,0.139,0,76,76,50,1,51,zsopéd,zsopéd,ban,é,Ez itt egy zsopéd.,Ott vagyunk a...,zsopédben,zsopédban,dzsungel,NA,NA,nincsen,1990,nő,nem,2022-03-20_11h59.00.161,hesp_baseline,2021.2.3,MacIntel,60.16847172
,,,,,,,,,,,,,,,,,jorzégnek,jorzégnak,right,0.14,0,77,77,45,1,46,jorzég,jorzég,nak,é,Ez itt egy jorzég.,Elneveztem a kutyámat...,jorzégnek,jorzégnak,dzsungel,NA,NA,nincsen,1990,nő,nem,2022-03-20_11h59.00.161,hesp_baseline,2021.2.3,MacIntel,60.16847172
,,,,,,,,,,,,,,,,,bölszök,bölszöm,right,0.148,0,78,78,105,1,52,bölszik,bölszöl,NA,NA,Te bizony sokat bölszöl.,Én is sokat...,bölszök,bölszöm,lakik,-szik,1,nincsen,1990,nő,nem,2022-03-20_11h59.00.161,hesp_baseline,2021.2.3,MacIntel,60.16847172
,,,,,,,,,,,,,,,,,csarténynek,csarténynak,right,0.116,0,79,79,36,1,37,csartény,csartény,nak,é,Ez itt egy csartény.,Elneveztem a kutyámat...,csarténynek,csarténynak,dzsungel,NA,NA,nincsen,1990,nő,nem,2022-03-20_11h59.00.161,hesp_baseline,2021.2.3,MacIntel,60.16847172
,,,,,,,,,,,,,,,,,flözlök,flözlöm,right,0.11,0,80,80,74,1,21,flözlik,flözlesz,NA,NA,Te bizony sokat flözlesz.,Én is sokat...,flözlök,flözlöm,lakik,-lik,1,nincsen,1990,nő,nem,2022-03-20_11h59.00.161,hesp_baseline,2021.2.3,MacIntel,60.16847172
,,,,,,,,,,,,,,,,,brobódzok,brobódzom,right,0.119,0,81,81,96,1,43,brobódzik,brobódzol,NA,NA,Te bizony sokat brobódzol.,Én is sokat...,brobódzok,brobódzom,lakik,-zik,2,nincsen,1990,nő,nem,2022-03-20_11h59.00.161,hesp_baseline,2021.2.3,MacIntel,60.16847172
,,,,,,,,,,,,,,,,,riványlotok,riványoztok,right,0.153,0,82,82,117,1,10,riványlik / riványozik,"riványlik, riványozni",tek,NA,"János imád riványozni, ezért sokat riványlik.",Ti ritkán...,riványlotok,riványoztok,cselekszik,-lik,2,nincsen,1990,nő,nem,2022-03-20_11h59.00.161,hesp_baseline,2021.2.3,MacIntel,60.16847172
,,,,,,,,,,,,,,,,,gábédnál,gábédnél,right,0.136,0,83,83,39,1,40,gábéd,gábéd,nál,é,Ez itt egy gábéd.,Nincs is jobb egy jó...,gábédnél,gábédnál,dzsungel,NA,NA,nincsen,1990,nő,nem,2022-03-20_11h59.00.161,hesp_baseline,2021.2.3,MacIntel,60.16847172
,,,,,,,,,,,,,,,,,pöröztök,pörzötök,right,0.131,0,84,84,153,1,46,pörzik / pörözik,"pörzik, pörözni",tek,NA,"János imád pörözni, ezért sokat pörzik.",Ti ritkán...,pörzötök,pöröztök,cselekszik,-zik,1,nincsen,1990,nő,nem,2022-03-20_11h59.00.161,hesp_baseline,2021.2.3,MacIntel,60.16847172
,,,,,,,,,,,,,,,,,sztremlek,sztremlem,right,0.147,0,85,85,95,1,42,sztremlik,sztremlesz,NA,NA,Te bizony sokat sztremlesz.,Én is sokat...,sztremlek,sztremlem,lakik,-lik,1,nincsen,1990,nő,nem,2022-03-20_11h59.00.161,hesp_baseline,2021.2.3,MacIntel,60.16847172
,,,,,,,,,,,,,,,,,huklom,huklok,right,0.167,0,86,86,78,1,25,huklik,huklasz,NA,NA,Te bizony sokat huklasz.,Én is sokat...,huklok,huklom,lakik,-lik,1,nincsen,1990,nő,nem,2022-03-20_11h59.00.161,hesp_baseline,2021.2.3,MacIntel,60.16847172
,,,,,,,,,,,,,,,,,szibánylom,szibánylok,right,0.131,0,87,87,67,1,14,szibánylik,szibánylasz,NA,NA,Te bizony sokat szibánylasz.,Én is sokat...,szibánylok,szibánylom,lakik,-lik,2,nincsen,1990,nő,nem,2022-03-20_11h59.00.161,hesp_baseline,2021.2.3,MacIntel,60.16847172
,,,,,,,,,,,,,,,,,klaráglok,klaráglom,right,0.151,0,88,88,91,1,38,klaráglik,klaráglasz,NA,NA,Te bizony sokat klaráglasz.,Én is sokat...,klaráglok,klaráglom,lakik,-lik,2,nincsen,1990,nő,nem,2022-03-20_11h59.00.161,hesp_baseline,2021.2.3,MacIntel,60.16847172
,,,,,,,,,,,,,,,,,spélszem,spélszek,right,0.184,0,89,89,68,1,15,spélszik,spélszel,NA,NA,Te bizony sokat spélszel.,Én is sokat...,spélszek,spélszem,lakik,-szik,1,nincsen,1990,nő,nem,2022-03-20_11h59.00.161,hesp_baseline,2021.2.3,MacIntel,60.16847172
,,,,,,,,,,,,,,,,,málapszom,málapszok,right,0.155,0,90,90,66,1,13,málapszik,málapszol,NA,NA,Te bizony sokat málapszol.,Én is sokat...,málapszok,málapszom,lakik,-szik,2,nincsen,1990,nő,nem,2022-03-20_11h59.00.161,hesp_baseline,2021.2.3,MacIntel,60.16847172
,,,,,,,,,,,,,,,,,klihaslotok,klihasoztok,right,0.172,0,91,91,156,1,49,klihaslik / klihasozik,"klihaslik, klihasozni",tek,NA,"János imád klihasozni, ezért sokat klihaslik.",Ti ritkán...,klihaslotok,klihasoztok,cselekszik,-lik,2,nincsen,1990,nő,nem,2022-03-20_11h59.00.161,hesp_baseline,2021.2.3,MacIntel,60.16847172
,,,,,,,,,,,,,,,,,trodélyben,trodélyban,right,0.223,0,92,92,28,1,29,trodély,trodély,ban,é,Ez itt egy trodély.,Ott vagyunk a...,trodélyben,trodélyban,dzsungel,NA,NA,nincsen,1990,nő,nem,2022-03-20_11h59.00.161,hesp_baseline,2021.2.3,MacIntel,60.16847172
,,,,,,,,,,,,,,,,,brülösözünk,brülöslünk,right,0.152,0,93,93,109,1,2,brülöslik / brülösözik,"brülöslik, brülösözni",ünk,NA,"János imád brülösözni, ezért sokat brülöslik.",Mi ritkán...,brülöslünk,brülösözünk,cselekszik,-lik,2,nincsen,1990,nő,nem,2022-03-20_11h59.00.161,hesp_baseline,2021.2.3,MacIntel,60.16847172
,,,,,,,,,,,,,,,,,pisélyban,pisélyben,right,0.196,0,94,94,21,1,22,pisély,pisély,ban,é,Ez itt egy pisély.,Ott vagyunk a...,pisélyben,pisélyban,dzsungel,NA,NA,nincsen,1990,nő,nem,2022-03-20_11h59.00.161,hesp_baseline,2021.2.3,MacIntel,60.16847172
,,,,,,,,,,,,,,,,,vilakszom,vilakszok,right,0.18,0,95,95,97,1,44,vilakszik,vilakszol,NA,NA,Te bizony sokat vilakszol.,Én is sokat...,vilakszok,vilakszom,lakik,-szik,2,nincsen,1990,nő,nem,2022-03-20_11h59.00.161,hesp_baseline,2021.2.3,MacIntel,60.16847172
,,,,,,,,,,,,,,,,,flehénylek,flehénylem,right,0.149,0,96,96,106,1,53,flehénylik,flehénylesz,NA,NA,Te bizony sokat flehénylesz.,Én is sokat...,flehénylek,flehénylem,lakik,-lik,2,nincsen,1990,nő,nem,2022-03-20_11h59.00.161,hesp_baseline,2021.2.3,MacIntel,60.16847172
,,,,,,,,,,,,,,,,,zsalrénnak,zsalrénnek,right,0.13,0,97,97,19,1,20,zsalrén,zsalrén,nak,é,Ez itt egy zsalrén.,Elneveztem a kutyámat...,zsalrénnek,zsalrénnak,dzsungel,NA,NA,nincsen,1990,nő,nem,2022-03-20_11h59.00.161,hesp_baseline,2021.2.3,MacIntel,60.16847172
,,,,,,,,,,,,,,,,,bribaslanak,bribasoznak,right,0.13,0,98,98,121,1,14,bribaslik / bribasozik,"bribaslik, bribasozni",nek,NA,"János imád bribasozni, ezért sokat bribaslik.",Ők ritkán...,bribaslanak,bribasoznak,cselekszik,-lik,2,nincsen,1990,nő,nem,2022-03-20_11h59.00.161,hesp_baseline,2021.2.3,MacIntel,60.16847172
,,,,,,,,,,,,,,,,,gyivádzok,gyivádzom,right,0.149,0,99,99,87,1,34,gyivádzik,gyivádzol,NA,NA,Te bizony sokat gyivádzol.,Én is sokat...,gyivádzok,gyivádzom,lakik,-zik,2,nincsen,1990,nő,nem,2022-03-20_11h59.00.161,hesp_baseline,2021.2.3,MacIntel,60.16847172
,,,,,,,,,,,,,,,,,szibedban,szibedben,right,0.181,0,100,100,47,1,48,szibed,szibed,ban,e,Ez itt egy szibed.,Ott vagyunk a...,szibedben,szibedban,dzsungel,NA,NA,nincsen,1990,nő,nem,2022-03-20_11h59.00.161,hesp_baseline,2021.2.3,MacIntel,60.16847172
,,,,,,,,,,,,,,,,,hilarzom,hilarzok,right,0.149,0,101,101,69,1,16,hilarzik,hilarzol,NA,NA,Te bizony sokat hilarzol.,Én is sokat...,hilarzok,hilarzom,lakik,-zik,2,nincsen,1990,nő,nem,2022-03-20_11h59.00.161,hesp_baseline,2021.2.3,MacIntel,60.16847172
,,,,,,,,,,,,,,,,,hosétnek,hosétnak,right,0.085,0,102,102,8,1,9,hosét,hosét,nak,é,Ez itt egy hosét.,Elneveztem a kutyámat...,hosétnek,hosétnak,dzsungel,NA,NA,nincsen,1990,nő,nem,2022-03-20_11h59.00.161,hesp_baseline,2021.2.3,MacIntel,60.16847172
,,,,,,,,,,,,,,,,,plűbzöm,plűbzök,right,0.12,0,103,103,107,1,54,plűbzik,plűbzöl,NA,NA,Te bizony sokat plűbzöl.,Én is sokat...,plűbzök,plűbzöm,lakik,-zik,1,nincsen,1990,nő,nem,2022-03-20_11h59.00.161,hesp_baseline,2021.2.3,MacIntel,60.16847172
,,,,,,,,,,,,,,,,,kliszernél,kliszernál,right,0.147,0,104,104,31,1,32,kliszer,kliszer,nál,e,Ez itt egy kliszer.,Nincs is jobb egy jó...,kliszernél,kliszernál,dzsungel,NA,NA,nincsen,1990,nő,nem,2022-03-20_11h59.00.161,hesp_baseline,2021.2.3,MacIntel,60.16847172
,,,,,,,,,,,,,,,,,jüslöm,jüslök,right,0.128,0,105,105,56,1,3,jüslik,jüslesz,NA,NA,Te bizony sokat jüslesz.,Én is sokat...,jüslök,jüslöm,lakik,-lik,1,nincsen,1990,nő,nem,2022-03-20_11h59.00.161,hesp_baseline,2021.2.3,MacIntel,60.16847172
,,,,,,,,,,,,,,,,,préleglem,préleglek,right,0.116,0,106,106,104,1,51,préleglik,préleglesz,NA,NA,Te bizony sokat préleglesz.,Én is sokat...,préleglek,préleglem,lakik,-lik,2,nincsen,1990,nő,nem,2022-03-20_11h59.00.161,hesp_baseline,2021.2.3,MacIntel,60.16847172
,,,,,,,,,,,,,,,,,köszöztök,köszlötök,right,0.084,0,107,107,120,1,13,köszlik / köszözik,"köszlik, köszözni",tek,NA,"János imád köszözni, ezért sokat köszlik.",Ti ritkán...,köszlötök,köszöztök,cselekszik,-lik,1,nincsen,1990,nő,nem,2022-03-20_11h59.00.161,hesp_baseline,2021.2.3,MacIntel,60.16847172
,,,,,,,,,,,,,,,,,ibáglok,ibáglom,right,0.097,0,108,108,88,1,35,ibáglik,ibáglasz,NA,NA,Te bizony sokat ibáglasz.,Én is sokat...,ibáglok,ibáglom,lakik,-lik,2,nincsen,1990,nő,nem,2022-03-20_11h59.00.161,hesp_baseline,2021.2.3,MacIntel,60.16847172
,,,,,,,,,,,,,,,,,tágarozunk,tágarzunk,right,0.123,0,109,109,155,1,48,tágarzik / tágarozik,"tágarzik, tágarozni",ünk,NA,"János imád tágarozni, ezért sokat tágarzik.",Mi ritkán...,tágarzunk,tágarozunk,cselekszik,-zik,2,nincsen,1990,nő,nem,2022-03-20_11h59.00.161,hesp_baseline,2021.2.3,MacIntel,60.16847172
,,,,,,,,,,,,,,,,,hurjorzom,hurjorzok,right,0.085,0,110,110,59,1,6,hurjorzik,hurjorzol,NA,NA,Te bizony sokat hurjorzol.,Én is sokat...,hurjorzok,hurjorzom,lakik,-zik,2,nincsen,1990,nő,nem,2022-03-20_11h59.00.161,hesp_baseline,2021.2.3,MacIntel,60.16847172
,,,,,,,,,,,,,,,,,fádensnek,fádensnak,right,0.113,0,111,111,33,1,34,fádens,fádens,nak,e,Ez itt egy fádens.,Elneveztem a kutyámat...,fádensnek,fádensnak,dzsungel,NA,NA,nincsen,1990,nő,nem,2022-03-20_11h59.00.161,hesp_baseline,2021.2.3,MacIntel,60.16847172
,,,,,,,,,,,,,,,,,brözöztök,brözlötök,right,0.131,0,112,112,145,1,38,brözlik / brözözik,"brözlik, brözözni",tek,NA,"János imád brözözni, ezért sokat brözlik.",Ti ritkán...,brözlötök,brözöztök,cselekszik,-lik,1,nincsen,1990,nő,nem,2022-03-20_11h59.00.161,hesp_baseline,2021.2.3,MacIntel,60.16847172
,,,,,,,,,,,,,,,,,fraklunk,frakozunk,right,0.102,0,113,113,159,1,52,fraklik / frakozik,"fraklik, frakozni",ünk,NA,"János imád frakozni, ezért sokat fraklik.",Mi ritkán...,fraklunk,frakozunk,cselekszik,-lik,1,nincsen,1990,nő,nem,2022-03-20_11h59.00.161,hesp_baseline,2021.2.3,MacIntel,60.16847172
,,,,,,,,,,,,,,,,,spűmlöm,spűmlök,right,0.129,0,114,114,86,1,33,spűmlik,spűmlesz,NA,NA,Te bizony sokat spűmlesz.,Én is sokat...,spűmlök,spűmlöm,lakik,-lik,1,nincsen,1990,nő,nem,2022-03-20_11h59.00.161,hesp_baseline,2021.2.3,MacIntel,60.16847172
,,,,,,,,,,,,,,,,,rokszom,rokszok,right,0.088,0,115,115,101,1,48,rokszik,rokszol,NA,NA,Te bizony sokat rokszol.,Én is sokat...,rokszok,rokszom,lakik,-szik,1,nincsen,1990,nő,nem,2022-03-20_11h59.00.161,hesp_baseline,2021.2.3,MacIntel,60.16847172
,,,,,,,,,,,,,,,,,prögöztök,prögzötök,right,0.104,0,116,116,151,1,44,prögzik / prögözik,"prögzik, prögözni",tek,NA,"János imád prögözni, ezért sokat prögzik.",Ti ritkán...,prögzötök,prögöztök,cselekszik,-zik,1,nincsen,1990,nő,nem,2022-03-20_11h59.00.161,hesp_baseline,2021.2.3,MacIntel,60.16847172
,,,,,,,,,,,,,,,,,vülődzök,vülődzöm,right,0.185,0,117,117,81,1,28,vülődzik,vülődzöl,NA,NA,Te bizony sokat vülődzöl.,Én is sokat...,vülődzök,vülődzöm,lakik,-zik,2,nincsen,1990,nő,nem,2022-03-20_11h59.00.161,hesp_baseline,2021.2.3,MacIntel,60.16847172
,,,,,,,,,,,,,,,,,galároznak,galárzanak,right,0.151,0,118,118,154,1,47,galárzik / galározik,"galárzik, galározni",nek,NA,"János imád galározni, ezért sokat galárzik.",Ők ritkán...,galárzanak,galároznak,cselekszik,-zik,2,nincsen,1990,nő,nem,2022-03-20_11h59.00.161,hesp_baseline,2021.2.3,MacIntel,60.16847172
,,,,,,,,,,,,,,,,,naremben,naremban,right,0.131,0,119,119,2,1,3,narem,narem,ban,e,Ez itt egy narem.,Ott vagyunk a...,naremben,naremban,dzsungel,NA,NA,nincsen,1990,nő,nem,2022-03-20_11h59.00.161,hesp_baseline,2021.2.3,MacIntel,60.16847172
,,,,,,,,,,,,,,,,,spihemlem,spihemlek,right,0.169,0,120,120,94,1,41,spihemlik,spihemlesz,NA,NA,Te bizony sokat spihemlesz.,Én is sokat...,spihemlek,spihemlem,lakik,-lik,2,nincsen,1990,nő,nem,2022-03-20_11h59.00.161,hesp_baseline,2021.2.3,MacIntel,60.16847172
,,,,,,,,,,,,,,,,,brüszlötök,brüszöztök,right,0.107,0,121,121,130,1,23,brüszlik / brüszözik,"brüszlik, brüszözni",tek,NA,"János imád brüszözni, ezért sokat brüszlik.",Ti ritkán...,brüszlötök,brüszöztök,cselekszik,-lik,1,nincsen,1990,nő,nem,2022-03-20_11h59.00.161,hesp_baseline,2021.2.3,MacIntel,60.16847172
,,,,,,,,,,,,,,,,,hijegynél,hijegynál,right,0.132,0,122,122,4,1,5,hijegy,hijegy,nál,e,Ez itt egy hijegy.,Nincs is jobb egy jó...,hijegynél,hijegynál,dzsungel,NA,NA,nincsen,1990,nő,nem,2022-03-20_11h59.00.161,hesp_baseline,2021.2.3,MacIntel,60.16847172
,,,,,,,,,,,,,,,,,privékednek,privékszenek,right,0.153,0,123,123,149,1,42,privékszik / privékedik,"privékszik, privékedni",nek,NA,"János imád privékedni, ezért sokat privékszik.",Ők ritkán...,privékszenek,privékednek,cselekszik,-szik,2,nincsen,1990,nő,nem,2022-03-20_11h59.00.161,hesp_baseline,2021.2.3,MacIntel,60.16847172
,,,,,,,,,,,,,,,,,sprimozunk,sprimlunk,right,0.13,0,124,124,127,1,20,sprimlik / sprimozik,"sprimlik, sprimozni",ünk,NA,"János imád sprimozni, ezért sokat sprimlik.",Mi ritkán...,sprimlunk,sprimozunk,cselekszik,-lik,1,nincsen,1990,nő,nem,2022-03-20_11h59.00.161,hesp_baseline,2021.2.3,MacIntel,60.16847172
,,,,,,,,,,,,,,,,,hivépban,hivépben,right,0.149,0,125,125,44,1,45,hivép,hivép,ban,é,Ez itt egy hivép.,Ott vagyunk a...,hivépben,hivépban,dzsungel,NA,NA,nincsen,1990,nő,nem,2022-03-20_11h59.00.161,hesp_baseline,2021.2.3,MacIntel,60.16847172
,,,,,,,,,,,,,,,,,matézben,matézban,right,0.04,0,126,126,37,1,38,matéz,matéz,ban,é,Ez itt egy matéz.,Ott vagyunk a...,matézben,matézban,dzsungel,NA,NA,nincsen,1990,nő,nem,2022-03-20_11h59.00.161,hesp_baseline,2021.2.3,MacIntel,60.16847172
,,,,,,,,,,,,,,,,,flérlem,flérlek,right,0.153,0,127,127,89,1,36,flérlik,flérlesz,NA,NA,Te bizony sokat flérlesz.,Én is sokat...,flérlek,flérlem,lakik,-lik,1,nincsen,1990,nő,nem,2022-03-20_11h59.00.161,hesp_baseline,2021.2.3,MacIntel,60.16847172
,,,,,,,,,,,,,,,,,brivaklotok,brivakoztok,right,0.131,0,128,128,134,1,27,brivaklik / brivakozik,"brivaklik, brivakozni",tek,NA,"János imád brivakozni, ezért sokat brivaklik.",Ti ritkán...,brivaklotok,brivakoztok,cselekszik,-lik,2,nincsen,1990,nő,nem,2022-03-20_11h59.00.161,hesp_baseline,2021.2.3,MacIntel,60.16847172
,,,,,,,,,,,,,,,,,spivejeznek,spivejlenek,right,0.183,0,129,129,125,1,18,spivejlik / spivejezik,"spivejlik, spivejezni",nek,NA,"János imád spivejezni, ezért sokat spivejlik.",Ők ritkán...,spivejlenek,spivejeznek,cselekszik,-lik,2,nincsen,1990,nő,nem,2022-03-20_11h59.00.161,hesp_baseline,2021.2.3,MacIntel,60.16847172
,,,,,,,,,,,,,,,,,zsúdelnek,zsúdelnak,right,0.098,0,130,130,14,1,15,zsúdel,zsúdel,nak,e,Ez itt egy zsúdel.,Elneveztem a kutyámat...,zsúdelnek,zsúdelnak,dzsungel,NA,NA,nincsen,1990,nő,nem,2022-03-20_11h59.00.161,hesp_baseline,2021.2.3,MacIntel,60.16847172
,,,,,,,,,,,,,,,,,vihapszunk,vihapodunk,right,0.114,0,131,131,112,1,5,vihapszik / vihapodik,"vihapszik, vihapodni",ünk,NA,"János imád vihapodni, ezért sokat vihapszik.",Mi ritkán...,vihapszunk,vihapodunk,cselekszik,-szik,2,nincsen,1990,nő,nem,2022-03-20_11h59.00.161,hesp_baseline,2021.2.3,MacIntel,60.16847172
,,,,,,,,,,,,,,,,,prugorzotok,prugoroztok,right,0.11,0,132,132,116,1,9,prugorzik / prugorozik,"prugorzik, prugorozni",tek,NA,"János imád prugorozni, ezért sokat prugorzik.",Ti ritkán...,prugorzotok,prugoroztok,cselekszik,-zik,2,nincsen,1990,nő,nem,2022-03-20_11h59.00.161,hesp_baseline,2021.2.3,MacIntel,60.16847172
,,,,,,,,,,,,,,,,,fágyépnál,fágyépnél,right,0.177,0,133,133,10,1,11,fágyép,fágyép,nál,é,Ez itt egy fágyép.,Nincs is jobb egy jó...,fágyépnél,fágyépnál,dzsungel,NA,NA,nincsen,1990,nő,nem,2022-03-20_11h59.00.161,hesp_baseline,2021.2.3,MacIntel,60.16847172
,,,,,,,,,,,,,,,,,spatszok,spatszom,right,0.098,0,134,134,73,1,20,spatszik,spatszol,NA,NA,Te bizony sokat spatszol.,Én is sokat...,spatszok,spatszom,lakik,-szik,1,nincsen,1990,nő,nem,2022-03-20_11h59.00.161,hesp_baseline,2021.2.3,MacIntel,60.16847172
,,,,,,,,,,,,,,,,,csibagzotok,csibagoztok,right,0.18,0,135,135,114,1,7,csibagzik / csibagozik,"csibagzik, csibagozni",tek,NA,"János imád csibagozni, ezért sokat csibagzik.",Ti ritkán...,csibagzotok,csibagoztok,cselekszik,-zik,2,nincsen,1990,nő,nem,2022-03-20_11h59.00.161,hesp_baseline,2021.2.3,MacIntel,60.16847172
,,,,,,,,,,,,,,,,,sprudozunk,sprudlunk,right,0.14,0,136,136,136,1,29,sprudlik / sprudozik,"sprudlik, sprudozni",ünk,NA,"János imád sprudozni, ezért sokat sprudlik.",Mi ritkán...,sprudlunk,sprudozunk,cselekszik,-lik,1,nincsen,1990,nő,nem,2022-03-20_11h59.00.161,hesp_baseline,2021.2.3,MacIntel,60.16847172
,,,,,,,,,,,,,,,,,drügzök,drügzöm,right,0.131,0,137,137,72,1,19,drügzik,drügzöl,NA,NA,Te bizony sokat drügzöl.,Én is sokat...,drügzök,drügzöm,lakik,-zik,1,nincsen,1990,nő,nem,2022-03-20_11h59.00.161,hesp_baseline,2021.2.3,MacIntel,60.16847172
,,,,,,,,,,,,,,,,,jurozunk,jurlunk,right,0.102,0,138,138,111,1,4,jurlik / jurozik,"jurlik, jurozni",ünk,NA,"János imád jurozni, ezért sokat jurlik.",Mi ritkán...,jurlunk,jurozunk,cselekszik,-lik,1,nincsen,1990,nő,nem,2022-03-20_11h59.00.161,hesp_baseline,2021.2.3,MacIntel,60.16847172
,,,,,,,,,,,,,,,,,frélegezünk,frélegzünk,right,0.116,0,139,139,147,1,40,frélegzik / frélegezik,"frélegzik, frélegezni",ünk,NA,"János imád frélegezni, ezért sokat frélegzik.",Mi ritkán...,frélegzünk,frélegezünk,cselekszik,-zik,2,nincsen,1990,nő,nem,2022-03-20_11h59.00.161,hesp_baseline,2021.2.3,MacIntel,60.16847172
,,,,,,,,,,,,,,,,,klörlöm,klörlök,right,0.137,0,140,140,80,1,27,klörlik,klörlesz,NA,NA,Te bizony sokat klörlesz.,Én is sokat...,klörlök,klörlöm,lakik,-lik,1,nincsen,1990,nő,nem,2022-03-20_11h59.00.161,hesp_baseline,2021.2.3,MacIntel,60.16847172
,,,,,,,,,,,,,,,,,darhénban,darhénben,right,0.136,0,141,141,27,1,28,darhén,darhén,ban,é,Ez itt egy darhén.,Ott vagyunk a...,darhénben,darhénban,dzsungel,NA,NA,nincsen,1990,nő,nem,2022-03-20_11h59.00.161,hesp_baseline,2021.2.3,MacIntel,60.16847172
,,,,,,,,,,,,,,,,,dujzanak,dujoznak,right,0.114,0,142,142,128,1,21,dujzik / dujozik,"dujzik, dujozni",nek,NA,"János imád dujozni, ezért sokat dujzik.",Ők ritkán...,dujzanak,dujoznak,cselekszik,-zik,1,nincsen,1990,nő,nem,2022-03-20_11h59.00.161,hesp_baseline,2021.2.3,MacIntel,60.16847172
,,,,,,,,,,,,,,,,,spábétban,spábétben,right,0.102,0,143,143,51,1,52,spábét,spábét,ban,é,Ez itt egy spábét.,Ott vagyunk a...,spábétben,spábétban,dzsungel,NA,NA,nincsen,1990,nő,nem,2022-03-20_11h59.00.161,hesp_baseline,2021.2.3,MacIntel,60.16847172
,,,,,,,,,,,,,,,,,prélemlenek,prélemeznek,right,0.164,0,144,144,110,1,3,prélemlik / prélemezik,"prélemlik, prélemezni",nek,NA,"János imád prélemezni, ezért sokat prélemlik.",Ők ritkán...,prélemlenek,prélemeznek,cselekszik,-lik,2,nincsen,1990,nő,nem,2022-03-20_11h59.00.161,hesp_baseline,2021.2.3,MacIntel,60.16847172
,,,,,,,,,,,,,,,,,priszkencnak,priszkencnek,right,0.18,0,145,145,20,1,21,priszkenc,priszkenc,nak,e,Ez itt egy priszkenc.,Elneveztem a kutyámat...,priszkencnek,priszkencnak,dzsungel,NA,NA,nincsen,1990,nő,nem,2022-03-20_11h59.00.161,hesp_baseline,2021.2.3,MacIntel,60.16847172
,,,,,,,,,,,,,,,,,herégszem,herégszek,right,0.151,0,146,146,54,1,1,herégszik,herégszel,NA,NA,Te bizony sokat herégszel.,Én is sokat...,herégszek,herégszem,lakik,-szik,2,nincsen,1990,nő,nem,2022-03-20_11h59.00.161,hesp_baseline,2021.2.3,MacIntel,60.16847172
,,,,,,,,,,,,,,,,,kaszépnek,kaszépnak,right,0.131,0,147,147,40,1,41,kaszép,kaszép,nak,é,Ez itt egy kaszép.,Elneveztem a kutyámat...,kaszépnek,kaszépnak,dzsungel,NA,NA,nincsen,1990,nő,nem,2022-03-20_11h59.00.161,hesp_baseline,2021.2.3,MacIntel,60.16847172
,,,,,,,,,,,,,,,,,lorzensnél,lorzensnál,right,0.17,0,148,148,34,1,35,lorzens,lorzens,nál,e,Ez itt egy lorzens.,Nincs is jobb egy jó...,lorzensnél,lorzensnál,dzsungel,NA,NA,nincsen,1990,nő,nem,2022-03-20_11h59.00.161,hesp_baseline,2021.2.3,MacIntel,60.16847172
,,,,,,,,,,,,,,,,,breseznek,breslenek,right,0.168,0,149,149,115,1,8,breslik / bresezik,"breslik, bresezni",nek,NA,"János imád bresezni, ezért sokat breslik.",Ők ritkán...,breslenek,breseznek,cselekszik,-lik,1,nincsen,1990,nő,nem,2022-03-20_11h59.00.161,hesp_baseline,2021.2.3,MacIntel,60.16847172
,,,,,,,,,,,,,,,,,pugoslom,pugoslok,right,0.182,0,150,150,84,1,31,pugoslik,pugoslasz,NA,NA,Te bizony sokat pugoslasz.,Én is sokat...,pugoslok,pugoslom,lakik,-lik,2,nincsen,1990,nő,nem,2022-03-20_11h59.00.161,hesp_baseline,2021.2.3,MacIntel,60.16847172
,,,,,,,,,,,,,,,,,brarlok,brarlom,right,0.18,0,151,151,71,1,18,brarlik,brarlasz,NA,NA,Te bizony sokat brarlasz.,Én is sokat...,brarlok,brarlom,lakik,-lik,1,nincsen,1990,nő,nem,2022-03-20_11h59.00.161,hesp_baseline,2021.2.3,MacIntel,60.16847172
,,,,,,,,,,,,,,,,,trihagzom,trihagzok,right,0.135,0,152,152,83,1,30,trihagzik,trihagzol,NA,NA,Te bizony sokat trihagzol.,Én is sokat...,trihagzok,trihagzom,lakik,-zik,2,nincsen,1990,nő,nem,2022-03-20_11h59.00.161,hesp_baseline,2021.2.3,MacIntel,60.16847172
,,,,,,,,,,,,,,,,,vodépnek,vodépnak,right,0.206,0,153,153,41,1,42,vodép,vodép,nak,é,Ez itt egy vodép.,Elneveztem a kutyámat...,vodépnek,vodépnak,dzsungel,NA,NA,nincsen,1990,nő,nem,2022-03-20_11h59.00.161,hesp_baseline,2021.2.3,MacIntel,60.16847172
,,,,,,,,,,,,,,,,,csublényben,csublényban,right,0.133,0,154,154,16,1,17,csublény,csublény,ban,é,Ez itt egy csublény.,Ott vagyunk a...,csublényben,csublényban,dzsungel,NA,NA,nincsen,1990,nő,nem,2022-03-20_11h59.00.161,hesp_baseline,2021.2.3,MacIntel,60.16847172
,,,,,,,,,,,,,,,,,livaklok,livaklom,right,0.115,0,155,155,82,1,29,livaklik,livaklasz,NA,NA,Te bizony sokat livaklasz.,Én is sokat...,livaklok,livaklom,lakik,-lik,2,nincsen,1990,nő,nem,2022-03-20_11h59.00.161,hesp_baseline,2021.2.3,MacIntel,60.16847172
,,,,,,,,,,,,,,,,,spibaklok,spibaklom,right,0.132,0,156,156,55,1,2,spibaklik,spibaklasz,NA,NA,Te bizony sokat spibaklasz.,Én is sokat...,spibaklok,spibaklom,lakik,-lik,2,nincsen,1990,nő,nem,2022-03-20_11h59.00.161,hesp_baseline,2021.2.3,MacIntel,60.16847172
,,,,,,,,,,,,,,,,,bregzünk,bregezünk,right,0.132,0,157,157,139,1,32,bregzik / bregezik,"bregzik, bregezni",ünk,NA,"János imád bregezni, ezért sokat bregzik.",Mi ritkán...,bregzünk,bregezünk,cselekszik,-zik,1,nincsen,1990,nő,nem,2022-03-20_11h59.00.161,hesp_baseline,2021.2.3,MacIntel,60.16847172
,,,,,,,,,,,,,,,,,plövőrzöm,plövőrzök,right,0.116,0,158,158,58,1,5,plövőrzik,plövőrzöl,NA,NA,Te bizony sokat plövőrzöl.,Én is sokat...,plövőrzök,plövőrzöm,lakik,-zik,2,nincsen,1990,nő,nem,2022-03-20_11h59.00.161,hesp_baseline,2021.2.3,MacIntel,60.16847172
,,,,,,,,,,,,,,,,,aglom,aglok,right,0.125,0,159,159,100,1,47,aglik,aglasz,NA,NA,Te bizony sokat aglasz.,Én is sokat...,aglok,aglom,lakik,-lik,1,nincsen,1990,nő,nem,2022-03-20_11h59.00.161,hesp_baseline,2021.2.3,MacIntel,60.16847172
,,,,,,,,,,,,,,,,,pebzek,pebzem,right,0.124,0,160,160,57,1,4,pebzik,pebzel,NA,NA,Te bizony sokat pebzel.,Én is sokat...,pebzek,pebzem,lakik,-zik,1,nincsen,1990,nő,nem,2022-03-20_11h59.00.161,hesp_baseline,2021.2.3,MacIntel,60.16847172
,,,,,,,,,,,,,,,,,pítszok,pítszom,right,0.13,0,161,161,62,1,9,pítszik,pítszol,NA,NA,Te bizony sokat pítszol.,Én is sokat...,pítszok,pítszom,lakik,-szik,1,nincsen,1990,nő,nem,2022-03-20_11h59.00.161,hesp_baseline,2021.2.3,MacIntel,60.16847172
