my_list,key.keys,key.rt,key_2.keys,key_2.rt,keyboard_input_2.keys,keyboard_input_2.rt,key_3.keys,key_3.rt,keyboard_input_3.keys,keyboard_input_3.rt,key_4.keys,key_4.rt,keyboard_input_4.keys,keyboard_input_4.rt,key_5.keys,key_5.rt,my_button1,my_button2,keyboard_input.keys,keyboard_input.rt,withinBlock.thisRepN,withinBlock.thisTrialN,withinBlock.thisN,withinBlock.thisIndex,withinBlock.ran,rowname,word,prompt,suffix,vowel,carrier_sentence,target_sentence,target1,target2,category,derivational,nsyl,Azonosító,Melyik évben születtél?,Mi a nemed?,Tanultál nyelvészetet?,date,expName,psychopyVersion,OS,frameRate
list1.csv,space,463.937,space,6.842,right,10.47,space,48.62,left,8.62,space,2.528,left,8.513,space,39.385,bejzünk,bejezünk,left,10.42,0,0,0,148,1,41,bejzik / bejezik,"bejzik, bejezni",ünk,NA,"János imád bejezni, ezért sokat bejzik.",Mi ritkán...,bejzünk,bejezünk,cselekszik,-zik,1,PR2029,2001,férfi,nem,2022-04-08_19h33.01.333,hesp_baseline,2021.2.3,Win32,60.0240096
,,,,,,,,,,,,,,,,,sztremlek,sztremlem,left,8.182,0,1,1,95,1,42,sztremlik,sztremlesz,NA,NA,Te bizony sokat sztremlesz.,Én is sokat...,sztremlek,sztremlem,lakik,-lik,1,PR2029,2001,férfi,nem,2022-04-08_19h33.01.333,hesp_baseline,2021.2.3,Win32,60.0240096
,,,,,,,,,,,,,,,,,mádépnál,mádépnél,left,7.522,0,2,2,1,1,2,mádép,mádép,nál,é,Ez itt egy mádép.,Nincs is jobb egy jó...,mádépnél,mádépnál,dzsungel,NA,NA,PR2029,2001,férfi,nem,2022-04-08_19h33.01.333,hesp_baseline,2021.2.3,Win32,60.0240096
,,,,,,,,,,,,,,,,,szibánylok,szibánylom,left,20.458,0,3,3,67,1,14,szibánylik,szibánylasz,NA,NA,Te bizony sokat szibánylasz.,Én is sokat...,szibánylok,szibánylom,lakik,-lik,2,PR2029,2001,férfi,nem,2022-04-08_19h33.01.333,hesp_baseline,2021.2.3,Win32,60.0240096
,,,,,,,,,,,,,,,,,spűmlöm,spűmlök,right,3.433,0,4,4,86,1,33,spűmlik,spűmlesz,NA,NA,Te bizony sokat spűmlesz.,Én is sokat...,spűmlök,spűmlöm,lakik,-lik,1,PR2029,2001,férfi,nem,2022-04-08_19h33.01.333,hesp_baseline,2021.2.3,Win32,60.0240096
,,,,,,,,,,,,,,,,,flehénylek,flehénylem,left,4.282,0,5,5,106,1,53,flehénylik,flehénylesz,NA,NA,Te bizony sokat flehénylesz.,Én is sokat...,flehénylek,flehénylem,lakik,-lik,2,PR2029,2001,férfi,nem,2022-04-08_19h33.01.333,hesp_baseline,2021.2.3,Win32,60.0240096
,,,,,,,,,,,,,,,,,fágyépnél,fágyépnál,left,4.569,0,6,6,10,1,11,fágyép,fágyép,nál,é,Ez itt egy fágyép.,Nincs is jobb egy jó...,fágyépnél,fágyépnál,dzsungel,NA,NA,PR2029,2001,férfi,nem,2022-04-08_19h33.01.333,hesp_baseline,2021.2.3,Win32,60.0240096
,,,,,,,,,,,,,,,,,pebzem,pebzek,right,3.517,0,7,7,57,1,4,pebzik,pebzel,NA,NA,Te bizony sokat pebzel.,Én is sokat...,pebzek,pebzem,lakik,-zik,1,PR2029,2001,férfi,nem,2022-04-08_19h33.01.333,hesp_baseline,2021.2.3,Win32,60.0240096
,,,,,,,,,,,,,,,,,lumézban,lumézben,left,7.723,0,8,8,32,1,33,luméz,luméz,ban,é,Ez itt egy luméz.,Ott vagyunk a...,lumézben,lumézban,dzsungel,NA,NA,PR2029,2001,férfi,nem,2022-04-08_19h33.01.333,hesp_baseline,2021.2.3,Win32,60.0240096
,,,,,,,,,,,,,,,,,bölszöm,bölszök,right,3.031,0,9,9,105,1,52,bölszik,bölszöl,NA,NA,Te bizony sokat bölszöl.,Én is sokat...,bölszök,bölszöm,lakik,-szik,1,PR2029,2001,férfi,nem,2022-04-08_19h33.01.333,hesp_baseline,2021.2.3,Win32,60.0240096
,,,,,,,,,,,,,,,,,trukszotok,trukodtok,left,5.698,0,10,10,157,1,50,trukszik / trukodik,"trukszik, trukodni",tek,NA,"János imád trukodni, ezért sokat trukszik.",Ti ritkán...,trukszotok,trukodtok,cselekszik,-szik,1,PR2029,2001,férfi,nem,2022-04-08_19h33.01.333,hesp_baseline,2021.2.3,Win32,60.0240096
,,,,,,,,,,,,,,,,,gatágozunk,gatáglunk,left,6.78,0,11,11,137,1,30,gatáglik / gatágozik,"gatáglik, gatágozni",ünk,NA,"János imád gatágozni, ezért sokat gatáglik.",Mi ritkán...,gatáglunk,gatágozunk,cselekszik,-lik,2,PR2029,2001,férfi,nem,2022-04-08_19h33.01.333,hesp_baseline,2021.2.3,Win32,60.0240096
,,,,,,,,,,,,,,,,,dábegyban,dábegyben,right,5.196,0,12,12,6,1,7,dábegy,dábegy,ban,e,Ez itt egy dábegy.,Ott vagyunk a...,dábegyben,dábegyban,dzsungel,NA,NA,PR2029,2001,férfi,nem,2022-04-08_19h33.01.333,hesp_baseline,2021.2.3,Win32,60.0240096
,,,,,,,,,,,,,,,,,bügzenek,bügöznek,left,8.6,0,13,13,118,1,11,bügzik / bügözik,"bügzik, bügözni",nek,NA,"János imád bügözni, ezért sokat bügzik.",Ők ritkán...,bügzenek,bügöznek,cselekszik,-zik,1,PR2029,2001,férfi,nem,2022-04-08_19h33.01.333,hesp_baseline,2021.2.3,Win32,60.0240096
,,,,,,,,,,,,,,,,,tragzok,tragzom,left,2.816,0,14,14,90,1,37,tragzik,tragzol,NA,NA,Te bizony sokat tragzol.,Én is sokat...,tragzok,tragzom,lakik,-zik,1,PR2029,2001,férfi,nem,2022-04-08_19h33.01.333,hesp_baseline,2021.2.3,Win32,60.0240096
,,,,,,,,,,,,,,,,,pugoslok,pugoslom,left,3.094,0,15,15,84,1,31,pugoslik,pugoslasz,NA,NA,Te bizony sokat pugoslasz.,Én is sokat...,pugoslok,pugoslom,lakik,-lik,2,PR2029,2001,férfi,nem,2022-04-08_19h33.01.333,hesp_baseline,2021.2.3,Win32,60.0240096
,,,,,,,,,,,,,,,,,frágapszom,frágapszok,right,5.268,0,16,16,60,1,7,frágapszik,frágapszol,NA,NA,Te bizony sokat frágapszol.,Én is sokat...,frágapszok,frágapszom,lakik,-szik,2,PR2029,2001,férfi,nem,2022-04-08_19h33.01.333,hesp_baseline,2021.2.3,Win32,60.0240096
,,,,,,,,,,,,,,,,,pivédben,pivédban,left,2.947,0,17,17,52,1,53,pivéd,pivéd,ban,é,Ez itt egy pivéd.,Ott vagyunk a...,pivédben,pivédban,dzsungel,NA,NA,PR2029,2001,férfi,nem,2022-04-08_19h33.01.333,hesp_baseline,2021.2.3,Win32,60.0240096
,,,,,,,,,,,,,,,,,nuhétnél,nuhétnál,left,4.033,0,18,18,29,1,30,nuhét,nuhét,nál,é,Ez itt egy nuhét.,Nincs is jobb egy jó...,nuhétnél,nuhétnál,dzsungel,NA,NA,PR2029,2001,férfi,nem,2022-04-08_19h33.01.333,hesp_baseline,2021.2.3,Win32,60.0240096
,,,,,,,,,,,,,,,,,tágarzunk,tágarozunk,right,5.416,0,19,19,155,1,48,tágarzik / tágarozik,"tágarzik, tágarozni",ünk,NA,"János imád tágarozni, ezért sokat tágarzik.",Mi ritkán...,tágarzunk,tágarozunk,cselekszik,-zik,2,PR2029,2001,férfi,nem,2022-04-08_19h33.01.333,hesp_baseline,2021.2.3,Win32,60.0240096
,,,,,,,,,,,,,,,,,dajrensnél,dajrensnál,left,3.432,0,20,20,49,1,50,dajrens,dajrens,nál,e,Ez itt egy dajrens.,Nincs is jobb egy jó...,dajrensnél,dajrensnál,dzsungel,NA,NA,PR2029,2001,férfi,nem,2022-04-08_19h33.01.333,hesp_baseline,2021.2.3,Win32,60.0240096
,,,,,,,,,,,,,,,,,sprédlek,sprédlem,left,2.778,0,21,21,70,1,17,sprédlik,sprédlesz,NA,NA,Te bizony sokat sprédlesz.,Én is sokat...,sprédlek,sprédlem,lakik,-lik,1,PR2029,2001,férfi,nem,2022-04-08_19h33.01.333,hesp_baseline,2021.2.3,Win32,60.0240096
,,,,,,,,,,,,,,,,,prögöztök,prögzötök,left,5.64,0,22,22,151,1,44,prögzik / prögözik,"prögzik, prögözni",tek,NA,"János imád prögözni, ezért sokat prögzik.",Ti ritkán...,prögzötök,prögöztök,cselekszik,-zik,1,PR2029,2001,férfi,nem,2022-04-08_19h33.01.333,hesp_baseline,2021.2.3,Win32,60.0240096
,,,,,,,,,,,,,,,,,dunkészban,dunkészben,left,5.241,0,23,23,24,1,25,dunkész,dunkész,ban,é,Ez itt egy dunkész.,Ott vagyunk a...,dunkészben,dunkészban,dzsungel,NA,NA,PR2029,2001,férfi,nem,2022-04-08_19h33.01.333,hesp_baseline,2021.2.3,Win32,60.0240096
,,,,,,,,,,,,,,,,,spéslek,spéslem,left,3.381,0,24,24,93,1,40,spéslik,spéslesz,NA,NA,Te bizony sokat spéslesz.,Én is sokat...,spéslek,spéslem,lakik,-lik,1,PR2029,2001,férfi,nem,2022-04-08_19h33.01.333,hesp_baseline,2021.2.3,Win32,60.0240096
,,,,,,,,,,,,,,,,,narádzom,narádzok,right,1.968,0,25,25,63,1,10,narádzik,narádzol,NA,NA,Te bizony sokat narádzol.,Én is sokat...,narádzok,narádzom,lakik,-zik,2,PR2029,2001,férfi,nem,2022-04-08_19h33.01.333,hesp_baseline,2021.2.3,Win32,60.0240096
,,,,,,,,,,,,,,,,,zopélynél,zopélynál,right,3.15,0,26,26,5,1,6,zopély,zopély,nál,é,Ez itt egy zopély.,Nincs is jobb egy jó...,zopélynél,zopélynál,dzsungel,NA,NA,PR2029,2001,férfi,nem,2022-04-08_19h33.01.333,hesp_baseline,2021.2.3,Win32,60.0240096
,,,,,,,,,,,,,,,,,brözöztök,brözlötök,left,11.132,0,27,27,145,1,38,brözlik / brözözik,"brözlik, brözözni",tek,NA,"János imád brözözni, ezért sokat brözlik.",Ti ritkán...,brözlötök,brözöztök,cselekszik,-lik,1,PR2029,2001,férfi,nem,2022-04-08_19h33.01.333,hesp_baseline,2021.2.3,Win32,60.0240096
,,,,,,,,,,,,,,,,,hilarzok,hilarzom,left,2.7,0,28,28,69,1,16,hilarzik,hilarzol,NA,NA,Te bizony sokat hilarzol.,Én is sokat...,hilarzok,hilarzom,lakik,-zik,2,PR2029,2001,férfi,nem,2022-04-08_19h33.01.333,hesp_baseline,2021.2.3,Win32,60.0240096
,,,,,,,,,,,,,,,,,hivépban,hivépben,right,5.187,0,29,29,44,1,45,hivép,hivép,ban,é,Ez itt egy hivép.,Ott vagyunk a...,hivépben,hivépban,dzsungel,NA,NA,PR2029,2001,férfi,nem,2022-04-08_19h33.01.333,hesp_baseline,2021.2.3,Win32,60.0240096
,,,,,,,,,,,,,,,,,froroznak,frorlanak,left,4.774,0,30,30,143,1,36,frorlik / frorozik,"frorlik, frorozni",nek,NA,"János imád frorozni, ezért sokat frorlik.",Ők ritkán...,frorlanak,froroznak,cselekszik,-lik,1,PR2029,2001,férfi,nem,2022-04-08_19h33.01.333,hesp_baseline,2021.2.3,Win32,60.0240096
,,,,,,,,,,,,,,,,,aglok,aglom,left,1.704,0,31,31,100,1,47,aglik,aglasz,NA,NA,Te bizony sokat aglasz.,Én is sokat...,aglok,aglom,lakik,-lik,1,PR2029,2001,férfi,nem,2022-04-08_19h33.01.333,hesp_baseline,2021.2.3,Win32,60.0240096
,,,,,,,,,,,,,,,,,jutélynál,jutélynél,left,2.432,0,32,32,11,1,12,jutély,jutély,nál,é,Ez itt egy jutély.,Nincs is jobb egy jó...,jutélynél,jutélynál,dzsungel,NA,NA,PR2029,2001,férfi,nem,2022-04-08_19h33.01.333,hesp_baseline,2021.2.3,Win32,60.0240096
,,,,,,,,,,,,,,,,,flivegeznek,flivegzenek,left,12.042,0,33,33,138,1,31,flivegzik / flivegezik,"flivegzik, flivegezni",nek,NA,"János imád flivegezni, ezért sokat flivegzik.",Ők ritkán...,flivegzenek,flivegeznek,cselekszik,-zik,2,PR2029,2001,férfi,nem,2022-04-08_19h33.01.333,hesp_baseline,2021.2.3,Win32,60.0240096
,,,,,,,,,,,,,,,,,tránélynak,tránélynek,left,5.581,0,34,34,17,1,18,tránély,tránély,nak,é,Ez itt egy tránély.,Elneveztem a kutyámat...,tránélynek,tránélynak,dzsungel,NA,NA,PR2029,2001,férfi,nem,2022-04-08_19h33.01.333,hesp_baseline,2021.2.3,Win32,60.0240096
,,,,,,,,,,,,,,,,,gábédnél,gábédnál,right,7.103,0,35,35,39,1,40,gábéd,gábéd,nál,é,Ez itt egy gábéd.,Nincs is jobb egy jó...,gábédnél,gábédnál,dzsungel,NA,NA,PR2029,2001,férfi,nem,2022-04-08_19h33.01.333,hesp_baseline,2021.2.3,Win32,60.0240096
,,,,,,,,,,,,,,,,,frirozunk,frirzunk,right,12.252,0,36,36,129,1,22,frirzik / frirozik,"frirzik, frirozni",ünk,NA,"János imád frirozni, ezért sokat frirzik.",Mi ritkán...,frirzunk,frirozunk,cselekszik,-zik,1,PR2029,2001,férfi,nem,2022-04-08_19h33.01.333,hesp_baseline,2021.2.3,Win32,60.0240096
,,,,,,,,,,,,,,,,,préleglek,préleglem,left,5.532,0,37,37,104,1,51,préleglik,préleglesz,NA,NA,Te bizony sokat préleglesz.,Én is sokat...,préleglek,préleglem,lakik,-lik,2,PR2029,2001,férfi,nem,2022-04-08_19h33.01.333,hesp_baseline,2021.2.3,Win32,60.0240096
,,,,,,,,,,,,,,,,,pöröztök,pörzötök,left,6.948,0,38,38,153,1,46,pörzik / pörözik,"pörzik, pörözni",tek,NA,"János imád pörözni, ezért sokat pörzik.",Ti ritkán...,pörzötök,pöröztök,cselekszik,-zik,1,PR2029,2001,férfi,nem,2022-04-08_19h33.01.333,hesp_baseline,2021.2.3,Win32,60.0240096
,,,,,,,,,,,,,,,,,zsúdelnek,zsúdelnak,right,2.914,0,39,39,14,1,15,zsúdel,zsúdel,nak,e,Ez itt egy zsúdel.,Elneveztem a kutyámat...,zsúdelnek,zsúdelnak,dzsungel,NA,NA,PR2029,2001,férfi,nem,2022-04-08_19h33.01.333,hesp_baseline,2021.2.3,Win32,60.0240096
,,,,,,,,,,,,,,,,,trihagzom,trihagzok,right,2.02,0,40,40,83,1,30,trihagzik,trihagzol,NA,NA,Te bizony sokat trihagzol.,Én is sokat...,trihagzok,trihagzom,lakik,-zik,2,PR2029,2001,férfi,nem,2022-04-08_19h33.01.333,hesp_baseline,2021.2.3,Win32,60.0240096
,,,,,,,,,,,,,,,,,riványoztok,riványlotok,left,6.006,0,41,41,117,1,10,riványlik / riványozik,"riványlik, riványozni",tek,NA,"János imád riványozni, ezért sokat riványlik.",Ti ritkán...,riványlotok,riványoztok,cselekszik,-lik,2,PR2029,2001,férfi,nem,2022-04-08_19h33.01.333,hesp_baseline,2021.2.3,Win32,60.0240096
,,,,,,,,,,,,,,,,,plűbzöm,plűbzök,right,2.333,0,42,42,107,1,54,plűbzik,plűbzöl,NA,NA,Te bizony sokat plűbzöl.,Én is sokat...,plűbzök,plűbzöm,lakik,-zik,1,PR2029,2001,férfi,nem,2022-04-08_19h33.01.333,hesp_baseline,2021.2.3,Win32,60.0240096
,,,,,,,,,,,,,,,,,drűrzenek,drűröznek,left,4.39,0,43,43,126,1,19,drűrzik / drűrözik,"drűrzik, drűrözni",nek,NA,"János imád drűrözni, ezért sokat drűrzik.",Ők ritkán...,drűrzenek,drűröznek,cselekszik,-zik,1,PR2029,2001,férfi,nem,2022-04-08_19h33.01.333,hesp_baseline,2021.2.3,Win32,60.0240096
,,,,,,,,,,,,,,,,,dutecnál,dutecnél,left,3.346,0,44,44,22,1,23,dutec,dutec,nál,e,Ez itt egy dutec.,Nincs is jobb egy jó...,dutecnél,dutecnál,dzsungel,NA,NA,PR2029,2001,férfi,nem,2022-04-08_19h33.01.333,hesp_baseline,2021.2.3,Win32,60.0240096
,,,,,,,,,,,,,,,,,szibedben,szibedban,left,3.125,0,45,45,47,1,48,szibed,szibed,ban,e,Ez itt egy szibed.,Ott vagyunk a...,szibedben,szibedban,dzsungel,NA,NA,PR2029,2001,férfi,nem,2022-04-08_19h33.01.333,hesp_baseline,2021.2.3,Win32,60.0240096
,,,,,,,,,,,,,,,,,spibádzok,spibádzom,left,5.725,0,46,46,65,1,12,spibádzik,spibádzol,NA,NA,Te bizony sokat spibádzol.,Én is sokat...,spibádzok,spibádzom,lakik,-zik,2,PR2029,2001,férfi,nem,2022-04-08_19h33.01.333,hesp_baseline,2021.2.3,Win32,60.0240096
,,,,,,,,,,,,,,,,,bregzünk,bregezünk,left,2.565,0,47,47,139,1,32,bregzik / bregezik,"bregzik, bregezni",ünk,NA,"János imád bregezni, ezért sokat bregzik.",Mi ritkán...,bregzünk,bregezünk,cselekszik,-zik,1,PR2029,2001,férfi,nem,2022-04-08_19h33.01.333,hesp_baseline,2021.2.3,Win32,60.0240096
,,,,,,,,,,,,,,,,,hóbensben,hóbensban,left,4.398,0,48,48,3,1,4,hóbens,hóbens,ban,e,Ez itt egy hóbens.,Ott vagyunk a...,hóbensben,hóbensban,dzsungel,NA,NA,PR2029,2001,férfi,nem,2022-04-08_19h33.01.333,hesp_baseline,2021.2.3,Win32,60.0240096
,,,,,,,,,,,,,,,,,prugoroztok,prugorzotok,right,7.703,0,49,49,116,1,9,prugorzik / prugorozik,"prugorzik, prugorozni",tek,NA,"János imád prugorozni, ezért sokat prugorzik.",Ti ritkán...,prugorzotok,prugoroztok,cselekszik,-zik,2,PR2029,2001,férfi,nem,2022-04-08_19h33.01.333,hesp_baseline,2021.2.3,Win32,60.0240096
,,,,,,,,,,,,,,,,,jukélnél,jukélnál,left,2.752,0,50,50,42,1,43,jukél,jukél,nál,é,Ez itt egy jukél.,Nincs is jobb egy jó...,jukélnél,jukélnál,dzsungel,NA,NA,PR2029,2001,férfi,nem,2022-04-08_19h33.01.333,hesp_baseline,2021.2.3,Win32,60.0240096
,,,,,,,,,,,,,,,,,priszecben,priszecban,left,2.786,0,51,51,15,1,16,priszec,priszec,ban,e,Ez itt egy priszec.,Ott vagyunk a...,priszecben,priszecban,dzsungel,NA,NA,PR2029,2001,férfi,nem,2022-04-08_19h33.01.333,hesp_baseline,2021.2.3,Win32,60.0240096
,,,,,,,,,,,,,,,,,küslünk,küsözünk,left,3.287,0,52,52,141,1,34,küslik / küsözik,"küslik, küsözni",ünk,NA,"János imád küsözni, ezért sokat küslik.",Mi ritkán...,küslünk,küsözünk,cselekszik,-lik,1,PR2029,2001,férfi,nem,2022-04-08_19h33.01.333,hesp_baseline,2021.2.3,Win32,60.0240096
,,,,,,,,,,,,,,,,,flözlöm,flözlök,right,4.286,0,53,53,74,1,21,flözlik,flözlesz,NA,NA,Te bizony sokat flözlesz.,Én is sokat...,flözlök,flözlöm,lakik,-lik,1,PR2029,2001,férfi,nem,2022-04-08_19h33.01.333,hesp_baseline,2021.2.3,Win32,60.0240096
,,,,,,,,,,,,,,,,,püzöztök,püzlötök,right,6.518,0,54,54,152,1,45,püzlik / püzözik,"püzlik, püzözni",tek,NA,"János imád püzözni, ezért sokat püzlik.",Ti ritkán...,püzlötök,püzöztök,cselekszik,-lik,1,PR2029,2001,férfi,nem,2022-04-08_19h33.01.333,hesp_baseline,2021.2.3,Win32,60.0240096
,,,,,,,,,,,,,,,,,bribasoznak,bribaslanak,right,21.707,0,55,55,121,1,14,bribaslik / bribasozik,"bribaslik, bribasozni",nek,NA,"János imád bribasozni, ezért sokat bribaslik.",Ők ritkán...,bribaslanak,bribasoznak,cselekszik,-lik,2,PR2029,2001,férfi,nem,2022-04-08_19h33.01.333,hesp_baseline,2021.2.3,Win32,60.0240096
,,,,,,,,,,,,,,,,,vilakszom,vilakszok,right,13.391,0,56,56,97,1,44,vilakszik,vilakszol,NA,NA,Te bizony sokat vilakszol.,Én is sokat...,vilakszok,vilakszom,lakik,-szik,2,PR2029,2001,férfi,nem,2022-04-08_19h33.01.333,hesp_baseline,2021.2.3,Win32,60.0240096
,,,,,,,,,,,,,,,,,flérlek,flérlem,left,3.164,0,57,57,89,1,36,flérlik,flérlesz,NA,NA,Te bizony sokat flérlesz.,Én is sokat...,flérlek,flérlem,lakik,-lik,1,PR2029,2001,férfi,nem,2022-04-08_19h33.01.333,hesp_baseline,2021.2.3,Win32,60.0240096
,,,,,,,,,,,,,,,,,prilegzek,prilegzem,left,1.838,0,58,58,79,1,26,prilegzik,prilegzel,NA,NA,Te bizony sokat prilegzel.,Én is sokat...,prilegzek,prilegzem,lakik,-zik,2,PR2029,2001,férfi,nem,2022-04-08_19h33.01.333,hesp_baseline,2021.2.3,Win32,60.0240096
,,,,,,,,,,,,,,,,,jüslöm,jüslök,right,1.61,0,59,59,56,1,3,jüslik,jüslesz,NA,NA,Te bizony sokat jüslesz.,Én is sokat...,jüslök,jüslöm,lakik,-lik,1,PR2029,2001,férfi,nem,2022-04-08_19h33.01.333,hesp_baseline,2021.2.3,Win32,60.0240096
,,,,,,,,,,,,,,,,,herégszek,herégszem,left,2.165,0,60,60,54,1,1,herégszik,herégszel,NA,NA,Te bizony sokat herégszel.,Én is sokat...,herégszek,herégszem,lakik,-szik,2,PR2029,2001,férfi,nem,2022-04-08_19h33.01.333,hesp_baseline,2021.2.3,Win32,60.0240096
,,,,,,,,,,,,,,,,,dujzanak,dujoznak,left,1.131,0,61,61,128,1,21,dujzik / dujozik,"dujzik, dujozni",nek,NA,"János imád dujozni, ezért sokat dujzik.",Ők ritkán...,dujzanak,dujoznak,cselekszik,-zik,1,PR2029,2001,férfi,nem,2022-04-08_19h33.01.333,hesp_baseline,2021.2.3,Win32,60.0240096
,,,,,,,,,,,,,,,,,köszlötök,köszöztök,left,4.064,0,62,62,120,1,13,köszlik / köszözik,"köszlik, köszözni",tek,NA,"János imád köszözni, ezért sokat köszlik.",Ti ritkán...,köszlötök,köszöztök,cselekszik,-lik,1,PR2029,2001,férfi,nem,2022-04-08_19h33.01.333,hesp_baseline,2021.2.3,Win32,60.0240096
,,,,,,,,,,,,,,,,,drügzök,drügzöm,left,3.356,0,63,63,72,1,19,drügzik,drügzöl,NA,NA,Te bizony sokat drügzöl.,Én is sokat...,drügzök,drügzöm,lakik,-zik,1,PR2029,2001,férfi,nem,2022-04-08_19h33.01.333,hesp_baseline,2021.2.3,Win32,60.0240096
,,,,,,,,,,,,,,,,,prélemeznek,prélemlenek,right,40.352,0,64,64,110,1,3,prélemlik / prélemezik,"prélemlik, prélemezni",nek,NA,"János imád prélemezni, ezért sokat prélemlik.",Ők ritkán...,prélemlenek,prélemeznek,cselekszik,-lik,2,PR2029,2001,férfi,nem,2022-04-08_19h33.01.333,hesp_baseline,2021.2.3,Win32,60.0240096
,,,,,,,,,,,,,,,,,brarlok,brarlom,left,2.837,0,65,65,71,1,18,brarlik,brarlasz,NA,NA,Te bizony sokat brarlasz.,Én is sokat...,brarlok,brarlom,lakik,-lik,1,PR2029,2001,férfi,nem,2022-04-08_19h33.01.333,hesp_baseline,2021.2.3,Win32,60.0240096
,,,,,,,,,,,,,,,,,galárzanak,galároznak,right,4.023,0,66,66,154,1,47,galárzik / galározik,"galárzik, galározni",nek,NA,"János imád galározni, ezért sokat galárzik.",Ők ritkán...,galárzanak,galároznak,cselekszik,-zik,2,PR2029,2001,férfi,nem,2022-04-08_19h33.01.333,hesp_baseline,2021.2.3,Win32,60.0240096
,,,,,,,,,,,,,,,,,fádensnek,fádensnak,right,2.582,0,67,67,33,1,34,fádens,fádens,nak,e,Ez itt egy fádens.,Elneveztem a kutyámat...,fádensnek,fádensnak,dzsungel,NA,NA,PR2029,2001,férfi,nem,2022-04-08_19h33.01.333,hesp_baseline,2021.2.3,Win32,60.0240096
,,,,,,,,,,,,,,,,,hijegynál,hijegynél,right,2.9,0,68,68,4,1,5,hijegy,hijegy,nál,e,Ez itt egy hijegy.,Nincs is jobb egy jó...,hijegynél,hijegynál,dzsungel,NA,NA,PR2029,2001,férfi,nem,2022-04-08_19h33.01.333,hesp_baseline,2021.2.3,Win32,60.0240096
,,,,,,,,,,,,,,,,,klordénynak,klordénynek,right,3.181,0,69,69,9,1,10,klordény,klordény,nak,é,Ez itt egy klordény.,Elneveztem a kutyámat...,klordénynek,klordénynak,dzsungel,NA,NA,PR2029,2001,férfi,nem,2022-04-08_19h33.01.333,hesp_baseline,2021.2.3,Win32,60.0240096
,,,,,,,,,,,,,,,,,vihapodunk,vihapszunk,left,6.908,0,70,70,112,1,5,vihapszik / vihapodik,"vihapszik, vihapodni",ünk,NA,"János imád vihapodni, ezért sokat vihapszik.",Mi ritkán...,vihapszunk,vihapodunk,cselekszik,-szik,2,PR2029,2001,férfi,nem,2022-04-08_19h33.01.333,hesp_baseline,2021.2.3,Win32,60.0240096
,,,,,,,,,,,,,,,,,kliszernál,kliszernél,right,13.266,0,71,71,31,1,32,kliszer,kliszer,nál,e,Ez itt egy kliszer.,Nincs is jobb egy jó...,kliszernél,kliszernál,dzsungel,NA,NA,PR2029,2001,férfi,nem,2022-04-08_19h33.01.333,hesp_baseline,2021.2.3,Win32,60.0240096
,,,,,,,,,,,,,,,,,spilágzok,spilágzom,left,9.026,0,72,72,76,1,23,spilágzik,spilágzol,NA,NA,Te bizony sokat spilágzol.,Én is sokat...,spilágzok,spilágzom,lakik,-zik,2,PR2029,2001,férfi,nem,2022-04-08_19h33.01.333,hesp_baseline,2021.2.3,Win32,60.0240096
,,,,,,,,,,,,,,,,,jorzégnak,jorzégnek,right,24.107,0,73,73,45,1,46,jorzég,jorzég,nak,é,Ez itt egy jorzég.,Elneveztem a kutyámat...,jorzégnek,jorzégnak,dzsungel,NA,NA,PR2029,2001,férfi,nem,2022-04-08_19h33.01.333,hesp_baseline,2021.2.3,Win32,60.0240096
,,,,,,,,,,,,,,,,,gyivádzok,gyivádzom,left,1.809,0,74,74,87,1,34,gyivádzik,gyivádzol,NA,NA,Te bizony sokat gyivádzol.,Én is sokat...,gyivádzok,gyivádzom,lakik,-zik,2,PR2029,2001,férfi,nem,2022-04-08_19h33.01.333,hesp_baseline,2021.2.3,Win32,60.0240096
,,,,,,,,,,,,,,,,,kalhésznak,kalhésznek,left,2.773,0,75,75,46,1,47,kalhész,kalhész,nak,é,Ez itt egy kalhész.,Elneveztem a kutyámat...,kalhésznek,kalhésznak,dzsungel,NA,NA,PR2029,2001,férfi,nem,2022-04-08_19h33.01.333,hesp_baseline,2021.2.3,Win32,60.0240096
,,,,,,,,,,,,,,,,,trodélyben,trodélyban,right,4.552,0,76,76,28,1,29,trodély,trodély,ban,é,Ez itt egy trodély.,Ott vagyunk a...,trodélyben,trodélyban,dzsungel,NA,NA,PR2029,2001,férfi,nem,2022-04-08_19h33.01.333,hesp_baseline,2021.2.3,Win32,60.0240096
,,,,,,,,,,,,,,,,,csublényban,csublényben,left,2.213,0,77,77,16,1,17,csublény,csublény,ban,é,Ez itt egy csublény.,Ott vagyunk a...,csublényben,csublényban,dzsungel,NA,NA,PR2029,2001,férfi,nem,2022-04-08_19h33.01.333,hesp_baseline,2021.2.3,Win32,60.0240096
,,,,,,,,,,,,,,,,,fraklunk,frakozunk,left,10.118,0,78,78,159,1,52,fraklik / frakozik,"fraklik, frakozni",ünk,NA,"János imád frakozni, ezért sokat fraklik.",Mi ritkán...,fraklunk,frakozunk,cselekszik,-lik,1,PR2029,2001,férfi,nem,2022-04-08_19h33.01.333,hesp_baseline,2021.2.3,Win32,60.0240096
,,,,,,,,,,,,,,,,,kűdlenek,kűdöznek,left,3.614,0,79,79,142,1,35,kűdlik / kűdözik,"kűdlik, kűdözni",nek,NA,"János imád kűdözni, ezért sokat kűdlik.",Ők ritkán...,kűdlenek,kűdöznek,cselekszik,-lik,1,PR2029,2001,férfi,nem,2022-04-08_19h33.01.333,hesp_baseline,2021.2.3,Win32,60.0240096
,,,,,,,,,,,,,,,,,nyizlunk,nyizozunk,left,2.654,0,80,80,135,1,28,nyizlik / nyizozik,"nyizlik, nyizozni",ünk,NA,"János imád nyizozni, ezért sokat nyizlik.",Mi ritkán...,nyizlunk,nyizozunk,cselekszik,-lik,1,PR2029,2001,férfi,nem,2022-04-08_19h33.01.333,hesp_baseline,2021.2.3,Win32,60.0240096
,,,,,,,,,,,,,,,,,diránylanak,dirányoznak,left,40.215,0,81,81,122,1,15,diránylik / dirányozik,"diránylik, dirányozni",nek,NA,"János imád dirányozni, ezért sokat diránylik.",Ők ritkán...,diránylanak,dirányoznak,cselekszik,-lik,2,PR2029,2001,férfi,nem,2022-04-08_19h33.01.333,hesp_baseline,2021.2.3,Win32,60.0240096
,,,,,,,,,,,,,,,,,vismernél,vismernál,left,2.397,0,82,82,13,1,14,vismer,vismer,nál,e,Ez itt egy vismer.,Nincs is jobb egy jó...,vismernél,vismernál,dzsungel,NA,NA,PR2029,2001,férfi,nem,2022-04-08_19h33.01.333,hesp_baseline,2021.2.3,Win32,60.0240096
,,,,,,,,,,,,,,,,,géregeztek,géregletek,left,5.153,0,83,83,124,1,17,géreglik / géregezik,"géreglik, géregezni",tek,NA,"János imád géregezni, ezért sokat géreglik.",Ti ritkán...,géregletek,géregeztek,cselekszik,-lik,2,PR2029,2001,férfi,nem,2022-04-08_19h33.01.333,hesp_baseline,2021.2.3,Win32,60.0240096
,,,,,,,,,,,,,,,,,föködnek,fökszenek,right,2.574,0,84,84,131,1,24,fökszik / föködik,"fökszik, föködni",nek,NA,"János imád föködni, ezért sokat fökszik.",Ők ritkán...,fökszenek,föködnek,cselekszik,-szik,1,PR2029,2001,férfi,nem,2022-04-08_19h33.01.333,hesp_baseline,2021.2.3,Win32,60.0240096
,,,,,,,,,,,,,,,,,lihénynak,lihénynek,right,2.738,0,85,85,23,1,24,lihény,lihény,nak,é,Ez itt egy lihény.,Elneveztem a kutyámat...,lihénynek,lihénynak,dzsungel,NA,NA,PR2029,2001,férfi,nem,2022-04-08_19h33.01.333,hesp_baseline,2021.2.3,Win32,60.0240096
,,,,,,,,,,,,,,,,,málapszom,málapszok,right,2.535,0,86,86,66,1,13,málapszik,málapszol,NA,NA,Te bizony sokat málapszol.,Én is sokat...,málapszok,málapszom,lakik,-szik,2,PR2029,2001,férfi,nem,2022-04-08_19h33.01.333,hesp_baseline,2021.2.3,Win32,60.0240096
,,,,,,,,,,,,,,,,,brigesztnak,brigesztnek,right,4.235,0,87,87,48,1,49,brigeszt,brigeszt,nak,e,Ez itt egy brigeszt.,Elneveztem a kutyámat...,brigesztnek,brigesztnak,dzsungel,NA,NA,PR2029,2001,férfi,nem,2022-04-08_19h33.01.333,hesp_baseline,2021.2.3,Win32,60.0240096
,,,,,,,,,,,,,,,,,jurlunk,jurozunk,left,5.466,0,88,88,111,1,4,jurlik / jurozik,"jurlik, jurozni",ünk,NA,"János imád jurozni, ezért sokat jurlik.",Mi ritkán...,jurlunk,jurozunk,cselekszik,-lik,1,PR2029,2001,férfi,nem,2022-04-08_19h33.01.333,hesp_baseline,2021.2.3,Win32,60.0240096
,,,,,,,,,,,,,,,,,spihemlek,spihemlem,left,3.133,0,89,89,94,1,41,spihemlik,spihemlesz,NA,NA,Te bizony sokat spihemlesz.,Én is sokat...,spihemlek,spihemlem,lakik,-lik,2,PR2029,2001,férfi,nem,2022-04-08_19h33.01.333,hesp_baseline,2021.2.3,Win32,60.0240096
,,,,,,,,,,,,,,,,,klörlök,klörlöm,left,1.243,0,90,90,80,1,27,klörlik,klörlesz,NA,NA,Te bizony sokat klörlesz.,Én is sokat...,klörlök,klörlöm,lakik,-lik,1,PR2029,2001,férfi,nem,2022-04-08_19h33.01.333,hesp_baseline,2021.2.3,Win32,60.0240096
,,,,,,,,,,,,,,,,,brubzom,brubzok,right,1.431,0,91,91,92,1,39,brubzik,brubzol,NA,NA,Te bizony sokat brubzol.,Én is sokat...,brubzok,brubzom,lakik,-zik,1,PR2029,2001,férfi,nem,2022-04-08_19h33.01.333,hesp_baseline,2021.2.3,Win32,60.0240096
,,,,,,,,,,,,,,,,,vülődzök,vülődzöm,left,0.907,0,92,92,81,1,28,vülődzik,vülődzöl,NA,NA,Te bizony sokat vülődzöl.,Én is sokat...,vülődzök,vülődzöm,lakik,-zik,2,PR2029,2001,férfi,nem,2022-04-08_19h33.01.333,hesp_baseline,2021.2.3,Win32,60.0240096
,,,,,,,,,,,,,,,,,frélegzünk,frélegezünk,right,3.026,0,93,93,147,1,40,frélegzik / frélegezik,"frélegzik, frélegezni",ünk,NA,"János imád frélegezni, ezért sokat frélegzik.",Mi ritkán...,frélegzünk,frélegezünk,cselekszik,-zik,2,PR2029,2001,férfi,nem,2022-04-08_19h33.01.333,hesp_baseline,2021.2.3,Win32,60.0240096
,,,,,,,,,,,,,,,,,monvegnál,monvegnél,left,74.284,0,94,94,26,1,27,monveg,monveg,nál,e,Ez itt egy monveg.,Nincs is jobb egy jó...,monvegnél,monvegnál,dzsungel,NA,NA,PR2029,2001,férfi,nem,2022-04-08_19h33.01.333,hesp_baseline,2021.2.3,Win32,60.0240096
,,,,,,,,,,,,,,,,,gyivepednek,gyivepszenek,left,4.686,0,95,95,160,1,53,gyivepszik / gyivepedik,"gyivepszik, gyivepedni",nek,NA,"János imád gyivepedni, ezért sokat gyivepszik.",Ők ritkán...,gyivepszenek,gyivepednek,cselekszik,-szik,2,PR2029,2001,férfi,nem,2022-04-08_19h33.01.333,hesp_baseline,2021.2.3,Win32,60.0240096
,,,,,,,,,,,,,,,,,pekedünk,pekszünk,left,1.353,0,96,96,161,1,54,pekszik / pekedik,"pekszik, pekedni",ünk,NA,"János imád pekedni, ezért sokat pekszik.",Mi ritkán...,pekszünk,pekedünk,cselekszik,-szik,1,PR2029,2001,férfi,nem,2022-04-08_19h33.01.333,hesp_baseline,2021.2.3,Win32,60.0240096
,,,,,,,,,,,,,,,,,klihaslotok,klihasoztok,left,1.606,0,97,97,156,1,49,klihaslik / klihasozik,"klihaslik, klihasozni",tek,NA,"János imád klihasozni, ezért sokat klihaslik.",Ti ritkán...,klihaslotok,klihasoztok,cselekszik,-lik,2,PR2029,2001,férfi,nem,2022-04-08_19h33.01.333,hesp_baseline,2021.2.3,Win32,60.0240096
,,,,,,,,,,,,,,,,,brüszöztök,brüszlötök,left,2.136,0,98,98,130,1,23,brüszlik / brüszözik,"brüszlik, brüszözni",tek,NA,"János imád brüszözni, ezért sokat brüszlik.",Ti ritkán...,brüszlötök,brüszöztök,cselekszik,-lik,1,PR2029,2001,férfi,nem,2022-04-08_19h33.01.333,hesp_baseline,2021.2.3,Win32,60.0240096
,,,,,,,,,,,,,,,,,tarhézben,tarhézban,right,1.605,0,99,99,25,1,26,tarhéz,tarhéz,ban,é,Ez itt egy tarhéz.,Ott vagyunk a...,tarhézben,tarhézban,dzsungel,NA,NA,PR2029,2001,férfi,nem,2022-04-08_19h33.01.333,hesp_baseline,2021.2.3,Win32,60.0240096
,,,,,,,,,,,,,,,,,frinyozunk,frinylunk,right,1.305,0,100,100,133,1,26,frinylik / frinyozik,"frinylik, frinyozni",ünk,NA,"János imád frinyozni, ezért sokat frinylik.",Mi ritkán...,frinylunk,frinyozunk,cselekszik,-lik,1,PR2029,2001,férfi,nem,2022-04-08_19h33.01.333,hesp_baseline,2021.2.3,Win32,60.0240096
,,,,,,,,,,,,,,,,,buhényban,buhényben,left,1.918,0,101,101,43,1,44,buhény,buhény,ban,é,Ez itt egy buhény.,Ott vagyunk a...,buhényben,buhényban,dzsungel,NA,NA,PR2029,2001,férfi,nem,2022-04-08_19h33.01.333,hesp_baseline,2021.2.3,Win32,60.0240096
,,,,,,,,,,,,,,,,,ibáglom,ibáglok,right,1.603,0,102,102,88,1,35,ibáglik,ibáglasz,NA,NA,Te bizony sokat ibáglasz.,Én is sokat...,ibáglok,ibáglom,lakik,-lik,2,PR2029,2001,férfi,nem,2022-04-08_19h33.01.333,hesp_baseline,2021.2.3,Win32,60.0240096
,,,,,,,,,,,,,,,,,spábétban,spábétben,left,1.224,0,103,103,51,1,52,spábét,spábét,ban,é,Ez itt egy spábét.,Ott vagyunk a...,spábétben,spábétban,dzsungel,NA,NA,PR2029,2001,férfi,nem,2022-04-08_19h33.01.333,hesp_baseline,2021.2.3,Win32,60.0240096
,,,,,,,,,,,,,,,,,flagárzom,flagárzok,right,1.532,0,104,104,64,1,11,flagárzik,flagárzol,NA,NA,Te bizony sokat flagárzol.,Én is sokat...,flagárzok,flagárzom,lakik,-zik,2,PR2029,2001,férfi,nem,2022-04-08_19h33.01.333,hesp_baseline,2021.2.3,Win32,60.0240096
,,,,,,,,,,,,,,,,,darhénben,darhénban,right,1.718,0,105,105,27,1,28,darhén,darhén,ban,é,Ez itt egy darhén.,Ott vagyunk a...,darhénben,darhénban,dzsungel,NA,NA,PR2029,2001,férfi,nem,2022-04-08_19h33.01.333,hesp_baseline,2021.2.3,Win32,60.0240096
,,,,,,,,,,,,,,,,,filágzok,filágzom,left,9.509,0,106,106,102,1,49,filágzik,filágzol,NA,NA,Te bizony sokat filágzol.,Én is sokat...,filágzok,filágzom,lakik,-zik,2,PR2029,2001,férfi,nem,2022-04-08_19h33.01.333,hesp_baseline,2021.2.3,Win32,60.0240096
,,,,,,,,,,,,,,,,,csarténynak,csarténynek,left,2.844,0,107,107,36,1,37,csartény,csartény,nak,é,Ez itt egy csartény.,Elneveztem a kutyámat...,csarténynek,csarténynak,dzsungel,NA,NA,PR2029,2001,férfi,nem,2022-04-08_19h33.01.333,hesp_baseline,2021.2.3,Win32,60.0240096
,,,,,,,,,,,,,,,,,priszkencnak,priszkencnek,left,1.686,0,108,108,20,1,21,priszkenc,priszkenc,nak,e,Ez itt egy priszkenc.,Elneveztem a kutyámat...,priszkencnek,priszkencnak,dzsungel,NA,NA,PR2029,2001,férfi,nem,2022-04-08_19h33.01.333,hesp_baseline,2021.2.3,Win32,60.0240096
,,,,,,,,,,,,,,,,,pliboztok,plibzotok,left,4.556,0,109,109,140,1,33,plibzik / plibozik,"plibzik, plibozni",tek,NA,"János imád plibozni, ezért sokat plibzik.",Ti ritkán...,plibzotok,pliboztok,cselekszik,-zik,1,PR2029,2001,férfi,nem,2022-04-08_19h33.01.333,hesp_baseline,2021.2.3,Win32,60.0240096
,,,,,,,,,,,,,,,,,pilégszenek,pilégednek,right,2.432,0,110,110,150,1,43,pilégszik / pilégedik,"pilégszik, pilégedni",nek,NA,"János imád pilégedni, ezért sokat pilégszik.",Ők ritkán...,pilégszenek,pilégednek,cselekszik,-szik,2,PR2029,2001,férfi,nem,2022-04-08_19h33.01.333,hesp_baseline,2021.2.3,Win32,60.0240096
,,,,,,,,,,,,,,,,,bötőrözünk,bötőrzünk,right,3.499,0,111,111,158,1,51,bötőrzik / bötőrözik,"bötőrzik, bötőrözni",ünk,NA,"János imád bötőrözni, ezért sokat bötőrzik.",Mi ritkán...,bötőrzünk,bötőrözünk,cselekszik,-zik,2,PR2029,2001,férfi,nem,2022-04-08_19h33.01.333,hesp_baseline,2021.2.3,Win32,60.0240096
,,,,,,,,,,,,,,,,,breseznek,breslenek,right,1.793,0,112,112,115,1,8,breslik / bresezik,"breslik, bresezni",nek,NA,"János imád bresezni, ezért sokat breslik.",Ők ritkán...,breslenek,breseznek,cselekszik,-lik,1,PR2029,2001,férfi,nem,2022-04-08_19h33.01.333,hesp_baseline,2021.2.3,Win32,60.0240096
,,,,,,,,,,,,,,,,,kadérnél,kadérnál,right,2.647,0,113,113,7,1,8,kadér,kadér,nál,é,Ez itt egy kadér.,Nincs is jobb egy jó...,kadérnél,kadérnál,dzsungel,NA,NA,PR2029,2001,férfi,nem,2022-04-08_19h33.01.333,hesp_baseline,2021.2.3,Win32,60.0240096
,,,,,,,,,,,,,,,,,kaszépnak,kaszépnek,right,2.462,0,114,114,40,1,41,kaszép,kaszép,nak,é,Ez itt egy kaszép.,Elneveztem a kutyámat...,kaszépnek,kaszépnak,dzsungel,NA,NA,PR2029,2001,férfi,nem,2022-04-08_19h33.01.333,hesp_baseline,2021.2.3,Win32,60.0240096
,,,,,,,,,,,,,,,,,sprudozunk,sprudlunk,right,1.38,0,115,115,136,1,29,sprudlik / sprudozik,"sprudlik, sprudozni",ünk,NA,"János imád sprudozni, ezért sokat sprudlik.",Mi ritkán...,sprudlunk,sprudozunk,cselekszik,-lik,1,PR2029,2001,férfi,nem,2022-04-08_19h33.01.333,hesp_baseline,2021.2.3,Win32,60.0240096
,,,,,,,,,,,,,,,,,jalrénynál,jalrénynél,left,11.377,0,116,116,0,1,1,jalrény,jalrény,nál,é,Ez itt egy jalrény.,Nincs is jobb egy jó...,jalrénynél,jalrénynál,dzsungel,NA,NA,PR2029,2001,férfi,nem,2022-04-08_19h33.01.333,hesp_baseline,2021.2.3,Win32,60.0240096
,,,,,,,,,,,,,,,,,huklom,huklok,right,1.621,0,117,117,78,1,25,huklik,huklasz,NA,NA,Te bizony sokat huklasz.,Én is sokat...,huklok,huklom,lakik,-lik,1,PR2029,2001,férfi,nem,2022-04-08_19h33.01.333,hesp_baseline,2021.2.3,Win32,60.0240096
,,,,,,,,,,,,,,,,,gonszéknél,gonszéknál,left,3.272,0,118,118,38,1,39,gonszék,gonszék,nál,é,Ez itt egy gonszék.,Nincs is jobb egy jó...,gonszéknél,gonszéknál,dzsungel,NA,NA,PR2029,2001,férfi,nem,2022-04-08_19h33.01.333,hesp_baseline,2021.2.3,Win32,60.0240096
,,,,,,,,,,,,,,,,,spicetnak,spicetnek,right,13.58,0,119,119,35,1,36,spicet,spicet,nak,e,Ez itt egy spicet.,Elneveztem a kutyámat...,spicetnek,spicetnak,dzsungel,NA,NA,PR2029,2001,férfi,nem,2022-04-08_19h33.01.333,hesp_baseline,2021.2.3,Win32,60.0240096
,,,,,,,,,,,,,,,,,salárzok,salárzom,left,1.848,0,120,120,103,1,50,salárzik,salárzol,NA,NA,Te bizony sokat salárzol.,Én is sokat...,salárzok,salárzom,lakik,-zik,2,PR2029,2001,férfi,nem,2022-04-08_19h33.01.333,hesp_baseline,2021.2.3,Win32,60.0240096
,,,,,,,,,,,,,,,,,privékszenek,privékednek,left,1.53,0,121,121,149,1,42,privékszik / privékedik,"privékszik, privékedni",nek,NA,"János imád privékedni, ezért sokat privékszik.",Ők ritkán...,privékszenek,privékednek,cselekszik,-szik,2,PR2029,2001,férfi,nem,2022-04-08_19h33.01.333,hesp_baseline,2021.2.3,Win32,60.0240096
,,,,,,,,,,,,,,,,,spélszem,spélszek,left,1.535,0,122,122,68,1,15,spélszik,spélszel,NA,NA,Te bizony sokat spélszel.,Én is sokat...,spélszek,spélszem,lakik,-szik,1,PR2029,2001,férfi,nem,2022-04-08_19h33.01.333,hesp_baseline,2021.2.3,Win32,60.0240096
,,,,,,,,,,,,,,,,,livaklok,livaklom,right,1.374,0,123,123,82,1,29,livaklik,livaklasz,NA,NA,Te bizony sokat livaklasz.,Én is sokat...,livaklok,livaklom,lakik,-lik,2,PR2029,2001,férfi,nem,2022-04-08_19h33.01.333,hesp_baseline,2021.2.3,Win32,60.0240096
,,,,,,,,,,,,,,,,,frihegezünk,friheglünk,right,1.473,0,124,124,132,1,25,friheglik / frihegezik,"friheglik, frihegezni",ünk,NA,"János imád frihegezni, ezért sokat friheglik.",Mi ritkán...,friheglünk,frihegezünk,cselekszik,-lik,2,PR2029,2001,férfi,nem,2022-04-08_19h33.01.333,hesp_baseline,2021.2.3,Win32,60.0240096
,,,,,,,,,,,,,,,,,lorzensnél,lorzensnál,left,2.201,0,125,125,34,1,35,lorzens,lorzens,nál,e,Ez itt egy lorzens.,Nincs is jobb egy jó...,lorzensnél,lorzensnál,dzsungel,NA,NA,PR2029,2001,férfi,nem,2022-04-08_19h33.01.333,hesp_baseline,2021.2.3,Win32,60.0240096
,,,,,,,,,,,,,,,,,gyibeslem,gyibeslek,right,2.756,0,126,126,98,1,45,gyibeslik,gyibeslesz,NA,NA,Te bizony sokat gyibeslesz.,Én is sokat...,gyibeslek,gyibeslem,lakik,-lik,2,PR2029,2001,férfi,nem,2022-04-08_19h33.01.333,hesp_baseline,2021.2.3,Win32,60.0240096
,,,,,,,,,,,,,,,,,mísozunk,míslunk,right,2.37,0,127,127,123,1,16,míslik / mísozik,"míslik, mísozni",ünk,NA,"János imád mísozni, ezért sokat míslik.",Mi ritkán...,míslunk,mísozunk,cselekszik,-lik,1,PR2029,2001,férfi,nem,2022-04-08_19h33.01.333,hesp_baseline,2021.2.3,Win32,60.0240096
,,,,,,,,,,,,,,,,,nyivágzunk,nyivágozunk,left,2.886,0,128,128,113,1,6,nyivágzik / nyivágozik,"nyivágzik, nyivágozni",ünk,NA,"János imád nyivágozni, ezért sokat nyivágzik.",Mi ritkán...,nyivágzunk,nyivágozunk,cselekszik,-zik,2,PR2029,2001,férfi,nem,2022-04-08_19h33.01.333,hesp_baseline,2021.2.3,Win32,60.0240096
,,,,,,,,,,,,,,,,,lörűdzöm,lörűdzök,right,2.436,0,129,129,77,1,24,lörűdzik,lörűdzöl,NA,NA,Te bizony sokat lörűdzöl.,Én is sokat...,lörűdzök,lörűdzöm,lakik,-zik,2,PR2029,2001,férfi,nem,2022-04-08_19h33.01.333,hesp_baseline,2021.2.3,Win32,60.0240096
,,,,,,,,,,,,,,,,,vodépnek,vodépnak,left,1.806,0,130,130,41,1,42,vodép,vodép,nak,é,Ez itt egy vodép.,Elneveztem a kutyámat...,vodépnek,vodépnak,dzsungel,NA,NA,PR2029,2001,férfi,nem,2022-04-08_19h33.01.333,hesp_baseline,2021.2.3,Win32,60.0240096
,,,,,,,,,,,,,,,,,zsopédben,zsopédban,left,2.748,0,131,131,50,1,51,zsopéd,zsopéd,ban,é,Ez itt egy zsopéd.,Ott vagyunk a...,zsopédben,zsopédban,dzsungel,NA,NA,PR2029,2001,férfi,nem,2022-04-08_19h33.01.333,hesp_baseline,2021.2.3,Win32,60.0240096
,,,,,,,,,,,,,,,,,naremban,naremben,left,2.222,0,132,132,2,1,3,narem,narem,ban,e,Ez itt egy narem.,Ott vagyunk a...,naremben,naremban,dzsungel,NA,NA,PR2029,2001,férfi,nem,2022-04-08_19h33.01.333,hesp_baseline,2021.2.3,Win32,60.0240096
,,,,,,,,,,,,,,,,,csibagoztok,csibagzotok,left,2.735,0,133,133,114,1,7,csibagzik / csibagozik,"csibagzik, csibagozni",tek,NA,"János imád csibagozni, ezért sokat csibagzik.",Ti ritkán...,csibagzotok,csibagoztok,cselekszik,-zik,2,PR2029,2001,férfi,nem,2022-04-08_19h33.01.333,hesp_baseline,2021.2.3,Win32,60.0240096
,,,,,,,,,,,,,,,,,píjlok,píjlom,left,2.109,0,134,134,75,1,22,píjlik,píjlasz,NA,NA,Te bizony sokat píjlasz.,Én is sokat...,píjlok,píjlom,lakik,-lik,1,PR2029,2001,férfi,nem,2022-04-08_19h33.01.333,hesp_baseline,2021.2.3,Win32,60.0240096
,,,,,,,,,,,,,,,,,spatszom,spatszok,right,0.988,0,135,135,73,1,20,spatszik,spatszol,NA,NA,Te bizony sokat spatszol.,Én is sokat...,spatszok,spatszom,lakik,-szik,1,PR2029,2001,férfi,nem,2022-04-08_19h33.01.333,hesp_baseline,2021.2.3,Win32,60.0240096
,,,,,,,,,,,,,,,,,gihejlünk,gihejezünk,left,22.559,0,136,136,146,1,39,gihejlik / gihejezik,"gihejlik, gihejezni",ünk,NA,"János imád gihejezni, ezért sokat gihejlik.",Mi ritkán...,gihejlünk,gihejezünk,cselekszik,-lik,2,PR2029,2001,férfi,nem,2022-04-08_19h33.01.333,hesp_baseline,2021.2.3,Win32,60.0240096
,,,,,,,,,,,,,,,,,klaráglok,klaráglom,left,2.874,0,137,137,91,1,38,klaráglik,klaráglasz,NA,NA,Te bizony sokat klaráglasz.,Én is sokat...,klaráglok,klaráglom,lakik,-lik,2,PR2029,2001,férfi,nem,2022-04-08_19h33.01.333,hesp_baseline,2021.2.3,Win32,60.0240096
,,,,,,,,,,,,,,,,,pítszok,pítszom,left,1.089,0,138,138,62,1,9,pítszik,pítszol,NA,NA,Te bizony sokat pítszol.,Én is sokat...,pítszok,pítszom,lakik,-szik,1,PR2029,2001,férfi,nem,2022-04-08_19h33.01.333,hesp_baseline,2021.2.3,Win32,60.0240096
,,,,,,,,,,,,,,,,,hiragoznak,hiragzanak,right,1.136,0,139,139,119,1,12,hiragzik / hiragozik,"hiragzik, hiragozni",nek,NA,"János imád hiragozni, ezért sokat hiragzik.",Ők ritkán...,hiragzanak,hiragoznak,cselekszik,-zik,2,PR2029,2001,férfi,nem,2022-04-08_19h33.01.333,hesp_baseline,2021.2.3,Win32,60.0240096
,,,,,,,,,,,,,,,,,tivencben,tivencban,left,2.966,0,140,140,53,1,54,tivenc,tivenc,ban,e,Ez itt egy tivenc.,Ott vagyunk a...,tivencben,tivencban,dzsungel,NA,NA,PR2029,2001,férfi,nem,2022-04-08_19h33.01.333,hesp_baseline,2021.2.3,Win32,60.0240096
,,,,,,,,,,,,,,,,,rokszok,rokszom,left,2.858,0,141,141,101,1,48,rokszik,rokszol,NA,NA,Te bizony sokat rokszol.,Én is sokat...,rokszok,rokszom,lakik,-szik,1,PR2029,2001,férfi,nem,2022-04-08_19h33.01.333,hesp_baseline,2021.2.3,Win32,60.0240096
,,,,,,,,,,,,,,,,,spibaklom,spibaklok,left,1.133,0,142,142,55,1,2,spibaklik,spibaklasz,NA,NA,Te bizony sokat spibaklasz.,Én is sokat...,spibaklok,spibaklom,lakik,-lik,2,PR2029,2001,férfi,nem,2022-04-08_19h33.01.333,hesp_baseline,2021.2.3,Win32,60.0240096
,,,,,,,,,,,,,,,,,hurjorzok,hurjorzom,left,1.321,0,143,143,59,1,6,hurjorzik,hurjorzol,NA,NA,Te bizony sokat hurjorzol.,Én is sokat...,hurjorzok,hurjorzom,lakik,-zik,2,PR2029,2001,férfi,nem,2022-04-08_19h33.01.333,hesp_baseline,2021.2.3,Win32,60.0240096
,,,,,,,,,,,,,,,,,matézben,matézban,right,1.983,0,144,144,37,1,38,matéz,matéz,ban,é,Ez itt egy matéz.,Ott vagyunk a...,matézben,matézban,dzsungel,NA,NA,PR2029,2001,férfi,nem,2022-04-08_19h33.01.333,hesp_baseline,2021.2.3,Win32,60.0240096
,,,,,,,,,,,,,,,,,brivakoztok,brivaklotok,left,3.633,0,145,145,134,1,27,brivaklik / brivakozik,"brivaklik, brivakozni",tek,NA,"János imád brivakozni, ezért sokat brivaklik.",Ti ritkán...,brivaklotok,brivakoztok,cselekszik,-lik,2,PR2029,2001,férfi,nem,2022-04-08_19h33.01.333,hesp_baseline,2021.2.3,Win32,60.0240096
,,,,,,,,,,,,,,,,,bralképben,bralképban,left,2.851,0,146,146,12,1,13,bralkép,bralkép,ban,é,Ez itt egy bralkép.,Ott vagyunk a...,bralképben,bralképban,dzsungel,NA,NA,PR2029,2001,férfi,nem,2022-04-08_19h33.01.333,hesp_baseline,2021.2.3,Win32,60.0240096
,,,,,,,,,,,,,,,,,brülösözünk,brülöslünk,right,4.164,0,147,147,109,1,2,brülöslik / brülösözik,"brülöslik, brülösözni",ünk,NA,"János imád brülösözni, ezért sokat brülöslik.",Mi ritkán...,brülöslünk,brülösözünk,cselekszik,-lik,2,PR2029,2001,férfi,nem,2022-04-08_19h33.01.333,hesp_baseline,2021.2.3,Win32,60.0240096
,,,,,,,,,,,,,,,,,zsalrénnak,zsalrénnek,right,1.398,0,148,148,19,1,20,zsalrén,zsalrén,nak,é,Ez itt egy zsalrén.,Elneveztem a kutyámat...,zsalrénnek,zsalrénnak,dzsungel,NA,NA,PR2029,2001,férfi,nem,2022-04-08_19h33.01.333,hesp_baseline,2021.2.3,Win32,60.0240096
,,,,,,,,,,,,,,,,,sihennál,sihennél,right,1.348,0,149,149,18,1,19,sihen,sihen,nál,e,Ez itt egy sihen.,Nincs is jobb egy jó...,sihennél,sihennál,dzsungel,NA,NA,PR2029,2001,férfi,nem,2022-04-08_19h33.01.333,hesp_baseline,2021.2.3,Win32,60.0240096
,,,,,,,,,,,,,,,,,marzok,marzom,left,1.256,0,150,150,99,1,46,marzik,marzol,NA,NA,Te bizony sokat marzol.,Én is sokat...,marzok,marzom,lakik,-zik,1,PR2029,2001,férfi,nem,2022-04-08_19h33.01.333,hesp_baseline,2021.2.3,Win32,60.0240096
,,,,,,,,,,,,,,,,,sprimlunk,sprimozunk,left,1.639,0,151,151,127,1,20,sprimlik / sprimozik,"sprimlik, sprimozni",ünk,NA,"János imád sprimozni, ezért sokat sprimlik.",Mi ritkán...,sprimlunk,sprimozunk,cselekszik,-lik,1,PR2029,2001,férfi,nem,2022-04-08_19h33.01.333,hesp_baseline,2021.2.3,Win32,60.0240096
,,,,,,,,,,,,,,,,,brobódzom,brobódzok,left,1.834,0,152,152,96,1,43,brobódzik,brobódzol,NA,NA,Te bizony sokat brobódzol.,Én is sokat...,brobódzok,brobódzom,lakik,-zik,2,PR2029,2001,férfi,nem,2022-04-08_19h33.01.333,hesp_baseline,2021.2.3,Win32,60.0240096
,,,,,,,,,,,,,,,,,nyülököznek,nyülöklenek,left,3.339,0,153,153,108,1,1,nyülöklik / nyülöközik,"nyülöklik, nyülöközni",nek,NA,"János imád nyülöközni, ezért sokat nyülöklik.",Ők ritkán...,nyülöklenek,nyülököznek,cselekszik,-lik,2,PR2029,2001,férfi,nem,2022-04-08_19h33.01.333,hesp_baseline,2021.2.3,Win32,60.0240096
,,,,,,,,,,,,,,,,,pisélyben,pisélyban,left,2.752,0,154,154,21,1,22,pisély,pisély,ban,é,Ez itt egy pisély.,Ott vagyunk a...,pisélyben,pisélyban,dzsungel,NA,NA,PR2029,2001,férfi,nem,2022-04-08_19h33.01.333,hesp_baseline,2021.2.3,Win32,60.0240096
,,,,,,,,,,,,,,,,,vanylok,vanylom,left,1.433,0,155,155,61,1,8,vanylik,vanylasz,NA,NA,Te bizony sokat vanylasz.,Én is sokat...,vanylok,vanylom,lakik,-lik,1,PR2029,2001,férfi,nem,2022-04-08_19h33.01.333,hesp_baseline,2021.2.3,Win32,60.0240096
,,,,,,,,,,,,,,,,,plövőrzök,plövőrzöm,left,1.239,0,156,156,58,1,5,plövőrzik,plövőrzöl,NA,NA,Te bizony sokat plövőrzöl.,Én is sokat...,plövőrzök,plövőrzöm,lakik,-zik,2,PR2029,2001,férfi,nem,2022-04-08_19h33.01.333,hesp_baseline,2021.2.3,Win32,60.0240096
,,,,,,,,,,,,,,,,,sztrajoznak,sztrajlanak,left,2.731,0,157,157,144,1,37,sztrajlik / sztrajozik,"sztrajlik, sztrajozni",nek,NA,"János imád sztrajozni, ezért sokat sztrajlik.",Ők ritkán...,sztrajlanak,sztrajoznak,cselekszik,-lik,1,PR2029,2001,férfi,nem,2022-04-08_19h33.01.333,hesp_baseline,2021.2.3,Win32,60.0240096
,,,,,,,,,,,,,,,,,hosétnek,hosétnak,left,2.302,0,158,158,8,1,9,hosét,hosét,nak,é,Ez itt egy hosét.,Elneveztem a kutyámat...,hosétnek,hosétnak,dzsungel,NA,NA,PR2029,2001,férfi,nem,2022-04-08_19h33.01.333,hesp_baseline,2021.2.3,Win32,60.0240096
,,,,,,,,,,,,,,,,,spivejlenek,spivejeznek,right,7.189,0,159,159,125,1,18,spivejlik / spivejezik,"spivejlik, spivejezni",nek,NA,"János imád spivejezni, ezért sokat spivejlik.",Ők ritkán...,spivejlenek,spivejeznek,cselekszik,-lik,2,PR2029,2001,férfi,nem,2022-04-08_19h33.01.333,hesp_baseline,2021.2.3,Win32,60.0240096
,,,,,,,,,,,,,,,,,feténylek,feténylem,left,2.282,0,160,160,85,1,32,feténylik,feténylesz,NA,NA,Te bizony sokat feténylesz.,Én is sokat...,feténylek,feténylem,lakik,-lik,2,PR2029,2001,férfi,nem,2022-04-08_19h33.01.333,hesp_baseline,2021.2.3,Win32,60.0240096
,,,,,,,,,,,,,,,,,incéjnak,incéjnek,left,2.551,0,161,161,30,1,31,incéj,incéj,nak,é,Ez itt egy incéj.,Elneveztem a kutyámat...,incéjnek,incéjnak,dzsungel,NA,NA,PR2029,2001,férfi,nem,2022-04-08_19h33.01.333,hesp_baseline,2021.2.3,Win32,60.0240096
