my_list,key.keys,key.rt,key_2.keys,key_2.rt,keyboard_input_2.keys,keyboard_input_2.rt,key_3.keys,key_3.rt,keyboard_input_3.keys,keyboard_input_3.rt,key_4.keys,key_4.rt,keyboard_input_4.keys,keyboard_input_4.rt,key_5.keys,key_5.rt,my_button1,my_button2,keyboard_input.keys,keyboard_input.rt,withinBlock.thisRepN,withinBlock.thisTrialN,withinBlock.thisN,withinBlock.thisIndex,withinBlock.ran,rowname,word,prompt,suffix,vowel,carrier_sentence,target_sentence,target1,target2,category,derivational,nsyl,Azonosító,Melyik évben születtél?,Mi a nemed?,Tanultál nyelvészetet?,date,expName,psychopyVersion,OS,frameRate
list3.csv,space,11.2745,space,11.2036,right,5.1905,space,5.0346,left,3.3359,space,1.348,left,7.7011,space,3.7728,vodecnél,vodecnál,left,4.6549,0,0,0,30,1,139,vodec,vodec,nál,e,Ez itt egy vodec.,Nincs is jobb egy jó...,vodecnél,vodecnál,dzsungel,NA,NA,PR2015,1999,férfi,nem,2022-04-05_19h42.36.623,hesp_baseline,2021.2.3,Win32,59.44243001
,,,,,,,,,,,,,,,,,sztruglom,sztruglok,right,7.1068,0,1,1,67,1,122,sztruglik,sztruglasz,NA,NA,Te bizony sokat sztruglasz.,Én is sokat...,sztruglok,sztruglom,lakik,-lik,1,PR2015,1999,férfi,nem,2022-04-05_19h42.36.623,hesp_baseline,2021.2.3,Win32,59.44243001
,,,,,,,,,,,,,,,,,spülöklöm,spülöklök,right,3.3891,0,2,2,56,1,111,spülöklik,spülöklesz,NA,NA,Te bizony sokat spülöklesz.,Én is sokat...,spülöklök,spülöklöm,lakik,-lik,2,PR2015,1999,férfi,nem,2022-04-05_19h42.36.623,hesp_baseline,2021.2.3,Win32,59.44243001
,,,,,,,,,,,,,,,,,sztrűkszöm,sztrűkszök,right,2.8876,0,3,3,77,1,132,sztrűkszik,sztrűkszöl,NA,NA,Te bizony sokat sztrűkszöl.,Én is sokat...,sztrűkszök,sztrűkszöm,lakik,-szik,1,PR2015,1999,férfi,nem,2022-04-05_19h42.36.623,hesp_baseline,2021.2.3,Win32,59.44243001
,,,,,,,,,,,,,,,,,zödlök,zödlöm,left,1.7896,0,4,4,106,1,161,zödlik,zödlesz,NA,NA,Te bizony sokat zödlesz.,Én is sokat...,zödlök,zödlöm,lakik,-lik,1,PR2015,1999,férfi,nem,2022-04-05_19h42.36.623,hesp_baseline,2021.2.3,Win32,59.44243001
,,,,,,,,,,,,,,,,,pijélnél,pijélnál,left,6.8239,0,5,5,3,1,112,pijél,pijél,nál,é,Ez itt egy pijél.,Nincs is jobb egy jó...,pijélnél,pijélnál,dzsungel,NA,NA,PR2015,1999,férfi,nem,2022-04-05_19h42.36.623,hesp_baseline,2021.2.3,Win32,59.44243001
,,,,,,,,,,,,,,,,,narjárzom,narjárzok,right,3.3535,0,6,6,61,1,116,narjárzik,narjárzol,NA,NA,Te bizony sokat narjárzol.,Én is sokat...,narjárzok,narjárzom,lakik,-zik,2,PR2015,1999,férfi,nem,2022-04-05_19h42.36.623,hesp_baseline,2021.2.3,Win32,59.44243001
,,,,,,,,,,,,,,,,,ronszekben,ronszekban,left,4.0536,0,7,7,18,1,127,ronszek,ronszek,ban,e,Ez itt egy ronszek.,Ott vagyunk a...,ronszekben,ronszekban,dzsungel,NA,NA,PR2015,1999,férfi,nem,2022-04-05_19h42.36.623,hesp_baseline,2021.2.3,Win32,59.44243001
,,,,,,,,,,,,,,,,,sztrijzok,sztrijzom,left,4.5053,0,8,8,68,1,123,sztrijzik,sztrijzol,NA,NA,Te bizony sokat sztrijzol.,Én is sokat...,sztrijzok,sztrijzom,lakik,-zik,1,PR2015,1999,férfi,nem,2022-04-05_19h42.36.623,hesp_baseline,2021.2.3,Win32,59.44243001
,,,,,,,,,,,,,,,,,bihánylom,bihánylok,right,3.5268,0,9,9,89,1,144,bihánylik,bihánylasz,NA,NA,Te bizony sokat bihánylasz.,Én is sokat...,bihánylok,bihánylom,lakik,-lik,2,PR2015,1999,férfi,nem,2022-04-05_19h42.36.623,hesp_baseline,2021.2.3,Win32,59.44243001
,,,,,,,,,,,,,,,,,brindeznek,brindeznak,left,2.5717,0,10,10,6,1,115,brindez,brindez,nak,e,Ez itt egy brindez.,Elneveztem a kutyámat...,brindeznek,brindeznak,dzsungel,NA,NA,PR2015,1999,férfi,nem,2022-04-05_19h42.36.623,hesp_baseline,2021.2.3,Win32,59.44243001
,,,,,,,,,,,,,,,,,piragszok,piragszom,left,1.807,0,11,11,83,1,138,piragszik,piragszol,NA,NA,Te bizony sokat piragszol.,Én is sokat...,piragszok,piragszom,lakik,-szik,2,PR2015,1999,férfi,nem,2022-04-05_19h42.36.623,hesp_baseline,2021.2.3,Win32,59.44243001
,,,,,,,,,,,,,,,,,zsáderban,zsáderben,right,1.4377,0,12,12,25,1,134,zsáder,zsáder,ban,e,Ez itt egy zsáder.,Ott vagyunk a...,zsáderben,zsáderban,dzsungel,NA,NA,PR2015,1999,férfi,nem,2022-04-05_19h42.36.623,hesp_baseline,2021.2.3,Win32,59.44243001
,,,,,,,,,,,,,,,,,bidemban,bidemben,right,1.6443,0,13,13,2,1,111,bidem,bidem,ban,e,Ez itt egy bidem.,Ott vagyunk a...,bidemben,bidemban,dzsungel,NA,NA,PR2015,1999,férfi,nem,2022-04-05_19h42.36.623,hesp_baseline,2021.2.3,Win32,59.44243001
,,,,,,,,,,,,,,,,,mágamozunk,mágamlunk,left,8.9572,0,14,14,140,1,141,mágamlik / mágamozik,"mágamlik, mágamozni",ünk,NA,"János imád mágamozni, ezért sokat mágamlik.",Mi ritkán...,mágamlunk,mágamozunk,cselekszik,-lik,2,PR2015,1999,férfi,nem,2022-04-05_19h42.36.623,hesp_baseline,2021.2.3,Win32,59.44243001
,,,,,,,,,,,,,,,,,gibemlünk,gibemezünk,right,1.9873,0,15,15,115,1,116,gibemlik / gibemezik,"gibemlik, gibemezni",ünk,NA,"János imád gibemezni, ezért sokat gibemlik.",Mi ritkán...,gibemlünk,gibemezünk,cselekszik,-lik,2,PR2015,1999,férfi,nem,2022-04-05_19h42.36.623,hesp_baseline,2021.2.3,Win32,59.44243001
,,,,,,,,,,,,,,,,,frilegszek,frilegszem,right,2.1405,0,16,16,72,1,127,frilegszik,frilegszel,NA,NA,Te bizony sokat frilegszel.,Én is sokat...,frilegszek,frilegszem,lakik,-szik,2,PR2015,1999,férfi,nem,2022-04-05_19h42.36.623,hesp_baseline,2021.2.3,Win32,59.44243001
,,,,,,,,,,,,,,,,,vileslünk,vilesezünk,right,5.1385,0,17,17,139,1,140,vileslik / vilesezik,"vileslik, vilesezni",ünk,NA,"János imád vilesezni, ezért sokat vileslik.",Mi ritkán...,vileslünk,vilesezünk,cselekszik,-lik,2,PR2015,1999,férfi,nem,2022-04-05_19h42.36.623,hesp_baseline,2021.2.3,Win32,59.44243001
,,,,,,,,,,,,,,,,,prezlem,prezlek,right,2.3584,0,18,18,87,1,142,prezlik,prezlesz,NA,NA,Te bizony sokat prezlesz.,Én is sokat...,prezlek,prezlem,lakik,-lik,1,PR2015,1999,férfi,nem,2022-04-05_19h42.36.623,hesp_baseline,2021.2.3,Win32,59.44243001
,,,,,,,,,,,,,,,,,spuborzanak,spuboroznak,right,13.1239,0,19,19,161,1,162,spuborzik / spuborozik,"spuborzik, spuborozni",nek,NA,"János imád spuborozni, ezért sokat spuborzik.",Ők ritkán...,spuborzanak,spuboroznak,cselekszik,-zik,2,PR2015,1999,férfi,nem,2022-04-05_19h42.36.623,hesp_baseline,2021.2.3,Win32,59.44243001
,,,,,,,,,,,,,,,,,trűnyöznek,trűnylenek,right,2.319,0,20,20,119,1,120,trűnylik / trűnyözik,"trűnylik, trűnyözni",nek,NA,"János imád trűnyözni, ezért sokat trűnylik.",Ők ritkán...,trűnylenek,trűnyöznek,cselekszik,-lik,1,PR2015,1999,férfi,nem,2022-04-05_19h42.36.623,hesp_baseline,2021.2.3,Win32,59.44243001
,,,,,,,,,,,,,,,,,nyupérnál,nyupérnél,right,2.3212,0,21,21,52,1,161,nyupér,nyupér,nál,é,Ez itt egy nyupér.,Nincs is jobb egy jó...,nyupérnél,nyupérnál,dzsungel,NA,NA,PR2015,1999,férfi,nem,2022-04-05_19h42.36.623,hesp_baseline,2021.2.3,Win32,59.44243001
,,,,,,,,,,,,,,,,,zsádévnak,zsádévnek,right,5.1212,0,22,22,20,1,129,zsádév,zsádév,nak,é,Ez itt egy zsádév.,Elneveztem a kutyámat...,zsádévnek,zsádévnak,dzsungel,NA,NA,PR2015,1999,férfi,nem,2022-04-05_19h42.36.623,hesp_baseline,2021.2.3,Win32,59.44243001
,,,,,,,,,,,,,,,,,klarágzotok,klarágoztok,left,4.7072,0,23,23,114,1,115,klarágzik / klarágozik,"klarágzik, klarágozni",tek,NA,"János imád klarágozni, ezért sokat klarágzik.",Ti ritkán...,klarágzotok,klarágoztok,cselekszik,-zik,2,PR2015,1999,férfi,nem,2022-04-05_19h42.36.623,hesp_baseline,2021.2.3,Win32,59.44243001
,,,,,,,,,,,,,,,,,sartelyban,sartelyben,right,3.1708,0,24,24,40,1,149,sartely,sartely,ban,e,Ez itt egy sartely.,Ott vagyunk a...,sartelyben,sartelyban,dzsungel,NA,NA,PR2015,1999,férfi,nem,2022-04-05_19h42.36.623,hesp_baseline,2021.2.3,Win32,59.44243001
,,,,,,,,,,,,,,,,,bűtszöm,bűtszök,right,1.8563,0,25,25,82,1,137,bűtszik,bűtszöl,NA,NA,Te bizony sokat bűtszöl.,Én is sokat...,bűtszök,bűtszöm,lakik,-szik,1,PR2015,1999,férfi,nem,2022-04-05_19h42.36.623,hesp_baseline,2021.2.3,Win32,59.44243001
,,,,,,,,,,,,,,,,,sűzlök,sűzlöm,left,1.3218,0,26,26,54,1,109,sűzlik,sűzlesz,NA,NA,Te bizony sokat sűzlesz.,Én is sokat...,sűzlök,sűzlöm,lakik,-lik,1,PR2015,1999,férfi,nem,2022-04-05_19h42.36.623,hesp_baseline,2021.2.3,Win32,59.44243001
,,,,,,,,,,,,,,,,,vűjlök,vűjlöm,left,1.2218,0,27,27,94,1,149,vűjlik,vűjlesz,NA,NA,Te bizony sokat vűjlesz.,Én is sokat...,vűjlök,vűjlöm,lakik,-lik,1,PR2015,1999,férfi,nem,2022-04-05_19h42.36.623,hesp_baseline,2021.2.3,Win32,59.44243001
,,,,,,,,,,,,,,,,,bratároznak,bratárzanak,left,4.6225,0,28,28,108,1,109,bratárzik / bratározik,"bratárzik, bratározni",nek,NA,"János imád bratározni, ezért sokat bratárzik.",Ők ritkán...,bratárzanak,bratároznak,cselekszik,-zik,2,PR2015,1999,férfi,nem,2022-04-05_19h42.36.623,hesp_baseline,2021.2.3,Win32,59.44243001
,,,,,,,,,,,,,,,,,brüjlöm,brüjlök,left,1.8736,0,29,29,55,1,110,brüjlik,brüjlesz,NA,NA,Te bizony sokat brüjlesz.,Én is sokat...,brüjlök,brüjlöm,lakik,-lik,1,PR2015,1999,férfi,nem,2022-04-05_19h42.36.623,hesp_baseline,2021.2.3,Win32,59.44243001
,,,,,,,,,,,,,,,,,huméknek,huméknak,left,1.4737,0,30,30,23,1,132,humék,humék,nak,é,Ez itt egy humék.,Elneveztem a kutyámat...,huméknek,huméknak,dzsungel,NA,NA,PR2015,1999,férfi,nem,2022-04-05_19h42.36.623,hesp_baseline,2021.2.3,Win32,59.44243001
,,,,,,,,,,,,,,,,,triklotok,trikoztok,right,1.3869,0,31,31,160,1,161,triklik / trikozik,"triklik, trikozni",tek,NA,"János imád trikozni, ezért sokat triklik.",Ti ritkán...,triklotok,trikoztok,cselekszik,-lik,1,PR2015,1999,férfi,nem,2022-04-05_19h42.36.623,hesp_baseline,2021.2.3,Win32,59.44243001
,,,,,,,,,,,,,,,,,trincsegban,trincsegben,right,1.4544,0,32,32,46,1,155,trincseg,trincseg,ban,e,Ez itt egy trincseg.,Ott vagyunk a...,trincsegben,trincsegban,dzsungel,NA,NA,PR2015,1999,férfi,nem,2022-04-05_19h42.36.623,hesp_baseline,2021.2.3,Win32,59.44243001
,,,,,,,,,,,,,,,,,gicéjnál,gicéjnél,right,1.2549,0,33,33,17,1,126,gicéj,gicéj,nál,é,Ez itt egy gicéj.,Nincs is jobb egy jó...,gicéjnél,gicéjnál,dzsungel,NA,NA,PR2015,1999,férfi,nem,2022-04-05_19h42.36.623,hesp_baseline,2021.2.3,Win32,59.44243001
,,,,,,,,,,,,,,,,,szutendban,szutendben,right,1.8385,0,34,34,11,1,120,szutend,szutend,ban,e,Ez itt egy szutend.,Ott vagyunk a...,szutendben,szutendban,dzsungel,NA,NA,PR2015,1999,férfi,nem,2022-04-05_19h42.36.623,hesp_baseline,2021.2.3,Win32,59.44243001
,,,,,,,,,,,,,,,,,finceknál,finceknél,right,1.3384,0,35,35,9,1,118,fincek,fincek,nál,e,Ez itt egy fincek.,Nincs is jobb egy jó...,finceknél,finceknál,dzsungel,NA,NA,PR2015,1999,férfi,nem,2022-04-05_19h42.36.623,hesp_baseline,2021.2.3,Win32,59.44243001
,,,,,,,,,,,,,,,,,klivaslok,klivaslom,right,1.7204,0,36,36,62,1,117,klivaslik,klivaslasz,NA,NA,Te bizony sokat klivaslasz.,Én is sokat...,klivaslok,klivaslom,lakik,-lik,2,PR2015,1999,férfi,nem,2022-04-05_19h42.36.623,hesp_baseline,2021.2.3,Win32,59.44243001
,,,,,,,,,,,,,,,,,tűgzötök,tűgöztök,left,5.7367,0,37,37,143,1,144,tűgzik / tűgözik,"tűgzik, tűgözni",tek,NA,"János imád tűgözni, ezért sokat tűgzik.",Ti ritkán...,tűgzötök,tűgöztök,cselekszik,-zik,1,PR2015,1999,férfi,nem,2022-04-05_19h42.36.623,hesp_baseline,2021.2.3,Win32,59.44243001
,,,,,,,,,,,,,,,,,böjzöm,böjzök,left,1.6206,0,38,38,80,1,135,böjzik,böjzöl,NA,NA,Te bizony sokat böjzöl.,Én is sokat...,böjzök,böjzöm,lakik,-zik,1,PR2015,1999,férfi,nem,2022-04-05_19h42.36.623,hesp_baseline,2021.2.3,Win32,59.44243001
,,,,,,,,,,,,,,,,,ibékszem,ibékszek,right,1.2598,0,39,39,95,1,150,ibékszik,ibékszel,NA,NA,Te bizony sokat ibékszel.,Én is sokat...,ibékszek,ibékszem,lakik,-szik,2,PR2015,1999,férfi,nem,2022-04-05_19h42.36.623,hesp_baseline,2021.2.3,Win32,59.44243001
,,,,,,,,,,,,,,,,,tibaroznak,tibarzanak,left,2.3861,0,40,40,155,1,156,tibarzik / tibarozik,"tibarzik, tibarozni",nek,NA,"János imád tibarozni, ezért sokat tibarzik.",Ők ritkán...,tibarzanak,tibaroznak,cselekszik,-zik,2,PR2015,1999,férfi,nem,2022-04-05_19h42.36.623,hesp_baseline,2021.2.3,Win32,59.44243001
,,,,,,,,,,,,,,,,,hágyétnak,hágyétnek,right,1.1883,0,41,41,42,1,151,hágyét,hágyét,nak,é,Ez itt egy hágyét.,Elneveztem a kutyámat...,hágyétnek,hágyétnak,dzsungel,NA,NA,PR2015,1999,férfi,nem,2022-04-05_19h42.36.623,hesp_baseline,2021.2.3,Win32,59.44243001
,,,,,,,,,,,,,,,,,gyibakszom,gyibakszok,right,1.6024,0,42,42,57,1,112,gyibakszik,gyibakszol,NA,NA,Te bizony sokat gyibakszol.,Én is sokat...,gyibakszok,gyibakszom,lakik,-szik,2,PR2015,1999,férfi,nem,2022-04-05_19h42.36.623,hesp_baseline,2021.2.3,Win32,59.44243001
,,,,,,,,,,,,,,,,,prűrlöm,prűrlök,right,1.1432,0,43,43,75,1,130,prűrlik,prűrlesz,NA,NA,Te bizony sokat prűrlesz.,Én is sokat...,prűrlök,prűrlöm,lakik,-lik,1,PR2015,1999,férfi,nem,2022-04-05_19h42.36.623,hesp_baseline,2021.2.3,Win32,59.44243001
,,,,,,,,,,,,,,,,,klosétnak,klosétnek,right,1.1867,0,44,44,45,1,154,klosét,klosét,nak,é,Ez itt egy klosét.,Elneveztem a kutyámat...,klosétnek,klosétnak,dzsungel,NA,NA,PR2015,1999,férfi,nem,2022-04-05_19h42.36.623,hesp_baseline,2021.2.3,Win32,59.44243001
,,,,,,,,,,,,,,,,,spülőrzök,spülőrzöm,left,1.1553,0,45,45,69,1,124,spülőrzik,spülőrzöl,NA,NA,Te bizony sokat spülőrzöl.,Én is sokat...,spülőrzök,spülőrzöm,lakik,-zik,2,PR2015,1999,férfi,nem,2022-04-05_19h42.36.623,hesp_baseline,2021.2.3,Win32,59.44243001
,,,,,,,,,,,,,,,,,zábénynek,zábénynak,left,0.9399,0,46,46,43,1,152,zábény,zábény,nak,é,Ez itt egy zábény.,Elneveztem a kutyámat...,zábénynek,zábénynak,dzsungel,NA,NA,PR2015,1999,férfi,nem,2022-04-05_19h42.36.623,hesp_baseline,2021.2.3,Win32,59.44243001
,,,,,,,,,,,,,,,,,trehégszem,trehégszek,right,1.5208,0,47,47,86,1,141,trehégszik,trehégszel,NA,NA,Te bizony sokat trehégszel.,Én is sokat...,trehégszek,trehégszem,lakik,-szik,2,PR2015,1999,férfi,nem,2022-04-05_19h42.36.623,hesp_baseline,2021.2.3,Win32,59.44243001
,,,,,,,,,,,,,,,,,dalencnál,dalencnél,right,1.3885,0,48,48,31,1,140,dalenc,dalenc,nál,e,Ez itt egy dalenc.,Nincs is jobb egy jó...,dalencnél,dalencnál,dzsungel,NA,NA,PR2015,1999,férfi,nem,2022-04-05_19h42.36.623,hesp_baseline,2021.2.3,Win32,59.44243001
,,,,,,,,,,,,,,,,,filánylunk,filányozunk,right,5.4864,0,49,49,134,1,135,filánylik / filányozik,"filánylik, filányozni",ünk,NA,"János imád filányozni, ezért sokat filánylik.",Mi ritkán...,filánylunk,filányozunk,cselekszik,-lik,2,PR2015,1999,férfi,nem,2022-04-05_19h42.36.623,hesp_baseline,2021.2.3,Win32,59.44243001
,,,,,,,,,,,,,,,,,szihétnak,szihétnek,right,1.57,0,50,50,4,1,113,szihét,szihét,nak,é,Ez itt egy szihét.,Elneveztem a kutyámat...,szihétnek,szihétnak,dzsungel,NA,NA,PR2015,1999,férfi,nem,2022-04-05_19h42.36.623,hesp_baseline,2021.2.3,Win32,59.44243001
,,,,,,,,,,,,,,,,,lismévban,lismévben,right,2.3426,0,51,51,0,1,109,lismév,lismév,ban,é,Ez itt egy lismév.,Ott vagyunk a...,lismévben,lismévban,dzsungel,NA,NA,PR2015,1999,férfi,nem,2022-04-05_19h42.36.623,hesp_baseline,2021.2.3,Win32,59.44243001
,,,,,,,,,,,,,,,,,lumlotok,lumoztok,right,3.6762,0,52,52,149,1,150,lumlik / lumozik,"lumlik, lumozni",tek,NA,"János imád lumozni, ezért sokat lumlik.",Ti ritkán...,lumlotok,lumoztok,cselekszik,-lik,1,PR2015,1999,férfi,nem,2022-04-05_19h42.36.623,hesp_baseline,2021.2.3,Win32,59.44243001
,,,,,,,,,,,,,,,,,plágadzok,plágadzom,right,1.2379,0,53,53,74,1,129,plágadzik,plágadzol,NA,NA,Te bizony sokat plágadzol.,Én is sokat...,plágadzok,plágadzom,lakik,-zik,2,PR2015,1999,férfi,nem,2022-04-05_19h42.36.623,hesp_baseline,2021.2.3,Win32,59.44243001
,,,,,,,,,,,,,,,,,bupézben,bupézban,left,0.9577,0,54,54,48,1,157,bupéz,bupéz,ban,é,Ez itt egy bupéz.,Ott vagyunk a...,bupézben,bupézban,dzsungel,NA,NA,PR2015,1999,férfi,nem,2022-04-05_19h42.36.623,hesp_baseline,2021.2.3,Win32,59.44243001
,,,,,,,,,,,,,,,,,brotesban,brotesben,right,1.355,0,55,55,53,1,162,brotes,brotes,ban,e,Ez itt egy brotes.,Ott vagyunk a...,brotesben,brotesban,dzsungel,NA,NA,PR2015,1999,férfi,nem,2022-04-05_19h42.36.623,hesp_baseline,2021.2.3,Win32,59.44243001
,,,,,,,,,,,,,,,,,pribagszok,pribagszom,left,2.1552,0,56,56,76,1,131,pribagszik,pribagszol,NA,NA,Te bizony sokat pribagszol.,Én is sokat...,pribagszok,pribagszom,lakik,-szik,2,PR2015,1999,férfi,nem,2022-04-05_19h42.36.623,hesp_baseline,2021.2.3,Win32,59.44243001
,,,,,,,,,,,,,,,,,trádlok,trádlom,right,1.37,0,57,57,105,1,160,trádlik,trádlasz,NA,NA,Te bizony sokat trádlasz.,Én is sokat...,trádlok,trádlom,lakik,-lik,1,PR2015,1999,férfi,nem,2022-04-05_19h42.36.623,hesp_baseline,2021.2.3,Win32,59.44243001
,,,,,,,,,,,,,,,,,frálapodtok,frálapszotok,left,1.2702,0,58,58,150,1,151,frálapszik / frálapodik,"frálapszik, frálapodni",tek,NA,"János imád frálapodni, ezért sokat frálapszik.",Ti ritkán...,frálapszotok,frálapodtok,cselekszik,-szik,2,PR2015,1999,férfi,nem,2022-04-05_19h42.36.623,hesp_baseline,2021.2.3,Win32,59.44243001
,,,,,,,,,,,,,,,,,pragányoztok,pragánylotok,right,2.4575,0,59,59,133,1,134,pragánylik / pragányozik,"pragánylik, pragányozni",tek,NA,"János imád pragányozni, ezért sokat pragánylik.",Ti ritkán...,pragánylotok,pragányoztok,cselekszik,-lik,2,PR2015,1999,férfi,nem,2022-04-05_19h42.36.623,hesp_baseline,2021.2.3,Win32,59.44243001
,,,,,,,,,,,,,,,,,vurnelnak,vurnelnek,right,1.0433,0,60,60,50,1,159,vurnel,vurnel,nak,e,Ez itt egy vurnel.,Elneveztem a kutyámat...,vurnelnek,vurnelnak,dzsungel,NA,NA,PR2015,1999,férfi,nem,2022-04-05_19h42.36.623,hesp_baseline,2021.2.3,Win32,59.44243001
,,,,,,,,,,,,,,,,,vobzotok,voboztok,right,1.2694,0,61,61,158,1,159,vobzik / vobozik,"vobzik, vobozni",tek,NA,"János imád vobozni, ezért sokat vobzik.",Ti ritkán...,vobzotok,voboztok,cselekszik,-zik,1,PR2015,1999,férfi,nem,2022-04-05_19h42.36.623,hesp_baseline,2021.2.3,Win32,59.44243001
,,,,,,,,,,,,,,,,,bivejlek,bivejlem,left,1.1882,0,62,62,73,1,128,bivejlik,bivejlesz,NA,NA,Te bizony sokat bivejlesz.,Én is sokat...,bivejlek,bivejlem,lakik,-lik,2,PR2015,1999,férfi,nem,2022-04-05_19h42.36.623,hesp_baseline,2021.2.3,Win32,59.44243001
,,,,,,,,,,,,,,,,,brárlanak,brároznak,left,0.4857,0,63,63,126,1,127,brárlik / brározik,"brárlik, brározni",nek,NA,"János imád brározni, ezért sokat brárlik.",Ők ritkán...,brárlanak,brároznak,cselekszik,-lik,1,PR2015,1999,férfi,nem,2022-04-05_19h42.36.623,hesp_baseline,2021.2.3,Win32,59.44243001
,,,,,,,,,,,,,,,,,murdesnél,murdesnál,left,1.0384,0,64,64,47,1,156,murdes,murdes,nál,e,Ez itt egy murdes.,Nincs is jobb egy jó...,murdesnél,murdesnál,dzsungel,NA,NA,PR2015,1999,férfi,nem,2022-04-05_19h42.36.623,hesp_baseline,2021.2.3,Win32,59.44243001
,,,,,,,,,,,,,,,,,brilegzünk,brilegezünk,right,3.3699,0,65,65,124,1,125,brilegzik / brilegezik,"brilegzik, brilegezni",ünk,NA,"János imád brilegezni, ezért sokat brilegzik.",Mi ritkán...,brilegzünk,brilegezünk,cselekszik,-zik,2,PR2015,1999,férfi,nem,2022-04-05_19h42.36.623,hesp_baseline,2021.2.3,Win32,59.44243001
,,,,,,,,,,,,,,,,,zinednek,zinednak,left,1.6051,0,66,66,22,1,131,zined,zined,nak,e,Ez itt egy zined.,Elneveztem a kutyámat...,zinednek,zinednak,dzsungel,NA,NA,PR2015,1999,férfi,nem,2022-04-05_19h42.36.623,hesp_baseline,2021.2.3,Win32,59.44243001
,,,,,,,,,,,,,,,,,trilekszetek,trilekedtek,left,1.82,0,67,67,157,1,158,trilekszik / trilekedik,"trilekszik, trilekedni",tek,NA,"János imád trilekedni, ezért sokat trilekszik.",Ti ritkán...,trilekszetek,trilekedtek,cselekszik,-szik,2,PR2015,1999,férfi,nem,2022-04-05_19h42.36.623,hesp_baseline,2021.2.3,Win32,59.44243001
,,,,,,,,,,,,,,,,,sztritoznak,sztritlanak,left,2.1878,0,68,68,154,1,155,sztritlik / sztritozik,"sztritlik, sztritozni",nek,NA,"János imád sztritozni, ezért sokat sztritlik.",Ők ritkán...,sztritlanak,sztritoznak,cselekszik,-lik,1,PR2015,1999,férfi,nem,2022-04-05_19h42.36.623,hesp_baseline,2021.2.3,Win32,59.44243001
,,,,,,,,,,,,,,,,,briváglanak,brivágoznak,left,2.2372,0,69,69,138,1,139,briváglik / brivágozik,"briváglik, brivágozni",nek,NA,"János imád brivágozni, ezért sokat briváglik.",Ők ritkán...,briváglanak,brivágoznak,cselekszik,-lik,2,PR2015,1999,férfi,nem,2022-04-05_19h42.36.623,hesp_baseline,2021.2.3,Win32,59.44243001
,,,,,,,,,,,,,,,,,lűklenek,lűköznek,left,1.8032,0,70,70,136,1,137,lűklik / lűközik,"lűklik, lűközni",nek,NA,"János imád lűközni, ezért sokat lűklik.",Ők ritkán...,lűklenek,lűköznek,cselekszik,-lik,1,PR2015,1999,férfi,nem,2022-04-05_19h42.36.623,hesp_baseline,2021.2.3,Win32,59.44243001
,,,,,,,,,,,,,,,,,surnegynál,surnegynél,left,2.6227,0,71,71,8,1,117,surnegy,surnegy,nál,e,Ez itt egy surnegy.,Nincs is jobb egy jó...,surnegynél,surnegynál,dzsungel,NA,NA,PR2015,1999,férfi,nem,2022-04-05_19h42.36.623,hesp_baseline,2021.2.3,Win32,59.44243001
,,,,,,,,,,,,,,,,,trálaklanak,trálakoznak,left,2.3535,0,72,72,116,1,117,trálaklik / trálakozik,"trálaklik, trálakozni",nek,NA,"János imád trálakozni, ezért sokat trálaklik.",Ők ritkán...,trálaklanak,trálakoznak,cselekszik,-lik,2,PR2015,1999,férfi,nem,2022-04-05_19h42.36.623,hesp_baseline,2021.2.3,Win32,59.44243001
,,,,,,,,,,,,,,,,,diroztok,dirlotok,left,1.9024,0,73,73,148,1,149,dirlik / dirozik,"dirlik, dirozni",tek,NA,"János imád dirozni, ezért sokat dirlik.",Ti ritkán...,dirlotok,diroztok,cselekszik,-lik,1,PR2015,1999,férfi,nem,2022-04-05_19h42.36.623,hesp_baseline,2021.2.3,Win32,59.44243001
,,,,,,,,,,,,,,,,,dorzéjnak,dorzéjnek,right,1.3361,0,74,74,29,1,138,dorzéj,dorzéj,nak,é,Ez itt egy dorzéj.,Elneveztem a kutyámat...,dorzéjnek,dorzéjnak,dzsungel,NA,NA,PR2015,1999,férfi,nem,2022-04-05_19h42.36.623,hesp_baseline,2021.2.3,Win32,59.44243001
,,,,,,,,,,,,,,,,,klárzom,klárzok,right,3.055,0,75,75,85,1,140,klárzik,klárzol,NA,NA,Te bizony sokat klárzol.,Én is sokat...,klárzok,klárzom,lakik,-zik,1,PR2015,1999,férfi,nem,2022-04-05_19h42.36.623,hesp_baseline,2021.2.3,Win32,59.44243001
,,,,,,,,,,,,,,,,,siladzom,siladzok,right,1.7724,0,76,76,93,1,148,siladzik,siladzol,NA,NA,Te bizony sokat siladzol.,Én is sokat...,siladzok,siladzom,lakik,-zik,2,PR2015,1999,férfi,nem,2022-04-05_19h42.36.623,hesp_baseline,2021.2.3,Win32,59.44243001
,,,,,,,,,,,,,,,,,treglem,treglek,right,2.1374,0,77,77,81,1,136,treglik,treglesz,NA,NA,Te bizony sokat treglesz.,Én is sokat...,treglek,treglem,lakik,-lik,1,PR2015,1999,férfi,nem,2022-04-05_19h42.36.623,hesp_baseline,2021.2.3,Win32,59.44243001
,,,,,,,,,,,,,,,,,drivegeztek,drivegzetek,left,3.4562,0,78,78,112,1,113,drivegzik / drivegezik,"drivegzik, drivegezni",tek,NA,"János imád drivegezni, ezért sokat drivegzik.",Ti ritkán...,drivegzetek,drivegeztek,cselekszik,-zik,2,PR2015,1999,férfi,nem,2022-04-05_19h42.36.623,hesp_baseline,2021.2.3,Win32,59.44243001
,,,,,,,,,,,,,,,,,virzanak,viroznak,left,3.0223,0,79,79,125,1,126,virzik / virozik,"virzik, virozni",nek,NA,"János imád virozni, ezért sokat virzik.",Ők ritkán...,virzanak,viroznak,cselekszik,-zik,1,PR2015,1999,férfi,nem,2022-04-05_19h42.36.623,hesp_baseline,2021.2.3,Win32,59.44243001
,,,,,,,,,,,,,,,,,klibamlok,klibamlom,left,2.4877,0,80,80,92,1,147,klibamlik,klibamlasz,NA,NA,Te bizony sokat klibamlasz.,Én is sokat...,klibamlok,klibamlom,lakik,-lik,2,PR2015,1999,férfi,nem,2022-04-05_19h42.36.623,hesp_baseline,2021.2.3,Win32,59.44243001
,,,,,,,,,,,,,,,,,gerénylem,gerénylek,right,1.8379,0,81,81,99,1,154,gerénylik,gerénylesz,NA,NA,Te bizony sokat gerénylesz.,Én is sokat...,gerénylek,gerénylem,lakik,-lik,2,PR2015,1999,férfi,nem,2022-04-05_19h42.36.623,hesp_baseline,2021.2.3,Win32,59.44243001
,,,,,,,,,,,,,,,,,drubódzom,drubódzok,right,1.471,0,82,82,63,1,118,drubódzik,drubódzol,NA,NA,Te bizony sokat drubódzol.,Én is sokat...,drubódzok,drubódzom,lakik,-zik,2,PR2015,1999,férfi,nem,2022-04-05_19h42.36.623,hesp_baseline,2021.2.3,Win32,59.44243001
,,,,,,,,,,,,,,,,,zatéjnál,zatéjnél,right,1.0393,0,83,83,34,1,143,zatéj,zatéj,nál,é,Ez itt egy zatéj.,Nincs is jobb egy jó...,zatéjnél,zatéjnál,dzsungel,NA,NA,PR2015,1999,férfi,nem,2022-04-05_19h42.36.623,hesp_baseline,2021.2.3,Win32,59.44243001
,,,,,,,,,,,,,,,,,kábesznál,kábesznél,right,1.1182,0,84,84,44,1,153,kábesz,kábesz,nál,e,Ez itt egy kábesz.,Nincs is jobb egy jó...,kábesznél,kábesznál,dzsungel,NA,NA,PR2015,1999,férfi,nem,2022-04-05_19h42.36.623,hesp_baseline,2021.2.3,Win32,59.44243001
,,,,,,,,,,,,,,,,,pristélben,pristélban,left,1.6892,0,85,85,1,1,110,pristél,pristél,ban,é,Ez itt egy pristél.,Ott vagyunk a...,pristélben,pristélban,dzsungel,NA,NA,PR2015,1999,férfi,nem,2022-04-05_19h42.36.623,hesp_baseline,2021.2.3,Win32,59.44243001
,,,,,,,,,,,,,,,,,vehékszünk,vehékedünk,left,3.9535,0,86,86,117,1,118,vehékszik / vehékedik,"vehékszik, vehékedni",ünk,NA,"János imád vehékedni, ezért sokat vehékszik.",Mi ritkán...,vehékszünk,vehékedünk,cselekszik,-szik,2,PR2015,1999,férfi,nem,2022-04-05_19h42.36.623,hesp_baseline,2021.2.3,Win32,59.44243001
,,,,,,,,,,,,,,,,,tuboklok,tuboklom,left,1.9262,0,87,87,84,1,139,tuboklik,tuboklasz,NA,NA,Te bizony sokat tuboklasz.,Én is sokat...,tuboklok,tuboklom,lakik,-lik,2,PR2015,1999,férfi,nem,2022-04-05_19h42.36.623,hesp_baseline,2021.2.3,Win32,59.44243001
,,,,,,,,,,,,,,,,,spatelnak,spatelnek,right,1.2765,0,88,88,21,1,130,spatel,spatel,nak,e,Ez itt egy spatel.,Elneveztem a kutyámat...,spatelnek,spatelnak,dzsungel,NA,NA,PR2015,1999,férfi,nem,2022-04-05_19h42.36.623,hesp_baseline,2021.2.3,Win32,59.44243001
,,,,,,,,,,,,,,,,,trismélnak,trismélnek,right,0.9717,0,89,89,5,1,114,trismél,trismél,nak,é,Ez itt egy trismél.,Elneveztem a kutyámat...,trismélnek,trismélnak,dzsungel,NA,NA,PR2015,1999,férfi,nem,2022-04-05_19h42.36.623,hesp_baseline,2021.2.3,Win32,59.44243001
,,,,,,,,,,,,,,,,,nágapszanak,nágapodnak,left,2.1756,0,90,90,152,1,153,nágapszik / nágapodik,"nágapszik, nágapodni",nek,NA,"János imád nágapodni, ezért sokat nágapszik.",Ők ritkán...,nágapszanak,nágapodnak,cselekszik,-szik,2,PR2015,1999,férfi,nem,2022-04-05_19h42.36.623,hesp_baseline,2021.2.3,Win32,59.44243001
,,,,,,,,,,,,,,,,,spuménynak,spuménynek,right,1.2723,0,91,91,19,1,128,spumény,spumény,nak,é,Ez itt egy spumény.,Elneveztem a kutyámat...,spuménynek,spuménynak,dzsungel,NA,NA,PR2015,1999,férfi,nem,2022-04-05_19h42.36.623,hesp_baseline,2021.2.3,Win32,59.44243001
,,,,,,,,,,,,,,,,,sprivencnál,sprivencnél,right,1.1724,0,92,92,13,1,122,sprivenc,sprivenc,nál,e,Ez itt egy sprivenc.,Nincs is jobb egy jó...,sprivencnél,sprivencnál,dzsungel,NA,NA,PR2015,1999,férfi,nem,2022-04-05_19h42.36.623,hesp_baseline,2021.2.3,Win32,59.44243001
,,,,,,,,,,,,,,,,,bródesznak,bródesznek,right,1.5212,0,93,93,32,1,141,bródesz,bródesz,nak,e,Ez itt egy bródesz.,Elneveztem a kutyámat...,bródesznek,bródesznak,dzsungel,NA,NA,PR2015,1999,férfi,nem,2022-04-05_19h42.36.623,hesp_baseline,2021.2.3,Win32,59.44243001
,,,,,,,,,,,,,,,,,ribegszetek,ribegedtek,right,1.375,0,94,94,141,1,142,ribegszik / ribegedik,"ribegszik, ribegedni",tek,NA,"János imád ribegedni, ezért sokat ribegszik.",Ti ritkán...,ribegszetek,ribegedtek,cselekszik,-szik,2,PR2015,1999,férfi,nem,2022-04-05_19h42.36.623,hesp_baseline,2021.2.3,Win32,59.44243001
,,,,,,,,,,,,,,,,,frivajlok,frivajlom,left,2.1719,0,95,95,78,1,133,frivajlik,frivajlasz,NA,NA,Te bizony sokat frivajlasz.,Én is sokat...,frivajlok,frivajlom,lakik,-lik,2,PR2015,1999,férfi,nem,2022-04-05_19h42.36.623,hesp_baseline,2021.2.3,Win32,59.44243001
,,,,,,,,,,,,,,,,,pehégedtek,pehégszetek,left,1.4878,0,96,96,151,1,152,pehégszik / pehégedik,"pehégszik, pehégedni",tek,NA,"János imád pehégedni, ezért sokat pehégszik.",Ti ritkán...,pehégszetek,pehégedtek,cselekszik,-szik,2,PR2015,1999,férfi,nem,2022-04-05_19h42.36.623,hesp_baseline,2021.2.3,Win32,59.44243001
,,,,,,,,,,,,,,,,,pazévnél,pazévnál,left,1.3377,0,97,97,36,1,145,pazév,pazév,nál,é,Ez itt egy pazév.,Nincs is jobb egy jó...,pazévnél,pazévnál,dzsungel,NA,NA,PR2015,1999,férfi,nem,2022-04-05_19h42.36.623,hesp_baseline,2021.2.3,Win32,59.44243001
,,,,,,,,,,,,,,,,,táklom,táklok,right,3.9381,0,98,98,79,1,134,táklik,táklasz,NA,NA,Te bizony sokat táklasz.,Én is sokat...,táklok,táklom,lakik,-lik,1,PR2015,1999,férfi,nem,2022-04-05_19h42.36.623,hesp_baseline,2021.2.3,Win32,59.44243001
,,,,,,,,,,,,,,,,,flugonyoznak,flugonylanak,right,1.5226,0,99,99,111,1,112,flugonylik / flugonyozik,"flugonylik, flugonyozni",nek,NA,"János imád flugonyozni, ezért sokat flugonylik.",Ők ritkán...,flugonylanak,flugonyoznak,cselekszik,-lik,2,PR2015,1999,férfi,nem,2022-04-05_19h42.36.623,hesp_baseline,2021.2.3,Win32,59.44243001
,,,,,,,,,,,,,,,,,hűgzök,hűgzöm,left,1.4255,0,100,100,107,1,162,hűgzik,hűgzöl,NA,NA,Te bizony sokat hűgzöl.,Én is sokat...,hűgzök,hűgzöm,lakik,-zik,1,PR2015,1999,férfi,nem,2022-04-05_19h42.36.623,hesp_baseline,2021.2.3,Win32,59.44243001
,,,,,,,,,,,,,,,,,spibamlanak,spibamoznak,right,2.2199,0,101,101,142,1,143,spibamlik / spibamozik,"spibamlik, spibamozni",nek,NA,"János imád spibamozni, ezért sokat spibamlik.",Ők ritkán...,spibamlanak,spibamoznak,cselekszik,-lik,2,PR2015,1999,férfi,nem,2022-04-05_19h42.36.623,hesp_baseline,2021.2.3,Win32,59.44243001
,,,,,,,,,,,,,,,,,dralágozunk,dralágzunk,right,1.5061,0,102,102,156,1,157,dralágzik / dralágozik,"dralágzik, dralágozni",ünk,NA,"János imád dralágozni, ezért sokat dralágzik.",Mi ritkán...,dralágzunk,dralágozunk,cselekszik,-zik,2,PR2015,1999,férfi,nem,2022-04-05_19h42.36.623,hesp_baseline,2021.2.3,Win32,59.44243001
,,,,,,,,,,,,,,,,,spírzom,spírzok,right,1.6387,0,103,103,64,1,119,spírzik,spírzol,NA,NA,Te bizony sokat spírzol.,Én is sokat...,spírzok,spírzom,lakik,-zik,1,PR2015,1999,férfi,nem,2022-04-05_19h42.36.623,hesp_baseline,2021.2.3,Win32,59.44243001
,,,,,,,,,,,,,,,,,brálamoznak,brálamlanak,left,1.756,0,104,104,144,1,145,brálamlik / brálamozik,"brálamlik, brálamozni",nek,NA,"János imád brálamozni, ezért sokat brálamlik.",Ők ritkán...,brálamlanak,brálamoznak,cselekszik,-lik,2,PR2015,1999,férfi,nem,2022-04-05_19h42.36.623,hesp_baseline,2021.2.3,Win32,59.44243001
,,,,,,,,,,,,,,,,,sprálszok,sprálszom,right,1.1524,0,105,105,65,1,120,sprálszik,sprálszol,NA,NA,Te bizony sokat sprálszol.,Én is sokat...,sprálszok,sprálszom,lakik,-szik,1,PR2015,1999,férfi,nem,2022-04-05_19h42.36.623,hesp_baseline,2021.2.3,Win32,59.44243001
,,,,,,,,,,,,,,,,,dibezban,dibezben,left,0.4379,0,106,106,27,1,136,dibez,dibez,ban,e,Ez itt egy dibez.,Ott vagyunk a...,dibezben,dibezban,dzsungel,NA,NA,PR2015,1999,férfi,nem,2022-04-05_19h42.36.623,hesp_baseline,2021.2.3,Win32,59.44243001
,,,,,,,,,,,,,,,,,kláragodtok,kláragszotok,left,0.4244,0,107,107,123,1,124,kláragszik / kláragodik,"kláragszik, kláragodni",tek,NA,"János imád kláragodni, ezért sokat kláragszik.",Ti ritkán...,kláragszotok,kláragodtok,cselekszik,-szik,2,PR2015,1999,férfi,nem,2022-04-05_19h42.36.623,hesp_baseline,2021.2.3,Win32,59.44243001
,,,,,,,,,,,,,,,,,danétnál,danétnél,right,0.6037,0,108,108,38,1,147,danét,danét,nál,é,Ez itt egy danét.,Nincs is jobb egy jó...,danétnél,danétnál,dzsungel,NA,NA,PR2015,1999,férfi,nem,2022-04-05_19h42.36.623,hesp_baseline,2021.2.3,Win32,59.44243001
,,,,,,,,,,,,,,,,,flököztök,flöklötök,right,0.6716,0,109,109,121,1,122,flöklik / flöközik,"flöklik, flöközni",tek,NA,"János imád flöközni, ezért sokat flöklik.",Ti ritkán...,flöklötök,flököztök,cselekszik,-lik,1,PR2015,1999,férfi,nem,2022-04-05_19h42.36.623,hesp_baseline,2021.2.3,Win32,59.44243001
,,,,,,,,,,,,,,,,,klétszem,klétszek,left,0.6049,0,110,110,60,1,115,klétszik,klétszel,NA,NA,Te bizony sokat klétszel.,Én is sokat...,klétszek,klétszem,lakik,-szik,1,PR2015,1999,férfi,nem,2022-04-05_19h42.36.623,hesp_baseline,2021.2.3,Win32,59.44243001
,,,,,,,,,,,,,,,,,nyítemben,nyítemban,left,0.6266,0,111,111,41,1,150,nyítem,nyítem,ban,e,Ez itt egy nyítem.,Ott vagyunk a...,nyítemben,nyítemban,dzsungel,NA,NA,PR2015,1999,férfi,nem,2022-04-05_19h42.36.623,hesp_baseline,2021.2.3,Win32,59.44243001
,,,,,,,,,,,,,,,,,brüröznek,brürzenek,right,0.4751,0,112,112,110,1,111,brürzik / brürözik,"brürzik, brürözni",nek,NA,"János imád brürözni, ezért sokat brürzik.",Ők ritkán...,brürzenek,brüröznek,cselekszik,-zik,1,PR2015,1999,férfi,nem,2022-04-05_19h42.36.623,hesp_baseline,2021.2.3,Win32,59.44243001
,,,,,,,,,,,,,,,,,briskédnál,briskédnél,left,0.5385,0,113,113,51,1,160,briskéd,briskéd,nál,é,Ez itt egy briskéd.,Nincs is jobb egy jó...,briskédnél,briskédnál,dzsungel,NA,NA,PR2015,1999,férfi,nem,2022-04-05_19h42.36.623,hesp_baseline,2021.2.3,Win32,59.44243001
,,,,,,,,,,,,,,,,,büglöm,büglök,right,0.3526,0,114,114,101,1,156,büglik,büglesz,NA,NA,Te bizony sokat büglesz.,Én is sokat...,büglök,büglöm,lakik,-lik,1,PR2015,1999,férfi,nem,2022-04-05_19h42.36.623,hesp_baseline,2021.2.3,Win32,59.44243001
,,,,,,,,,,,,,,,,,drilarozunk,drilarzunk,left,0.4527,0,115,115,131,1,132,drilarzik / drilarozik,"drilarzik, drilarozni",ünk,NA,"János imád drilarozni, ezért sokat drilarzik.",Mi ritkán...,drilarzunk,drilarozunk,cselekszik,-zik,2,PR2015,1999,férfi,nem,2022-04-05_19h42.36.623,hesp_baseline,2021.2.3,Win32,59.44243001
,,,,,,,,,,,,,,,,,triképben,triképban,left,0.3899,0,116,116,33,1,142,trikép,trikép,ban,é,Ez itt egy trikép.,Ott vagyunk a...,triképben,triképban,dzsungel,NA,NA,PR2015,1999,férfi,nem,2022-04-05_19h42.36.623,hesp_baseline,2021.2.3,Win32,59.44243001
,,,,,,,,,,,,,,,,,nyáslom,nyáslok,left,0.4881,0,117,117,100,1,155,nyáslik,nyáslasz,NA,NA,Te bizony sokat nyáslasz.,Én is sokat...,nyáslok,nyáslom,lakik,-lik,1,PR2015,1999,férfi,nem,2022-04-05_19h42.36.623,hesp_baseline,2021.2.3,Win32,59.44243001
,,,,,,,,,,,,,,,,,fizendben,fizendban,left,0.357,0,118,118,49,1,158,fizend,fizend,ban,e,Ez itt egy fizend.,Ott vagyunk a...,fizendben,fizendban,dzsungel,NA,NA,PR2015,1999,férfi,nem,2022-04-05_19h42.36.623,hesp_baseline,2021.2.3,Win32,59.44243001
,,,,,,,,,,,,,,,,,trájegben,trájegban,right,0.3864,0,119,119,14,1,123,trájeg,trájeg,ban,e,Ez itt egy trájeg.,Ott vagyunk a...,trájegben,trájegban,dzsungel,NA,NA,PR2015,1999,férfi,nem,2022-04-05_19h42.36.623,hesp_baseline,2021.2.3,Win32,59.44243001
,,,,,,,,,,,,,,,,,sztrozlok,sztrozlom,left,1.4521,0,120,120,104,1,159,sztrozlik,sztrozlasz,NA,NA,Te bizony sokat sztrozlasz.,Én is sokat...,sztrozlok,sztrozlom,lakik,-lik,1,PR2015,1999,férfi,nem,2022-04-05_19h42.36.623,hesp_baseline,2021.2.3,Win32,59.44243001
,,,,,,,,,,,,,,,,,spirágoztok,spiráglotok,left,1.0207,0,121,121,135,1,136,spiráglik / spirágozik,"spiráglik, spirágozni",tek,NA,"János imád spirágozni, ezért sokat spiráglik.",Ti ritkán...,spiráglotok,spirágoztok,cselekszik,-lik,2,PR2015,1999,férfi,nem,2022-04-05_19h42.36.623,hesp_baseline,2021.2.3,Win32,59.44243001
,,,,,,,,,,,,,,,,,spalárzanak,spalároznak,right,2.5736,0,122,122,137,1,138,spalárzik / spalározik,"spalárzik, spalározni",nek,NA,"János imád spalározni, ezért sokat spalárzik.",Ők ritkán...,spalárzanak,spalároznak,cselekszik,-zik,2,PR2015,1999,férfi,nem,2022-04-05_19h42.36.623,hesp_baseline,2021.2.3,Win32,59.44243001
,,,,,,,,,,,,,,,,,sprökszöm,sprökszök,right,1.2404,0,123,123,88,1,143,sprökszik,sprökszöl,NA,NA,Te bizony sokat sprökszöl.,Én is sokat...,sprökszök,sprökszöm,lakik,-szik,1,PR2015,1999,férfi,nem,2022-04-05_19h42.36.623,hesp_baseline,2021.2.3,Win32,59.44243001
,,,,,,,,,,,,,,,,,spüszlök,spüszlöm,left,1.1243,0,124,124,96,1,151,spüszlik,spüszlesz,NA,NA,Te bizony sokat spüszlesz.,Én is sokat...,spüszlök,spüszlöm,lakik,-lik,1,PR2015,1999,férfi,nem,2022-04-05_19h42.36.623,hesp_baseline,2021.2.3,Win32,59.44243001
,,,,,,,,,,,,,,,,,gótemnek,gótemnak,left,1.1874,0,125,125,35,1,144,gótem,gótem,nak,e,Ez itt egy gótem.,Elneveztem a kutyámat...,gótemnek,gótemnak,dzsungel,NA,NA,PR2015,1999,férfi,nem,2022-04-05_19h42.36.623,hesp_baseline,2021.2.3,Win32,59.44243001
,,,,,,,,,,,,,,,,,brivepedünk,brivepszünk,left,2.7883,0,126,126,113,1,114,brivepszik / brivepedik,"brivepszik, brivepedni",ünk,NA,"János imád brivepedni, ezért sokat brivepszik.",Mi ritkán...,brivepszünk,brivepedünk,cselekszik,-szik,2,PR2015,1999,férfi,nem,2022-04-05_19h42.36.623,hesp_baseline,2021.2.3,Win32,59.44243001
,,,,,,,,,,,,,,,,,brűklötök,brűköztök,left,7.5204,0,127,127,153,1,154,brűklik / brűközik,"brűklik, brűközni",tek,NA,"János imád brűközni, ezért sokat brűklik.",Ti ritkán...,brűklötök,brűköztök,cselekszik,-lik,1,PR2015,1999,férfi,nem,2022-04-05_19h42.36.623,hesp_baseline,2021.2.3,Win32,59.44243001
,,,,,,,,,,,,,,,,,sztredletek,sztredeztek,left,1.4519,0,128,128,145,1,146,sztredlik / sztredezik,"sztredlik, sztredezni",tek,NA,"János imád sztredezni, ezért sokat sztredlik.",Ti ritkán...,sztredletek,sztredeztek,cselekszik,-lik,1,PR2015,1999,férfi,nem,2022-04-05_19h42.36.623,hesp_baseline,2021.2.3,Win32,59.44243001
,,,,,,,,,,,,,,,,,féjzek,féjzem,left,1.608,0,129,129,91,1,146,féjzik,féjzel,NA,NA,Te bizony sokat féjzel.,Én is sokat...,féjzek,féjzem,lakik,-zik,1,PR2015,1999,férfi,nem,2022-04-05_19h42.36.623,hesp_baseline,2021.2.3,Win32,59.44243001
,,,,,,,,,,,,,,,,,pibegzenek,pibegeznek,right,3.8536,0,130,130,127,1,128,pibegzik / pibegezik,"pibegzik, pibegezni",nek,NA,"János imád pibegezni, ezért sokat pibegzik.",Ők ritkán...,pibegzenek,pibegeznek,cselekszik,-zik,2,PR2015,1999,férfi,nem,2022-04-05_19h42.36.623,hesp_baseline,2021.2.3,Win32,59.44243001
,,,,,,,,,,,,,,,,,trilszok,trilszom,left,1.4775,0,131,131,103,1,158,trilszik,trilszol,NA,NA,Te bizony sokat trilszol.,Én is sokat...,trilszok,trilszom,lakik,-szik,1,PR2015,1999,férfi,nem,2022-04-05_19h42.36.623,hesp_baseline,2021.2.3,Win32,59.44243001
,,,,,,,,,,,,,,,,,trugoklanak,trugokoznak,right,1.2866,0,132,132,109,1,110,trugoklik / trugokozik,"trugoklik, trugokozni",nek,NA,"János imád trugokozni, ezért sokat trugoklik.",Ők ritkán...,trugoklanak,trugokoznak,cselekszik,-lik,2,PR2015,1999,férfi,nem,2022-04-05_19h42.36.623,hesp_baseline,2021.2.3,Win32,59.44243001
,,,,,,,,,,,,,,,,,mékszek,mékszem,left,1.6208,0,133,133,71,1,126,mékszik,mékszel,NA,NA,Te bizony sokat mékszel.,Én is sokat...,mékszek,mékszem,lakik,-szik,1,PR2015,1999,férfi,nem,2022-04-05_19h42.36.623,hesp_baseline,2021.2.3,Win32,59.44243001
,,,,,,,,,,,,,,,,,döjöznek,döjlenek,left,1.3003,0,134,134,129,1,130,döjlik / döjözik,"döjlik, döjözni",nek,NA,"János imád döjözni, ezért sokat döjlik.",Ők ritkán...,döjlenek,döjöznek,cselekszik,-lik,1,PR2015,1999,férfi,nem,2022-04-05_19h42.36.623,hesp_baseline,2021.2.3,Win32,59.44243001
,,,,,,,,,,,,,,,,,nyarcéjnak,nyarcéjnek,right,1.1388,0,135,135,37,1,146,nyarcéj,nyarcéj,nak,é,Ez itt egy nyarcéj.,Elneveztem a kutyámat...,nyarcéjnek,nyarcéjnak,dzsungel,NA,NA,PR2015,1999,férfi,nem,2022-04-05_19h42.36.623,hesp_baseline,2021.2.3,Win32,59.44243001
,,,,,,,,,,,,,,,,,fliraklok,fliraklom,left,1.1229,0,136,136,98,1,153,fliraklik,fliraklasz,NA,NA,Te bizony sokat fliraklasz.,Én is sokat...,fliraklok,fliraklom,lakik,-lik,2,PR2015,1999,férfi,nem,2022-04-05_19h42.36.623,hesp_baseline,2021.2.3,Win32,59.44243001
,,,,,,,,,,,,,,,,,flátlotok,flátoztok,left,62.3542,0,137,137,132,1,133,flátlik / flátozik,"flátlik, flátozni",tek,NA,"János imád flátozni, ezért sokat flátlik.",Ti ritkán...,flátlotok,flátoztok,cselekszik,-lik,1,PR2015,1999,férfi,nem,2022-04-05_19h42.36.623,hesp_baseline,2021.2.3,Win32,59.44243001
,,,,,,,,,,,,,,,,,vihepszem,vihepszek,right,1.388,0,138,138,59,1,114,vihepszik,vihepszel,NA,NA,Te bizony sokat vihepszel.,Én is sokat...,vihepszek,vihepszem,lakik,-szik,2,PR2015,1999,férfi,nem,2022-04-05_19h42.36.623,hesp_baseline,2021.2.3,Win32,59.44243001
,,,,,,,,,,,,,,,,,trálodunk,trálszunk,right,2.5044,0,139,139,130,1,131,trálszik / trálodik,"trálszik, trálodni",ünk,NA,"János imád trálodni, ezért sokat trálszik.",Mi ritkán...,trálszunk,trálodunk,cselekszik,-szik,1,PR2015,1999,férfi,nem,2022-04-05_19h42.36.623,hesp_baseline,2021.2.3,Win32,59.44243001
,,,,,,,,,,,,,,,,,sűjlünk,sűjözünk,left,1.1764,0,140,140,128,1,129,sűjlik / sűjözik,"sűjlik, sűjözni",ünk,NA,"János imád sűjözni, ezért sokat sűjlik.",Mi ritkán...,sűjlünk,sűjözünk,cselekszik,-lik,1,PR2015,1999,férfi,nem,2022-04-05_19h42.36.623,hesp_baseline,2021.2.3,Win32,59.44243001
,,,,,,,,,,,,,,,,,braszencnál,braszencnél,right,0.8876,0,141,141,7,1,116,braszenc,braszenc,nál,e,Ez itt egy braszenc.,Nincs is jobb egy jó...,braszencnél,braszencnál,dzsungel,NA,NA,PR2015,1999,férfi,nem,2022-04-05_19h42.36.623,hesp_baseline,2021.2.3,Win32,59.44243001
,,,,,,,,,,,,,,,,,düjzök,düjzöm,left,1.006,0,142,142,97,1,152,düjzik,düjzöl,NA,NA,Te bizony sokat düjzöl.,Én is sokat...,düjzök,düjzöm,lakik,-zik,1,PR2015,1999,férfi,nem,2022-04-05_19h42.36.623,hesp_baseline,2021.2.3,Win32,59.44243001
,,,,,,,,,,,,,,,,,fretszek,fretszem,left,2.2564,0,143,143,66,1,121,fretszik,fretszel,NA,NA,Te bizony sokat fretszel.,Én is sokat...,fretszek,fretszem,lakik,-szik,1,PR2015,1999,férfi,nem,2022-04-05_19h42.36.623,hesp_baseline,2021.2.3,Win32,59.44243001
,,,,,,,,,,,,,,,,,rájzok,rájzom,left,1.0211,0,144,144,70,1,125,rájzik,rájzol,NA,NA,Te bizony sokat rájzol.,Én is sokat...,rájzok,rájzom,lakik,-zik,1,PR2015,1999,férfi,nem,2022-04-05_19h42.36.623,hesp_baseline,2021.2.3,Win32,59.44243001
,,,,,,,,,,,,,,,,,jurdentnél,jurdentnál,left,1.5552,0,145,145,16,1,125,jurdent,jurdent,nál,e,Ez itt egy jurdent.,Nincs is jobb egy jó...,jurdentnél,jurdentnál,dzsungel,NA,NA,PR2015,1999,férfi,nem,2022-04-05_19h42.36.623,hesp_baseline,2021.2.3,Win32,59.44243001
,,,,,,,,,,,,,,,,,lájoztok,lájzotok,left,0.8232,0,146,146,159,1,160,lájzik / lájozik,"lájzik, lájozni",tek,NA,"János imád lájozni, ezért sokat lájzik.",Ti ritkán...,lájzotok,lájoztok,cselekszik,-zik,1,PR2015,1999,férfi,nem,2022-04-05_19h42.36.623,hesp_baseline,2021.2.3,Win32,59.44243001
,,,,,,,,,,,,,,,,,spanélnál,spanélnél,right,1.0394,0,147,147,24,1,133,spanél,spanél,nál,é,Ez itt egy spanél.,Nincs is jobb egy jó...,spanélnél,spanélnál,dzsungel,NA,NA,PR2015,1999,férfi,nem,2022-04-05_19h42.36.623,hesp_baseline,2021.2.3,Win32,59.44243001
,,,,,,,,,,,,,,,,,spröbzöm,spröbzök,right,2.3207,0,148,148,90,1,145,spröbzik,spröbzöl,NA,NA,Te bizony sokat spröbzöl.,Én is sokat...,spröbzök,spröbzöm,lakik,-zik,1,PR2015,1999,férfi,nem,2022-04-05_19h42.36.623,hesp_baseline,2021.2.3,Win32,59.44243001
,,,,,,,,,,,,,,,,,csodegnél,csodegnál,left,0.9382,0,149,149,28,1,137,csodeg,csodeg,nál,e,Ez itt egy csodeg.,Nincs is jobb egy jó...,csodegnél,csodegnál,dzsungel,NA,NA,PR2015,1999,férfi,nem,2022-04-05_19h42.36.623,hesp_baseline,2021.2.3,Win32,59.44243001
,,,,,,,,,,,,,,,,,kátelnak,kátelnek,right,1.2721,0,150,150,12,1,121,kátel,kátel,nak,e,Ez itt egy kátel.,Elneveztem a kutyámat...,kátelnek,kátelnak,dzsungel,NA,NA,PR2015,1999,férfi,nem,2022-04-05_19h42.36.623,hesp_baseline,2021.2.3,Win32,59.44243001
,,,,,,,,,,,,,,,,,brukésznál,brukésznél,right,1.5696,0,151,151,10,1,119,brukész,brukész,nál,é,Ez itt egy brukész.,Nincs is jobb egy jó...,brukésznél,brukésznál,dzsungel,NA,NA,PR2015,1999,férfi,nem,2022-04-05_19h42.36.623,hesp_baseline,2021.2.3,Win32,59.44243001
,,,,,,,,,,,,,,,,,vubletnél,vubletnál,left,1.0215,0,152,152,26,1,135,vublet,vublet,nál,e,Ez itt egy vublet.,Nincs is jobb egy jó...,vubletnél,vubletnál,dzsungel,NA,NA,PR2015,1999,férfi,nem,2022-04-05_19h42.36.623,hesp_baseline,2021.2.3,Win32,59.44243001
,,,,,,,,,,,,,,,,,mülőrözünk,mülőrzünk,right,3.1218,0,153,153,120,1,121,mülőrzik / mülőrözik,"mülőrzik, mülőrözni",ünk,NA,"János imád mülőrözni, ezért sokat mülőrzik.",Mi ritkán...,mülőrzünk,mülőrözünk,cselekszik,-zik,2,PR2015,1999,férfi,nem,2022-04-05_19h42.36.623,hesp_baseline,2021.2.3,Win32,59.44243001
,,,,,,,,,,,,,,,,,tínylom,tínylok,right,1.5373,0,154,154,58,1,113,tínylik,tínylasz,NA,NA,Te bizony sokat tínylasz.,Én is sokat...,tínylok,tínylom,lakik,-lik,1,PR2015,1999,férfi,nem,2022-04-05_19h42.36.623,hesp_baseline,2021.2.3,Win32,59.44243001
,,,,,,,,,,,,,,,,,trivakodunk,trivakszunk,right,1.6048,0,155,155,118,1,119,trivakszik / trivakodik,"trivakszik, trivakodni",ünk,NA,"János imád trivakodni, ezért sokat trivakszik.",Mi ritkán...,trivakszunk,trivakodunk,cselekszik,-szik,2,PR2015,1999,férfi,nem,2022-04-05_19h42.36.623,hesp_baseline,2021.2.3,Win32,59.44243001
,,,,,,,,,,,,,,,,,sprozoznak,sprozlanak,right,2.0042,0,156,156,147,1,148,sprozlik / sprozozik,"sprozlik, sprozozni",nek,NA,"János imád sprozozni, ezért sokat sprozlik.",Ők ritkán...,sprozlanak,sprozoznak,cselekszik,-lik,1,PR2015,1999,férfi,nem,2022-04-05_19h42.36.623,hesp_baseline,2021.2.3,Win32,59.44243001
,,,,,,,,,,,,,,,,,klégezünk,kléglünk,right,1.8905,0,157,157,122,1,123,kléglik / klégezik,"kléglik, klégezni",ünk,NA,"János imád klégezni, ezért sokat kléglik.",Mi ritkán...,kléglünk,klégezünk,cselekszik,-lik,1,PR2015,1999,férfi,nem,2022-04-05_19h42.36.623,hesp_baseline,2021.2.3,Win32,59.44243001
,,,,,,,,,,,,,,,,,nivároztok,nivárzotok,left,2.1039,0,158,158,146,1,147,nivárzik / nivározik,"nivárzik, nivározni",tek,NA,"János imád nivározni, ezért sokat nivárzik.",Ti ritkán...,nivárzotok,nivároztok,cselekszik,-zik,2,PR2015,1999,férfi,nem,2022-04-05_19h42.36.623,hesp_baseline,2021.2.3,Win32,59.44243001
,,,,,,,,,,,,,,,,,prínylom,prínylok,right,1.6259,0,159,159,102,1,157,prínylik,prínylasz,NA,NA,Te bizony sokat prínylasz.,Én is sokat...,prínylok,prínylom,lakik,-lik,1,PR2015,1999,férfi,nem,2022-04-05_19h42.36.623,hesp_baseline,2021.2.3,Win32,59.44243001
,,,,,,,,,,,,,,,,,trapszegynél,trapszegynál,left,1.1221,0,160,160,39,1,148,trapszegy,trapszegy,nál,e,Ez itt egy trapszegy.,Nincs is jobb egy jó...,trapszegynél,trapszegynál,dzsungel,NA,NA,PR2015,1999,férfi,nem,2022-04-05_19h42.36.623,hesp_baseline,2021.2.3,Win32,59.44243001
,,,,,,,,,,,,,,,,,licegyban,licegyben,right,1.2379,0,161,161,15,1,124,licegy,licegy,ban,e,Ez itt egy licegy.,Ott vagyunk a...,licegyben,licegyban,dzsungel,NA,NA,PR2015,1999,férfi,nem,2022-04-05_19h42.36.623,hesp_baseline,2021.2.3,Win32,59.44243001
