my_list,key.keys,key.rt,key_2.keys,key_2.rt,keyboard_input_2.keys,keyboard_input_2.rt,key_3.keys,key_3.rt,keyboard_input_3.keys,keyboard_input_3.rt,key_4.keys,key_4.rt,keyboard_input_4.keys,keyboard_input_4.rt,key_5.keys,key_5.rt,my_button1,my_button2,keyboard_input.keys,keyboard_input.rt,withinBlock.thisRepN,withinBlock.thisTrialN,withinBlock.thisN,withinBlock.thisIndex,withinBlock.ran,rowname,word,prompt,suffix,vowel,carrier_sentence,target_sentence,target1,target2,category,derivational,nsyl,Azonosító,Melyik évben születtél?,Mi a nemed?,Tanultál nyelvészetet?,date,expName,psychopyVersion,OS,frameRate
list3.csv,space,18.1613,space,9.0747,right,6.6277,space,10.5824,left,3.7002,space,9.4004,left,5.0328,space,16.6487,spüszlöm,spüszlök,left,4.6937,0,0,0,96,1,151,spüszlik,spüszlesz,NA,NA,Te bizony sokat spüszlesz.,Én is sokat...,spüszlök,spüszlöm,lakik,-lik,1,PR2046,1991,nő,nem,2022-04-13_11h28.38.312,hesp_baseline,2021.2.3,Win32,60.04202942
,,,,,,,,,,,,,,,,,brüjlök,brüjlöm,left,2.8263,0,1,1,55,1,110,brüjlik,brüjlesz,NA,NA,Te bizony sokat brüjlesz.,Én is sokat...,brüjlök,brüjlöm,lakik,-lik,1,PR2046,1991,nő,nem,2022-04-13_11h28.38.312,hesp_baseline,2021.2.3,Win32,60.04202942
,,,,,,,,,,,,,,,,,brilegzünk,brilegezünk,right,6.4946,0,2,2,124,1,125,brilegzik / brilegezik,"brilegzik, brilegezni",ünk,NA,"János imád brilegezni, ezért sokat brilegzik.",Mi ritkán...,brilegzünk,brilegezünk,cselekszik,-zik,2,PR2046,1991,nő,nem,2022-04-13_11h28.38.312,hesp_baseline,2021.2.3,Win32,60.04202942
,,,,,,,,,,,,,,,,,sztrozlok,sztrozlom,right,3.712,0,3,3,104,1,159,sztrozlik,sztrozlasz,NA,NA,Te bizony sokat sztrozlasz.,Én is sokat...,sztrozlok,sztrozlom,lakik,-lik,1,PR2046,1991,nő,nem,2022-04-13_11h28.38.312,hesp_baseline,2021.2.3,Win32,60.04202942
,,,,,,,,,,,,,,,,,kátelnak,kátelnek,right,2.8098,0,4,4,12,1,121,kátel,kátel,nak,e,Ez itt egy kátel.,Elneveztem a kutyámat...,kátelnek,kátelnak,dzsungel,NA,NA,PR2046,1991,nő,nem,2022-04-13_11h28.38.312,hesp_baseline,2021.2.3,Win32,60.04202942
,,,,,,,,,,,,,,,,,rájzom,rájzok,right,3.5056,0,5,5,70,1,125,rájzik,rájzol,NA,NA,Te bizony sokat rájzol.,Én is sokat...,rájzok,rájzom,lakik,-zik,1,PR2046,1991,nő,nem,2022-04-13_11h28.38.312,hesp_baseline,2021.2.3,Win32,60.04202942
,,,,,,,,,,,,,,,,,tuboklok,tuboklom,left,3.1813,0,6,6,84,1,139,tuboklik,tuboklasz,NA,NA,Te bizony sokat tuboklasz.,Én is sokat...,tuboklok,tuboklom,lakik,-lik,2,PR2046,1991,nő,nem,2022-04-13_11h28.38.312,hesp_baseline,2021.2.3,Win32,60.04202942
,,,,,,,,,,,,,,,,,trapszegynél,trapszegynál,left,4.1249,0,7,7,39,1,148,trapszegy,trapszegy,nál,e,Ez itt egy trapszegy.,Nincs is jobb egy jó...,trapszegynél,trapszegynál,dzsungel,NA,NA,PR2046,1991,nő,nem,2022-04-13_11h28.38.312,hesp_baseline,2021.2.3,Win32,60.04202942
,,,,,,,,,,,,,,,,,klosétnek,klosétnak,right,4.405,0,8,8,45,1,154,klosét,klosét,nak,é,Ez itt egy klosét.,Elneveztem a kutyámat...,klosétnek,klosétnak,dzsungel,NA,NA,PR2046,1991,nő,nem,2022-04-13_11h28.38.312,hesp_baseline,2021.2.3,Win32,60.04202942
,,,,,,,,,,,,,,,,,sztrijzok,sztrijzom,right,2.843,0,9,9,68,1,123,sztrijzik,sztrijzol,NA,NA,Te bizony sokat sztrijzol.,Én is sokat...,sztrijzok,sztrijzom,lakik,-zik,1,PR2046,1991,nő,nem,2022-04-13_11h28.38.312,hesp_baseline,2021.2.3,Win32,60.04202942
,,,,,,,,,,,,,,,,,danétnél,danétnál,right,5.5316,0,10,10,38,1,147,danét,danét,nál,é,Ez itt egy danét.,Nincs is jobb egy jó...,danétnél,danétnál,dzsungel,NA,NA,PR2046,1991,nő,nem,2022-04-13_11h28.38.312,hesp_baseline,2021.2.3,Win32,60.04202942
,,,,,,,,,,,,,,,,,nivároztok,nivárzotok,left,5.5779,0,11,11,146,1,147,nivárzik / nivározik,"nivárzik, nivározni",tek,NA,"János imád nivározni, ezért sokat nivárzik.",Ti ritkán...,nivárzotok,nivároztok,cselekszik,-zik,2,PR2046,1991,nő,nem,2022-04-13_11h28.38.312,hesp_baseline,2021.2.3,Win32,60.04202942
,,,,,,,,,,,,,,,,,spatelnek,spatelnak,left,3.6406,0,12,12,21,1,130,spatel,spatel,nak,e,Ez itt egy spatel.,Elneveztem a kutyámat...,spatelnek,spatelnak,dzsungel,NA,NA,PR2046,1991,nő,nem,2022-04-13_11h28.38.312,hesp_baseline,2021.2.3,Win32,60.04202942
,,,,,,,,,,,,,,,,,narjárzom,narjárzok,left,4.0965,0,13,13,61,1,116,narjárzik,narjárzol,NA,NA,Te bizony sokat narjárzol.,Én is sokat...,narjárzok,narjárzom,lakik,-zik,2,PR2046,1991,nő,nem,2022-04-13_11h28.38.312,hesp_baseline,2021.2.3,Win32,60.04202942
,,,,,,,,,,,,,,,,,brotesban,brotesben,right,3.1553,0,14,14,53,1,162,brotes,brotes,ban,e,Ez itt egy brotes.,Ott vagyunk a...,brotesben,brotesban,dzsungel,NA,NA,PR2046,1991,nő,nem,2022-04-13_11h28.38.312,hesp_baseline,2021.2.3,Win32,60.04202942
,,,,,,,,,,,,,,,,,dibezban,dibezben,right,2.7182,0,15,15,27,1,136,dibez,dibez,ban,e,Ez itt egy dibez.,Ott vagyunk a...,dibezben,dibezban,dzsungel,NA,NA,PR2046,1991,nő,nem,2022-04-13_11h28.38.312,hesp_baseline,2021.2.3,Win32,60.04202942
,,,,,,,,,,,,,,,,,trádlom,trádlok,left,4.35,0,16,16,105,1,160,trádlik,trádlasz,NA,NA,Te bizony sokat trádlasz.,Én is sokat...,trádlok,trádlom,lakik,-lik,1,PR2046,1991,nő,nem,2022-04-13_11h28.38.312,hesp_baseline,2021.2.3,Win32,60.04202942
,,,,,,,,,,,,,,,,,gyibakszok,gyibakszom,right,3.3512,0,17,17,57,1,112,gyibakszik,gyibakszol,NA,NA,Te bizony sokat gyibakszol.,Én is sokat...,gyibakszok,gyibakszom,lakik,-szik,2,PR2046,1991,nő,nem,2022-04-13_11h28.38.312,hesp_baseline,2021.2.3,Win32,60.04202942
,,,,,,,,,,,,,,,,,zsádévnek,zsádévnak,right,3.4057,0,18,18,20,1,129,zsádév,zsádév,nak,é,Ez itt egy zsádév.,Elneveztem a kutyámat...,zsádévnek,zsádévnak,dzsungel,NA,NA,PR2046,1991,nő,nem,2022-04-13_11h28.38.312,hesp_baseline,2021.2.3,Win32,60.04202942
,,,,,,,,,,,,,,,,,spírzom,spírzok,left,2.5801,0,19,19,64,1,119,spírzik,spírzol,NA,NA,Te bizony sokat spírzol.,Én is sokat...,spírzok,spírzom,lakik,-zik,1,PR2046,1991,nő,nem,2022-04-13_11h28.38.312,hesp_baseline,2021.2.3,Win32,60.04202942
,,,,,,,,,,,,,,,,,bihánylok,bihánylom,left,3.859,0,20,20,89,1,144,bihánylik,bihánylasz,NA,NA,Te bizony sokat bihánylasz.,Én is sokat...,bihánylok,bihánylom,lakik,-lik,2,PR2046,1991,nő,nem,2022-04-13_11h28.38.312,hesp_baseline,2021.2.3,Win32,60.04202942
,,,,,,,,,,,,,,,,,sprozlanak,sprozoznak,right,10.9659,0,21,21,147,1,148,sprozlik / sprozozik,"sprozlik, sprozozni",nek,NA,"János imád sprozozni, ezért sokat sprozlik.",Ők ritkán...,sprozlanak,sprozoznak,cselekszik,-lik,1,PR2046,1991,nő,nem,2022-04-13_11h28.38.312,hesp_baseline,2021.2.3,Win32,60.04202942
,,,,,,,,,,,,,,,,,zödlöm,zödlök,right,3.2821,0,22,22,106,1,161,zödlik,zödlesz,NA,NA,Te bizony sokat zödlesz.,Én is sokat...,zödlök,zödlöm,lakik,-lik,1,PR2046,1991,nő,nem,2022-04-13_11h28.38.312,hesp_baseline,2021.2.3,Win32,60.04202942
,,,,,,,,,,,,,,,,,brároznak,brárlanak,right,7.8389,0,23,23,126,1,127,brárlik / brározik,"brárlik, brározni",nek,NA,"János imád brározni, ezért sokat brárlik.",Ők ritkán...,brárlanak,brároznak,cselekszik,-lik,1,PR2046,1991,nő,nem,2022-04-13_11h28.38.312,hesp_baseline,2021.2.3,Win32,60.04202942
,,,,,,,,,,,,,,,,,prínylom,prínylok,left,3.4587,0,24,24,102,1,157,prínylik,prínylasz,NA,NA,Te bizony sokat prínylasz.,Én is sokat...,prínylok,prínylom,lakik,-lik,1,PR2046,1991,nő,nem,2022-04-13_11h28.38.312,hesp_baseline,2021.2.3,Win32,60.04202942
,,,,,,,,,,,,,,,,,sprökszök,sprökszöm,left,4.9337,0,25,25,88,1,143,sprökszik,sprökszöl,NA,NA,Te bizony sokat sprökszöl.,Én is sokat...,sprökszök,sprökszöm,lakik,-szik,1,PR2046,1991,nő,nem,2022-04-13_11h28.38.312,hesp_baseline,2021.2.3,Win32,60.04202942
,,,,,,,,,,,,,,,,,fliraklom,fliraklok,right,3.0505,0,26,26,98,1,153,fliraklik,fliraklasz,NA,NA,Te bizony sokat fliraklasz.,Én is sokat...,fliraklok,fliraklom,lakik,-lik,2,PR2046,1991,nő,nem,2022-04-13_11h28.38.312,hesp_baseline,2021.2.3,Win32,60.04202942
,,,,,,,,,,,,,,,,,trismélnak,trismélnek,right,3.4658,0,27,27,5,1,114,trismél,trismél,nak,é,Ez itt egy trismél.,Elneveztem a kutyámat...,trismélnek,trismélnak,dzsungel,NA,NA,PR2046,1991,nő,nem,2022-04-13_11h28.38.312,hesp_baseline,2021.2.3,Win32,60.04202942
,,,,,,,,,,,,,,,,,fretszek,fretszem,right,3.8504,0,28,28,66,1,121,fretszik,fretszel,NA,NA,Te bizony sokat fretszel.,Én is sokat...,fretszek,fretszem,lakik,-szik,1,PR2046,1991,nő,nem,2022-04-13_11h28.38.312,hesp_baseline,2021.2.3,Win32,60.04202942
,,,,,,,,,,,,,,,,,szihétnek,szihétnak,right,3.068,0,29,29,4,1,113,szihét,szihét,nak,é,Ez itt egy szihét.,Elneveztem a kutyámat...,szihétnek,szihétnak,dzsungel,NA,NA,PR2046,1991,nő,nem,2022-04-13_11h28.38.312,hesp_baseline,2021.2.3,Win32,60.04202942
,,,,,,,,,,,,,,,,,bűtszöm,bűtszök,left,4.0508,0,30,30,82,1,137,bűtszik,bűtszöl,NA,NA,Te bizony sokat bűtszöl.,Én is sokat...,bűtszök,bűtszöm,lakik,-szik,1,PR2046,1991,nő,nem,2022-04-13_11h28.38.312,hesp_baseline,2021.2.3,Win32,60.04202942
,,,,,,,,,,,,,,,,,trivakszunk,trivakodunk,left,5.0504,0,31,31,118,1,119,trivakszik / trivakodik,"trivakszik, trivakodni",ünk,NA,"János imád trivakodni, ezért sokat trivakszik.",Mi ritkán...,trivakszunk,trivakodunk,cselekszik,-szik,2,PR2046,1991,nő,nem,2022-04-13_11h28.38.312,hesp_baseline,2021.2.3,Win32,60.04202942
,,,,,,,,,,,,,,,,,mülőrzünk,mülőrözünk,left,6.2691,0,32,32,120,1,121,mülőrzik / mülőrözik,"mülőrzik, mülőrözni",ünk,NA,"János imád mülőrözni, ezért sokat mülőrzik.",Mi ritkán...,mülőrzünk,mülőrözünk,cselekszik,-zik,2,PR2046,1991,nő,nem,2022-04-13_11h28.38.312,hesp_baseline,2021.2.3,Win32,60.04202942
,,,,,,,,,,,,,,,,,piragszom,piragszok,left,2.8734,0,33,33,83,1,138,piragszik,piragszol,NA,NA,Te bizony sokat piragszol.,Én is sokat...,piragszok,piragszom,lakik,-szik,2,PR2046,1991,nő,nem,2022-04-13_11h28.38.312,hesp_baseline,2021.2.3,Win32,60.04202942
,,,,,,,,,,,,,,,,,spalárzanak,spalároznak,left,7.098,0,34,34,137,1,138,spalárzik / spalározik,"spalárzik, spalározni",nek,NA,"János imád spalározni, ezért sokat spalárzik.",Ők ritkán...,spalárzanak,spalároznak,cselekszik,-zik,2,PR2046,1991,nő,nem,2022-04-13_11h28.38.312,hesp_baseline,2021.2.3,Win32,60.04202942
,,,,,,,,,,,,,,,,,trilekedtek,trilekszetek,right,5.3499,0,35,35,157,1,158,trilekszik / trilekedik,"trilekszik, trilekedni",tek,NA,"János imád trilekedni, ezért sokat trilekszik.",Ti ritkán...,trilekszetek,trilekedtek,cselekszik,-szik,2,PR2046,1991,nő,nem,2022-04-13_11h28.38.312,hesp_baseline,2021.2.3,Win32,60.04202942
,,,,,,,,,,,,,,,,,fizendban,fizendben,right,2.4225,0,36,36,49,1,158,fizend,fizend,ban,e,Ez itt egy fizend.,Ott vagyunk a...,fizendben,fizendban,dzsungel,NA,NA,PR2046,1991,nő,nem,2022-04-13_11h28.38.312,hesp_baseline,2021.2.3,Win32,60.04202942
,,,,,,,,,,,,,,,,,brürzenek,brüröznek,right,3.7986,0,37,37,110,1,111,brürzik / brürözik,"brürzik, brürözni",nek,NA,"János imád brürözni, ezért sokat brürzik.",Ők ritkán...,brürzenek,brüröznek,cselekszik,-zik,1,PR2046,1991,nő,nem,2022-04-13_11h28.38.312,hesp_baseline,2021.2.3,Win32,60.04202942
,,,,,,,,,,,,,,,,,klarágoztok,klarágzotok,left,7.0054,0,38,38,114,1,115,klarágzik / klarágozik,"klarágzik, klarágozni",tek,NA,"János imád klarágozni, ezért sokat klarágzik.",Ti ritkán...,klarágzotok,klarágoztok,cselekszik,-zik,2,PR2046,1991,nő,nem,2022-04-13_11h28.38.312,hesp_baseline,2021.2.3,Win32,60.04202942
,,,,,,,,,,,,,,,,,prezlem,prezlek,left,3.0519,0,39,39,87,1,142,prezlik,prezlesz,NA,NA,Te bizony sokat prezlesz.,Én is sokat...,prezlek,prezlem,lakik,-lik,1,PR2046,1991,nő,nem,2022-04-13_11h28.38.312,hesp_baseline,2021.2.3,Win32,60.04202942
,,,,,,,,,,,,,,,,,büglöm,büglök,left,2.5353,0,40,40,101,1,156,büglik,büglesz,NA,NA,Te bizony sokat büglesz.,Én is sokat...,büglök,büglöm,lakik,-lik,1,PR2046,1991,nő,nem,2022-04-13_11h28.38.312,hesp_baseline,2021.2.3,Win32,60.04202942
,,,,,,,,,,,,,,,,,táklok,táklom,right,3.0675,0,41,41,79,1,134,táklik,táklasz,NA,NA,Te bizony sokat táklasz.,Én is sokat...,táklok,táklom,lakik,-lik,1,PR2046,1991,nő,nem,2022-04-13_11h28.38.312,hesp_baseline,2021.2.3,Win32,60.04202942
,,,,,,,,,,,,,,,,,hűgzöm,hűgzök,right,2.0834,0,42,42,107,1,162,hűgzik,hűgzöl,NA,NA,Te bizony sokat hűgzöl.,Én is sokat...,hűgzök,hűgzöm,lakik,-zik,1,PR2046,1991,nő,nem,2022-04-13_11h28.38.312,hesp_baseline,2021.2.3,Win32,60.04202942
,,,,,,,,,,,,,,,,,flátoztok,flátlotok,right,6.1508,0,43,43,132,1,133,flátlik / flátozik,"flátlik, flátozni",tek,NA,"János imád flátozni, ezért sokat flátlik.",Ti ritkán...,flátlotok,flátoztok,cselekszik,-lik,1,PR2046,1991,nő,nem,2022-04-13_11h28.38.312,hesp_baseline,2021.2.3,Win32,60.04202942
,,,,,,,,,,,,,,,,,lismévban,lismévben,right,5.0535,0,44,44,0,1,109,lismév,lismév,ban,é,Ez itt egy lismév.,Ott vagyunk a...,lismévben,lismévban,dzsungel,NA,NA,PR2046,1991,nő,nem,2022-04-13_11h28.38.312,hesp_baseline,2021.2.3,Win32,60.04202942
,,,,,,,,,,,,,,,,,trugokoznak,trugoklanak,right,4.5843,0,45,45,109,1,110,trugoklik / trugokozik,"trugoklik, trugokozni",nek,NA,"János imád trugokozni, ezért sokat trugoklik.",Ők ritkán...,trugoklanak,trugokoznak,cselekszik,-lik,2,PR2046,1991,nő,nem,2022-04-13_11h28.38.312,hesp_baseline,2021.2.3,Win32,60.04202942
,,,,,,,,,,,,,,,,,treglem,treglek,right,2.6678,0,46,46,81,1,136,treglik,treglesz,NA,NA,Te bizony sokat treglesz.,Én is sokat...,treglek,treglem,lakik,-lik,1,PR2046,1991,nő,nem,2022-04-13_11h28.38.312,hesp_baseline,2021.2.3,Win32,60.04202942
,,,,,,,,,,,,,,,,,szutendban,szutendben,right,2.3176,0,47,47,11,1,120,szutend,szutend,ban,e,Ez itt egy szutend.,Ott vagyunk a...,szutendben,szutendban,dzsungel,NA,NA,PR2046,1991,nő,nem,2022-04-13_11h28.38.312,hesp_baseline,2021.2.3,Win32,60.04202942
,,,,,,,,,,,,,,,,,spröbzök,spröbzöm,right,3.1,0,48,48,90,1,145,spröbzik,spröbzöl,NA,NA,Te bizony sokat spröbzöl.,Én is sokat...,spröbzök,spröbzöm,lakik,-zik,1,PR2046,1991,nő,nem,2022-04-13_11h28.38.312,hesp_baseline,2021.2.3,Win32,60.04202942
,,,,,,,,,,,,,,,,,murdesnál,murdesnél,right,4.4835,0,49,49,47,1,156,murdes,murdes,nál,e,Ez itt egy murdes.,Nincs is jobb egy jó...,murdesnél,murdesnál,dzsungel,NA,NA,PR2046,1991,nő,nem,2022-04-13_11h28.38.312,hesp_baseline,2021.2.3,Win32,60.04202942
,,,,,,,,,,,,,,,,,drubódzok,drubódzom,right,4.6342,0,50,50,63,1,118,drubódzik,drubódzol,NA,NA,Te bizony sokat drubódzol.,Én is sokat...,drubódzok,drubódzom,lakik,-zik,2,PR2046,1991,nő,nem,2022-04-13_11h28.38.312,hesp_baseline,2021.2.3,Win32,60.04202942
,,,,,,,,,,,,,,,,,sztritlanak,sztritoznak,left,7.45,0,51,51,154,1,155,sztritlik / sztritozik,"sztritlik, sztritozni",nek,NA,"János imád sztritozni, ezért sokat sztritlik.",Ők ritkán...,sztritlanak,sztritoznak,cselekszik,-lik,1,PR2046,1991,nő,nem,2022-04-13_11h28.38.312,hesp_baseline,2021.2.3,Win32,60.04202942
,,,,,,,,,,,,,,,,,tibarzanak,tibaroznak,left,4.0672,0,52,52,155,1,156,tibarzik / tibarozik,"tibarzik, tibarozni",nek,NA,"János imád tibarozni, ezért sokat tibarzik.",Ők ritkán...,tibarzanak,tibaroznak,cselekszik,-zik,2,PR2046,1991,nő,nem,2022-04-13_11h28.38.312,hesp_baseline,2021.2.3,Win32,60.04202942
,,,,,,,,,,,,,,,,,sartelyben,sartelyban,right,3.034,0,53,53,40,1,149,sartely,sartely,ban,e,Ez itt egy sartely.,Ott vagyunk a...,sartelyben,sartelyban,dzsungel,NA,NA,PR2046,1991,nő,nem,2022-04-13_11h28.38.312,hesp_baseline,2021.2.3,Win32,60.04202942
,,,,,,,,,,,,,,,,,spülöklök,spülöklöm,left,2.3171,0,54,54,56,1,111,spülöklik,spülöklesz,NA,NA,Te bizony sokat spülöklesz.,Én is sokat...,spülöklök,spülöklöm,lakik,-lik,2,PR2046,1991,nő,nem,2022-04-13_11h28.38.312,hesp_baseline,2021.2.3,Win32,60.04202942
,,,,,,,,,,,,,,,,,gerénylem,gerénylek,right,3.3319,0,55,55,99,1,154,gerénylik,gerénylesz,NA,NA,Te bizony sokat gerénylesz.,Én is sokat...,gerénylek,gerénylem,lakik,-lik,2,PR2046,1991,nő,nem,2022-04-13_11h28.38.312,hesp_baseline,2021.2.3,Win32,60.04202942
,,,,,,,,,,,,,,,,,bratároznak,bratárzanak,left,5.4745,0,56,56,108,1,109,bratárzik / bratározik,"bratárzik, bratározni",nek,NA,"János imád bratározni, ezért sokat bratárzik.",Ők ritkán...,bratárzanak,bratároznak,cselekszik,-zik,2,PR2046,1991,nő,nem,2022-04-13_11h28.38.312,hesp_baseline,2021.2.3,Win32,60.04202942
,,,,,,,,,,,,,,,,,dirlotok,diroztok,left,4.2382,0,57,57,148,1,149,dirlik / dirozik,"dirlik, dirozni",tek,NA,"János imád dirozni, ezért sokat dirlik.",Ti ritkán...,dirlotok,diroztok,cselekszik,-lik,1,PR2046,1991,nő,nem,2022-04-13_11h28.38.312,hesp_baseline,2021.2.3,Win32,60.04202942
,,,,,,,,,,,,,,,,,spibamlanak,spibamoznak,left,6.458,0,58,58,142,1,143,spibamlik / spibamozik,"spibamlik, spibamozni",nek,NA,"János imád spibamozni, ezért sokat spibamlik.",Ők ritkán...,spibamlanak,spibamoznak,cselekszik,-lik,2,PR2046,1991,nő,nem,2022-04-13_11h28.38.312,hesp_baseline,2021.2.3,Win32,60.04202942
,,,,,,,,,,,,,,,,,plágadzom,plágadzok,left,3.7841,0,59,59,74,1,129,plágadzik,plágadzol,NA,NA,Te bizony sokat plágadzol.,Én is sokat...,plágadzok,plágadzom,lakik,-zik,2,PR2046,1991,nő,nem,2022-04-13_11h28.38.312,hesp_baseline,2021.2.3,Win32,60.04202942
,,,,,,,,,,,,,,,,,sztruglok,sztruglom,right,3.8416,0,60,60,67,1,122,sztruglik,sztruglasz,NA,NA,Te bizony sokat sztruglasz.,Én is sokat...,sztruglok,sztruglom,lakik,-lik,1,PR2046,1991,nő,nem,2022-04-13_11h28.38.312,hesp_baseline,2021.2.3,Win32,60.04202942
,,,,,,,,,,,,,,,,,ronszekban,ronszekben,right,5.2177,0,61,61,18,1,127,ronszek,ronszek,ban,e,Ez itt egy ronszek.,Ott vagyunk a...,ronszekben,ronszekban,dzsungel,NA,NA,PR2046,1991,nő,nem,2022-04-13_11h28.38.312,hesp_baseline,2021.2.3,Win32,60.04202942
,,,,,,,,,,,,,,,,,vűjlöm,vűjlök,right,2.5508,0,62,62,94,1,149,vűjlik,vűjlesz,NA,NA,Te bizony sokat vűjlesz.,Én is sokat...,vűjlök,vűjlöm,lakik,-lik,1,PR2046,1991,nő,nem,2022-04-13_11h28.38.312,hesp_baseline,2021.2.3,Win32,60.04202942
,,,,,,,,,,,,,,,,,bupézban,bupézben,right,2.007,0,63,63,48,1,157,bupéz,bupéz,ban,é,Ez itt egy bupéz.,Ott vagyunk a...,bupézben,bupézban,dzsungel,NA,NA,PR2046,1991,nő,nem,2022-04-13_11h28.38.312,hesp_baseline,2021.2.3,Win32,60.04202942
,,,,,,,,,,,,,,,,,nyáslom,nyáslok,right,2.5337,0,64,64,100,1,155,nyáslik,nyáslasz,NA,NA,Te bizony sokat nyáslasz.,Én is sokat...,nyáslok,nyáslom,lakik,-lik,1,PR2046,1991,nő,nem,2022-04-13_11h28.38.312,hesp_baseline,2021.2.3,Win32,60.04202942
,,,,,,,,,,,,,,,,,trincsegben,trincsegban,right,3.0331,0,65,65,46,1,155,trincseg,trincseg,ban,e,Ez itt egy trincseg.,Ott vagyunk a...,trincsegben,trincsegban,dzsungel,NA,NA,PR2046,1991,nő,nem,2022-04-13_11h28.38.312,hesp_baseline,2021.2.3,Win32,60.04202942
,,,,,,,,,,,,,,,,,bidemban,bidemben,right,3.2002,0,66,66,2,1,111,bidem,bidem,ban,e,Ez itt egy bidem.,Ott vagyunk a...,bidemben,bidemban,dzsungel,NA,NA,PR2046,1991,nő,nem,2022-04-13_11h28.38.312,hesp_baseline,2021.2.3,Win32,60.04202942
,,,,,,,,,,,,,,,,,frálapodtok,frálapszotok,left,4.9348,0,67,67,150,1,151,frálapszik / frálapodik,"frálapszik, frálapodni",tek,NA,"János imád frálapodni, ezért sokat frálapszik.",Ti ritkán...,frálapszotok,frálapodtok,cselekszik,-szik,2,PR2046,1991,nő,nem,2022-04-13_11h28.38.312,hesp_baseline,2021.2.3,Win32,60.04202942
,,,,,,,,,,,,,,,,,flugonyoznak,flugonylanak,left,7.2334,0,68,68,111,1,112,flugonylik / flugonyozik,"flugonylik, flugonyozni",nek,NA,"János imád flugonyozni, ezért sokat flugonylik.",Ők ritkán...,flugonylanak,flugonyoznak,cselekszik,-lik,2,PR2046,1991,nő,nem,2022-04-13_11h28.38.312,hesp_baseline,2021.2.3,Win32,60.04202942
,,,,,,,,,,,,,,,,,brálamlanak,brálamoznak,left,6.0225,0,69,69,144,1,145,brálamlik / brálamozik,"brálamlik, brálamozni",nek,NA,"János imád brálamozni, ezért sokat brálamlik.",Ők ritkán...,brálamlanak,brálamoznak,cselekszik,-lik,2,PR2046,1991,nő,nem,2022-04-13_11h28.38.312,hesp_baseline,2021.2.3,Win32,60.04202942
,,,,,,,,,,,,,,,,,mékszem,mékszek,left,3.5839,0,70,70,71,1,126,mékszik,mékszel,NA,NA,Te bizony sokat mékszel.,Én is sokat...,mékszek,mékszem,lakik,-szik,1,PR2046,1991,nő,nem,2022-04-13_11h28.38.312,hesp_baseline,2021.2.3,Win32,60.04202942
,,,,,,,,,,,,,,,,,trilszom,trilszok,left,3.5174,0,71,71,103,1,158,trilszik,trilszol,NA,NA,Te bizony sokat trilszol.,Én is sokat...,trilszok,trilszom,lakik,-szik,1,PR2046,1991,nő,nem,2022-04-13_11h28.38.312,hesp_baseline,2021.2.3,Win32,60.04202942
,,,,,,,,,,,,,,,,,pehégszetek,pehégedtek,left,5.2334,0,72,72,151,1,152,pehégszik / pehégedik,"pehégszik, pehégedni",tek,NA,"János imád pehégedni, ezért sokat pehégszik.",Ti ritkán...,pehégszetek,pehégedtek,cselekszik,-szik,2,PR2046,1991,nő,nem,2022-04-13_11h28.38.312,hesp_baseline,2021.2.3,Win32,60.04202942
,,,,,,,,,,,,,,,,,vodecnél,vodecnál,left,3.4179,0,73,73,30,1,139,vodec,vodec,nál,e,Ez itt egy vodec.,Nincs is jobb egy jó...,vodecnél,vodecnál,dzsungel,NA,NA,PR2046,1991,nő,nem,2022-04-13_11h28.38.312,hesp_baseline,2021.2.3,Win32,60.04202942
,,,,,,,,,,,,,,,,,hágyétnak,hágyétnek,right,4.8219,0,74,74,42,1,151,hágyét,hágyét,nak,é,Ez itt egy hágyét.,Elneveztem a kutyámat...,hágyétnek,hágyétnak,dzsungel,NA,NA,PR2046,1991,nő,nem,2022-04-13_11h28.38.312,hesp_baseline,2021.2.3,Win32,60.04202942
,,,,,,,,,,,,,,,,,jurdentnél,jurdentnál,right,3.7173,0,75,75,16,1,125,jurdent,jurdent,nál,e,Ez itt egy jurdent.,Nincs is jobb egy jó...,jurdentnél,jurdentnál,dzsungel,NA,NA,PR2046,1991,nő,nem,2022-04-13_11h28.38.312,hesp_baseline,2021.2.3,Win32,60.04202942
,,,,,,,,,,,,,,,,,zábénynak,zábénynek,right,4.8251,0,76,76,43,1,152,zábény,zábény,nak,é,Ez itt egy zábény.,Elneveztem a kutyámat...,zábénynek,zábénynak,dzsungel,NA,NA,PR2046,1991,nő,nem,2022-04-13_11h28.38.312,hesp_baseline,2021.2.3,Win32,60.04202942
,,,,,,,,,,,,,,,,,triképban,triképben,right,4.319,0,77,77,33,1,142,trikép,trikép,ban,é,Ez itt egy trikép.,Ott vagyunk a...,triképben,triképban,dzsungel,NA,NA,PR2046,1991,nő,nem,2022-04-13_11h28.38.312,hesp_baseline,2021.2.3,Win32,60.04202942
,,,,,,,,,,,,,,,,,nágapodnak,nágapszanak,left,11.0489,0,78,78,152,1,153,nágapszik / nágapodik,"nágapszik, nágapodni",nek,NA,"János imád nágapodni, ezért sokat nágapszik.",Ők ritkán...,nágapszanak,nágapodnak,cselekszik,-szik,2,PR2046,1991,nő,nem,2022-04-13_11h28.38.312,hesp_baseline,2021.2.3,Win32,60.04202942
,,,,,,,,,,,,,,,,,nyarcéjnak,nyarcéjnek,right,4.8718,0,79,79,37,1,146,nyarcéj,nyarcéj,nak,é,Ez itt egy nyarcéj.,Elneveztem a kutyámat...,nyarcéjnek,nyarcéjnak,dzsungel,NA,NA,PR2046,1991,nő,nem,2022-04-13_11h28.38.312,hesp_baseline,2021.2.3,Win32,60.04202942
,,,,,,,,,,,,,,,,,spülőrzöm,spülőrzök,right,5.0344,0,80,80,69,1,124,spülőrzik,spülőrzöl,NA,NA,Te bizony sokat spülőrzöl.,Én is sokat...,spülőrzök,spülőrzöm,lakik,-zik,2,PR2046,1991,nő,nem,2022-04-13_11h28.38.312,hesp_baseline,2021.2.3,Win32,60.04202942
,,,,,,,,,,,,,,,,,bródesznek,bródesznak,left,3.7176,0,81,81,32,1,141,bródesz,bródesz,nak,e,Ez itt egy bródesz.,Elneveztem a kutyámat...,bródesznek,bródesznak,dzsungel,NA,NA,PR2046,1991,nő,nem,2022-04-13_11h28.38.312,hesp_baseline,2021.2.3,Win32,60.04202942
,,,,,,,,,,,,,,,,,ribegedtek,ribegszetek,right,5.1849,0,82,82,141,1,142,ribegszik / ribegedik,"ribegszik, ribegedni",tek,NA,"János imád ribegedni, ezért sokat ribegszik.",Ti ritkán...,ribegszetek,ribegedtek,cselekszik,-szik,2,PR2046,1991,nő,nem,2022-04-13_11h28.38.312,hesp_baseline,2021.2.3,Win32,60.04202942
,,,,,,,,,,,,,,,,,pribagszom,pribagszok,left,5.4024,0,83,83,76,1,131,pribagszik,pribagszol,NA,NA,Te bizony sokat pribagszol.,Én is sokat...,pribagszok,pribagszom,lakik,-szik,2,PR2046,1991,nő,nem,2022-04-13_11h28.38.312,hesp_baseline,2021.2.3,Win32,60.04202942
,,,,,,,,,,,,,,,,,nyupérnál,nyupérnél,right,2.8921,0,84,84,52,1,161,nyupér,nyupér,nál,é,Ez itt egy nyupér.,Nincs is jobb egy jó...,nyupérnél,nyupérnál,dzsungel,NA,NA,PR2046,1991,nő,nem,2022-04-13_11h28.38.312,hesp_baseline,2021.2.3,Win32,60.04202942
,,,,,,,,,,,,,,,,,ibékszek,ibékszem,right,3.4717,0,85,85,95,1,150,ibékszik,ibékszel,NA,NA,Te bizony sokat ibékszel.,Én is sokat...,ibékszek,ibékszem,lakik,-szik,2,PR2046,1991,nő,nem,2022-04-13_11h28.38.312,hesp_baseline,2021.2.3,Win32,60.04202942
,,,,,,,,,,,,,,,,,filánylunk,filányozunk,left,5.3823,0,86,86,134,1,135,filánylik / filányozik,"filánylik, filányozni",ünk,NA,"János imád filányozni, ezért sokat filánylik.",Mi ritkán...,filánylunk,filányozunk,cselekszik,-lik,2,PR2046,1991,nő,nem,2022-04-13_11h28.38.312,hesp_baseline,2021.2.3,Win32,60.04202942
,,,,,,,,,,,,,,,,,sztredeztek,sztredletek,right,5.3729,0,87,87,145,1,146,sztredlik / sztredezik,"sztredlik, sztredezni",tek,NA,"János imád sztredezni, ezért sokat sztredlik.",Ti ritkán...,sztredletek,sztredeztek,cselekszik,-lik,1,PR2046,1991,nő,nem,2022-04-13_11h28.38.312,hesp_baseline,2021.2.3,Win32,60.04202942
,,,,,,,,,,,,,,,,,böjzök,böjzöm,right,2.6014,0,88,88,80,1,135,böjzik,böjzöl,NA,NA,Te bizony sokat böjzöl.,Én is sokat...,böjzök,böjzöm,lakik,-zik,1,PR2046,1991,nő,nem,2022-04-13_11h28.38.312,hesp_baseline,2021.2.3,Win32,60.04202942
,,,,,,,,,,,,,,,,,pibegeznek,pibegzenek,right,6.7012,0,89,89,127,1,128,pibegzik / pibegezik,"pibegzik, pibegezni",nek,NA,"János imád pibegezni, ezért sokat pibegzik.",Ők ritkán...,pibegzenek,pibegeznek,cselekszik,-zik,2,PR2046,1991,nő,nem,2022-04-13_11h28.38.312,hesp_baseline,2021.2.3,Win32,60.04202942
,,,,,,,,,,,,,,,,,klégezünk,kléglünk,right,3.4505,0,90,90,122,1,123,kléglik / klégezik,"kléglik, klégezni",ünk,NA,"János imád klégezni, ezért sokat kléglik.",Mi ritkán...,kléglünk,klégezünk,cselekszik,-lik,1,PR2046,1991,nő,nem,2022-04-13_11h28.38.312,hesp_baseline,2021.2.3,Win32,60.04202942
,,,,,,,,,,,,,,,,,vobzotok,voboztok,right,2.7649,0,91,91,158,1,159,vobzik / vobozik,"vobzik, vobozni",tek,NA,"János imád vobozni, ezért sokat vobzik.",Ti ritkán...,vobzotok,voboztok,cselekszik,-zik,1,PR2046,1991,nő,nem,2022-04-13_11h28.38.312,hesp_baseline,2021.2.3,Win32,60.04202942
,,,,,,,,,,,,,,,,,sztrűkszök,sztrűkszöm,right,2.7681,0,92,92,77,1,132,sztrűkszik,sztrűkszöl,NA,NA,Te bizony sokat sztrűkszöl.,Én is sokat...,sztrűkszök,sztrűkszöm,lakik,-szik,1,PR2046,1991,nő,nem,2022-04-13_11h28.38.312,hesp_baseline,2021.2.3,Win32,60.04202942
,,,,,,,,,,,,,,,,,bivejlem,bivejlek,right,3.5842,0,93,93,73,1,128,bivejlik,bivejlesz,NA,NA,Te bizony sokat bivejlesz.,Én is sokat...,bivejlek,bivejlem,lakik,-lik,2,PR2046,1991,nő,nem,2022-04-13_11h28.38.312,hesp_baseline,2021.2.3,Win32,60.04202942
,,,,,,,,,,,,,,,,,frilegszek,frilegszem,right,4.8348,0,94,94,72,1,127,frilegszik,frilegszel,NA,NA,Te bizony sokat frilegszel.,Én is sokat...,frilegszek,frilegszem,lakik,-szik,2,PR2046,1991,nő,nem,2022-04-13_11h28.38.312,hesp_baseline,2021.2.3,Win32,60.04202942
,,,,,,,,,,,,,,,,,kábesznál,kábesznél,right,2.4176,0,95,95,44,1,153,kábesz,kábesz,nál,e,Ez itt egy kábesz.,Nincs is jobb egy jó...,kábesznél,kábesznál,dzsungel,NA,NA,PR2046,1991,nő,nem,2022-04-13_11h28.38.312,hesp_baseline,2021.2.3,Win32,60.04202942
,,,,,,,,,,,,,,,,,drilarzunk,drilarozunk,right,4.7174,0,96,96,131,1,132,drilarzik / drilarozik,"drilarzik, drilarozni",ünk,NA,"János imád drilarozni, ezért sokat drilarzik.",Mi ritkán...,drilarzunk,drilarozunk,cselekszik,-zik,2,PR2046,1991,nő,nem,2022-04-13_11h28.38.312,hesp_baseline,2021.2.3,Win32,60.04202942
,,,,,,,,,,,,,,,,,kláragodtok,kláragszotok,right,10.8005,0,97,97,123,1,124,kláragszik / kláragodik,"kláragszik, kláragodni",tek,NA,"János imád kláragodni, ezért sokat kláragszik.",Ti ritkán...,kláragszotok,kláragodtok,cselekszik,-szik,2,PR2046,1991,nő,nem,2022-04-13_11h28.38.312,hesp_baseline,2021.2.3,Win32,60.04202942
,,,,,,,,,,,,,,,,,vilesezünk,vileslünk,right,6.0322,0,98,98,139,1,140,vileslik / vilesezik,"vileslik, vilesezni",ünk,NA,"János imád vilesezni, ezért sokat vileslik.",Mi ritkán...,vileslünk,vilesezünk,cselekszik,-lik,2,PR2046,1991,nő,nem,2022-04-13_11h28.38.312,hesp_baseline,2021.2.3,Win32,60.04202942
,,,,,,,,,,,,,,,,,dorzéjnak,dorzéjnek,right,3.3013,0,99,99,29,1,138,dorzéj,dorzéj,nak,é,Ez itt egy dorzéj.,Elneveztem a kutyámat...,dorzéjnek,dorzéjnak,dzsungel,NA,NA,PR2046,1991,nő,nem,2022-04-13_11h28.38.312,hesp_baseline,2021.2.3,Win32,60.04202942
,,,,,,,,,,,,,,,,,düjzöm,düjzök,right,2.6868,0,100,100,97,1,152,düjzik,düjzöl,NA,NA,Te bizony sokat düjzöl.,Én is sokat...,düjzök,düjzöm,lakik,-zik,1,PR2046,1991,nő,nem,2022-04-13_11h28.38.312,hesp_baseline,2021.2.3,Win32,60.04202942
,,,,,,,,,,,,,,,,,pijélnél,pijélnál,left,3.1672,0,101,101,3,1,112,pijél,pijél,nál,é,Ez itt egy pijél.,Nincs is jobb egy jó...,pijélnél,pijélnál,dzsungel,NA,NA,PR2046,1991,nő,nem,2022-04-13_11h28.38.312,hesp_baseline,2021.2.3,Win32,60.04202942
,,,,,,,,,,,,,,,,,sűzlök,sűzlöm,right,4.1679,0,102,102,54,1,109,sűzlik,sűzlesz,NA,NA,Te bizony sokat sűzlesz.,Én is sokat...,sűzlök,sűzlöm,lakik,-lik,1,PR2046,1991,nő,nem,2022-04-13_11h28.38.312,hesp_baseline,2021.2.3,Win32,60.04202942
,,,,,,,,,,,,,,,,,dralágzunk,dralágozunk,right,6.9319,0,103,103,156,1,157,dralágzik / dralágozik,"dralágzik, dralágozni",ünk,NA,"János imád dralágozni, ezért sokat dralágzik.",Mi ritkán...,dralágzunk,dralágozunk,cselekszik,-zik,2,PR2046,1991,nő,nem,2022-04-13_11h28.38.312,hesp_baseline,2021.2.3,Win32,60.04202942
,,,,,,,,,,,,,,,,,briváglanak,brivágoznak,right,4.4176,0,104,104,138,1,139,briváglik / brivágozik,"briváglik, brivágozni",nek,NA,"János imád brivágozni, ezért sokat briváglik.",Ők ritkán...,briváglanak,brivágoznak,cselekszik,-lik,2,PR2046,1991,nő,nem,2022-04-13_11h28.38.312,hesp_baseline,2021.2.3,Win32,60.04202942
,,,,,,,,,,,,,,,,,klivaslom,klivaslok,left,6.1214,0,105,105,62,1,117,klivaslik,klivaslasz,NA,NA,Te bizony sokat klivaslasz.,Én is sokat...,klivaslok,klivaslom,lakik,-lik,2,PR2046,1991,nő,nem,2022-04-13_11h28.38.312,hesp_baseline,2021.2.3,Win32,60.04202942
,,,,,,,,,,,,,,,,,prűrlök,prűrlöm,right,3.6221,0,106,106,75,1,130,prűrlik,prűrlesz,NA,NA,Te bizony sokat prűrlesz.,Én is sokat...,prűrlök,prűrlöm,lakik,-lik,1,PR2046,1991,nő,nem,2022-04-13_11h28.38.312,hesp_baseline,2021.2.3,Win32,60.04202942
,,,,,,,,,,,,,,,,,klárzok,klárzom,right,4.4178,0,107,107,85,1,140,klárzik,klárzol,NA,NA,Te bizony sokat klárzol.,Én is sokat...,klárzok,klárzom,lakik,-zik,1,PR2046,1991,nő,nem,2022-04-13_11h28.38.312,hesp_baseline,2021.2.3,Win32,60.04202942
,,,,,,,,,,,,,,,,,lűklenek,lűköznek,right,3.7172,0,108,108,136,1,137,lűklik / lűközik,"lűklik, lűközni",nek,NA,"János imád lűközni, ezért sokat lűklik.",Ők ritkán...,lűklenek,lűköznek,cselekszik,-lik,1,PR2046,1991,nő,nem,2022-04-13_11h28.38.312,hesp_baseline,2021.2.3,Win32,60.04202942
,,,,,,,,,,,,,,,,,briskédnál,briskédnél,right,3.3681,0,109,109,51,1,160,briskéd,briskéd,nál,é,Ez itt egy briskéd.,Nincs is jobb egy jó...,briskédnél,briskédnál,dzsungel,NA,NA,PR2046,1991,nő,nem,2022-04-13_11h28.38.312,hesp_baseline,2021.2.3,Win32,60.04202942
,,,,,,,,,,,,,,,,,vurnelnak,vurnelnek,right,2.5007,0,110,110,50,1,159,vurnel,vurnel,nak,e,Ez itt egy vurnel.,Elneveztem a kutyámat...,vurnelnek,vurnelnak,dzsungel,NA,NA,PR2046,1991,nő,nem,2022-04-13_11h28.38.312,hesp_baseline,2021.2.3,Win32,60.04202942
,,,,,,,,,,,,,,,,,finceknél,finceknál,left,3.6675,0,111,111,9,1,118,fincek,fincek,nál,e,Ez itt egy fincek.,Nincs is jobb egy jó...,finceknél,finceknál,dzsungel,NA,NA,PR2046,1991,nő,nem,2022-04-13_11h28.38.312,hesp_baseline,2021.2.3,Win32,60.04202942
,,,,,,,,,,,,,,,,,trehégszek,trehégszem,right,6.0858,0,112,112,86,1,141,trehégszik,trehégszel,NA,NA,Te bizony sokat trehégszel.,Én is sokat...,trehégszek,trehégszem,lakik,-szik,2,PR2046,1991,nő,nem,2022-04-13_11h28.38.312,hesp_baseline,2021.2.3,Win32,60.04202942
,,,,,,,,,,,,,,,,,dalencnél,dalencnál,left,5.7373,0,113,113,31,1,140,dalenc,dalenc,nál,e,Ez itt egy dalenc.,Nincs is jobb egy jó...,dalencnél,dalencnál,dzsungel,NA,NA,PR2046,1991,nő,nem,2022-04-13_11h28.38.312,hesp_baseline,2021.2.3,Win32,60.04202942
,,,,,,,,,,,,,,,,,virzanak,viroznak,right,12.8488,0,114,114,125,1,126,virzik / virozik,"virzik, virozni",nek,NA,"János imád virozni, ezért sokat virzik.",Ők ritkán...,virzanak,viroznak,cselekszik,-zik,1,PR2046,1991,nő,nem,2022-04-13_11h28.38.312,hesp_baseline,2021.2.3,Win32,60.04202942
,,,,,,,,,,,,,,,,,brűklötök,brűköztök,right,6.7671,0,115,115,153,1,154,brűklik / brűközik,"brűklik, brűközni",tek,NA,"János imád brűközni, ezért sokat brűklik.",Ti ritkán...,brűklötök,brűköztök,cselekszik,-lik,1,PR2046,1991,nő,nem,2022-04-13_11h28.38.312,hesp_baseline,2021.2.3,Win32,60.04202942
,,,,,,,,,,,,,,,,,frivajlok,frivajlom,right,3.9005,0,116,116,78,1,133,frivajlik,frivajlasz,NA,NA,Te bizony sokat frivajlasz.,Én is sokat...,frivajlok,frivajlom,lakik,-lik,2,PR2046,1991,nő,nem,2022-04-13_11h28.38.312,hesp_baseline,2021.2.3,Win32,60.04202942
,,,,,,,,,,,,,,,,,csodegnál,csodegnél,right,2.818,0,117,117,28,1,137,csodeg,csodeg,nál,e,Ez itt egy csodeg.,Nincs is jobb egy jó...,csodegnél,csodegnál,dzsungel,NA,NA,PR2046,1991,nő,nem,2022-04-13_11h28.38.312,hesp_baseline,2021.2.3,Win32,60.04202942
,,,,,,,,,,,,,,,,,nyítemben,nyítemban,left,3.8181,0,118,118,41,1,150,nyítem,nyítem,ban,e,Ez itt egy nyítem.,Ott vagyunk a...,nyítemben,nyítemban,dzsungel,NA,NA,PR2046,1991,nő,nem,2022-04-13_11h28.38.312,hesp_baseline,2021.2.3,Win32,60.04202942
,,,,,,,,,,,,,,,,,trálaklanak,trálakoznak,left,7.9167,0,119,119,116,1,117,trálaklik / trálakozik,"trálaklik, trálakozni",nek,NA,"János imád trálakozni, ezért sokat trálaklik.",Ők ritkán...,trálaklanak,trálakoznak,cselekszik,-lik,2,PR2046,1991,nő,nem,2022-04-13_11h28.38.312,hesp_baseline,2021.2.3,Win32,60.04202942
,,,,,,,,,,,,,,,,,vihepszek,vihepszem,right,3.6842,0,120,120,59,1,114,vihepszik,vihepszel,NA,NA,Te bizony sokat vihepszel.,Én is sokat...,vihepszek,vihepszem,lakik,-szik,2,PR2046,1991,nő,nem,2022-04-13_11h28.38.312,hesp_baseline,2021.2.3,Win32,60.04202942
,,,,,,,,,,,,,,,,,tűgöztök,tűgzötök,left,6.6677,0,121,121,143,1,144,tűgzik / tűgözik,"tűgzik, tűgözni",tek,NA,"János imád tűgözni, ezért sokat tűgzik.",Ti ritkán...,tűgzötök,tűgöztök,cselekszik,-zik,1,PR2046,1991,nő,nem,2022-04-13_11h28.38.312,hesp_baseline,2021.2.3,Win32,60.04202942
,,,,,,,,,,,,,,,,,spirágoztok,spiráglotok,right,5.7841,0,122,122,135,1,136,spiráglik / spirágozik,"spiráglik, spirágozni",tek,NA,"János imád spirágozni, ezért sokat spiráglik.",Ti ritkán...,spiráglotok,spirágoztok,cselekszik,-lik,2,PR2046,1991,nő,nem,2022-04-13_11h28.38.312,hesp_baseline,2021.2.3,Win32,60.04202942
,,,,,,,,,,,,,,,,,lumlotok,lumoztok,right,4.4516,0,123,123,149,1,150,lumlik / lumozik,"lumlik, lumozni",tek,NA,"János imád lumozni, ezért sokat lumlik.",Ti ritkán...,lumlotok,lumoztok,cselekszik,-lik,1,PR2046,1991,nő,nem,2022-04-13_11h28.38.312,hesp_baseline,2021.2.3,Win32,60.04202942
,,,,,,,,,,,,,,,,,lájoztok,lájzotok,left,6.5183,0,124,124,159,1,160,lájzik / lájozik,"lájzik, lájozni",tek,NA,"János imád lájozni, ezért sokat lájzik.",Ti ritkán...,lájzotok,lájoztok,cselekszik,-zik,1,PR2046,1991,nő,nem,2022-04-13_11h28.38.312,hesp_baseline,2021.2.3,Win32,60.04202942
,,,,,,,,,,,,,,,,,trűnyöznek,trűnylenek,left,15.205,0,125,125,119,1,120,trűnylik / trűnyözik,"trűnylik, trűnyözni",nek,NA,"János imád trűnyözni, ezért sokat trűnylik.",Ők ritkán...,trűnylenek,trűnyöznek,cselekszik,-lik,1,PR2046,1991,nő,nem,2022-04-13_11h28.38.312,hesp_baseline,2021.2.3,Win32,60.04202942
,,,,,,,,,,,,,,,,,zinednek,zinednak,left,3.3515,0,126,126,22,1,131,zined,zined,nak,e,Ez itt egy zined.,Elneveztem a kutyámat...,zinednek,zinednak,dzsungel,NA,NA,PR2046,1991,nő,nem,2022-04-13_11h28.38.312,hesp_baseline,2021.2.3,Win32,60.04202942
,,,,,,,,,,,,,,,,,braszencnál,braszencnél,right,3.8009,0,127,127,7,1,116,braszenc,braszenc,nál,e,Ez itt egy braszenc.,Nincs is jobb egy jó...,braszencnél,braszencnál,dzsungel,NA,NA,PR2046,1991,nő,nem,2022-04-13_11h28.38.312,hesp_baseline,2021.2.3,Win32,60.04202942
,,,,,,,,,,,,,,,,,vehékedünk,vehékszünk,right,5.051,0,128,128,117,1,118,vehékszik / vehékedik,"vehékszik, vehékedni",ünk,NA,"János imád vehékedni, ezért sokat vehékszik.",Mi ritkán...,vehékszünk,vehékedünk,cselekszik,-szik,2,PR2046,1991,nő,nem,2022-04-13_11h28.38.312,hesp_baseline,2021.2.3,Win32,60.04202942
,,,,,,,,,,,,,,,,,trájegban,trájegben,right,3.3841,0,129,129,14,1,123,trájeg,trájeg,ban,e,Ez itt egy trájeg.,Ott vagyunk a...,trájegben,trájegban,dzsungel,NA,NA,PR2046,1991,nő,nem,2022-04-13_11h28.38.312,hesp_baseline,2021.2.3,Win32,60.04202942
,,,,,,,,,,,,,,,,,brukésznál,brukésznél,right,5.1346,0,130,130,10,1,119,brukész,brukész,nál,é,Ez itt egy brukész.,Nincs is jobb egy jó...,brukésznél,brukésznál,dzsungel,NA,NA,PR2046,1991,nő,nem,2022-04-13_11h28.38.312,hesp_baseline,2021.2.3,Win32,60.04202942
,,,,,,,,,,,,,,,,,gicéjnél,gicéjnál,left,3.3176,0,131,131,17,1,126,gicéj,gicéj,nál,é,Ez itt egy gicéj.,Nincs is jobb egy jó...,gicéjnél,gicéjnál,dzsungel,NA,NA,PR2046,1991,nő,nem,2022-04-13_11h28.38.312,hesp_baseline,2021.2.3,Win32,60.04202942
,,,,,,,,,,,,,,,,,gótemnak,gótemnek,right,1.9348,0,132,132,35,1,144,gótem,gótem,nak,e,Ez itt egy gótem.,Elneveztem a kutyámat...,gótemnek,gótemnak,dzsungel,NA,NA,PR2046,1991,nő,nem,2022-04-13_11h28.38.312,hesp_baseline,2021.2.3,Win32,60.04202942
,,,,,,,,,,,,,,,,,zatéjnál,zatéjnél,right,3.7025,0,133,133,34,1,143,zatéj,zatéj,nál,é,Ez itt egy zatéj.,Nincs is jobb egy jó...,zatéjnél,zatéjnál,dzsungel,NA,NA,PR2046,1991,nő,nem,2022-04-13_11h28.38.312,hesp_baseline,2021.2.3,Win32,60.04202942
,,,,,,,,,,,,,,,,,sűjözünk,sűjlünk,right,5.0083,0,134,134,128,1,129,sűjlik / sűjözik,"sűjlik, sűjözni",ünk,NA,"János imád sűjözni, ezért sokat sűjlik.",Mi ritkán...,sűjlünk,sűjözünk,cselekszik,-lik,1,PR2046,1991,nő,nem,2022-04-13_11h28.38.312,hesp_baseline,2021.2.3,Win32,60.04202942
,,,,,,,,,,,,,,,,,vubletnál,vubletnél,right,2.7169,0,135,135,26,1,135,vublet,vublet,nál,e,Ez itt egy vublet.,Nincs is jobb egy jó...,vubletnél,vubletnál,dzsungel,NA,NA,PR2046,1991,nő,nem,2022-04-13_11h28.38.312,hesp_baseline,2021.2.3,Win32,60.04202942
,,,,,,,,,,,,,,,,,triklotok,trikoztok,left,5.9663,0,136,136,160,1,161,triklik / trikozik,"triklik, trikozni",tek,NA,"János imád trikozni, ezért sokat triklik.",Ti ritkán...,triklotok,trikoztok,cselekszik,-lik,1,PR2046,1991,nő,nem,2022-04-13_11h28.38.312,hesp_baseline,2021.2.3,Win32,60.04202942
,,,,,,,,,,,,,,,,,surnegynál,surnegynél,right,7.6009,0,137,137,8,1,117,surnegy,surnegy,nál,e,Ez itt egy surnegy.,Nincs is jobb egy jó...,surnegynél,surnegynál,dzsungel,NA,NA,PR2046,1991,nő,nem,2022-04-13_11h28.38.312,hesp_baseline,2021.2.3,Win32,60.04202942
,,,,,,,,,,,,,,,,,spanélnél,spanélnál,left,4.0872,0,138,138,24,1,133,spanél,spanél,nál,é,Ez itt egy spanél.,Nincs is jobb egy jó...,spanélnél,spanélnál,dzsungel,NA,NA,PR2046,1991,nő,nem,2022-04-13_11h28.38.312,hesp_baseline,2021.2.3,Win32,60.04202942
,,,,,,,,,,,,,,,,,sprálszok,sprálszom,right,4.7162,0,139,139,65,1,120,sprálszik,sprálszol,NA,NA,Te bizony sokat sprálszol.,Én is sokat...,sprálszok,sprálszom,lakik,-szik,1,PR2046,1991,nő,nem,2022-04-13_11h28.38.312,hesp_baseline,2021.2.3,Win32,60.04202942
,,,,,,,,,,,,,,,,,siladzok,siladzom,right,5.3907,0,140,140,93,1,148,siladzik,siladzol,NA,NA,Te bizony sokat siladzol.,Én is sokat...,siladzok,siladzom,lakik,-zik,2,PR2046,1991,nő,nem,2022-04-13_11h28.38.312,hesp_baseline,2021.2.3,Win32,60.04202942
,,,,,,,,,,,,,,,,,pristélben,pristélban,left,3.335,0,141,141,1,1,110,pristél,pristél,ban,é,Ez itt egy pristél.,Ott vagyunk a...,pristélben,pristélban,dzsungel,NA,NA,PR2046,1991,nő,nem,2022-04-13_11h28.38.312,hesp_baseline,2021.2.3,Win32,60.04202942
,,,,,,,,,,,,,,,,,flöklötök,flököztök,right,7.3254,0,142,142,121,1,122,flöklik / flöközik,"flöklik, flöközni",tek,NA,"János imád flöközni, ezért sokat flöklik.",Ti ritkán...,flöklötök,flököztök,cselekszik,-lik,1,PR2046,1991,nő,nem,2022-04-13_11h28.38.312,hesp_baseline,2021.2.3,Win32,60.04202942
,,,,,,,,,,,,,,,,,brindeznak,brindeznek,right,5.2288,0,143,143,6,1,115,brindez,brindez,nak,e,Ez itt egy brindez.,Elneveztem a kutyámat...,brindeznek,brindeznak,dzsungel,NA,NA,PR2046,1991,nő,nem,2022-04-13_11h28.38.312,hesp_baseline,2021.2.3,Win32,60.04202942
,,,,,,,,,,,,,,,,,huméknak,huméknek,left,3.508,0,144,144,23,1,132,humék,humék,nak,é,Ez itt egy humék.,Elneveztem a kutyámat...,huméknek,huméknak,dzsungel,NA,NA,PR2046,1991,nő,nem,2022-04-13_11h28.38.312,hesp_baseline,2021.2.3,Win32,60.04202942
,,,,,,,,,,,,,,,,,sprivencnál,sprivencnél,right,5.0816,0,145,145,13,1,122,sprivenc,sprivenc,nál,e,Ez itt egy sprivenc.,Nincs is jobb egy jó...,sprivencnél,sprivencnál,dzsungel,NA,NA,PR2046,1991,nő,nem,2022-04-13_11h28.38.312,hesp_baseline,2021.2.3,Win32,60.04202942
,,,,,,,,,,,,,,,,,trálszunk,trálodunk,left,5.5447,0,146,146,130,1,131,trálszik / trálodik,"trálszik, trálodni",ünk,NA,"János imád trálodni, ezért sokat trálszik.",Mi ritkán...,trálszunk,trálodunk,cselekszik,-szik,1,PR2046,1991,nő,nem,2022-04-13_11h28.38.312,hesp_baseline,2021.2.3,Win32,60.04202942
,,,,,,,,,,,,,,,,,klibamlok,klibamlom,right,4.8232,0,147,147,92,1,147,klibamlik,klibamlasz,NA,NA,Te bizony sokat klibamlasz.,Én is sokat...,klibamlok,klibamlom,lakik,-lik,2,PR2046,1991,nő,nem,2022-04-13_11h28.38.312,hesp_baseline,2021.2.3,Win32,60.04202942
,,,,,,,,,,,,,,,,,zsáderban,zsáderben,right,2.5788,0,148,148,25,1,134,zsáder,zsáder,ban,e,Ez itt egy zsáder.,Ott vagyunk a...,zsáderben,zsáderban,dzsungel,NA,NA,PR2046,1991,nő,nem,2022-04-13_11h28.38.312,hesp_baseline,2021.2.3,Win32,60.04202942
,,,,,,,,,,,,,,,,,tínylok,tínylom,right,3.2634,0,149,149,58,1,113,tínylik,tínylasz,NA,NA,Te bizony sokat tínylasz.,Én is sokat...,tínylok,tínylom,lakik,-lik,1,PR2046,1991,nő,nem,2022-04-13_11h28.38.312,hesp_baseline,2021.2.3,Win32,60.04202942
,,,,,,,,,,,,,,,,,drivegzetek,drivegeztek,right,5.5482,0,150,150,112,1,113,drivegzik / drivegezik,"drivegzik, drivegezni",tek,NA,"János imád drivegezni, ezért sokat drivegzik.",Ti ritkán...,drivegzetek,drivegeztek,cselekszik,-zik,2,PR2046,1991,nő,nem,2022-04-13_11h28.38.312,hesp_baseline,2021.2.3,Win32,60.04202942
,,,,,,,,,,,,,,,,,döjöznek,döjlenek,right,5.2462,0,151,151,129,1,130,döjlik / döjözik,"döjlik, döjözni",nek,NA,"János imád döjözni, ezért sokat döjlik.",Ők ritkán...,döjlenek,döjöznek,cselekszik,-lik,1,PR2046,1991,nő,nem,2022-04-13_11h28.38.312,hesp_baseline,2021.2.3,Win32,60.04202942
,,,,,,,,,,,,,,,,,pazévnál,pazévnél,left,4.94,0,152,152,36,1,145,pazév,pazév,nál,é,Ez itt egy pazév.,Nincs is jobb egy jó...,pazévnél,pazévnál,dzsungel,NA,NA,PR2046,1991,nő,nem,2022-04-13_11h28.38.312,hesp_baseline,2021.2.3,Win32,60.04202942
,,,,,,,,,,,,,,,,,licegyben,licegyban,left,3.1229,0,153,153,15,1,124,licegy,licegy,ban,e,Ez itt egy licegy.,Ott vagyunk a...,licegyben,licegyban,dzsungel,NA,NA,PR2046,1991,nő,nem,2022-04-13_11h28.38.312,hesp_baseline,2021.2.3,Win32,60.04202942
,,,,,,,,,,,,,,,,,spuménynak,spuménynek,right,3.6985,0,154,154,19,1,128,spumény,spumény,nak,é,Ez itt egy spumény.,Elneveztem a kutyámat...,spuménynek,spuménynak,dzsungel,NA,NA,PR2046,1991,nő,nem,2022-04-13_11h28.38.312,hesp_baseline,2021.2.3,Win32,60.04202942
,,,,,,,,,,,,,,,,,féjzek,féjzem,right,2.7886,0,155,155,91,1,146,féjzik,féjzel,NA,NA,Te bizony sokat féjzel.,Én is sokat...,féjzek,féjzem,lakik,-zik,1,PR2046,1991,nő,nem,2022-04-13_11h28.38.312,hesp_baseline,2021.2.3,Win32,60.04202942
,,,,,,,,,,,,,,,,,pragányoztok,pragánylotok,left,6.9006,0,156,156,133,1,134,pragánylik / pragányozik,"pragánylik, pragányozni",tek,NA,"János imád pragányozni, ezért sokat pragánylik.",Ti ritkán...,pragánylotok,pragányoztok,cselekszik,-lik,2,PR2046,1991,nő,nem,2022-04-13_11h28.38.312,hesp_baseline,2021.2.3,Win32,60.04202942
,,,,,,,,,,,,,,,,,spuboroznak,spuborzanak,left,6.579,0,157,157,161,1,162,spuborzik / spuborozik,"spuborzik, spuborozni",nek,NA,"János imád spuborozni, ezért sokat spuborzik.",Ők ritkán...,spuborzanak,spuboroznak,cselekszik,-zik,2,PR2046,1991,nő,nem,2022-04-13_11h28.38.312,hesp_baseline,2021.2.3,Win32,60.04202942
,,,,,,,,,,,,,,,,,klétszem,klétszek,left,3.9305,0,158,158,60,1,115,klétszik,klétszel,NA,NA,Te bizony sokat klétszel.,Én is sokat...,klétszek,klétszem,lakik,-szik,1,PR2046,1991,nő,nem,2022-04-13_11h28.38.312,hesp_baseline,2021.2.3,Win32,60.04202942
,,,,,,,,,,,,,,,,,brivepszünk,brivepedünk,left,7.3262,0,159,159,113,1,114,brivepszik / brivepedik,"brivepszik, brivepedni",ünk,NA,"János imád brivepedni, ezért sokat brivepszik.",Mi ritkán...,brivepszünk,brivepedünk,cselekszik,-szik,2,PR2046,1991,nő,nem,2022-04-13_11h28.38.312,hesp_baseline,2021.2.3,Win32,60.04202942
,,,,,,,,,,,,,,,,,mágamlunk,mágamozunk,left,7.6313,0,160,160,140,1,141,mágamlik / mágamozik,"mágamlik, mágamozni",ünk,NA,"János imád mágamozni, ezért sokat mágamlik.",Mi ritkán...,mágamlunk,mágamozunk,cselekszik,-lik,2,PR2046,1991,nő,nem,2022-04-13_11h28.38.312,hesp_baseline,2021.2.3,Win32,60.04202942
,,,,,,,,,,,,,,,,,gibemlünk,gibemezünk,left,6.8487,0,161,161,115,1,116,gibemlik / gibemezik,"gibemlik, gibemezni",ünk,NA,"János imád gibemezni, ezért sokat gibemlik.",Mi ritkán...,gibemlünk,gibemezünk,cselekszik,-lik,2,PR2046,1991,nő,nem,2022-04-13_11h28.38.312,hesp_baseline,2021.2.3,Win32,60.04202942
