my_list,key.keys,key.rt,key_2.keys,key_2.rt,keyboard_input_2.keys,keyboard_input_2.rt,key_3.keys,key_3.rt,keyboard_input_3.keys,keyboard_input_3.rt,key_4.keys,key_4.rt,keyboard_input_4.keys,keyboard_input_4.rt,key_5.keys,key_5.rt,my_button1,my_button2,keyboard_input.keys,keyboard_input.rt,withinBlock.thisRepN,withinBlock.thisTrialN,withinBlock.thisN,withinBlock.thisIndex,withinBlock.ran,rowname,word,prompt,suffix,vowel,carrier_sentence,target_sentence,target1,target2,category,derivational,nsyl,Azonosító,Melyik évben születtél?,Mi a nemed?,Tanultál nyelvészetet?,date,expName,psychopyVersion,OS,frameRate
list2.csv,space,139267.8315,space,8.2632,right,9.9867,space,11.4671,left,4.197,space,9.4511,left,4.7523,space,14.8391,dibáglotok,dibágoztok,left,17.1187,0,0,0,154,1,101,dibáglik / dibágozik,"dibáglik, dibágozni",tek,NA,"János imád dibágozni, ezért sokat dibáglik.",Ti ritkán...,dibáglotok,dibágoztok,cselekszik,-lik,2,PR2052,2003,nő,nem,2022-04-13_20h17.30.585,hesp_baseline,2021.2.3,Win32,58.42827929
,,,,,,,,,,,,,,,,,fröjözünk,fröjlünk,right,6.614,0,1,1,117,1,64,fröjlik / fröjözik,"fröjlik, fröjözni",ünk,NA,"János imád fröjözni, ezért sokat fröjlik.",Mi ritkán...,fröjlünk,fröjözünk,cselekszik,-lik,1,PR2052,2003,nő,nem,2022-04-13_20h17.30.585,hesp_baseline,2021.2.3,Win32,58.42827929
,,,,,,,,,,,,,,,,,tomlom,tomlok,left,4.029,0,2,2,86,1,87,tomlik,tomlasz,NA,NA,Te bizony sokat tomlasz.,Én is sokat...,tomlok,tomlom,lakik,-lik,1,PR2052,2003,nő,nem,2022-04-13_20h17.30.585,hesp_baseline,2021.2.3,Win32,58.42827929
,,,,,,,,,,,,,,,,,sortemnál,sortemnél,right,5.3459,0,3,3,15,1,70,sortem,sortem,nál,e,Ez itt egy sortem.,Nincs is jobb egy jó...,sortemnél,sortemnál,dzsungel,NA,NA,PR2052,2003,nő,nem,2022-04-13_20h17.30.585,hesp_baseline,2021.2.3,Win32,58.42827929
,,,,,,,,,,,,,,,,,pribemlek,pribemlem,left,6.6875,0,4,4,107,1,108,pribemlik,pribemlesz,NA,NA,Te bizony sokat pribemlesz.,Én is sokat...,pribemlek,pribemlem,lakik,-lik,2,PR2052,2003,nő,nem,2022-04-13_20h17.30.585,hesp_baseline,2021.2.3,Win32,58.42827929
,,,,,,,,,,,,,,,,,tumélynél,tumélynál,right,3.6165,0,5,5,28,1,83,tumély,tumély,nál,é,Ez itt egy tumély.,Nincs is jobb egy jó...,tumélynél,tumélynál,dzsungel,NA,NA,PR2052,2003,nő,nem,2022-04-13_20h17.30.585,hesp_baseline,2021.2.3,Win32,58.42827929
,,,,,,,,,,,,,,,,,hákodnak,hákszanak,right,6.8803,0,6,6,150,1,97,hákszik / hákodik,"hákszik, hákodni",nek,NA,"János imád hákodni, ezért sokat hákszik.",Ők ritkán...,hákszanak,hákodnak,cselekszik,-szik,1,PR2052,2003,nő,nem,2022-04-13_20h17.30.585,hesp_baseline,2021.2.3,Win32,58.42827929
,,,,,,,,,,,,,,,,,sprogzok,sprogzom,right,16.9074,0,7,7,89,1,90,sprogzik,sprogzol,NA,NA,Te bizony sokat sprogzol.,Én is sokat...,sprogzok,sprogzom,lakik,-zik,1,PR2052,2003,nő,nem,2022-04-13_20h17.30.585,hesp_baseline,2021.2.3,Win32,58.42827929
,,,,,,,,,,,,,,,,,ítensben,ítensban,left,4.5317,0,8,8,50,1,105,ítens,ítens,ban,e,Ez itt egy ítens.,Ott vagyunk a...,ítensben,ítensban,dzsungel,NA,NA,PR2052,2003,nő,nem,2022-04-13_20h17.30.585,hesp_baseline,2021.2.3,Win32,58.42827929
,,,,,,,,,,,,,,,,,klajrénnek,klajrénnak,right,5.4178,0,9,9,41,1,96,klajrén,klajrén,nak,é,Ez itt egy klajrén.,Elneveztem a kutyámat...,klajrénnek,klajrénnak,dzsungel,NA,NA,PR2052,2003,nő,nem,2022-04-13_20h17.30.585,hesp_baseline,2021.2.3,Win32,58.42827929
,,,,,,,,,,,,,,,,,pivegszem,pivegszek,left,4.0207,0,10,10,99,1,100,pivegszik,pivegszel,NA,NA,Te bizony sokat pivegszel.,Én is sokat...,pivegszek,pivegszem,lakik,-szik,2,PR2052,2003,nő,nem,2022-04-13_20h17.30.585,hesp_baseline,2021.2.3,Win32,58.42827929
,,,,,,,,,,,,,,,,,zutennál,zutennél,right,3.1857,0,11,11,43,1,98,zuten,zuten,nál,e,Ez itt egy zuten.,Nincs is jobb egy jó...,zutennél,zutennál,dzsungel,NA,NA,PR2052,2003,nő,nem,2022-04-13_20h17.30.585,hesp_baseline,2021.2.3,Win32,58.42827929
,,,,,,,,,,,,,,,,,spizecnek,spizecnak,left,5.0345,0,12,12,6,1,61,spizec,spizec,nak,e,Ez itt egy spizec.,Elneveztem a kutyámat...,spizecnek,spizecnak,dzsungel,NA,NA,PR2052,2003,nő,nem,2022-04-13_20h17.30.585,hesp_baseline,2021.2.3,Win32,58.42827929
,,,,,,,,,,,,,,,,,klítegynél,klítegynál,left,3.0347,0,13,13,5,1,60,klítegy,klítegy,nál,e,Ez itt egy klítegy.,Nincs is jobb egy jó...,klítegynél,klítegynál,dzsungel,NA,NA,PR2052,2003,nő,nem,2022-04-13_20h17.30.585,hesp_baseline,2021.2.3,Win32,58.42827929
,,,,,,,,,,,,,,,,,pítendben,pítendban,left,2.8665,0,14,14,18,1,73,pítend,pítend,ban,e,Ez itt egy pítend.,Ott vagyunk a...,pítendben,pítendban,dzsungel,NA,NA,PR2052,2003,nő,nem,2022-04-13_20h17.30.585,hesp_baseline,2021.2.3,Win32,58.42827929
,,,,,,,,,,,,,,,,,friszlom,friszlok,left,3.8668,0,15,15,97,1,98,friszlik,friszlasz,NA,NA,Te bizony sokat friszlasz.,Én is sokat...,friszlok,friszlom,lakik,-lik,1,PR2052,2003,nő,nem,2022-04-13_20h17.30.585,hesp_baseline,2021.2.3,Win32,58.42827929
,,,,,,,,,,,,,,,,,juszlom,juszlok,left,2.4912,0,16,16,79,1,80,juszlik,juszlasz,NA,NA,Te bizony sokat juszlasz.,Én is sokat...,juszlok,juszlom,lakik,-lik,1,PR2052,2003,nő,nem,2022-04-13_20h17.30.585,hesp_baseline,2021.2.3,Win32,58.42827929
,,,,,,,,,,,,,,,,,tosélyban,tosélyben,left,3.3137,0,17,17,25,1,80,tosély,tosély,ban,é,Ez itt egy tosély.,Ott vagyunk a...,tosélyben,tosélyban,dzsungel,NA,NA,PR2052,2003,nő,nem,2022-04-13_20h17.30.585,hesp_baseline,2021.2.3,Win32,58.42827929
,,,,,,,,,,,,,,,,,ribegzem,ribegzek,left,2.8373,0,18,18,63,1,64,ribegzik,ribegzel,NA,NA,Te bizony sokat ribegzel.,Én is sokat...,ribegzek,ribegzem,lakik,-zik,2,PR2052,2003,nő,nem,2022-04-13_20h17.30.585,hesp_baseline,2021.2.3,Win32,58.42827929
,,,,,,,,,,,,,,,,,ruslom,ruslok,left,1.6873,0,19,19,83,1,84,ruslik,ruslasz,NA,NA,Te bizony sokat ruslasz.,Én is sokat...,ruslok,ruslom,lakik,-lik,1,PR2052,2003,nő,nem,2022-04-13_20h17.30.585,hesp_baseline,2021.2.3,Win32,58.42827929
,,,,,,,,,,,,,,,,,gihamlanak,gihamoznak,left,5.231,0,20,20,133,1,80,gihamlik / gihamozik,"gihamlik, gihamozni",nek,NA,"János imád gihamozni, ezért sokat gihamlik.",Ők ritkán...,gihamlanak,gihamoznak,cselekszik,-lik,2,PR2052,2003,nő,nem,2022-04-13_20h17.30.585,hesp_baseline,2021.2.3,Win32,58.42827929
,,,,,,,,,,,,,,,,,brivegzek,brivegzem,right,135.1842,0,21,21,70,1,71,brivegzik,brivegzel,NA,NA,Te bizony sokat brivegzel.,Én is sokat...,brivegzek,brivegzem,lakik,-zik,2,PR2052,2003,nő,nem,2022-04-13_20h17.30.585,hesp_baseline,2021.2.3,Win32,58.42827929
,,,,,,,,,,,,,,,,,flűröklöm,flűröklök,left,4.0816,0,22,22,91,1,92,flűröklik,flűröklesz,NA,NA,Te bizony sokat flűröklesz.,Én is sokat...,flűröklök,flűröklöm,lakik,-lik,2,PR2052,2003,nő,nem,2022-04-13_20h17.30.585,hesp_baseline,2021.2.3,Win32,58.42827929
,,,,,,,,,,,,,,,,,plugzok,plugzom,right,2.384,0,23,23,60,1,61,plugzik,plugzol,NA,NA,Te bizony sokat plugzol.,Én is sokat...,plugzok,plugzom,lakik,-zik,1,PR2052,2003,nő,nem,2022-04-13_20h17.30.585,hesp_baseline,2021.2.3,Win32,58.42827929
,,,,,,,,,,,,,,,,,hubonylotok,hubonyoztok,left,6.8195,0,24,24,157,1,104,hubonylik / hubonyozik,"hubonylik, hubonyozni",tek,NA,"János imád hubonyozni, ezért sokat hubonylik.",Ti ritkán...,hubonylotok,hubonyoztok,cselekszik,-lik,2,PR2052,2003,nő,nem,2022-04-13_20h17.30.585,hesp_baseline,2021.2.3,Win32,58.42827929
,,,,,,,,,,,,,,,,,flűmlök,flűmlöm,left,5.0464,0,25,25,54,1,55,flűmlik,flűmlesz,NA,NA,Te bizony sokat flűmlesz.,Én is sokat...,flűmlök,flűmlöm,lakik,-lik,1,PR2052,2003,nő,nem,2022-04-13_20h17.30.585,hesp_baseline,2021.2.3,Win32,58.42827929
,,,,,,,,,,,,,,,,,flézletek,flézeztek,left,5.9138,0,26,26,134,1,81,flézlik / flézezik,"flézlik, flézezni",tek,NA,"János imád flézezni, ezért sokat flézlik.",Ti ritkán...,flézletek,flézeztek,cselekszik,-lik,1,PR2052,2003,nő,nem,2022-04-13_20h17.30.585,hesp_baseline,2021.2.3,Win32,58.42827929
,,,,,,,,,,,,,,,,,fligzok,fligzom,right,3.8339,0,27,27,103,1,104,fligzik,fligzol,NA,NA,Te bizony sokat fligzol.,Én is sokat...,fligzok,fligzom,lakik,-zik,1,PR2052,2003,nő,nem,2022-04-13_20h17.30.585,hesp_baseline,2021.2.3,Win32,58.42827929
,,,,,,,,,,,,,,,,,bribékszetek,bribékedtek,left,8.9642,0,28,28,141,1,88,bribékszik / bribékedik,"bribékszik, bribékedni",tek,NA,"János imád bribékedni, ezért sokat bribékszik.",Ti ritkán...,bribékszetek,bribékedtek,cselekszik,-szik,2,PR2052,2003,nő,nem,2022-04-13_20h17.30.585,hesp_baseline,2021.2.3,Win32,58.42827929
,,,,,,,,,,,,,,,,,brágaklok,brágaklom,right,5.9612,0,29,29,71,1,72,brágaklik,brágaklasz,NA,NA,Te bizony sokat brágaklasz.,Én is sokat...,brágaklok,brágaklom,lakik,-lik,2,PR2052,2003,nő,nem,2022-04-13_20h17.30.585,hesp_baseline,2021.2.3,Win32,58.42827929
,,,,,,,,,,,,,,,,,prazlunk,prazozunk,left,6.9863,0,30,30,119,1,66,prazlik / prazozik,"prazlik, prazozni",ünk,NA,"János imád prazozni, ezért sokat prazlik.",Mi ritkán...,prazlunk,prazozunk,cselekszik,-lik,1,PR2052,2003,nő,nem,2022-04-13_20h17.30.585,hesp_baseline,2021.2.3,Win32,58.42827929
,,,,,,,,,,,,,,,,,kátédnál,kátédnél,left,4.2844,0,31,31,37,1,92,kátéd,kátéd,nál,é,Ez itt egy kátéd.,Nincs is jobb egy jó...,kátédnél,kátédnál,dzsungel,NA,NA,PR2052,2003,nő,nem,2022-04-13_20h17.30.585,hesp_baseline,2021.2.3,Win32,58.42827929
,,,,,,,,,,,,,,,,,bingéjnak,bingéjnek,left,3.1797,0,32,32,49,1,104,bingéj,bingéj,nak,é,Ez itt egy bingéj.,Elneveztem a kutyámat...,bingéjnek,bingéjnak,dzsungel,NA,NA,PR2052,2003,nő,nem,2022-04-13_20h17.30.585,hesp_baseline,2021.2.3,Win32,58.42827929
,,,,,,,,,,,,,,,,,flemlünk,flemezünk,left,6.8454,0,33,33,137,1,84,flemlik / flemezik,"flemlik, flemezni",ünk,NA,"János imád flemezni, ezért sokat flemlik.",Mi ritkán...,flemlünk,flemezünk,cselekszik,-lik,1,PR2052,2003,nő,nem,2022-04-13_20h17.30.585,hesp_baseline,2021.2.3,Win32,58.42827929
,,,,,,,,,,,,,,,,,júdernek,júdernak,left,5.5462,0,34,34,53,1,108,júder,júder,nak,e,Ez itt egy júder.,Elneveztem a kutyámat...,júdernek,júdernak,dzsungel,NA,NA,PR2052,2003,nő,nem,2022-04-13_20h17.30.585,hesp_baseline,2021.2.3,Win32,58.42827929
,,,,,,,,,,,,,,,,,csíszlok,csíszlom,right,4.1037,0,35,35,84,1,85,csíszlik,csíszlasz,NA,NA,Te bizony sokat csíszlasz.,Én is sokat...,csíszlok,csíszlom,lakik,-lik,1,PR2052,2003,nő,nem,2022-04-13_20h17.30.585,hesp_baseline,2021.2.3,Win32,58.42827929
,,,,,,,,,,,,,,,,,femlem,femlek,left,2.6506,0,36,36,57,1,58,femlik,femlesz,NA,NA,Te bizony sokat femlesz.,Én is sokat...,femlek,femlem,lakik,-lik,1,PR2052,2003,nő,nem,2022-04-13_20h17.30.585,hesp_baseline,2021.2.3,Win32,58.42827929
,,,,,,,,,,,,,,,,,trigencnak,trigencnek,right,3.3142,0,37,37,31,1,86,trigenc,trigenc,nak,e,Ez itt egy trigenc.,Elneveztem a kutyámat...,trigencnek,trigencnak,dzsungel,NA,NA,PR2052,2003,nő,nem,2022-04-13_20h17.30.585,hesp_baseline,2021.2.3,Win32,58.42827929
,,,,,,,,,,,,,,,,,sojzok,sojzom,right,4.2961,0,38,38,74,1,75,sojzik,sojzol,NA,NA,Te bizony sokat sojzol.,Én is sokat...,sojzok,sojzom,lakik,-zik,1,PR2052,2003,nő,nem,2022-04-13_20h17.30.585,hesp_baseline,2021.2.3,Win32,58.42827929
,,,,,,,,,,,,,,,,,lihadzom,lihadzok,left,3.1548,0,39,39,101,1,102,lihadzik,lihadzol,NA,NA,Te bizony sokat lihadzol.,Én is sokat...,lihadzok,lihadzom,lakik,-zik,2,PR2052,2003,nő,nem,2022-04-13_20h17.30.585,hesp_baseline,2021.2.3,Win32,58.42827929
,,,,,,,,,,,,,,,,,nyábétban,nyábétben,left,3.7983,0,40,40,21,1,76,nyábét,nyábét,ban,é,Ez itt egy nyábét.,Ott vagyunk a...,nyábétben,nyábétban,dzsungel,NA,NA,PR2052,2003,nő,nem,2022-04-13_20h17.30.585,hesp_baseline,2021.2.3,Win32,58.42827929
,,,,,,,,,,,,,,,,,flibekszek,flibekszem,right,2.8172,0,41,41,93,1,94,flibekszik,flibekszel,NA,NA,Te bizony sokat flibekszel.,Én is sokat...,flibekszek,flibekszem,lakik,-szik,2,PR2052,2003,nő,nem,2022-04-13_20h17.30.585,hesp_baseline,2021.2.3,Win32,58.42827929
,,,,,,,,,,,,,,,,,ikszertben,ikszertban,left,4.401,0,42,42,19,1,74,ikszert,ikszert,ban,e,Ez itt egy ikszert.,Ott vagyunk a...,ikszertben,ikszertban,dzsungel,NA,NA,PR2052,2003,nő,nem,2022-04-13_20h17.30.585,hesp_baseline,2021.2.3,Win32,58.42827929
,,,,,,,,,,,,,,,,,péleslek,péleslem,right,4.6261,0,43,43,73,1,74,péleslik,péleslesz,NA,NA,Te bizony sokat péleslesz.,Én is sokat...,péleslek,péleslem,lakik,-lik,2,PR2052,2003,nő,nem,2022-04-13_20h17.30.585,hesp_baseline,2021.2.3,Win32,58.42827929
,,,,,,,,,,,,,,,,,zihencnek,zihencnak,left,2.8573,0,44,44,52,1,107,zihenc,zihenc,nak,e,Ez itt egy zihenc.,Elneveztem a kutyámat...,zihencnek,zihencnak,dzsungel,NA,NA,PR2052,2003,nő,nem,2022-04-13_20h17.30.585,hesp_baseline,2021.2.3,Win32,58.42827929
,,,,,,,,,,,,,,,,,klazérban,klazérben,left,2.8171,0,45,45,51,1,106,klazér,klazér,ban,é,Ez itt egy klazér.,Ott vagyunk a...,klazérben,klazérban,dzsungel,NA,NA,PR2052,2003,nő,nem,2022-04-13_20h17.30.585,hesp_baseline,2021.2.3,Win32,58.42827929
,,,,,,,,,,,,,,,,,prohódzok,prohódzom,right,3.7189,0,46,46,66,1,67,prohódzik,prohódzol,NA,NA,Te bizony sokat prohódzol.,Én is sokat...,prohódzok,prohódzom,lakik,-zik,2,PR2052,2003,nő,nem,2022-04-13_20h17.30.585,hesp_baseline,2021.2.3,Win32,58.42827929
,,,,,,,,,,,,,,,,,cságyeltben,cságyeltban,left,4.8946,0,47,47,10,1,65,cságyelt,cságyelt,ban,e,Ez itt egy cságyelt.,Ott vagyunk a...,cságyeltben,cságyeltban,dzsungel,NA,NA,PR2052,2003,nő,nem,2022-04-13_20h17.30.585,hesp_baseline,2021.2.3,Win32,58.42827929
,,,,,,,,,,,,,,,,,figlom,figlok,left,1.9492,0,48,48,75,1,76,figlik,figlasz,NA,NA,Te bizony sokat figlasz.,Én is sokat...,figlok,figlom,lakik,-lik,1,PR2052,2003,nő,nem,2022-04-13_20h17.30.585,hesp_baseline,2021.2.3,Win32,58.42827929
,,,,,,,,,,,,,,,,,dárakszunk,dárakodunk,right,10.5086,0,49,49,126,1,73,dárakszik / dárakodik,"dárakszik, dárakodni",ünk,NA,"János imád dárakodni, ezért sokat dárakszik.",Mi ritkán...,dárakszunk,dárakodunk,cselekszik,-szik,2,PR2052,2003,nő,nem,2022-04-13_20h17.30.585,hesp_baseline,2021.2.3,Win32,58.42827929
,,,,,,,,,,,,,,,,,klűmlötök,klűmöztök,right,12.4445,0,50,50,108,1,55,klűmlik / klűmözik,"klűmlik, klűmözni",tek,NA,"János imád klűmözni, ezért sokat klűmlik.",Ti ritkán...,klűmlötök,klűmöztök,cselekszik,-lik,1,PR2052,2003,nő,nem,2022-04-13_20h17.30.585,hesp_baseline,2021.2.3,Win32,58.42827929
,,,,,,,,,,,,,,,,,tranékban,tranékben,left,2.4431,0,51,51,2,1,57,tranék,tranék,ban,é,Ez itt egy tranék.,Ott vagyunk a...,tranékben,tranékban,dzsungel,NA,NA,PR2052,2003,nő,nem,2022-04-13_20h17.30.585,hesp_baseline,2021.2.3,Win32,58.42827929
,,,,,,,,,,,,,,,,,flerékszünk,flerékedünk,right,6.7029,0,52,52,159,1,106,flerékszik / flerékedik,"flerékszik, flerékedni",ünk,NA,"János imád flerékedni, ezért sokat flerékszik.",Mi ritkán...,flerékszünk,flerékedünk,cselekszik,-szik,2,PR2052,2003,nő,nem,2022-04-13_20h17.30.585,hesp_baseline,2021.2.3,Win32,58.42827929
,,,,,,,,,,,,,,,,,flodoztok,flodlotok,left,10.7581,0,53,53,144,1,91,flodlik / flodozik,"flodlik, flodozni",tek,NA,"János imád flodozni, ezért sokat flodlik.",Ti ritkán...,flodlotok,flodoztok,cselekszik,-lik,1,PR2052,2003,nő,nem,2022-04-13_20h17.30.585,hesp_baseline,2021.2.3,Win32,58.42827929
,,,,,,,,,,,,,,,,,kluzlotok,kluzoztok,left,5.3495,0,54,54,148,1,95,kluzlik / kluzozik,"kluzlik, kluzozni",tek,NA,"János imád kluzozni, ezért sokat kluzlik.",Ti ritkán...,kluzlotok,kluzoztok,cselekszik,-lik,1,PR2052,2003,nő,nem,2022-04-13_20h17.30.585,hesp_baseline,2021.2.3,Win32,58.42827929
,,,,,,,,,,,,,,,,,ribzom,ribzok,left,2.3933,0,55,55,58,1,59,ribzik,ribzol,NA,NA,Te bizony sokat ribzol.,Én is sokat...,ribzok,ribzom,lakik,-zik,1,PR2052,2003,nő,nem,2022-04-13_20h17.30.585,hesp_baseline,2021.2.3,Win32,58.42827929
,,,,,,,,,,,,,,,,,trugoznak,trugzanak,right,7.1163,0,56,56,146,1,93,trugzik / trugozik,"trugzik, trugozni",nek,NA,"János imád trugozni, ezért sokat trugzik.",Ők ritkán...,trugzanak,trugoznak,cselekszik,-zik,1,PR2052,2003,nő,nem,2022-04-13_20h17.30.585,hesp_baseline,2021.2.3,Win32,58.42827929
,,,,,,,,,,,,,,,,,sporzemnek,sporzemnak,left,4.0204,0,57,57,26,1,81,sporzem,sporzem,nak,e,Ez itt egy sporzem.,Elneveztem a kutyámat...,sporzemnek,sporzemnak,dzsungel,NA,NA,PR2052,2003,nő,nem,2022-04-13_20h17.30.585,hesp_baseline,2021.2.3,Win32,58.42827929
,,,,,,,,,,,,,,,,,lijeznak,lijeznek,right,2.9928,0,58,58,40,1,95,lijez,lijez,nak,e,Ez itt egy lijez.,Elneveztem a kutyámat...,lijeznek,lijeznak,dzsungel,NA,NA,PR2052,2003,nő,nem,2022-04-13_20h17.30.585,hesp_baseline,2021.2.3,Win32,58.42827929
,,,,,,,,,,,,,,,,,nyádlanak,nyádoznak,left,13.6836,0,59,59,120,1,67,nyádlik / nyádozik,"nyádlik, nyádozni",nek,NA,"János imád nyádozni, ezért sokat nyádlik.",Ők ritkán...,nyádlanak,nyádoznak,cselekszik,-lik,1,PR2052,2003,nő,nem,2022-04-13_20h17.30.585,hesp_baseline,2021.2.3,Win32,58.42827929
,,,,,,,,,,,,,,,,,rapszeknél,rapszeknál,left,3.3618,0,60,60,35,1,90,rapszek,rapszek,nál,e,Ez itt egy rapszek.,Nincs is jobb egy jó...,rapszeknél,rapszeknál,dzsungel,NA,NA,PR2052,2003,nő,nem,2022-04-13_20h17.30.585,hesp_baseline,2021.2.3,Win32,58.42827929
,,,,,,,,,,,,,,,,,metégszenek,metégednek,left,6.2484,0,61,61,112,1,59,metégszik / metégedik,"metégszik, metégedni",nek,NA,"János imád metégedni, ezért sokat metégszik.",Ők ritkán...,metégszenek,metégednek,cselekszik,-szik,2,PR2052,2003,nő,nem,2022-04-13_20h17.30.585,hesp_baseline,2021.2.3,Win32,58.42827929
,,,,,,,,,,,,,,,,,vorszennél,vorszennál,left,2.7061,0,62,62,30,1,85,vorszen,vorszen,nál,e,Ez itt egy vorszen.,Nincs is jobb egy jó...,vorszennél,vorszennál,dzsungel,NA,NA,PR2052,2003,nő,nem,2022-04-13_20h17.30.585,hesp_baseline,2021.2.3,Win32,58.42827929
,,,,,,,,,,,,,,,,,spibegezünk,spibeglünk,left,7.867,0,63,63,147,1,94,spibeglik / spibegezik,"spibeglik, spibegezni",ünk,NA,"János imád spibegezni, ezért sokat spibeglik.",Mi ritkán...,spibeglünk,spibegezünk,cselekszik,-lik,2,PR2052,2003,nő,nem,2022-04-13_20h17.30.585,hesp_baseline,2021.2.3,Win32,58.42827929
,,,,,,,,,,,,,,,,,dineltben,dineltban,left,4.0108,0,64,64,0,1,55,dinelt,dinelt,ban,e,Ez itt egy dinelt.,Ott vagyunk a...,dineltben,dineltban,dzsungel,NA,NA,PR2052,2003,nő,nem,2022-04-13_20h17.30.585,hesp_baseline,2021.2.3,Win32,58.42827929
,,,,,,,,,,,,,,,,,fivénylem,fivénylek,left,3.4617,0,65,65,78,1,79,fivénylik,fivénylesz,NA,NA,Te bizony sokat fivénylesz.,Én is sokat...,fivénylek,fivénylem,lakik,-lik,2,PR2052,2003,nő,nem,2022-04-13_20h17.30.585,hesp_baseline,2021.2.3,Win32,58.42827929
,,,,,,,,,,,,,,,,,prihekszek,prihekszem,right,2.8424,0,66,66,100,1,101,prihekszik,prihekszel,NA,NA,Te bizony sokat prihekszel.,Én is sokat...,prihekszek,prihekszem,lakik,-szik,2,PR2052,2003,nő,nem,2022-04-13_20h17.30.585,hesp_baseline,2021.2.3,Win32,58.42827929
,,,,,,,,,,,,,,,,,játozunk,játlunk,right,6.612,0,67,67,145,1,92,játlik / játozik,"játlik, játozni",ünk,NA,"János imád játozni, ezért sokat játlik.",Mi ritkán...,játlunk,játozunk,cselekszik,-lik,1,PR2052,2003,nő,nem,2022-04-13_20h17.30.585,hesp_baseline,2021.2.3,Win32,58.42827929
,,,,,,,,,,,,,,,,,sprízemnál,sprízemnél,right,2.7411,0,68,68,22,1,77,sprízem,sprízem,nál,e,Ez itt egy sprízem.,Nincs is jobb egy jó...,sprízemnél,sprízemnál,dzsungel,NA,NA,PR2052,2003,nő,nem,2022-04-13_20h17.30.585,hesp_baseline,2021.2.3,Win32,58.42827929
,,,,,,,,,,,,,,,,,kluhéjnél,kluhéjnál,right,5.5346,0,69,69,24,1,79,kluhéj,kluhéj,nál,é,Ez itt egy kluhéj.,Nincs is jobb egy jó...,kluhéjnél,kluhéjnál,dzsungel,NA,NA,PR2052,2003,nő,nem,2022-04-13_20h17.30.585,hesp_baseline,2021.2.3,Win32,58.42827929
,,,,,,,,,,,,,,,,,lorjódzok,lorjódzom,right,3.1072,0,70,70,88,1,89,lorjódzik,lorjódzol,NA,NA,Te bizony sokat lorjódzol.,Én is sokat...,lorjódzok,lorjódzom,lakik,-zik,2,PR2052,2003,nő,nem,2022-04-13_20h17.30.585,hesp_baseline,2021.2.3,Win32,58.42827929
,,,,,,,,,,,,,,,,,livényezünk,livénylünk,right,4.597,0,71,71,128,1,75,livénylik / livényezik,"livénylik, livényezni",ünk,NA,"János imád livényezni, ezért sokat livénylik.",Mi ritkán...,livénylünk,livényezünk,cselekszik,-lik,2,PR2052,2003,nő,nem,2022-04-13_20h17.30.585,hesp_baseline,2021.2.3,Win32,58.42827929
,,,,,,,,,,,,,,,,,flehékszem,flehékszek,right,2.9814,0,72,72,77,1,78,flehékszik,flehékszel,NA,NA,Te bizony sokat flehékszel.,Én is sokat...,flehékszek,flehékszem,lakik,-szik,2,PR2052,2003,nő,nem,2022-04-13_20h17.30.585,hesp_baseline,2021.2.3,Win32,58.42827929
,,,,,,,,,,,,,,,,,fréslünk,frésezünk,left,4.408,0,73,73,138,1,85,fréslik / frésezik,"fréslik, frésezni",ünk,NA,"János imád frésezni, ezért sokat fréslik.",Mi ritkán...,fréslünk,frésezünk,cselekszik,-lik,1,PR2052,2003,nő,nem,2022-04-13_20h17.30.585,hesp_baseline,2021.2.3,Win32,58.42827929
,,,,,,,,,,,,,,,,,flüröklötök,flürököztök,left,6.5378,0,74,74,149,1,96,flüröklik / flüröközik,"flüröklik, flüröközni",tek,NA,"János imád flüröközni, ezért sokat flüröklik.",Ti ritkán...,flüröklötök,flürököztök,cselekszik,-lik,2,PR2052,2003,nő,nem,2022-04-13_20h17.30.585,hesp_baseline,2021.2.3,Win32,58.42827929
,,,,,,,,,,,,,,,,,lírlanak,líroznak,left,4.7837,0,75,75,115,1,62,lírlik / lírozik,"lírlik, lírozni",nek,NA,"János imád lírozni, ezért sokat lírlik.",Ők ritkán...,lírlanak,líroznak,cselekszik,-lik,1,PR2052,2003,nő,nem,2022-04-13_20h17.30.585,hesp_baseline,2021.2.3,Win32,58.42827929
,,,,,,,,,,,,,,,,,poslotok,posoztok,left,5.7154,0,76,76,121,1,68,poslik / posozik,"poslik, posozni",tek,NA,"János imád posozni, ezért sokat poslik.",Ti ritkán...,poslotok,posoztok,cselekszik,-lik,1,PR2052,2003,nő,nem,2022-04-13_20h17.30.585,hesp_baseline,2021.2.3,Win32,58.42827929
,,,,,,,,,,,,,,,,,brágédnek,brágédnak,right,3.3094,0,77,77,45,1,100,brágéd,brágéd,nak,é,Ez itt egy brágéd.,Elneveztem a kutyámat...,brágédnek,brágédnak,dzsungel,NA,NA,PR2052,2003,nő,nem,2022-04-13_20h17.30.585,hesp_baseline,2021.2.3,Win32,58.42827929
,,,,,,,,,,,,,,,,,frodlom,frodlok,left,2.4028,0,78,78,61,1,62,frodlik,frodlasz,NA,NA,Te bizony sokat frodlasz.,Én is sokat...,frodlok,frodlom,lakik,-lik,1,PR2052,2003,nő,nem,2022-04-13_20h17.30.585,hesp_baseline,2021.2.3,Win32,58.42827929
,,,,,,,,,,,,,,,,,prihegednek,prihegszenek,left,6.129,0,79,79,155,1,102,prihegszik / prihegedik,"prihegszik, prihegedni",nek,NA,"János imád prihegedni, ezért sokat prihegszik.",Ők ritkán...,prihegszenek,prihegednek,cselekszik,-szik,2,PR2052,2003,nő,nem,2022-04-13_20h17.30.585,hesp_baseline,2021.2.3,Win32,58.42827929
,,,,,,,,,,,,,,,,,dilaklotok,dilakoztok,right,704.139,0,80,80,158,1,105,dilaklik / dilakozik,"dilaklik, dilakozni",tek,NA,"János imád dilakozni, ezért sokat dilaklik.",Ti ritkán...,dilaklotok,dilakoztok,cselekszik,-lik,2,PR2052,2003,nő,nem,2022-04-13_20h17.30.585,hesp_baseline,2021.2.3,Win32,58.42827929
,,,,,,,,,,,,,,,,,csintékben,csintékban,left,2.5764,0,81,81,23,1,78,csinték,csinték,ban,é,Ez itt egy csinték.,Ott vagyunk a...,csintékben,csintékban,dzsungel,NA,NA,PR2052,2003,nő,nem,2022-04-13_20h17.30.585,hesp_baseline,2021.2.3,Win32,58.42827929
,,,,,,,,,,,,,,,,,pratelynak,pratelynek,right,2.7147,0,82,82,47,1,102,prately,prately,nak,e,Ez itt egy prately.,Elneveztem a kutyámat...,pratelynek,pratelynak,dzsungel,NA,NA,PR2052,2003,nő,nem,2022-04-13_20h17.30.585,hesp_baseline,2021.2.3,Win32,58.42827929
,,,,,,,,,,,,,,,,,dingecnek,dingecnak,left,2.3537,0,83,83,42,1,97,dingec,dingec,nak,e,Ez itt egy dingec.,Elneveztem a kutyámat...,dingecnek,dingecnak,dzsungel,NA,NA,PR2052,2003,nő,nem,2022-04-13_20h17.30.585,hesp_baseline,2021.2.3,Win32,58.42827929
,,,,,,,,,,,,,,,,,tribejeztek,tribejletek,right,3.5412,0,84,84,132,1,79,tribejlik / tribejezik,"tribejlik, tribejezni",tek,NA,"János imád tribejezni, ezért sokat tribejlik.",Ti ritkán...,tribejletek,tribejeztek,cselekszik,-lik,2,PR2052,2003,nő,nem,2022-04-13_20h17.30.585,hesp_baseline,2021.2.3,Win32,58.42827929
,,,,,,,,,,,,,,,,,klidlom,klidlok,right,3.3492,0,85,85,72,1,73,klidlik,klidlasz,NA,NA,Te bizony sokat klidlasz.,Én is sokat...,klidlok,klidlom,lakik,-lik,1,PR2052,2003,nő,nem,2022-04-13_20h17.30.585,hesp_baseline,2021.2.3,Win32,58.42827929
,,,,,,,,,,,,,,,,,spöklünk,spöközünk,left,3.9665,0,86,86,130,1,77,spöklik / spöközik,"spöklik, spöközni",ünk,NA,"János imád spöközni, ezért sokat spöklik.",Mi ritkán...,spöklünk,spöközünk,cselekszik,-lik,1,PR2052,2003,nő,nem,2022-04-13_20h17.30.585,hesp_baseline,2021.2.3,Win32,58.42827929
,,,,,,,,,,,,,,,,,klehényeztek,klehényletek,right,5.1068,0,87,87,113,1,60,klehénylik / klehényezik,"klehénylik, klehényezni",tek,NA,"János imád klehényezni, ezért sokat klehénylik.",Ti ritkán...,klehényletek,klehényeztek,cselekszik,-lik,2,PR2052,2003,nő,nem,2022-04-13_20h17.30.585,hesp_baseline,2021.2.3,Win32,58.42827929
,,,,,,,,,,,,,,,,,szanéjnak,szanéjnek,left,2.4494,0,88,88,13,1,68,szanéj,szanéj,nak,é,Ez itt egy szanéj.,Elneveztem a kutyámat...,szanéjnek,szanéjnak,dzsungel,NA,NA,PR2052,2003,nő,nem,2022-04-13_20h17.30.585,hesp_baseline,2021.2.3,Win32,58.42827929
,,,,,,,,,,,,,,,,,garcépnél,garcépnál,left,6.1911,0,89,89,38,1,93,garcép,garcép,nál,é,Ez itt egy garcép.,Nincs is jobb egy jó...,garcépnél,garcépnál,dzsungel,NA,NA,PR2052,2003,nő,nem,2022-04-13_20h17.30.585,hesp_baseline,2021.2.3,Win32,58.42827929
,,,,,,,,,,,,,,,,,nyöbzenek,nyöböznek,left,3.8615,0,90,90,152,1,99,nyöbzik / nyöbözik,"nyöbzik, nyöbözni",nek,NA,"János imád nyöbözni, ezért sokat nyöbzik.",Ők ritkán...,nyöbzenek,nyöböznek,cselekszik,-zik,1,PR2052,2003,nő,nem,2022-04-13_20h17.30.585,hesp_baseline,2021.2.3,Win32,58.42827929
,,,,,,,,,,,,,,,,,sprigzotok,sprigoztok,right,3.6231,0,91,91,129,1,76,sprigzik / sprigozik,"sprigzik, sprigozni",tek,NA,"János imád sprigozni, ezért sokat sprigzik.",Ti ritkán...,sprigzotok,sprigoztok,cselekszik,-zik,1,PR2052,2003,nő,nem,2022-04-13_20h17.30.585,hesp_baseline,2021.2.3,Win32,58.42827929
,,,,,,,,,,,,,,,,,spihegzem,spihegzek,left,4.302,0,92,92,81,1,82,spihegzik,spihegzel,NA,NA,Te bizony sokat spihegzel.,Én is sokat...,spihegzek,spihegzem,lakik,-zik,2,PR2052,2003,nő,nem,2022-04-13_20h17.30.585,hesp_baseline,2021.2.3,Win32,58.42827929
,,,,,,,,,,,,,,,,,gúdenban,gúdenben,right,2.1973,0,93,93,4,1,59,gúden,gúden,ban,e,Ez itt egy gúden.,Ott vagyunk a...,gúdenben,gúdenban,dzsungel,NA,NA,PR2052,2003,nő,nem,2022-04-13_20h17.30.585,hesp_baseline,2021.2.3,Win32,58.42827929
,,,,,,,,,,,,,,,,,spüjzök,spüjzöm,left,2.677,0,94,94,59,1,60,spüjzik,spüjzöl,NA,NA,Te bizony sokat spüjzöl.,Én is sokat...,spüjzök,spüjzöm,lakik,-zik,1,PR2052,2003,nő,nem,2022-04-13_20h17.30.585,hesp_baseline,2021.2.3,Win32,58.42827929
,,,,,,,,,,,,,,,,,floglok,floglom,right,3.2749,0,95,95,92,1,93,floglik,floglasz,NA,NA,Te bizony sokat floglasz.,Én is sokat...,floglok,floglom,lakik,-lik,1,PR2052,2003,nő,nem,2022-04-13_20h17.30.585,hesp_baseline,2021.2.3,Win32,58.42827929
,,,,,,,,,,,,,,,,,jábézban,jábézben,left,3.0733,0,96,96,34,1,89,jábéz,jábéz,ban,é,Ez itt egy jábéz.,Ott vagyunk a...,jábézben,jábézban,dzsungel,NA,NA,PR2052,2003,nő,nem,2022-04-13_20h17.30.585,hesp_baseline,2021.2.3,Win32,58.42827929
,,,,,,,,,,,,,,,,,flagánylok,flagánylom,left,26.4144,0,97,97,82,1,83,flagánylik,flagánylasz,NA,NA,Te bizony sokat flagánylasz.,Én is sokat...,flagánylok,flagánylom,lakik,-lik,2,PR2052,2003,nő,nem,2022-04-13_20h17.30.585,hesp_baseline,2021.2.3,Win32,58.42827929
,,,,,,,,,,,,,,,,,spülűdzök,spülűdzöm,right,3.4665,0,98,98,56,1,57,spülűdzik,spülűdzöl,NA,NA,Te bizony sokat spülűdzöl.,Én is sokat...,spülűdzök,spülűdzöm,lakik,-zik,2,PR2052,2003,nő,nem,2022-04-13_20h17.30.585,hesp_baseline,2021.2.3,Win32,58.42827929
,,,,,,,,,,,,,,,,,csólorzom,csólorzok,left,4.4055,0,99,99,102,1,103,csólorzik,csólorzol,NA,NA,Te bizony sokat csólorzol.,Én is sokat...,csólorzok,csólorzom,lakik,-zik,2,PR2052,2003,nő,nem,2022-04-13_20h17.30.585,hesp_baseline,2021.2.3,Win32,58.42827929
,,,,,,,,,,,,,,,,,nyüröznek,nyürzenek,left,4.8117,0,100,100,123,1,70,nyürzik / nyürözik,"nyürzik, nyürözni",nek,NA,"János imád nyürözni, ezért sokat nyürzik.",Ők ritkán...,nyürzenek,nyüröznek,cselekszik,-zik,1,PR2052,2003,nő,nem,2022-04-13_20h17.30.585,hesp_baseline,2021.2.3,Win32,58.42827929
,,,,,,,,,,,,,,,,,sprebeznek,sprebzenek,left,4.1391,0,101,101,139,1,86,sprebzik / sprebezik,"sprebzik, sprebezni",nek,NA,"János imád sprebezni, ezért sokat sprebzik.",Ők ritkán...,sprebzenek,sprebeznek,cselekszik,-zik,1,PR2052,2003,nő,nem,2022-04-13_20h17.30.585,hesp_baseline,2021.2.3,Win32,58.42827929
,,,,,,,,,,,,,,,,,szűslök,szűslöm,left,3.7196,0,102,102,85,1,86,szűslik,szűslesz,NA,NA,Te bizony sokat szűslesz.,Én is sokat...,szűslök,szűslöm,lakik,-lik,1,PR2052,2003,nő,nem,2022-04-13_20h17.30.585,hesp_baseline,2021.2.3,Win32,58.42827929
,,,,,,,,,,,,,,,,,fluboklotok,flubokoztok,right,3.7001,0,103,103,151,1,98,fluboklik / flubokozik,"fluboklik, flubokozni",tek,NA,"János imád flubokozni, ezért sokat fluboklik.",Ti ritkán...,fluboklotok,flubokoztok,cselekszik,-lik,2,PR2052,2003,nő,nem,2022-04-13_20h17.30.585,hesp_baseline,2021.2.3,Win32,58.42827929
,,,,,,,,,,,,,,,,,spatárzom,spatárzok,left,3.0441,0,104,104,69,1,70,spatárzik,spatárzol,NA,NA,Te bizony sokat spatárzol.,Én is sokat...,spatárzok,spatárzom,lakik,-zik,2,PR2052,2003,nő,nem,2022-04-13_20h17.30.585,hesp_baseline,2021.2.3,Win32,58.42827929
,,,,,,,,,,,,,,,,,frálasoznak,frálaslanak,right,3.2805,0,105,105,110,1,57,frálaslik / frálasozik,"frálaslik, frálasozni",nek,NA,"János imád frálasozni, ezért sokat frálaslik.",Ők ritkán...,frálaslanak,frálasoznak,cselekszik,-lik,2,PR2052,2003,nő,nem,2022-04-13_20h17.30.585,hesp_baseline,2021.2.3,Win32,58.42827929
,,,,,,,,,,,,,,,,,dihelynak,dihelynek,right,2.6175,0,106,106,20,1,75,dihely,dihely,nak,e,Ez itt egy dihely.,Elneveztem a kutyámat...,dihelynek,dihelynak,dzsungel,NA,NA,PR2052,2003,nő,nem,2022-04-13_20h17.30.585,hesp_baseline,2021.2.3,Win32,58.42827929
,,,,,,,,,,,,,,,,,fröjöztök,fröjzötök,right,9.9976,0,107,107,153,1,100,fröjzik / fröjözik,"fröjzik, fröjözni",tek,NA,"János imád fröjözni, ezért sokat fröjzik.",Ti ritkán...,fröjzötök,fröjöztök,cselekszik,-zik,1,PR2052,2003,nő,nem,2022-04-13_20h17.30.585,hesp_baseline,2021.2.3,Win32,58.42827929
,,,,,,,,,,,,,,,,,szirlom,szirlok,left,9.4743,0,108,108,62,1,63,szirlik,szirlasz,NA,NA,Te bizony sokat szirlasz.,Én is sokat...,szirlok,szirlom,lakik,-lik,1,PR2052,2003,nő,nem,2022-04-13_20h17.30.585,hesp_baseline,2021.2.3,Win32,58.42827929
,,,,,,,,,,,,,,,,,navecben,navecban,left,4.433,0,109,109,8,1,63,navec,navec,ban,e,Ez itt egy navec.,Ott vagyunk a...,navecben,navecban,dzsungel,NA,NA,PR2052,2003,nő,nem,2022-04-13_20h17.30.585,hesp_baseline,2021.2.3,Win32,58.42827929
,,,,,,,,,,,,,,,,,huroslom,huroslok,left,4.2831,0,110,110,76,1,77,huroslik,huroslasz,NA,NA,Te bizony sokat huroslasz.,Én is sokat...,huroslok,huroslom,lakik,-lik,2,PR2052,2003,nő,nem,2022-04-13_20h17.30.585,hesp_baseline,2021.2.3,Win32,58.42827929
,,,,,,,,,,,,,,,,,molszotok,molodtok,left,3.4538,0,111,111,142,1,89,molszik / molodik,"molszik, molodni",tek,NA,"János imád molodni, ezért sokat molszik.",Ti ritkán...,molszotok,molodtok,cselekszik,-szik,1,PR2052,2003,nő,nem,2022-04-13_20h17.30.585,hesp_baseline,2021.2.3,Win32,58.42827929
,,,,,,,,,,,,,,,,,jonylok,jonylom,right,7.3558,0,112,112,55,1,56,jonylik,jonylasz,NA,NA,Te bizony sokat jonylasz.,Én is sokat...,jonylok,jonylom,lakik,-lik,1,PR2052,2003,nő,nem,2022-04-13_20h17.30.585,hesp_baseline,2021.2.3,Win32,58.42827929
,,,,,,,,,,,,,,,,,fájézban,fájézben,left,4.7174,0,113,113,7,1,62,fájéz,fájéz,ban,é,Ez itt egy fájéz.,Ott vagyunk a...,fájézben,fájézban,dzsungel,NA,NA,PR2052,2003,nő,nem,2022-04-13_20h17.30.585,hesp_baseline,2021.2.3,Win32,58.42827929
,,,,,,,,,,,,,,,,,zarcégnál,zarcégnél,right,6.4819,0,114,114,29,1,84,zarcég,zarcég,nál,é,Ez itt egy zarcég.,Nincs is jobb egy jó...,zarcégnél,zarcégnál,dzsungel,NA,NA,PR2052,2003,nő,nem,2022-04-13_20h17.30.585,hesp_baseline,2021.2.3,Win32,58.42827929
,,,,,,,,,,,,,,,,,dóbemnak,dóbemnek,right,2.8351,0,115,115,48,1,103,dóbem,dóbem,nak,e,Ez itt egy dóbem.,Elneveztem a kutyámat...,dóbemnek,dóbemnak,dzsungel,NA,NA,PR2052,2003,nő,nem,2022-04-13_20h17.30.585,hesp_baseline,2021.2.3,Win32,58.42827929
,,,,,,,,,,,,,,,,,nuroklunk,nurokozunk,left,3.0573,0,116,116,131,1,78,nuroklik / nurokozik,"nuroklik, nurokozni",ünk,NA,"János imád nurokozni, ezért sokat nuroklik.",Mi ritkán...,nuroklunk,nurokozunk,cselekszik,-lik,2,PR2052,2003,nő,nem,2022-04-13_20h17.30.585,hesp_baseline,2021.2.3,Win32,58.42827929
,,,,,,,,,,,,,,,,,flűgzünk,flűgözünk,left,4.046,0,117,117,160,1,107,flűgzik / flűgözik,"flűgzik, flűgözni",ünk,NA,"János imád flűgözni, ezért sokat flűgzik.",Mi ritkán...,flűgzünk,flűgözünk,cselekszik,-zik,1,PR2052,2003,nő,nem,2022-04-13_20h17.30.585,hesp_baseline,2021.2.3,Win32,58.42827929
,,,,,,,,,,,,,,,,,trírozunk,trírzunk,left,4.6948,0,118,118,116,1,63,trírzik / trírozik,"trírzik, trírozni",ünk,NA,"János imád trírozni, ezért sokat trírzik.",Mi ritkán...,trírzunk,trírozunk,cselekszik,-zik,1,PR2052,2003,nő,nem,2022-04-13_20h17.30.585,hesp_baseline,2021.2.3,Win32,58.42827929
,,,,,,,,,,,,,,,,,driládzok,driládzom,right,3.8193,0,119,119,67,1,68,driládzik,driládzol,NA,NA,Te bizony sokat driládzol.,Én is sokat...,driládzok,driládzom,lakik,-zik,2,PR2052,2003,nő,nem,2022-04-13_20h17.30.585,hesp_baseline,2021.2.3,Win32,58.42827929
,,,,,,,,,,,,,,,,,flüröslöm,flüröslök,left,5.8657,0,120,120,87,1,88,flüröslik,flüröslesz,NA,NA,Te bizony sokat flüröslesz.,Én is sokat...,flüröslök,flüröslöm,lakik,-lik,2,PR2052,2003,nő,nem,2022-04-13_20h17.30.585,hesp_baseline,2021.2.3,Win32,58.42827929
,,,,,,,,,,,,,,,,,spügzünk,spügözünk,left,5.1309,0,121,121,143,1,90,spügzik / spügözik,"spügzik, spügözni",ünk,NA,"János imád spügözni, ezért sokat spügzik.",Mi ritkán...,spügzünk,spügözünk,cselekszik,-zik,1,PR2052,2003,nő,nem,2022-04-13_20h17.30.585,hesp_baseline,2021.2.3,Win32,58.42827929
,,,,,,,,,,,,,,,,,kumlom,kumlok,right,2.5166,0,122,122,105,1,106,kumlik,kumlasz,NA,NA,Te bizony sokat kumlasz.,Én is sokat...,kumlok,kumlom,lakik,-lik,1,PR2052,2003,nő,nem,2022-04-13_20h17.30.585,hesp_baseline,2021.2.3,Win32,58.42827929
,,,,,,,,,,,,,,,,,forzédnek,forzédnak,left,2.2466,0,123,123,46,1,101,forzéd,forzéd,nak,é,Ez itt egy forzéd.,Elneveztem a kutyámat...,forzédnek,forzédnak,dzsungel,NA,NA,PR2052,2003,nő,nem,2022-04-13_20h17.30.585,hesp_baseline,2021.2.3,Win32,58.42827929
,,,,,,,,,,,,,,,,,tiregzek,tiregzem,right,2.5369,0,124,124,64,1,65,tiregzik,tiregzel,NA,NA,Te bizony sokat tiregzel.,Én is sokat...,tiregzek,tiregzem,lakik,-zik,2,PR2052,2003,nő,nem,2022-04-13_20h17.30.585,hesp_baseline,2021.2.3,Win32,58.42827929
,,,,,,,,,,,,,,,,,flátszom,flátszok,left,2.2856,0,125,125,98,1,99,flátszik,flátszol,NA,NA,Te bizony sokat flátszol.,Én is sokat...,flátszok,flátszom,lakik,-szik,1,PR2052,2003,nő,nem,2022-04-13_20h17.30.585,hesp_baseline,2021.2.3,Win32,58.42827929
,,,,,,,,,,,,,,,,,sponylanak,sponyoznak,left,3.7053,0,126,126,125,1,72,sponylik / sponyozik,"sponylik, sponyozni",nek,NA,"János imád sponyozni, ezért sokat sponylik.",Ők ritkán...,sponylanak,sponyoznak,cselekszik,-lik,1,PR2052,2003,nő,nem,2022-04-13_20h17.30.585,hesp_baseline,2021.2.3,Win32,58.42827929
,,,,,,,,,,,,,,,,,fibamlok,fibamlom,left,2.9015,0,127,127,65,1,66,fibamlik,fibamlasz,NA,NA,Te bizony sokat fibamlasz.,Én is sokat...,fibamlok,fibamlom,lakik,-lik,2,PR2052,2003,nő,nem,2022-04-13_20h17.30.585,hesp_baseline,2021.2.3,Win32,58.42827929
,,,,,,,,,,,,,,,,,ronvetnak,ronvetnek,right,3.1626,0,128,128,9,1,64,ronvet,ronvet,nak,e,Ez itt egy ronvet.,Elneveztem a kutyámat...,ronvetnek,ronvetnak,dzsungel,NA,NA,PR2052,2003,nő,nem,2022-04-13_20h17.30.585,hesp_baseline,2021.2.3,Win32,58.42827929
,,,,,,,,,,,,,,,,,fojlegynek,fojlegynak,left,3.5931,0,129,129,3,1,58,fojlegy,fojlegy,nak,e,Ez itt egy fojlegy.,Elneveztem a kutyámat...,fojlegynek,fojlegynak,dzsungel,NA,NA,PR2052,2003,nő,nem,2022-04-13_20h17.30.585,hesp_baseline,2021.2.3,Win32,58.42827929
,,,,,,,,,,,,,,,,,branylanak,branyoznak,left,3.2804,0,130,130,136,1,83,branylik / branyozik,"branylik, branyozni",nek,NA,"János imád branyozni, ezért sokat branylik.",Ők ritkán...,branylanak,branyoznak,cselekszik,-lik,1,PR2052,2003,nő,nem,2022-04-13_20h17.30.585,hesp_baseline,2021.2.3,Win32,58.42827929
,,,,,,,,,,,,,,,,,drojzunk,drojozunk,right,6.8799,0,131,131,140,1,87,drojzik / drojozik,"drojzik, drojozni",ünk,NA,"János imád drojozni, ezért sokat drojzik.",Mi ritkán...,drojzunk,drojozunk,cselekszik,-zik,1,PR2052,2003,nő,nem,2022-04-13_20h17.30.585,hesp_baseline,2021.2.3,Win32,58.42827929
,,,,,,,,,,,,,,,,,praslom,praslok,right,2.1831,0,132,132,80,1,81,praslik,praslasz,NA,NA,Te bizony sokat praslasz.,Én is sokat...,praslok,praslom,lakik,-lik,1,PR2052,2003,nő,nem,2022-04-13_20h17.30.585,hesp_baseline,2021.2.3,Win32,58.42827929
,,,,,,,,,,,,,,,,,spiharzotok,spiharoztok,left,4.2138,0,133,133,127,1,74,spiharzik / spiharozik,"spiharzik, spiharozni",tek,NA,"János imád spiharozni, ezért sokat spiharzik.",Ti ritkán...,spiharzotok,spiharoztok,cselekszik,-zik,2,PR2052,2003,nő,nem,2022-04-13_20h17.30.585,hesp_baseline,2021.2.3,Win32,58.42827929
,,,,,,,,,,,,,,,,,míjzunk,míjozunk,left,136.3628,0,134,134,114,1,61,míjzik / míjozik,"míjzik, míjozni",ünk,NA,"János imád míjozni, ezért sokat míjzik.",Mi ritkán...,míjzunk,míjozunk,cselekszik,-zik,1,PR2052,2003,nő,nem,2022-04-13_20h17.30.585,hesp_baseline,2021.2.3,Win32,58.42827929
,,,,,,,,,,,,,,,,,sprűröznek,sprűrlenek,left,4.8979,0,135,135,135,1,82,sprűrlik / sprűrözik,"sprűrlik, sprűrözni",nek,NA,"János imád sprűrözni, ezért sokat sprűrlik.",Ők ritkán...,sprűrlenek,sprűröznek,cselekszik,-lik,1,PR2052,2003,nő,nem,2022-04-13_20h17.30.585,hesp_baseline,2021.2.3,Win32,58.42827929
,,,,,,,,,,,,,,,,,pratánylom,pratánylok,right,3.3944,0,136,136,95,1,96,pratánylik,pratánylasz,NA,NA,Te bizony sokat pratánylasz.,Én is sokat...,pratánylok,pratánylom,lakik,-lik,2,PR2052,2003,nő,nem,2022-04-13_20h17.30.585,hesp_baseline,2021.2.3,Win32,58.42827929
,,,,,,,,,,,,,,,,,zsigénnál,zsigénnél,right,2.5308,0,137,137,12,1,67,zsigén,zsigén,nál,é,Ez itt egy zsigén.,Nincs is jobb egy jó...,zsigénnél,zsigénnál,dzsungel,NA,NA,PR2052,2003,nő,nem,2022-04-13_20h17.30.585,hesp_baseline,2021.2.3,Win32,58.42827929
,,,,,,,,,,,,,,,,,gilárzom,gilárzok,left,6.7499,0,138,138,94,1,95,gilárzik,gilárzol,NA,NA,Te bizony sokat gilárzol.,Én is sokat...,gilárzok,gilárzom,lakik,-zik,2,PR2052,2003,nő,nem,2022-04-13_20h17.30.585,hesp_baseline,2021.2.3,Win32,58.42827929
,,,,,,,,,,,,,,,,,frivamozunk,frivamlunk,right,3.883,0,139,139,122,1,69,frivamlik / frivamozik,"frivamlik, frivamozni",ünk,NA,"János imád frivamozni, ezért sokat frivamlik.",Mi ritkán...,frivamlunk,frivamozunk,cselekszik,-lik,2,PR2052,2003,nő,nem,2022-04-13_20h17.30.585,hesp_baseline,2021.2.3,Win32,58.42827929
,,,,,,,,,,,,,,,,,fupétnél,fupétnál,right,3.6652,0,140,140,14,1,69,fupét,fupét,nál,é,Ez itt egy fupét.,Nincs is jobb egy jó...,fupétnél,fupétnál,dzsungel,NA,NA,PR2052,2003,nő,nem,2022-04-13_20h17.30.585,hesp_baseline,2021.2.3,Win32,58.42827929
,,,,,,,,,,,,,,,,,spubonylok,spubonylom,right,2.8115,0,141,141,104,1,105,spubonylik,spubonylasz,NA,NA,Te bizony sokat spubonylasz.,Én is sokat...,spubonylok,spubonylom,lakik,-lik,2,PR2052,2003,nő,nem,2022-04-13_20h17.30.585,hesp_baseline,2021.2.3,Win32,58.42827929
,,,,,,,,,,,,,,,,,lingéknél,lingéknál,left,2.9299,0,142,142,32,1,87,lingék,lingék,nál,é,Ez itt egy lingék.,Nincs is jobb egy jó...,lingéknél,lingéknál,dzsungel,NA,NA,PR2052,2003,nő,nem,2022-04-13_20h17.30.585,hesp_baseline,2021.2.3,Win32,58.42827929
,,,,,,,,,,,,,,,,,gihesztnek,gihesztnak,left,2.8166,0,143,143,36,1,91,giheszt,giheszt,nak,e,Ez itt egy giheszt.,Elneveztem a kutyámat...,gihesztnek,gihesztnak,dzsungel,NA,NA,PR2052,2003,nő,nem,2022-04-13_20h17.30.585,hesp_baseline,2021.2.3,Win32,58.42827929
,,,,,,,,,,,,,,,,,nidétban,nidétben,right,3.1922,0,144,144,39,1,94,nidét,nidét,ban,é,Ez itt egy nidét.,Ott vagyunk a...,nidétben,nidétban,dzsungel,NA,NA,PR2052,2003,nő,nem,2022-04-13_20h17.30.585,hesp_baseline,2021.2.3,Win32,58.42827929
,,,,,,,,,,,,,,,,,jóbecnek,jóbecnak,left,2.6476,0,145,145,11,1,66,jóbec,jóbec,nak,e,Ez itt egy jóbec.,Elneveztem a kutyámat...,jóbecnek,jóbecnak,dzsungel,NA,NA,PR2052,2003,nő,nem,2022-04-13_20h17.30.585,hesp_baseline,2021.2.3,Win32,58.42827929
,,,,,,,,,,,,,,,,,kalrézben,kalrézban,right,5.3469,0,146,146,16,1,71,kalréz,kalréz,ban,é,Ez itt egy kalréz.,Ott vagyunk a...,kalrézben,kalrézban,dzsungel,NA,NA,PR2052,2003,nő,nem,2022-04-13_20h17.30.585,hesp_baseline,2021.2.3,Win32,58.42827929
,,,,,,,,,,,,,,,,,prilepedünk,prilepszünk,right,3.971,0,147,147,161,1,108,prilepszik / prilepedik,"prilepszik, prilepedni",ünk,NA,"János imád prilepedni, ezért sokat prilepszik.",Mi ritkán...,prilepszünk,prilepedünk,cselekszik,-szik,2,PR2052,2003,nő,nem,2022-04-13_20h17.30.585,hesp_baseline,2021.2.3,Win32,58.42827929
,,,,,,,,,,,,,,,,,flitlom,flitlok,right,4.1212,0,148,148,90,1,91,flitlik,flitlasz,NA,NA,Te bizony sokat flitlasz.,Én is sokat...,flitlok,flitlom,lakik,-lik,1,PR2052,2003,nő,nem,2022-04-13_20h17.30.585,hesp_baseline,2021.2.3,Win32,58.42827929
,,,,,,,,,,,,,,,,,mihágzotok,mihágoztok,left,3.3943,0,149,149,118,1,65,mihágzik / mihágozik,"mihágzik, mihágozni",tek,NA,"János imád mihágozni, ezért sokat mihágzik.",Ti ritkán...,mihágzotok,mihágoztok,cselekszik,-zik,2,PR2052,2003,nő,nem,2022-04-13_20h17.30.585,hesp_baseline,2021.2.3,Win32,58.42827929
,,,,,,,,,,,,,,,,,spáraklom,spáraklok,left,3.5656,0,150,150,96,1,97,spáraklik,spáraklasz,NA,NA,Te bizony sokat spáraklasz.,Én is sokat...,spáraklok,spáraklom,lakik,-lik,2,PR2052,2003,nő,nem,2022-04-13_20h17.30.585,hesp_baseline,2021.2.3,Win32,58.42827929
,,,,,,,,,,,,,,,,,spátennak,spátennek,left,3.0617,0,151,151,33,1,88,spáten,spáten,nak,e,Ez itt egy spáten.,Elneveztem a kutyámat...,spátennek,spátennak,dzsungel,NA,NA,PR2052,2003,nő,nem,2022-04-13_20h17.30.585,hesp_baseline,2021.2.3,Win32,58.42827929
,,,,,,,,,,,,,,,,,csubozunk,csubzunk,left,2.9589,0,152,152,111,1,58,csubzik / csubozik,"csubzik, csubozni",ünk,NA,"János imád csubozni, ezért sokat csubzik.",Mi ritkán...,csubzunk,csubozunk,cselekszik,-zik,1,PR2052,2003,nő,nem,2022-04-13_20h17.30.585,hesp_baseline,2021.2.3,Win32,58.42827929
,,,,,,,,,,,,,,,,,nűröklök,nűröklöm,right,3.5804,0,153,153,106,1,107,nűröklik,nűröklesz,NA,NA,Te bizony sokat nűröklesz.,Én is sokat...,nűröklök,nűröklöm,lakik,-lik,2,PR2052,2003,nő,nem,2022-04-13_20h17.30.585,hesp_baseline,2021.2.3,Win32,58.42827929
,,,,,,,,,,,,,,,,,bivégszem,bivégszek,left,1.9191,0,154,154,68,1,69,bivégszik,bivégszel,NA,NA,Te bizony sokat bivégszel.,Én is sokat...,bivégszek,bivégszem,lakik,-szik,2,PR2052,2003,nő,nem,2022-04-13_20h17.30.585,hesp_baseline,2021.2.3,Win32,58.42827929
,,,,,,,,,,,,,,,,,daboztok,dabzotok,left,5.0811,0,155,155,109,1,56,dabzik / dabozik,"dabzik, dabozni",tek,NA,"János imád dabozni, ezért sokat dabzik.",Ti ritkán...,dabzotok,daboztok,cselekszik,-zik,1,PR2052,2003,nő,nem,2022-04-13_20h17.30.585,hesp_baseline,2021.2.3,Win32,58.42827929
,,,,,,,,,,,,,,,,,csimennél,csimennál,left,4.0086,0,156,156,44,1,99,csimen,csimen,nál,e,Ez itt egy csimen.,Nincs is jobb egy jó...,csimennél,csimennál,dzsungel,NA,NA,PR2052,2003,nő,nem,2022-04-13_20h17.30.585,hesp_baseline,2021.2.3,Win32,58.42827929
,,,,,,,,,,,,,,,,,gyihegzetek,gyihegeztek,left,5.6368,0,157,157,124,1,71,gyihegzik / gyihegezik,"gyihegzik, gyihegezni",tek,NA,"János imád gyihegezni, ezért sokat gyihegzik.",Ti ritkán...,gyihegzetek,gyihegeztek,cselekszik,-zik,2,PR2052,2003,nő,nem,2022-04-13_20h17.30.585,hesp_baseline,2021.2.3,Win32,58.42827929
,,,,,,,,,,,,,,,,,spivélnek,spivélnak,left,4.356,0,158,158,27,1,82,spivél,spivél,nak,é,Ez itt egy spivél.,Elneveztem a kutyámat...,spivélnek,spivélnak,dzsungel,NA,NA,PR2052,2003,nő,nem,2022-04-13_20h17.30.585,hesp_baseline,2021.2.3,Win32,58.42827929
,,,,,,,,,,,,,,,,,tögöznek,töglenek,right,4.086,0,159,159,156,1,103,töglik / tögözik,"töglik, tögözni",nek,NA,"János imád tögözni, ezért sokat töglik.",Ők ritkán...,töglenek,tögöznek,cselekszik,-lik,1,PR2052,2003,nő,nem,2022-04-13_20h17.30.585,hesp_baseline,2021.2.3,Win32,58.42827929
,,,,,,,,,,,,,,,,,nyametban,nyametben,left,3.6778,0,160,160,17,1,72,nyamet,nyamet,ban,e,Ez itt egy nyamet.,Ott vagyunk a...,nyametben,nyametban,dzsungel,NA,NA,PR2052,2003,nő,nem,2022-04-13_20h17.30.585,hesp_baseline,2021.2.3,Win32,58.42827929
,,,,,,,,,,,,,,,,,klingeszban,klingeszben,left,2.13,0,161,161,1,1,56,klingesz,klingesz,ban,e,Ez itt egy klingesz.,Ott vagyunk a...,klingeszben,klingeszban,dzsungel,NA,NA,PR2052,2003,nő,nem,2022-04-13_20h17.30.585,hesp_baseline,2021.2.3,Win32,58.42827929
