my_list,key.keys,key.rt,key_2.keys,key_2.rt,keyboard_input_2.keys,keyboard_input_2.rt,key_3.keys,key_3.rt,keyboard_input_3.keys,keyboard_input_3.rt,key_4.keys,key_4.rt,keyboard_input_4.keys,keyboard_input_4.rt,key_5.keys,key_5.rt,my_button1,my_button2,keyboard_input.keys,keyboard_input.rt,withinBlock.thisRepN,withinBlock.thisTrialN,withinBlock.thisN,withinBlock.thisIndex,withinBlock.ran,rowname,word,prompt,suffix,vowel,carrier_sentence,target_sentence,target1,target2,category,derivational,nsyl,Azonosító,Melyik évben születtél?,Mi a nemed?,Tanultál nyelvészetet?,date,expName,psychopyVersion,OS,frameRate
list2.csv,space,19.8074,space,10.5794,right,9.0339,space,21.4096,left,7.2364,space,11.1858,left,22.3448,space,19.9624,dingecnek,dingecnak,left,6.9463,0,0,0,42,1,97,dingec,dingec,nak,e,Ez itt egy dingec.,Elneveztem a kutyámat...,dingecnek,dingecnak,dzsungel,NA,NA,PR2027,1999,férfi,nem,2022-04-08_17h45.57.124,hesp_baseline,2021.2.3,Win32,117.1508903
,,,,,,,,,,,,,,,,,dihelynek,dihelynak,left,7.5365,0,1,1,20,1,75,dihely,dihely,nak,e,Ez itt egy dihely.,Elneveztem a kutyámat...,dihelynek,dihelynak,dzsungel,NA,NA,PR2027,1999,férfi,nem,2022-04-08_17h45.57.124,hesp_baseline,2021.2.3,Win32,117.1508903
,,,,,,,,,,,,,,,,,líroznak,lírlanak,left,9.1382,0,2,2,115,1,62,lírlik / lírozik,"lírlik, lírozni",nek,NA,"János imád lírozni, ezért sokat lírlik.",Ők ritkán...,lírlanak,líroznak,cselekszik,-lik,1,PR2027,1999,férfi,nem,2022-04-08_17h45.57.124,hesp_baseline,2021.2.3,Win32,117.1508903
,,,,,,,,,,,,,,,,,jonylom,jonylok,right,7.1282,0,3,3,55,1,56,jonylik,jonylasz,NA,NA,Te bizony sokat jonylasz.,Én is sokat...,jonylok,jonylom,lakik,-lik,1,PR2027,1999,férfi,nem,2022-04-08_17h45.57.124,hesp_baseline,2021.2.3,Win32,117.1508903
,,,,,,,,,,,,,,,,,navecban,navecben,right,7.833,0,4,4,8,1,63,navec,navec,ban,e,Ez itt egy navec.,Ott vagyunk a...,navecben,navecban,dzsungel,NA,NA,PR2027,1999,férfi,nem,2022-04-08_17h45.57.124,hesp_baseline,2021.2.3,Win32,117.1508903
,,,,,,,,,,,,,,,,,dilakoztok,dilaklotok,left,35.9381,0,5,5,158,1,105,dilaklik / dilakozik,"dilaklik, dilakozni",tek,NA,"János imád dilakozni, ezért sokat dilaklik.",Ti ritkán...,dilaklotok,dilakoztok,cselekszik,-lik,2,PR2027,1999,férfi,nem,2022-04-08_17h45.57.124,hesp_baseline,2021.2.3,Win32,117.1508903
,,,,,,,,,,,,,,,,,trírozunk,trírzunk,right,10.2628,0,6,6,116,1,63,trírzik / trírozik,"trírzik, trírozni",ünk,NA,"János imád trírozni, ezért sokat trírzik.",Mi ritkán...,trírzunk,trírozunk,cselekszik,-zik,1,PR2027,1999,férfi,nem,2022-04-08_17h45.57.124,hesp_baseline,2021.2.3,Win32,117.1508903
,,,,,,,,,,,,,,,,,livényezünk,livénylünk,right,10.0725,0,7,7,128,1,75,livénylik / livényezik,"livénylik, livényezni",ünk,NA,"János imád livényezni, ezért sokat livénylik.",Mi ritkán...,livénylünk,livényezünk,cselekszik,-lik,2,PR2027,1999,férfi,nem,2022-04-08_17h45.57.124,hesp_baseline,2021.2.3,Win32,117.1508903
,,,,,,,,,,,,,,,,,szanéjnak,szanéjnek,right,5.828,0,8,8,13,1,68,szanéj,szanéj,nak,é,Ez itt egy szanéj.,Elneveztem a kutyámat...,szanéjnek,szanéjnak,dzsungel,NA,NA,PR2027,1999,férfi,nem,2022-04-08_17h45.57.124,hesp_baseline,2021.2.3,Win32,117.1508903
,,,,,,,,,,,,,,,,,spihegzem,spihegzek,right,6.565,0,9,9,81,1,82,spihegzik,spihegzel,NA,NA,Te bizony sokat spihegzel.,Én is sokat...,spihegzek,spihegzem,lakik,-zik,2,PR2027,1999,férfi,nem,2022-04-08_17h45.57.124,hesp_baseline,2021.2.3,Win32,117.1508903
,,,,,,,,,,,,,,,,,nuroklunk,nurokozunk,right,7.7272,0,10,10,131,1,78,nuroklik / nurokozik,"nuroklik, nurokozni",ünk,NA,"János imád nurokozni, ezért sokat nuroklik.",Mi ritkán...,nuroklunk,nurokozunk,cselekszik,-lik,2,PR2027,1999,férfi,nem,2022-04-08_17h45.57.124,hesp_baseline,2021.2.3,Win32,117.1508903
,,,,,,,,,,,,,,,,,sprogzom,sprogzok,right,5.5102,0,11,11,89,1,90,sprogzik,sprogzol,NA,NA,Te bizony sokat sprogzol.,Én is sokat...,sprogzok,sprogzom,lakik,-zik,1,PR2027,1999,férfi,nem,2022-04-08_17h45.57.124,hesp_baseline,2021.2.3,Win32,117.1508903
,,,,,,,,,,,,,,,,,flátszok,flátszom,left,7.1811,0,12,12,98,1,99,flátszik,flátszol,NA,NA,Te bizony sokat flátszol.,Én is sokat...,flátszok,flátszom,lakik,-szik,1,PR2027,1999,férfi,nem,2022-04-08_17h45.57.124,hesp_baseline,2021.2.3,Win32,117.1508903
,,,,,,,,,,,,,,,,,szirlom,szirlok,right,6.0494,0,13,13,62,1,63,szirlik,szirlasz,NA,NA,Te bizony sokat szirlasz.,Én is sokat...,szirlok,szirlom,lakik,-lik,1,PR2027,1999,férfi,nem,2022-04-08_17h45.57.124,hesp_baseline,2021.2.3,Win32,117.1508903
,,,,,,,,,,,,,,,,,friszlom,friszlok,right,3.4181,0,14,14,97,1,98,friszlik,friszlasz,NA,NA,Te bizony sokat friszlasz.,Én is sokat...,friszlok,friszlom,lakik,-lik,1,PR2027,1999,férfi,nem,2022-04-08_17h45.57.124,hesp_baseline,2021.2.3,Win32,117.1508903
,,,,,,,,,,,,,,,,,fröjzötök,fröjöztök,right,6.9695,0,15,15,153,1,100,fröjzik / fröjözik,"fröjzik, fröjözni",tek,NA,"János imád fröjözni, ezért sokat fröjzik.",Ti ritkán...,fröjzötök,fröjöztök,cselekszik,-zik,1,PR2027,1999,férfi,nem,2022-04-08_17h45.57.124,hesp_baseline,2021.2.3,Win32,117.1508903
,,,,,,,,,,,,,,,,,sprízemnél,sprízemnál,left,10.7879,0,16,16,22,1,77,sprízem,sprízem,nál,e,Ez itt egy sprízem.,Nincs is jobb egy jó...,sprízemnél,sprízemnál,dzsungel,NA,NA,PR2027,1999,férfi,nem,2022-04-08_17h45.57.124,hesp_baseline,2021.2.3,Win32,117.1508903
,,,,,,,,,,,,,,,,,csólorzom,csólorzok,right,10.9792,0,17,17,102,1,103,csólorzik,csólorzol,NA,NA,Te bizony sokat csólorzol.,Én is sokat...,csólorzok,csólorzom,lakik,-zik,2,PR2027,1999,férfi,nem,2022-04-08_17h45.57.124,hesp_baseline,2021.2.3,Win32,117.1508903
,,,,,,,,,,,,,,,,,bivégszem,bivégszek,right,6.6386,0,18,18,68,1,69,bivégszik,bivégszel,NA,NA,Te bizony sokat bivégszel.,Én is sokat...,bivégszek,bivégszem,lakik,-szik,2,PR2027,1999,férfi,nem,2022-04-08_17h45.57.124,hesp_baseline,2021.2.3,Win32,117.1508903
,,,,,,,,,,,,,,,,,trugoznak,trugzanak,right,6.7351,0,19,19,146,1,93,trugzik / trugozik,"trugzik, trugozni",nek,NA,"János imád trugozni, ezért sokat trugzik.",Ők ritkán...,trugzanak,trugoznak,cselekszik,-zik,1,PR2027,1999,férfi,nem,2022-04-08_17h45.57.124,hesp_baseline,2021.2.3,Win32,117.1508903
,,,,,,,,,,,,,,,,,sojzom,sojzok,right,5.9037,0,20,20,74,1,75,sojzik,sojzol,NA,NA,Te bizony sokat sojzol.,Én is sokat...,sojzok,sojzom,lakik,-zik,1,PR2027,1999,férfi,nem,2022-04-08_17h45.57.124,hesp_baseline,2021.2.3,Win32,117.1508903
,,,,,,,,,,,,,,,,,flehékszek,flehékszem,left,4.8599,0,21,21,77,1,78,flehékszik,flehékszel,NA,NA,Te bizony sokat flehékszel.,Én is sokat...,flehékszek,flehékszem,lakik,-szik,2,PR2027,1999,férfi,nem,2022-04-08_17h45.57.124,hesp_baseline,2021.2.3,Win32,117.1508903
,,,,,,,,,,,,,,,,,zihencnek,zihencnak,left,3.133,0,22,22,52,1,107,zihenc,zihenc,nak,e,Ez itt egy zihenc.,Elneveztem a kutyámat...,zihencnek,zihencnak,dzsungel,NA,NA,PR2027,1999,férfi,nem,2022-04-08_17h45.57.124,hesp_baseline,2021.2.3,Win32,117.1508903
,,,,,,,,,,,,,,,,,mihágoztok,mihágzotok,left,7.9311,0,23,23,118,1,65,mihágzik / mihágozik,"mihágzik, mihágozni",tek,NA,"János imád mihágozni, ezért sokat mihágzik.",Ti ritkán...,mihágzotok,mihágoztok,cselekszik,-zik,2,PR2027,1999,férfi,nem,2022-04-08_17h45.57.124,hesp_baseline,2021.2.3,Win32,117.1508903
,,,,,,,,,,,,,,,,,huroslok,huroslom,left,4.0526,0,24,24,76,1,77,huroslik,huroslasz,NA,NA,Te bizony sokat huroslasz.,Én is sokat...,huroslok,huroslom,lakik,-lik,2,PR2027,1999,férfi,nem,2022-04-08_17h45.57.124,hesp_baseline,2021.2.3,Win32,117.1508903
,,,,,,,,,,,,,,,,,gúdenban,gúdenben,left,5.2347,0,25,25,4,1,59,gúden,gúden,ban,e,Ez itt egy gúden.,Ott vagyunk a...,gúdenben,gúdenban,dzsungel,NA,NA,PR2027,1999,férfi,nem,2022-04-08_17h45.57.124,hesp_baseline,2021.2.3,Win32,117.1508903
,,,,,,,,,,,,,,,,,cságyeltben,cságyeltban,left,9.2423,0,26,26,10,1,65,cságyelt,cságyelt,ban,e,Ez itt egy cságyelt.,Ott vagyunk a...,cságyeltben,cságyeltban,dzsungel,NA,NA,PR2027,1999,férfi,nem,2022-04-08_17h45.57.124,hesp_baseline,2021.2.3,Win32,117.1508903
,,,,,,,,,,,,,,,,,gihesztnak,gihesztnek,right,4.3639,0,27,27,36,1,91,giheszt,giheszt,nak,e,Ez itt egy giheszt.,Elneveztem a kutyámat...,gihesztnek,gihesztnak,dzsungel,NA,NA,PR2027,1999,férfi,nem,2022-04-08_17h45.57.124,hesp_baseline,2021.2.3,Win32,117.1508903
,,,,,,,,,,,,,,,,,garcépnál,garcépnél,right,4.5247,0,28,28,38,1,93,garcép,garcép,nál,é,Ez itt egy garcép.,Nincs is jobb egy jó...,garcépnél,garcépnál,dzsungel,NA,NA,PR2027,1999,férfi,nem,2022-04-08_17h45.57.124,hesp_baseline,2021.2.3,Win32,117.1508903
,,,,,,,,,,,,,,,,,molszotok,molodtok,left,8.0243,0,29,29,142,1,89,molszik / molodik,"molszik, molodni",tek,NA,"János imád molodni, ezért sokat molszik.",Ti ritkán...,molszotok,molodtok,cselekszik,-szik,1,PR2027,1999,férfi,nem,2022-04-08_17h45.57.124,hesp_baseline,2021.2.3,Win32,117.1508903
,,,,,,,,,,,,,,,,,frivamlunk,frivamozunk,left,7.8085,0,30,30,122,1,69,frivamlik / frivamozik,"frivamlik, frivamozni",ünk,NA,"János imád frivamozni, ezért sokat frivamlik.",Mi ritkán...,frivamlunk,frivamozunk,cselekszik,-lik,2,PR2027,1999,férfi,nem,2022-04-08_17h45.57.124,hesp_baseline,2021.2.3,Win32,117.1508903
,,,,,,,,,,,,,,,,,gyihegzetek,gyihegeztek,right,6.5993,0,31,31,124,1,71,gyihegzik / gyihegezik,"gyihegzik, gyihegezni",tek,NA,"János imád gyihegezni, ezért sokat gyihegzik.",Ti ritkán...,gyihegzetek,gyihegeztek,cselekszik,-zik,2,PR2027,1999,férfi,nem,2022-04-08_17h45.57.124,hesp_baseline,2021.2.3,Win32,117.1508903
,,,,,,,,,,,,,,,,,ikszertban,ikszertben,right,4.0991,0,32,32,19,1,74,ikszert,ikszert,ban,e,Ez itt egy ikszert.,Ott vagyunk a...,ikszertben,ikszertban,dzsungel,NA,NA,PR2027,1999,férfi,nem,2022-04-08_17h45.57.124,hesp_baseline,2021.2.3,Win32,117.1508903
,,,,,,,,,,,,,,,,,sponyoznak,sponylanak,left,6.1783,0,33,33,125,1,72,sponylik / sponyozik,"sponylik, sponyozni",nek,NA,"János imád sponyozni, ezért sokat sponylik.",Ők ritkán...,sponylanak,sponyoznak,cselekszik,-lik,1,PR2027,1999,férfi,nem,2022-04-08_17h45.57.124,hesp_baseline,2021.2.3,Win32,117.1508903
,,,,,,,,,,,,,,,,,fligzom,fligzok,right,3.0718,0,34,34,103,1,104,fligzik,fligzol,NA,NA,Te bizony sokat fligzol.,Én is sokat...,fligzok,fligzom,lakik,-zik,1,PR2027,1999,férfi,nem,2022-04-08_17h45.57.124,hesp_baseline,2021.2.3,Win32,117.1508903
,,,,,,,,,,,,,,,,,figlok,figlom,left,4.0001,0,35,35,75,1,76,figlik,figlasz,NA,NA,Te bizony sokat figlasz.,Én is sokat...,figlok,figlom,lakik,-lik,1,PR2027,1999,férfi,nem,2022-04-08_17h45.57.124,hesp_baseline,2021.2.3,Win32,117.1508903
,,,,,,,,,,,,,,,,,dóbemnak,dóbemnek,right,7.3417,0,36,36,48,1,103,dóbem,dóbem,nak,e,Ez itt egy dóbem.,Elneveztem a kutyámat...,dóbemnek,dóbemnak,dzsungel,NA,NA,PR2027,1999,férfi,nem,2022-04-08_17h45.57.124,hesp_baseline,2021.2.3,Win32,117.1508903
,,,,,,,,,,,,,,,,,frálasoznak,frálaslanak,left,12.2734,0,37,37,110,1,57,frálaslik / frálasozik,"frálaslik, frálasozni",nek,NA,"János imád frálasozni, ezért sokat frálaslik.",Ők ritkán...,frálaslanak,frálasoznak,cselekszik,-lik,2,PR2027,1999,férfi,nem,2022-04-08_17h45.57.124,hesp_baseline,2021.2.3,Win32,117.1508903
,,,,,,,,,,,,,,,,,flüröslöm,flüröslök,right,5.3723,0,38,38,87,1,88,flüröslik,flüröslesz,NA,NA,Te bizony sokat flüröslesz.,Én is sokat...,flüröslök,flüröslöm,lakik,-lik,2,PR2027,1999,férfi,nem,2022-04-08_17h45.57.124,hesp_baseline,2021.2.3,Win32,117.1508903
,,,,,,,,,,,,,,,,,bribékedtek,bribékszetek,left,6.3096,0,39,39,141,1,88,bribékszik / bribékedik,"bribékszik, bribékedni",tek,NA,"János imád bribékedni, ezért sokat bribékszik.",Ti ritkán...,bribékszetek,bribékedtek,cselekszik,-szik,2,PR2027,1999,férfi,nem,2022-04-08_17h45.57.124,hesp_baseline,2021.2.3,Win32,117.1508903
,,,,,,,,,,,,,,,,,spibegezünk,spibeglünk,right,3.1135,0,40,40,147,1,94,spibeglik / spibegezik,"spibeglik, spibegezni",ünk,NA,"János imád spibegezni, ezért sokat spibeglik.",Mi ritkán...,spibeglünk,spibegezünk,cselekszik,-lik,2,PR2027,1999,férfi,nem,2022-04-08_17h45.57.124,hesp_baseline,2021.2.3,Win32,117.1508903
,,,,,,,,,,,,,,,,,hákszanak,hákodnak,right,3.8897,0,41,41,150,1,97,hákszik / hákodik,"hákszik, hákodni",nek,NA,"János imád hákodni, ezért sokat hákszik.",Ők ritkán...,hákszanak,hákodnak,cselekszik,-szik,1,PR2027,1999,férfi,nem,2022-04-08_17h45.57.124,hesp_baseline,2021.2.3,Win32,117.1508903
,,,,,,,,,,,,,,,,,kumlom,kumlok,right,4.7226,0,42,42,105,1,106,kumlik,kumlasz,NA,NA,Te bizony sokat kumlasz.,Én is sokat...,kumlok,kumlom,lakik,-lik,1,PR2027,1999,férfi,nem,2022-04-08_17h45.57.124,hesp_baseline,2021.2.3,Win32,117.1508903
,,,,,,,,,,,,,,,,,ruslom,ruslok,right,2.6695,0,43,43,83,1,84,ruslik,ruslasz,NA,NA,Te bizony sokat ruslasz.,Én is sokat...,ruslok,ruslom,lakik,-lik,1,PR2027,1999,férfi,nem,2022-04-08_17h45.57.124,hesp_baseline,2021.2.3,Win32,117.1508903
,,,,,,,,,,,,,,,,,prihekszek,prihekszem,left,1.5052,0,44,44,100,1,101,prihekszik,prihekszel,NA,NA,Te bizony sokat prihekszel.,Én is sokat...,prihekszek,prihekszem,lakik,-szik,2,PR2027,1999,férfi,nem,2022-04-08_17h45.57.124,hesp_baseline,2021.2.3,Win32,117.1508903
,,,,,,,,,,,,,,,,,driládzok,driládzom,left,1.3961,0,45,45,67,1,68,driládzik,driládzol,NA,NA,Te bizony sokat driládzol.,Én is sokat...,driládzok,driládzom,lakik,-zik,2,PR2027,1999,férfi,nem,2022-04-08_17h45.57.124,hesp_baseline,2021.2.3,Win32,117.1508903
,,,,,,,,,,,,,,,,,lihadzok,lihadzom,left,1.0817,0,46,46,101,1,102,lihadzik,lihadzol,NA,NA,Te bizony sokat lihadzol.,Én is sokat...,lihadzok,lihadzom,lakik,-zik,2,PR2027,1999,férfi,nem,2022-04-08_17h45.57.124,hesp_baseline,2021.2.3,Win32,117.1508903
,,,,,,,,,,,,,,,,,prohódzom,prohódzok,left,1.2763,0,47,47,66,1,67,prohódzik,prohódzol,NA,NA,Te bizony sokat prohódzol.,Én is sokat...,prohódzok,prohódzom,lakik,-zik,2,PR2027,1999,férfi,nem,2022-04-08_17h45.57.124,hesp_baseline,2021.2.3,Win32,117.1508903
,,,,,,,,,,,,,,,,,trigencnek,trigencnak,left,2.0461,0,48,48,31,1,86,trigenc,trigenc,nak,e,Ez itt egy trigenc.,Elneveztem a kutyámat...,trigencnek,trigencnak,dzsungel,NA,NA,PR2027,1999,férfi,nem,2022-04-08_17h45.57.124,hesp_baseline,2021.2.3,Win32,117.1508903
,,,,,,,,,,,,,,,,,pivegszek,pivegszem,left,2.0885,0,49,49,99,1,100,pivegszik,pivegszel,NA,NA,Te bizony sokat pivegszel.,Én is sokat...,pivegszek,pivegszem,lakik,-szik,2,PR2027,1999,férfi,nem,2022-04-08_17h45.57.124,hesp_baseline,2021.2.3,Win32,117.1508903
,,,,,,,,,,,,,,,,,flodoztok,flodlotok,left,1.6972,0,50,50,144,1,91,flodlik / flodozik,"flodlik, flodozni",tek,NA,"János imád flodozni, ezért sokat flodlik.",Ti ritkán...,flodlotok,flodoztok,cselekszik,-lik,1,PR2027,1999,férfi,nem,2022-04-08_17h45.57.124,hesp_baseline,2021.2.3,Win32,117.1508903
,,,,,,,,,,,,,,,,,pratánylok,pratánylom,left,3.2381,0,51,51,95,1,96,pratánylik,pratánylasz,NA,NA,Te bizony sokat pratánylasz.,Én is sokat...,pratánylok,pratánylom,lakik,-lik,2,PR2027,1999,férfi,nem,2022-04-08_17h45.57.124,hesp_baseline,2021.2.3,Win32,117.1508903
,,,,,,,,,,,,,,,,,flemezünk,flemlünk,left,4.1962,0,52,52,137,1,84,flemlik / flemezik,"flemlik, flemezni",ünk,NA,"János imád flemezni, ezért sokat flemlik.",Mi ritkán...,flemlünk,flemezünk,cselekszik,-lik,1,PR2027,1999,férfi,nem,2022-04-08_17h45.57.124,hesp_baseline,2021.2.3,Win32,117.1508903
,,,,,,,,,,,,,,,,,ronvetnek,ronvetnak,left,2.1358,0,53,53,9,1,64,ronvet,ronvet,nak,e,Ez itt egy ronvet.,Elneveztem a kutyámat...,ronvetnek,ronvetnak,dzsungel,NA,NA,PR2027,1999,férfi,nem,2022-04-08_17h45.57.124,hesp_baseline,2021.2.3,Win32,117.1508903
,,,,,,,,,,,,,,,,,spivélnek,spivélnak,left,2.3422,0,54,54,27,1,82,spivél,spivél,nak,é,Ez itt egy spivél.,Elneveztem a kutyámat...,spivélnek,spivélnak,dzsungel,NA,NA,PR2027,1999,férfi,nem,2022-04-08_17h45.57.124,hesp_baseline,2021.2.3,Win32,117.1508903
,,,,,,,,,,,,,,,,,flerékedünk,flerékszünk,left,2.3414,0,55,55,159,1,106,flerékszik / flerékedik,"flerékszik, flerékedni",ünk,NA,"János imád flerékedni, ezért sokat flerékszik.",Mi ritkán...,flerékszünk,flerékedünk,cselekszik,-szik,2,PR2027,1999,férfi,nem,2022-04-08_17h45.57.124,hesp_baseline,2021.2.3,Win32,117.1508903
,,,,,,,,,,,,,,,,,klajrénnek,klajrénnak,left,3.7629,0,56,56,41,1,96,klajrén,klajrén,nak,é,Ez itt egy klajrén.,Elneveztem a kutyámat...,klajrénnek,klajrénnak,dzsungel,NA,NA,PR2027,1999,férfi,nem,2022-04-08_17h45.57.124,hesp_baseline,2021.2.3,Win32,117.1508903
,,,,,,,,,,,,,,,,,spubonylom,spubonylok,right,3.8219,0,57,57,104,1,105,spubonylik,spubonylasz,NA,NA,Te bizony sokat spubonylasz.,Én is sokat...,spubonylok,spubonylom,lakik,-lik,2,PR2027,1999,férfi,nem,2022-04-08_17h45.57.124,hesp_baseline,2021.2.3,Win32,117.1508903
,,,,,,,,,,,,,,,,,tumélynál,tumélynél,right,1.811,0,58,58,28,1,83,tumély,tumély,nál,é,Ez itt egy tumély.,Nincs is jobb egy jó...,tumélynél,tumélynál,dzsungel,NA,NA,PR2027,1999,férfi,nem,2022-04-08_17h45.57.124,hesp_baseline,2021.2.3,Win32,117.1508903
,,,,,,,,,,,,,,,,,femlem,femlek,right,1.7702,0,59,59,57,1,58,femlik,femlesz,NA,NA,Te bizony sokat femlesz.,Én is sokat...,femlek,femlem,lakik,-lik,1,PR2027,1999,férfi,nem,2022-04-08_17h45.57.124,hesp_baseline,2021.2.3,Win32,117.1508903
,,,,,,,,,,,,,,,,,tosélyben,tosélyban,left,2.2699,0,60,60,25,1,80,tosély,tosély,ban,é,Ez itt egy tosély.,Ott vagyunk a...,tosélyben,tosélyban,dzsungel,NA,NA,PR2027,1999,férfi,nem,2022-04-08_17h45.57.124,hesp_baseline,2021.2.3,Win32,117.1508903
,,,,,,,,,,,,,,,,,fivénylem,fivénylek,right,1.7232,0,61,61,78,1,79,fivénylik,fivénylesz,NA,NA,Te bizony sokat fivénylesz.,Én is sokat...,fivénylek,fivénylem,lakik,-lik,2,PR2027,1999,férfi,nem,2022-04-08_17h45.57.124,hesp_baseline,2021.2.3,Win32,117.1508903
,,,,,,,,,,,,,,,,,nyábétban,nyábétben,right,3.6955,0,62,62,21,1,76,nyábét,nyábét,ban,é,Ez itt egy nyábét.,Ott vagyunk a...,nyábétben,nyábétban,dzsungel,NA,NA,PR2027,1999,férfi,nem,2022-04-08_17h45.57.124,hesp_baseline,2021.2.3,Win32,117.1508903
,,,,,,,,,,,,,,,,,júdernak,júdernek,right,1.5895,0,63,63,53,1,108,júder,júder,nak,e,Ez itt egy júder.,Elneveztem a kutyámat...,júdernek,júdernak,dzsungel,NA,NA,PR2027,1999,férfi,nem,2022-04-08_17h45.57.124,hesp_baseline,2021.2.3,Win32,117.1508903
,,,,,,,,,,,,,,,,,flitlok,flitlom,left,1.7795,0,64,64,90,1,91,flitlik,flitlasz,NA,NA,Te bizony sokat flitlasz.,Én is sokat...,flitlok,flitlom,lakik,-lik,1,PR2027,1999,férfi,nem,2022-04-08_17h45.57.124,hesp_baseline,2021.2.3,Win32,117.1508903
,,,,,,,,,,,,,,,,,ribzok,ribzom,left,1.5424,0,65,65,58,1,59,ribzik,ribzol,NA,NA,Te bizony sokat ribzol.,Én is sokat...,ribzok,ribzom,lakik,-zik,1,PR2027,1999,férfi,nem,2022-04-08_17h45.57.124,hesp_baseline,2021.2.3,Win32,117.1508903
,,,,,,,,,,,,,,,,,drojozunk,drojzunk,right,1.8986,0,66,66,140,1,87,drojzik / drojozik,"drojzik, drojozni",ünk,NA,"János imád drojozni, ezért sokat drojzik.",Mi ritkán...,drojzunk,drojozunk,cselekszik,-zik,1,PR2027,1999,férfi,nem,2022-04-08_17h45.57.124,hesp_baseline,2021.2.3,Win32,117.1508903
,,,,,,,,,,,,,,,,,frodlom,frodlok,right,1.4357,0,67,67,61,1,62,frodlik,frodlasz,NA,NA,Te bizony sokat frodlasz.,Én is sokat...,frodlok,frodlom,lakik,-lik,1,PR2027,1999,férfi,nem,2022-04-08_17h45.57.124,hesp_baseline,2021.2.3,Win32,117.1508903
,,,,,,,,,,,,,,,,,brágédnak,brágédnek,right,1.5535,0,68,68,45,1,100,brágéd,brágéd,nak,é,Ez itt egy brágéd.,Elneveztem a kutyámat...,brágédnek,brágédnak,dzsungel,NA,NA,PR2027,1999,férfi,nem,2022-04-08_17h45.57.124,hesp_baseline,2021.2.3,Win32,117.1508903
,,,,,,,,,,,,,,,,,brágaklom,brágaklok,left,1.8426,0,69,69,71,1,72,brágaklik,brágaklasz,NA,NA,Te bizony sokat brágaklasz.,Én is sokat...,brágaklok,brágaklom,lakik,-lik,2,PR2027,1999,férfi,nem,2022-04-08_17h45.57.124,hesp_baseline,2021.2.3,Win32,117.1508903
,,,,,,,,,,,,,,,,,vorszennál,vorszennél,right,2.0869,0,70,70,30,1,85,vorszen,vorszen,nál,e,Ez itt egy vorszen.,Nincs is jobb egy jó...,vorszennél,vorszennál,dzsungel,NA,NA,PR2027,1999,férfi,nem,2022-04-08_17h45.57.124,hesp_baseline,2021.2.3,Win32,117.1508903
,,,,,,,,,,,,,,,,,fröjlünk,fröjözünk,left,1.9948,0,71,71,117,1,64,fröjlik / fröjözik,"fröjlik, fröjözni",ünk,NA,"János imád fröjözni, ezért sokat fröjlik.",Mi ritkán...,fröjlünk,fröjözünk,cselekszik,-lik,1,PR2027,1999,férfi,nem,2022-04-08_17h45.57.124,hesp_baseline,2021.2.3,Win32,117.1508903
,,,,,,,,,,,,,,,,,fibamlom,fibamlok,right,2.9287,0,72,72,65,1,66,fibamlik,fibamlasz,NA,NA,Te bizony sokat fibamlasz.,Én is sokat...,fibamlok,fibamlom,lakik,-lik,2,PR2027,1999,férfi,nem,2022-04-08_17h45.57.124,hesp_baseline,2021.2.3,Win32,117.1508903
,,,,,,,,,,,,,,,,,péleslek,péleslem,left,0.9819,0,73,73,73,1,74,péleslik,péleslesz,NA,NA,Te bizony sokat péleslesz.,Én is sokat...,péleslek,péleslem,lakik,-lik,2,PR2027,1999,férfi,nem,2022-04-08_17h45.57.124,hesp_baseline,2021.2.3,Win32,117.1508903
,,,,,,,,,,,,,,,,,fupétnál,fupétnél,right,1.611,0,74,74,14,1,69,fupét,fupét,nál,é,Ez itt egy fupét.,Nincs is jobb egy jó...,fupétnél,fupétnál,dzsungel,NA,NA,PR2027,1999,férfi,nem,2022-04-08_17h45.57.124,hesp_baseline,2021.2.3,Win32,117.1508903
,,,,,,,,,,,,,,,,,nidétben,nidétban,left,4.1081,0,75,75,39,1,94,nidét,nidét,ban,é,Ez itt egy nidét.,Ott vagyunk a...,nidétben,nidétban,dzsungel,NA,NA,PR2027,1999,férfi,nem,2022-04-08_17h45.57.124,hesp_baseline,2021.2.3,Win32,117.1508903
,,,,,,,,,,,,,,,,,flagánylom,flagánylok,right,6.8434,0,76,76,82,1,83,flagánylik,flagánylasz,NA,NA,Te bizony sokat flagánylasz.,Én is sokat...,flagánylok,flagánylom,lakik,-lik,2,PR2027,1999,férfi,nem,2022-04-08_17h45.57.124,hesp_baseline,2021.2.3,Win32,117.1508903
,,,,,,,,,,,,,,,,,csimennél,csimennál,left,7.8917,0,77,77,44,1,99,csimen,csimen,nál,e,Ez itt egy csimen.,Nincs is jobb egy jó...,csimennél,csimennál,dzsungel,NA,NA,PR2027,1999,férfi,nem,2022-04-08_17h45.57.124,hesp_baseline,2021.2.3,Win32,117.1508903
,,,,,,,,,,,,,,,,,csintékban,csintékben,right,6.4414,0,78,78,23,1,78,csinték,csinték,ban,é,Ez itt egy csinték.,Ott vagyunk a...,csintékben,csintékban,dzsungel,NA,NA,PR2027,1999,férfi,nem,2022-04-08_17h45.57.124,hesp_baseline,2021.2.3,Win32,117.1508903
,,,,,,,,,,,,,,,,,pribemlem,pribemlek,right,2.1655,0,79,79,107,1,108,pribemlik,pribemlesz,NA,NA,Te bizony sokat pribemlesz.,Én is sokat...,pribemlek,pribemlem,lakik,-lik,2,PR2027,1999,férfi,nem,2022-04-08_17h45.57.124,hesp_baseline,2021.2.3,Win32,117.1508903
,,,,,,,,,,,,,,,,,zsigénnél,zsigénnál,left,3.3738,0,80,80,12,1,67,zsigén,zsigén,nál,é,Ez itt egy zsigén.,Nincs is jobb egy jó...,zsigénnél,zsigénnál,dzsungel,NA,NA,PR2027,1999,férfi,nem,2022-04-08_17h45.57.124,hesp_baseline,2021.2.3,Win32,117.1508903
,,,,,,,,,,,,,,,,,flubokoztok,fluboklotok,left,3.7573,0,81,81,151,1,98,fluboklik / flubokozik,"fluboklik, flubokozni",tek,NA,"János imád flubokozni, ezért sokat fluboklik.",Ti ritkán...,fluboklotok,flubokoztok,cselekszik,-lik,2,PR2027,1999,férfi,nem,2022-04-08_17h45.57.124,hesp_baseline,2021.2.3,Win32,117.1508903
,,,,,,,,,,,,,,,,,rapszeknél,rapszeknál,left,4.8019,0,82,82,35,1,90,rapszek,rapszek,nál,e,Ez itt egy rapszek.,Nincs is jobb egy jó...,rapszeknél,rapszeknál,dzsungel,NA,NA,PR2027,1999,férfi,nem,2022-04-08_17h45.57.124,hesp_baseline,2021.2.3,Win32,117.1508903
,,,,,,,,,,,,,,,,,spátennak,spátennek,left,1.4892,0,83,83,33,1,88,spáten,spáten,nak,e,Ez itt egy spáten.,Elneveztem a kutyámat...,spátennek,spátennak,dzsungel,NA,NA,PR2027,1999,férfi,nem,2022-04-08_17h45.57.124,hesp_baseline,2021.2.3,Win32,117.1508903
,,,,,,,,,,,,,,,,,klidlok,klidlom,left,1.3226,0,84,84,72,1,73,klidlik,klidlasz,NA,NA,Te bizony sokat klidlasz.,Én is sokat...,klidlok,klidlom,lakik,-lik,1,PR2027,1999,férfi,nem,2022-04-08_17h45.57.124,hesp_baseline,2021.2.3,Win32,117.1508903
,,,,,,,,,,,,,,,,,sprűröznek,sprűrlenek,left,1.4731,0,85,85,135,1,82,sprűrlik / sprűrözik,"sprűrlik, sprűrözni",nek,NA,"János imád sprűrözni, ezért sokat sprűrlik.",Ők ritkán...,sprűrlenek,sprűröznek,cselekszik,-lik,1,PR2027,1999,férfi,nem,2022-04-08_17h45.57.124,hesp_baseline,2021.2.3,Win32,117.1508903
,,,,,,,,,,,,,,,,,sortemnél,sortemnál,left,1.4641,0,86,86,15,1,70,sortem,sortem,nál,e,Ez itt egy sortem.,Nincs is jobb egy jó...,sortemnél,sortemnál,dzsungel,NA,NA,PR2027,1999,férfi,nem,2022-04-08_17h45.57.124,hesp_baseline,2021.2.3,Win32,117.1508903
,,,,,,,,,,,,,,,,,sprebzenek,sprebeznek,right,4.234,0,87,87,139,1,86,sprebzik / sprebezik,"sprebzik, sprebezni",nek,NA,"János imád sprebezni, ezért sokat sprebzik.",Ők ritkán...,sprebzenek,sprebeznek,cselekszik,-zik,1,PR2027,1999,férfi,nem,2022-04-08_17h45.57.124,hesp_baseline,2021.2.3,Win32,117.1508903
,,,,,,,,,,,,,,,,,juszlok,juszlom,left,1.7451,0,88,88,79,1,80,juszlik,juszlasz,NA,NA,Te bizony sokat juszlasz.,Én is sokat...,juszlok,juszlom,lakik,-lik,1,PR2027,1999,férfi,nem,2022-04-08_17h45.57.124,hesp_baseline,2021.2.3,Win32,117.1508903
,,,,,,,,,,,,,,,,,klűmlötök,klűmöztök,right,3.5384,0,89,89,108,1,55,klűmlik / klűmözik,"klűmlik, klűmözni",tek,NA,"János imád klűmözni, ezért sokat klűmlik.",Ti ritkán...,klűmlötök,klűmöztök,cselekszik,-lik,1,PR2027,1999,férfi,nem,2022-04-08_17h45.57.124,hesp_baseline,2021.2.3,Win32,117.1508903
,,,,,,,,,,,,,,,,,kluzoztok,kluzlotok,left,7.7746,0,90,90,148,1,95,kluzlik / kluzozik,"kluzlik, kluzozni",tek,NA,"János imád kluzozni, ezért sokat kluzlik.",Ti ritkán...,kluzlotok,kluzoztok,cselekszik,-lik,1,PR2027,1999,férfi,nem,2022-04-08_17h45.57.124,hesp_baseline,2021.2.3,Win32,117.1508903
,,,,,,,,,,,,,,,,,klítegynél,klítegynál,left,2.8546,0,91,91,5,1,60,klítegy,klítegy,nál,e,Ez itt egy klítegy.,Nincs is jobb egy jó...,klítegynél,klítegynál,dzsungel,NA,NA,PR2027,1999,férfi,nem,2022-04-08_17h45.57.124,hesp_baseline,2021.2.3,Win32,117.1508903
,,,,,,,,,,,,,,,,,klingeszben,klingeszban,left,3.7133,0,92,92,1,1,56,klingesz,klingesz,ban,e,Ez itt egy klingesz.,Ott vagyunk a...,klingeszben,klingeszban,dzsungel,NA,NA,PR2027,1999,férfi,nem,2022-04-08_17h45.57.124,hesp_baseline,2021.2.3,Win32,117.1508903
,,,,,,,,,,,,,,,,,flűmlöm,flűmlök,right,0.9385,0,93,93,54,1,55,flűmlik,flűmlesz,NA,NA,Te bizony sokat flűmlesz.,Én is sokat...,flűmlök,flűmlöm,lakik,-lik,1,PR2027,1999,férfi,nem,2022-04-08_17h45.57.124,hesp_baseline,2021.2.3,Win32,117.1508903
,,,,,,,,,,,,,,,,,játozunk,játlunk,right,3.8733,0,94,94,145,1,92,játlik / játozik,"játlik, játozni",ünk,NA,"János imád játozni, ezért sokat játlik.",Mi ritkán...,játlunk,játozunk,cselekszik,-lik,1,PR2027,1999,férfi,nem,2022-04-08_17h45.57.124,hesp_baseline,2021.2.3,Win32,117.1508903
,,,,,,,,,,,,,,,,,spüjzöm,spüjzök,right,2.2616,0,95,95,59,1,60,spüjzik,spüjzöl,NA,NA,Te bizony sokat spüjzöl.,Én is sokat...,spüjzök,spüjzöm,lakik,-zik,1,PR2027,1999,férfi,nem,2022-04-08_17h45.57.124,hesp_baseline,2021.2.3,Win32,117.1508903
,,,,,,,,,,,,,,,,,flűgzünk,flűgözünk,left,1.8733,0,96,96,160,1,107,flűgzik / flűgözik,"flűgzik, flűgözni",ünk,NA,"János imád flűgözni, ezért sokat flűgzik.",Mi ritkán...,flűgzünk,flűgözünk,cselekszik,-zik,1,PR2027,1999,férfi,nem,2022-04-08_17h45.57.124,hesp_baseline,2021.2.3,Win32,117.1508903
,,,,,,,,,,,,,,,,,pratelynek,pratelynak,left,1.2602,0,97,97,47,1,102,prately,prately,nak,e,Ez itt egy prately.,Elneveztem a kutyámat...,pratelynek,pratelynak,dzsungel,NA,NA,PR2027,1999,férfi,nem,2022-04-08_17h45.57.124,hesp_baseline,2021.2.3,Win32,117.1508903
,,,,,,,,,,,,,,,,,gilárzok,gilárzom,left,2.8705,0,98,98,94,1,95,gilárzik,gilárzol,NA,NA,Te bizony sokat gilárzol.,Én is sokat...,gilárzok,gilárzom,lakik,-zik,2,PR2027,1999,férfi,nem,2022-04-08_17h45.57.124,hesp_baseline,2021.2.3,Win32,117.1508903
,,,,,,,,,,,,,,,,,brivegzek,brivegzem,left,2.7497,0,99,99,70,1,71,brivegzik,brivegzel,NA,NA,Te bizony sokat brivegzel.,Én is sokat...,brivegzek,brivegzem,lakik,-zik,2,PR2027,1999,férfi,nem,2022-04-08_17h45.57.124,hesp_baseline,2021.2.3,Win32,117.1508903
,,,,,,,,,,,,,,,,,sprigoztok,sprigzotok,left,1.7689,0,100,100,129,1,76,sprigzik / sprigozik,"sprigzik, sprigozni",tek,NA,"János imád sprigozni, ezért sokat sprigzik.",Ti ritkán...,sprigzotok,sprigoztok,cselekszik,-zik,1,PR2027,1999,férfi,nem,2022-04-08_17h45.57.124,hesp_baseline,2021.2.3,Win32,117.1508903
,,,,,,,,,,,,,,,,,fréslünk,frésezünk,left,2.6571,0,101,101,138,1,85,fréslik / frésezik,"fréslik, frésezni",ünk,NA,"János imád frésezni, ezért sokat fréslik.",Mi ritkán...,fréslünk,frésezünk,cselekszik,-lik,1,PR2027,1999,férfi,nem,2022-04-08_17h45.57.124,hesp_baseline,2021.2.3,Win32,117.1508903
,,,,,,,,,,,,,,,,,spügzünk,spügözünk,left,4.4492,0,102,102,143,1,90,spügzik / spügözik,"spügzik, spügözni",ünk,NA,"János imád spügözni, ezért sokat spügzik.",Mi ritkán...,spügzünk,spügözünk,cselekszik,-zik,1,PR2027,1999,férfi,nem,2022-04-08_17h45.57.124,hesp_baseline,2021.2.3,Win32,117.1508903
,,,,,,,,,,,,,,,,,spöklünk,spöközünk,left,1.9237,0,103,103,130,1,77,spöklik / spöközik,"spöklik, spöközni",ünk,NA,"János imád spöközni, ezért sokat spöklik.",Mi ritkán...,spöklünk,spöközünk,cselekszik,-lik,1,PR2027,1999,férfi,nem,2022-04-08_17h45.57.124,hesp_baseline,2021.2.3,Win32,117.1508903
,,,,,,,,,,,,,,,,,lingéknál,lingéknél,right,3.9756,0,104,104,32,1,87,lingék,lingék,nál,é,Ez itt egy lingék.,Nincs is jobb egy jó...,lingéknél,lingéknál,dzsungel,NA,NA,PR2027,1999,férfi,nem,2022-04-08_17h45.57.124,hesp_baseline,2021.2.3,Win32,117.1508903
,,,,,,,,,,,,,,,,,nyöbzenek,nyöböznek,left,2.8973,0,105,105,152,1,99,nyöbzik / nyöbözik,"nyöbzik, nyöbözni",nek,NA,"János imád nyöbözni, ezért sokat nyöbzik.",Ők ritkán...,nyöbzenek,nyöböznek,cselekszik,-zik,1,PR2027,1999,férfi,nem,2022-04-08_17h45.57.124,hesp_baseline,2021.2.3,Win32,117.1508903
,,,,,,,,,,,,,,,,,fájézben,fájézban,left,2.1916,0,106,106,7,1,62,fájéz,fájéz,ban,é,Ez itt egy fájéz.,Ott vagyunk a...,fájézben,fájézban,dzsungel,NA,NA,PR2027,1999,férfi,nem,2022-04-08_17h45.57.124,hesp_baseline,2021.2.3,Win32,117.1508903
,,,,,,,,,,,,,,,,,flibekszek,flibekszem,left,1.9439,0,107,107,93,1,94,flibekszik,flibekszel,NA,NA,Te bizony sokat flibekszel.,Én is sokat...,flibekszek,flibekszem,lakik,-szik,2,PR2027,1999,férfi,nem,2022-04-08_17h45.57.124,hesp_baseline,2021.2.3,Win32,117.1508903
,,,,,,,,,,,,,,,,,dárakszunk,dárakodunk,left,2.8235,0,108,108,126,1,73,dárakszik / dárakodik,"dárakszik, dárakodni",ünk,NA,"János imád dárakodni, ezért sokat dárakszik.",Mi ritkán...,dárakszunk,dárakodunk,cselekszik,-szik,2,PR2027,1999,férfi,nem,2022-04-08_17h45.57.124,hesp_baseline,2021.2.3,Win32,117.1508903
,,,,,,,,,,,,,,,,,klehényeztek,klehényletek,left,2.0665,0,109,109,113,1,60,klehénylik / klehényezik,"klehénylik, klehényezni",tek,NA,"János imád klehényezni, ezért sokat klehénylik.",Ti ritkán...,klehényletek,klehényeztek,cselekszik,-lik,2,PR2027,1999,férfi,nem,2022-04-08_17h45.57.124,hesp_baseline,2021.2.3,Win32,117.1508903
,,,,,,,,,,,,,,,,,floglom,floglok,right,2.4611,0,110,110,92,1,93,floglik,floglasz,NA,NA,Te bizony sokat floglasz.,Én is sokat...,floglok,floglom,lakik,-lik,1,PR2027,1999,férfi,nem,2022-04-08_17h45.57.124,hesp_baseline,2021.2.3,Win32,117.1508903
,,,,,,,,,,,,,,,,,forzédnek,forzédnak,left,2.101,0,111,111,46,1,101,forzéd,forzéd,nak,é,Ez itt egy forzéd.,Elneveztem a kutyámat...,forzédnek,forzédnak,dzsungel,NA,NA,PR2027,1999,férfi,nem,2022-04-08_17h45.57.124,hesp_baseline,2021.2.3,Win32,117.1508903
,,,,,,,,,,,,,,,,,flézletek,flézeztek,left,3.3193,0,112,112,134,1,81,flézlik / flézezik,"flézlik, flézezni",tek,NA,"János imád flézezni, ezért sokat flézlik.",Ti ritkán...,flézletek,flézeztek,cselekszik,-lik,1,PR2027,1999,férfi,nem,2022-04-08_17h45.57.124,hesp_baseline,2021.2.3,Win32,117.1508903
,,,,,,,,,,,,,,,,,lijeznak,lijeznek,right,4.3821,0,113,113,40,1,95,lijez,lijez,nak,e,Ez itt egy lijez.,Elneveztem a kutyámat...,lijeznek,lijeznak,dzsungel,NA,NA,PR2027,1999,férfi,nem,2022-04-08_17h45.57.124,hesp_baseline,2021.2.3,Win32,117.1508903
,,,,,,,,,,,,,,,,,flűröklöm,flűröklök,right,1.0877,0,114,114,91,1,92,flűröklik,flűröklesz,NA,NA,Te bizony sokat flűröklesz.,Én is sokat...,flűröklök,flűröklöm,lakik,-lik,2,PR2027,1999,férfi,nem,2022-04-08_17h45.57.124,hesp_baseline,2021.2.3,Win32,117.1508903
,,,,,,,,,,,,,,,,,kalrézban,kalrézben,right,2.506,0,115,115,16,1,71,kalréz,kalréz,ban,é,Ez itt egy kalréz.,Ott vagyunk a...,kalrézben,kalrézban,dzsungel,NA,NA,PR2027,1999,férfi,nem,2022-04-08_17h45.57.124,hesp_baseline,2021.2.3,Win32,117.1508903
,,,,,,,,,,,,,,,,,spatárzok,spatárzom,left,47.0692,0,116,116,69,1,70,spatárzik,spatárzol,NA,NA,Te bizony sokat spatárzol.,Én is sokat...,spatárzok,spatárzom,lakik,-zik,2,PR2027,1999,férfi,nem,2022-04-08_17h45.57.124,hesp_baseline,2021.2.3,Win32,117.1508903
,,,,,,,,,,,,,,,,,spáraklom,spáraklok,right,1.4811,0,117,117,96,1,97,spáraklik,spáraklasz,NA,NA,Te bizony sokat spáraklasz.,Én is sokat...,spáraklok,spáraklom,lakik,-lik,2,PR2027,1999,férfi,nem,2022-04-08_17h45.57.124,hesp_baseline,2021.2.3,Win32,117.1508903
,,,,,,,,,,,,,,,,,fojlegynak,fojlegynek,right,5.0244,0,118,118,3,1,58,fojlegy,fojlegy,nak,e,Ez itt egy fojlegy.,Elneveztem a kutyámat...,fojlegynek,fojlegynak,dzsungel,NA,NA,PR2027,1999,férfi,nem,2022-04-08_17h45.57.124,hesp_baseline,2021.2.3,Win32,117.1508903
,,,,,,,,,,,,,,,,,tomlom,tomlok,right,0.8392,0,119,119,86,1,87,tomlik,tomlasz,NA,NA,Te bizony sokat tomlasz.,Én is sokat...,tomlok,tomlom,lakik,-lik,1,PR2027,1999,férfi,nem,2022-04-08_17h45.57.124,hesp_baseline,2021.2.3,Win32,117.1508903
,,,,,,,,,,,,,,,,,nyádlanak,nyádoznak,left,1.0818,0,120,120,120,1,67,nyádlik / nyádozik,"nyádlik, nyádozni",nek,NA,"János imád nyádozni, ezért sokat nyádlik.",Ők ritkán...,nyádlanak,nyádoznak,cselekszik,-lik,1,PR2027,1999,férfi,nem,2022-04-08_17h45.57.124,hesp_baseline,2021.2.3,Win32,117.1508903
,,,,,,,,,,,,,,,,,hubonyoztok,hubonylotok,left,2.7047,0,121,121,157,1,104,hubonylik / hubonyozik,"hubonylik, hubonyozni",tek,NA,"János imád hubonyozni, ezért sokat hubonylik.",Ti ritkán...,hubonylotok,hubonyoztok,cselekszik,-lik,2,PR2027,1999,férfi,nem,2022-04-08_17h45.57.124,hesp_baseline,2021.2.3,Win32,117.1508903
,,,,,,,,,,,,,,,,,tranékben,tranékban,left,1.499,0,122,122,2,1,57,tranék,tranék,ban,é,Ez itt egy tranék.,Ott vagyunk a...,tranékben,tranékban,dzsungel,NA,NA,PR2027,1999,férfi,nem,2022-04-08_17h45.57.124,hesp_baseline,2021.2.3,Win32,117.1508903
,,,,,,,,,,,,,,,,,nűröklöm,nűröklök,right,2.5452,0,123,123,106,1,107,nűröklik,nűröklesz,NA,NA,Te bizony sokat nűröklesz.,Én is sokat...,nűröklök,nűröklöm,lakik,-lik,2,PR2027,1999,férfi,nem,2022-04-08_17h45.57.124,hesp_baseline,2021.2.3,Win32,117.1508903
,,,,,,,,,,,,,,,,,dibágoztok,dibáglotok,left,1.5354,0,124,124,154,1,101,dibáglik / dibágozik,"dibáglik, dibágozni",tek,NA,"János imád dibágozni, ezért sokat dibáglik.",Ti ritkán...,dibáglotok,dibágoztok,cselekszik,-lik,2,PR2027,1999,férfi,nem,2022-04-08_17h45.57.124,hesp_baseline,2021.2.3,Win32,117.1508903
,,,,,,,,,,,,,,,,,csubzunk,csubozunk,left,1.9503,0,125,125,111,1,58,csubzik / csubozik,"csubzik, csubozni",ünk,NA,"János imád csubozni, ezért sokat csubzik.",Mi ritkán...,csubzunk,csubozunk,cselekszik,-zik,1,PR2027,1999,férfi,nem,2022-04-08_17h45.57.124,hesp_baseline,2021.2.3,Win32,117.1508903
,,,,,,,,,,,,,,,,,sporzemnak,sporzemnek,left,2.205,0,126,126,26,1,81,sporzem,sporzem,nak,e,Ez itt egy sporzem.,Elneveztem a kutyámat...,sporzemnek,sporzemnak,dzsungel,NA,NA,PR2027,1999,férfi,nem,2022-04-08_17h45.57.124,hesp_baseline,2021.2.3,Win32,117.1508903
,,,,,,,,,,,,,,,,,poslotok,posoztok,left,34.4148,0,127,127,121,1,68,poslik / posozik,"poslik, posozni",tek,NA,"János imád posozni, ezért sokat poslik.",Ti ritkán...,poslotok,posoztok,cselekszik,-lik,1,PR2027,1999,férfi,nem,2022-04-08_17h45.57.124,hesp_baseline,2021.2.3,Win32,117.1508903
,,,,,,,,,,,,,,,,,kátédnál,kátédnél,right,9.3213,0,128,128,37,1,92,kátéd,kátéd,nál,é,Ez itt egy kátéd.,Nincs is jobb egy jó...,kátédnél,kátédnál,dzsungel,NA,NA,PR2027,1999,férfi,nem,2022-04-08_17h45.57.124,hesp_baseline,2021.2.3,Win32,117.1508903
,,,,,,,,,,,,,,,,,dabzotok,daboztok,right,2.9935,0,129,129,109,1,56,dabzik / dabozik,"dabzik, dabozni",tek,NA,"János imád dabozni, ezért sokat dabzik.",Ti ritkán...,dabzotok,daboztok,cselekszik,-zik,1,PR2027,1999,férfi,nem,2022-04-08_17h45.57.124,hesp_baseline,2021.2.3,Win32,117.1508903
,,,,,,,,,,,,,,,,,flüröklötök,flürököztök,right,1.9556,0,130,130,149,1,96,flüröklik / flüröközik,"flüröklik, flüröközni",tek,NA,"János imád flüröközni, ezért sokat flüröklik.",Ti ritkán...,flüröklötök,flürököztök,cselekszik,-lik,2,PR2027,1999,férfi,nem,2022-04-08_17h45.57.124,hesp_baseline,2021.2.3,Win32,117.1508903
,,,,,,,,,,,,,,,,,gihamoznak,gihamlanak,right,2.1918,0,131,131,133,1,80,gihamlik / gihamozik,"gihamlik, gihamozni",nek,NA,"János imád gihamozni, ezért sokat gihamlik.",Ők ritkán...,gihamlanak,gihamoznak,cselekszik,-lik,2,PR2027,1999,férfi,nem,2022-04-08_17h45.57.124,hesp_baseline,2021.2.3,Win32,117.1508903
,,,,,,,,,,,,,,,,,tiregzek,tiregzem,left,3.5042,0,132,132,64,1,65,tiregzik,tiregzel,NA,NA,Te bizony sokat tiregzel.,Én is sokat...,tiregzek,tiregzem,lakik,-zik,2,PR2027,1999,férfi,nem,2022-04-08_17h45.57.124,hesp_baseline,2021.2.3,Win32,117.1508903
,,,,,,,,,,,,,,,,,spülűdzöm,spülűdzök,left,1.1369,0,133,133,56,1,57,spülűdzik,spülűdzöl,NA,NA,Te bizony sokat spülűdzöl.,Én is sokat...,spülűdzök,spülűdzöm,lakik,-zik,2,PR2027,1999,férfi,nem,2022-04-08_17h45.57.124,hesp_baseline,2021.2.3,Win32,117.1508903
,,,,,,,,,,,,,,,,,tögöznek,töglenek,left,1.3433,0,134,134,156,1,103,töglik / tögözik,"töglik, tögözni",nek,NA,"János imád tögözni, ezért sokat töglik.",Ők ritkán...,töglenek,tögöznek,cselekszik,-lik,1,PR2027,1999,férfi,nem,2022-04-08_17h45.57.124,hesp_baseline,2021.2.3,Win32,117.1508903
,,,,,,,,,,,,,,,,,plugzom,plugzok,left,1.3101,0,135,135,60,1,61,plugzik,plugzol,NA,NA,Te bizony sokat plugzol.,Én is sokat...,plugzok,plugzom,lakik,-zik,1,PR2027,1999,férfi,nem,2022-04-08_17h45.57.124,hesp_baseline,2021.2.3,Win32,117.1508903
,,,,,,,,,,,,,,,,,prazozunk,prazlunk,left,1.2271,0,136,136,119,1,66,prazlik / prazozik,"prazlik, prazozni",ünk,NA,"János imád prazozni, ezért sokat prazlik.",Mi ritkán...,prazlunk,prazozunk,cselekszik,-lik,1,PR2027,1999,férfi,nem,2022-04-08_17h45.57.124,hesp_baseline,2021.2.3,Win32,117.1508903
,,,,,,,,,,,,,,,,,kluhéjnél,kluhéjnál,left,0.9641,0,137,137,24,1,79,kluhéj,kluhéj,nál,é,Ez itt egy kluhéj.,Nincs is jobb egy jó...,kluhéjnél,kluhéjnál,dzsungel,NA,NA,PR2027,1999,férfi,nem,2022-04-08_17h45.57.124,hesp_baseline,2021.2.3,Win32,117.1508903
,,,,,,,,,,,,,,,,,dineltben,dineltban,left,4.7486,0,138,138,0,1,55,dinelt,dinelt,ban,e,Ez itt egy dinelt.,Ott vagyunk a...,dineltben,dineltban,dzsungel,NA,NA,PR2027,1999,férfi,nem,2022-04-08_17h45.57.124,hesp_baseline,2021.2.3,Win32,117.1508903
,,,,,,,,,,,,,,,,,prihegednek,prihegszenek,left,0.9385,0,139,139,155,1,102,prihegszik / prihegedik,"prihegszik, prihegedni",nek,NA,"János imád prihegedni, ezért sokat prihegszik.",Ők ritkán...,prihegszenek,prihegednek,cselekszik,-szik,2,PR2027,1999,férfi,nem,2022-04-08_17h45.57.124,hesp_baseline,2021.2.3,Win32,117.1508903
,,,,,,,,,,,,,,,,,branyoznak,branylanak,left,0.5216,0,140,140,136,1,83,branylik / branyozik,"branylik, branyozni",nek,NA,"János imád branyozni, ezért sokat branylik.",Ők ritkán...,branylanak,branyoznak,cselekszik,-lik,1,PR2027,1999,férfi,nem,2022-04-08_17h45.57.124,hesp_baseline,2021.2.3,Win32,117.1508903
,,,,,,,,,,,,,,,,,jábézban,jábézben,left,4.0281,0,141,141,34,1,89,jábéz,jábéz,ban,é,Ez itt egy jábéz.,Ott vagyunk a...,jábézben,jábézban,dzsungel,NA,NA,PR2027,1999,férfi,nem,2022-04-08_17h45.57.124,hesp_baseline,2021.2.3,Win32,117.1508903
,,,,,,,,,,,,,,,,,bingéjnak,bingéjnek,left,0.8513,0,142,142,49,1,104,bingéj,bingéj,nak,é,Ez itt egy bingéj.,Elneveztem a kutyámat...,bingéjnek,bingéjnak,dzsungel,NA,NA,PR2027,1999,férfi,nem,2022-04-08_17h45.57.124,hesp_baseline,2021.2.3,Win32,117.1508903
,,,,,,,,,,,,,,,,,ribegzek,ribegzem,left,1.0212,0,143,143,63,1,64,ribegzik,ribegzel,NA,NA,Te bizony sokat ribegzel.,Én is sokat...,ribegzek,ribegzem,lakik,-zik,2,PR2027,1999,férfi,nem,2022-04-08_17h45.57.124,hesp_baseline,2021.2.3,Win32,117.1508903
,,,,,,,,,,,,,,,,,spiharzotok,spiharoztok,left,0.6674,0,144,144,127,1,74,spiharzik / spiharozik,"spiharzik, spiharozni",tek,NA,"János imád spiharozni, ezért sokat spiharzik.",Ti ritkán...,spiharzotok,spiharoztok,cselekszik,-zik,2,PR2027,1999,férfi,nem,2022-04-08_17h45.57.124,hesp_baseline,2021.2.3,Win32,117.1508903
,,,,,,,,,,,,,,,,,tribejeztek,tribejletek,left,0.4369,0,145,145,132,1,79,tribejlik / tribejezik,"tribejlik, tribejezni",tek,NA,"János imád tribejezni, ezért sokat tribejlik.",Ti ritkán...,tribejletek,tribejeztek,cselekszik,-lik,2,PR2027,1999,férfi,nem,2022-04-08_17h45.57.124,hesp_baseline,2021.2.3,Win32,117.1508903
,,,,,,,,,,,,,,,,,nyametban,nyametben,left,0.4535,0,146,146,17,1,72,nyamet,nyamet,ban,e,Ez itt egy nyamet.,Ott vagyunk a...,nyametben,nyametban,dzsungel,NA,NA,PR2027,1999,férfi,nem,2022-04-08_17h45.57.124,hesp_baseline,2021.2.3,Win32,117.1508903
,,,,,,,,,,,,,,,,,jóbecnek,jóbecnak,left,0.2978,0,147,147,11,1,66,jóbec,jóbec,nak,e,Ez itt egy jóbec.,Elneveztem a kutyámat...,jóbecnek,jóbecnak,dzsungel,NA,NA,PR2027,1999,férfi,nem,2022-04-08_17h45.57.124,hesp_baseline,2021.2.3,Win32,117.1508903
,,,,,,,,,,,,,,,,,csíszlok,csíszlom,left,1.6446,0,148,148,84,1,85,csíszlik,csíszlasz,NA,NA,Te bizony sokat csíszlasz.,Én is sokat...,csíszlok,csíszlom,lakik,-lik,1,PR2027,1999,férfi,nem,2022-04-08_17h45.57.124,hesp_baseline,2021.2.3,Win32,117.1508903
,,,,,,,,,,,,,,,,,praslok,praslom,left,0.854,0,149,149,80,1,81,praslik,praslasz,NA,NA,Te bizony sokat praslasz.,Én is sokat...,praslok,praslom,lakik,-lik,1,PR2027,1999,férfi,nem,2022-04-08_17h45.57.124,hesp_baseline,2021.2.3,Win32,117.1508903
,,,,,,,,,,,,,,,,,lorjódzom,lorjódzok,right,0.8493,0,150,150,88,1,89,lorjódzik,lorjódzol,NA,NA,Te bizony sokat lorjódzol.,Én is sokat...,lorjódzok,lorjódzom,lakik,-zik,2,PR2027,1999,férfi,nem,2022-04-08_17h45.57.124,hesp_baseline,2021.2.3,Win32,117.1508903
,,,,,,,,,,,,,,,,,ítensban,ítensben,right,2.8674,0,151,151,50,1,105,ítens,ítens,ban,e,Ez itt egy ítens.,Ott vagyunk a...,ítensben,ítensban,dzsungel,NA,NA,PR2027,1999,férfi,nem,2022-04-08_17h45.57.124,hesp_baseline,2021.2.3,Win32,117.1508903
,,,,,,,,,,,,,,,,,spizecnek,spizecnak,left,1.4349,0,152,152,6,1,61,spizec,spizec,nak,e,Ez itt egy spizec.,Elneveztem a kutyámat...,spizecnek,spizecnak,dzsungel,NA,NA,PR2027,1999,férfi,nem,2022-04-08_17h45.57.124,hesp_baseline,2021.2.3,Win32,117.1508903
,,,,,,,,,,,,,,,,,prilepedünk,prilepszünk,left,4.5729,0,153,153,161,1,108,prilepszik / prilepedik,"prilepszik, prilepedni",ünk,NA,"János imád prilepedni, ezért sokat prilepszik.",Mi ritkán...,prilepszünk,prilepedünk,cselekszik,-szik,2,PR2027,1999,férfi,nem,2022-04-08_17h45.57.124,hesp_baseline,2021.2.3,Win32,117.1508903
,,,,,,,,,,,,,,,,,zutennél,zutennál,left,2.8324,0,154,154,43,1,98,zuten,zuten,nál,e,Ez itt egy zuten.,Nincs is jobb egy jó...,zutennél,zutennál,dzsungel,NA,NA,PR2027,1999,férfi,nem,2022-04-08_17h45.57.124,hesp_baseline,2021.2.3,Win32,117.1508903
,,,,,,,,,,,,,,,,,szűslöm,szűslök,right,1.4329,0,155,155,85,1,86,szűslik,szűslesz,NA,NA,Te bizony sokat szűslesz.,Én is sokat...,szűslök,szűslöm,lakik,-lik,1,PR2027,1999,férfi,nem,2022-04-08_17h45.57.124,hesp_baseline,2021.2.3,Win32,117.1508903
,,,,,,,,,,,,,,,,,metégednek,metégszenek,left,1.0146,0,156,156,112,1,59,metégszik / metégedik,"metégszik, metégedni",nek,NA,"János imád metégedni, ezért sokat metégszik.",Ők ritkán...,metégszenek,metégednek,cselekszik,-szik,2,PR2027,1999,férfi,nem,2022-04-08_17h45.57.124,hesp_baseline,2021.2.3,Win32,117.1508903
,,,,,,,,,,,,,,,,,míjzunk,míjozunk,left,0.8138,0,157,157,114,1,61,míjzik / míjozik,"míjzik, míjozni",ünk,NA,"János imád míjozni, ezért sokat míjzik.",Mi ritkán...,míjzunk,míjozunk,cselekszik,-zik,1,PR2027,1999,férfi,nem,2022-04-08_17h45.57.124,hesp_baseline,2021.2.3,Win32,117.1508903
,,,,,,,,,,,,,,,,,pítendben,pítendban,left,0.999,0,158,158,18,1,73,pítend,pítend,ban,e,Ez itt egy pítend.,Ott vagyunk a...,pítendben,pítendban,dzsungel,NA,NA,PR2027,1999,férfi,nem,2022-04-08_17h45.57.124,hesp_baseline,2021.2.3,Win32,117.1508903
,,,,,,,,,,,,,,,,,klazérban,klazérben,right,0.8603,0,159,159,51,1,106,klazér,klazér,ban,é,Ez itt egy klazér.,Ott vagyunk a...,klazérben,klazérban,dzsungel,NA,NA,PR2027,1999,férfi,nem,2022-04-08_17h45.57.124,hesp_baseline,2021.2.3,Win32,117.1508903
,,,,,,,,,,,,,,,,,nyürzenek,nyüröznek,left,1.1063,0,160,160,123,1,70,nyürzik / nyürözik,"nyürzik, nyürözni",nek,NA,"János imád nyürözni, ezért sokat nyürzik.",Ők ritkán...,nyürzenek,nyüröznek,cselekszik,-zik,1,PR2027,1999,férfi,nem,2022-04-08_17h45.57.124,hesp_baseline,2021.2.3,Win32,117.1508903
,,,,,,,,,,,,,,,,,zarcégnél,zarcégnál,left,4.3394,0,161,161,29,1,84,zarcég,zarcég,nál,é,Ez itt egy zarcég.,Nincs is jobb egy jó...,zarcégnél,zarcégnál,dzsungel,NA,NA,PR2027,1999,férfi,nem,2022-04-08_17h45.57.124,hesp_baseline,2021.2.3,Win32,117.1508903
