my_list,key.keys,key.rt,key_2.keys,key_2.rt,keyboard_input_2.keys,keyboard_input_2.rt,key_3.keys,key_3.rt,keyboard_input_3.keys,keyboard_input_3.rt,key_4.keys,key_4.rt,keyboard_input_4.keys,keyboard_input_4.rt,key_5.keys,key_5.rt,my_button1,my_button2,keyboard_input.keys,keyboard_input.rt,withinBlock.thisRepN,withinBlock.thisTrialN,withinBlock.thisN,withinBlock.thisIndex,withinBlock.ran,rowname,word,prompt,suffix,vowel,carrier_sentence,target_sentence,target1,target2,category,derivational,nsyl,Azonosító,Melyik évben születtél?,Mi a nemed?,Tanultál nyelvészetet?,date,expName,psychopyVersion,OS,frameRate
list2.csv,space,9.9734,space,5.7019,right,4.9539,space,10.9539,left,3.9101,space,6.4524,left,4.7458,space,10.7609,lírlanak,líroznak,right,7.4614,0,0,0,115,1,62,lírlik / lírozik,"lírlik, lírozni",nek,NA,"János imád lírozni, ezért sokat lírlik.",Ők ritkán...,lírlanak,líroznak,cselekszik,-lik,1,PR2049,1990,nő,nem,2022-04-13_16h12.16.801,hesp_baseline,2021.2.3,Win32,58.61664713
,,,,,,,,,,,,,,,,,ruslom,ruslok,right,8.0943,0,1,1,83,1,84,ruslik,ruslasz,NA,NA,Te bizony sokat ruslasz.,Én is sokat...,ruslok,ruslom,lakik,-lik,1,PR2049,1990,nő,nem,2022-04-13_16h12.16.801,hesp_baseline,2021.2.3,Win32,58.61664713
,,,,,,,,,,,,,,,,,sprízemnál,sprízemnél,right,6.0465,0,2,2,22,1,77,sprízem,sprízem,nál,e,Ez itt egy sprízem.,Nincs is jobb egy jó...,sprízemnél,sprízemnál,dzsungel,NA,NA,PR2049,1990,nő,nem,2022-04-13_16h12.16.801,hesp_baseline,2021.2.3,Win32,58.61664713
,,,,,,,,,,,,,,,,,fréslünk,frésezünk,left,6.6578,0,3,3,138,1,85,fréslik / frésezik,"fréslik, frésezni",ünk,NA,"János imád frésezni, ezért sokat fréslik.",Mi ritkán...,fréslünk,frésezünk,cselekszik,-lik,1,PR2049,1990,nő,nem,2022-04-13_16h12.16.801,hesp_baseline,2021.2.3,Win32,58.61664713
,,,,,,,,,,,,,,,,,tiregzem,tiregzek,left,4.6122,0,4,4,64,1,65,tiregzik,tiregzel,NA,NA,Te bizony sokat tiregzel.,Én is sokat...,tiregzek,tiregzem,lakik,-zik,2,PR2049,1990,nő,nem,2022-04-13_16h12.16.801,hesp_baseline,2021.2.3,Win32,58.61664713
,,,,,,,,,,,,,,,,,sprogzok,sprogzom,right,2.8205,0,5,5,89,1,90,sprogzik,sprogzol,NA,NA,Te bizony sokat sprogzol.,Én is sokat...,sprogzok,sprogzom,lakik,-zik,1,PR2049,1990,nő,nem,2022-04-13_16h12.16.801,hesp_baseline,2021.2.3,Win32,58.61664713
,,,,,,,,,,,,,,,,,frálaslanak,frálasoznak,left,7.7111,0,6,6,110,1,57,frálaslik / frálasozik,"frálaslik, frálasozni",nek,NA,"János imád frálasozni, ezért sokat frálaslik.",Ők ritkán...,frálaslanak,frálasoznak,cselekszik,-lik,2,PR2049,1990,nő,nem,2022-04-13_16h12.16.801,hesp_baseline,2021.2.3,Win32,58.61664713
,,,,,,,,,,,,,,,,,ronvetnek,ronvetnak,left,4.1417,0,7,7,9,1,64,ronvet,ronvet,nak,e,Ez itt egy ronvet.,Elneveztem a kutyámat...,ronvetnek,ronvetnak,dzsungel,NA,NA,PR2049,1990,nő,nem,2022-04-13_16h12.16.801,hesp_baseline,2021.2.3,Win32,58.61664713
,,,,,,,,,,,,,,,,,spöközünk,spöklünk,right,5.6113,0,8,8,130,1,77,spöklik / spöközik,"spöklik, spöközni",ünk,NA,"János imád spöközni, ezért sokat spöklik.",Mi ritkán...,spöklünk,spöközünk,cselekszik,-lik,1,PR2049,1990,nő,nem,2022-04-13_16h12.16.801,hesp_baseline,2021.2.3,Win32,58.61664713
,,,,,,,,,,,,,,,,,cságyeltben,cságyeltban,left,5.6025,0,9,9,10,1,65,cságyelt,cságyelt,ban,e,Ez itt egy cságyelt.,Ott vagyunk a...,cságyeltben,cságyeltban,dzsungel,NA,NA,PR2049,1990,nő,nem,2022-04-13_16h12.16.801,hesp_baseline,2021.2.3,Win32,58.61664713
,,,,,,,,,,,,,,,,,trigencnak,trigencnek,right,3.9698,0,10,10,31,1,86,trigenc,trigenc,nak,e,Ez itt egy trigenc.,Elneveztem a kutyámat...,trigencnek,trigencnak,dzsungel,NA,NA,PR2049,1990,nő,nem,2022-04-13_16h12.16.801,hesp_baseline,2021.2.3,Win32,58.61664713
,,,,,,,,,,,,,,,,,trírzunk,trírozunk,left,5.3843,0,11,11,116,1,63,trírzik / trírozik,"trírzik, trírozni",ünk,NA,"János imád trírozni, ezért sokat trírzik.",Mi ritkán...,trírzunk,trírozunk,cselekszik,-zik,1,PR2049,1990,nő,nem,2022-04-13_16h12.16.801,hesp_baseline,2021.2.3,Win32,58.61664713
,,,,,,,,,,,,,,,,,pratelynek,pratelynak,left,5.402,0,12,12,47,1,102,prately,prately,nak,e,Ez itt egy prately.,Elneveztem a kutyámat...,pratelynek,pratelynak,dzsungel,NA,NA,PR2049,1990,nő,nem,2022-04-13_16h12.16.801,hesp_baseline,2021.2.3,Win32,58.61664713
,,,,,,,,,,,,,,,,,prilepedünk,prilepszünk,left,10.1909,0,13,13,161,1,108,prilepszik / prilepedik,"prilepszik, prilepedni",ünk,NA,"János imád prilepedni, ezért sokat prilepszik.",Mi ritkán...,prilepszünk,prilepedünk,cselekszik,-szik,2,PR2049,1990,nő,nem,2022-04-13_16h12.16.801,hesp_baseline,2021.2.3,Win32,58.61664713
,,,,,,,,,,,,,,,,,plugzok,plugzom,right,20.7388,0,14,14,60,1,61,plugzik,plugzol,NA,NA,Te bizony sokat plugzol.,Én is sokat...,plugzok,plugzom,lakik,-zik,1,PR2049,1990,nő,nem,2022-04-13_16h12.16.801,hesp_baseline,2021.2.3,Win32,58.61664713
,,,,,,,,,,,,,,,,,navecban,navecben,right,4.3985,0,15,15,8,1,63,navec,navec,ban,e,Ez itt egy navec.,Ott vagyunk a...,navecben,navecban,dzsungel,NA,NA,PR2049,1990,nő,nem,2022-04-13_16h12.16.801,hesp_baseline,2021.2.3,Win32,58.61664713
,,,,,,,,,,,,,,,,,csimennál,csimennél,right,5.023,0,16,16,44,1,99,csimen,csimen,nál,e,Ez itt egy csimen.,Nincs is jobb egy jó...,csimennél,csimennál,dzsungel,NA,NA,PR2049,1990,nő,nem,2022-04-13_16h12.16.801,hesp_baseline,2021.2.3,Win32,58.61664713
,,,,,,,,,,,,,,,,,szirlom,szirlok,right,5.412,0,17,17,62,1,63,szirlik,szirlasz,NA,NA,Te bizony sokat szirlasz.,Én is sokat...,szirlok,szirlom,lakik,-lik,1,PR2049,1990,nő,nem,2022-04-13_16h12.16.801,hesp_baseline,2021.2.3,Win32,58.61664713
,,,,,,,,,,,,,,,,,sprigzotok,sprigoztok,right,6.5343,0,18,18,129,1,76,sprigzik / sprigozik,"sprigzik, sprigozni",tek,NA,"János imád sprigozni, ezért sokat sprigzik.",Ti ritkán...,sprigzotok,sprigoztok,cselekszik,-zik,1,PR2049,1990,nő,nem,2022-04-13_16h12.16.801,hesp_baseline,2021.2.3,Win32,58.61664713
,,,,,,,,,,,,,,,,,spihegzek,spihegzem,right,4.642,0,19,19,81,1,82,spihegzik,spihegzel,NA,NA,Te bizony sokat spihegzel.,Én is sokat...,spihegzek,spihegzem,lakik,-zik,2,PR2049,1990,nő,nem,2022-04-13_16h12.16.801,hesp_baseline,2021.2.3,Win32,58.61664713
,,,,,,,,,,,,,,,,,játlunk,játozunk,left,5.1566,0,20,20,145,1,92,játlik / játozik,"játlik, játozni",ünk,NA,"János imád játozni, ezért sokat játlik.",Mi ritkán...,játlunk,játozunk,cselekszik,-lik,1,PR2049,1990,nő,nem,2022-04-13_16h12.16.801,hesp_baseline,2021.2.3,Win32,58.61664713
,,,,,,,,,,,,,,,,,klűmlötök,klűmöztök,left,5.3396,0,21,21,108,1,55,klűmlik / klűmözik,"klűmlik, klűmözni",tek,NA,"János imád klűmözni, ezért sokat klűmlik.",Ti ritkán...,klűmlötök,klűmöztök,cselekszik,-lik,1,PR2049,1990,nő,nem,2022-04-13_16h12.16.801,hesp_baseline,2021.2.3,Win32,58.61664713
,,,,,,,,,,,,,,,,,prihegszenek,prihegednek,right,4.5006,0,22,22,155,1,102,prihegszik / prihegedik,"prihegszik, prihegedni",nek,NA,"János imád prihegedni, ezért sokat prihegszik.",Ők ritkán...,prihegszenek,prihegednek,cselekszik,-szik,2,PR2049,1990,nő,nem,2022-04-13_16h12.16.801,hesp_baseline,2021.2.3,Win32,58.61664713
,,,,,,,,,,,,,,,,,dineltben,dineltban,left,4.6344,0,23,23,0,1,55,dinelt,dinelt,ban,e,Ez itt egy dinelt.,Ott vagyunk a...,dineltben,dineltban,dzsungel,NA,NA,PR2049,1990,nő,nem,2022-04-13_16h12.16.801,hesp_baseline,2021.2.3,Win32,58.61664713
,,,,,,,,,,,,,,,,,pratánylom,pratánylok,left,3.4731,0,24,24,95,1,96,pratánylik,pratánylasz,NA,NA,Te bizony sokat pratánylasz.,Én is sokat...,pratánylok,pratánylom,lakik,-lik,2,PR2049,1990,nő,nem,2022-04-13_16h12.16.801,hesp_baseline,2021.2.3,Win32,58.61664713
,,,,,,,,,,,,,,,,,szűslök,szűslöm,left,4.677,0,25,25,85,1,86,szűslik,szűslesz,NA,NA,Te bizony sokat szűslesz.,Én is sokat...,szűslök,szűslöm,lakik,-lik,1,PR2049,1990,nő,nem,2022-04-13_16h12.16.801,hesp_baseline,2021.2.3,Win32,58.61664713
,,,,,,,,,,,,,,,,,nurokozunk,nuroklunk,right,4.6166,0,26,26,131,1,78,nuroklik / nurokozik,"nuroklik, nurokozni",ünk,NA,"János imád nurokozni, ezért sokat nuroklik.",Mi ritkán...,nuroklunk,nurokozunk,cselekszik,-lik,2,PR2049,1990,nő,nem,2022-04-13_16h12.16.801,hesp_baseline,2021.2.3,Win32,58.61664713
,,,,,,,,,,,,,,,,,spizecnek,spizecnak,left,3.8101,0,27,27,6,1,61,spizec,spizec,nak,e,Ez itt egy spizec.,Elneveztem a kutyámat...,spizecnek,spizecnak,dzsungel,NA,NA,PR2049,1990,nő,nem,2022-04-13_16h12.16.801,hesp_baseline,2021.2.3,Win32,58.61664713
,,,,,,,,,,,,,,,,,trugoznak,trugzanak,right,4.3588,0,28,28,146,1,93,trugzik / trugozik,"trugzik, trugozni",nek,NA,"János imád trugozni, ezért sokat trugzik.",Ők ritkán...,trugzanak,trugoznak,cselekszik,-zik,1,PR2049,1990,nő,nem,2022-04-13_16h12.16.801,hesp_baseline,2021.2.3,Win32,58.61664713
,,,,,,,,,,,,,,,,,bivégszem,bivégszek,left,4.4585,0,29,29,68,1,69,bivégszik,bivégszel,NA,NA,Te bizony sokat bivégszel.,Én is sokat...,bivégszek,bivégszem,lakik,-szik,2,PR2049,1990,nő,nem,2022-04-13_16h12.16.801,hesp_baseline,2021.2.3,Win32,58.61664713
,,,,,,,,,,,,,,,,,figlok,figlom,right,4.189,0,30,30,75,1,76,figlik,figlasz,NA,NA,Te bizony sokat figlasz.,Én is sokat...,figlok,figlom,lakik,-lik,1,PR2049,1990,nő,nem,2022-04-13_16h12.16.801,hesp_baseline,2021.2.3,Win32,58.61664713
,,,,,,,,,,,,,,,,,nyöböznek,nyöbzenek,left,10.1862,0,31,31,152,1,99,nyöbzik / nyöbözik,"nyöbzik, nyöbözni",nek,NA,"János imád nyöbözni, ezért sokat nyöbzik.",Ők ritkán...,nyöbzenek,nyöböznek,cselekszik,-zik,1,PR2049,1990,nő,nem,2022-04-13_16h12.16.801,hesp_baseline,2021.2.3,Win32,58.61664713
,,,,,,,,,,,,,,,,,sprűrlenek,sprűröznek,right,9.8115,0,32,32,135,1,82,sprűrlik / sprűrözik,"sprűrlik, sprűrözni",nek,NA,"János imád sprűrözni, ezért sokat sprűrlik.",Ők ritkán...,sprűrlenek,sprűröznek,cselekszik,-lik,1,PR2049,1990,nő,nem,2022-04-13_16h12.16.801,hesp_baseline,2021.2.3,Win32,58.61664713
,,,,,,,,,,,,,,,,,spátennak,spátennek,left,4.7808,0,33,33,33,1,88,spáten,spáten,nak,e,Ez itt egy spáten.,Elneveztem a kutyámat...,spátennek,spátennak,dzsungel,NA,NA,PR2049,1990,nő,nem,2022-04-13_16h12.16.801,hesp_baseline,2021.2.3,Win32,58.61664713
,,,,,,,,,,,,,,,,,nűröklöm,nűröklök,left,3.2597,0,34,34,106,1,107,nűröklik,nűröklesz,NA,NA,Te bizony sokat nűröklesz.,Én is sokat...,nűröklök,nűröklöm,lakik,-lik,2,PR2049,1990,nő,nem,2022-04-13_16h12.16.801,hesp_baseline,2021.2.3,Win32,58.61664713
,,,,,,,,,,,,,,,,,pivegszek,pivegszem,right,4.1139,0,35,35,99,1,100,pivegszik,pivegszel,NA,NA,Te bizony sokat pivegszel.,Én is sokat...,pivegszek,pivegszem,lakik,-szik,2,PR2049,1990,nő,nem,2022-04-13_16h12.16.801,hesp_baseline,2021.2.3,Win32,58.61664713
,,,,,,,,,,,,,,,,,dihelynek,dihelynak,left,3.6609,0,36,36,20,1,75,dihely,dihely,nak,e,Ez itt egy dihely.,Elneveztem a kutyámat...,dihelynek,dihelynak,dzsungel,NA,NA,PR2049,1990,nő,nem,2022-04-13_16h12.16.801,hesp_baseline,2021.2.3,Win32,58.61664713
,,,,,,,,,,,,,,,,,spivélnak,spivélnek,right,3.2421,0,37,37,27,1,82,spivél,spivél,nak,é,Ez itt egy spivél.,Elneveztem a kutyámat...,spivélnek,spivélnak,dzsungel,NA,NA,PR2049,1990,nő,nem,2022-04-13_16h12.16.801,hesp_baseline,2021.2.3,Win32,58.61664713
,,,,,,,,,,,,,,,,,flitlom,flitlok,right,4.2488,0,38,38,90,1,91,flitlik,flitlasz,NA,NA,Te bizony sokat flitlasz.,Én is sokat...,flitlok,flitlom,lakik,-lik,1,PR2049,1990,nő,nem,2022-04-13_16h12.16.801,hesp_baseline,2021.2.3,Win32,58.61664713
,,,,,,,,,,,,,,,,,huroslom,huroslok,left,3.5769,0,39,39,76,1,77,huroslik,huroslasz,NA,NA,Te bizony sokat huroslasz.,Én is sokat...,huroslok,huroslom,lakik,-lik,2,PR2049,1990,nő,nem,2022-04-13_16h12.16.801,hesp_baseline,2021.2.3,Win32,58.61664713
,,,,,,,,,,,,,,,,,kátédnél,kátédnál,left,4.736,0,40,40,37,1,92,kátéd,kátéd,nál,é,Ez itt egy kátéd.,Nincs is jobb egy jó...,kátédnél,kátédnál,dzsungel,NA,NA,PR2049,1990,nő,nem,2022-04-13_16h12.16.801,hesp_baseline,2021.2.3,Win32,58.61664713
,,,,,,,,,,,,,,,,,flubokoztok,fluboklotok,left,3.8433,0,41,41,151,1,98,fluboklik / flubokozik,"fluboklik, flubokozni",tek,NA,"János imád flubokozni, ezért sokat fluboklik.",Ti ritkán...,fluboklotok,flubokoztok,cselekszik,-lik,2,PR2049,1990,nő,nem,2022-04-13_16h12.16.801,hesp_baseline,2021.2.3,Win32,58.61664713
,,,,,,,,,,,,,,,,,juszlok,juszlom,left,2.7413,0,42,42,79,1,80,juszlik,juszlasz,NA,NA,Te bizony sokat juszlasz.,Én is sokat...,juszlok,juszlom,lakik,-lik,1,PR2049,1990,nő,nem,2022-04-13_16h12.16.801,hesp_baseline,2021.2.3,Win32,58.61664713
,,,,,,,,,,,,,,,,,gihamlanak,gihamoznak,left,3.6713,0,43,43,133,1,80,gihamlik / gihamozik,"gihamlik, gihamozni",nek,NA,"János imád gihamozni, ezért sokat gihamlik.",Ők ritkán...,gihamlanak,gihamoznak,cselekszik,-lik,2,PR2049,1990,nő,nem,2022-04-13_16h12.16.801,hesp_baseline,2021.2.3,Win32,58.61664713
,,,,,,,,,,,,,,,,,klidlok,klidlom,left,2.5697,0,44,44,72,1,73,klidlik,klidlasz,NA,NA,Te bizony sokat klidlasz.,Én is sokat...,klidlok,klidlom,lakik,-lik,1,PR2049,1990,nő,nem,2022-04-13_16h12.16.801,hesp_baseline,2021.2.3,Win32,58.61664713
,,,,,,,,,,,,,,,,,töglenek,tögöznek,left,4.1662,0,45,45,156,1,103,töglik / tögözik,"töglik, tögözni",nek,NA,"János imád tögözni, ezért sokat töglik.",Ők ritkán...,töglenek,tögöznek,cselekszik,-lik,1,PR2049,1990,nő,nem,2022-04-13_16h12.16.801,hesp_baseline,2021.2.3,Win32,58.61664713
,,,,,,,,,,,,,,,,,júdernak,júdernek,left,2.9856,0,46,46,53,1,108,júder,júder,nak,e,Ez itt egy júder.,Elneveztem a kutyámat...,júdernek,júdernak,dzsungel,NA,NA,PR2049,1990,nő,nem,2022-04-13_16h12.16.801,hesp_baseline,2021.2.3,Win32,58.61664713
,,,,,,,,,,,,,,,,,flibekszek,flibekszem,left,4.0956,0,47,47,93,1,94,flibekszik,flibekszel,NA,NA,Te bizony sokat flibekszel.,Én is sokat...,flibekszek,flibekszem,lakik,-szik,2,PR2049,1990,nő,nem,2022-04-13_16h12.16.801,hesp_baseline,2021.2.3,Win32,58.61664713
,,,,,,,,,,,,,,,,,tumélynál,tumélynél,left,3.711,0,48,48,28,1,83,tumély,tumély,nál,é,Ez itt egy tumély.,Nincs is jobb egy jó...,tumélynél,tumélynál,dzsungel,NA,NA,PR2049,1990,nő,nem,2022-04-13_16h12.16.801,hesp_baseline,2021.2.3,Win32,58.61664713
,,,,,,,,,,,,,,,,,flodlotok,flodoztok,left,20.33,0,49,49,144,1,91,flodlik / flodozik,"flodlik, flodozni",tek,NA,"János imád flodozni, ezért sokat flodlik.",Ti ritkán...,flodlotok,flodoztok,cselekszik,-lik,1,PR2049,1990,nő,nem,2022-04-13_16h12.16.801,hesp_baseline,2021.2.3,Win32,58.61664713
,,,,,,,,,,,,,,,,,fröjzötök,fröjöztök,left,9.7363,0,50,50,153,1,100,fröjzik / fröjözik,"fröjzik, fröjözni",tek,NA,"János imád fröjözni, ezért sokat fröjzik.",Ti ritkán...,fröjzötök,fröjöztök,cselekszik,-zik,1,PR2049,1990,nő,nem,2022-04-13_16h12.16.801,hesp_baseline,2021.2.3,Win32,58.61664713
,,,,,,,,,,,,,,,,,kalrézben,kalrézban,left,4.6514,0,51,51,16,1,71,kalréz,kalréz,ban,é,Ez itt egy kalréz.,Ott vagyunk a...,kalrézben,kalrézban,dzsungel,NA,NA,PR2049,1990,nő,nem,2022-04-13_16h12.16.801,hesp_baseline,2021.2.3,Win32,58.61664713
,,,,,,,,,,,,,,,,,sprebzenek,sprebeznek,left,7.0591,0,52,52,139,1,86,sprebzik / sprebezik,"sprebzik, sprebezni",nek,NA,"János imád sprebezni, ezért sokat sprebzik.",Ők ritkán...,sprebzenek,sprebeznek,cselekszik,-zik,1,PR2049,1990,nő,nem,2022-04-13_16h12.16.801,hesp_baseline,2021.2.3,Win32,58.61664713
,,,,,,,,,,,,,,,,,brágédnek,brágédnak,right,3.1676,0,53,53,45,1,100,brágéd,brágéd,nak,é,Ez itt egy brágéd.,Elneveztem a kutyámat...,brágédnek,brágédnak,dzsungel,NA,NA,PR2049,1990,nő,nem,2022-04-13_16h12.16.801,hesp_baseline,2021.2.3,Win32,58.61664713
,,,,,,,,,,,,,,,,,brivegzek,brivegzem,left,2.8647,0,54,54,70,1,71,brivegzik,brivegzel,NA,NA,Te bizony sokat brivegzel.,Én is sokat...,brivegzek,brivegzem,lakik,-zik,2,PR2049,1990,nő,nem,2022-04-13_16h12.16.801,hesp_baseline,2021.2.3,Win32,58.61664713
,,,,,,,,,,,,,,,,,metégednek,metégszenek,right,6.2163,0,55,55,112,1,59,metégszik / metégedik,"metégszik, metégedni",nek,NA,"János imád metégedni, ezért sokat metégszik.",Ők ritkán...,metégszenek,metégednek,cselekszik,-szik,2,PR2049,1990,nő,nem,2022-04-13_16h12.16.801,hesp_baseline,2021.2.3,Win32,58.61664713
,,,,,,,,,,,,,,,,,nidétban,nidétben,right,3.6914,0,56,56,39,1,94,nidét,nidét,ban,é,Ez itt egy nidét.,Ott vagyunk a...,nidétben,nidétban,dzsungel,NA,NA,PR2049,1990,nő,nem,2022-04-13_16h12.16.801,hesp_baseline,2021.2.3,Win32,58.61664713
,,,,,,,,,,,,,,,,,driládzok,driládzom,left,4.4537,0,57,57,67,1,68,driládzik,driládzol,NA,NA,Te bizony sokat driládzol.,Én is sokat...,driládzok,driládzom,lakik,-zik,2,PR2049,1990,nő,nem,2022-04-13_16h12.16.801,hesp_baseline,2021.2.3,Win32,58.61664713
,,,,,,,,,,,,,,,,,lijeznek,lijeznak,left,2.2054,0,58,58,40,1,95,lijez,lijez,nak,e,Ez itt egy lijez.,Elneveztem a kutyámat...,lijeznek,lijeznak,dzsungel,NA,NA,PR2049,1990,nő,nem,2022-04-13_16h12.16.801,hesp_baseline,2021.2.3,Win32,58.61664713
,,,,,,,,,,,,,,,,,bribékedtek,bribékszetek,left,4.3574,0,59,59,141,1,88,bribékszik / bribékedik,"bribékszik, bribékedni",tek,NA,"János imád bribékedni, ezért sokat bribékszik.",Ti ritkán...,bribékszetek,bribékedtek,cselekszik,-szik,2,PR2049,1990,nő,nem,2022-04-13_16h12.16.801,hesp_baseline,2021.2.3,Win32,58.61664713
,,,,,,,,,,,,,,,,,sponylanak,sponyoznak,left,3.8932,0,60,60,125,1,72,sponylik / sponyozik,"sponylik, sponyozni",nek,NA,"János imád sponyozni, ezért sokat sponylik.",Ők ritkán...,sponylanak,sponyoznak,cselekszik,-lik,1,PR2049,1990,nő,nem,2022-04-13_16h12.16.801,hesp_baseline,2021.2.3,Win32,58.61664713
,,,,,,,,,,,,,,,,,tranékben,tranékban,right,2.4321,0,61,61,2,1,57,tranék,tranék,ban,é,Ez itt egy tranék.,Ott vagyunk a...,tranékben,tranékban,dzsungel,NA,NA,PR2049,1990,nő,nem,2022-04-13_16h12.16.801,hesp_baseline,2021.2.3,Win32,58.61664713
,,,,,,,,,,,,,,,,,flehékszem,flehékszek,left,4.3704,0,62,62,77,1,78,flehékszik,flehékszel,NA,NA,Te bizony sokat flehékszel.,Én is sokat...,flehékszek,flehékszem,lakik,-szik,2,PR2049,1990,nő,nem,2022-04-13_16h12.16.801,hesp_baseline,2021.2.3,Win32,58.61664713
,,,,,,,,,,,,,,,,,hákodnak,hákszanak,right,3.8644,0,63,63,150,1,97,hákszik / hákodik,"hákszik, hákodni",nek,NA,"János imád hákodni, ezért sokat hákszik.",Ők ritkán...,hákszanak,hákodnak,cselekszik,-szik,1,PR2049,1990,nő,nem,2022-04-13_16h12.16.801,hesp_baseline,2021.2.3,Win32,58.61664713
,,,,,,,,,,,,,,,,,sortemnél,sortemnál,left,5.1394,0,64,64,15,1,70,sortem,sortem,nál,e,Ez itt egy sortem.,Nincs is jobb egy jó...,sortemnél,sortemnál,dzsungel,NA,NA,PR2049,1990,nő,nem,2022-04-13_16h12.16.801,hesp_baseline,2021.2.3,Win32,58.61664713
,,,,,,,,,,,,,,,,,klazérban,klazérben,left,12.4093,0,65,65,51,1,106,klazér,klazér,ban,é,Ez itt egy klazér.,Ott vagyunk a...,klazérben,klazérban,dzsungel,NA,NA,PR2049,1990,nő,nem,2022-04-13_16h12.16.801,hesp_baseline,2021.2.3,Win32,58.61664713
,,,,,,,,,,,,,,,,,klajrénnek,klajrénnak,right,5.7674,0,66,66,41,1,96,klajrén,klajrén,nak,é,Ez itt egy klajrén.,Elneveztem a kutyámat...,klajrénnek,klajrénnak,dzsungel,NA,NA,PR2049,1990,nő,nem,2022-04-13_16h12.16.801,hesp_baseline,2021.2.3,Win32,58.61664713
,,,,,,,,,,,,,,,,,spáraklom,spáraklok,right,0.7173,0,67,67,96,1,97,spáraklik,spáraklasz,NA,NA,Te bizony sokat spáraklasz.,Én is sokat...,spáraklok,spáraklom,lakik,-lik,2,PR2049,1990,nő,nem,2022-04-13_16h12.16.801,hesp_baseline,2021.2.3,Win32,58.61664713
,,,,,,,,,,,,,,,,,flüröslöm,flüröslök,left,3.1943,0,68,68,87,1,88,flüröslik,flüröslesz,NA,NA,Te bizony sokat flüröslesz.,Én is sokat...,flüröslök,flüröslöm,lakik,-lik,2,PR2049,1990,nő,nem,2022-04-13_16h12.16.801,hesp_baseline,2021.2.3,Win32,58.61664713
,,,,,,,,,,,,,,,,,flűgözünk,flűgzünk,right,3.1376,0,69,69,160,1,107,flűgzik / flűgözik,"flűgzik, flűgözni",ünk,NA,"János imád flűgözni, ezért sokat flűgzik.",Mi ritkán...,flűgzünk,flűgözünk,cselekszik,-zik,1,PR2049,1990,nő,nem,2022-04-13_16h12.16.801,hesp_baseline,2021.2.3,Win32,58.61664713
,,,,,,,,,,,,,,,,,fájézban,fájézben,left,2.691,0,70,70,7,1,62,fájéz,fájéz,ban,é,Ez itt egy fájéz.,Ott vagyunk a...,fájézben,fájézban,dzsungel,NA,NA,PR2049,1990,nő,nem,2022-04-13_16h12.16.801,hesp_baseline,2021.2.3,Win32,58.61664713
,,,,,,,,,,,,,,,,,fojlegynek,fojlegynak,left,3.1215,0,71,71,3,1,58,fojlegy,fojlegy,nak,e,Ez itt egy fojlegy.,Elneveztem a kutyámat...,fojlegynek,fojlegynak,dzsungel,NA,NA,PR2049,1990,nő,nem,2022-04-13_16h12.16.801,hesp_baseline,2021.2.3,Win32,58.61664713
,,,,,,,,,,,,,,,,,prazlunk,prazozunk,right,2.9701,0,72,72,119,1,66,prazlik / prazozik,"prazlik, prazozni",ünk,NA,"János imád prazozni, ezért sokat prazlik.",Mi ritkán...,prazlunk,prazozunk,cselekszik,-lik,1,PR2049,1990,nő,nem,2022-04-13_16h12.16.801,hesp_baseline,2021.2.3,Win32,58.61664713
,,,,,,,,,,,,,,,,,flátszok,flátszom,left,2.2664,0,73,73,98,1,99,flátszik,flátszol,NA,NA,Te bizony sokat flátszol.,Én is sokat...,flátszok,flátszom,lakik,-szik,1,PR2049,1990,nő,nem,2022-04-13_16h12.16.801,hesp_baseline,2021.2.3,Win32,58.61664713
,,,,,,,,,,,,,,,,,péleslem,péleslek,right,3.1406,0,74,74,73,1,74,péleslik,péleslesz,NA,NA,Te bizony sokat péleslesz.,Én is sokat...,péleslek,péleslem,lakik,-lik,2,PR2049,1990,nő,nem,2022-04-13_16h12.16.801,hesp_baseline,2021.2.3,Win32,58.61664713
,,,,,,,,,,,,,,,,,dingecnek,dingecnak,left,2.9804,0,75,75,42,1,97,dingec,dingec,nak,e,Ez itt egy dingec.,Elneveztem a kutyámat...,dingecnek,dingecnak,dzsungel,NA,NA,PR2049,1990,nő,nem,2022-04-13_16h12.16.801,hesp_baseline,2021.2.3,Win32,58.61664713
,,,,,,,,,,,,,,,,,femlem,femlek,right,2.8861,0,76,76,57,1,58,femlik,femlesz,NA,NA,Te bizony sokat femlesz.,Én is sokat...,femlek,femlem,lakik,-lik,1,PR2049,1990,nő,nem,2022-04-13_16h12.16.801,hesp_baseline,2021.2.3,Win32,58.61664713
,,,,,,,,,,,,,,,,,kluzoztok,kluzlotok,left,4.0947,0,77,77,148,1,95,kluzlik / kluzozik,"kluzlik, kluzozni",tek,NA,"János imád kluzozni, ezért sokat kluzlik.",Ti ritkán...,kluzlotok,kluzoztok,cselekszik,-lik,1,PR2049,1990,nő,nem,2022-04-13_16h12.16.801,hesp_baseline,2021.2.3,Win32,58.61664713
,,,,,,,,,,,,,,,,,rapszeknál,rapszeknél,left,2.5033,0,78,78,35,1,90,rapszek,rapszek,nál,e,Ez itt egy rapszek.,Nincs is jobb egy jó...,rapszeknél,rapszeknál,dzsungel,NA,NA,PR2049,1990,nő,nem,2022-04-13_16h12.16.801,hesp_baseline,2021.2.3,Win32,58.61664713
,,,,,,,,,,,,,,,,,flűmlöm,flűmlök,left,2.1809,0,79,79,54,1,55,flűmlik,flűmlesz,NA,NA,Te bizony sokat flűmlesz.,Én is sokat...,flűmlök,flűmlöm,lakik,-lik,1,PR2049,1990,nő,nem,2022-04-13_16h12.16.801,hesp_baseline,2021.2.3,Win32,58.61664713
,,,,,,,,,,,,,,,,,sojzom,sojzok,right,2.643,0,80,80,74,1,75,sojzik,sojzol,NA,NA,Te bizony sokat sojzol.,Én is sokat...,sojzok,sojzom,lakik,-zik,1,PR2049,1990,nő,nem,2022-04-13_16h12.16.801,hesp_baseline,2021.2.3,Win32,58.61664713
,,,,,,,,,,,,,,,,,flerékedünk,flerékszünk,left,2.5456,0,81,81,159,1,106,flerékszik / flerékedik,"flerékszik, flerékedni",ünk,NA,"János imád flerékedni, ezért sokat flerékszik.",Mi ritkán...,flerékszünk,flerékedünk,cselekszik,-szik,2,PR2049,1990,nő,nem,2022-04-13_16h12.16.801,hesp_baseline,2021.2.3,Win32,58.61664713
,,,,,,,,,,,,,,,,,lihadzok,lihadzom,left,2.7623,0,82,82,101,1,102,lihadzik,lihadzol,NA,NA,Te bizony sokat lihadzol.,Én is sokat...,lihadzok,lihadzom,lakik,-zik,2,PR2049,1990,nő,nem,2022-04-13_16h12.16.801,hesp_baseline,2021.2.3,Win32,58.61664713
,,,,,,,,,,,,,,,,,flézletek,flézeztek,right,3.0379,0,83,83,134,1,81,flézlik / flézezik,"flézlik, flézezni",tek,NA,"János imád flézezni, ezért sokat flézlik.",Ti ritkán...,flézletek,flézeztek,cselekszik,-lik,1,PR2049,1990,nő,nem,2022-04-13_16h12.16.801,hesp_baseline,2021.2.3,Win32,58.61664713
,,,,,,,,,,,,,,,,,mihágzotok,mihágoztok,right,4.8499,0,84,84,118,1,65,mihágzik / mihágozik,"mihágzik, mihágozni",tek,NA,"János imád mihágozni, ezért sokat mihágzik.",Ti ritkán...,mihágzotok,mihágoztok,cselekszik,-zik,2,PR2049,1990,nő,nem,2022-04-13_16h12.16.801,hesp_baseline,2021.2.3,Win32,58.61664713
,,,,,,,,,,,,,,,,,fivénylek,fivénylem,right,2.8313,0,85,85,78,1,79,fivénylik,fivénylesz,NA,NA,Te bizony sokat fivénylesz.,Én is sokat...,fivénylek,fivénylem,lakik,-lik,2,PR2049,1990,nő,nem,2022-04-13_16h12.16.801,hesp_baseline,2021.2.3,Win32,58.61664713
,,,,,,,,,,,,,,,,,csubozunk,csubzunk,right,4.4246,0,86,86,111,1,58,csubzik / csubozik,"csubzik, csubozni",ünk,NA,"János imád csubozni, ezért sokat csubzik.",Mi ritkán...,csubzunk,csubozunk,cselekszik,-zik,1,PR2049,1990,nő,nem,2022-04-13_16h12.16.801,hesp_baseline,2021.2.3,Win32,58.61664713
,,,,,,,,,,,,,,,,,nyádlanak,nyádoznak,left,3.2917,0,87,87,120,1,67,nyádlik / nyádozik,"nyádlik, nyádozni",nek,NA,"János imád nyádozni, ezért sokat nyádlik.",Ők ritkán...,nyádlanak,nyádoznak,cselekszik,-lik,1,PR2049,1990,nő,nem,2022-04-13_16h12.16.801,hesp_baseline,2021.2.3,Win32,58.61664713
,,,,,,,,,,,,,,,,,brágaklom,brágaklok,left,4.4666,0,88,88,71,1,72,brágaklik,brágaklasz,NA,NA,Te bizony sokat brágaklasz.,Én is sokat...,brágaklok,brágaklom,lakik,-lik,2,PR2049,1990,nő,nem,2022-04-13_16h12.16.801,hesp_baseline,2021.2.3,Win32,58.61664713
,,,,,,,,,,,,,,,,,csintékben,csintékban,left,3.7693,0,89,89,23,1,78,csinték,csinték,ban,é,Ez itt egy csinték.,Ott vagyunk a...,csintékben,csintékban,dzsungel,NA,NA,PR2049,1990,nő,nem,2022-04-13_16h12.16.801,hesp_baseline,2021.2.3,Win32,58.61664713
,,,,,,,,,,,,,,,,,zsigénnél,zsigénnál,left,4.027,0,90,90,12,1,67,zsigén,zsigén,nál,é,Ez itt egy zsigén.,Nincs is jobb egy jó...,zsigénnél,zsigénnál,dzsungel,NA,NA,PR2049,1990,nő,nem,2022-04-13_16h12.16.801,hesp_baseline,2021.2.3,Win32,58.61664713
,,,,,,,,,,,,,,,,,csólorzok,csólorzom,left,2.7862,0,91,91,102,1,103,csólorzik,csólorzol,NA,NA,Te bizony sokat csólorzol.,Én is sokat...,csólorzok,csólorzom,lakik,-zik,2,PR2049,1990,nő,nem,2022-04-13_16h12.16.801,hesp_baseline,2021.2.3,Win32,58.61664713
,,,,,,,,,,,,,,,,,spülűdzök,spülűdzöm,left,4.2099,0,92,92,56,1,57,spülűdzik,spülűdzöl,NA,NA,Te bizony sokat spülűdzöl.,Én is sokat...,spülűdzök,spülűdzöm,lakik,-zik,2,PR2049,1990,nő,nem,2022-04-13_16h12.16.801,hesp_baseline,2021.2.3,Win32,58.61664713
,,,,,,,,,,,,,,,,,dárakodunk,dárakszunk,left,4.2712,0,93,93,126,1,73,dárakszik / dárakodik,"dárakszik, dárakodni",ünk,NA,"János imád dárakodni, ezért sokat dárakszik.",Mi ritkán...,dárakszunk,dárakodunk,cselekszik,-szik,2,PR2049,1990,nő,nem,2022-04-13_16h12.16.801,hesp_baseline,2021.2.3,Win32,58.61664713
,,,,,,,,,,,,,,,,,nyametben,nyametban,right,2.7898,0,94,94,17,1,72,nyamet,nyamet,ban,e,Ez itt egy nyamet.,Ott vagyunk a...,nyametben,nyametban,dzsungel,NA,NA,PR2049,1990,nő,nem,2022-04-13_16h12.16.801,hesp_baseline,2021.2.3,Win32,58.61664713
,,,,,,,,,,,,,,,,,spüjzöm,spüjzök,right,4.0011,0,95,95,59,1,60,spüjzik,spüjzöl,NA,NA,Te bizony sokat spüjzöl.,Én is sokat...,spüjzök,spüjzöm,lakik,-zik,1,PR2049,1990,nő,nem,2022-04-13_16h12.16.801,hesp_baseline,2021.2.3,Win32,58.61664713
,,,,,,,,,,,,,,,,,jonylom,jonylok,left,45.8429,0,96,96,55,1,56,jonylik,jonylasz,NA,NA,Te bizony sokat jonylasz.,Én is sokat...,jonylok,jonylom,lakik,-lik,1,PR2049,1990,nő,nem,2022-04-13_16h12.16.801,hesp_baseline,2021.2.3,Win32,58.61664713
,,,,,,,,,,,,,,,,,gyihegeztek,gyihegzetek,right,14.7099,0,97,97,124,1,71,gyihegzik / gyihegezik,"gyihegzik, gyihegezni",tek,NA,"János imád gyihegezni, ezért sokat gyihegzik.",Ti ritkán...,gyihegzetek,gyihegeztek,cselekszik,-zik,2,PR2049,1990,nő,nem,2022-04-13_16h12.16.801,hesp_baseline,2021.2.3,Win32,58.61664713
,,,,,,,,,,,,,,,,,míjzunk,míjozunk,left,5.1081,0,98,98,114,1,61,míjzik / míjozik,"míjzik, míjozni",ünk,NA,"János imád míjozni, ezért sokat míjzik.",Mi ritkán...,míjzunk,míjozunk,cselekszik,-zik,1,PR2049,1990,nő,nem,2022-04-13_16h12.16.801,hesp_baseline,2021.2.3,Win32,58.61664713
,,,,,,,,,,,,,,,,,zarcégnál,zarcégnél,right,3.8301,0,99,99,29,1,84,zarcég,zarcég,nál,é,Ez itt egy zarcég.,Nincs is jobb egy jó...,zarcégnél,zarcégnál,dzsungel,NA,NA,PR2049,1990,nő,nem,2022-04-13_16h12.16.801,hesp_baseline,2021.2.3,Win32,58.61664713
,,,,,,,,,,,,,,,,,flemezünk,flemlünk,right,3.0827,0,100,100,137,1,84,flemlik / flemezik,"flemlik, flemezni",ünk,NA,"János imád flemezni, ezért sokat flemlik.",Mi ritkán...,flemlünk,flemezünk,cselekszik,-lik,1,PR2049,1990,nő,nem,2022-04-13_16h12.16.801,hesp_baseline,2021.2.3,Win32,58.61664713
,,,,,,,,,,,,,,,,,spibegezünk,spibeglünk,right,4.2796,0,101,101,147,1,94,spibeglik / spibegezik,"spibeglik, spibegezni",ünk,NA,"János imád spibegezni, ezért sokat spibeglik.",Mi ritkán...,spibeglünk,spibegezünk,cselekszik,-lik,2,PR2049,1990,nő,nem,2022-04-13_16h12.16.801,hesp_baseline,2021.2.3,Win32,58.61664713
,,,,,,,,,,,,,,,,,szanéjnek,szanéjnak,right,2.689,0,102,102,13,1,68,szanéj,szanéj,nak,é,Ez itt egy szanéj.,Elneveztem a kutyámat...,szanéjnek,szanéjnak,dzsungel,NA,NA,PR2049,1990,nő,nem,2022-04-13_16h12.16.801,hesp_baseline,2021.2.3,Win32,58.61664713
,,,,,,,,,,,,,,,,,fröjlünk,fröjözünk,left,3.3167,0,103,103,117,1,64,fröjlik / fröjözik,"fröjlik, fröjözni",ünk,NA,"János imád fröjözni, ezért sokat fröjlik.",Mi ritkán...,fröjlünk,fröjözünk,cselekszik,-lik,1,PR2049,1990,nő,nem,2022-04-13_16h12.16.801,hesp_baseline,2021.2.3,Win32,58.61664713
,,,,,,,,,,,,,,,,,klítegynál,klítegynél,left,2.653,0,104,104,5,1,60,klítegy,klítegy,nál,e,Ez itt egy klítegy.,Nincs is jobb egy jó...,klítegynél,klítegynál,dzsungel,NA,NA,PR2049,1990,nő,nem,2022-04-13_16h12.16.801,hesp_baseline,2021.2.3,Win32,58.61664713
,,,,,,,,,,,,,,,,,ribegzem,ribegzek,left,4.2136,0,105,105,63,1,64,ribegzik,ribegzel,NA,NA,Te bizony sokat ribegzel.,Én is sokat...,ribegzek,ribegzem,lakik,-zik,2,PR2049,1990,nő,nem,2022-04-13_16h12.16.801,hesp_baseline,2021.2.3,Win32,58.61664713
,,,,,,,,,,,,,,,,,bingéjnek,bingéjnak,left,2.9406,0,106,106,49,1,104,bingéj,bingéj,nak,é,Ez itt egy bingéj.,Elneveztem a kutyámat...,bingéjnek,bingéjnak,dzsungel,NA,NA,PR2049,1990,nő,nem,2022-04-13_16h12.16.801,hesp_baseline,2021.2.3,Win32,58.61664713
,,,,,,,,,,,,,,,,,kumlom,kumlok,right,1.6306,0,107,107,105,1,106,kumlik,kumlasz,NA,NA,Te bizony sokat kumlasz.,Én is sokat...,kumlok,kumlom,lakik,-lik,1,PR2049,1990,nő,nem,2022-04-13_16h12.16.801,hesp_baseline,2021.2.3,Win32,58.61664713
,,,,,,,,,,,,,,,,,ítensban,ítensben,left,3.4132,0,108,108,50,1,105,ítens,ítens,ban,e,Ez itt egy ítens.,Ott vagyunk a...,ítensben,ítensban,dzsungel,NA,NA,PR2049,1990,nő,nem,2022-04-13_16h12.16.801,hesp_baseline,2021.2.3,Win32,58.61664713
,,,,,,,,,,,,,,,,,fibamlom,fibamlok,left,1.7831,0,109,109,65,1,66,fibamlik,fibamlasz,NA,NA,Te bizony sokat fibamlasz.,Én is sokat...,fibamlok,fibamlom,lakik,-lik,2,PR2049,1990,nő,nem,2022-04-13_16h12.16.801,hesp_baseline,2021.2.3,Win32,58.61664713
,,,,,,,,,,,,,,,,,lingéknél,lingéknál,left,19.7443,0,110,110,32,1,87,lingék,lingék,nál,é,Ez itt egy lingék.,Nincs is jobb egy jó...,lingéknél,lingéknál,dzsungel,NA,NA,PR2049,1990,nő,nem,2022-04-13_16h12.16.801,hesp_baseline,2021.2.3,Win32,58.61664713
,,,,,,,,,,,,,,,,,pribemlem,pribemlek,right,5.5813,0,111,111,107,1,108,pribemlik,pribemlesz,NA,NA,Te bizony sokat pribemlesz.,Én is sokat...,pribemlek,pribemlem,lakik,-lik,2,PR2049,1990,nő,nem,2022-04-13_16h12.16.801,hesp_baseline,2021.2.3,Win32,58.61664713
,,,,,,,,,,,,,,,,,flagánylom,flagánylok,left,3.9901,0,112,112,82,1,83,flagánylik,flagánylasz,NA,NA,Te bizony sokat flagánylasz.,Én is sokat...,flagánylok,flagánylom,lakik,-lik,2,PR2049,1990,nő,nem,2022-04-13_16h12.16.801,hesp_baseline,2021.2.3,Win32,58.61664713
,,,,,,,,,,,,,,,,,flürököztök,flüröklötök,left,5.1229,0,113,113,149,1,96,flüröklik / flüröközik,"flüröklik, flüröközni",tek,NA,"János imád flüröközni, ezért sokat flüröklik.",Ti ritkán...,flüröklötök,flürököztök,cselekszik,-lik,2,PR2049,1990,nő,nem,2022-04-13_16h12.16.801,hesp_baseline,2021.2.3,Win32,58.61664713
,,,,,,,,,,,,,,,,,flűröklöm,flűröklök,right,10.2104,0,114,114,91,1,92,flűröklik,flűröklesz,NA,NA,Te bizony sokat flűröklesz.,Én is sokat...,flűröklök,flűröklöm,lakik,-lik,2,PR2049,1990,nő,nem,2022-04-13_16h12.16.801,hesp_baseline,2021.2.3,Win32,58.61664713
,,,,,,,,,,,,,,,,,posoztok,poslotok,right,8.2557,0,115,115,121,1,68,poslik / posozik,"poslik, posozni",tek,NA,"János imád posozni, ezért sokat poslik.",Ti ritkán...,poslotok,posoztok,cselekszik,-lik,1,PR2049,1990,nő,nem,2022-04-13_16h12.16.801,hesp_baseline,2021.2.3,Win32,58.61664713
,,,,,,,,,,,,,,,,,tomlok,tomlom,left,7.8668,0,116,116,86,1,87,tomlik,tomlasz,NA,NA,Te bizony sokat tomlasz.,Én is sokat...,tomlok,tomlom,lakik,-lik,1,PR2049,1990,nő,nem,2022-04-13_16h12.16.801,hesp_baseline,2021.2.3,Win32,58.61664713
,,,,,,,,,,,,,,,,,spügzünk,spügözünk,left,3.9375,0,117,117,143,1,90,spügzik / spügözik,"spügzik, spügözni",ünk,NA,"János imád spügözni, ezért sokat spügzik.",Mi ritkán...,spügzünk,spügözünk,cselekszik,-zik,1,PR2049,1990,nő,nem,2022-04-13_16h12.16.801,hesp_baseline,2021.2.3,Win32,58.61664713
,,,,,,,,,,,,,,,,,gúdenben,gúdenban,left,26.247,0,118,118,4,1,59,gúden,gúden,ban,e,Ez itt egy gúden.,Ott vagyunk a...,gúdenben,gúdenban,dzsungel,NA,NA,PR2049,1990,nő,nem,2022-04-13_16h12.16.801,hesp_baseline,2021.2.3,Win32,58.61664713
,,,,,,,,,,,,,,,,,livényezünk,livénylünk,right,5.2661,0,119,119,128,1,75,livénylik / livényezik,"livénylik, livényezni",ünk,NA,"János imád livényezni, ezért sokat livénylik.",Mi ritkán...,livénylünk,livényezünk,cselekszik,-lik,2,PR2049,1990,nő,nem,2022-04-13_16h12.16.801,hesp_baseline,2021.2.3,Win32,58.61664713
,,,,,,,,,,,,,,,,,frivamozunk,frivamlunk,right,3.2875,0,120,120,122,1,69,frivamlik / frivamozik,"frivamlik, frivamozni",ünk,NA,"János imád frivamozni, ezért sokat frivamlik.",Mi ritkán...,frivamlunk,frivamozunk,cselekszik,-lik,2,PR2049,1990,nő,nem,2022-04-13_16h12.16.801,hesp_baseline,2021.2.3,Win32,58.61664713
,,,,,,,,,,,,,,,,,sporzemnek,sporzemnak,left,7.5565,0,121,121,26,1,81,sporzem,sporzem,nak,e,Ez itt egy sporzem.,Elneveztem a kutyámat...,sporzemnek,sporzemnak,dzsungel,NA,NA,PR2049,1990,nő,nem,2022-04-13_16h12.16.801,hesp_baseline,2021.2.3,Win32,58.61664713
,,,,,,,,,,,,,,,,,tribejletek,tribejeztek,right,4.5047,0,122,122,132,1,79,tribejlik / tribejezik,"tribejlik, tribejezni",tek,NA,"János imád tribejezni, ezért sokat tribejlik.",Ti ritkán...,tribejletek,tribejeztek,cselekszik,-lik,2,PR2049,1990,nő,nem,2022-04-13_16h12.16.801,hesp_baseline,2021.2.3,Win32,58.61664713
,,,,,,,,,,,,,,,,,molszotok,molodtok,left,29.007,0,123,123,142,1,89,molszik / molodik,"molszik, molodni",tek,NA,"János imád molodni, ezért sokat molszik.",Ti ritkán...,molszotok,molodtok,cselekszik,-szik,1,PR2049,1990,nő,nem,2022-04-13_16h12.16.801,hesp_baseline,2021.2.3,Win32,58.61664713
,,,,,,,,,,,,,,,,,nyüröznek,nyürzenek,right,5.9109,0,124,124,123,1,70,nyürzik / nyürözik,"nyürzik, nyürözni",nek,NA,"János imád nyürözni, ezért sokat nyürzik.",Ők ritkán...,nyürzenek,nyüröznek,cselekszik,-zik,1,PR2049,1990,nő,nem,2022-04-13_16h12.16.801,hesp_baseline,2021.2.3,Win32,58.61664713
,,,,,,,,,,,,,,,,,ikszertban,ikszertben,right,3.8179,0,125,125,19,1,74,ikszert,ikszert,ban,e,Ez itt egy ikszert.,Ott vagyunk a...,ikszertben,ikszertban,dzsungel,NA,NA,PR2049,1990,nő,nem,2022-04-13_16h12.16.801,hesp_baseline,2021.2.3,Win32,58.61664713
,,,,,,,,,,,,,,,,,ribzom,ribzok,left,3.576,0,126,126,58,1,59,ribzik,ribzol,NA,NA,Te bizony sokat ribzol.,Én is sokat...,ribzok,ribzom,lakik,-zik,1,PR2049,1990,nő,nem,2022-04-13_16h12.16.801,hesp_baseline,2021.2.3,Win32,58.61664713
,,,,,,,,,,,,,,,,,dilaklotok,dilakoztok,left,8.8578,0,127,127,158,1,105,dilaklik / dilakozik,"dilaklik, dilakozni",tek,NA,"János imád dilakozni, ezért sokat dilaklik.",Ti ritkán...,dilaklotok,dilakoztok,cselekszik,-lik,2,PR2049,1990,nő,nem,2022-04-13_16h12.16.801,hesp_baseline,2021.2.3,Win32,58.61664713
,,,,,,,,,,,,,,,,,daboztok,dabzotok,right,6.1038,0,128,128,109,1,56,dabzik / dabozik,"dabzik, dabozni",tek,NA,"János imád dabozni, ezért sokat dabzik.",Ti ritkán...,dabzotok,daboztok,cselekszik,-zik,1,PR2049,1990,nő,nem,2022-04-13_16h12.16.801,hesp_baseline,2021.2.3,Win32,58.61664713
,,,,,,,,,,,,,,,,,praslok,praslom,left,6.9997,0,129,129,80,1,81,praslik,praslasz,NA,NA,Te bizony sokat praslasz.,Én is sokat...,praslok,praslom,lakik,-lik,1,PR2049,1990,nő,nem,2022-04-13_16h12.16.801,hesp_baseline,2021.2.3,Win32,58.61664713
,,,,,,,,,,,,,,,,,prihekszek,prihekszem,right,5.2859,0,130,130,100,1,101,prihekszik,prihekszel,NA,NA,Te bizony sokat prihekszel.,Én is sokat...,prihekszek,prihekszem,lakik,-szik,2,PR2049,1990,nő,nem,2022-04-13_16h12.16.801,hesp_baseline,2021.2.3,Win32,58.61664713
,,,,,,,,,,,,,,,,,dibágoztok,dibáglotok,right,10.87,0,131,131,154,1,101,dibáglik / dibágozik,"dibáglik, dibágozni",tek,NA,"János imád dibágozni, ezért sokat dibáglik.",Ti ritkán...,dibáglotok,dibágoztok,cselekszik,-lik,2,PR2049,1990,nő,nem,2022-04-13_16h12.16.801,hesp_baseline,2021.2.3,Win32,58.61664713
,,,,,,,,,,,,,,,,,friszlok,friszlom,right,12.3944,0,132,132,97,1,98,friszlik,friszlasz,NA,NA,Te bizony sokat friszlasz.,Én is sokat...,friszlok,friszlom,lakik,-lik,1,PR2049,1990,nő,nem,2022-04-13_16h12.16.801,hesp_baseline,2021.2.3,Win32,58.61664713
,,,,,,,,,,,,,,,,,nyábétben,nyábétban,right,10.8677,0,133,133,21,1,76,nyábét,nyábét,ban,é,Ez itt egy nyábét.,Ott vagyunk a...,nyábétben,nyábétban,dzsungel,NA,NA,PR2049,1990,nő,nem,2022-04-13_16h12.16.801,hesp_baseline,2021.2.3,Win32,58.61664713
,,,,,,,,,,,,,,,,,spiharzotok,spiharoztok,left,8.1962,0,134,134,127,1,74,spiharzik / spiharozik,"spiharzik, spiharozni",tek,NA,"János imád spiharozni, ezért sokat spiharzik.",Ti ritkán...,spiharzotok,spiharoztok,cselekszik,-zik,2,PR2049,1990,nő,nem,2022-04-13_16h12.16.801,hesp_baseline,2021.2.3,Win32,58.61664713
,,,,,,,,,,,,,,,,,dóbemnek,dóbemnak,left,14.9544,0,135,135,48,1,103,dóbem,dóbem,nak,e,Ez itt egy dóbem.,Elneveztem a kutyámat...,dóbemnek,dóbemnak,dzsungel,NA,NA,PR2049,1990,nő,nem,2022-04-13_16h12.16.801,hesp_baseline,2021.2.3,Win32,58.61664713
,,,,,,,,,,,,,,,,,gilárzom,gilárzok,left,7.8211,0,136,136,94,1,95,gilárzik,gilárzol,NA,NA,Te bizony sokat gilárzol.,Én is sokat...,gilárzok,gilárzom,lakik,-zik,2,PR2049,1990,nő,nem,2022-04-13_16h12.16.801,hesp_baseline,2021.2.3,Win32,58.61664713
,,,,,,,,,,,,,,,,,jábézben,jábézban,right,5.017,0,137,137,34,1,89,jábéz,jábéz,ban,é,Ez itt egy jábéz.,Ott vagyunk a...,jábézben,jábézban,dzsungel,NA,NA,PR2049,1990,nő,nem,2022-04-13_16h12.16.801,hesp_baseline,2021.2.3,Win32,58.61664713
,,,,,,,,,,,,,,,,,frodlom,frodlok,left,2.746,0,138,138,61,1,62,frodlik,frodlasz,NA,NA,Te bizony sokat frodlasz.,Én is sokat...,frodlok,frodlom,lakik,-lik,1,PR2049,1990,nő,nem,2022-04-13_16h12.16.801,hesp_baseline,2021.2.3,Win32,58.61664713
,,,,,,,,,,,,,,,,,gihesztnek,gihesztnak,left,2.5946,0,139,139,36,1,91,giheszt,giheszt,nak,e,Ez itt egy giheszt.,Elneveztem a kutyámat...,gihesztnek,gihesztnak,dzsungel,NA,NA,PR2049,1990,nő,nem,2022-04-13_16h12.16.801,hesp_baseline,2021.2.3,Win32,58.61664713
,,,,,,,,,,,,,,,,,pítendban,pítendben,right,1.9129,0,140,140,18,1,73,pítend,pítend,ban,e,Ez itt egy pítend.,Ott vagyunk a...,pítendben,pítendban,dzsungel,NA,NA,PR2049,1990,nő,nem,2022-04-13_16h12.16.801,hesp_baseline,2021.2.3,Win32,58.61664713
,,,,,,,,,,,,,,,,,kluhéjnál,kluhéjnél,left,5.8265,0,141,141,24,1,79,kluhéj,kluhéj,nál,é,Ez itt egy kluhéj.,Nincs is jobb egy jó...,kluhéjnél,kluhéjnál,dzsungel,NA,NA,PR2049,1990,nő,nem,2022-04-13_16h12.16.801,hesp_baseline,2021.2.3,Win32,58.61664713
,,,,,,,,,,,,,,,,,csíszlom,csíszlok,left,2.2564,0,142,142,84,1,85,csíszlik,csíszlasz,NA,NA,Te bizony sokat csíszlasz.,Én is sokat...,csíszlok,csíszlom,lakik,-lik,1,PR2049,1990,nő,nem,2022-04-13_16h12.16.801,hesp_baseline,2021.2.3,Win32,58.61664713
,,,,,,,,,,,,,,,,,zutennél,zutennál,left,3.073,0,143,143,43,1,98,zuten,zuten,nál,e,Ez itt egy zuten.,Nincs is jobb egy jó...,zutennél,zutennál,dzsungel,NA,NA,PR2049,1990,nő,nem,2022-04-13_16h12.16.801,hesp_baseline,2021.2.3,Win32,58.61664713
,,,,,,,,,,,,,,,,,fligzok,fligzom,right,2.7804,0,144,144,103,1,104,fligzik,fligzol,NA,NA,Te bizony sokat fligzol.,Én is sokat...,fligzok,fligzom,lakik,-zik,1,PR2049,1990,nő,nem,2022-04-13_16h12.16.801,hesp_baseline,2021.2.3,Win32,58.61664713
,,,,,,,,,,,,,,,,,hubonylotok,hubonyoztok,left,4.4055,0,145,145,157,1,104,hubonylik / hubonyozik,"hubonylik, hubonyozni",tek,NA,"János imád hubonyozni, ezért sokat hubonylik.",Ti ritkán...,hubonylotok,hubonyoztok,cselekszik,-lik,2,PR2049,1990,nő,nem,2022-04-13_16h12.16.801,hesp_baseline,2021.2.3,Win32,58.61664713
,,,,,,,,,,,,,,,,,floglok,floglom,left,2.5135,0,146,146,92,1,93,floglik,floglasz,NA,NA,Te bizony sokat floglasz.,Én is sokat...,floglok,floglom,lakik,-lik,1,PR2049,1990,nő,nem,2022-04-13_16h12.16.801,hesp_baseline,2021.2.3,Win32,58.61664713
,,,,,,,,,,,,,,,,,drojzunk,drojozunk,right,3.0341,0,147,147,140,1,87,drojzik / drojozik,"drojzik, drojozni",ünk,NA,"János imád drojozni, ezért sokat drojzik.",Mi ritkán...,drojzunk,drojozunk,cselekszik,-zik,1,PR2049,1990,nő,nem,2022-04-13_16h12.16.801,hesp_baseline,2021.2.3,Win32,58.61664713
,,,,,,,,,,,,,,,,,tosélyban,tosélyben,left,8.3153,0,148,148,25,1,80,tosély,tosély,ban,é,Ez itt egy tosély.,Ott vagyunk a...,tosélyben,tosélyban,dzsungel,NA,NA,PR2049,1990,nő,nem,2022-04-13_16h12.16.801,hesp_baseline,2021.2.3,Win32,58.61664713
,,,,,,,,,,,,,,,,,spubonylok,spubonylom,left,14.5882,0,149,149,104,1,105,spubonylik,spubonylasz,NA,NA,Te bizony sokat spubonylasz.,Én is sokat...,spubonylok,spubonylom,lakik,-lik,2,PR2049,1990,nő,nem,2022-04-13_16h12.16.801,hesp_baseline,2021.2.3,Win32,58.61664713
,,,,,,,,,,,,,,,,,lorjódzok,lorjódzom,right,2.3363,0,150,150,88,1,89,lorjódzik,lorjódzol,NA,NA,Te bizony sokat lorjódzol.,Én is sokat...,lorjódzok,lorjódzom,lakik,-zik,2,PR2049,1990,nő,nem,2022-04-13_16h12.16.801,hesp_baseline,2021.2.3,Win32,58.61664713
,,,,,,,,,,,,,,,,,klehényeztek,klehényletek,right,2.9148,0,151,151,113,1,60,klehénylik / klehényezik,"klehénylik, klehényezni",tek,NA,"János imád klehényezni, ezért sokat klehénylik.",Ti ritkán...,klehényletek,klehényeztek,cselekszik,-lik,2,PR2049,1990,nő,nem,2022-04-13_16h12.16.801,hesp_baseline,2021.2.3,Win32,58.61664713
,,,,,,,,,,,,,,,,,zihencnak,zihencnek,right,1.705,0,152,152,52,1,107,zihenc,zihenc,nak,e,Ez itt egy zihenc.,Elneveztem a kutyámat...,zihencnek,zihencnak,dzsungel,NA,NA,PR2049,1990,nő,nem,2022-04-13_16h12.16.801,hesp_baseline,2021.2.3,Win32,58.61664713
,,,,,,,,,,,,,,,,,fupétnál,fupétnél,right,2.7037,0,153,153,14,1,69,fupét,fupét,nál,é,Ez itt egy fupét.,Nincs is jobb egy jó...,fupétnél,fupétnál,dzsungel,NA,NA,PR2049,1990,nő,nem,2022-04-13_16h12.16.801,hesp_baseline,2021.2.3,Win32,58.61664713
,,,,,,,,,,,,,,,,,prohódzok,prohódzom,right,2.2024,0,154,154,66,1,67,prohódzik,prohódzol,NA,NA,Te bizony sokat prohódzol.,Én is sokat...,prohódzok,prohódzom,lakik,-zik,2,PR2049,1990,nő,nem,2022-04-13_16h12.16.801,hesp_baseline,2021.2.3,Win32,58.61664713
,,,,,,,,,,,,,,,,,vorszennál,vorszennél,left,3.2102,0,155,155,30,1,85,vorszen,vorszen,nál,e,Ez itt egy vorszen.,Nincs is jobb egy jó...,vorszennél,vorszennál,dzsungel,NA,NA,PR2049,1990,nő,nem,2022-04-13_16h12.16.801,hesp_baseline,2021.2.3,Win32,58.61664713
,,,,,,,,,,,,,,,,,klingeszben,klingeszban,left,2.6958,0,156,156,1,1,56,klingesz,klingesz,ban,e,Ez itt egy klingesz.,Ott vagyunk a...,klingeszben,klingeszban,dzsungel,NA,NA,PR2049,1990,nő,nem,2022-04-13_16h12.16.801,hesp_baseline,2021.2.3,Win32,58.61664713
,,,,,,,,,,,,,,,,,spatárzok,spatárzom,right,4.0516,0,157,157,69,1,70,spatárzik,spatárzol,NA,NA,Te bizony sokat spatárzol.,Én is sokat...,spatárzok,spatárzom,lakik,-zik,2,PR2049,1990,nő,nem,2022-04-13_16h12.16.801,hesp_baseline,2021.2.3,Win32,58.61664713
,,,,,,,,,,,,,,,,,forzédnek,forzédnak,left,4.0004,0,158,158,46,1,101,forzéd,forzéd,nak,é,Ez itt egy forzéd.,Elneveztem a kutyámat...,forzédnek,forzédnak,dzsungel,NA,NA,PR2049,1990,nő,nem,2022-04-13_16h12.16.801,hesp_baseline,2021.2.3,Win32,58.61664713
,,,,,,,,,,,,,,,,,branylanak,branyoznak,left,6.4047,0,159,159,136,1,83,branylik / branyozik,"branylik, branyozni",nek,NA,"János imád branyozni, ezért sokat branylik.",Ők ritkán...,branylanak,branyoznak,cselekszik,-lik,1,PR2049,1990,nő,nem,2022-04-13_16h12.16.801,hesp_baseline,2021.2.3,Win32,58.61664713
,,,,,,,,,,,,,,,,,jóbecnek,jóbecnak,right,3.0149,0,160,160,11,1,66,jóbec,jóbec,nak,e,Ez itt egy jóbec.,Elneveztem a kutyámat...,jóbecnek,jóbecnak,dzsungel,NA,NA,PR2049,1990,nő,nem,2022-04-13_16h12.16.801,hesp_baseline,2021.2.3,Win32,58.61664713
,,,,,,,,,,,,,,,,,garcépnél,garcépnál,left,3.8949,0,161,161,38,1,93,garcép,garcép,nál,é,Ez itt egy garcép.,Nincs is jobb egy jó...,garcépnél,garcépnál,dzsungel,NA,NA,PR2049,1990,nő,nem,2022-04-13_16h12.16.801,hesp_baseline,2021.2.3,Win32,58.61664713
