my_list,key.keys,key.rt,key_2.keys,key_2.rt,keyboard_input_2.keys,keyboard_input_2.rt,key_3.keys,key_3.rt,keyboard_input_3.keys,keyboard_input_3.rt,key_4.keys,key_4.rt,keyboard_input_4.keys,keyboard_input_4.rt,key_5.keys,key_5.rt,my_button1,my_button2,keyboard_input.keys,keyboard_input.rt,withinBlock.thisRepN,withinBlock.thisTrialN,withinBlock.thisN,withinBlock.thisIndex,withinBlock.ran,rowname,word,prompt,suffix,vowel,carrier_sentence,target_sentence,target1,target2,category,derivational,nsyl,Azonosító,Melyik évben születtél?,Mi a nemed?,Tanultál nyelvészetet?,date,expName,psychopyVersion,OS,frameRate
list2.csv,space,9.7383,space,4.5234,right,4.8746,space,9.2696,right,8.2371,space,7.1276,left,11.5027,space,8.2929,nyürzenek,nyüröznek,right,17.3475,0,0,0,123,1,70,nyürzik / nyürözik,"nyürzik, nyürözni",nek,NA,"János imád nyürözni, ezért sokat nyürzik.",Ők ritkán...,nyürzenek,nyüröznek,cselekszik,-zik,1,PR2077,2001,nő,nem,2022-04-19_15h18.34.038,hesp_baseline,2021.2.3,Win32,61.75507936
,,,,,,,,,,,,,,,,,flűröklök,flűröklöm,right,10.4621,0,1,1,91,1,92,flűröklik,flűröklesz,NA,NA,Te bizony sokat flűröklesz.,Én is sokat...,flűröklök,flűröklöm,lakik,-lik,2,PR2077,2001,nő,nem,2022-04-19_15h18.34.038,hesp_baseline,2021.2.3,Win32,61.75507936
,,,,,,,,,,,,,,,,,spügözünk,spügzünk,right,7.2143,0,2,2,143,1,90,spügzik / spügözik,"spügzik, spügözni",ünk,NA,"János imád spügözni, ezért sokat spügzik.",Mi ritkán...,spügzünk,spügözünk,cselekszik,-zik,1,PR2077,2001,nő,nem,2022-04-19_15h18.34.038,hesp_baseline,2021.2.3,Win32,61.75507936
,,,,,,,,,,,,,,,,,praslok,praslom,left,8.4292,0,3,3,80,1,81,praslik,praslasz,NA,NA,Te bizony sokat praslasz.,Én is sokat...,praslok,praslom,lakik,-lik,1,PR2077,2001,nő,nem,2022-04-19_15h18.34.038,hesp_baseline,2021.2.3,Win32,61.75507936
,,,,,,,,,,,,,,,,,pivegszek,pivegszem,right,6.3379,0,4,4,99,1,100,pivegszik,pivegszel,NA,NA,Te bizony sokat pivegszel.,Én is sokat...,pivegszek,pivegszem,lakik,-szik,2,PR2077,2001,nő,nem,2022-04-19_15h18.34.038,hesp_baseline,2021.2.3,Win32,61.75507936
,,,,,,,,,,,,,,,,,figlok,figlom,left,3.8289,0,5,5,75,1,76,figlik,figlasz,NA,NA,Te bizony sokat figlasz.,Én is sokat...,figlok,figlom,lakik,-lik,1,PR2077,2001,nő,nem,2022-04-19_15h18.34.038,hesp_baseline,2021.2.3,Win32,61.75507936
,,,,,,,,,,,,,,,,,tribejeztek,tribejletek,left,26.557,0,6,6,132,1,79,tribejlik / tribejezik,"tribejlik, tribejezni",tek,NA,"János imád tribejezni, ezért sokat tribejlik.",Ti ritkán...,tribejletek,tribejeztek,cselekszik,-lik,2,PR2077,2001,nő,nem,2022-04-19_15h18.34.038,hesp_baseline,2021.2.3,Win32,61.75507936
,,,,,,,,,,,,,,,,,míjzunk,míjozunk,left,11.0974,0,7,7,114,1,61,míjzik / míjozik,"míjzik, míjozni",ünk,NA,"János imád míjozni, ezért sokat míjzik.",Mi ritkán...,míjzunk,míjozunk,cselekszik,-zik,1,PR2077,2001,nő,nem,2022-04-19_15h18.34.038,hesp_baseline,2021.2.3,Win32,61.75507936
,,,,,,,,,,,,,,,,,gihesztnek,gihesztnak,left,9.626,0,8,8,36,1,91,giheszt,giheszt,nak,e,Ez itt egy giheszt.,Elneveztem a kutyámat...,gihesztnek,gihesztnak,dzsungel,NA,NA,PR2077,2001,nő,nem,2022-04-19_15h18.34.038,hesp_baseline,2021.2.3,Win32,61.75507936
,,,,,,,,,,,,,,,,,nyametben,nyametban,left,2.4278,0,9,9,17,1,72,nyamet,nyamet,ban,e,Ez itt egy nyamet.,Ott vagyunk a...,nyametben,nyametban,dzsungel,NA,NA,PR2077,2001,nő,nem,2022-04-19_15h18.34.038,hesp_baseline,2021.2.3,Win32,61.75507936
,,,,,,,,,,,,,,,,,játlunk,játozunk,right,9.2332,0,10,10,145,1,92,játlik / játozik,"játlik, játozni",ünk,NA,"János imád játozni, ezért sokat játlik.",Mi ritkán...,játlunk,játozunk,cselekszik,-lik,1,PR2077,2001,nő,nem,2022-04-19_15h18.34.038,hesp_baseline,2021.2.3,Win32,61.75507936
,,,,,,,,,,,,,,,,,flemezünk,flemlünk,right,6.8511,0,11,11,137,1,84,flemlik / flemezik,"flemlik, flemezni",ünk,NA,"János imád flemezni, ezért sokat flemlik.",Mi ritkán...,flemlünk,flemezünk,cselekszik,-lik,1,PR2077,2001,nő,nem,2022-04-19_15h18.34.038,hesp_baseline,2021.2.3,Win32,61.75507936
,,,,,,,,,,,,,,,,,flagánylom,flagánylok,right,4.0712,0,12,12,82,1,83,flagánylik,flagánylasz,NA,NA,Te bizony sokat flagánylasz.,Én is sokat...,flagánylok,flagánylom,lakik,-lik,2,PR2077,2001,nő,nem,2022-04-19_15h18.34.038,hesp_baseline,2021.2.3,Win32,61.75507936
,,,,,,,,,,,,,,,,,kumlok,kumlom,left,3.3465,0,13,13,105,1,106,kumlik,kumlasz,NA,NA,Te bizony sokat kumlasz.,Én is sokat...,kumlok,kumlom,lakik,-lik,1,PR2077,2001,nő,nem,2022-04-19_15h18.34.038,hesp_baseline,2021.2.3,Win32,61.75507936
,,,,,,,,,,,,,,,,,zsigénnél,zsigénnál,left,4.2611,0,14,14,12,1,67,zsigén,zsigén,nál,é,Ez itt egy zsigén.,Nincs is jobb egy jó...,zsigénnél,zsigénnál,dzsungel,NA,NA,PR2077,2001,nő,nem,2022-04-19_15h18.34.038,hesp_baseline,2021.2.3,Win32,61.75507936
,,,,,,,,,,,,,,,,,csimennál,csimennél,right,2.7324,0,15,15,44,1,99,csimen,csimen,nál,e,Ez itt egy csimen.,Nincs is jobb egy jó...,csimennél,csimennál,dzsungel,NA,NA,PR2077,2001,nő,nem,2022-04-19_15h18.34.038,hesp_baseline,2021.2.3,Win32,61.75507936
,,,,,,,,,,,,,,,,,flitlok,flitlom,left,2.4338,0,16,16,90,1,91,flitlik,flitlasz,NA,NA,Te bizony sokat flitlasz.,Én is sokat...,flitlok,flitlom,lakik,-lik,1,PR2077,2001,nő,nem,2022-04-19_15h18.34.038,hesp_baseline,2021.2.3,Win32,61.75507936
,,,,,,,,,,,,,,,,,flehékszem,flehékszek,left,2.3334,0,17,17,77,1,78,flehékszik,flehékszel,NA,NA,Te bizony sokat flehékszel.,Én is sokat...,flehékszek,flehékszem,lakik,-szik,2,PR2077,2001,nő,nem,2022-04-19_15h18.34.038,hesp_baseline,2021.2.3,Win32,61.75507936
,,,,,,,,,,,,,,,,,zutennél,zutennál,left,1.8451,0,18,18,43,1,98,zuten,zuten,nál,e,Ez itt egy zuten.,Nincs is jobb egy jó...,zutennél,zutennál,dzsungel,NA,NA,PR2077,2001,nő,nem,2022-04-19_15h18.34.038,hesp_baseline,2021.2.3,Win32,61.75507936
,,,,,,,,,,,,,,,,,tranékben,tranékban,left,2.0625,0,19,19,2,1,57,tranék,tranék,ban,é,Ez itt egy tranék.,Ott vagyunk a...,tranékben,tranékban,dzsungel,NA,NA,PR2077,2001,nő,nem,2022-04-19_15h18.34.038,hesp_baseline,2021.2.3,Win32,61.75507936
,,,,,,,,,,,,,,,,,flerékszünk,flerékedünk,right,9.0928,0,20,20,159,1,106,flerékszik / flerékedik,"flerékszik, flerékedni",ünk,NA,"János imád flerékedni, ezért sokat flerékszik.",Mi ritkán...,flerékszünk,flerékedünk,cselekszik,-szik,2,PR2077,2001,nő,nem,2022-04-19_15h18.34.038,hesp_baseline,2021.2.3,Win32,61.75507936
,,,,,,,,,,,,,,,,,klazérben,klazérban,left,2.4942,0,21,21,51,1,106,klazér,klazér,ban,é,Ez itt egy klazér.,Ott vagyunk a...,klazérben,klazérban,dzsungel,NA,NA,PR2077,2001,nő,nem,2022-04-19_15h18.34.038,hesp_baseline,2021.2.3,Win32,61.75507936
,,,,,,,,,,,,,,,,,tomlom,tomlok,right,2.5967,0,22,22,86,1,87,tomlik,tomlasz,NA,NA,Te bizony sokat tomlasz.,Én is sokat...,tomlok,tomlom,lakik,-lik,1,PR2077,2001,nő,nem,2022-04-19_15h18.34.038,hesp_baseline,2021.2.3,Win32,61.75507936
,,,,,,,,,,,,,,,,,juszlok,juszlom,left,3.1527,0,23,23,79,1,80,juszlik,juszlasz,NA,NA,Te bizony sokat juszlasz.,Én is sokat...,juszlok,juszlom,lakik,-lik,1,PR2077,2001,nő,nem,2022-04-19_15h18.34.038,hesp_baseline,2021.2.3,Win32,61.75507936
,,,,,,,,,,,,,,,,,brágaklom,brágaklok,left,5.6852,0,24,24,71,1,72,brágaklik,brágaklasz,NA,NA,Te bizony sokat brágaklasz.,Én is sokat...,brágaklok,brágaklom,lakik,-lik,2,PR2077,2001,nő,nem,2022-04-19_15h18.34.038,hesp_baseline,2021.2.3,Win32,61.75507936
,,,,,,,,,,,,,,,,,tosélyben,tosélyban,left,1.509,0,25,25,25,1,80,tosély,tosély,ban,é,Ez itt egy tosély.,Ott vagyunk a...,tosélyben,tosélyban,dzsungel,NA,NA,PR2077,2001,nő,nem,2022-04-19_15h18.34.038,hesp_baseline,2021.2.3,Win32,61.75507936
,,,,,,,,,,,,,,,,,kátédnál,kátédnél,right,2.1466,0,26,26,37,1,92,kátéd,kátéd,nál,é,Ez itt egy kátéd.,Nincs is jobb egy jó...,kátédnél,kátédnál,dzsungel,NA,NA,PR2077,2001,nő,nem,2022-04-19_15h18.34.038,hesp_baseline,2021.2.3,Win32,61.75507936
,,,,,,,,,,,,,,,,,prilepedünk,prilepszünk,right,5.4259,0,27,27,161,1,108,prilepszik / prilepedik,"prilepszik, prilepedni",ünk,NA,"János imád prilepedni, ezért sokat prilepszik.",Mi ritkán...,prilepszünk,prilepedünk,cselekszik,-szik,2,PR2077,2001,nő,nem,2022-04-19_15h18.34.038,hesp_baseline,2021.2.3,Win32,61.75507936
,,,,,,,,,,,,,,,,,gihamlanak,gihamoznak,left,3.7759,0,28,28,133,1,80,gihamlik / gihamozik,"gihamlik, gihamozni",nek,NA,"János imád gihamozni, ezért sokat gihamlik.",Ők ritkán...,gihamlanak,gihamoznak,cselekszik,-lik,2,PR2077,2001,nő,nem,2022-04-19_15h18.34.038,hesp_baseline,2021.2.3,Win32,61.75507936
,,,,,,,,,,,,,,,,,spizecnak,spizecnek,right,2.605,0,29,29,6,1,61,spizec,spizec,nak,e,Ez itt egy spizec.,Elneveztem a kutyámat...,spizecnek,spizecnak,dzsungel,NA,NA,PR2077,2001,nő,nem,2022-04-19_15h18.34.038,hesp_baseline,2021.2.3,Win32,61.75507936
,,,,,,,,,,,,,,,,,dingecnak,dingecnek,right,1.6362,0,30,30,42,1,97,dingec,dingec,nak,e,Ez itt egy dingec.,Elneveztem a kutyámat...,dingecnek,dingecnak,dzsungel,NA,NA,PR2077,2001,nő,nem,2022-04-19_15h18.34.038,hesp_baseline,2021.2.3,Win32,61.75507936
,,,,,,,,,,,,,,,,,zarcégnél,zarcégnál,left,3.7106,0,31,31,29,1,84,zarcég,zarcég,nál,é,Ez itt egy zarcég.,Nincs is jobb egy jó...,zarcégnél,zarcégnál,dzsungel,NA,NA,PR2077,2001,nő,nem,2022-04-19_15h18.34.038,hesp_baseline,2021.2.3,Win32,61.75507936
,,,,,,,,,,,,,,,,,csintékben,csintékban,left,3.3931,0,32,32,23,1,78,csinték,csinték,ban,é,Ez itt egy csinték.,Ott vagyunk a...,csintékben,csintékban,dzsungel,NA,NA,PR2077,2001,nő,nem,2022-04-19_15h18.34.038,hesp_baseline,2021.2.3,Win32,61.75507936
,,,,,,,,,,,,,,,,,dihelynek,dihelynak,left,1.4881,0,33,33,20,1,75,dihely,dihely,nak,e,Ez itt egy dihely.,Elneveztem a kutyámat...,dihelynek,dihelynak,dzsungel,NA,NA,PR2077,2001,nő,nem,2022-04-19_15h18.34.038,hesp_baseline,2021.2.3,Win32,61.75507936
,,,,,,,,,,,,,,,,,nurokozunk,nuroklunk,right,3.9794,0,34,34,131,1,78,nuroklik / nurokozik,"nuroklik, nurokozni",ünk,NA,"János imád nurokozni, ezért sokat nuroklik.",Mi ritkán...,nuroklunk,nurokozunk,cselekszik,-lik,2,PR2077,2001,nő,nem,2022-04-19_15h18.34.038,hesp_baseline,2021.2.3,Win32,61.75507936
,,,,,,,,,,,,,,,,,branyoznak,branylanak,right,7.3427,0,35,35,136,1,83,branylik / branyozik,"branylik, branyozni",nek,NA,"János imád branyozni, ezért sokat branylik.",Ők ritkán...,branylanak,branyoznak,cselekszik,-lik,1,PR2077,2001,nő,nem,2022-04-19_15h18.34.038,hesp_baseline,2021.2.3,Win32,61.75507936
,,,,,,,,,,,,,,,,,flürököztök,flüröklötök,right,9.2776,0,36,36,149,1,96,flüröklik / flüröközik,"flüröklik, flüröközni",tek,NA,"János imád flüröközni, ezért sokat flüröklik.",Ti ritkán...,flüröklötök,flürököztök,cselekszik,-lik,2,PR2077,2001,nő,nem,2022-04-19_15h18.34.038,hesp_baseline,2021.2.3,Win32,61.75507936
,,,,,,,,,,,,,,,,,prohódzok,prohódzom,left,3.3985,0,37,37,66,1,67,prohódzik,prohódzol,NA,NA,Te bizony sokat prohódzol.,Én is sokat...,prohódzok,prohódzom,lakik,-zik,2,PR2077,2001,nő,nem,2022-04-19_15h18.34.038,hesp_baseline,2021.2.3,Win32,61.75507936
,,,,,,,,,,,,,,,,,sponylanak,sponyoznak,left,2.207,0,38,38,125,1,72,sponylik / sponyozik,"sponylik, sponyozni",nek,NA,"János imád sponyozni, ezért sokat sponylik.",Ők ritkán...,sponylanak,sponyoznak,cselekszik,-lik,1,PR2077,2001,nő,nem,2022-04-19_15h18.34.038,hesp_baseline,2021.2.3,Win32,61.75507936
,,,,,,,,,,,,,,,,,flibekszek,flibekszem,right,2.7116,0,39,39,93,1,94,flibekszik,flibekszel,NA,NA,Te bizony sokat flibekszel.,Én is sokat...,flibekszek,flibekszem,lakik,-szik,2,PR2077,2001,nő,nem,2022-04-19_15h18.34.038,hesp_baseline,2021.2.3,Win32,61.75507936
,,,,,,,,,,,,,,,,,flézletek,flézeztek,left,6.2764,0,40,40,134,1,81,flézlik / flézezik,"flézlik, flézezni",tek,NA,"János imád flézezni, ezért sokat flézlik.",Ti ritkán...,flézletek,flézeztek,cselekszik,-lik,1,PR2077,2001,nő,nem,2022-04-19_15h18.34.038,hesp_baseline,2021.2.3,Win32,61.75507936
,,,,,,,,,,,,,,,,,sortemnál,sortemnél,right,2.9788,0,41,41,15,1,70,sortem,sortem,nál,e,Ez itt egy sortem.,Nincs is jobb egy jó...,sortemnél,sortemnál,dzsungel,NA,NA,PR2077,2001,nő,nem,2022-04-19_15h18.34.038,hesp_baseline,2021.2.3,Win32,61.75507936
,,,,,,,,,,,,,,,,,spiharzotok,spiharoztok,left,4.5171,0,42,42,127,1,74,spiharzik / spiharozik,"spiharzik, spiharozni",tek,NA,"János imád spiharozni, ezért sokat spiharzik.",Ti ritkán...,spiharzotok,spiharoztok,cselekszik,-zik,2,PR2077,2001,nő,nem,2022-04-19_15h18.34.038,hesp_baseline,2021.2.3,Win32,61.75507936
,,,,,,,,,,,,,,,,,hubonyoztok,hubonylotok,left,2.5693,0,43,43,157,1,104,hubonylik / hubonyozik,"hubonylik, hubonyozni",tek,NA,"János imád hubonyozni, ezért sokat hubonylik.",Ti ritkán...,hubonylotok,hubonyoztok,cselekszik,-lik,2,PR2077,2001,nő,nem,2022-04-19_15h18.34.038,hesp_baseline,2021.2.3,Win32,61.75507936
,,,,,,,,,,,,,,,,,ruslok,ruslom,left,2.1251,0,44,44,83,1,84,ruslik,ruslasz,NA,NA,Te bizony sokat ruslasz.,Én is sokat...,ruslok,ruslom,lakik,-lik,1,PR2077,2001,nő,nem,2022-04-19_15h18.34.038,hesp_baseline,2021.2.3,Win32,61.75507936
,,,,,,,,,,,,,,,,,klűmöztök,klűmlötök,left,3.4992,0,45,45,108,1,55,klűmlik / klűmözik,"klűmlik, klűmözni",tek,NA,"János imád klűmözni, ezért sokat klűmlik.",Ti ritkán...,klűmlötök,klűmöztök,cselekszik,-lik,1,PR2077,2001,nő,nem,2022-04-19_15h18.34.038,hesp_baseline,2021.2.3,Win32,61.75507936
,,,,,,,,,,,,,,,,,klítegynél,klítegynál,left,2.1309,0,46,46,5,1,60,klítegy,klítegy,nál,e,Ez itt egy klítegy.,Nincs is jobb egy jó...,klítegynél,klítegynál,dzsungel,NA,NA,PR2077,2001,nő,nem,2022-04-19_15h18.34.038,hesp_baseline,2021.2.3,Win32,61.75507936
,,,,,,,,,,,,,,,,,metégednek,metégszenek,right,3.6503,0,47,47,112,1,59,metégszik / metégedik,"metégszik, metégedni",nek,NA,"János imád metégedni, ezért sokat metégszik.",Ők ritkán...,metégszenek,metégednek,cselekszik,-szik,2,PR2077,2001,nő,nem,2022-04-19_15h18.34.038,hesp_baseline,2021.2.3,Win32,61.75507936
,,,,,,,,,,,,,,,,,fröjözünk,fröjlünk,right,7.6932,0,48,48,117,1,64,fröjlik / fröjözik,"fröjlik, fröjözni",ünk,NA,"János imád fröjözni, ezért sokat fröjlik.",Mi ritkán...,fröjlünk,fröjözünk,cselekszik,-lik,1,PR2077,2001,nő,nem,2022-04-19_15h18.34.038,hesp_baseline,2021.2.3,Win32,61.75507936
,,,,,,,,,,,,,,,,,lingéknél,lingéknál,left,2.379,0,49,49,32,1,87,lingék,lingék,nál,é,Ez itt egy lingék.,Nincs is jobb egy jó...,lingéknél,lingéknál,dzsungel,NA,NA,PR2077,2001,nő,nem,2022-04-19_15h18.34.038,hesp_baseline,2021.2.3,Win32,61.75507936
,,,,,,,,,,,,,,,,,spülűdzök,spülűdzöm,right,4.5617,0,50,50,56,1,57,spülűdzik,spülűdzöl,NA,NA,Te bizony sokat spülűdzöl.,Én is sokat...,spülűdzök,spülűdzöm,lakik,-zik,2,PR2077,2001,nő,nem,2022-04-19_15h18.34.038,hesp_baseline,2021.2.3,Win32,61.75507936
,,,,,,,,,,,,,,,,,flodlotok,flodoztok,left,2.1449,0,51,51,144,1,91,flodlik / flodozik,"flodlik, flodozni",tek,NA,"János imád flodozni, ezért sokat flodlik.",Ti ritkán...,flodlotok,flodoztok,cselekszik,-lik,1,PR2077,2001,nő,nem,2022-04-19_15h18.34.038,hesp_baseline,2021.2.3,Win32,61.75507936
,,,,,,,,,,,,,,,,,forzédnek,forzédnak,left,2.1569,0,52,52,46,1,101,forzéd,forzéd,nak,é,Ez itt egy forzéd.,Elneveztem a kutyámat...,forzédnek,forzédnak,dzsungel,NA,NA,PR2077,2001,nő,nem,2022-04-19_15h18.34.038,hesp_baseline,2021.2.3,Win32,61.75507936
,,,,,,,,,,,,,,,,,garcépnél,garcépnál,left,1.8533,0,53,53,38,1,93,garcép,garcép,nál,é,Ez itt egy garcép.,Nincs is jobb egy jó...,garcépnél,garcépnál,dzsungel,NA,NA,PR2077,2001,nő,nem,2022-04-19_15h18.34.038,hesp_baseline,2021.2.3,Win32,61.75507936
,,,,,,,,,,,,,,,,,dárakodunk,dárakszunk,right,6.5491,0,54,54,126,1,73,dárakszik / dárakodik,"dárakszik, dárakodni",ünk,NA,"János imád dárakodni, ezért sokat dárakszik.",Mi ritkán...,dárakszunk,dárakodunk,cselekszik,-szik,2,PR2077,2001,nő,nem,2022-04-19_15h18.34.038,hesp_baseline,2021.2.3,Win32,61.75507936
,,,,,,,,,,,,,,,,,huroslom,huroslok,right,3.328,0,55,55,76,1,77,huroslik,huroslasz,NA,NA,Te bizony sokat huroslasz.,Én is sokat...,huroslok,huroslom,lakik,-lik,2,PR2077,2001,nő,nem,2022-04-19_15h18.34.038,hesp_baseline,2021.2.3,Win32,61.75507936
,,,,,,,,,,,,,,,,,spatárzom,spatárzok,right,10.2857,0,56,56,69,1,70,spatárzik,spatárzol,NA,NA,Te bizony sokat spatárzol.,Én is sokat...,spatárzok,spatárzom,lakik,-zik,2,PR2077,2001,nő,nem,2022-04-19_15h18.34.038,hesp_baseline,2021.2.3,Win32,61.75507936
,,,,,,,,,,,,,,,,,spihegzem,spihegzek,right,2.6594,0,57,57,81,1,82,spihegzik,spihegzel,NA,NA,Te bizony sokat spihegzel.,Én is sokat...,spihegzek,spihegzem,lakik,-zik,2,PR2077,2001,nő,nem,2022-04-19_15h18.34.038,hesp_baseline,2021.2.3,Win32,61.75507936
,,,,,,,,,,,,,,,,,spáraklom,spáraklok,right,6.4493,0,58,58,96,1,97,spáraklik,spáraklasz,NA,NA,Te bizony sokat spáraklasz.,Én is sokat...,spáraklok,spáraklom,lakik,-lik,2,PR2077,2001,nő,nem,2022-04-19_15h18.34.038,hesp_baseline,2021.2.3,Win32,61.75507936
,,,,,,,,,,,,,,,,,nyábétban,nyábétben,right,1.6824,0,59,59,21,1,76,nyábét,nyábét,ban,é,Ez itt egy nyábét.,Ott vagyunk a...,nyábétben,nyábétban,dzsungel,NA,NA,PR2077,2001,nő,nem,2022-04-19_15h18.34.038,hesp_baseline,2021.2.3,Win32,61.75507936
,,,,,,,,,,,,,,,,,szirlok,szirlom,left,2.0346,0,60,60,62,1,63,szirlik,szirlasz,NA,NA,Te bizony sokat szirlasz.,Én is sokat...,szirlok,szirlom,lakik,-lik,1,PR2077,2001,nő,nem,2022-04-19_15h18.34.038,hesp_baseline,2021.2.3,Win32,61.75507936
,,,,,,,,,,,,,,,,,kalrézben,kalrézban,left,2.151,0,61,61,16,1,71,kalréz,kalréz,ban,é,Ez itt egy kalréz.,Ott vagyunk a...,kalrézben,kalrézban,dzsungel,NA,NA,PR2077,2001,nő,nem,2022-04-19_15h18.34.038,hesp_baseline,2021.2.3,Win32,61.75507936
,,,,,,,,,,,,,,,,,dabzotok,daboztok,right,1.8033,0,62,62,109,1,56,dabzik / dabozik,"dabzik, dabozni",tek,NA,"János imád dabozni, ezért sokat dabzik.",Ti ritkán...,dabzotok,daboztok,cselekszik,-zik,1,PR2077,2001,nő,nem,2022-04-19_15h18.34.038,hesp_baseline,2021.2.3,Win32,61.75507936
,,,,,,,,,,,,,,,,,dóbemnak,dóbemnek,right,1.283,0,63,63,48,1,103,dóbem,dóbem,nak,e,Ez itt egy dóbem.,Elneveztem a kutyámat...,dóbemnek,dóbemnak,dzsungel,NA,NA,PR2077,2001,nő,nem,2022-04-19_15h18.34.038,hesp_baseline,2021.2.3,Win32,61.75507936
,,,,,,,,,,,,,,,,,friszlok,friszlom,right,1.4232,0,64,64,97,1,98,friszlik,friszlasz,NA,NA,Te bizony sokat friszlasz.,Én is sokat...,friszlok,friszlom,lakik,-lik,1,PR2077,2001,nő,nem,2022-04-19_15h18.34.038,hesp_baseline,2021.2.3,Win32,61.75507936
,,,,,,,,,,,,,,,,,lírlanak,líroznak,left,1.3199,0,65,65,115,1,62,lírlik / lírozik,"lírlik, lírozni",nek,NA,"János imád lírozni, ezért sokat lírlik.",Ők ritkán...,lírlanak,líroznak,cselekszik,-lik,1,PR2077,2001,nő,nem,2022-04-19_15h18.34.038,hesp_baseline,2021.2.3,Win32,61.75507936
,,,,,,,,,,,,,,,,,spüjzöm,spüjzök,left,2.0273,0,66,66,59,1,60,spüjzik,spüjzöl,NA,NA,Te bizony sokat spüjzöl.,Én is sokat...,spüjzök,spüjzöm,lakik,-zik,1,PR2077,2001,nő,nem,2022-04-19_15h18.34.038,hesp_baseline,2021.2.3,Win32,61.75507936
,,,,,,,,,,,,,,,,,ribegzek,ribegzem,left,1.5541,0,67,67,63,1,64,ribegzik,ribegzel,NA,NA,Te bizony sokat ribegzel.,Én is sokat...,ribegzek,ribegzem,lakik,-zik,2,PR2077,2001,nő,nem,2022-04-19_15h18.34.038,hesp_baseline,2021.2.3,Win32,61.75507936
,,,,,,,,,,,,,,,,,cságyeltben,cságyeltban,left,1.4276,0,68,68,10,1,65,cságyelt,cságyelt,ban,e,Ez itt egy cságyelt.,Ott vagyunk a...,cságyeltben,cságyeltban,dzsungel,NA,NA,PR2077,2001,nő,nem,2022-04-19_15h18.34.038,hesp_baseline,2021.2.3,Win32,61.75507936
,,,,,,,,,,,,,,,,,flűgözünk,flűgzünk,right,1.0276,0,69,69,160,1,107,flűgzik / flűgözik,"flűgzik, flűgözni",ünk,NA,"János imád flűgözni, ezért sokat flűgzik.",Mi ritkán...,flűgzünk,flűgözünk,cselekszik,-zik,1,PR2077,2001,nő,nem,2022-04-19_15h18.34.038,hesp_baseline,2021.2.3,Win32,61.75507936
,,,,,,,,,,,,,,,,,flűmlöm,flűmlök,left,0.8216,0,70,70,54,1,55,flűmlik,flűmlesz,NA,NA,Te bizony sokat flűmlesz.,Én is sokat...,flűmlök,flűmlöm,lakik,-lik,1,PR2077,2001,nő,nem,2022-04-19_15h18.34.038,hesp_baseline,2021.2.3,Win32,61.75507936
,,,,,,,,,,,,,,,,,sporzemnek,sporzemnak,left,1.2264,0,71,71,26,1,81,sporzem,sporzem,nak,e,Ez itt egy sporzem.,Elneveztem a kutyámat...,sporzemnek,sporzemnak,dzsungel,NA,NA,PR2077,2001,nő,nem,2022-04-19_15h18.34.038,hesp_baseline,2021.2.3,Win32,61.75507936
,,,,,,,,,,,,,,,,,gyihegeztek,gyihegzetek,right,1.5792,0,72,72,124,1,71,gyihegzik / gyihegezik,"gyihegzik, gyihegezni",tek,NA,"János imád gyihegezni, ezért sokat gyihegzik.",Ti ritkán...,gyihegzetek,gyihegeztek,cselekszik,-zik,2,PR2077,2001,nő,nem,2022-04-19_15h18.34.038,hesp_baseline,2021.2.3,Win32,61.75507936
,,,,,,,,,,,,,,,,,nyádlanak,nyádoznak,left,1.0383,0,73,73,120,1,67,nyádlik / nyádozik,"nyádlik, nyádozni",nek,NA,"János imád nyádozni, ezért sokat nyádlik.",Ők ritkán...,nyádlanak,nyádoznak,cselekszik,-lik,1,PR2077,2001,nő,nem,2022-04-19_15h18.34.038,hesp_baseline,2021.2.3,Win32,61.75507936
,,,,,,,,,,,,,,,,,navecben,navecban,left,1.2935,0,74,74,8,1,63,navec,navec,ban,e,Ez itt egy navec.,Ott vagyunk a...,navecben,navecban,dzsungel,NA,NA,PR2077,2001,nő,nem,2022-04-19_15h18.34.038,hesp_baseline,2021.2.3,Win32,61.75507936
,,,,,,,,,,,,,,,,,driládzok,driládzom,right,1.548,0,75,75,67,1,68,driládzik,driládzol,NA,NA,Te bizony sokat driládzol.,Én is sokat...,driládzok,driládzom,lakik,-zik,2,PR2077,2001,nő,nem,2022-04-19_15h18.34.038,hesp_baseline,2021.2.3,Win32,61.75507936
,,,,,,,,,,,,,,,,,posoztok,poslotok,left,0.8303,0,76,76,121,1,68,poslik / posozik,"poslik, posozni",tek,NA,"János imád posozni, ezért sokat poslik.",Ti ritkán...,poslotok,posoztok,cselekszik,-lik,1,PR2077,2001,nő,nem,2022-04-19_15h18.34.038,hesp_baseline,2021.2.3,Win32,61.75507936
,,,,,,,,,,,,,,,,,csólorzok,csólorzom,right,0.8785,0,77,77,102,1,103,csólorzik,csólorzol,NA,NA,Te bizony sokat csólorzol.,Én is sokat...,csólorzok,csólorzom,lakik,-zik,2,PR2077,2001,nő,nem,2022-04-19_15h18.34.038,hesp_baseline,2021.2.3,Win32,61.75507936
,,,,,,,,,,,,,,,,,bingéjnak,bingéjnek,right,1.2417,0,78,78,49,1,104,bingéj,bingéj,nak,é,Ez itt egy bingéj.,Elneveztem a kutyámat...,bingéjnek,bingéjnak,dzsungel,NA,NA,PR2077,2001,nő,nem,2022-04-19_15h18.34.038,hesp_baseline,2021.2.3,Win32,61.75507936
,,,,,,,,,,,,,,,,,ribzom,ribzok,left,0.915,0,79,79,58,1,59,ribzik,ribzol,NA,NA,Te bizony sokat ribzol.,Én is sokat...,ribzok,ribzom,lakik,-zik,1,PR2077,2001,nő,nem,2022-04-19_15h18.34.038,hesp_baseline,2021.2.3,Win32,61.75507936
,,,,,,,,,,,,,,,,,mihágzotok,mihágoztok,left,1.4197,0,80,80,118,1,65,mihágzik / mihágozik,"mihágzik, mihágozni",tek,NA,"János imád mihágozni, ezért sokat mihágzik.",Ti ritkán...,mihágzotok,mihágoztok,cselekszik,-zik,2,PR2077,2001,nő,nem,2022-04-19_15h18.34.038,hesp_baseline,2021.2.3,Win32,61.75507936
,,,,,,,,,,,,,,,,,spubonylom,spubonylok,right,0.7926,0,81,81,104,1,105,spubonylik,spubonylasz,NA,NA,Te bizony sokat spubonylasz.,Én is sokat...,spubonylok,spubonylom,lakik,-lik,2,PR2077,2001,nő,nem,2022-04-19_15h18.34.038,hesp_baseline,2021.2.3,Win32,61.75507936
,,,,,,,,,,,,,,,,,sojzok,sojzom,right,1.1164,0,82,82,74,1,75,sojzik,sojzol,NA,NA,Te bizony sokat sojzol.,Én is sokat...,sojzok,sojzom,lakik,-zik,1,PR2077,2001,nő,nem,2022-04-19_15h18.34.038,hesp_baseline,2021.2.3,Win32,61.75507936
,,,,,,,,,,,,,,,,,trugoznak,trugzanak,left,0.8407,0,83,83,146,1,93,trugzik / trugozik,"trugzik, trugozni",nek,NA,"János imád trugozni, ezért sokat trugzik.",Ők ritkán...,trugzanak,trugoznak,cselekszik,-zik,1,PR2077,2001,nő,nem,2022-04-19_15h18.34.038,hesp_baseline,2021.2.3,Win32,61.75507936
,,,,,,,,,,,,,,,,,sprigoztok,sprigzotok,right,0.4121,0,84,84,129,1,76,sprigzik / sprigozik,"sprigzik, sprigozni",tek,NA,"János imád sprigozni, ezért sokat sprigzik.",Ti ritkán...,sprigzotok,sprigoztok,cselekszik,-zik,1,PR2077,2001,nő,nem,2022-04-19_15h18.34.038,hesp_baseline,2021.2.3,Win32,61.75507936
,,,,,,,,,,,,,,,,,fájézben,fájézban,left,1.2077,0,85,85,7,1,62,fájéz,fájéz,ban,é,Ez itt egy fájéz.,Ott vagyunk a...,fájézben,fájézban,dzsungel,NA,NA,PR2077,2001,nő,nem,2022-04-19_15h18.34.038,hesp_baseline,2021.2.3,Win32,61.75507936
,,,,,,,,,,,,,,,,,fupétnál,fupétnél,right,1.8415,0,86,86,14,1,69,fupét,fupét,nál,é,Ez itt egy fupét.,Nincs is jobb egy jó...,fupétnél,fupétnál,dzsungel,NA,NA,PR2077,2001,nő,nem,2022-04-19_15h18.34.038,hesp_baseline,2021.2.3,Win32,61.75507936
,,,,,,,,,,,,,,,,,pribemlek,pribemlem,left,1.3364,0,87,87,107,1,108,pribemlik,pribemlesz,NA,NA,Te bizony sokat pribemlesz.,Én is sokat...,pribemlek,pribemlem,lakik,-lik,2,PR2077,2001,nő,nem,2022-04-19_15h18.34.038,hesp_baseline,2021.2.3,Win32,61.75507936
,,,,,,,,,,,,,,,,,ikszertban,ikszertben,right,0.3835,0,88,88,19,1,74,ikszert,ikszert,ban,e,Ez itt egy ikszert.,Ott vagyunk a...,ikszertben,ikszertban,dzsungel,NA,NA,PR2077,2001,nő,nem,2022-04-19_15h18.34.038,hesp_baseline,2021.2.3,Win32,61.75507936
,,,,,,,,,,,,,,,,,fröjöztök,fröjzötök,left,0.8503,0,89,89,153,1,100,fröjzik / fröjözik,"fröjzik, fröjözni",tek,NA,"János imád fröjözni, ezért sokat fröjzik.",Ti ritkán...,fröjzötök,fröjöztök,cselekszik,-zik,1,PR2077,2001,nő,nem,2022-04-19_15h18.34.038,hesp_baseline,2021.2.3,Win32,61.75507936
,,,,,,,,,,,,,,,,,spöklünk,spöközünk,left,1.0677,0,90,90,130,1,77,spöklik / spöközik,"spöklik, spöközni",ünk,NA,"János imád spöközni, ezért sokat spöklik.",Mi ritkán...,spöklünk,spöközünk,cselekszik,-lik,1,PR2077,2001,nő,nem,2022-04-19_15h18.34.038,hesp_baseline,2021.2.3,Win32,61.75507936
,,,,,,,,,,,,,,,,,spivélnek,spivélnak,right,0.3005,0,91,91,27,1,82,spivél,spivél,nak,é,Ez itt egy spivél.,Elneveztem a kutyámat...,spivélnek,spivélnak,dzsungel,NA,NA,PR2077,2001,nő,nem,2022-04-19_15h18.34.038,hesp_baseline,2021.2.3,Win32,61.75507936
,,,,,,,,,,,,,,,,,lijeznak,lijeznek,right,2.1645,0,92,92,40,1,95,lijez,lijez,nak,e,Ez itt egy lijez.,Elneveztem a kutyámat...,lijeznek,lijeznak,dzsungel,NA,NA,PR2077,2001,nő,nem,2022-04-19_15h18.34.038,hesp_baseline,2021.2.3,Win32,61.75507936
,,,,,,,,,,,,,,,,,kluhéjnál,kluhéjnél,right,1.026,0,93,93,24,1,79,kluhéj,kluhéj,nál,é,Ez itt egy kluhéj.,Nincs is jobb egy jó...,kluhéjnél,kluhéjnál,dzsungel,NA,NA,PR2077,2001,nő,nem,2022-04-19_15h18.34.038,hesp_baseline,2021.2.3,Win32,61.75507936
,,,,,,,,,,,,,,,,,spátennak,spátennek,right,1.4812,0,94,94,33,1,88,spáten,spáten,nak,e,Ez itt egy spáten.,Elneveztem a kutyámat...,spátennek,spátennak,dzsungel,NA,NA,PR2077,2001,nő,nem,2022-04-19_15h18.34.038,hesp_baseline,2021.2.3,Win32,61.75507936
,,,,,,,,,,,,,,,,,nyöbzenek,nyöböznek,left,1.1648,0,95,95,152,1,99,nyöbzik / nyöbözik,"nyöbzik, nyöbözni",nek,NA,"János imád nyöbözni, ezért sokat nyöbzik.",Ők ritkán...,nyöbzenek,nyöböznek,cselekszik,-zik,1,PR2077,2001,nő,nem,2022-04-19_15h18.34.038,hesp_baseline,2021.2.3,Win32,61.75507936
,,,,,,,,,,,,,,,,,jóbecnak,jóbecnek,right,1.9792,0,96,96,11,1,66,jóbec,jóbec,nak,e,Ez itt egy jóbec.,Elneveztem a kutyámat...,jóbecnek,jóbecnak,dzsungel,NA,NA,PR2077,2001,nő,nem,2022-04-19_15h18.34.038,hesp_baseline,2021.2.3,Win32,61.75507936
,,,,,,,,,,,,,,,,,nűröklöm,nűröklök,left,0.9776,0,97,97,106,1,107,nűröklik,nűröklesz,NA,NA,Te bizony sokat nűröklesz.,Én is sokat...,nűröklök,nűröklöm,lakik,-lik,2,PR2077,2001,nő,nem,2022-04-19_15h18.34.038,hesp_baseline,2021.2.3,Win32,61.75507936
,,,,,,,,,,,,,,,,,dilaklotok,dilakoztok,right,1.012,0,98,98,158,1,105,dilaklik / dilakozik,"dilaklik, dilakozni",tek,NA,"János imád dilakozni, ezért sokat dilaklik.",Ti ritkán...,dilaklotok,dilakoztok,cselekszik,-lik,2,PR2077,2001,nő,nem,2022-04-19_15h18.34.038,hesp_baseline,2021.2.3,Win32,61.75507936
,,,,,,,,,,,,,,,,,kluzoztok,kluzlotok,left,0.8042,0,99,99,148,1,95,kluzlik / kluzozik,"kluzlik, kluzozni",tek,NA,"János imád kluzozni, ezért sokat kluzlik.",Ti ritkán...,kluzlotok,kluzoztok,cselekszik,-lik,1,PR2077,2001,nő,nem,2022-04-19_15h18.34.038,hesp_baseline,2021.2.3,Win32,61.75507936
,,,,,,,,,,,,,,,,,trírozunk,trírzunk,right,0.7281,0,100,100,116,1,63,trírzik / trírozik,"trírzik, trírozni",ünk,NA,"János imád trírozni, ezért sokat trírzik.",Mi ritkán...,trírzunk,trírozunk,cselekszik,-zik,1,PR2077,2001,nő,nem,2022-04-19_15h18.34.038,hesp_baseline,2021.2.3,Win32,61.75507936
,,,,,,,,,,,,,,,,,frodlok,frodlom,left,1.6957,0,101,101,61,1,62,frodlik,frodlasz,NA,NA,Te bizony sokat frodlasz.,Én is sokat...,frodlok,frodlom,lakik,-lik,1,PR2077,2001,nő,nem,2022-04-19_15h18.34.038,hesp_baseline,2021.2.3,Win32,61.75507936
,,,,,,,,,,,,,,,,,jonylok,jonylom,right,0.6474,0,102,102,55,1,56,jonylik,jonylasz,NA,NA,Te bizony sokat jonylasz.,Én is sokat...,jonylok,jonylom,lakik,-lik,1,PR2077,2001,nő,nem,2022-04-19_15h18.34.038,hesp_baseline,2021.2.3,Win32,61.75507936
,,,,,,,,,,,,,,,,,brivegzem,brivegzek,left,1.5468,0,103,103,70,1,71,brivegzik,brivegzel,NA,NA,Te bizony sokat brivegzel.,Én is sokat...,brivegzek,brivegzem,lakik,-zik,2,PR2077,2001,nő,nem,2022-04-19_15h18.34.038,hesp_baseline,2021.2.3,Win32,61.75507936
,,,,,,,,,,,,,,,,,péleslem,péleslek,right,0.8135,0,104,104,73,1,74,péleslik,péleslesz,NA,NA,Te bizony sokat péleslesz.,Én is sokat...,péleslek,péleslem,lakik,-lik,2,PR2077,2001,nő,nem,2022-04-19_15h18.34.038,hesp_baseline,2021.2.3,Win32,61.75507936
,,,,,,,,,,,,,,,,,gilárzok,gilárzom,left,0.8829,0,105,105,94,1,95,gilárzik,gilárzol,NA,NA,Te bizony sokat gilárzol.,Én is sokat...,gilárzok,gilárzom,lakik,-zik,2,PR2077,2001,nő,nem,2022-04-19_15h18.34.038,hesp_baseline,2021.2.3,Win32,61.75507936
,,,,,,,,,,,,,,,,,prazlunk,prazozunk,right,0.8391,0,106,106,119,1,66,prazlik / prazozik,"prazlik, prazozni",ünk,NA,"János imád prazozni, ezért sokat prazlik.",Mi ritkán...,prazlunk,prazozunk,cselekszik,-lik,1,PR2077,2001,nő,nem,2022-04-19_15h18.34.038,hesp_baseline,2021.2.3,Win32,61.75507936
,,,,,,,,,,,,,,,,,szűslöm,szűslök,left,0.7632,0,107,107,85,1,86,szűslik,szűslesz,NA,NA,Te bizony sokat szűslesz.,Én is sokat...,szűslök,szűslöm,lakik,-lik,1,PR2077,2001,nő,nem,2022-04-19_15h18.34.038,hesp_baseline,2021.2.3,Win32,61.75507936
,,,,,,,,,,,,,,,,,gúdenban,gúdenben,right,2.3164,0,108,108,4,1,59,gúden,gúden,ban,e,Ez itt egy gúden.,Ott vagyunk a...,gúdenben,gúdenban,dzsungel,NA,NA,PR2077,2001,nő,nem,2022-04-19_15h18.34.038,hesp_baseline,2021.2.3,Win32,61.75507936
,,,,,,,,,,,,,,,,,dibáglotok,dibágoztok,left,1.0931,0,109,109,154,1,101,dibáglik / dibágozik,"dibáglik, dibágozni",tek,NA,"János imád dibágozni, ezért sokat dibáglik.",Ti ritkán...,dibáglotok,dibágoztok,cselekszik,-lik,2,PR2077,2001,nő,nem,2022-04-19_15h18.34.038,hesp_baseline,2021.2.3,Win32,61.75507936
,,,,,,,,,,,,,,,,,klidlok,klidlom,right,0.9743,0,110,110,72,1,73,klidlik,klidlasz,NA,NA,Te bizony sokat klidlasz.,Én is sokat...,klidlok,klidlom,lakik,-lik,1,PR2077,2001,nő,nem,2022-04-19_15h18.34.038,hesp_baseline,2021.2.3,Win32,61.75507936
,,,,,,,,,,,,,,,,,prihekszem,prihekszek,left,0.6194,0,111,111,100,1,101,prihekszik,prihekszel,NA,NA,Te bizony sokat prihekszel.,Én is sokat...,prihekszek,prihekszem,lakik,-szik,2,PR2077,2001,nő,nem,2022-04-19_15h18.34.038,hesp_baseline,2021.2.3,Win32,61.75507936
,,,,,,,,,,,,,,,,,plugzok,plugzom,right,1.2015,0,112,112,60,1,61,plugzik,plugzol,NA,NA,Te bizony sokat plugzol.,Én is sokat...,plugzok,plugzom,lakik,-zik,1,PR2077,2001,nő,nem,2022-04-19_15h18.34.038,hesp_baseline,2021.2.3,Win32,61.75507936
,,,,,,,,,,,,,,,,,pratánylok,pratánylom,left,1.2805,0,113,113,95,1,96,pratánylik,pratánylasz,NA,NA,Te bizony sokat pratánylasz.,Én is sokat...,pratánylok,pratánylom,lakik,-lik,2,PR2077,2001,nő,nem,2022-04-19_15h18.34.038,hesp_baseline,2021.2.3,Win32,61.75507936
,,,,,,,,,,,,,,,,,brágédnak,brágédnek,right,1.958,0,114,114,45,1,100,brágéd,brágéd,nak,é,Ez itt egy brágéd.,Elneveztem a kutyámat...,brágédnek,brágédnak,dzsungel,NA,NA,PR2077,2001,nő,nem,2022-04-19_15h18.34.038,hesp_baseline,2021.2.3,Win32,61.75507936
,,,,,,,,,,,,,,,,,fibamlok,fibamlom,left,1.5029,0,115,115,65,1,66,fibamlik,fibamlasz,NA,NA,Te bizony sokat fibamlasz.,Én is sokat...,fibamlok,fibamlom,lakik,-lik,2,PR2077,2001,nő,nem,2022-04-19_15h18.34.038,hesp_baseline,2021.2.3,Win32,61.75507936
,,,,,,,,,,,,,,,,,ronvetnek,ronvetnak,left,1.6988,0,116,116,9,1,64,ronvet,ronvet,nak,e,Ez itt egy ronvet.,Elneveztem a kutyámat...,ronvetnek,ronvetnak,dzsungel,NA,NA,PR2077,2001,nő,nem,2022-04-19_15h18.34.038,hesp_baseline,2021.2.3,Win32,61.75507936
,,,,,,,,,,,,,,,,,femlem,femlek,right,1.3852,0,117,117,57,1,58,femlik,femlesz,NA,NA,Te bizony sokat femlesz.,Én is sokat...,femlek,femlem,lakik,-lik,1,PR2077,2001,nő,nem,2022-04-19_15h18.34.038,hesp_baseline,2021.2.3,Win32,61.75507936
,,,,,,,,,,,,,,,,,frésezünk,fréslünk,right,1.5768,0,118,118,138,1,85,fréslik / frésezik,"fréslik, frésezni",ünk,NA,"János imád frésezni, ezért sokat fréslik.",Mi ritkán...,fréslünk,frésezünk,cselekszik,-lik,1,PR2077,2001,nő,nem,2022-04-19_15h18.34.038,hesp_baseline,2021.2.3,Win32,61.75507936
,,,,,,,,,,,,,,,,,szanéjnek,szanéjnak,left,2.7061,0,119,119,13,1,68,szanéj,szanéj,nak,é,Ez itt egy szanéj.,Elneveztem a kutyámat...,szanéjnek,szanéjnak,dzsungel,NA,NA,PR2077,2001,nő,nem,2022-04-19_15h18.34.038,hesp_baseline,2021.2.3,Win32,61.75507936
,,,,,,,,,,,,,,,,,trigencnak,trigencnek,right,5.7137,0,120,120,31,1,86,trigenc,trigenc,nak,e,Ez itt egy trigenc.,Elneveztem a kutyámat...,trigencnek,trigencnak,dzsungel,NA,NA,PR2077,2001,nő,nem,2022-04-19_15h18.34.038,hesp_baseline,2021.2.3,Win32,61.75507936
,,,,,,,,,,,,,,,,,floglom,floglok,right,2.0573,0,121,121,92,1,93,floglik,floglasz,NA,NA,Te bizony sokat floglasz.,Én is sokat...,floglok,floglom,lakik,-lik,1,PR2077,2001,nő,nem,2022-04-19_15h18.34.038,hesp_baseline,2021.2.3,Win32,61.75507936
,,,,,,,,,,,,,,,,,frivamlunk,frivamozunk,left,2.4822,0,122,122,122,1,69,frivamlik / frivamozik,"frivamlik, frivamozni",ünk,NA,"János imád frivamozni, ezért sokat frivamlik.",Mi ritkán...,frivamlunk,frivamozunk,cselekszik,-lik,2,PR2077,2001,nő,nem,2022-04-19_15h18.34.038,hesp_baseline,2021.2.3,Win32,61.75507936
,,,,,,,,,,,,,,,,,hákodnak,hákszanak,left,2.7894,0,123,123,150,1,97,hákszik / hákodik,"hákszik, hákodni",nek,NA,"János imád hákodni, ezért sokat hákszik.",Ők ritkán...,hákszanak,hákodnak,cselekszik,-szik,1,PR2077,2001,nő,nem,2022-04-19_15h18.34.038,hesp_baseline,2021.2.3,Win32,61.75507936
,,,,,,,,,,,,,,,,,spibeglünk,spibegezünk,right,2.1297,0,124,124,147,1,94,spibeglik / spibegezik,"spibeglik, spibegezni",ünk,NA,"János imád spibegezni, ezért sokat spibeglik.",Mi ritkán...,spibeglünk,spibegezünk,cselekszik,-lik,2,PR2077,2001,nő,nem,2022-04-19_15h18.34.038,hesp_baseline,2021.2.3,Win32,61.75507936
,,,,,,,,,,,,,,,,,livényezünk,livénylünk,left,1.2094,0,125,125,128,1,75,livénylik / livényezik,"livénylik, livényezni",ünk,NA,"János imád livényezni, ezért sokat livénylik.",Mi ritkán...,livénylünk,livényezünk,cselekszik,-lik,2,PR2077,2001,nő,nem,2022-04-19_15h18.34.038,hesp_baseline,2021.2.3,Win32,61.75507936
,,,,,,,,,,,,,,,,,klehényletek,klehényeztek,right,1.3436,0,126,126,113,1,60,klehénylik / klehényezik,"klehénylik, klehényezni",tek,NA,"János imád klehényezni, ezért sokat klehénylik.",Ti ritkán...,klehényletek,klehényeztek,cselekszik,-lik,2,PR2077,2001,nő,nem,2022-04-19_15h18.34.038,hesp_baseline,2021.2.3,Win32,61.75507936
,,,,,,,,,,,,,,,,,klingeszban,klingeszben,right,2.4641,0,127,127,1,1,56,klingesz,klingesz,ban,e,Ez itt egy klingesz.,Ott vagyunk a...,klingeszben,klingeszban,dzsungel,NA,NA,PR2077,2001,nő,nem,2022-04-19_15h18.34.038,hesp_baseline,2021.2.3,Win32,61.75507936
,,,,,,,,,,,,,,,,,lorjódzom,lorjódzok,right,1.228,0,128,128,88,1,89,lorjódzik,lorjódzol,NA,NA,Te bizony sokat lorjódzol.,Én is sokat...,lorjódzok,lorjódzom,lakik,-zik,2,PR2077,2001,nő,nem,2022-04-19_15h18.34.038,hesp_baseline,2021.2.3,Win32,61.75507936
,,,,,,,,,,,,,,,,,prihegszenek,prihegednek,left,1.1741,0,129,129,155,1,102,prihegszik / prihegedik,"prihegszik, prihegedni",nek,NA,"János imád prihegedni, ezért sokat prihegszik.",Ők ritkán...,prihegszenek,prihegednek,cselekszik,-szik,2,PR2077,2001,nő,nem,2022-04-19_15h18.34.038,hesp_baseline,2021.2.3,Win32,61.75507936
,,,,,,,,,,,,,,,,,csubozunk,csubzunk,right,1.1133,0,130,130,111,1,58,csubzik / csubozik,"csubzik, csubozni",ünk,NA,"János imád csubozni, ezért sokat csubzik.",Mi ritkán...,csubzunk,csubozunk,cselekszik,-zik,1,PR2077,2001,nő,nem,2022-04-19_15h18.34.038,hesp_baseline,2021.2.3,Win32,61.75507936
,,,,,,,,,,,,,,,,,bribékedtek,bribékszetek,right,1.4499,0,131,131,141,1,88,bribékszik / bribékedik,"bribékszik, bribékedni",tek,NA,"János imád bribékedni, ezért sokat bribékszik.",Ti ritkán...,bribékszetek,bribékedtek,cselekszik,-szik,2,PR2077,2001,nő,nem,2022-04-19_15h18.34.038,hesp_baseline,2021.2.3,Win32,61.75507936
,,,,,,,,,,,,,,,,,flátszok,flátszom,left,2.511,0,132,132,98,1,99,flátszik,flátszol,NA,NA,Te bizony sokat flátszol.,Én is sokat...,flátszok,flátszom,lakik,-szik,1,PR2077,2001,nő,nem,2022-04-19_15h18.34.038,hesp_baseline,2021.2.3,Win32,61.75507936
,,,,,,,,,,,,,,,,,tiregzek,tiregzem,right,1.101,0,133,133,64,1,65,tiregzik,tiregzel,NA,NA,Te bizony sokat tiregzel.,Én is sokat...,tiregzek,tiregzem,lakik,-zik,2,PR2077,2001,nő,nem,2022-04-19_15h18.34.038,hesp_baseline,2021.2.3,Win32,61.75507936
,,,,,,,,,,,,,,,,,sprűrlenek,sprűröznek,right,1.1709,0,134,134,135,1,82,sprűrlik / sprűrözik,"sprűrlik, sprűrözni",nek,NA,"János imád sprűrözni, ezért sokat sprűrlik.",Ők ritkán...,sprűrlenek,sprűröznek,cselekszik,-lik,1,PR2077,2001,nő,nem,2022-04-19_15h18.34.038,hesp_baseline,2021.2.3,Win32,61.75507936
,,,,,,,,,,,,,,,,,jábézben,jábézban,left,1.3937,0,135,135,34,1,89,jábéz,jábéz,ban,é,Ez itt egy jábéz.,Ott vagyunk a...,jábézben,jábézban,dzsungel,NA,NA,PR2077,2001,nő,nem,2022-04-19_15h18.34.038,hesp_baseline,2021.2.3,Win32,61.75507936
,,,,,,,,,,,,,,,,,drojzunk,drojozunk,right,0.8496,0,136,136,140,1,87,drojzik / drojozik,"drojzik, drojozni",ünk,NA,"János imád drojozni, ezért sokat drojzik.",Mi ritkán...,drojzunk,drojozunk,cselekszik,-zik,1,PR2077,2001,nő,nem,2022-04-19_15h18.34.038,hesp_baseline,2021.2.3,Win32,61.75507936
,,,,,,,,,,,,,,,,,töglenek,tögöznek,left,0.5805,0,137,137,156,1,103,töglik / tögözik,"töglik, tögözni",nek,NA,"János imád tögözni, ezért sokat töglik.",Ők ritkán...,töglenek,tögöznek,cselekszik,-lik,1,PR2077,2001,nő,nem,2022-04-19_15h18.34.038,hesp_baseline,2021.2.3,Win32,61.75507936
,,,,,,,,,,,,,,,,,frálasoznak,frálaslanak,right,0.3559,0,138,138,110,1,57,frálaslik / frálasozik,"frálaslik, frálasozni",nek,NA,"János imád frálasozni, ezért sokat frálaslik.",Ők ritkán...,frálaslanak,frálasoznak,cselekszik,-lik,2,PR2077,2001,nő,nem,2022-04-19_15h18.34.038,hesp_baseline,2021.2.3,Win32,61.75507936
,,,,,,,,,,,,,,,,,csíszlok,csíszlom,left,0.2708,0,139,139,84,1,85,csíszlik,csíszlasz,NA,NA,Te bizony sokat csíszlasz.,Én is sokat...,csíszlok,csíszlom,lakik,-lik,1,PR2077,2001,nő,nem,2022-04-19_15h18.34.038,hesp_baseline,2021.2.3,Win32,61.75507936
,,,,,,,,,,,,,,,,,fojlegynak,fojlegynek,right,0.2292,0,140,140,3,1,58,fojlegy,fojlegy,nak,e,Ez itt egy fojlegy.,Elneveztem a kutyámat...,fojlegynek,fojlegynak,dzsungel,NA,NA,PR2077,2001,nő,nem,2022-04-19_15h18.34.038,hesp_baseline,2021.2.3,Win32,61.75507936
,,,,,,,,,,,,,,,,,fligzom,fligzok,left,1.0328,0,141,141,103,1,104,fligzik,fligzol,NA,NA,Te bizony sokat fligzol.,Én is sokat...,fligzok,fligzom,lakik,-zik,1,PR2077,2001,nő,nem,2022-04-19_15h18.34.038,hesp_baseline,2021.2.3,Win32,61.75507936
,,,,,,,,,,,,,,,,,dineltban,dineltben,right,1.2927,0,142,142,0,1,55,dinelt,dinelt,ban,e,Ez itt egy dinelt.,Ott vagyunk a...,dineltben,dineltban,dzsungel,NA,NA,PR2077,2001,nő,nem,2022-04-19_15h18.34.038,hesp_baseline,2021.2.3,Win32,61.75507936
,,,,,,,,,,,,,,,,,rapszeknál,rapszeknél,right,1.8614,0,143,143,35,1,90,rapszek,rapszek,nál,e,Ez itt egy rapszek.,Nincs is jobb egy jó...,rapszeknél,rapszeknál,dzsungel,NA,NA,PR2077,2001,nő,nem,2022-04-19_15h18.34.038,hesp_baseline,2021.2.3,Win32,61.75507936
,,,,,,,,,,,,,,,,,tumélynél,tumélynál,left,1.8667,0,144,144,28,1,83,tumély,tumély,nál,é,Ez itt egy tumély.,Nincs is jobb egy jó...,tumélynél,tumélynál,dzsungel,NA,NA,PR2077,2001,nő,nem,2022-04-19_15h18.34.038,hesp_baseline,2021.2.3,Win32,61.75507936
,,,,,,,,,,,,,,,,,vorszennél,vorszennál,left,1.2658,0,145,145,30,1,85,vorszen,vorszen,nál,e,Ez itt egy vorszen.,Nincs is jobb egy jó...,vorszennél,vorszennál,dzsungel,NA,NA,PR2077,2001,nő,nem,2022-04-19_15h18.34.038,hesp_baseline,2021.2.3,Win32,61.75507936
,,,,,,,,,,,,,,,,,flüröslök,flüröslöm,right,0.8732,0,146,146,87,1,88,flüröslik,flüröslesz,NA,NA,Te bizony sokat flüröslesz.,Én is sokat...,flüröslök,flüröslöm,lakik,-lik,2,PR2077,2001,nő,nem,2022-04-19_15h18.34.038,hesp_baseline,2021.2.3,Win32,61.75507936
,,,,,,,,,,,,,,,,,klajrénnek,klajrénnak,left,1.3113,0,147,147,41,1,96,klajrén,klajrén,nak,é,Ez itt egy klajrén.,Elneveztem a kutyámat...,klajrénnek,klajrénnak,dzsungel,NA,NA,PR2077,2001,nő,nem,2022-04-19_15h18.34.038,hesp_baseline,2021.2.3,Win32,61.75507936
,,,,,,,,,,,,,,,,,lihadzok,lihadzom,right,0.7334,0,148,148,101,1,102,lihadzik,lihadzol,NA,NA,Te bizony sokat lihadzol.,Én is sokat...,lihadzok,lihadzom,lakik,-zik,2,PR2077,2001,nő,nem,2022-04-19_15h18.34.038,hesp_baseline,2021.2.3,Win32,61.75507936
,,,,,,,,,,,,,,,,,sprebeznek,sprebzenek,left,0.8284,0,149,149,139,1,86,sprebzik / sprebezik,"sprebzik, sprebezni",nek,NA,"János imád sprebezni, ezért sokat sprebzik.",Ők ritkán...,sprebzenek,sprebeznek,cselekszik,-zik,1,PR2077,2001,nő,nem,2022-04-19_15h18.34.038,hesp_baseline,2021.2.3,Win32,61.75507936
,,,,,,,,,,,,,,,,,zihencnak,zihencnek,right,2.0629,0,150,150,52,1,107,zihenc,zihenc,nak,e,Ez itt egy zihenc.,Elneveztem a kutyámat...,zihencnek,zihencnak,dzsungel,NA,NA,PR2077,2001,nő,nem,2022-04-19_15h18.34.038,hesp_baseline,2021.2.3,Win32,61.75507936
,,,,,,,,,,,,,,,,,flubokoztok,fluboklotok,right,1.3995,0,151,151,151,1,98,fluboklik / flubokozik,"fluboklik, flubokozni",tek,NA,"János imád flubokozni, ezért sokat fluboklik.",Ti ritkán...,fluboklotok,flubokoztok,cselekszik,-lik,2,PR2077,2001,nő,nem,2022-04-19_15h18.34.038,hesp_baseline,2021.2.3,Win32,61.75507936
,,,,,,,,,,,,,,,,,ítensban,ítensben,right,2.7792,0,152,152,50,1,105,ítens,ítens,ban,e,Ez itt egy ítens.,Ott vagyunk a...,ítensben,ítensban,dzsungel,NA,NA,PR2077,2001,nő,nem,2022-04-19_15h18.34.038,hesp_baseline,2021.2.3,Win32,61.75507936
,,,,,,,,,,,,,,,,,nidétban,nidétben,right,2.1332,0,153,153,39,1,94,nidét,nidét,ban,é,Ez itt egy nidét.,Ott vagyunk a...,nidétben,nidétban,dzsungel,NA,NA,PR2077,2001,nő,nem,2022-04-19_15h18.34.038,hesp_baseline,2021.2.3,Win32,61.75507936
,,,,,,,,,,,,,,,,,bivégszem,bivégszek,left,1.694,0,154,154,68,1,69,bivégszik,bivégszel,NA,NA,Te bizony sokat bivégszel.,Én is sokat...,bivégszek,bivégszem,lakik,-szik,2,PR2077,2001,nő,nem,2022-04-19_15h18.34.038,hesp_baseline,2021.2.3,Win32,61.75507936
,,,,,,,,,,,,,,,,,fivénylem,fivénylek,right,0.9689,0,155,155,78,1,79,fivénylik,fivénylesz,NA,NA,Te bizony sokat fivénylesz.,Én is sokat...,fivénylek,fivénylem,lakik,-lik,2,PR2077,2001,nő,nem,2022-04-19_15h18.34.038,hesp_baseline,2021.2.3,Win32,61.75507936
,,,,,,,,,,,,,,,,,pítendben,pítendban,left,1.3344,0,156,156,18,1,73,pítend,pítend,ban,e,Ez itt egy pítend.,Ott vagyunk a...,pítendben,pítendban,dzsungel,NA,NA,PR2077,2001,nő,nem,2022-04-19_15h18.34.038,hesp_baseline,2021.2.3,Win32,61.75507936
,,,,,,,,,,,,,,,,,sprízemnél,sprízemnál,left,1.4016,0,157,157,22,1,77,sprízem,sprízem,nál,e,Ez itt egy sprízem.,Nincs is jobb egy jó...,sprízemnél,sprízemnál,dzsungel,NA,NA,PR2077,2001,nő,nem,2022-04-19_15h18.34.038,hesp_baseline,2021.2.3,Win32,61.75507936
,,,,,,,,,,,,,,,,,pratelynek,pratelynak,left,1.6865,0,158,158,47,1,102,prately,prately,nak,e,Ez itt egy prately.,Elneveztem a kutyámat...,pratelynek,pratelynak,dzsungel,NA,NA,PR2077,2001,nő,nem,2022-04-19_15h18.34.038,hesp_baseline,2021.2.3,Win32,61.75507936
,,,,,,,,,,,,,,,,,júdernek,júdernak,left,1.192,0,159,159,53,1,108,júder,júder,nak,e,Ez itt egy júder.,Elneveztem a kutyámat...,júdernek,júdernak,dzsungel,NA,NA,PR2077,2001,nő,nem,2022-04-19_15h18.34.038,hesp_baseline,2021.2.3,Win32,61.75507936
,,,,,,,,,,,,,,,,,molszotok,molodtok,right,1.4267,0,160,160,142,1,89,molszik / molodik,"molszik, molodni",tek,NA,"János imád molodni, ezért sokat molszik.",Ti ritkán...,molszotok,molodtok,cselekszik,-szik,1,PR2077,2001,nő,nem,2022-04-19_15h18.34.038,hesp_baseline,2021.2.3,Win32,61.75507936
,,,,,,,,,,,,,,,,,sprogzok,sprogzom,right,0.8333,0,161,161,89,1,90,sprogzik,sprogzol,NA,NA,Te bizony sokat sprogzol.,Én is sokat...,sprogzok,sprogzom,lakik,-zik,1,PR2077,2001,nő,nem,2022-04-19_15h18.34.038,hesp_baseline,2021.2.3,Win32,61.75507936
