my_list,key.keys,key.rt,key_2.keys,key_2.rt,keyboard_input_2.keys,keyboard_input_2.rt,key_3.keys,key_3.rt,keyboard_input_3.keys,keyboard_input_3.rt,key_4.keys,key_4.rt,keyboard_input_4.keys,keyboard_input_4.rt,key_5.keys,key_5.rt,my_button1,my_button2,keyboard_input.keys,keyboard_input.rt,withinBlock.thisRepN,withinBlock.thisTrialN,withinBlock.thisN,withinBlock.thisIndex,withinBlock.ran,rowname,word,prompt,suffix,vowel,carrier_sentence,target_sentence,target1,target2,category,derivational,nsyl,Azonosító,Melyik évben születtél?,Mi a nemed?,Tanultál nyelvészetet?,date,expName,psychopyVersion,OS,frameRate
list1.csv,space,12.0597,space,7.5807,right,5.9288,space,10.0959,left,3.1265,space,7.0332,left,4.3384,space,73.8127,frágapszom,frágapszok,left,4.6382,0,0,0,60,1,7,frágapszik,frágapszol,NA,NA,Te bizony sokat frágapszol.,Én is sokat...,frágapszok,frágapszom,lakik,-szik,2,nincsen,2000,nő,nem,2022-04-01_13h59.34.312,hesp_baseline,2021.2.3,Win32,60.82725061
,,,,,,,,,,,,,,,,,sprédlek,sprédlem,left,3.2486,0,1,1,70,1,17,sprédlik,sprédlesz,NA,NA,Te bizony sokat sprédlesz.,Én is sokat...,sprédlek,sprédlem,lakik,-lik,1,nincsen,2000,nő,nem,2022-04-01_13h59.34.312,hesp_baseline,2021.2.3,Win32,60.82725061
,,,,,,,,,,,,,,,,,klaráglom,klaráglok,right,2.7164,0,2,2,91,1,38,klaráglik,klaráglasz,NA,NA,Te bizony sokat klaráglasz.,Én is sokat...,klaráglok,klaráglom,lakik,-lik,2,nincsen,2000,nő,nem,2022-04-01_13h59.34.312,hesp_baseline,2021.2.3,Win32,60.82725061
,,,,,,,,,,,,,,,,,nyülöklenek,nyülököznek,left,15.3415,0,3,3,108,1,1,nyülöklik / nyülöközik,"nyülöklik, nyülöközni",nek,NA,"János imád nyülöközni, ezért sokat nyülöklik.",Ők ritkán...,nyülöklenek,nyülököznek,cselekszik,-lik,2,nincsen,2000,nő,nem,2022-04-01_13h59.34.312,hesp_baseline,2021.2.3,Win32,60.82725061
,,,,,,,,,,,,,,,,,pöröztök,pörzötök,left,3.8118,0,4,4,153,1,46,pörzik / pörözik,"pörzik, pörözni",tek,NA,"János imád pörözni, ezért sokat pörzik.",Ti ritkán...,pörzötök,pöröztök,cselekszik,-zik,1,nincsen,2000,nő,nem,2022-04-01_13h59.34.312,hesp_baseline,2021.2.3,Win32,60.82725061
,,,,,,,,,,,,,,,,,drűröznek,drűrzenek,right,2.1058,0,5,5,126,1,19,drűrzik / drűrözik,"drűrzik, drűrözni",nek,NA,"János imád drűrözni, ezért sokat drűrzik.",Ők ritkán...,drűrzenek,drűröznek,cselekszik,-zik,1,nincsen,2000,nő,nem,2022-04-01_13h59.34.312,hesp_baseline,2021.2.3,Win32,60.82725061
,,,,,,,,,,,,,,,,,préleglek,préleglem,right,4.0235,0,6,6,104,1,51,préleglik,préleglesz,NA,NA,Te bizony sokat préleglesz.,Én is sokat...,préleglek,préleglem,lakik,-lik,2,nincsen,2000,nő,nem,2022-04-01_13h59.34.312,hesp_baseline,2021.2.3,Win32,60.82725061
,,,,,,,,,,,,,,,,,spibádzok,spibádzom,right,3.3752,0,7,7,65,1,12,spibádzik,spibádzol,NA,NA,Te bizony sokat spibádzol.,Én is sokat...,spibádzok,spibádzom,lakik,-zik,2,nincsen,2000,nő,nem,2022-04-01_13h59.34.312,hesp_baseline,2021.2.3,Win32,60.82725061
,,,,,,,,,,,,,,,,,pítszok,pítszom,right,3.26,0,8,8,62,1,9,pítszik,pítszol,NA,NA,Te bizony sokat pítszol.,Én is sokat...,pítszok,pítszom,lakik,-szik,1,nincsen,2000,nő,nem,2022-04-01_13h59.34.312,hesp_baseline,2021.2.3,Win32,60.82725061
,,,,,,,,,,,,,,,,,jukélnél,jukélnál,left,3.091,0,9,9,42,1,43,jukél,jukél,nál,é,Ez itt egy jukél.,Nincs is jobb egy jó...,jukélnél,jukélnál,dzsungel,NA,NA,nincsen,2000,nő,nem,2022-04-01_13h59.34.312,hesp_baseline,2021.2.3,Win32,60.82725061
,,,,,,,,,,,,,,,,,bölszöm,bölszök,left,3.7414,0,10,10,105,1,52,bölszik,bölszöl,NA,NA,Te bizony sokat bölszöl.,Én is sokat...,bölszök,bölszöm,lakik,-szik,1,nincsen,2000,nő,nem,2022-04-01_13h59.34.312,hesp_baseline,2021.2.3,Win32,60.82725061
,,,,,,,,,,,,,,,,,bralképben,bralképban,left,34.4053,0,11,11,12,1,13,bralkép,bralkép,ban,é,Ez itt egy bralkép.,Ott vagyunk a...,bralképben,bralképban,dzsungel,NA,NA,nincsen,2000,nő,nem,2022-04-01_13h59.34.312,hesp_baseline,2021.2.3,Win32,60.82725061
,,,,,,,,,,,,,,,,,plűbzöm,plűbzök,left,1.9938,0,12,12,107,1,54,plűbzik,plűbzöl,NA,NA,Te bizony sokat plűbzöl.,Én is sokat...,plűbzök,plűbzöm,lakik,-zik,1,nincsen,2000,nő,nem,2022-04-01_13h59.34.312,hesp_baseline,2021.2.3,Win32,60.82725061
,,,,,,,,,,,,,,,,,matézben,matézban,right,1.9083,0,13,13,37,1,38,matéz,matéz,ban,é,Ez itt egy matéz.,Ott vagyunk a...,matézben,matézban,dzsungel,NA,NA,nincsen,2000,nő,nem,2022-04-01_13h59.34.312,hesp_baseline,2021.2.3,Win32,60.82725061
,,,,,,,,,,,,,,,,,csarténynek,csarténynak,right,0.9419,0,14,14,36,1,37,csartény,csartény,nak,é,Ez itt egy csartény.,Elneveztem a kutyámat...,csarténynek,csarténynak,dzsungel,NA,NA,nincsen,2000,nő,nem,2022-04-01_13h59.34.312,hesp_baseline,2021.2.3,Win32,60.82725061
,,,,,,,,,,,,,,,,,vodépnek,vodépnak,left,1.0434,0,15,15,41,1,42,vodép,vodép,nak,é,Ez itt egy vodép.,Elneveztem a kutyámat...,vodépnek,vodépnak,dzsungel,NA,NA,nincsen,2000,nő,nem,2022-04-01_13h59.34.312,hesp_baseline,2021.2.3,Win32,60.82725061
,,,,,,,,,,,,,,,,,frélegzünk,frélegezünk,left,0.5227,0,16,16,147,1,40,frélegzik / frélegezik,"frélegzik, frélegezni",ünk,NA,"János imád frélegezni, ezért sokat frélegzik.",Mi ritkán...,frélegzünk,frélegezünk,cselekszik,-zik,2,nincsen,2000,nő,nem,2022-04-01_13h59.34.312,hesp_baseline,2021.2.3,Win32,60.82725061
,,,,,,,,,,,,,,,,,dirányoznak,diránylanak,right,0.3408,0,17,17,122,1,15,diránylik / dirányozik,"diránylik, dirányozni",nek,NA,"János imád dirányozni, ezért sokat diránylik.",Ők ritkán...,diránylanak,dirányoznak,cselekszik,-lik,2,nincsen,2000,nő,nem,2022-04-01_13h59.34.312,hesp_baseline,2021.2.3,Win32,60.82725061
,,,,,,,,,,,,,,,,,zsúdelnek,zsúdelnak,right,0.3238,0,18,18,14,1,15,zsúdel,zsúdel,nak,e,Ez itt egy zsúdel.,Elneveztem a kutyámat...,zsúdelnek,zsúdelnak,dzsungel,NA,NA,nincsen,2000,nő,nem,2022-04-01_13h59.34.312,hesp_baseline,2021.2.3,Win32,60.82725061
,,,,,,,,,,,,,,,,,géregletek,géregeztek,left,0.7263,0,19,19,124,1,17,géreglik / géregezik,"géreglik, géregezni",tek,NA,"János imád géregezni, ezért sokat géreglik.",Ti ritkán...,géregletek,géregeztek,cselekszik,-lik,2,nincsen,2000,nő,nem,2022-04-01_13h59.34.312,hesp_baseline,2021.2.3,Win32,60.82725061
,,,,,,,,,,,,,,,,,klörlöm,klörlök,right,0.3242,0,20,20,80,1,27,klörlik,klörlesz,NA,NA,Te bizony sokat klörlesz.,Én is sokat...,klörlök,klörlöm,lakik,-lik,1,nincsen,2000,nő,nem,2022-04-01_13h59.34.312,hesp_baseline,2021.2.3,Win32,60.82725061
,,,,,,,,,,,,,,,,,trukodtok,trukszotok,right,0.8233,0,21,21,157,1,50,trukszik / trukodik,"trukszik, trukodni",tek,NA,"János imád trukodni, ezért sokat trukszik.",Ti ritkán...,trukszotok,trukodtok,cselekszik,-szik,1,nincsen,2000,nő,nem,2022-04-01_13h59.34.312,hesp_baseline,2021.2.3,Win32,60.82725061
,,,,,,,,,,,,,,,,,spicetnek,spicetnak,right,0.5926,0,22,22,35,1,36,spicet,spicet,nak,e,Ez itt egy spicet.,Elneveztem a kutyámat...,spicetnek,spicetnak,dzsungel,NA,NA,nincsen,2000,nő,nem,2022-04-01_13h59.34.312,hesp_baseline,2021.2.3,Win32,60.82725061
,,,,,,,,,,,,,,,,,málapszom,málapszok,left,0.5083,0,23,23,66,1,13,málapszik,málapszol,NA,NA,Te bizony sokat málapszol.,Én is sokat...,málapszok,málapszom,lakik,-szik,2,nincsen,2000,nő,nem,2022-04-01_13h59.34.312,hesp_baseline,2021.2.3,Win32,60.82725061
,,,,,,,,,,,,,,,,,huklom,huklok,right,0.365,0,24,24,78,1,25,huklik,huklasz,NA,NA,Te bizony sokat huklasz.,Én is sokat...,huklok,huklom,lakik,-lik,1,nincsen,2000,nő,nem,2022-04-01_13h59.34.312,hesp_baseline,2021.2.3,Win32,60.82725061
,,,,,,,,,,,,,,,,,jalrénynél,jalrénynál,right,0.4658,0,25,25,0,1,1,jalrény,jalrény,nál,é,Ez itt egy jalrény.,Nincs is jobb egy jó...,jalrénynél,jalrénynál,dzsungel,NA,NA,nincsen,2000,nő,nem,2022-04-01_13h59.34.312,hesp_baseline,2021.2.3,Win32,60.82725061
,,,,,,,,,,,,,,,,,hosétnek,hosétnak,right,1.249,0,26,26,8,1,9,hosét,hosét,nak,é,Ez itt egy hosét.,Elneveztem a kutyámat...,hosétnek,hosétnak,dzsungel,NA,NA,nincsen,2000,nő,nem,2022-04-01_13h59.34.312,hesp_baseline,2021.2.3,Win32,60.82725061
,,,,,,,,,,,,,,,,,livaklom,livaklok,left,2.7078,0,27,27,82,1,29,livaklik,livaklasz,NA,NA,Te bizony sokat livaklasz.,Én is sokat...,livaklok,livaklom,lakik,-lik,2,nincsen,2000,nő,nem,2022-04-01_13h59.34.312,hesp_baseline,2021.2.3,Win32,60.82725061
,,,,,,,,,,,,,,,,,brobódzok,brobódzom,right,1.3667,0,28,28,96,1,43,brobódzik,brobódzol,NA,NA,Te bizony sokat brobódzol.,Én is sokat...,brobódzok,brobódzom,lakik,-zik,2,nincsen,2000,nő,nem,2022-04-01_13h59.34.312,hesp_baseline,2021.2.3,Win32,60.82725061
,,,,,,,,,,,,,,,,,vihapodunk,vihapszunk,right,1.8904,0,29,29,112,1,5,vihapszik / vihapodik,"vihapszik, vihapodni",ünk,NA,"János imád vihapodni, ezért sokat vihapszik.",Mi ritkán...,vihapszunk,vihapodunk,cselekszik,-szik,2,nincsen,2000,nő,nem,2022-04-01_13h59.34.312,hesp_baseline,2021.2.3,Win32,60.82725061
,,,,,,,,,,,,,,,,,pisélyban,pisélyben,right,4.5082,0,30,30,21,1,22,pisély,pisély,ban,é,Ez itt egy pisély.,Ott vagyunk a...,pisélyben,pisélyban,dzsungel,NA,NA,nincsen,2000,nő,nem,2022-04-01_13h59.34.312,hesp_baseline,2021.2.3,Win32,60.82725061
,,,,,,,,,,,,,,,,,drügzök,drügzöm,right,9.5621,0,31,31,72,1,19,drügzik,drügzöl,NA,NA,Te bizony sokat drügzöl.,Én is sokat...,drügzök,drügzöm,lakik,-zik,1,nincsen,2000,nő,nem,2022-04-01_13h59.34.312,hesp_baseline,2021.2.3,Win32,60.82725061
,,,,,,,,,,,,,,,,,fágyépnál,fágyépnél,right,31.6893,0,32,32,10,1,11,fágyép,fágyép,nál,é,Ez itt egy fágyép.,Nincs is jobb egy jó...,fágyépnél,fágyépnál,dzsungel,NA,NA,nincsen,2000,nő,nem,2022-04-01_13h59.34.312,hesp_baseline,2021.2.3,Win32,60.82725061
,,,,,,,,,,,,,,,,,dujoznak,dujzanak,right,0.4787,0,33,33,128,1,21,dujzik / dujozik,"dujzik, dujozni",nek,NA,"János imád dujozni, ezért sokat dujzik.",Ők ritkán...,dujzanak,dujoznak,cselekszik,-zik,1,nincsen,2000,nő,nem,2022-04-01_13h59.34.312,hesp_baseline,2021.2.3,Win32,60.82725061
,,,,,,,,,,,,,,,,,flérlek,flérlem,right,0.275,0,34,34,89,1,36,flérlik,flérlesz,NA,NA,Te bizony sokat flérlesz.,Én is sokat...,flérlek,flérlem,lakik,-lik,1,nincsen,2000,nő,nem,2022-04-01_13h59.34.312,hesp_baseline,2021.2.3,Win32,60.82725061
,,,,,,,,,,,,,,,,,filágzom,filágzok,left,0.2267,0,35,35,102,1,49,filágzik,filágzol,NA,NA,Te bizony sokat filágzol.,Én is sokat...,filágzok,filágzom,lakik,-zik,2,nincsen,2000,nő,nem,2022-04-01_13h59.34.312,hesp_baseline,2021.2.3,Win32,60.82725061
,,,,,,,,,,,,,,,,,riványlotok,riványoztok,right,0.2137,0,36,36,117,1,10,riványlik / riványozik,"riványlik, riványozni",tek,NA,"János imád riványozni, ezért sokat riványlik.",Ti ritkán...,riványlotok,riványoztok,cselekszik,-lik,2,nincsen,2000,nő,nem,2022-04-01_13h59.34.312,hesp_baseline,2021.2.3,Win32,60.82725061
,,,,,,,,,,,,,,,,,jüslök,jüslöm,right,0.4827,0,37,37,56,1,3,jüslik,jüslesz,NA,NA,Te bizony sokat jüslesz.,Én is sokat...,jüslök,jüslöm,lakik,-lik,1,nincsen,2000,nő,nem,2022-04-01_13h59.34.312,hesp_baseline,2021.2.3,Win32,60.82725061
,,,,,,,,,,,,,,,,,kaszépnak,kaszépnek,left,0.2934,0,38,38,40,1,41,kaszép,kaszép,nak,é,Ez itt egy kaszép.,Elneveztem a kutyámat...,kaszépnek,kaszépnak,dzsungel,NA,NA,nincsen,2000,nő,nem,2022-04-01_13h59.34.312,hesp_baseline,2021.2.3,Win32,60.82725061
,,,,,,,,,,,,,,,,,kűdlenek,kűdöznek,left,0.2779,0,39,39,142,1,35,kűdlik / kűdözik,"kűdlik, kűdözni",nek,NA,"János imád kűdözni, ezért sokat kűdlik.",Ők ritkán...,kűdlenek,kűdöznek,cselekszik,-lik,1,nincsen,2000,nő,nem,2022-04-01_13h59.34.312,hesp_baseline,2021.2.3,Win32,60.82725061
,,,,,,,,,,,,,,,,,pebzem,pebzek,right,0.6931,0,40,40,57,1,4,pebzik,pebzel,NA,NA,Te bizony sokat pebzel.,Én is sokat...,pebzek,pebzem,lakik,-zik,1,nincsen,2000,nő,nem,2022-04-01_13h59.34.312,hesp_baseline,2021.2.3,Win32,60.82725061
,,,,,,,,,,,,,,,,,galároznak,galárzanak,left,0.6913,0,41,41,154,1,47,galárzik / galározik,"galárzik, galározni",nek,NA,"János imád galározni, ezért sokat galárzik.",Ők ritkán...,galárzanak,galároznak,cselekszik,-zik,2,nincsen,2000,nő,nem,2022-04-01_13h59.34.312,hesp_baseline,2021.2.3,Win32,60.82725061
,,,,,,,,,,,,,,,,,pivédban,pivédben,left,0.7085,0,42,42,52,1,53,pivéd,pivéd,ban,é,Ez itt egy pivéd.,Ott vagyunk a...,pivédben,pivédban,dzsungel,NA,NA,nincsen,2000,nő,nem,2022-04-01_13h59.34.312,hesp_baseline,2021.2.3,Win32,60.82725061
,,,,,,,,,,,,,,,,,spűmlök,spűmlöm,left,0.5923,0,43,43,86,1,33,spűmlik,spűmlesz,NA,NA,Te bizony sokat spűmlesz.,Én is sokat...,spűmlök,spűmlöm,lakik,-lik,1,nincsen,2000,nő,nem,2022-04-01_13h59.34.312,hesp_baseline,2021.2.3,Win32,60.82725061
,,,,,,,,,,,,,,,,,föködnek,fökszenek,right,0.7556,0,44,44,131,1,24,fökszik / föködik,"fökszik, föködni",nek,NA,"János imád föködni, ezért sokat fökszik.",Ők ritkán...,fökszenek,föködnek,cselekszik,-szik,1,nincsen,2000,nő,nem,2022-04-01_13h59.34.312,hesp_baseline,2021.2.3,Win32,60.82725061
,,,,,,,,,,,,,,,,,vülődzöm,vülődzök,left,0.3916,0,45,45,81,1,28,vülődzik,vülődzöl,NA,NA,Te bizony sokat vülődzöl.,Én is sokat...,vülődzök,vülődzöm,lakik,-zik,2,nincsen,2000,nő,nem,2022-04-01_13h59.34.312,hesp_baseline,2021.2.3,Win32,60.82725061
,,,,,,,,,,,,,,,,,lorzensnál,lorzensnél,left,0.7092,0,46,46,34,1,35,lorzens,lorzens,nál,e,Ez itt egy lorzens.,Nincs is jobb egy jó...,lorzensnél,lorzensnál,dzsungel,NA,NA,nincsen,2000,nő,nem,2022-04-01_13h59.34.312,hesp_baseline,2021.2.3,Win32,60.82725061
,,,,,,,,,,,,,,,,,gábédnél,gábédnál,right,0.7468,0,47,47,39,1,40,gábéd,gábéd,nál,é,Ez itt egy gábéd.,Nincs is jobb egy jó...,gábédnél,gábédnál,dzsungel,NA,NA,nincsen,2000,nő,nem,2022-04-01_13h59.34.312,hesp_baseline,2021.2.3,Win32,60.82725061
,,,,,,,,,,,,,,,,,bregezünk,bregzünk,right,0.2564,0,48,48,139,1,32,bregzik / bregezik,"bregzik, bregezni",ünk,NA,"János imád bregezni, ezért sokat bregzik.",Mi ritkán...,bregzünk,bregezünk,cselekszik,-zik,1,nincsen,2000,nő,nem,2022-04-01_13h59.34.312,hesp_baseline,2021.2.3,Win32,60.82725061
,,,,,,,,,,,,,,,,,sihennél,sihennál,right,0.7298,0,49,49,18,1,19,sihen,sihen,nál,e,Ez itt egy sihen.,Nincs is jobb egy jó...,sihennél,sihennál,dzsungel,NA,NA,nincsen,2000,nő,nem,2022-04-01_13h59.34.312,hesp_baseline,2021.2.3,Win32,60.82725061
,,,,,,,,,,,,,,,,,pliboztok,plibzotok,right,0.6468,0,50,50,140,1,33,plibzik / plibozik,"plibzik, plibozni",tek,NA,"János imád plibozni, ezért sokat plibzik.",Ti ritkán...,plibzotok,pliboztok,cselekszik,-zik,1,nincsen,2000,nő,nem,2022-04-01_13h59.34.312,hesp_baseline,2021.2.3,Win32,60.82725061
,,,,,,,,,,,,,,,,,nyizlunk,nyizozunk,right,0.3662,0,51,51,135,1,28,nyizlik / nyizozik,"nyizlik, nyizozni",ünk,NA,"János imád nyizozni, ezért sokat nyizlik.",Mi ritkán...,nyizlunk,nyizozunk,cselekszik,-lik,1,nincsen,2000,nő,nem,2022-04-01_13h59.34.312,hesp_baseline,2021.2.3,Win32,60.82725061
,,,,,,,,,,,,,,,,,hóbensben,hóbensban,left,0.3291,0,52,52,3,1,4,hóbens,hóbens,ban,e,Ez itt egy hóbens.,Ott vagyunk a...,hóbensben,hóbensban,dzsungel,NA,NA,nincsen,2000,nő,nem,2022-04-01_13h59.34.312,hesp_baseline,2021.2.3,Win32,60.82725061
,,,,,,,,,,,,,,,,,frihegezünk,friheglünk,right,0.6162,0,53,53,132,1,25,friheglik / frihegezik,"friheglik, frihegezni",ünk,NA,"János imád frihegezni, ezért sokat friheglik.",Mi ritkán...,friheglünk,frihegezünk,cselekszik,-lik,2,nincsen,2000,nő,nem,2022-04-01_13h59.34.312,hesp_baseline,2021.2.3,Win32,60.82725061
,,,,,,,,,,,,,,,,,spihemlem,spihemlek,left,0.5409,0,54,54,94,1,41,spihemlik,spihemlesz,NA,NA,Te bizony sokat spihemlesz.,Én is sokat...,spihemlek,spihemlem,lakik,-lik,2,nincsen,2000,nő,nem,2022-04-01_13h59.34.312,hesp_baseline,2021.2.3,Win32,60.82725061
,,,,,,,,,,,,,,,,,incéjnak,incéjnek,left,0.5386,0,55,55,30,1,31,incéj,incéj,nak,é,Ez itt egy incéj.,Elneveztem a kutyámat...,incéjnek,incéjnak,dzsungel,NA,NA,nincsen,2000,nő,nem,2022-04-01_13h59.34.312,hesp_baseline,2021.2.3,Win32,60.82725061
,,,,,,,,,,,,,,,,,brubzok,brubzom,right,0.4753,0,56,56,92,1,39,brubzik,brubzol,NA,NA,Te bizony sokat brubzol.,Én is sokat...,brubzok,brubzom,lakik,-zik,1,nincsen,2000,nő,nem,2022-04-01_13h59.34.312,hesp_baseline,2021.2.3,Win32,60.82725061
,,,,,,,,,,,,,,,,,brigesztnek,brigesztnak,right,0.5299,0,57,57,48,1,49,brigeszt,brigeszt,nak,e,Ez itt egy brigeszt.,Elneveztem a kutyámat...,brigesztnek,brigesztnak,dzsungel,NA,NA,nincsen,2000,nő,nem,2022-04-01_13h59.34.312,hesp_baseline,2021.2.3,Win32,60.82725061
,,,,,,,,,,,,,,,,,flözlöm,flözlök,left,3.2582,0,58,58,74,1,21,flözlik,flözlesz,NA,NA,Te bizony sokat flözlesz.,Én is sokat...,flözlök,flözlöm,lakik,-lik,1,nincsen,2000,nő,nem,2022-04-01_13h59.34.312,hesp_baseline,2021.2.3,Win32,60.82725061
,,,,,,,,,,,,,,,,,spéslek,spéslem,right,0.8257,0,59,59,93,1,40,spéslik,spéslesz,NA,NA,Te bizony sokat spéslesz.,Én is sokat...,spéslek,spéslem,lakik,-lik,1,nincsen,2000,nő,nem,2022-04-01_13h59.34.312,hesp_baseline,2021.2.3,Win32,60.82725061
,,,,,,,,,,,,,,,,,fádensnak,fádensnek,right,2.3406,0,60,60,33,1,34,fádens,fádens,nak,e,Ez itt egy fádens.,Elneveztem a kutyámat...,fádensnek,fádensnak,dzsungel,NA,NA,nincsen,2000,nő,nem,2022-04-01_13h59.34.312,hesp_baseline,2021.2.3,Win32,60.82725061
,,,,,,,,,,,,,,,,,jorzégnek,jorzégnak,left,2.228,0,61,61,45,1,46,jorzég,jorzég,nak,é,Ez itt egy jorzég.,Elneveztem a kutyámat...,jorzégnek,jorzégnak,dzsungel,NA,NA,nincsen,2000,nő,nem,2022-04-01_13h59.34.312,hesp_baseline,2021.2.3,Win32,60.82725061
,,,,,,,,,,,,,,,,,hiragoznak,hiragzanak,right,2.3773,0,62,62,119,1,12,hiragzik / hiragozik,"hiragzik, hiragozni",nek,NA,"János imád hiragozni, ezért sokat hiragzik.",Ők ritkán...,hiragzanak,hiragoznak,cselekszik,-zik,2,nincsen,2000,nő,nem,2022-04-01_13h59.34.312,hesp_baseline,2021.2.3,Win32,60.82725061
,,,,,,,,,,,,,,,,,dábegyben,dábegyban,left,1.7173,0,63,63,6,1,7,dábegy,dábegy,ban,e,Ez itt egy dábegy.,Ott vagyunk a...,dábegyben,dábegyban,dzsungel,NA,NA,nincsen,2000,nő,nem,2022-04-01_13h59.34.312,hesp_baseline,2021.2.3,Win32,60.82725061
,,,,,,,,,,,,,,,,,nyivágozunk,nyivágzunk,right,0.7305,0,64,64,113,1,6,nyivágzik / nyivágozik,"nyivágzik, nyivágozni",ünk,NA,"János imád nyivágozni, ezért sokat nyivágzik.",Mi ritkán...,nyivágzunk,nyivágozunk,cselekszik,-zik,2,nincsen,2000,nő,nem,2022-04-01_13h59.34.312,hesp_baseline,2021.2.3,Win32,60.82725061
,,,,,,,,,,,,,,,,,monvegnál,monvegnél,right,3.1804,0,65,65,26,1,27,monveg,monveg,nál,e,Ez itt egy monveg.,Nincs is jobb egy jó...,monvegnél,monvegnál,dzsungel,NA,NA,nincsen,2000,nő,nem,2022-04-01_13h59.34.312,hesp_baseline,2021.2.3,Win32,60.82725061
,,,,,,,,,,,,,,,,,tágarzunk,tágarozunk,right,1.5904,0,66,66,155,1,48,tágarzik / tágarozik,"tágarzik, tágarozni",ünk,NA,"János imád tágarozni, ezért sokat tágarzik.",Mi ritkán...,tágarzunk,tágarozunk,cselekszik,-zik,2,nincsen,2000,nő,nem,2022-04-01_13h59.34.312,hesp_baseline,2021.2.3,Win32,60.82725061
,,,,,,,,,,,,,,,,,prögöztök,prögzötök,left,1.9804,0,67,67,151,1,44,prögzik / prögözik,"prögzik, prögözni",tek,NA,"János imád prögözni, ezért sokat prögzik.",Ti ritkán...,prögzötök,prögöztök,cselekszik,-zik,1,nincsen,2000,nő,nem,2022-04-01_13h59.34.312,hesp_baseline,2021.2.3,Win32,60.82725061
,,,,,,,,,,,,,,,,,tragzok,tragzom,right,1.031,0,68,68,90,1,37,tragzik,tragzol,NA,NA,Te bizony sokat tragzol.,Én is sokat...,tragzok,tragzom,lakik,-zik,1,nincsen,2000,nő,nem,2022-04-01_13h59.34.312,hesp_baseline,2021.2.3,Win32,60.82725061
,,,,,,,,,,,,,,,,,zopélynál,zopélynél,left,1.1583,0,69,69,5,1,6,zopély,zopély,nál,é,Ez itt egy zopély.,Nincs is jobb egy jó...,zopélynél,zopélynál,dzsungel,NA,NA,nincsen,2000,nő,nem,2022-04-01_13h59.34.312,hesp_baseline,2021.2.3,Win32,60.82725061
,,,,,,,,,,,,,,,,,lihénynek,lihénynak,left,2.0237,0,70,70,23,1,24,lihény,lihény,nak,é,Ez itt egy lihény.,Elneveztem a kutyámat...,lihénynek,lihénynak,dzsungel,NA,NA,nincsen,2000,nő,nem,2022-04-01_13h59.34.312,hesp_baseline,2021.2.3,Win32,60.82725061
,,,,,,,,,,,,,,,,,rokszok,rokszom,right,1.2739,0,71,71,101,1,48,rokszik,rokszol,NA,NA,Te bizony sokat rokszol.,Én is sokat...,rokszok,rokszom,lakik,-szik,1,nincsen,2000,nő,nem,2022-04-01_13h59.34.312,hesp_baseline,2021.2.3,Win32,60.82725061
,,,,,,,,,,,,,,,,,salárzok,salárzom,right,2.3604,0,72,72,103,1,50,salárzik,salárzol,NA,NA,Te bizony sokat salárzol.,Én is sokat...,salárzok,salárzom,lakik,-zik,2,nincsen,2000,nő,nem,2022-04-01_13h59.34.312,hesp_baseline,2021.2.3,Win32,60.82725061
,,,,,,,,,,,,,,,,,bötőrözünk,bötőrzünk,right,0.874,0,73,73,158,1,51,bötőrzik / bötőrözik,"bötőrzik, bötőrözni",ünk,NA,"János imád bötőrözni, ezért sokat bötőrzik.",Mi ritkán...,bötőrzünk,bötőrözünk,cselekszik,-zik,2,nincsen,2000,nő,nem,2022-04-01_13h59.34.312,hesp_baseline,2021.2.3,Win32,60.82725061
,,,,,,,,,,,,,,,,,jutélynál,jutélynél,right,0.9875,0,74,74,11,1,12,jutély,jutély,nál,é,Ez itt egy jutély.,Nincs is jobb egy jó...,jutélynél,jutélynál,dzsungel,NA,NA,nincsen,2000,nő,nem,2022-04-01_13h59.34.312,hesp_baseline,2021.2.3,Win32,60.82725061
,,,,,,,,,,,,,,,,,priszkencnek,priszkencnak,right,2.5906,0,75,75,20,1,21,priszkenc,priszkenc,nak,e,Ez itt egy priszkenc.,Elneveztem a kutyámat...,priszkencnek,priszkencnak,dzsungel,NA,NA,nincsen,2000,nő,nem,2022-04-01_13h59.34.312,hesp_baseline,2021.2.3,Win32,60.82725061
,,,,,,,,,,,,,,,,,hivépben,hivépban,right,1.0413,0,76,76,44,1,45,hivép,hivép,ban,é,Ez itt egy hivép.,Ott vagyunk a...,hivépben,hivépban,dzsungel,NA,NA,nincsen,2000,nő,nem,2022-04-01_13h59.34.312,hesp_baseline,2021.2.3,Win32,60.82725061
,,,,,,,,,,,,,,,,,csublényban,csublényben,left,0.6936,0,77,77,16,1,17,csublény,csublény,ban,é,Ez itt egy csublény.,Ott vagyunk a...,csublényben,csublényban,dzsungel,NA,NA,nincsen,2000,nő,nem,2022-04-01_13h59.34.312,hesp_baseline,2021.2.3,Win32,60.82725061
,,,,,,,,,,,,,,,,,brarlok,brarlom,left,0.8079,0,78,78,71,1,18,brarlik,brarlasz,NA,NA,Te bizony sokat brarlasz.,Én is sokat...,brarlok,brarlom,lakik,-lik,1,nincsen,2000,nő,nem,2022-04-01_13h59.34.312,hesp_baseline,2021.2.3,Win32,60.82725061
,,,,,,,,,,,,,,,,,spivejlenek,spivejeznek,right,0.7089,0,79,79,125,1,18,spivejlik / spivejezik,"spivejlik, spivejezni",nek,NA,"János imád spivejezni, ezért sokat spivejlik.",Ők ritkán...,spivejlenek,spivejeznek,cselekszik,-lik,2,nincsen,2000,nő,nem,2022-04-01_13h59.34.312,hesp_baseline,2021.2.3,Win32,60.82725061
,,,,,,,,,,,,,,,,,trodélyben,trodélyban,left,0.7436,0,80,80,28,1,29,trodély,trodély,ban,é,Ez itt egy trodély.,Ott vagyunk a...,trodélyben,trodélyban,dzsungel,NA,NA,nincsen,2000,nő,nem,2022-04-01_13h59.34.312,hesp_baseline,2021.2.3,Win32,60.82725061
,,,,,,,,,,,,,,,,,csibagoztok,csibagzotok,left,0.7222,0,81,81,114,1,7,csibagzik / csibagozik,"csibagzik, csibagozni",tek,NA,"János imád csibagozni, ezért sokat csibagzik.",Ti ritkán...,csibagzotok,csibagoztok,cselekszik,-zik,2,nincsen,2000,nő,nem,2022-04-01_13h59.34.312,hesp_baseline,2021.2.3,Win32,60.82725061
,,,,,,,,,,,,,,,,,marzok,marzom,right,0.4259,0,82,82,99,1,46,marzik,marzol,NA,NA,Te bizony sokat marzol.,Én is sokat...,marzok,marzom,lakik,-zik,1,nincsen,2000,nő,nem,2022-04-01_13h59.34.312,hesp_baseline,2021.2.3,Win32,60.82725061
,,,,,,,,,,,,,,,,,prilegzem,prilegzek,left,0.5595,0,83,83,79,1,26,prilegzik,prilegzel,NA,NA,Te bizony sokat prilegzel.,Én is sokat...,prilegzek,prilegzem,lakik,-zik,2,nincsen,2000,nő,nem,2022-04-01_13h59.34.312,hesp_baseline,2021.2.3,Win32,60.82725061
,,,,,,,,,,,,,,,,,lörűdzök,lörűdzöm,right,0.6109,0,84,84,77,1,24,lörűdzik,lörűdzöl,NA,NA,Te bizony sokat lörűdzöl.,Én is sokat...,lörűdzök,lörűdzöm,lakik,-zik,2,nincsen,2000,nő,nem,2022-04-01_13h59.34.312,hesp_baseline,2021.2.3,Win32,60.82725061
,,,,,,,,,,,,,,,,,küsözünk,küslünk,right,0.4142,0,85,85,141,1,34,küslik / küsözik,"küslik, küsözni",ünk,NA,"János imád küsözni, ezért sokat küslik.",Mi ritkán...,küslünk,küsözünk,cselekszik,-lik,1,nincsen,2000,nő,nem,2022-04-01_13h59.34.312,hesp_baseline,2021.2.3,Win32,60.82725061
,,,,,,,,,,,,,,,,,bügzenek,bügöznek,right,0.4401,0,86,86,118,1,11,bügzik / bügözik,"bügzik, bügözni",nek,NA,"János imád bügözni, ezért sokat bügzik.",Ők ritkán...,bügzenek,bügöznek,cselekszik,-zik,1,nincsen,2000,nő,nem,2022-04-01_13h59.34.312,hesp_baseline,2021.2.3,Win32,60.82725061
,,,,,,,,,,,,,,,,,gatáglunk,gatágozunk,left,0.5427,0,87,87,137,1,30,gatáglik / gatágozik,"gatáglik, gatágozni",ünk,NA,"János imád gatágozni, ezért sokat gatáglik.",Mi ritkán...,gatáglunk,gatágozunk,cselekszik,-lik,2,nincsen,2000,nő,nem,2022-04-01_13h59.34.312,hesp_baseline,2021.2.3,Win32,60.82725061
,,,,,,,,,,,,,,,,,vilakszom,vilakszok,right,0.3411,0,88,88,97,1,44,vilakszik,vilakszol,NA,NA,Te bizony sokat vilakszol.,Én is sokat...,vilakszok,vilakszom,lakik,-szik,2,nincsen,2000,nő,nem,2022-04-01_13h59.34.312,hesp_baseline,2021.2.3,Win32,60.82725061
,,,,,,,,,,,,,,,,,klihaslotok,klihasoztok,left,0.4102,0,89,89,156,1,49,klihaslik / klihasozik,"klihaslik, klihasozni",tek,NA,"János imád klihasozni, ezért sokat klihaslik.",Ti ritkán...,klihaslotok,klihasoztok,cselekszik,-lik,2,nincsen,2000,nő,nem,2022-04-01_13h59.34.312,hesp_baseline,2021.2.3,Win32,60.82725061
,,,,,,,,,,,,,,,,,dunkészban,dunkészben,right,0.3777,0,90,90,24,1,25,dunkész,dunkész,ban,é,Ez itt egy dunkész.,Ott vagyunk a...,dunkészben,dunkészban,dzsungel,NA,NA,nincsen,2000,nő,nem,2022-04-01_13h59.34.312,hesp_baseline,2021.2.3,Win32,60.82725061
,,,,,,,,,,,,,,,,,prélemlenek,prélemeznek,left,0.8424,0,91,91,110,1,3,prélemlik / prélemezik,"prélemlik, prélemezni",nek,NA,"János imád prélemezni, ezért sokat prélemlik.",Ők ritkán...,prélemlenek,prélemeznek,cselekszik,-lik,2,nincsen,2000,nő,nem,2022-04-01_13h59.34.312,hesp_baseline,2021.2.3,Win32,60.82725061
,,,,,,,,,,,,,,,,,breseznek,breslenek,left,1.0817,0,92,92,115,1,8,breslik / bresezik,"breslik, bresezni",nek,NA,"János imád bresezni, ezért sokat breslik.",Ők ritkán...,breslenek,breseznek,cselekszik,-lik,1,nincsen,2000,nő,nem,2022-04-01_13h59.34.312,hesp_baseline,2021.2.3,Win32,60.82725061
,,,,,,,,,,,,,,,,,pilégednek,pilégszenek,left,1.0106,0,93,93,150,1,43,pilégszik / pilégedik,"pilégszik, pilégedni",nek,NA,"János imád pilégedni, ezért sokat pilégszik.",Ők ritkán...,pilégszenek,pilégednek,cselekszik,-szik,2,nincsen,2000,nő,nem,2022-04-01_13h59.34.312,hesp_baseline,2021.2.3,Win32,60.82725061
,,,,,,,,,,,,,,,,,spábétban,spábétben,right,0.6255,0,94,94,51,1,52,spábét,spábét,ban,é,Ez itt egy spábét.,Ott vagyunk a...,spábétben,spábétban,dzsungel,NA,NA,nincsen,2000,nő,nem,2022-04-01_13h59.34.312,hesp_baseline,2021.2.3,Win32,60.82725061
,,,,,,,,,,,,,,,,,darhénban,darhénben,right,0.8938,0,95,95,27,1,28,darhén,darhén,ban,é,Ez itt egy darhén.,Ott vagyunk a...,darhénben,darhénban,dzsungel,NA,NA,nincsen,2000,nő,nem,2022-04-01_13h59.34.312,hesp_baseline,2021.2.3,Win32,60.82725061
,,,,,,,,,,,,,,,,,privékszenek,privékednek,right,1.6409,0,96,96,149,1,42,privékszik / privékedik,"privékszik, privékedni",nek,NA,"János imád privékedni, ezért sokat privékszik.",Ők ritkán...,privékszenek,privékednek,cselekszik,-szik,2,nincsen,2000,nő,nem,2022-04-01_13h59.34.312,hesp_baseline,2021.2.3,Win32,60.82725061
,,,,,,,,,,,,,,,,,priszecban,priszecben,right,0.6083,0,97,97,15,1,16,priszec,priszec,ban,e,Ez itt egy priszec.,Ott vagyunk a...,priszecben,priszecban,dzsungel,NA,NA,nincsen,2000,nő,nem,2022-04-01_13h59.34.312,hesp_baseline,2021.2.3,Win32,60.82725061
,,,,,,,,,,,,,,,,,píjlom,píjlok,right,0.4266,0,98,98,75,1,22,píjlik,píjlasz,NA,NA,Te bizony sokat píjlasz.,Én is sokat...,píjlok,píjlom,lakik,-lik,1,nincsen,2000,nő,nem,2022-04-01_13h59.34.312,hesp_baseline,2021.2.3,Win32,60.82725061
,,,,,,,,,,,,,,,,,gonszéknál,gonszéknél,right,0.5078,0,99,99,38,1,39,gonszék,gonszék,nál,é,Ez itt egy gonszék.,Nincs is jobb egy jó...,gonszéknél,gonszéknál,dzsungel,NA,NA,nincsen,2000,nő,nem,2022-04-01_13h59.34.312,hesp_baseline,2021.2.3,Win32,60.82725061
,,,,,,,,,,,,,,,,,zsalrénnek,zsalrénnak,left,0.4977,0,100,100,19,1,20,zsalrén,zsalrén,nak,é,Ez itt egy zsalrén.,Elneveztem a kutyámat...,zsalrénnek,zsalrénnak,dzsungel,NA,NA,nincsen,2000,nő,nem,2022-04-01_13h59.34.312,hesp_baseline,2021.2.3,Win32,60.82725061
,,,,,,,,,,,,,,,,,gihejlünk,gihejezünk,left,0.5934,0,101,101,146,1,39,gihejlik / gihejezik,"gihejlik, gihejezni",ünk,NA,"János imád gihejezni, ezért sokat gihejlik.",Mi ritkán...,gihejlünk,gihejezünk,cselekszik,-lik,2,nincsen,2000,nő,nem,2022-04-01_13h59.34.312,hesp_baseline,2021.2.3,Win32,60.82725061
,,,,,,,,,,,,,,,,,frorlanak,froroznak,left,0.481,0,102,102,143,1,36,frorlik / frorozik,"frorlik, frorozni",nek,NA,"János imád frorozni, ezért sokat frorlik.",Ők ritkán...,frorlanak,froroznak,cselekszik,-lik,1,nincsen,2000,nő,nem,2022-04-01_13h59.34.312,hesp_baseline,2021.2.3,Win32,60.82725061
,,,,,,,,,,,,,,,,,pekszünk,pekedünk,left,0.9784,0,103,103,161,1,54,pekszik / pekedik,"pekszik, pekedni",ünk,NA,"János imád pekedni, ezért sokat pekszik.",Mi ritkán...,pekszünk,pekedünk,cselekszik,-szik,1,nincsen,2000,nő,nem,2022-04-01_13h59.34.312,hesp_baseline,2021.2.3,Win32,60.82725061
,,,,,,,,,,,,,,,,,mísozunk,míslunk,left,7.1468,0,104,104,123,1,16,míslik / mísozik,"míslik, mísozni",ünk,NA,"János imád mísozni, ezért sokat míslik.",Mi ritkán...,míslunk,mísozunk,cselekszik,-lik,1,nincsen,2000,nő,nem,2022-04-01_13h59.34.312,hesp_baseline,2021.2.3,Win32,60.82725061
,,,,,,,,,,,,,,,,,gyivádzom,gyivádzok,right,1.1466,0,105,105,87,1,34,gyivádzik,gyivádzol,NA,NA,Te bizony sokat gyivádzol.,Én is sokat...,gyivádzok,gyivádzom,lakik,-zik,2,nincsen,2000,nő,nem,2022-04-01_13h59.34.312,hesp_baseline,2021.2.3,Win32,60.82725061
,,,,,,,,,,,,,,,,,jurozunk,jurlunk,right,0.6418,0,106,106,111,1,4,jurlik / jurozik,"jurlik, jurozni",ünk,NA,"János imád jurozni, ezért sokat jurlik.",Mi ritkán...,jurlunk,jurozunk,cselekszik,-lik,1,nincsen,2000,nő,nem,2022-04-01_13h59.34.312,hesp_baseline,2021.2.3,Win32,60.82725061
,,,,,,,,,,,,,,,,,szibedben,szibedban,right,0.3614,0,107,107,47,1,48,szibed,szibed,ban,e,Ez itt egy szibed.,Ott vagyunk a...,szibedben,szibedban,dzsungel,NA,NA,nincsen,2000,nő,nem,2022-04-01_13h59.34.312,hesp_baseline,2021.2.3,Win32,60.82725061
,,,,,,,,,,,,,,,,,feténylek,feténylem,right,0.443,0,108,108,85,1,32,feténylik,feténylesz,NA,NA,Te bizony sokat feténylesz.,Én is sokat...,feténylek,feténylem,lakik,-lik,2,nincsen,2000,nő,nem,2022-04-01_13h59.34.312,hesp_baseline,2021.2.3,Win32,60.82725061
,,,,,,,,,,,,,,,,,naremban,naremben,left,0.5619,0,109,109,2,1,3,narem,narem,ban,e,Ez itt egy narem.,Ott vagyunk a...,naremben,naremban,dzsungel,NA,NA,nincsen,2000,nő,nem,2022-04-01_13h59.34.312,hesp_baseline,2021.2.3,Win32,60.82725061
,,,,,,,,,,,,,,,,,narádzok,narádzom,right,0.626,0,110,110,63,1,10,narádzik,narádzol,NA,NA,Te bizony sokat narádzol.,Én is sokat...,narádzok,narádzom,lakik,-zik,2,nincsen,2000,nő,nem,2022-04-01_13h59.34.312,hesp_baseline,2021.2.3,Win32,60.82725061
,,,,,,,,,,,,,,,,,spélszem,spélszek,right,0.6773,0,111,111,68,1,15,spélszik,spélszel,NA,NA,Te bizony sokat spélszel.,Én is sokat...,spélszek,spélszem,lakik,-szik,1,nincsen,2000,nő,nem,2022-04-01_13h59.34.312,hesp_baseline,2021.2.3,Win32,60.82725061
,,,,,,,,,,,,,,,,,püzlötök,püzöztök,left,0.6283,0,112,112,152,1,45,püzlik / püzözik,"püzlik, püzözni",tek,NA,"János imád püzözni, ezért sokat püzlik.",Ti ritkán...,püzlötök,püzöztök,cselekszik,-lik,1,nincsen,2000,nő,nem,2022-04-01_13h59.34.312,hesp_baseline,2021.2.3,Win32,60.82725061
,,,,,,,,,,,,,,,,,sztremlek,sztremlem,right,0.2979,0,113,113,95,1,42,sztremlik,sztremlesz,NA,NA,Te bizony sokat sztremlesz.,Én is sokat...,sztremlek,sztremlem,lakik,-lik,1,nincsen,2000,nő,nem,2022-04-01_13h59.34.312,hesp_baseline,2021.2.3,Win32,60.82725061
,,,,,,,,,,,,,,,,,pugoslok,pugoslom,left,0.5769,0,114,114,84,1,31,pugoslik,pugoslasz,NA,NA,Te bizony sokat pugoslasz.,Én is sokat...,pugoslok,pugoslom,lakik,-lik,2,nincsen,2000,nő,nem,2022-04-01_13h59.34.312,hesp_baseline,2021.2.3,Win32,60.82725061
,,,,,,,,,,,,,,,,,plövőrzök,plövőrzöm,left,0.6625,0,115,115,58,1,5,plövőrzik,plövőrzöl,NA,NA,Te bizony sokat plövőrzöl.,Én is sokat...,plövőrzök,plövőrzöm,lakik,-zik,2,nincsen,2000,nő,nem,2022-04-01_13h59.34.312,hesp_baseline,2021.2.3,Win32,60.82725061
,,,,,,,,,,,,,,,,,vismernél,vismernál,left,0.9928,0,116,116,13,1,14,vismer,vismer,nál,e,Ez itt egy vismer.,Nincs is jobb egy jó...,vismernél,vismernál,dzsungel,NA,NA,nincsen,2000,nő,nem,2022-04-01_13h59.34.312,hesp_baseline,2021.2.3,Win32,60.82725061
,,,,,,,,,,,,,,,,,kliszernél,kliszernál,left,0.4772,0,117,117,31,1,32,kliszer,kliszer,nál,e,Ez itt egy kliszer.,Nincs is jobb egy jó...,kliszernél,kliszernál,dzsungel,NA,NA,nincsen,2000,nő,nem,2022-04-01_13h59.34.312,hesp_baseline,2021.2.3,Win32,60.82725061
,,,,,,,,,,,,,,,,,flagárzom,flagárzok,right,0.743,0,118,118,64,1,11,flagárzik,flagárzol,NA,NA,Te bizony sokat flagárzol.,Én is sokat...,flagárzok,flagárzom,lakik,-zik,2,nincsen,2000,nő,nem,2022-04-01_13h59.34.312,hesp_baseline,2021.2.3,Win32,60.82725061
,,,,,,,,,,,,,,,,,brüszöztök,brüszlötök,left,0.727,0,119,119,130,1,23,brüszlik / brüszözik,"brüszlik, brüszözni",tek,NA,"János imád brüszözni, ezért sokat brüszlik.",Ti ritkán...,brüszlötök,brüszöztök,cselekszik,-lik,1,nincsen,2000,nő,nem,2022-04-01_13h59.34.312,hesp_baseline,2021.2.3,Win32,60.82725061
,,,,,,,,,,,,,,,,,hurjorzok,hurjorzom,right,0.3609,0,120,120,59,1,6,hurjorzik,hurjorzol,NA,NA,Te bizony sokat hurjorzol.,Én is sokat...,hurjorzok,hurjorzom,lakik,-zik,2,nincsen,2000,nő,nem,2022-04-01_13h59.34.312,hesp_baseline,2021.2.3,Win32,60.82725061
,,,,,,,,,,,,,,,,,gyibeslem,gyibeslek,right,0.3162,0,121,121,98,1,45,gyibeslik,gyibeslesz,NA,NA,Te bizony sokat gyibeslesz.,Én is sokat...,gyibeslek,gyibeslem,lakik,-lik,2,nincsen,2000,nő,nem,2022-04-01_13h59.34.312,hesp_baseline,2021.2.3,Win32,60.82725061
,,,,,,,,,,,,,,,,,bribaslanak,bribasoznak,right,0.3422,0,122,122,121,1,14,bribaslik / bribasozik,"bribaslik, bribasozni",nek,NA,"János imád bribasozni, ezért sokat bribaslik.",Ők ritkán...,bribaslanak,bribasoznak,cselekszik,-lik,2,nincsen,2000,nő,nem,2022-04-01_13h59.34.312,hesp_baseline,2021.2.3,Win32,60.82725061
,,,,,,,,,,,,,,,,,dajrensnél,dajrensnál,left,0.3391,0,123,123,49,1,50,dajrens,dajrens,nál,e,Ez itt egy dajrens.,Nincs is jobb egy jó...,dajrensnél,dajrensnál,dzsungel,NA,NA,nincsen,2000,nő,nem,2022-04-01_13h59.34.312,hesp_baseline,2021.2.3,Win32,60.82725061
,,,,,,,,,,,,,,,,,köszlötök,köszöztök,right,0.259,0,124,124,120,1,13,köszlik / köszözik,"köszlik, köszözni",tek,NA,"János imád köszözni, ezért sokat köszlik.",Ti ritkán...,köszlötök,köszöztök,cselekszik,-lik,1,nincsen,2000,nő,nem,2022-04-01_13h59.34.312,hesp_baseline,2021.2.3,Win32,60.82725061
,,,,,,,,,,,,,,,,,frakozunk,fraklunk,left,0.3493,0,125,125,159,1,52,fraklik / frakozik,"fraklik, frakozni",ünk,NA,"János imád frakozni, ezért sokat fraklik.",Mi ritkán...,fraklunk,frakozunk,cselekszik,-lik,1,nincsen,2000,nő,nem,2022-04-01_13h59.34.312,hesp_baseline,2021.2.3,Win32,60.82725061
,,,,,,,,,,,,,,,,,brözöztök,brözlötök,left,0.4319,0,126,126,145,1,38,brözlik / brözözik,"brözlik, brözözni",tek,NA,"János imád brözözni, ezért sokat brözlik.",Ti ritkán...,brözlötök,brözöztök,cselekszik,-lik,1,nincsen,2000,nő,nem,2022-04-01_13h59.34.312,hesp_baseline,2021.2.3,Win32,60.82725061
,,,,,,,,,,,,,,,,,sztrajoznak,sztrajlanak,left,0.575,0,127,127,144,1,37,sztrajlik / sztrajozik,"sztrajlik, sztrajozni",nek,NA,"János imád sztrajozni, ezért sokat sztrajlik.",Ők ritkán...,sztrajlanak,sztrajoznak,cselekszik,-lik,1,nincsen,2000,nő,nem,2022-04-01_13h59.34.312,hesp_baseline,2021.2.3,Win32,60.82725061
,,,,,,,,,,,,,,,,,buhényben,buhényban,right,0.4423,0,128,128,43,1,44,buhény,buhény,ban,é,Ez itt egy buhény.,Ott vagyunk a...,buhényben,buhényban,dzsungel,NA,NA,nincsen,2000,nő,nem,2022-04-01_13h59.34.312,hesp_baseline,2021.2.3,Win32,60.82725061
,,,,,,,,,,,,,,,,,dutecnál,dutecnél,right,0.6741,0,129,129,22,1,23,dutec,dutec,nál,e,Ez itt egy dutec.,Nincs is jobb egy jó...,dutecnél,dutecnál,dzsungel,NA,NA,nincsen,2000,nő,nem,2022-04-01_13h59.34.312,hesp_baseline,2021.2.3,Win32,60.82725061
,,,,,,,,,,,,,,,,,spatszom,spatszok,left,0.359,0,130,130,73,1,20,spatszik,spatszol,NA,NA,Te bizony sokat spatszol.,Én is sokat...,spatszok,spatszom,lakik,-szik,1,nincsen,2000,nő,nem,2022-04-01_13h59.34.312,hesp_baseline,2021.2.3,Win32,60.82725061
,,,,,,,,,,,,,,,,,ibáglok,ibáglom,right,0.3761,0,131,131,88,1,35,ibáglik,ibáglasz,NA,NA,Te bizony sokat ibáglasz.,Én is sokat...,ibáglok,ibáglom,lakik,-lik,2,nincsen,2000,nő,nem,2022-04-01_13h59.34.312,hesp_baseline,2021.2.3,Win32,60.82725061
,,,,,,,,,,,,,,,,,szibánylom,szibánylok,right,0.344,0,132,132,67,1,14,szibánylik,szibánylasz,NA,NA,Te bizony sokat szibánylasz.,Én is sokat...,szibánylok,szibánylom,lakik,-lik,2,nincsen,2000,nő,nem,2022-04-01_13h59.34.312,hesp_baseline,2021.2.3,Win32,60.82725061
,,,,,,,,,,,,,,,,,herégszem,herégszek,left,0.368,0,133,133,54,1,1,herégszik,herégszel,NA,NA,Te bizony sokat herégszel.,Én is sokat...,herégszek,herégszem,lakik,-szik,2,nincsen,2000,nő,nem,2022-04-01_13h59.34.312,hesp_baseline,2021.2.3,Win32,60.82725061
,,,,,,,,,,,,,,,,,nuhétnél,nuhétnál,left,0.709,0,134,134,29,1,30,nuhét,nuhét,nál,é,Ez itt egy nuhét.,Nincs is jobb egy jó...,nuhétnél,nuhétnál,dzsungel,NA,NA,nincsen,2000,nő,nem,2022-04-01_13h59.34.312,hesp_baseline,2021.2.3,Win32,60.82725061
,,,,,,,,,,,,,,,,,flehénylek,flehénylem,right,0.5921,0,135,135,106,1,53,flehénylik,flehénylesz,NA,NA,Te bizony sokat flehénylesz.,Én is sokat...,flehénylek,flehénylem,lakik,-lik,2,nincsen,2000,nő,nem,2022-04-01_13h59.34.312,hesp_baseline,2021.2.3,Win32,60.82725061
,,,,,,,,,,,,,,,,,spibaklok,spibaklom,left,0.6282,0,136,136,55,1,2,spibaklik,spibaklasz,NA,NA,Te bizony sokat spibaklasz.,Én is sokat...,spibaklok,spibaklom,lakik,-lik,2,nincsen,2000,nő,nem,2022-04-01_13h59.34.312,hesp_baseline,2021.2.3,Win32,60.82725061
,,,,,,,,,,,,,,,,,sprimozunk,sprimlunk,right,0.3246,0,137,137,127,1,20,sprimlik / sprimozik,"sprimlik, sprimozni",ünk,NA,"János imád sprimozni, ezért sokat sprimlik.",Mi ritkán...,sprimlunk,sprimozunk,cselekszik,-lik,1,nincsen,2000,nő,nem,2022-04-01_13h59.34.312,hesp_baseline,2021.2.3,Win32,60.82725061
,,,,,,,,,,,,,,,,,flivegeznek,flivegzenek,right,1.0816,0,138,138,138,1,31,flivegzik / flivegezik,"flivegzik, flivegezni",nek,NA,"János imád flivegezni, ezért sokat flivegzik.",Ők ritkán...,flivegzenek,flivegeznek,cselekszik,-zik,2,nincsen,2000,nő,nem,2022-04-01_13h59.34.312,hesp_baseline,2021.2.3,Win32,60.82725061
,,,,,,,,,,,,,,,,,klordénynak,klordénynek,right,1.1294,0,139,139,9,1,10,klordény,klordény,nak,é,Ez itt egy klordény.,Elneveztem a kutyámat...,klordénynek,klordénynak,dzsungel,NA,NA,nincsen,2000,nő,nem,2022-04-01_13h59.34.312,hesp_baseline,2021.2.3,Win32,60.82725061
,,,,,,,,,,,,,,,,,hijegynél,hijegynál,left,1.3753,0,140,140,4,1,5,hijegy,hijegy,nál,e,Ez itt egy hijegy.,Nincs is jobb egy jó...,hijegynél,hijegynál,dzsungel,NA,NA,nincsen,2000,nő,nem,2022-04-01_13h59.34.312,hesp_baseline,2021.2.3,Win32,60.82725061
,,,,,,,,,,,,,,,,,tivencban,tivencben,left,1.1409,0,141,141,53,1,54,tivenc,tivenc,ban,e,Ez itt egy tivenc.,Ott vagyunk a...,tivencben,tivencban,dzsungel,NA,NA,nincsen,2000,nő,nem,2022-04-01_13h59.34.312,hesp_baseline,2021.2.3,Win32,60.82725061
,,,,,,,,,,,,,,,,,trihagzok,trihagzom,left,0.6799,0,142,142,83,1,30,trihagzik,trihagzol,NA,NA,Te bizony sokat trihagzol.,Én is sokat...,trihagzok,trihagzom,lakik,-zik,2,nincsen,2000,nő,nem,2022-04-01_13h59.34.312,hesp_baseline,2021.2.3,Win32,60.82725061
,,,,,,,,,,,,,,,,,frinylunk,frinyozunk,left,0.7465,0,143,143,133,1,26,frinylik / frinyozik,"frinylik, frinyozni",ünk,NA,"János imád frinyozni, ezért sokat frinylik.",Mi ritkán...,frinylunk,frinyozunk,cselekszik,-lik,1,nincsen,2000,nő,nem,2022-04-01_13h59.34.312,hesp_baseline,2021.2.3,Win32,60.82725061
,,,,,,,,,,,,,,,,,spilágzok,spilágzom,right,0.6843,0,144,144,76,1,23,spilágzik,spilágzol,NA,NA,Te bizony sokat spilágzol.,Én is sokat...,spilágzok,spilágzom,lakik,-zik,2,nincsen,2000,nő,nem,2022-04-01_13h59.34.312,hesp_baseline,2021.2.3,Win32,60.82725061
,,,,,,,,,,,,,,,,,gyivepszenek,gyivepednek,right,0.6423,0,145,145,160,1,53,gyivepszik / gyivepedik,"gyivepszik, gyivepedni",nek,NA,"János imád gyivepedni, ezért sokat gyivepszik.",Ők ritkán...,gyivepszenek,gyivepednek,cselekszik,-szik,2,nincsen,2000,nő,nem,2022-04-01_13h59.34.312,hesp_baseline,2021.2.3,Win32,60.82725061
,,,,,,,,,,,,,,,,,aglom,aglok,right,0.9112,0,146,146,100,1,47,aglik,aglasz,NA,NA,Te bizony sokat aglasz.,Én is sokat...,aglok,aglom,lakik,-lik,1,nincsen,2000,nő,nem,2022-04-01_13h59.34.312,hesp_baseline,2021.2.3,Win32,60.82725061
,,,,,,,,,,,,,,,,,sprudozunk,sprudlunk,right,13.9408,0,147,147,136,1,29,sprudlik / sprudozik,"sprudlik, sprudozni",ünk,NA,"János imád sprudozni, ezért sokat sprudlik.",Mi ritkán...,sprudlunk,sprudozunk,cselekszik,-lik,1,nincsen,2000,nő,nem,2022-04-01_13h59.34.312,hesp_baseline,2021.2.3,Win32,60.82725061
,,,,,,,,,,,,,,,,,zsopédban,zsopédben,right,0.7959,0,148,148,50,1,51,zsopéd,zsopéd,ban,é,Ez itt egy zsopéd.,Ott vagyunk a...,zsopédben,zsopédban,dzsungel,NA,NA,nincsen,2000,nő,nem,2022-04-01_13h59.34.312,hesp_baseline,2021.2.3,Win32,60.82725061
,,,,,,,,,,,,,,,,,tarhézben,tarhézban,right,1.2101,0,149,149,25,1,26,tarhéz,tarhéz,ban,é,Ez itt egy tarhéz.,Ott vagyunk a...,tarhézben,tarhézban,dzsungel,NA,NA,nincsen,2000,nő,nem,2022-04-01_13h59.34.312,hesp_baseline,2021.2.3,Win32,60.82725061
,,,,,,,,,,,,,,,,,mádépnál,mádépnél,right,1.2764,0,150,150,1,1,2,mádép,mádép,nál,é,Ez itt egy mádép.,Nincs is jobb egy jó...,mádépnél,mádépnál,dzsungel,NA,NA,nincsen,2000,nő,nem,2022-04-01_13h59.34.312,hesp_baseline,2021.2.3,Win32,60.82725061
,,,,,,,,,,,,,,,,,bejzünk,bejezünk,left,0.3924,0,151,151,148,1,41,bejzik / bejezik,"bejzik, bejezni",ünk,NA,"János imád bejezni, ezért sokat bejzik.",Mi ritkán...,bejzünk,bejezünk,cselekszik,-zik,1,nincsen,2000,nő,nem,2022-04-01_13h59.34.312,hesp_baseline,2021.2.3,Win32,60.82725061
,,,,,,,,,,,,,,,,,brülösözünk,brülöslünk,left,0.4323,0,152,152,109,1,2,brülöslik / brülösözik,"brülöslik, brülösözni",ünk,NA,"János imád brülösözni, ezért sokat brülöslik.",Mi ritkán...,brülöslünk,brülösözünk,cselekszik,-lik,2,nincsen,2000,nő,nem,2022-04-01_13h59.34.312,hesp_baseline,2021.2.3,Win32,60.82725061
,,,,,,,,,,,,,,,,,kadérnél,kadérnál,left,0.7471,0,153,153,7,1,8,kadér,kadér,nál,é,Ez itt egy kadér.,Nincs is jobb egy jó...,kadérnél,kadérnál,dzsungel,NA,NA,nincsen,2000,nő,nem,2022-04-01_13h59.34.312,hesp_baseline,2021.2.3,Win32,60.82725061
,,,,,,,,,,,,,,,,,tránélynek,tránélynak,right,0.8258,0,154,154,17,1,18,tránély,tránély,nak,é,Ez itt egy tránély.,Elneveztem a kutyámat...,tránélynek,tránélynak,dzsungel,NA,NA,nincsen,2000,nő,nem,2022-04-01_13h59.34.312,hesp_baseline,2021.2.3,Win32,60.82725061
,,,,,,,,,,,,,,,,,kalhésznak,kalhésznek,left,0.5133,0,155,155,46,1,47,kalhész,kalhész,nak,é,Ez itt egy kalhész.,Elneveztem a kutyámat...,kalhésznek,kalhésznak,dzsungel,NA,NA,nincsen,2000,nő,nem,2022-04-01_13h59.34.312,hesp_baseline,2021.2.3,Win32,60.82725061
,,,,,,,,,,,,,,,,,vanylok,vanylom,right,0.5609,0,156,156,61,1,8,vanylik,vanylasz,NA,NA,Te bizony sokat vanylasz.,Én is sokat...,vanylok,vanylom,lakik,-lik,1,nincsen,2000,nő,nem,2022-04-01_13h59.34.312,hesp_baseline,2021.2.3,Win32,60.82725061
,,,,,,,,,,,,,,,,,frirozunk,frirzunk,right,0.4307,0,157,157,129,1,22,frirzik / frirozik,"frirzik, frirozni",ünk,NA,"János imád frirozni, ezért sokat frirzik.",Mi ritkán...,frirzunk,frirozunk,cselekszik,-zik,1,nincsen,2000,nő,nem,2022-04-01_13h59.34.312,hesp_baseline,2021.2.3,Win32,60.82725061
,,,,,,,,,,,,,,,,,brivakoztok,brivaklotok,right,0.8716,0,158,158,134,1,27,brivaklik / brivakozik,"brivaklik, brivakozni",tek,NA,"János imád brivakozni, ezért sokat brivaklik.",Ti ritkán...,brivaklotok,brivakoztok,cselekszik,-lik,2,nincsen,2000,nő,nem,2022-04-01_13h59.34.312,hesp_baseline,2021.2.3,Win32,60.82725061
,,,,,,,,,,,,,,,,,lumézben,lumézban,left,1.027,0,159,159,32,1,33,luméz,luméz,ban,é,Ez itt egy luméz.,Ott vagyunk a...,lumézben,lumézban,dzsungel,NA,NA,nincsen,2000,nő,nem,2022-04-01_13h59.34.312,hesp_baseline,2021.2.3,Win32,60.82725061
,,,,,,,,,,,,,,,,,prugoroztok,prugorzotok,right,0.6427,0,160,160,116,1,9,prugorzik / prugorozik,"prugorzik, prugorozni",tek,NA,"János imád prugorozni, ezért sokat prugorzik.",Ti ritkán...,prugorzotok,prugoroztok,cselekszik,-zik,2,nincsen,2000,nő,nem,2022-04-01_13h59.34.312,hesp_baseline,2021.2.3,Win32,60.82725061
,,,,,,,,,,,,,,,,,hilarzok,hilarzom,right,0.6432,0,161,161,69,1,16,hilarzik,hilarzol,NA,NA,Te bizony sokat hilarzol.,Én is sokat...,hilarzok,hilarzom,lakik,-zik,2,nincsen,2000,nő,nem,2022-04-01_13h59.34.312,hesp_baseline,2021.2.3,Win32,60.82725061
