my_list,key.keys,key.rt,key_2.keys,key_2.rt,keyboard_input_2.keys,keyboard_input_2.rt,key_3.keys,key_3.rt,keyboard_input_3.keys,keyboard_input_3.rt,key_4.keys,key_4.rt,keyboard_input_4.keys,keyboard_input_4.rt,key_5.keys,key_5.rt,my_button1,my_button2,keyboard_input.keys,keyboard_input.rt,withinBlock.thisRepN,withinBlock.thisTrialN,withinBlock.thisN,withinBlock.thisIndex,withinBlock.ran,rowname,word,prompt,suffix,vowel,carrier_sentence,target_sentence,target1,target2,category,derivational,nsyl,Azonosító,Melyik évben születtél?,Mi a nemed?,Tanultál nyelvészetet?,date,expName,psychopyVersion,OS,frameRate
list2.csv,space,32.4366,space,10.3602,right,8.8563,space,14.3,left,4.3538,space,9.6599,left,9.0762,space,17.5639,posoztok,poslotok,right,9.9343,0,0,0,121,1,68,poslik / posozik,"poslik, posozni",tek,NA,"János imád posozni, ezért sokat poslik.",Ti ritkán...,poslotok,posoztok,cselekszik,-lik,1,PR2062,1998,nő,nem,2022-04-15_12h37.17.367,hesp_baseline,2021.2.3,Win32,59.87665409
,,,,,,,,,,,,,,,,,pribemlem,pribemlek,right,15.9369,0,1,1,107,1,108,pribemlik,pribemlesz,NA,NA,Te bizony sokat pribemlesz.,Én is sokat...,pribemlek,pribemlem,lakik,-lik,2,PR2062,1998,nő,nem,2022-04-15_12h37.17.367,hesp_baseline,2021.2.3,Win32,59.87665409
,,,,,,,,,,,,,,,,,trírzunk,trírozunk,right,12.825,0,2,2,116,1,63,trírzik / trírozik,"trírzik, trírozni",ünk,NA,"János imád trírozni, ezért sokat trírzik.",Mi ritkán...,trírzunk,trírozunk,cselekszik,-zik,1,PR2062,1998,nő,nem,2022-04-15_12h37.17.367,hesp_baseline,2021.2.3,Win32,59.87665409
,,,,,,,,,,,,,,,,,spügzünk,spügözünk,right,8.3008,0,3,3,143,1,90,spügzik / spügözik,"spügzik, spügözni",ünk,NA,"János imád spügözni, ezért sokat spügzik.",Mi ritkán...,spügzünk,spügözünk,cselekszik,-zik,1,PR2062,1998,nő,nem,2022-04-15_12h37.17.367,hesp_baseline,2021.2.3,Win32,59.87665409
,,,,,,,,,,,,,,,,,spátennak,spátennek,right,5.5975,0,4,4,33,1,88,spáten,spáten,nak,e,Ez itt egy spáten.,Elneveztem a kutyámat...,spátennek,spátennak,dzsungel,NA,NA,PR2062,1998,nő,nem,2022-04-15_12h37.17.367,hesp_baseline,2021.2.3,Win32,59.87665409
,,,,,,,,,,,,,,,,,szűslök,szűslöm,left,5.167,0,5,5,85,1,86,szűslik,szűslesz,NA,NA,Te bizony sokat szűslesz.,Én is sokat...,szűslök,szűslöm,lakik,-lik,1,PR2062,1998,nő,nem,2022-04-15_12h37.17.367,hesp_baseline,2021.2.3,Win32,59.87665409
,,,,,,,,,,,,,,,,,flibekszem,flibekszek,right,10.3658,0,6,6,93,1,94,flibekszik,flibekszel,NA,NA,Te bizony sokat flibekszel.,Én is sokat...,flibekszek,flibekszem,lakik,-szik,2,PR2062,1998,nő,nem,2022-04-15_12h37.17.367,hesp_baseline,2021.2.3,Win32,59.87665409
,,,,,,,,,,,,,,,,,brivegzek,brivegzem,right,14.5649,0,7,7,70,1,71,brivegzik,brivegzel,NA,NA,Te bizony sokat brivegzel.,Én is sokat...,brivegzek,brivegzem,lakik,-zik,2,PR2062,1998,nő,nem,2022-04-15_12h37.17.367,hesp_baseline,2021.2.3,Win32,59.87665409
,,,,,,,,,,,,,,,,,nyádlanak,nyádoznak,right,6.7415,0,8,8,120,1,67,nyádlik / nyádozik,"nyádlik, nyádozni",nek,NA,"János imád nyádozni, ezért sokat nyádlik.",Ők ritkán...,nyádlanak,nyádoznak,cselekszik,-lik,1,PR2062,1998,nő,nem,2022-04-15_12h37.17.367,hesp_baseline,2021.2.3,Win32,59.87665409
,,,,,,,,,,,,,,,,,kátédnál,kátédnél,left,5.2274,0,9,9,37,1,92,kátéd,kátéd,nál,é,Ez itt egy kátéd.,Nincs is jobb egy jó...,kátédnél,kátédnál,dzsungel,NA,NA,PR2062,1998,nő,nem,2022-04-15_12h37.17.367,hesp_baseline,2021.2.3,Win32,59.87665409
,,,,,,,,,,,,,,,,,szanéjnek,szanéjnak,right,3.3531,0,10,10,13,1,68,szanéj,szanéj,nak,é,Ez itt egy szanéj.,Elneveztem a kutyámat...,szanéjnek,szanéjnak,dzsungel,NA,NA,PR2062,1998,nő,nem,2022-04-15_12h37.17.367,hesp_baseline,2021.2.3,Win32,59.87665409
,,,,,,,,,,,,,,,,,fröjöztök,fröjzötök,right,9.6143,0,11,11,153,1,100,fröjzik / fröjözik,"fröjzik, fröjözni",tek,NA,"János imád fröjözni, ezért sokat fröjzik.",Ti ritkán...,fröjzötök,fröjöztök,cselekszik,-zik,1,PR2062,1998,nő,nem,2022-04-15_12h37.17.367,hesp_baseline,2021.2.3,Win32,59.87665409
,,,,,,,,,,,,,,,,,brágaklom,brágaklok,right,8.3619,0,12,12,71,1,72,brágaklik,brágaklasz,NA,NA,Te bizony sokat brágaklasz.,Én is sokat...,brágaklok,brágaklom,lakik,-lik,2,PR2062,1998,nő,nem,2022-04-15_12h37.17.367,hesp_baseline,2021.2.3,Win32,59.87665409
,,,,,,,,,,,,,,,,,lingéknál,lingéknél,right,10.4936,0,13,13,32,1,87,lingék,lingék,nál,é,Ez itt egy lingék.,Nincs is jobb egy jó...,lingéknél,lingéknál,dzsungel,NA,NA,PR2062,1998,nő,nem,2022-04-15_12h37.17.367,hesp_baseline,2021.2.3,Win32,59.87665409
,,,,,,,,,,,,,,,,,femlek,femlem,left,5.4936,0,14,14,57,1,58,femlik,femlesz,NA,NA,Te bizony sokat femlesz.,Én is sokat...,femlek,femlem,lakik,-lik,1,PR2062,1998,nő,nem,2022-04-15_12h37.17.367,hesp_baseline,2021.2.3,Win32,59.87665409
,,,,,,,,,,,,,,,,,flagánylom,flagánylok,right,3.4843,0,15,15,82,1,83,flagánylik,flagánylasz,NA,NA,Te bizony sokat flagánylasz.,Én is sokat...,flagánylok,flagánylom,lakik,-lik,2,PR2062,1998,nő,nem,2022-04-15_12h37.17.367,hesp_baseline,2021.2.3,Win32,59.87665409
,,,,,,,,,,,,,,,,,prazlunk,prazozunk,left,6.7157,0,16,16,119,1,66,prazlik / prazozik,"prazlik, prazozni",ünk,NA,"János imád prazozni, ezért sokat prazlik.",Mi ritkán...,prazlunk,prazozunk,cselekszik,-lik,1,PR2062,1998,nő,nem,2022-04-15_12h37.17.367,hesp_baseline,2021.2.3,Win32,59.87665409
,,,,,,,,,,,,,,,,,nyüröznek,nyürzenek,left,5.2139,0,17,17,123,1,70,nyürzik / nyürözik,"nyürzik, nyürözni",nek,NA,"János imád nyürözni, ezért sokat nyürzik.",Ők ritkán...,nyürzenek,nyüröznek,cselekszik,-zik,1,PR2062,1998,nő,nem,2022-04-15_12h37.17.367,hesp_baseline,2021.2.3,Win32,59.87665409
,,,,,,,,,,,,,,,,,sponylanak,sponyoznak,left,4.4522,0,18,18,125,1,72,sponylik / sponyozik,"sponylik, sponyozni",nek,NA,"János imád sponyozni, ezért sokat sponylik.",Ők ritkán...,sponylanak,sponyoznak,cselekszik,-lik,1,PR2062,1998,nő,nem,2022-04-15_12h37.17.367,hesp_baseline,2021.2.3,Win32,59.87665409
,,,,,,,,,,,,,,,,,flitlok,flitlom,left,3.8487,0,19,19,90,1,91,flitlik,flitlasz,NA,NA,Te bizony sokat flitlasz.,Én is sokat...,flitlok,flitlom,lakik,-lik,1,PR2062,1998,nő,nem,2022-04-15_12h37.17.367,hesp_baseline,2021.2.3,Win32,59.87665409
,,,,,,,,,,,,,,,,,spatárzok,spatárzom,left,3.3506,0,20,20,69,1,70,spatárzik,spatárzol,NA,NA,Te bizony sokat spatárzol.,Én is sokat...,spatárzok,spatárzom,lakik,-zik,2,PR2062,1998,nő,nem,2022-04-15_12h37.17.367,hesp_baseline,2021.2.3,Win32,59.87665409
,,,,,,,,,,,,,,,,,spülűdzök,spülűdzöm,left,7.9649,0,21,21,56,1,57,spülűdzik,spülűdzöl,NA,NA,Te bizony sokat spülűdzöl.,Én is sokat...,spülűdzök,spülűdzöm,lakik,-zik,2,PR2062,1998,nő,nem,2022-04-15_12h37.17.367,hesp_baseline,2021.2.3,Win32,59.87665409
,,,,,,,,,,,,,,,,,rapszeknél,rapszeknál,left,4.071,0,22,22,35,1,90,rapszek,rapszek,nál,e,Ez itt egy rapszek.,Nincs is jobb egy jó...,rapszeknél,rapszeknál,dzsungel,NA,NA,PR2062,1998,nő,nem,2022-04-15_12h37.17.367,hesp_baseline,2021.2.3,Win32,59.87665409
,,,,,,,,,,,,,,,,,klítegynál,klítegynél,right,4.1725,0,23,23,5,1,60,klítegy,klítegy,nál,e,Ez itt egy klítegy.,Nincs is jobb egy jó...,klítegynél,klítegynál,dzsungel,NA,NA,PR2062,1998,nő,nem,2022-04-15_12h37.17.367,hesp_baseline,2021.2.3,Win32,59.87665409
,,,,,,,,,,,,,,,,,csimennál,csimennél,right,4.7669,0,24,24,44,1,99,csimen,csimen,nál,e,Ez itt egy csimen.,Nincs is jobb egy jó...,csimennél,csimennál,dzsungel,NA,NA,PR2062,1998,nő,nem,2022-04-15_12h37.17.367,hesp_baseline,2021.2.3,Win32,59.87665409
,,,,,,,,,,,,,,,,,livényezünk,livénylünk,left,6.914,0,25,25,128,1,75,livénylik / livényezik,"livénylik, livényezni",ünk,NA,"János imád livényezni, ezért sokat livénylik.",Mi ritkán...,livénylünk,livényezünk,cselekszik,-lik,2,PR2062,1998,nő,nem,2022-04-15_12h37.17.367,hesp_baseline,2021.2.3,Win32,59.87665409
,,,,,,,,,,,,,,,,,klehényletek,klehényeztek,right,7.9681,0,26,26,113,1,60,klehénylik / klehényezik,"klehénylik, klehényezni",tek,NA,"János imád klehényezni, ezért sokat klehénylik.",Ti ritkán...,klehényletek,klehényeztek,cselekszik,-lik,2,PR2062,1998,nő,nem,2022-04-15_12h37.17.367,hesp_baseline,2021.2.3,Win32,59.87665409
,,,,,,,,,,,,,,,,,lihadzok,lihadzom,left,12.7329,0,27,27,101,1,102,lihadzik,lihadzol,NA,NA,Te bizony sokat lihadzol.,Én is sokat...,lihadzok,lihadzom,lakik,-zik,2,PR2062,1998,nő,nem,2022-04-15_12h37.17.367,hesp_baseline,2021.2.3,Win32,59.87665409
,,,,,,,,,,,,,,,,,spizecnak,spizecnek,right,20.7715,0,28,28,6,1,61,spizec,spizec,nak,e,Ez itt egy spizec.,Elneveztem a kutyámat...,spizecnek,spizecnak,dzsungel,NA,NA,PR2062,1998,nő,nem,2022-04-15_12h37.17.367,hesp_baseline,2021.2.3,Win32,59.87665409
,,,,,,,,,,,,,,,,,nuroklunk,nurokozunk,left,5.518,0,29,29,131,1,78,nuroklik / nurokozik,"nuroklik, nurokozni",ünk,NA,"János imád nurokozni, ezért sokat nuroklik.",Mi ritkán...,nuroklunk,nurokozunk,cselekszik,-lik,2,PR2062,1998,nő,nem,2022-04-15_12h37.17.367,hesp_baseline,2021.2.3,Win32,59.87665409
,,,,,,,,,,,,,,,,,nyametben,nyametban,left,39.7047,0,30,30,17,1,72,nyamet,nyamet,ban,e,Ez itt egy nyamet.,Ott vagyunk a...,nyametben,nyametban,dzsungel,NA,NA,PR2062,1998,nő,nem,2022-04-15_12h37.17.367,hesp_baseline,2021.2.3,Win32,59.87665409
,,,,,,,,,,,,,,,,,kluhéjnál,kluhéjnél,right,27.3806,0,31,31,24,1,79,kluhéj,kluhéj,nál,é,Ez itt egy kluhéj.,Nincs is jobb egy jó...,kluhéjnél,kluhéjnál,dzsungel,NA,NA,PR2062,1998,nő,nem,2022-04-15_12h37.17.367,hesp_baseline,2021.2.3,Win32,59.87665409
,,,,,,,,,,,,,,,,,dilakoztok,dilaklotok,left,25.9211,0,32,32,158,1,105,dilaklik / dilakozik,"dilaklik, dilakozni",tek,NA,"János imád dilakozni, ezért sokat dilaklik.",Ti ritkán...,dilaklotok,dilakoztok,cselekszik,-lik,2,PR2062,1998,nő,nem,2022-04-15_12h37.17.367,hesp_baseline,2021.2.3,Win32,59.87665409
,,,,,,,,,,,,,,,,,míjzunk,míjozunk,left,8.3642,0,33,33,114,1,61,míjzik / míjozik,"míjzik, míjozni",ünk,NA,"János imád míjozni, ezért sokat míjzik.",Mi ritkán...,míjzunk,míjozunk,cselekszik,-zik,1,PR2062,1998,nő,nem,2022-04-15_12h37.17.367,hesp_baseline,2021.2.3,Win32,59.87665409
,,,,,,,,,,,,,,,,,bingéjnek,bingéjnak,left,5.5441,0,34,34,49,1,104,bingéj,bingéj,nak,é,Ez itt egy bingéj.,Elneveztem a kutyámat...,bingéjnek,bingéjnak,dzsungel,NA,NA,PR2062,1998,nő,nem,2022-04-15_12h37.17.367,hesp_baseline,2021.2.3,Win32,59.87665409
,,,,,,,,,,,,,,,,,jábézben,jábézban,right,6.4017,0,35,35,34,1,89,jábéz,jábéz,ban,é,Ez itt egy jábéz.,Ott vagyunk a...,jábézben,jábézban,dzsungel,NA,NA,PR2062,1998,nő,nem,2022-04-15_12h37.17.367,hesp_baseline,2021.2.3,Win32,59.87665409
,,,,,,,,,,,,,,,,,tranékban,tranékben,left,4.3028,0,36,36,2,1,57,tranék,tranék,ban,é,Ez itt egy tranék.,Ott vagyunk a...,tranékben,tranékban,dzsungel,NA,NA,PR2062,1998,nő,nem,2022-04-15_12h37.17.367,hesp_baseline,2021.2.3,Win32,59.87665409
,,,,,,,,,,,,,,,,,klingeszben,klingeszban,left,4.9701,0,37,37,1,1,56,klingesz,klingesz,ban,e,Ez itt egy klingesz.,Ott vagyunk a...,klingeszben,klingeszban,dzsungel,NA,NA,PR2062,1998,nő,nem,2022-04-15_12h37.17.367,hesp_baseline,2021.2.3,Win32,59.87665409
,,,,,,,,,,,,,,,,,floglok,floglom,left,23.5793,0,38,38,92,1,93,floglik,floglasz,NA,NA,Te bizony sokat floglasz.,Én is sokat...,floglok,floglom,lakik,-lik,1,PR2062,1998,nő,nem,2022-04-15_12h37.17.367,hesp_baseline,2021.2.3,Win32,59.87665409
,,,,,,,,,,,,,,,,,sprebeznek,sprebzenek,left,9.2231,0,39,39,139,1,86,sprebzik / sprebezik,"sprebzik, sprebezni",nek,NA,"János imád sprebezni, ezért sokat sprebzik.",Ők ritkán...,sprebzenek,sprebeznek,cselekszik,-zik,1,PR2062,1998,nő,nem,2022-04-15_12h37.17.367,hesp_baseline,2021.2.3,Win32,59.87665409
,,,,,,,,,,,,,,,,,spáraklom,spáraklok,right,26.6557,0,40,40,96,1,97,spáraklik,spáraklasz,NA,NA,Te bizony sokat spáraklasz.,Én is sokat...,spáraklok,spáraklom,lakik,-lik,2,PR2062,1998,nő,nem,2022-04-15_12h37.17.367,hesp_baseline,2021.2.3,Win32,59.87665409
,,,,,,,,,,,,,,,,,sprűrlenek,sprűröznek,left,6.2834,0,41,41,135,1,82,sprűrlik / sprűrözik,"sprűrlik, sprűrözni",nek,NA,"János imád sprűrözni, ezért sokat sprűrlik.",Ők ritkán...,sprűrlenek,sprűröznek,cselekszik,-lik,1,PR2062,1998,nő,nem,2022-04-15_12h37.17.367,hesp_baseline,2021.2.3,Win32,59.87665409
,,,,,,,,,,,,,,,,,trigencnak,trigencnek,right,3.6883,0,42,42,31,1,86,trigenc,trigenc,nak,e,Ez itt egy trigenc.,Elneveztem a kutyámat...,trigencnek,trigencnak,dzsungel,NA,NA,PR2062,1998,nő,nem,2022-04-15_12h37.17.367,hesp_baseline,2021.2.3,Win32,59.87665409
,,,,,,,,,,,,,,,,,lorjódzom,lorjódzok,left,8.0224,0,43,43,88,1,89,lorjódzik,lorjódzol,NA,NA,Te bizony sokat lorjódzol.,Én is sokat...,lorjódzok,lorjódzom,lakik,-zik,2,PR2062,1998,nő,nem,2022-04-15_12h37.17.367,hesp_baseline,2021.2.3,Win32,59.87665409
,,,,,,,,,,,,,,,,,frodlok,frodlom,left,5.9843,0,44,44,61,1,62,frodlik,frodlasz,NA,NA,Te bizony sokat frodlasz.,Én is sokat...,frodlok,frodlom,lakik,-lik,1,PR2062,1998,nő,nem,2022-04-15_12h37.17.367,hesp_baseline,2021.2.3,Win32,59.87665409
,,,,,,,,,,,,,,,,,töglenek,tögöznek,left,5.7499,0,45,45,156,1,103,töglik / tögözik,"töglik, tögözni",nek,NA,"János imád tögözni, ezért sokat töglik.",Ők ritkán...,töglenek,tögöznek,cselekszik,-lik,1,PR2062,1998,nő,nem,2022-04-15_12h37.17.367,hesp_baseline,2021.2.3,Win32,59.87665409
,,,,,,,,,,,,,,,,,driládzok,driládzom,left,30.0042,0,46,46,67,1,68,driládzik,driládzol,NA,NA,Te bizony sokat driládzol.,Én is sokat...,driládzok,driládzom,lakik,-zik,2,PR2062,1998,nő,nem,2022-04-15_12h37.17.367,hesp_baseline,2021.2.3,Win32,59.87665409
,,,,,,,,,,,,,,,,,nyábétben,nyábétban,left,6.5788,0,47,47,21,1,76,nyábét,nyábét,ban,é,Ez itt egy nyábét.,Ott vagyunk a...,nyábétben,nyábétban,dzsungel,NA,NA,PR2062,1998,nő,nem,2022-04-15_12h37.17.367,hesp_baseline,2021.2.3,Win32,59.87665409
,,,,,,,,,,,,,,,,,ribegzem,ribegzek,left,15.6488,0,48,48,63,1,64,ribegzik,ribegzel,NA,NA,Te bizony sokat ribegzel.,Én is sokat...,ribegzek,ribegzem,lakik,-zik,2,PR2062,1998,nő,nem,2022-04-15_12h37.17.367,hesp_baseline,2021.2.3,Win32,59.87665409
,,,,,,,,,,,,,,,,,flemezünk,flemlünk,right,4.9501,0,49,49,137,1,84,flemlik / flemezik,"flemlik, flemezni",ünk,NA,"János imád flemezni, ezért sokat flemlik.",Mi ritkán...,flemlünk,flemezünk,cselekszik,-lik,1,PR2062,1998,nő,nem,2022-04-15_12h37.17.367,hesp_baseline,2021.2.3,Win32,59.87665409
,,,,,,,,,,,,,,,,,trugoznak,trugzanak,left,5.5629,0,50,50,146,1,93,trugzik / trugozik,"trugzik, trugozni",nek,NA,"János imád trugozni, ezért sokat trugzik.",Ők ritkán...,trugzanak,trugoznak,cselekszik,-zik,1,PR2062,1998,nő,nem,2022-04-15_12h37.17.367,hesp_baseline,2021.2.3,Win32,59.87665409
,,,,,,,,,,,,,,,,,lijeznak,lijeznek,right,3.0879,0,51,51,40,1,95,lijez,lijez,nak,e,Ez itt egy lijez.,Elneveztem a kutyámat...,lijeznek,lijeznak,dzsungel,NA,NA,PR2062,1998,nő,nem,2022-04-15_12h37.17.367,hesp_baseline,2021.2.3,Win32,59.87665409
,,,,,,,,,,,,,,,,,dibágoztok,dibáglotok,right,6.6631,0,52,52,154,1,101,dibáglik / dibágozik,"dibáglik, dibágozni",tek,NA,"János imád dibágozni, ezért sokat dibáglik.",Ti ritkán...,dibáglotok,dibágoztok,cselekszik,-lik,2,PR2062,1998,nő,nem,2022-04-15_12h37.17.367,hesp_baseline,2021.2.3,Win32,59.87665409
,,,,,,,,,,,,,,,,,garcépnál,garcépnél,left,4.3143,0,53,53,38,1,93,garcép,garcép,nál,é,Ez itt egy garcép.,Nincs is jobb egy jó...,garcépnél,garcépnál,dzsungel,NA,NA,PR2062,1998,nő,nem,2022-04-15_12h37.17.367,hesp_baseline,2021.2.3,Win32,59.87665409
,,,,,,,,,,,,,,,,,péleslek,péleslem,left,14.7347,0,54,54,73,1,74,péleslik,péleslesz,NA,NA,Te bizony sokat péleslesz.,Én is sokat...,péleslek,péleslem,lakik,-lik,2,PR2062,1998,nő,nem,2022-04-15_12h37.17.367,hesp_baseline,2021.2.3,Win32,59.87665409
,,,,,,,,,,,,,,,,,sprízemnál,sprízemnél,right,5.2975,0,55,55,22,1,77,sprízem,sprízem,nál,e,Ez itt egy sprízem.,Nincs is jobb egy jó...,sprízemnél,sprízemnál,dzsungel,NA,NA,PR2062,1998,nő,nem,2022-04-15_12h37.17.367,hesp_baseline,2021.2.3,Win32,59.87665409
,,,,,,,,,,,,,,,,,tribejletek,tribejeztek,left,6.7261,0,56,56,132,1,79,tribejlik / tribejezik,"tribejlik, tribejezni",tek,NA,"János imád tribejezni, ezért sokat tribejlik.",Ti ritkán...,tribejletek,tribejeztek,cselekszik,-lik,2,PR2062,1998,nő,nem,2022-04-15_12h37.17.367,hesp_baseline,2021.2.3,Win32,59.87665409
,,,,,,,,,,,,,,,,,flűgzünk,flűgözünk,left,7.3178,0,57,57,160,1,107,flűgzik / flűgözik,"flűgzik, flűgözni",ünk,NA,"János imád flűgözni, ezért sokat flűgzik.",Mi ritkán...,flűgzünk,flűgözünk,cselekszik,-zik,1,PR2062,1998,nő,nem,2022-04-15_12h37.17.367,hesp_baseline,2021.2.3,Win32,59.87665409
,,,,,,,,,,,,,,,,,ronvetnek,ronvetnak,left,4.1733,0,58,58,9,1,64,ronvet,ronvet,nak,e,Ez itt egy ronvet.,Elneveztem a kutyámat...,ronvetnek,ronvetnak,dzsungel,NA,NA,PR2062,1998,nő,nem,2022-04-15_12h37.17.367,hesp_baseline,2021.2.3,Win32,59.87665409
,,,,,,,,,,,,,,,,,pivegszek,pivegszem,right,8.2004,0,59,59,99,1,100,pivegszik,pivegszel,NA,NA,Te bizony sokat pivegszel.,Én is sokat...,pivegszek,pivegszem,lakik,-szik,2,PR2062,1998,nő,nem,2022-04-15_12h37.17.367,hesp_baseline,2021.2.3,Win32,59.87665409
,,,,,,,,,,,,,,,,,fréslünk,frésezünk,left,4.9007,0,60,60,138,1,85,fréslik / frésezik,"fréslik, frésezni",ünk,NA,"János imád frésezni, ezért sokat fréslik.",Mi ritkán...,fréslünk,frésezünk,cselekszik,-lik,1,PR2062,1998,nő,nem,2022-04-15_12h37.17.367,hesp_baseline,2021.2.3,Win32,59.87665409
,,,,,,,,,,,,,,,,,prohódzok,prohódzom,right,3.9984,0,61,61,66,1,67,prohódzik,prohódzol,NA,NA,Te bizony sokat prohódzol.,Én is sokat...,prohódzok,prohódzom,lakik,-zik,2,PR2062,1998,nő,nem,2022-04-15_12h37.17.367,hesp_baseline,2021.2.3,Win32,59.87665409
,,,,,,,,,,,,,,,,,vorszennál,vorszennél,right,4.0185,0,62,62,30,1,85,vorszen,vorszen,nál,e,Ez itt egy vorszen.,Nincs is jobb egy jó...,vorszennél,vorszennál,dzsungel,NA,NA,PR2062,1998,nő,nem,2022-04-15_12h37.17.367,hesp_baseline,2021.2.3,Win32,59.87665409
,,,,,,,,,,,,,,,,,gilárzom,gilárzok,left,6.1008,0,63,63,94,1,95,gilárzik,gilárzol,NA,NA,Te bizony sokat gilárzol.,Én is sokat...,gilárzok,gilárzom,lakik,-zik,2,PR2062,1998,nő,nem,2022-04-15_12h37.17.367,hesp_baseline,2021.2.3,Win32,59.87665409
,,,,,,,,,,,,,,,,,jonylok,jonylom,left,4.0547,0,64,64,55,1,56,jonylik,jonylasz,NA,NA,Te bizony sokat jonylasz.,Én is sokat...,jonylok,jonylom,lakik,-lik,1,PR2062,1998,nő,nem,2022-04-15_12h37.17.367,hesp_baseline,2021.2.3,Win32,59.87665409
,,,,,,,,,,,,,,,,,júdernak,júdernek,right,2.6779,0,65,65,53,1,108,júder,júder,nak,e,Ez itt egy júder.,Elneveztem a kutyámat...,júdernek,júdernak,dzsungel,NA,NA,PR2062,1998,nő,nem,2022-04-15_12h37.17.367,hesp_baseline,2021.2.3,Win32,59.87665409
,,,,,,,,,,,,,,,,,friszlok,friszlom,left,3.692,0,66,66,97,1,98,friszlik,friszlasz,NA,NA,Te bizony sokat friszlasz.,Én is sokat...,friszlok,friszlom,lakik,-lik,1,PR2062,1998,nő,nem,2022-04-15_12h37.17.367,hesp_baseline,2021.2.3,Win32,59.87665409
,,,,,,,,,,,,,,,,,csubozunk,csubzunk,right,5.1211,0,67,67,111,1,58,csubzik / csubozik,"csubzik, csubozni",ünk,NA,"János imád csubozni, ezért sokat csubzik.",Mi ritkán...,csubzunk,csubozunk,cselekszik,-zik,1,PR2062,1998,nő,nem,2022-04-15_12h37.17.367,hesp_baseline,2021.2.3,Win32,59.87665409
,,,,,,,,,,,,,,,,,fájézben,fájézban,right,4.818,0,68,68,7,1,62,fájéz,fájéz,ban,é,Ez itt egy fájéz.,Ott vagyunk a...,fájézben,fájézban,dzsungel,NA,NA,PR2062,1998,nő,nem,2022-04-15_12h37.17.367,hesp_baseline,2021.2.3,Win32,59.87665409
,,,,,,,,,,,,,,,,,spiharzotok,spiharoztok,right,5.8931,0,69,69,127,1,74,spiharzik / spiharozik,"spiharzik, spiharozni",tek,NA,"János imád spiharozni, ezért sokat spiharzik.",Ti ritkán...,spiharzotok,spiharoztok,cselekszik,-zik,2,PR2062,1998,nő,nem,2022-04-15_12h37.17.367,hesp_baseline,2021.2.3,Win32,59.87665409
,,,,,,,,,,,,,,,,,bribékszetek,bribékedtek,left,14.8991,0,70,70,141,1,88,bribékszik / bribékedik,"bribékszik, bribékedni",tek,NA,"János imád bribékedni, ezért sokat bribékszik.",Ti ritkán...,bribékszetek,bribékedtek,cselekszik,-szik,2,PR2062,1998,nő,nem,2022-04-15_12h37.17.367,hesp_baseline,2021.2.3,Win32,59.87665409
,,,,,,,,,,,,,,,,,prihekszek,prihekszem,left,5.2723,0,71,71,100,1,101,prihekszik,prihekszel,NA,NA,Te bizony sokat prihekszel.,Én is sokat...,prihekszek,prihekszem,lakik,-szik,2,PR2062,1998,nő,nem,2022-04-15_12h37.17.367,hesp_baseline,2021.2.3,Win32,59.87665409
,,,,,,,,,,,,,,,,,flűmlöm,flűmlök,right,3.3058,0,72,72,54,1,55,flűmlik,flűmlesz,NA,NA,Te bizony sokat flűmlesz.,Én is sokat...,flűmlök,flűmlöm,lakik,-lik,1,PR2062,1998,nő,nem,2022-04-15_12h37.17.367,hesp_baseline,2021.2.3,Win32,59.87665409
,,,,,,,,,,,,,,,,,flehékszem,flehékszek,left,6.7386,0,73,73,77,1,78,flehékszik,flehékszel,NA,NA,Te bizony sokat flehékszel.,Én is sokat...,flehékszek,flehékszem,lakik,-szik,2,PR2062,1998,nő,nem,2022-04-15_12h37.17.367,hesp_baseline,2021.2.3,Win32,59.87665409
,,,,,,,,,,,,,,,,,klidlom,klidlok,right,2.7093,0,74,74,72,1,73,klidlik,klidlasz,NA,NA,Te bizony sokat klidlasz.,Én is sokat...,klidlok,klidlom,lakik,-lik,1,PR2062,1998,nő,nem,2022-04-15_12h37.17.367,hesp_baseline,2021.2.3,Win32,59.87665409
,,,,,,,,,,,,,,,,,gyihegeztek,gyihegzetek,left,6.2955,0,75,75,124,1,71,gyihegzik / gyihegezik,"gyihegzik, gyihegezni",tek,NA,"János imád gyihegezni, ezért sokat gyihegzik.",Ti ritkán...,gyihegzetek,gyihegeztek,cselekszik,-zik,2,PR2062,1998,nő,nem,2022-04-15_12h37.17.367,hesp_baseline,2021.2.3,Win32,59.87665409
,,,,,,,,,,,,,,,,,kumlok,kumlom,left,2.9551,0,76,76,105,1,106,kumlik,kumlasz,NA,NA,Te bizony sokat kumlasz.,Én is sokat...,kumlok,kumlom,lakik,-lik,1,PR2062,1998,nő,nem,2022-04-15_12h37.17.367,hesp_baseline,2021.2.3,Win32,59.87665409
,,,,,,,,,,,,,,,,,flodoztok,flodlotok,left,4.7719,0,77,77,144,1,91,flodlik / flodozik,"flodlik, flodozni",tek,NA,"János imád flodozni, ezért sokat flodlik.",Ti ritkán...,flodlotok,flodoztok,cselekszik,-lik,1,PR2062,1998,nő,nem,2022-04-15_12h37.17.367,hesp_baseline,2021.2.3,Win32,59.87665409
,,,,,,,,,,,,,,,,,frálaslanak,frálasoznak,left,9.1067,0,78,78,110,1,57,frálaslik / frálasozik,"frálaslik, frálasozni",nek,NA,"János imád frálasozni, ezért sokat frálaslik.",Ők ritkán...,frálaslanak,frálasoznak,cselekszik,-lik,2,PR2062,1998,nő,nem,2022-04-15_12h37.17.367,hesp_baseline,2021.2.3,Win32,59.87665409
,,,,,,,,,,,,,,,,,metégednek,metégszenek,left,7.4783,0,79,79,112,1,59,metégszik / metégedik,"metégszik, metégedni",nek,NA,"János imád metégedni, ezért sokat metégszik.",Ők ritkán...,metégszenek,metégednek,cselekszik,-szik,2,PR2062,1998,nő,nem,2022-04-15_12h37.17.367,hesp_baseline,2021.2.3,Win32,59.87665409
,,,,,,,,,,,,,,,,,zsigénnál,zsigénnél,right,4.5955,0,80,80,12,1,67,zsigén,zsigén,nál,é,Ez itt egy zsigén.,Nincs is jobb egy jó...,zsigénnél,zsigénnál,dzsungel,NA,NA,PR2062,1998,nő,nem,2022-04-15_12h37.17.367,hesp_baseline,2021.2.3,Win32,59.87665409
,,,,,,,,,,,,,,,,,dineltban,dineltben,right,3.4753,0,81,81,0,1,55,dinelt,dinelt,ban,e,Ez itt egy dinelt.,Ott vagyunk a...,dineltben,dineltban,dzsungel,NA,NA,PR2062,1998,nő,nem,2022-04-15_12h37.17.367,hesp_baseline,2021.2.3,Win32,59.87665409
,,,,,,,,,,,,,,,,,branylanak,branyoznak,left,4.1161,0,82,82,136,1,83,branylik / branyozik,"branylik, branyozni",nek,NA,"János imád branyozni, ezért sokat branylik.",Ők ritkán...,branylanak,branyoznak,cselekszik,-lik,1,PR2062,1998,nő,nem,2022-04-15_12h37.17.367,hesp_baseline,2021.2.3,Win32,59.87665409
,,,,,,,,,,,,,,,,,csólorzom,csólorzok,left,7.5592,0,83,83,102,1,103,csólorzik,csólorzol,NA,NA,Te bizony sokat csólorzol.,Én is sokat...,csólorzok,csólorzom,lakik,-zik,2,PR2062,1998,nő,nem,2022-04-15_12h37.17.367,hesp_baseline,2021.2.3,Win32,59.87665409
,,,,,,,,,,,,,,,,,brágédnek,brágédnak,left,3.3185,0,84,84,45,1,100,brágéd,brágéd,nak,é,Ez itt egy brágéd.,Elneveztem a kutyámat...,brágédnek,brágédnak,dzsungel,NA,NA,PR2062,1998,nő,nem,2022-04-15_12h37.17.367,hesp_baseline,2021.2.3,Win32,59.87665409
,,,,,,,,,,,,,,,,,mihágzotok,mihágoztok,right,5.4964,0,85,85,118,1,65,mihágzik / mihágozik,"mihágzik, mihágozni",tek,NA,"János imád mihágozni, ezért sokat mihágzik.",Ti ritkán...,mihágzotok,mihágoztok,cselekszik,-zik,2,PR2062,1998,nő,nem,2022-04-15_12h37.17.367,hesp_baseline,2021.2.3,Win32,59.87665409
,,,,,,,,,,,,,,,,,gúdenban,gúdenben,right,2.9031,0,86,86,4,1,59,gúden,gúden,ban,e,Ez itt egy gúden.,Ott vagyunk a...,gúdenben,gúdenban,dzsungel,NA,NA,PR2062,1998,nő,nem,2022-04-15_12h37.17.367,hesp_baseline,2021.2.3,Win32,59.87665409
,,,,,,,,,,,,,,,,,zarcégnél,zarcégnál,left,4.1425,0,87,87,29,1,84,zarcég,zarcég,nál,é,Ez itt egy zarcég.,Nincs is jobb egy jó...,zarcégnél,zarcégnál,dzsungel,NA,NA,PR2062,1998,nő,nem,2022-04-15_12h37.17.367,hesp_baseline,2021.2.3,Win32,59.87665409
,,,,,,,,,,,,,,,,,prilepedünk,prilepszünk,right,6.555,0,88,88,161,1,108,prilepszik / prilepedik,"prilepszik, prilepedni",ünk,NA,"János imád prilepedni, ezért sokat prilepszik.",Mi ritkán...,prilepszünk,prilepedünk,cselekszik,-szik,2,PR2062,1998,nő,nem,2022-04-15_12h37.17.367,hesp_baseline,2021.2.3,Win32,59.87665409
,,,,,,,,,,,,,,,,,jóbecnak,jóbecnek,right,4.4255,0,89,89,11,1,66,jóbec,jóbec,nak,e,Ez itt egy jóbec.,Elneveztem a kutyámat...,jóbecnek,jóbecnak,dzsungel,NA,NA,PR2062,1998,nő,nem,2022-04-15_12h37.17.367,hesp_baseline,2021.2.3,Win32,59.87665409
,,,,,,,,,,,,,,,,,játozunk,játlunk,left,6.8195,0,90,90,145,1,92,játlik / játozik,"játlik, játozni",ünk,NA,"János imád játozni, ezért sokat játlik.",Mi ritkán...,játlunk,játozunk,cselekszik,-lik,1,PR2062,1998,nő,nem,2022-04-15_12h37.17.367,hesp_baseline,2021.2.3,Win32,59.87665409
,,,,,,,,,,,,,,,,,tumélynál,tumélynél,right,3.256,0,91,91,28,1,83,tumély,tumély,nál,é,Ez itt egy tumély.,Nincs is jobb egy jó...,tumélynél,tumélynál,dzsungel,NA,NA,PR2062,1998,nő,nem,2022-04-15_12h37.17.367,hesp_baseline,2021.2.3,Win32,59.87665409
,,,,,,,,,,,,,,,,,gihamoznak,gihamlanak,left,4.3301,0,92,92,133,1,80,gihamlik / gihamozik,"gihamlik, gihamozni",nek,NA,"János imád gihamozni, ezért sokat gihamlik.",Ők ritkán...,gihamlanak,gihamoznak,cselekszik,-lik,2,PR2062,1998,nő,nem,2022-04-15_12h37.17.367,hesp_baseline,2021.2.3,Win32,59.87665409
,,,,,,,,,,,,,,,,,molszotok,molodtok,left,5.5035,0,93,93,142,1,89,molszik / molodik,"molszik, molodni",tek,NA,"János imád molodni, ezért sokat molszik.",Ti ritkán...,molszotok,molodtok,cselekszik,-szik,1,PR2062,1998,nő,nem,2022-04-15_12h37.17.367,hesp_baseline,2021.2.3,Win32,59.87665409
,,,,,,,,,,,,,,,,,figlok,figlom,left,3.6864,0,94,94,75,1,76,figlik,figlasz,NA,NA,Te bizony sokat figlasz.,Én is sokat...,figlok,figlom,lakik,-lik,1,PR2062,1998,nő,nem,2022-04-15_12h37.17.367,hesp_baseline,2021.2.3,Win32,59.87665409
,,,,,,,,,,,,,,,,,pítendban,pítendben,right,3.4026,0,95,95,18,1,73,pítend,pítend,ban,e,Ez itt egy pítend.,Ott vagyunk a...,pítendben,pítendban,dzsungel,NA,NA,PR2062,1998,nő,nem,2022-04-15_12h37.17.367,hesp_baseline,2021.2.3,Win32,59.87665409
,,,,,,,,,,,,,,,,,flűröklöm,flűröklök,right,4.425,0,96,96,91,1,92,flűröklik,flűröklesz,NA,NA,Te bizony sokat flűröklesz.,Én is sokat...,flűröklök,flűröklöm,lakik,-lik,2,PR2062,1998,nő,nem,2022-04-15_12h37.17.367,hesp_baseline,2021.2.3,Win32,59.87665409
,,,,,,,,,,,,,,,,,flátszok,flátszom,right,4.1559,0,97,97,98,1,99,flátszik,flátszol,NA,NA,Te bizony sokat flátszol.,Én is sokat...,flátszok,flátszom,lakik,-szik,1,PR2062,1998,nő,nem,2022-04-15_12h37.17.367,hesp_baseline,2021.2.3,Win32,59.87665409
,,,,,,,,,,,,,,,,,pratánylom,pratánylok,right,3.6932,0,98,98,95,1,96,pratánylik,pratánylasz,NA,NA,Te bizony sokat pratánylasz.,Én is sokat...,pratánylok,pratánylom,lakik,-lik,2,PR2062,1998,nő,nem,2022-04-15_12h37.17.367,hesp_baseline,2021.2.3,Win32,59.87665409
,,,,,,,,,,,,,,,,,kluzlotok,kluzoztok,left,11.3358,0,99,99,148,1,95,kluzlik / kluzozik,"kluzlik, kluzozni",tek,NA,"János imád kluzozni, ezért sokat kluzlik.",Ti ritkán...,kluzlotok,kluzoztok,cselekszik,-lik,1,PR2062,1998,nő,nem,2022-04-15_12h37.17.367,hesp_baseline,2021.2.3,Win32,59.87665409
,,,,,,,,,,,,,,,,,gihesztnek,gihesztnak,left,10.0207,0,100,100,36,1,91,giheszt,giheszt,nak,e,Ez itt egy giheszt.,Elneveztem a kutyámat...,gihesztnek,gihesztnak,dzsungel,NA,NA,PR2062,1998,nő,nem,2022-04-15_12h37.17.367,hesp_baseline,2021.2.3,Win32,59.87665409
,,,,,,,,,,,,,,,,,sprigzotok,sprigoztok,right,5.3375,0,101,101,129,1,76,sprigzik / sprigozik,"sprigzik, sprigozni",tek,NA,"János imád sprigozni, ezért sokat sprigzik.",Ti ritkán...,sprigzotok,sprigoztok,cselekszik,-zik,1,PR2062,1998,nő,nem,2022-04-15_12h37.17.367,hesp_baseline,2021.2.3,Win32,59.87665409
,,,,,,,,,,,,,,,,,tosélyben,tosélyban,right,2.9316,0,102,102,25,1,80,tosély,tosély,ban,é,Ez itt egy tosély.,Ott vagyunk a...,tosélyben,tosélyban,dzsungel,NA,NA,PR2062,1998,nő,nem,2022-04-15_12h37.17.367,hesp_baseline,2021.2.3,Win32,59.87665409
,,,,,,,,,,,,,,,,,hubonylotok,hubonyoztok,right,7.8007,0,103,103,157,1,104,hubonylik / hubonyozik,"hubonylik, hubonyozni",tek,NA,"János imád hubonyozni, ezért sokat hubonylik.",Ti ritkán...,hubonylotok,hubonyoztok,cselekszik,-lik,2,PR2062,1998,nő,nem,2022-04-15_12h37.17.367,hesp_baseline,2021.2.3,Win32,59.87665409
,,,,,,,,,,,,,,,,,flüröslöm,flüröslök,right,6.5764,0,104,104,87,1,88,flüröslik,flüröslesz,NA,NA,Te bizony sokat flüröslesz.,Én is sokat...,flüröslök,flüröslöm,lakik,-lik,2,PR2062,1998,nő,nem,2022-04-15_12h37.17.367,hesp_baseline,2021.2.3,Win32,59.87665409
,,,,,,,,,,,,,,,,,csíszlok,csíszlom,left,4.3773,0,105,105,84,1,85,csíszlik,csíszlasz,NA,NA,Te bizony sokat csíszlasz.,Én is sokat...,csíszlok,csíszlom,lakik,-lik,1,PR2062,1998,nő,nem,2022-04-15_12h37.17.367,hesp_baseline,2021.2.3,Win32,59.87665409
,,,,,,,,,,,,,,,,,fupétnél,fupétnál,right,3.139,0,106,106,14,1,69,fupét,fupét,nál,é,Ez itt egy fupét.,Nincs is jobb egy jó...,fupétnél,fupétnál,dzsungel,NA,NA,PR2062,1998,nő,nem,2022-04-15_12h37.17.367,hesp_baseline,2021.2.3,Win32,59.87665409
,,,,,,,,,,,,,,,,,nidétban,nidétben,right,2.67,0,107,107,39,1,94,nidét,nidét,ban,é,Ez itt egy nidét.,Ott vagyunk a...,nidétben,nidétban,dzsungel,NA,NA,PR2062,1998,nő,nem,2022-04-15_12h37.17.367,hesp_baseline,2021.2.3,Win32,59.87665409
,,,,,,,,,,,,,,,,,cságyeltben,cságyeltban,left,6.9199,0,108,108,10,1,65,cságyelt,cságyelt,ban,e,Ez itt egy cságyelt.,Ott vagyunk a...,cságyeltben,cságyeltban,dzsungel,NA,NA,PR2062,1998,nő,nem,2022-04-15_12h37.17.367,hesp_baseline,2021.2.3,Win32,59.87665409
,,,,,,,,,,,,,,,,,spivélnak,spivélnek,right,3.2903,0,109,109,27,1,82,spivél,spivél,nak,é,Ez itt egy spivél.,Elneveztem a kutyámat...,spivélnek,spivélnak,dzsungel,NA,NA,PR2062,1998,nő,nem,2022-04-15_12h37.17.367,hesp_baseline,2021.2.3,Win32,59.87665409
,,,,,,,,,,,,,,,,,ruslok,ruslom,left,3.3195,0,110,110,83,1,84,ruslik,ruslasz,NA,NA,Te bizony sokat ruslasz.,Én is sokat...,ruslok,ruslom,lakik,-lik,1,PR2062,1998,nő,nem,2022-04-15_12h37.17.367,hesp_baseline,2021.2.3,Win32,59.87665409
,,,,,,,,,,,,,,,,,dárakszunk,dárakodunk,left,5.4031,0,111,111,126,1,73,dárakszik / dárakodik,"dárakszik, dárakodni",ünk,NA,"János imád dárakodni, ezért sokat dárakszik.",Mi ritkán...,dárakszunk,dárakodunk,cselekszik,-szik,2,PR2062,1998,nő,nem,2022-04-15_12h37.17.367,hesp_baseline,2021.2.3,Win32,59.87665409
,,,,,,,,,,,,,,,,,tomlok,tomlom,left,4.6688,0,112,112,86,1,87,tomlik,tomlasz,NA,NA,Te bizony sokat tomlasz.,Én is sokat...,tomlok,tomlom,lakik,-lik,1,PR2062,1998,nő,nem,2022-04-15_12h37.17.367,hesp_baseline,2021.2.3,Win32,59.87665409
,,,,,,,,,,,,,,,,,szirlom,szirlok,right,3.0244,0,113,113,62,1,63,szirlik,szirlasz,NA,NA,Te bizony sokat szirlasz.,Én is sokat...,szirlok,szirlom,lakik,-lik,1,PR2062,1998,nő,nem,2022-04-15_12h37.17.367,hesp_baseline,2021.2.3,Win32,59.87665409
,,,,,,,,,,,,,,,,,tiregzem,tiregzek,right,4.7541,0,114,114,64,1,65,tiregzik,tiregzel,NA,NA,Te bizony sokat tiregzel.,Én is sokat...,tiregzek,tiregzem,lakik,-zik,2,PR2062,1998,nő,nem,2022-04-15_12h37.17.367,hesp_baseline,2021.2.3,Win32,59.87665409
,,,,,,,,,,,,,,,,,flézletek,flézeztek,right,5.758,0,115,115,134,1,81,flézlik / flézezik,"flézlik, flézezni",tek,NA,"János imád flézezni, ezért sokat flézlik.",Ti ritkán...,flézletek,flézeztek,cselekszik,-lik,1,PR2062,1998,nő,nem,2022-04-15_12h37.17.367,hesp_baseline,2021.2.3,Win32,59.87665409
,,,,,,,,,,,,,,,,,prihegszenek,prihegednek,left,7.1415,0,116,116,155,1,102,prihegszik / prihegedik,"prihegszik, prihegedni",nek,NA,"János imád prihegedni, ezért sokat prihegszik.",Ők ritkán...,prihegszenek,prihegednek,cselekszik,-szik,2,PR2062,1998,nő,nem,2022-04-15_12h37.17.367,hesp_baseline,2021.2.3,Win32,59.87665409
,,,,,,,,,,,,,,,,,spibeglünk,spibegezünk,left,5.3987,0,117,117,147,1,94,spibeglik / spibegezik,"spibeglik, spibegezni",ünk,NA,"János imád spibegezni, ezért sokat spibeglik.",Mi ritkán...,spibeglünk,spibegezünk,cselekszik,-lik,2,PR2062,1998,nő,nem,2022-04-15_12h37.17.367,hesp_baseline,2021.2.3,Win32,59.87665409
,,,,,,,,,,,,,,,,,ítensban,ítensben,right,3.2081,0,118,118,50,1,105,ítens,ítens,ban,e,Ez itt egy ítens.,Ott vagyunk a...,ítensben,ítensban,dzsungel,NA,NA,PR2062,1998,nő,nem,2022-04-15_12h37.17.367,hesp_baseline,2021.2.3,Win32,59.87665409
,,,,,,,,,,,,,,,,,sojzok,sojzom,left,3.7441,0,119,119,74,1,75,sojzik,sojzol,NA,NA,Te bizony sokat sojzol.,Én is sokat...,sojzok,sojzom,lakik,-zik,1,PR2062,1998,nő,nem,2022-04-15_12h37.17.367,hesp_baseline,2021.2.3,Win32,59.87665409
,,,,,,,,,,,,,,,,,dingecnek,dingecnak,left,3.8377,0,120,120,42,1,97,dingec,dingec,nak,e,Ez itt egy dingec.,Elneveztem a kutyámat...,dingecnek,dingecnak,dzsungel,NA,NA,PR2062,1998,nő,nem,2022-04-15_12h37.17.367,hesp_baseline,2021.2.3,Win32,59.87665409
,,,,,,,,,,,,,,,,,fröjlünk,fröjözünk,left,3.5936,0,121,121,117,1,64,fröjlik / fröjözik,"fröjlik, fröjözni",ünk,NA,"János imád fröjözni, ezért sokat fröjlik.",Mi ritkán...,fröjlünk,fröjözünk,cselekszik,-lik,1,PR2062,1998,nő,nem,2022-04-15_12h37.17.367,hesp_baseline,2021.2.3,Win32,59.87665409
,,,,,,,,,,,,,,,,,flüröklötök,flürököztök,left,7.6893,0,122,122,149,1,96,flüröklik / flüröközik,"flüröklik, flüröközni",tek,NA,"János imád flüröközni, ezért sokat flüröklik.",Ti ritkán...,flüröklötök,flürököztök,cselekszik,-lik,2,PR2062,1998,nő,nem,2022-04-15_12h37.17.367,hesp_baseline,2021.2.3,Win32,59.87665409
,,,,,,,,,,,,,,,,,klajrénnek,klajrénnak,right,3.8347,0,123,123,41,1,96,klajrén,klajrén,nak,é,Ez itt egy klajrén.,Elneveztem a kutyámat...,klajrénnek,klajrénnak,dzsungel,NA,NA,PR2062,1998,nő,nem,2022-04-15_12h37.17.367,hesp_baseline,2021.2.3,Win32,59.87665409
,,,,,,,,,,,,,,,,,drojozunk,drojzunk,right,5.1511,0,124,124,140,1,87,drojzik / drojozik,"drojzik, drojozni",ünk,NA,"János imád drojozni, ezért sokat drojzik.",Mi ritkán...,drojzunk,drojozunk,cselekszik,-zik,1,PR2062,1998,nő,nem,2022-04-15_12h37.17.367,hesp_baseline,2021.2.3,Win32,59.87665409
,,,,,,,,,,,,,,,,,zutennél,zutennál,left,4.3016,0,125,125,43,1,98,zuten,zuten,nál,e,Ez itt egy zuten.,Nincs is jobb egy jó...,zutennél,zutennál,dzsungel,NA,NA,PR2062,1998,nő,nem,2022-04-15_12h37.17.367,hesp_baseline,2021.2.3,Win32,59.87665409
,,,,,,,,,,,,,,,,,hákszanak,hákodnak,left,5.1197,0,126,126,150,1,97,hákszik / hákodik,"hákszik, hákodni",nek,NA,"János imád hákodni, ezért sokat hákszik.",Ők ritkán...,hákszanak,hákodnak,cselekszik,-szik,1,PR2062,1998,nő,nem,2022-04-15_12h37.17.367,hesp_baseline,2021.2.3,Win32,59.87665409
,,,,,,,,,,,,,,,,,sprogzok,sprogzom,left,4.1187,0,127,127,89,1,90,sprogzik,sprogzol,NA,NA,Te bizony sokat sprogzol.,Én is sokat...,sprogzok,sprogzom,lakik,-zik,1,PR2062,1998,nő,nem,2022-04-15_12h37.17.367,hesp_baseline,2021.2.3,Win32,59.87665409
,,,,,,,,,,,,,,,,,líroznak,lírlanak,left,4.4854,0,128,128,115,1,62,lírlik / lírozik,"lírlik, lírozni",nek,NA,"János imád lírozni, ezért sokat lírlik.",Ők ritkán...,lírlanak,líroznak,cselekszik,-lik,1,PR2062,1998,nő,nem,2022-04-15_12h37.17.367,hesp_baseline,2021.2.3,Win32,59.87665409
,,,,,,,,,,,,,,,,,nűröklöm,nűröklök,right,3.4204,0,129,129,106,1,107,nűröklik,nűröklesz,NA,NA,Te bizony sokat nűröklesz.,Én is sokat...,nűröklök,nűröklöm,lakik,-lik,2,PR2062,1998,nő,nem,2022-04-15_12h37.17.367,hesp_baseline,2021.2.3,Win32,59.87665409
,,,,,,,,,,,,,,,,,klazérban,klazérben,left,3.4025,0,130,130,51,1,106,klazér,klazér,ban,é,Ez itt egy klazér.,Ott vagyunk a...,klazérben,klazérban,dzsungel,NA,NA,PR2062,1998,nő,nem,2022-04-15_12h37.17.367,hesp_baseline,2021.2.3,Win32,59.87665409
,,,,,,,,,,,,,,,,,flerékedünk,flerékszünk,left,6.2671,0,131,131,159,1,106,flerékszik / flerékedik,"flerékszik, flerékedni",ünk,NA,"János imád flerékedni, ezért sokat flerékszik.",Mi ritkán...,flerékszünk,flerékedünk,cselekszik,-szik,2,PR2062,1998,nő,nem,2022-04-15_12h37.17.367,hesp_baseline,2021.2.3,Win32,59.87665409
,,,,,,,,,,,,,,,,,huroslok,huroslom,left,2.6432,0,132,132,76,1,77,huroslik,huroslasz,NA,NA,Te bizony sokat huroslasz.,Én is sokat...,huroslok,huroslom,lakik,-lik,2,PR2062,1998,nő,nem,2022-04-15_12h37.17.367,hesp_baseline,2021.2.3,Win32,59.87665409
,,,,,,,,,,,,,,,,,bivégszek,bivégszem,left,3.1572,0,133,133,68,1,69,bivégszik,bivégszel,NA,NA,Te bizony sokat bivégszel.,Én is sokat...,bivégszek,bivégszem,lakik,-szik,2,PR2062,1998,nő,nem,2022-04-15_12h37.17.367,hesp_baseline,2021.2.3,Win32,59.87665409
,,,,,,,,,,,,,,,,,dihelynak,dihelynek,right,3.6213,0,134,134,20,1,75,dihely,dihely,nak,e,Ez itt egy dihely.,Elneveztem a kutyámat...,dihelynek,dihelynak,dzsungel,NA,NA,PR2062,1998,nő,nem,2022-04-15_12h37.17.367,hesp_baseline,2021.2.3,Win32,59.87665409
,,,,,,,,,,,,,,,,,spihegzek,spihegzem,left,3.602,0,135,135,81,1,82,spihegzik,spihegzel,NA,NA,Te bizony sokat spihegzel.,Én is sokat...,spihegzek,spihegzem,lakik,-zik,2,PR2062,1998,nő,nem,2022-04-15_12h37.17.367,hesp_baseline,2021.2.3,Win32,59.87665409
,,,,,,,,,,,,,,,,,spubonylok,spubonylom,left,3.9736,0,136,136,104,1,105,spubonylik,spubonylasz,NA,NA,Te bizony sokat spubonylasz.,Én is sokat...,spubonylok,spubonylom,lakik,-lik,2,PR2062,1998,nő,nem,2022-04-15_12h37.17.367,hesp_baseline,2021.2.3,Win32,59.87665409
,,,,,,,,,,,,,,,,,fivénylek,fivénylem,left,2.5541,0,137,137,78,1,79,fivénylik,fivénylesz,NA,NA,Te bizony sokat fivénylesz.,Én is sokat...,fivénylek,fivénylem,lakik,-lik,2,PR2062,1998,nő,nem,2022-04-15_12h37.17.367,hesp_baseline,2021.2.3,Win32,59.87665409
,,,,,,,,,,,,,,,,,frivamozunk,frivamlunk,left,5.8688,0,138,138,122,1,69,frivamlik / frivamozik,"frivamlik, frivamozni",ünk,NA,"János imád frivamozni, ezért sokat frivamlik.",Mi ritkán...,frivamlunk,frivamozunk,cselekszik,-lik,2,PR2062,1998,nő,nem,2022-04-15_12h37.17.367,hesp_baseline,2021.2.3,Win32,59.87665409
,,,,,,,,,,,,,,,,,sporzemnak,sporzemnek,right,3.7699,0,139,139,26,1,81,sporzem,sporzem,nak,e,Ez itt egy sporzem.,Elneveztem a kutyámat...,sporzemnek,sporzemnak,dzsungel,NA,NA,PR2062,1998,nő,nem,2022-04-15_12h37.17.367,hesp_baseline,2021.2.3,Win32,59.87665409
,,,,,,,,,,,,,,,,,juszlom,juszlok,right,2.8879,0,140,140,79,1,80,juszlik,juszlasz,NA,NA,Te bizony sokat juszlasz.,Én is sokat...,juszlok,juszlom,lakik,-lik,1,PR2062,1998,nő,nem,2022-04-15_12h37.17.367,hesp_baseline,2021.2.3,Win32,59.87665409
,,,,,,,,,,,,,,,,,praslok,praslom,left,3.2904,0,141,141,80,1,81,praslik,praslasz,NA,NA,Te bizony sokat praslasz.,Én is sokat...,praslok,praslom,lakik,-lik,1,PR2062,1998,nő,nem,2022-04-15_12h37.17.367,hesp_baseline,2021.2.3,Win32,59.87665409
,,,,,,,,,,,,,,,,,kalrézban,kalrézben,left,3.7024,0,142,142,16,1,71,kalréz,kalréz,ban,é,Ez itt egy kalréz.,Ott vagyunk a...,kalrézben,kalrézban,dzsungel,NA,NA,PR2062,1998,nő,nem,2022-04-15_12h37.17.367,hesp_baseline,2021.2.3,Win32,59.87665409
,,,,,,,,,,,,,,,,,navecben,navecban,right,2.9697,0,143,143,8,1,63,navec,navec,ban,e,Ez itt egy navec.,Ott vagyunk a...,navecben,navecban,dzsungel,NA,NA,PR2062,1998,nő,nem,2022-04-15_12h37.17.367,hesp_baseline,2021.2.3,Win32,59.87665409
,,,,,,,,,,,,,,,,,ribzok,ribzom,left,2.7458,0,144,144,58,1,59,ribzik,ribzol,NA,NA,Te bizony sokat ribzol.,Én is sokat...,ribzok,ribzom,lakik,-zik,1,PR2062,1998,nő,nem,2022-04-15_12h37.17.367,hesp_baseline,2021.2.3,Win32,59.87665409
,,,,,,,,,,,,,,,,,spöklünk,spöközünk,left,5.3778,0,145,145,130,1,77,spöklik / spöközik,"spöklik, spöközni",ünk,NA,"János imád spöközni, ezért sokat spöklik.",Mi ritkán...,spöklünk,spöközünk,cselekszik,-lik,1,PR2062,1998,nő,nem,2022-04-15_12h37.17.367,hesp_baseline,2021.2.3,Win32,59.87665409
,,,,,,,,,,,,,,,,,csintékben,csintékban,left,4.5564,0,146,146,23,1,78,csinték,csinték,ban,é,Ez itt egy csinték.,Ott vagyunk a...,csintékben,csintékban,dzsungel,NA,NA,PR2062,1998,nő,nem,2022-04-15_12h37.17.367,hesp_baseline,2021.2.3,Win32,59.87665409
,,,,,,,,,,,,,,,,,fluboklotok,flubokoztok,right,7.0769,0,147,147,151,1,98,fluboklik / flubokozik,"fluboklik, flubokozni",tek,NA,"János imád flubokozni, ezért sokat fluboklik.",Ti ritkán...,fluboklotok,flubokoztok,cselekszik,-lik,2,PR2062,1998,nő,nem,2022-04-15_12h37.17.367,hesp_baseline,2021.2.3,Win32,59.87665409
,,,,,,,,,,,,,,,,,klűmöztök,klűmlötök,left,4.95,0,148,148,108,1,55,klűmlik / klűmözik,"klűmlik, klűmözni",tek,NA,"János imád klűmözni, ezért sokat klűmlik.",Ti ritkán...,klűmlötök,klűmöztök,cselekszik,-lik,1,PR2062,1998,nő,nem,2022-04-15_12h37.17.367,hesp_baseline,2021.2.3,Win32,59.87665409
,,,,,,,,,,,,,,,,,fibamlom,fibamlok,right,2.8746,0,149,149,65,1,66,fibamlik,fibamlasz,NA,NA,Te bizony sokat fibamlasz.,Én is sokat...,fibamlok,fibamlom,lakik,-lik,2,PR2062,1998,nő,nem,2022-04-15_12h37.17.367,hesp_baseline,2021.2.3,Win32,59.87665409
,,,,,,,,,,,,,,,,,nyöbzenek,nyöböznek,right,5.943,0,150,150,152,1,99,nyöbzik / nyöbözik,"nyöbzik, nyöbözni",nek,NA,"János imád nyöbözni, ezért sokat nyöbzik.",Ők ritkán...,nyöbzenek,nyöböznek,cselekszik,-zik,1,PR2062,1998,nő,nem,2022-04-15_12h37.17.367,hesp_baseline,2021.2.3,Win32,59.87665409
,,,,,,,,,,,,,,,,,ikszertban,ikszertben,right,3.0444,0,151,151,19,1,74,ikszert,ikszert,ban,e,Ez itt egy ikszert.,Ott vagyunk a...,ikszertben,ikszertban,dzsungel,NA,NA,PR2062,1998,nő,nem,2022-04-15_12h37.17.367,hesp_baseline,2021.2.3,Win32,59.87665409
,,,,,,,,,,,,,,,,,zihencnak,zihencnek,right,4.9026,0,152,152,52,1,107,zihenc,zihenc,nak,e,Ez itt egy zihenc.,Elneveztem a kutyámat...,zihencnek,zihencnak,dzsungel,NA,NA,PR2062,1998,nő,nem,2022-04-15_12h37.17.367,hesp_baseline,2021.2.3,Win32,59.87665409
,,,,,,,,,,,,,,,,,sortemnál,sortemnél,right,3.1356,0,153,153,15,1,70,sortem,sortem,nál,e,Ez itt egy sortem.,Nincs is jobb egy jó...,sortemnél,sortemnál,dzsungel,NA,NA,PR2062,1998,nő,nem,2022-04-15_12h37.17.367,hesp_baseline,2021.2.3,Win32,59.87665409
,,,,,,,,,,,,,,,,,dóbemnak,dóbemnek,right,4.188,0,154,154,48,1,103,dóbem,dóbem,nak,e,Ez itt egy dóbem.,Elneveztem a kutyámat...,dóbemnek,dóbemnak,dzsungel,NA,NA,PR2062,1998,nő,nem,2022-04-15_12h37.17.367,hesp_baseline,2021.2.3,Win32,59.87665409
,,,,,,,,,,,,,,,,,fligzok,fligzom,right,6.5417,0,155,155,103,1,104,fligzik,fligzol,NA,NA,Te bizony sokat fligzol.,Én is sokat...,fligzok,fligzom,lakik,-zik,1,PR2062,1998,nő,nem,2022-04-15_12h37.17.367,hesp_baseline,2021.2.3,Win32,59.87665409
,,,,,,,,,,,,,,,,,spüjzöm,spüjzök,right,2.4939,0,156,156,59,1,60,spüjzik,spüjzöl,NA,NA,Te bizony sokat spüjzöl.,Én is sokat...,spüjzök,spüjzöm,lakik,-zik,1,PR2062,1998,nő,nem,2022-04-15_12h37.17.367,hesp_baseline,2021.2.3,Win32,59.87665409
,,,,,,,,,,,,,,,,,fojlegynek,fojlegynak,left,5.0032,0,157,157,3,1,58,fojlegy,fojlegy,nak,e,Ez itt egy fojlegy.,Elneveztem a kutyámat...,fojlegynek,fojlegynak,dzsungel,NA,NA,PR2062,1998,nő,nem,2022-04-15_12h37.17.367,hesp_baseline,2021.2.3,Win32,59.87665409
,,,,,,,,,,,,,,,,,dabzotok,daboztok,right,3.7626,0,158,158,109,1,56,dabzik / dabozik,"dabzik, dabozni",tek,NA,"János imád dabozni, ezért sokat dabzik.",Ti ritkán...,dabzotok,daboztok,cselekszik,-zik,1,PR2062,1998,nő,nem,2022-04-15_12h37.17.367,hesp_baseline,2021.2.3,Win32,59.87665409
,,,,,,,,,,,,,,,,,plugzom,plugzok,right,2.9234,0,159,159,60,1,61,plugzik,plugzol,NA,NA,Te bizony sokat plugzol.,Én is sokat...,plugzok,plugzom,lakik,-zik,1,PR2062,1998,nő,nem,2022-04-15_12h37.17.367,hesp_baseline,2021.2.3,Win32,59.87665409
,,,,,,,,,,,,,,,,,forzédnak,forzédnek,left,4.9876,0,160,160,46,1,101,forzéd,forzéd,nak,é,Ez itt egy forzéd.,Elneveztem a kutyámat...,forzédnek,forzédnak,dzsungel,NA,NA,PR2062,1998,nő,nem,2022-04-15_12h37.17.367,hesp_baseline,2021.2.3,Win32,59.87665409
,,,,,,,,,,,,,,,,,pratelynak,pratelynek,right,3.0857,0,161,161,47,1,102,prately,prately,nak,e,Ez itt egy prately.,Elneveztem a kutyámat...,pratelynek,pratelynak,dzsungel,NA,NA,PR2062,1998,nő,nem,2022-04-15_12h37.17.367,hesp_baseline,2021.2.3,Win32,59.87665409
