file_name	file_name_date	my_list	my_button1	my_button2	keyboard_input.keys	keyboard_input.rt	withinBlock.thisN	word	prompt	suffix	vowel	carrier_sentence	target_sentence	target1	target2	my_choice	resp_is_first_variant	category	derivational	nsyl	Azonosító	Melyik évben születtél?	Mi a nemed?	Tanultál nyelvészetet?	date	expName	psychopyVersion	OS
PARTICIPANT_hesp_baseline_2022-03-28_18h13.18.076.csv	2022-03-28	list1.csv	frinyozunk	frinylunk	left	11.6526	0	frinylik / frinyozik	frinylik, frinyozni	ünk	NA	János imád frinyozni, ezért sokat frinylik.	Mi ritkán...	frinylunk	frinyozunk	frinyozunk	FALSE	cselekszik	-lik	1	PR2001	2001	férfi	nem	2022-03-28_18h13.18.076	hesp_baseline	2021.2.3	Win32
PARTICIPANT_hesp_baseline_2022-03-28_18h13.18.076.csv	2022-03-28	list1.csv	lumézben	lumézban	right	6.8907	1	luméz	luméz	ban	é	Ez itt egy luméz.	Ott vagyunk a...	lumézben	lumézban	lumézban	FALSE	dzsungel	NA	NA	PR2001	2001	férfi	nem	2022-03-28_18h13.18.076	hesp_baseline	2021.2.3	Win32
PARTICIPANT_hesp_baseline_2022-03-28_18h13.18.076.csv	2022-03-28	list1.csv	kaszépnek	kaszépnak	left	4.3682	2	kaszép	kaszép	nak	é	Ez itt egy kaszép.	Elneveztem a kutyámat...	kaszépnek	kaszépnak	kaszépnek	TRUE	dzsungel	NA	NA	PR2001	2001	férfi	nem	2022-03-28_18h13.18.076	hesp_baseline	2021.2.3	Win32
PARTICIPANT_hesp_baseline_2022-03-28_18h13.18.076.csv	2022-03-28	list1.csv	darhénban	darhénben	left	2.3328	3	darhén	darhén	ban	é	Ez itt egy darhén.	Ott vagyunk a...	darhénben	darhénban	darhénban	FALSE	dzsungel	NA	NA	PR2001	2001	férfi	nem	2022-03-28_18h13.18.076	hesp_baseline	2021.2.3	Win32
PARTICIPANT_hesp_baseline_2022-03-28_18h13.18.076.csv	2022-03-28	list1.csv	dujoznak	dujzanak	right	7.5569	4	dujzik / dujozik	dujzik, dujozni	nek	NA	János imád dujozni, ezért sokat dujzik.	Ők ritkán...	dujzanak	dujoznak	dujzanak	TRUE	cselekszik	-zik	1	PR2001	2001	férfi	nem	2022-03-28_18h13.18.076	hesp_baseline	2021.2.3	Win32
PARTICIPANT_hesp_baseline_2022-03-28_18h13.18.076.csv	2022-03-28	list1.csv	drűröznek	drűrzenek	right	5.0167	5	drűrzik / drűrözik	drűrzik, drűrözni	nek	NA	János imád drűrözni, ezért sokat drűrzik.	Ők ritkán...	drűrzenek	drűröznek	drűrzenek	TRUE	cselekszik	-zik	1	PR2001	2001	férfi	nem	2022-03-28_18h13.18.076	hesp_baseline	2021.2.3	Win32
PARTICIPANT_hesp_baseline_2022-03-28_18h13.18.076.csv	2022-03-28	list1.csv	spicetnak	spicetnek	right	4.551	6	spicet	spicet	nak	e	Ez itt egy spicet.	Elneveztem a kutyámat...	spicetnek	spicetnak	spicetnek	TRUE	dzsungel	NA	NA	PR2001	2001	férfi	nem	2022-03-28_18h13.18.076	hesp_baseline	2021.2.3	Win32
PARTICIPANT_hesp_baseline_2022-03-28_18h13.18.076.csv	2022-03-28	list1.csv	gyivádzom	gyivádzok	left	3.3156	7	gyivádzik	gyivádzol	NA	NA	Te bizony sokat gyivádzol.	Én is sokat...	gyivádzok	gyivádzom	gyivádzom	FALSE	lakik	-zik	2	PR2001	2001	férfi	nem	2022-03-28_18h13.18.076	hesp_baseline	2021.2.3	Win32
PARTICIPANT_hesp_baseline_2022-03-28_18h13.18.076.csv	2022-03-28	list1.csv	monvegnál	monvegnél	left	7.3609	8	monveg	monveg	nál	e	Ez itt egy monveg.	Nincs is jobb egy jó...	monvegnél	monvegnál	monvegnál	FALSE	dzsungel	NA	NA	PR2001	2001	férfi	nem	2022-03-28_18h13.18.076	hesp_baseline	2021.2.3	Win32
PARTICIPANT_hesp_baseline_2022-03-28_18h13.18.076.csv	2022-03-28	list1.csv	jurlunk	jurozunk	left	7.0453	9	jurlik / jurozik	jurlik, jurozni	ünk	NA	János imád jurozni, ezért sokat jurlik.	Mi ritkán...	jurlunk	jurozunk	jurlunk	TRUE	cselekszik	-lik	1	PR2001	2001	férfi	nem	2022-03-28_18h13.18.076	hesp_baseline	2021.2.3	Win32
PARTICIPANT_hesp_baseline_2022-03-28_18h13.18.076.csv	2022-03-28	list1.csv	zsúdelnek	zsúdelnak	left	3.9681	10	zsúdel	zsúdel	nak	e	Ez itt egy zsúdel.	Elneveztem a kutyámat...	zsúdelnek	zsúdelnak	zsúdelnek	TRUE	dzsungel	NA	NA	PR2001	2001	férfi	nem	2022-03-28_18h13.18.076	hesp_baseline	2021.2.3	Win32
PARTICIPANT_hesp_baseline_2022-03-28_18h13.18.076.csv	2022-03-28	list1.csv	püzöztök	püzlötök	left	7.5446	11	püzlik / püzözik	püzlik, püzözni	tek	NA	János imád püzözni, ezért sokat püzlik.	Ti ritkán...	püzlötök	püzöztök	püzöztök	FALSE	cselekszik	-lik	1	PR2001	2001	férfi	nem	2022-03-28_18h13.18.076	hesp_baseline	2021.2.3	Win32
PARTICIPANT_hesp_baseline_2022-03-28_18h13.18.076.csv	2022-03-28	list1.csv	plűbzöm	plűbzök	left	3.5276	12	plűbzik	plűbzöl	NA	NA	Te bizony sokat plűbzöl.	Én is sokat...	plűbzök	plűbzöm	plűbzöm	FALSE	lakik	-zik	1	PR2001	2001	férfi	nem	2022-03-28_18h13.18.076	hesp_baseline	2021.2.3	Win32
PARTICIPANT_hesp_baseline_2022-03-28_18h13.18.076.csv	2022-03-28	list1.csv	trodélyban	trodélyben	left	2.879	13	trodély	trodély	ban	é	Ez itt egy trodély.	Ott vagyunk a...	trodélyben	trodélyban	trodélyban	FALSE	dzsungel	NA	NA	PR2001	2001	férfi	nem	2022-03-28_18h13.18.076	hesp_baseline	2021.2.3	Win32
PARTICIPANT_hesp_baseline_2022-03-28_18h13.18.076.csv	2022-03-28	list1.csv	klörlöm	klörlök	left	3.4168	14	klörlik	klörlesz	NA	NA	Te bizony sokat klörlesz.	Én is sokat...	klörlök	klörlöm	klörlöm	FALSE	lakik	-lik	1	PR2001	2001	férfi	nem	2022-03-28_18h13.18.076	hesp_baseline	2021.2.3	Win32
PARTICIPANT_hesp_baseline_2022-03-28_18h13.18.076.csv	2022-03-28	list1.csv	bügöznek	bügzenek	right	2.9705	15	bügzik / bügözik	bügzik, bügözni	nek	NA	János imád bügözni, ezért sokat bügzik.	Ők ritkán...	bügzenek	bügöznek	bügzenek	TRUE	cselekszik	-zik	1	PR2001	2001	férfi	nem	2022-03-28_18h13.18.076	hesp_baseline	2021.2.3	Win32
PARTICIPANT_hesp_baseline_2022-03-28_18h13.18.076.csv	2022-03-28	list1.csv	zsalrénnek	zsalrénnak	right	5.3406	16	zsalrén	zsalrén	nak	é	Ez itt egy zsalrén.	Elneveztem a kutyámat...	zsalrénnek	zsalrénnak	zsalrénnak	FALSE	dzsungel	NA	NA	PR2001	2001	férfi	nem	2022-03-28_18h13.18.076	hesp_baseline	2021.2.3	Win32
PARTICIPANT_hesp_baseline_2022-03-28_18h13.18.076.csv	2022-03-28	list1.csv	vihapszunk	vihapodunk	left	4.3245	17	vihapszik / vihapodik	vihapszik, vihapodni	ünk	NA	János imád vihapodni, ezért sokat vihapszik.	Mi ritkán...	vihapszunk	vihapodunk	vihapszunk	TRUE	cselekszik	-szik	2	PR2001	2001	férfi	nem	2022-03-28_18h13.18.076	hesp_baseline	2021.2.3	Win32
PARTICIPANT_hesp_baseline_2022-03-28_18h13.18.076.csv	2022-03-28	list1.csv	ibáglom	ibáglok	left	1.9619	18	ibáglik	ibáglasz	NA	NA	Te bizony sokat ibáglasz.	Én is sokat...	ibáglok	ibáglom	ibáglom	FALSE	lakik	-lik	2	PR2001	2001	férfi	nem	2022-03-28_18h13.18.076	hesp_baseline	2021.2.3	Win32
PARTICIPANT_hesp_baseline_2022-03-28_18h13.18.076.csv	2022-03-28	list1.csv	pivédban	pivédben	left	3.4834	19	pivéd	pivéd	ban	é	Ez itt egy pivéd.	Ott vagyunk a...	pivédben	pivédban	pivédban	FALSE	dzsungel	NA	NA	PR2001	2001	férfi	nem	2022-03-28_18h13.18.076	hesp_baseline	2021.2.3	Win32
PARTICIPANT_hesp_baseline_2022-03-28_18h13.18.076.csv	2022-03-28	list1.csv	vanylom	vanylok	left	0.9608	20	vanylik	vanylasz	NA	NA	Te bizony sokat vanylasz.	Én is sokat...	vanylok	vanylom	vanylom	FALSE	lakik	-lik	1	PR2001	2001	férfi	nem	2022-03-28_18h13.18.076	hesp_baseline	2021.2.3	Win32
PARTICIPANT_hesp_baseline_2022-03-28_18h13.18.076.csv	2022-03-28	list1.csv	froroznak	frorlanak	right	6.2593	21	frorlik / frorozik	frorlik, frorozni	nek	NA	János imád frorozni, ezért sokat frorlik.	Ők ritkán...	frorlanak	froroznak	frorlanak	TRUE	cselekszik	-lik	1	PR2001	2001	férfi	nem	2022-03-28_18h13.18.076	hesp_baseline	2021.2.3	Win32
PARTICIPANT_hesp_baseline_2022-03-28_18h13.18.076.csv	2022-03-28	list1.csv	breslenek	breseznek	left	5.6919	22	breslik / bresezik	breslik, bresezni	nek	NA	János imád bresezni, ezért sokat breslik.	Ők ritkán...	breslenek	breseznek	breslenek	TRUE	cselekszik	-lik	1	PR2001	2001	férfi	nem	2022-03-28_18h13.18.076	hesp_baseline	2021.2.3	Win32
PARTICIPANT_hesp_baseline_2022-03-28_18h13.18.076.csv	2022-03-28	list1.csv	spábétban	spábétben	left	3.5623	23	spábét	spábét	ban	é	Ez itt egy spábét.	Ott vagyunk a...	spábétben	spábétban	spábétban	FALSE	dzsungel	NA	NA	PR2001	2001	férfi	nem	2022-03-28_18h13.18.076	hesp_baseline	2021.2.3	Win32
PARTICIPANT_hesp_baseline_2022-03-28_18h13.18.076.csv	2022-03-28	list1.csv	bejezünk	bejzünk	right	2.8308	24	bejzik / bejezik	bejzik, bejezni	ünk	NA	János imád bejezni, ezért sokat bejzik.	Mi ritkán...	bejzünk	bejezünk	bejzünk	TRUE	cselekszik	-zik	1	PR2001	2001	férfi	nem	2022-03-28_18h13.18.076	hesp_baseline	2021.2.3	Win32
PARTICIPANT_hesp_baseline_2022-03-28_18h13.18.076.csv	2022-03-28	list1.csv	feténylem	feténylek	left	2.7352	25	feténylik	feténylesz	NA	NA	Te bizony sokat feténylesz.	Én is sokat...	feténylek	feténylem	feténylem	FALSE	lakik	-lik	2	PR2001	2001	férfi	nem	2022-03-28_18h13.18.076	hesp_baseline	2021.2.3	Win32
PARTICIPANT_hesp_baseline_2022-03-28_18h13.18.076.csv	2022-03-28	list1.csv	klordénynak	klordénynek	left	2.8421	26	klordény	klordény	nak	é	Ez itt egy klordény.	Elneveztem a kutyámat...	klordénynek	klordénynak	klordénynak	FALSE	dzsungel	NA	NA	PR2001	2001	férfi	nem	2022-03-28_18h13.18.076	hesp_baseline	2021.2.3	Win32
PARTICIPANT_hesp_baseline_2022-03-28_18h13.18.076.csv	2022-03-28	list1.csv	narádzok	narádzom	right	2.6295	27	narádzik	narádzol	NA	NA	Te bizony sokat narádzol.	Én is sokat...	narádzok	narádzom	narádzom	FALSE	lakik	-zik	2	PR2001	2001	férfi	nem	2022-03-28_18h13.18.076	hesp_baseline	2021.2.3	Win32
PARTICIPANT_hesp_baseline_2022-03-28_18h13.18.076.csv	2022-03-28	list1.csv	plövőrzök	plövőrzöm	right	2.5573	28	plövőrzik	plövőrzöl	NA	NA	Te bizony sokat plövőrzöl.	Én is sokat...	plövőrzök	plövőrzöm	plövőrzöm	FALSE	lakik	-zik	2	PR2001	2001	férfi	nem	2022-03-28_18h13.18.076	hesp_baseline	2021.2.3	Win32
PARTICIPANT_hesp_baseline_2022-03-28_18h13.18.076.csv	2022-03-28	list1.csv	dirányoznak	diránylanak	right	4.7113	29	diránylik / dirányozik	diránylik, dirányozni	nek	NA	János imád dirányozni, ezért sokat diránylik.	Ők ritkán...	diránylanak	dirányoznak	diránylanak	TRUE	cselekszik	-lik	2	PR2001	2001	férfi	nem	2022-03-28_18h13.18.076	hesp_baseline	2021.2.3	Win32
PARTICIPANT_hesp_baseline_2022-03-28_18h13.18.076.csv	2022-03-28	list1.csv	köszöztök	köszlötök	right	4.9638	30	köszlik / köszözik	köszlik, köszözni	tek	NA	János imád köszözni, ezért sokat köszlik.	Ti ritkán...	köszlötök	köszöztök	köszlötök	TRUE	cselekszik	-lik	1	PR2001	2001	férfi	nem	2022-03-28_18h13.18.076	hesp_baseline	2021.2.3	Win32
PARTICIPANT_hesp_baseline_2022-03-28_18h13.18.076.csv	2022-03-28	list1.csv	tránélynak	tránélynek	left	2.3341	31	tránély	tránély	nak	é	Ez itt egy tránély.	Elneveztem a kutyámat...	tránélynek	tránélynak	tránélynak	FALSE	dzsungel	NA	NA	PR2001	2001	férfi	nem	2022-03-28_18h13.18.076	hesp_baseline	2021.2.3	Win32
PARTICIPANT_hesp_baseline_2022-03-28_18h13.18.076.csv	2022-03-28	list1.csv	hurjorzok	hurjorzom	right	8.4182	32	hurjorzik	hurjorzol	NA	NA	Te bizony sokat hurjorzol.	Én is sokat...	hurjorzok	hurjorzom	hurjorzom	FALSE	lakik	-zik	2	PR2001	2001	férfi	nem	2022-03-28_18h13.18.076	hesp_baseline	2021.2.3	Win32
PARTICIPANT_hesp_baseline_2022-03-28_18h13.18.076.csv	2022-03-28	list1.csv	géregeztek	géregletek	right	5.3942	33	géreglik / géregezik	géreglik, géregezni	tek	NA	János imád géregezni, ezért sokat géreglik.	Ti ritkán...	géregletek	géregeztek	géregletek	TRUE	cselekszik	-lik	2	PR2001	2001	férfi	nem	2022-03-28_18h13.18.076	hesp_baseline	2021.2.3	Win32
PARTICIPANT_hesp_baseline_2022-03-28_18h13.18.076.csv	2022-03-28	list1.csv	spilágzok	spilágzom	right	2.4098	34	spilágzik	spilágzol	NA	NA	Te bizony sokat spilágzol.	Én is sokat...	spilágzok	spilágzom	spilágzom	FALSE	lakik	-zik	2	PR2001	2001	férfi	nem	2022-03-28_18h13.18.076	hesp_baseline	2021.2.3	Win32
PARTICIPANT_hesp_baseline_2022-03-28_18h13.18.076.csv	2022-03-28	list1.csv	gábédnél	gábédnál	right	4.2699	35	gábéd	gábéd	nál	é	Ez itt egy gábéd.	Nincs is jobb egy jó...	gábédnél	gábédnál	gábédnál	FALSE	dzsungel	NA	NA	PR2001	2001	férfi	nem	2022-03-28_18h13.18.076	hesp_baseline	2021.2.3	Win32
PARTICIPANT_hesp_baseline_2022-03-28_18h13.18.076.csv	2022-03-28	list1.csv	prögöztök	prögzötök	right	4.0593	36	prögzik / prögözik	prögzik, prögözni	tek	NA	János imád prögözni, ezért sokat prögzik.	Ti ritkán...	prögzötök	prögöztök	prögzötök	TRUE	cselekszik	-zik	1	PR2001	2001	férfi	nem	2022-03-28_18h13.18.076	hesp_baseline	2021.2.3	Win32
PARTICIPANT_hesp_baseline_2022-03-28_18h13.18.076.csv	2022-03-28	list1.csv	frihegezünk	friheglünk	right	2.3437	37	friheglik / frihegezik	friheglik, frihegezni	ünk	NA	János imád frihegezni, ezért sokat friheglik.	Mi ritkán...	friheglünk	frihegezünk	friheglünk	TRUE	cselekszik	-lik	2	PR2001	2001	férfi	nem	2022-03-28_18h13.18.076	hesp_baseline	2021.2.3	Win32
PARTICIPANT_hesp_baseline_2022-03-28_18h13.18.076.csv	2022-03-28	list1.csv	zopélynél	zopélynál	left	2.9692	38	zopély	zopély	nál	é	Ez itt egy zopély.	Nincs is jobb egy jó...	zopélynél	zopélynál	zopélynél	TRUE	dzsungel	NA	NA	PR2001	2001	férfi	nem	2022-03-28_18h13.18.076	hesp_baseline	2021.2.3	Win32
PARTICIPANT_hesp_baseline_2022-03-28_18h13.18.076.csv	2022-03-28	list1.csv	kadérnál	kadérnél	left	5.1459	39	kadér	kadér	nál	é	Ez itt egy kadér.	Nincs is jobb egy jó...	kadérnél	kadérnál	kadérnál	FALSE	dzsungel	NA	NA	PR2001	2001	férfi	nem	2022-03-28_18h13.18.076	hesp_baseline	2021.2.3	Win32
PARTICIPANT_hesp_baseline_2022-03-28_18h13.18.076.csv	2022-03-28	list1.csv	spibaklom	spibaklok	left	3.4298	40	spibaklik	spibaklasz	NA	NA	Te bizony sokat spibaklasz.	Én is sokat...	spibaklok	spibaklom	spibaklom	FALSE	lakik	-lik	2	PR2001	2001	férfi	nem	2022-03-28_18h13.18.076	hesp_baseline	2021.2.3	Win32
PARTICIPANT_hesp_baseline_2022-03-28_18h13.18.076.csv	2022-03-28	list1.csv	szibedban	szibedben	right	3.0519	41	szibed	szibed	ban	e	Ez itt egy szibed.	Ott vagyunk a...	szibedben	szibedban	szibedben	TRUE	dzsungel	NA	NA	PR2001	2001	férfi	nem	2022-03-28_18h13.18.076	hesp_baseline	2021.2.3	Win32
PARTICIPANT_hesp_baseline_2022-03-28_18h13.18.076.csv	2022-03-28	list1.csv	pisélyban	pisélyben	right	2.8956	42	pisély	pisély	ban	é	Ez itt egy pisély.	Ott vagyunk a...	pisélyben	pisélyban	pisélyben	TRUE	dzsungel	NA	NA	PR2001	2001	férfi	nem	2022-03-28_18h13.18.076	hesp_baseline	2021.2.3	Win32
PARTICIPANT_hesp_baseline_2022-03-28_18h13.18.076.csv	2022-03-28	list1.csv	pugoslok	pugoslom	right	2.3046	43	pugoslik	pugoslasz	NA	NA	Te bizony sokat pugoslasz.	Én is sokat...	pugoslok	pugoslom	pugoslom	FALSE	lakik	-lik	2	PR2001	2001	férfi	nem	2022-03-28_18h13.18.076	hesp_baseline	2021.2.3	Win32
PARTICIPANT_hesp_baseline_2022-03-28_18h13.18.076.csv	2022-03-28	list1.csv	hóbensban	hóbensben	right	2.5351	44	hóbens	hóbens	ban	e	Ez itt egy hóbens.	Ott vagyunk a...	hóbensben	hóbensban	hóbensben	TRUE	dzsungel	NA	NA	PR2001	2001	férfi	nem	2022-03-28_18h13.18.076	hesp_baseline	2021.2.3	Win32
PARTICIPANT_hesp_baseline_2022-03-28_18h13.18.076.csv	2022-03-28	list1.csv	tágarozunk	tágarzunk	right	4.3417	45	tágarzik / tágarozik	tágarzik, tágarozni	ünk	NA	János imád tágarozni, ezért sokat tágarzik.	Mi ritkán...	tágarzunk	tágarozunk	tágarzunk	TRUE	cselekszik	-zik	2	PR2001	2001	férfi	nem	2022-03-28_18h13.18.076	hesp_baseline	2021.2.3	Win32
PARTICIPANT_hesp_baseline_2022-03-28_18h13.18.076.csv	2022-03-28	list1.csv	nuhétnál	nuhétnél	left	2.8445	46	nuhét	nuhét	nál	é	Ez itt egy nuhét.	Nincs is jobb egy jó...	nuhétnél	nuhétnál	nuhétnál	FALSE	dzsungel	NA	NA	PR2001	2001	férfi	nem	2022-03-28_18h13.18.076	hesp_baseline	2021.2.3	Win32
PARTICIPANT_hesp_baseline_2022-03-28_18h13.18.076.csv	2022-03-28	list1.csv	marzom	marzok	left	1.9338	47	marzik	marzol	NA	NA	Te bizony sokat marzol.	Én is sokat...	marzok	marzom	marzom	FALSE	lakik	-zik	1	PR2001	2001	férfi	nem	2022-03-28_18h13.18.076	hesp_baseline	2021.2.3	Win32
PARTICIPANT_hesp_baseline_2022-03-28_18h13.18.076.csv	2022-03-28	list1.csv	trukszotok	trukodtok	left	2.9757	48	trukszik / trukodik	trukszik, trukodni	tek	NA	János imád trukodni, ezért sokat trukszik.	Ti ritkán...	trukszotok	trukodtok	trukszotok	TRUE	cselekszik	-szik	1	PR2001	2001	férfi	nem	2022-03-28_18h13.18.076	hesp_baseline	2021.2.3	Win32
PARTICIPANT_hesp_baseline_2022-03-28_18h13.18.076.csv	2022-03-28	list1.csv	nyivágozunk	nyivágzunk	right	4.9778	49	nyivágzik / nyivágozik	nyivágzik, nyivágozni	ünk	NA	János imád nyivágozni, ezért sokat nyivágzik.	Mi ritkán...	nyivágzunk	nyivágozunk	nyivágzunk	TRUE	cselekszik	-zik	2	PR2001	2001	férfi	nem	2022-03-28_18h13.18.076	hesp_baseline	2021.2.3	Win32
PARTICIPANT_hesp_baseline_2022-03-28_18h13.18.076.csv	2022-03-28	list1.csv	vilakszom	vilakszok	left	2.3352	50	vilakszik	vilakszol	NA	NA	Te bizony sokat vilakszol.	Én is sokat...	vilakszok	vilakszom	vilakszom	FALSE	lakik	-szik	2	PR2001	2001	férfi	nem	2022-03-28_18h13.18.076	hesp_baseline	2021.2.3	Win32
PARTICIPANT_hesp_baseline_2022-03-28_18h13.18.076.csv	2022-03-28	list1.csv	flérlek	flérlem	right	1.2036	51	flérlik	flérlesz	NA	NA	Te bizony sokat flérlesz.	Én is sokat...	flérlek	flérlem	flérlem	FALSE	lakik	-lik	1	PR2001	2001	férfi	nem	2022-03-28_18h13.18.076	hesp_baseline	2021.2.3	Win32
PARTICIPANT_hesp_baseline_2022-03-28_18h13.18.076.csv	2022-03-28	list1.csv	hiragoznak	hiragzanak	right	2.7796	52	hiragzik / hiragozik	hiragzik, hiragozni	nek	NA	János imád hiragozni, ezért sokat hiragzik.	Ők ritkán...	hiragzanak	hiragoznak	hiragzanak	TRUE	cselekszik	-zik	2	PR2001	2001	férfi	nem	2022-03-28_18h13.18.076	hesp_baseline	2021.2.3	Win32
PARTICIPANT_hesp_baseline_2022-03-28_18h13.18.076.csv	2022-03-28	list1.csv	vismernél	vismernál	left	4.3953	53	vismer	vismer	nál	e	Ez itt egy vismer.	Nincs is jobb egy jó...	vismernél	vismernál	vismernél	TRUE	dzsungel	NA	NA	PR2001	2001	férfi	nem	2022-03-28_18h13.18.076	hesp_baseline	2021.2.3	Win32
PARTICIPANT_hesp_baseline_2022-03-28_18h13.18.076.csv	2022-03-28	list1.csv	dábegyben	dábegyban	left	4.9023	54	dábegy	dábegy	ban	e	Ez itt egy dábegy.	Ott vagyunk a...	dábegyben	dábegyban	dábegyben	TRUE	dzsungel	NA	NA	PR2001	2001	férfi	nem	2022-03-28_18h13.18.076	hesp_baseline	2021.2.3	Win32
PARTICIPANT_hesp_baseline_2022-03-28_18h13.18.076.csv	2022-03-28	list1.csv	bralképban	bralképben	right	4.5184	55	bralkép	bralkép	ban	é	Ez itt egy bralkép.	Ott vagyunk a...	bralképben	bralképban	bralképben	TRUE	dzsungel	NA	NA	PR2001	2001	férfi	nem	2022-03-28_18h13.18.076	hesp_baseline	2021.2.3	Win32
PARTICIPANT_hesp_baseline_2022-03-28_18h13.18.076.csv	2022-03-28	list1.csv	klihaslotok	klihasoztok	left	7.6908	56	klihaslik / klihasozik	klihaslik, klihasozni	tek	NA	János imád klihasozni, ezért sokat klihaslik.	Ti ritkán...	klihaslotok	klihasoztok	klihaslotok	TRUE	cselekszik	-lik	2	PR2001	2001	férfi	nem	2022-03-28_18h13.18.076	hesp_baseline	2021.2.3	Win32
PARTICIPANT_hesp_baseline_2022-03-28_18h13.18.076.csv	2022-03-28	list1.csv	spűmlöm	spűmlök	left	1.9553	57	spűmlik	spűmlesz	NA	NA	Te bizony sokat spűmlesz.	Én is sokat...	spűmlök	spűmlöm	spűmlöm	FALSE	lakik	-lik	1	PR2001	2001	férfi	nem	2022-03-28_18h13.18.076	hesp_baseline	2021.2.3	Win32
PARTICIPANT_hesp_baseline_2022-03-28_18h13.18.076.csv	2022-03-28	list1.csv	dutecnál	dutecnél	right	2.9423	58	dutec	dutec	nál	e	Ez itt egy dutec.	Nincs is jobb egy jó...	dutecnél	dutecnál	dutecnél	TRUE	dzsungel	NA	NA	PR2001	2001	férfi	nem	2022-03-28_18h13.18.076	hesp_baseline	2021.2.3	Win32
PARTICIPANT_hesp_baseline_2022-03-28_18h13.18.076.csv	2022-03-28	list1.csv	mísozunk	míslunk	right	4.4824	59	míslik / mísozik	míslik, mísozni	ünk	NA	János imád mísozni, ezért sokat míslik.	Mi ritkán...	míslunk	mísozunk	míslunk	TRUE	cselekszik	-lik	1	PR2001	2001	férfi	nem	2022-03-28_18h13.18.076	hesp_baseline	2021.2.3	Win32
PARTICIPANT_hesp_baseline_2022-03-28_18h13.18.076.csv	2022-03-28	list1.csv	pekszünk	pekedünk	left	1.8476	60	pekszik / pekedik	pekszik, pekedni	ünk	NA	János imád pekedni, ezért sokat pekszik.	Mi ritkán...	pekszünk	pekedünk	pekszünk	TRUE	cselekszik	-szik	1	PR2001	2001	férfi	nem	2022-03-28_18h13.18.076	hesp_baseline	2021.2.3	Win32
PARTICIPANT_hesp_baseline_2022-03-28_18h13.18.076.csv	2022-03-28	list1.csv	brarlok	brarlom	right	1.4453	61	brarlik	brarlasz	NA	NA	Te bizony sokat brarlasz.	Én is sokat...	brarlok	brarlom	brarlom	FALSE	lakik	-lik	1	PR2001	2001	férfi	nem	2022-03-28_18h13.18.076	hesp_baseline	2021.2.3	Win32
PARTICIPANT_hesp_baseline_2022-03-28_18h13.18.076.csv	2022-03-28	list1.csv	pítszom	pítszok	left	1.6004	62	pítszik	pítszol	NA	NA	Te bizony sokat pítszol.	Én is sokat...	pítszok	pítszom	pítszom	FALSE	lakik	-szik	1	PR2001	2001	férfi	nem	2022-03-28_18h13.18.076	hesp_baseline	2021.2.3	Win32
PARTICIPANT_hesp_baseline_2022-03-28_18h13.18.076.csv	2022-03-28	list1.csv	jalrénynél	jalrénynál	left	2.916	63	jalrény	jalrény	nál	é	Ez itt egy jalrény.	Nincs is jobb egy jó...	jalrénynél	jalrénynál	jalrénynél	TRUE	dzsungel	NA	NA	PR2001	2001	férfi	nem	2022-03-28_18h13.18.076	hesp_baseline	2021.2.3	Win32
PARTICIPANT_hesp_baseline_2022-03-28_18h13.18.076.csv	2022-03-28	list1.csv	flehénylek	flehénylem	right	3.3316	64	flehénylik	flehénylesz	NA	NA	Te bizony sokat flehénylesz.	Én is sokat...	flehénylek	flehénylem	flehénylem	FALSE	lakik	-lik	2	PR2001	2001	férfi	nem	2022-03-28_18h13.18.076	hesp_baseline	2021.2.3	Win32
PARTICIPANT_hesp_baseline_2022-03-28_18h13.18.076.csv	2022-03-28	list1.csv	naremban	naremben	right	2.9309	65	narem	narem	ban	e	Ez itt egy narem.	Ott vagyunk a...	naremben	naremban	naremben	TRUE	dzsungel	NA	NA	PR2001	2001	férfi	nem	2022-03-28_18h13.18.076	hesp_baseline	2021.2.3	Win32
PARTICIPANT_hesp_baseline_2022-03-28_18h13.18.076.csv	2022-03-28	list1.csv	klaráglom	klaráglok	left	2.8489	66	klaráglik	klaráglasz	NA	NA	Te bizony sokat klaráglasz.	Én is sokat...	klaráglok	klaráglom	klaráglom	FALSE	lakik	-lik	2	PR2001	2001	férfi	nem	2022-03-28_18h13.18.076	hesp_baseline	2021.2.3	Win32
PARTICIPANT_hesp_baseline_2022-03-28_18h13.18.076.csv	2022-03-28	list1.csv	sprimozunk	sprimlunk	right	6.6299	67	sprimlik / sprimozik	sprimlik, sprimozni	ünk	NA	János imád sprimozni, ezért sokat sprimlik.	Mi ritkán...	sprimlunk	sprimozunk	sprimlunk	TRUE	cselekszik	-lik	1	PR2001	2001	férfi	nem	2022-03-28_18h13.18.076	hesp_baseline	2021.2.3	Win32
PARTICIPANT_hesp_baseline_2022-03-28_18h13.18.076.csv	2022-03-28	list1.csv	lorzensnél	lorzensnál	left	3.0639	68	lorzens	lorzens	nál	e	Ez itt egy lorzens.	Nincs is jobb egy jó...	lorzensnél	lorzensnál	lorzensnél	TRUE	dzsungel	NA	NA	PR2001	2001	férfi	nem	2022-03-28_18h13.18.076	hesp_baseline	2021.2.3	Win32
PARTICIPANT_hesp_baseline_2022-03-28_18h13.18.076.csv	2022-03-28	list1.csv	kűdöznek	kűdlenek	right	2.4449	69	kűdlik / kűdözik	kűdlik, kűdözni	nek	NA	János imád kűdözni, ezért sokat kűdlik.	Ők ritkán...	kűdlenek	kűdöznek	kűdlenek	TRUE	cselekszik	-lik	1	PR2001	2001	férfi	nem	2022-03-28_18h13.18.076	hesp_baseline	2021.2.3	Win32
PARTICIPANT_hesp_baseline_2022-03-28_18h13.18.076.csv	2022-03-28	list1.csv	nyizlunk	nyizozunk	left	2.6141	70	nyizlik / nyizozik	nyizlik, nyizozni	ünk	NA	János imád nyizozni, ezért sokat nyizlik.	Mi ritkán...	nyizlunk	nyizozunk	nyizlunk	TRUE	cselekszik	-lik	1	PR2001	2001	férfi	nem	2022-03-28_18h13.18.076	hesp_baseline	2021.2.3	Win32
PARTICIPANT_hesp_baseline_2022-03-28_18h13.18.076.csv	2022-03-28	list1.csv	flagárzok	flagárzom	right	2.197	71	flagárzik	flagárzol	NA	NA	Te bizony sokat flagárzol.	Én is sokat...	flagárzok	flagárzom	flagárzom	FALSE	lakik	-zik	2	PR2001	2001	férfi	nem	2022-03-28_18h13.18.076	hesp_baseline	2021.2.3	Win32
PARTICIPANT_hesp_baseline_2022-03-28_18h13.18.076.csv	2022-03-28	list1.csv	brözlötök	brözöztök	left	1.6232	72	brözlik / brözözik	brözlik, brözözni	tek	NA	János imád brözözni, ezért sokat brözlik.	Ti ritkán...	brözlötök	brözöztök	brözlötök	TRUE	cselekszik	-lik	1	PR2001	2001	férfi	nem	2022-03-28_18h13.18.076	hesp_baseline	2021.2.3	Win32
PARTICIPANT_hesp_baseline_2022-03-28_18h13.18.076.csv	2022-03-28	list1.csv	bribasoznak	bribaslanak	right	2.1953	73	bribaslik / bribasozik	bribaslik, bribasozni	nek	NA	János imád bribasozni, ezért sokat bribaslik.	Ők ritkán...	bribaslanak	bribasoznak	bribaslanak	TRUE	cselekszik	-lik	2	PR2001	2001	férfi	nem	2022-03-28_18h13.18.076	hesp_baseline	2021.2.3	Win32
PARTICIPANT_hesp_baseline_2022-03-28_18h13.18.076.csv	2022-03-28	list1.csv	vülődzök	vülődzöm	right	2.0691	74	vülődzik	vülődzöl	NA	NA	Te bizony sokat vülődzöl.	Én is sokat...	vülődzök	vülődzöm	vülődzöm	FALSE	lakik	-zik	2	PR2001	2001	férfi	nem	2022-03-28_18h13.18.076	hesp_baseline	2021.2.3	Win32
PARTICIPANT_hesp_baseline_2022-03-28_18h13.18.076.csv	2022-03-28	list1.csv	gihejlünk	gihejezünk	left	3.832	75	gihejlik / gihejezik	gihejlik, gihejezni	ünk	NA	János imád gihejezni, ezért sokat gihejlik.	Mi ritkán...	gihejlünk	gihejezünk	gihejlünk	TRUE	cselekszik	-lik	2	PR2001	2001	férfi	nem	2022-03-28_18h13.18.076	hesp_baseline	2021.2.3	Win32
PARTICIPANT_hesp_baseline_2022-03-28_18h13.18.076.csv	2022-03-28	list1.csv	bregezünk	bregzünk	right	3.4191	76	bregzik / bregezik	bregzik, bregezni	ünk	NA	János imád bregezni, ezért sokat bregzik.	Mi ritkán...	bregzünk	bregezünk	bregzünk	TRUE	cselekszik	-zik	1	PR2001	2001	férfi	nem	2022-03-28_18h13.18.076	hesp_baseline	2021.2.3	Win32
PARTICIPANT_hesp_baseline_2022-03-28_18h13.18.076.csv	2022-03-28	list1.csv	herégszem	herégszek	left	1.2427	77	herégszik	herégszel	NA	NA	Te bizony sokat herégszel.	Én is sokat...	herégszek	herégszem	herégszem	FALSE	lakik	-szik	2	PR2001	2001	férfi	nem	2022-03-28_18h13.18.076	hesp_baseline	2021.2.3	Win32
PARTICIPANT_hesp_baseline_2022-03-28_18h13.18.076.csv	2022-03-28	list1.csv	spélszek	spélszem	right	1.1022	78	spélszik	spélszel	NA	NA	Te bizony sokat spélszel.	Én is sokat...	spélszek	spélszem	spélszem	FALSE	lakik	-szik	1	PR2001	2001	férfi	nem	2022-03-28_18h13.18.076	hesp_baseline	2021.2.3	Win32
PARTICIPANT_hesp_baseline_2022-03-28_18h13.18.076.csv	2022-03-28	list1.csv	flözlök	flözlöm	right	1.5631	79	flözlik	flözlesz	NA	NA	Te bizony sokat flözlesz.	Én is sokat...	flözlök	flözlöm	flözlöm	FALSE	lakik	-lik	1	PR2001	2001	férfi	nem	2022-03-28_18h13.18.076	hesp_baseline	2021.2.3	Win32
PARTICIPANT_hesp_baseline_2022-03-28_18h13.18.076.csv	2022-03-28	list1.csv	föködnek	fökszenek	right	3.1582	80	fökszik / föködik	fökszik, föködni	nek	NA	János imád föködni, ezért sokat fökszik.	Ők ritkán...	fökszenek	föködnek	fökszenek	TRUE	cselekszik	-szik	1	PR2001	2001	férfi	nem	2022-03-28_18h13.18.076	hesp_baseline	2021.2.3	Win32
PARTICIPANT_hesp_baseline_2022-03-28_18h13.18.076.csv	2022-03-28	list1.csv	kliszernál	kliszernél	left	4.5022	81	kliszer	kliszer	nál	e	Ez itt egy kliszer.	Nincs is jobb egy jó...	kliszernél	kliszernál	kliszernál	FALSE	dzsungel	NA	NA	PR2001	2001	férfi	nem	2022-03-28_18h13.18.076	hesp_baseline	2021.2.3	Win32
PARTICIPANT_hesp_baseline_2022-03-28_18h13.18.076.csv	2022-03-28	list1.csv	hilarzom	hilarzok	left	2.7439	82	hilarzik	hilarzol	NA	NA	Te bizony sokat hilarzol.	Én is sokat...	hilarzok	hilarzom	hilarzom	FALSE	lakik	-zik	2	PR2001	2001	férfi	nem	2022-03-28_18h13.18.076	hesp_baseline	2021.2.3	Win32
PARTICIPANT_hesp_baseline_2022-03-28_18h13.18.076.csv	2022-03-28	list1.csv	csublényben	csublényban	left	3.0478	83	csublény	csublény	ban	é	Ez itt egy csublény.	Ott vagyunk a...	csublényben	csublényban	csublényben	TRUE	dzsungel	NA	NA	PR2001	2001	férfi	nem	2022-03-28_18h13.18.076	hesp_baseline	2021.2.3	Win32
PARTICIPANT_hesp_baseline_2022-03-28_18h13.18.076.csv	2022-03-28	list1.csv	píjlom	píjlok	left	4.5016	84	píjlik	píjlasz	NA	NA	Te bizony sokat píjlasz.	Én is sokat...	píjlok	píjlom	píjlom	FALSE	lakik	-lik	1	PR2001	2001	férfi	nem	2022-03-28_18h13.18.076	hesp_baseline	2021.2.3	Win32
PARTICIPANT_hesp_baseline_2022-03-28_18h13.18.076.csv	2022-03-28	list1.csv	málapszok	málapszom	right	1.1047	85	málapszik	málapszol	NA	NA	Te bizony sokat málapszol.	Én is sokat...	málapszok	málapszom	málapszom	FALSE	lakik	-szik	2	PR2001	2001	férfi	nem	2022-03-28_18h13.18.076	hesp_baseline	2021.2.3	Win32
PARTICIPANT_hesp_baseline_2022-03-28_18h13.18.076.csv	2022-03-28	list1.csv	rokszom	rokszok	left	0.6443	86	rokszik	rokszol	NA	NA	Te bizony sokat rokszol.	Én is sokat...	rokszok	rokszom	rokszom	FALSE	lakik	-szik	1	PR2001	2001	férfi	nem	2022-03-28_18h13.18.076	hesp_baseline	2021.2.3	Win32
PARTICIPANT_hesp_baseline_2022-03-28_18h13.18.076.csv	2022-03-28	list1.csv	pöröztök	pörzötök	right	2.8863	87	pörzik / pörözik	pörzik, pörözni	tek	NA	János imád pörözni, ezért sokat pörzik.	Ti ritkán...	pörzötök	pöröztök	pörzötök	TRUE	cselekszik	-zik	1	PR2001	2001	férfi	nem	2022-03-28_18h13.18.076	hesp_baseline	2021.2.3	Win32
PARTICIPANT_hesp_baseline_2022-03-28_18h13.18.076.csv	2022-03-28	list1.csv	prélemlenek	prélemeznek	left	3.5489	88	prélemlik / prélemezik	prélemlik, prélemezni	nek	NA	János imád prélemezni, ezért sokat prélemlik.	Ők ritkán...	prélemlenek	prélemeznek	prélemlenek	TRUE	cselekszik	-lik	2	PR2001	2001	férfi	nem	2022-03-28_18h13.18.076	hesp_baseline	2021.2.3	Win32
PARTICIPANT_hesp_baseline_2022-03-28_18h13.18.076.csv	2022-03-28	list1.csv	spéslek	spéslem	right	3.7498	89	spéslik	spéslesz	NA	NA	Te bizony sokat spéslesz.	Én is sokat...	spéslek	spéslem	spéslem	FALSE	lakik	-lik	1	PR2001	2001	férfi	nem	2022-03-28_18h13.18.076	hesp_baseline	2021.2.3	Win32
PARTICIPANT_hesp_baseline_2022-03-28_18h13.18.076.csv	2022-03-28	list1.csv	brüszöztök	brüszlötök	right	2.5673	90	brüszlik / brüszözik	brüszlik, brüszözni	tek	NA	János imád brüszözni, ezért sokat brüszlik.	Ti ritkán...	brüszlötök	brüszöztök	brüszlötök	TRUE	cselekszik	-lik	1	PR2001	2001	férfi	nem	2022-03-28_18h13.18.076	hesp_baseline	2021.2.3	Win32
PARTICIPANT_hesp_baseline_2022-03-28_18h13.18.076.csv	2022-03-28	list1.csv	hijegynál	hijegynél	right	3.4773	91	hijegy	hijegy	nál	e	Ez itt egy hijegy.	Nincs is jobb egy jó...	hijegynél	hijegynál	hijegynél	TRUE	dzsungel	NA	NA	PR2001	2001	férfi	nem	2022-03-28_18h13.18.076	hesp_baseline	2021.2.3	Win32
PARTICIPANT_hesp_baseline_2022-03-28_18h13.18.076.csv	2022-03-28	list1.csv	préleglek	préleglem	right	2.7199	92	préleglik	préleglesz	NA	NA	Te bizony sokat préleglesz.	Én is sokat...	préleglek	préleglem	préleglem	FALSE	lakik	-lik	2	PR2001	2001	férfi	nem	2022-03-28_18h13.18.076	hesp_baseline	2021.2.3	Win32
PARTICIPANT_hesp_baseline_2022-03-28_18h13.18.076.csv	2022-03-28	list1.csv	riványlotok	riványoztok	left	4.8938	93	riványlik / riványozik	riványlik, riványozni	tek	NA	János imád riványozni, ezért sokat riványlik.	Ti ritkán...	riványlotok	riványoztok	riványlotok	TRUE	cselekszik	-lik	2	PR2001	2001	férfi	nem	2022-03-28_18h13.18.076	hesp_baseline	2021.2.3	Win32
PARTICIPANT_hesp_baseline_2022-03-28_18h13.18.076.csv	2022-03-28	list1.csv	salárzom	salárzok	left	2.6679	94	salárzik	salárzol	NA	NA	Te bizony sokat salárzol.	Én is sokat...	salárzok	salárzom	salárzom	FALSE	lakik	-zik	2	PR2001	2001	férfi	nem	2022-03-28_18h13.18.076	hesp_baseline	2021.2.3	Win32
PARTICIPANT_hesp_baseline_2022-03-28_18h13.18.076.csv	2022-03-28	list1.csv	fádensnak	fádensnek	right	1.8127	95	fádens	fádens	nak	e	Ez itt egy fádens.	Elneveztem a kutyámat...	fádensnek	fádensnak	fádensnek	TRUE	dzsungel	NA	NA	PR2001	2001	férfi	nem	2022-03-28_18h13.18.076	hesp_baseline	2021.2.3	Win32
PARTICIPANT_hesp_baseline_2022-03-28_18h13.18.076.csv	2022-03-28	list1.csv	frélegzünk	frélegezünk	left	6.5672	96	frélegzik / frélegezik	frélegzik, frélegezni	ünk	NA	János imád frélegezni, ezért sokat frélegzik.	Mi ritkán...	frélegzünk	frélegezünk	frélegzünk	TRUE	cselekszik	-zik	2	PR2001	2001	férfi	nem	2022-03-28_18h13.18.076	hesp_baseline	2021.2.3	Win32
PARTICIPANT_hesp_baseline_2022-03-28_18h13.18.076.csv	2022-03-28	list1.csv	plibzotok	pliboztok	left	5.8454	97	plibzik / plibozik	plibzik, plibozni	tek	NA	János imád plibozni, ezért sokat plibzik.	Ti ritkán...	plibzotok	pliboztok	plibzotok	TRUE	cselekszik	-zik	1	PR2001	2001	férfi	nem	2022-03-28_18h13.18.076	hesp_baseline	2021.2.3	Win32
PARTICIPANT_hesp_baseline_2022-03-28_18h13.18.076.csv	2022-03-28	list1.csv	flivegzenek	flivegeznek	left	4.6515	98	flivegzik / flivegezik	flivegzik, flivegezni	nek	NA	János imád flivegezni, ezért sokat flivegzik.	Ők ritkán...	flivegzenek	flivegeznek	flivegzenek	TRUE	cselekszik	-zik	2	PR2001	2001	férfi	nem	2022-03-28_18h13.18.076	hesp_baseline	2021.2.3	Win32
PARTICIPANT_hesp_baseline_2022-03-28_18h13.18.076.csv	2022-03-28	list1.csv	bölszöm	bölszök	left	2.6797	99	bölszik	bölszöl	NA	NA	Te bizony sokat bölszöl.	Én is sokat...	bölszök	bölszöm	bölszöm	FALSE	lakik	-szik	1	PR2001	2001	férfi	nem	2022-03-28_18h13.18.076	hesp_baseline	2021.2.3	Win32
PARTICIPANT_hesp_baseline_2022-03-28_18h13.18.076.csv	2022-03-28	list1.csv	sprédlem	sprédlek	left	1.3515	100	sprédlik	sprédlesz	NA	NA	Te bizony sokat sprédlesz.	Én is sokat...	sprédlek	sprédlem	sprédlem	FALSE	lakik	-lik	1	PR2001	2001	férfi	nem	2022-03-28_18h13.18.076	hesp_baseline	2021.2.3	Win32
PARTICIPANT_hesp_baseline_2022-03-28_18h13.18.076.csv	2022-03-28	list1.csv	brobódzok	brobódzom	right	1.314	101	brobódzik	brobódzol	NA	NA	Te bizony sokat brobódzol.	Én is sokat...	brobódzok	brobódzom	brobódzom	FALSE	lakik	-zik	2	PR2001	2001	férfi	nem	2022-03-28_18h13.18.076	hesp_baseline	2021.2.3	Win32
PARTICIPANT_hesp_baseline_2022-03-28_18h13.18.076.csv	2022-03-28	list1.csv	hosétnak	hosétnek	right	2.418	102	hosét	hosét	nak	é	Ez itt egy hosét.	Elneveztem a kutyámat...	hosétnek	hosétnak	hosétnek	TRUE	dzsungel	NA	NA	PR2001	2001	férfi	nem	2022-03-28_18h13.18.076	hesp_baseline	2021.2.3	Win32
PARTICIPANT_hesp_baseline_2022-03-28_18h13.18.076.csv	2022-03-28	list1.csv	gatágozunk	gatáglunk	right	2.702	103	gatáglik / gatágozik	gatáglik, gatágozni	ünk	NA	János imád gatágozni, ezért sokat gatáglik.	Mi ritkán...	gatáglunk	gatágozunk	gatáglunk	TRUE	cselekszik	-lik	2	PR2001	2001	férfi	nem	2022-03-28_18h13.18.076	hesp_baseline	2021.2.3	Win32
PARTICIPANT_hesp_baseline_2022-03-28_18h13.18.076.csv	2022-03-28	list1.csv	lörűdzök	lörűdzöm	right	1.7641	104	lörűdzik	lörűdzöl	NA	NA	Te bizony sokat lörűdzöl.	Én is sokat...	lörűdzök	lörűdzöm	lörűdzöm	FALSE	lakik	-zik	2	PR2001	2001	férfi	nem	2022-03-28_18h13.18.076	hesp_baseline	2021.2.3	Win32
PARTICIPANT_hesp_baseline_2022-03-28_18h13.18.076.csv	2022-03-28	list1.csv	privékednek	privékszenek	right	1.6788	105	privékszik / privékedik	privékszik, privékedni	nek	NA	János imád privékedni, ezért sokat privékszik.	Ők ritkán...	privékszenek	privékednek	privékszenek	TRUE	cselekszik	-szik	2	PR2001	2001	férfi	nem	2022-03-28_18h13.18.076	hesp_baseline	2021.2.3	Win32
PARTICIPANT_hesp_baseline_2022-03-28_18h13.18.076.csv	2022-03-28	list1.csv	pebzem	pebzek	left	2.365	106	pebzik	pebzel	NA	NA	Te bizony sokat pebzel.	Én is sokat...	pebzek	pebzem	pebzem	FALSE	lakik	-zik	1	PR2001	2001	férfi	nem	2022-03-28_18h13.18.076	hesp_baseline	2021.2.3	Win32
PARTICIPANT_hesp_baseline_2022-03-28_18h13.18.076.csv	2022-03-28	list1.csv	tragzok	tragzom	right	1.2958	107	tragzik	tragzol	NA	NA	Te bizony sokat tragzol.	Én is sokat...	tragzok	tragzom	tragzom	FALSE	lakik	-zik	1	PR2001	2001	férfi	nem	2022-03-28_18h13.18.076	hesp_baseline	2021.2.3	Win32
PARTICIPANT_hesp_baseline_2022-03-28_18h13.18.076.csv	2022-03-28	list1.csv	kalhésznek	kalhésznak	right	5.8291	108	kalhész	kalhész	nak	é	Ez itt egy kalhész.	Elneveztem a kutyámat...	kalhésznek	kalhésznak	kalhésznak	FALSE	dzsungel	NA	NA	PR2001	2001	férfi	nem	2022-03-28_18h13.18.076	hesp_baseline	2021.2.3	Win32
PARTICIPANT_hesp_baseline_2022-03-28_18h13.18.076.csv	2022-03-28	list1.csv	jukélnél	jukélnál	left	4.1195	109	jukél	jukél	nál	é	Ez itt egy jukél.	Nincs is jobb egy jó...	jukélnél	jukélnál	jukélnél	TRUE	dzsungel	NA	NA	PR2001	2001	férfi	nem	2022-03-28_18h13.18.076	hesp_baseline	2021.2.3	Win32
PARTICIPANT_hesp_baseline_2022-03-28_18h13.18.076.csv	2022-03-28	list1.csv	sprudlunk	sprudozunk	left	3.127	110	sprudlik / sprudozik	sprudlik, sprudozni	ünk	NA	János imád sprudozni, ezért sokat sprudlik.	Mi ritkán...	sprudlunk	sprudozunk	sprudlunk	TRUE	cselekszik	-lik	1	PR2001	2001	férfi	nem	2022-03-28_18h13.18.076	hesp_baseline	2021.2.3	Win32
PARTICIPANT_hesp_baseline_2022-03-28_18h13.18.076.csv	2022-03-28	list1.csv	fágyépnál	fágyépnél	right	4.6503	111	fágyép	fágyép	nál	é	Ez itt egy fágyép.	Nincs is jobb egy jó...	fágyépnél	fágyépnál	fágyépnél	TRUE	dzsungel	NA	NA	PR2001	2001	férfi	nem	2022-03-28_18h13.18.076	hesp_baseline	2021.2.3	Win32
PARTICIPANT_hesp_baseline_2022-03-28_18h13.18.076.csv	2022-03-28	list1.csv	gyivepednek	gyivepszenek	right	24.2202	112	gyivepszik / gyivepedik	gyivepszik, gyivepedni	nek	NA	János imád gyivepedni, ezért sokat gyivepszik.	Ők ritkán...	gyivepszenek	gyivepednek	gyivepszenek	TRUE	cselekszik	-szik	2	PR2001	2001	férfi	nem	2022-03-28_18h13.18.076	hesp_baseline	2021.2.3	Win32
PARTICIPANT_hesp_baseline_2022-03-28_18h13.18.076.csv	2022-03-28	list1.csv	mádépnél	mádépnál	right	2.8986	113	mádép	mádép	nál	é	Ez itt egy mádép.	Nincs is jobb egy jó...	mádépnél	mádépnál	mádépnál	FALSE	dzsungel	NA	NA	PR2001	2001	férfi	nem	2022-03-28_18h13.18.076	hesp_baseline	2021.2.3	Win32
PARTICIPANT_hesp_baseline_2022-03-28_18h13.18.076.csv	2022-03-28	list1.csv	frirozunk	frirzunk	right	2.9839	114	frirzik / frirozik	frirzik, frirozni	ünk	NA	János imád frirozni, ezért sokat frirzik.	Mi ritkán...	frirzunk	frirozunk	frirzunk	TRUE	cselekszik	-zik	1	PR2001	2001	férfi	nem	2022-03-28_18h13.18.076	hesp_baseline	2021.2.3	Win32
PARTICIPANT_hesp_baseline_2022-03-28_18h13.18.076.csv	2022-03-28	list1.csv	incéjnek	incéjnak	left	4.0622	115	incéj	incéj	nak	é	Ez itt egy incéj.	Elneveztem a kutyámat...	incéjnek	incéjnak	incéjnek	TRUE	dzsungel	NA	NA	PR2001	2001	férfi	nem	2022-03-28_18h13.18.076	hesp_baseline	2021.2.3	Win32
PARTICIPANT_hesp_baseline_2022-03-28_18h13.18.076.csv	2022-03-28	list1.csv	zsopédben	zsopédban	right	1.5469	116	zsopéd	zsopéd	ban	é	Ez itt egy zsopéd.	Ott vagyunk a...	zsopédben	zsopédban	zsopédban	FALSE	dzsungel	NA	NA	PR2001	2001	férfi	nem	2022-03-28_18h13.18.076	hesp_baseline	2021.2.3	Win32
PARTICIPANT_hesp_baseline_2022-03-28_18h13.18.076.csv	2022-03-28	list1.csv	jüslök	jüslöm	right	2.3546	117	jüslik	jüslesz	NA	NA	Te bizony sokat jüslesz.	Én is sokat...	jüslök	jüslöm	jüslöm	FALSE	lakik	-lik	1	PR2001	2001	férfi	nem	2022-03-28_18h13.18.076	hesp_baseline	2021.2.3	Win32
PARTICIPANT_hesp_baseline_2022-03-28_18h13.18.076.csv	2022-03-28	list1.csv	tarhézban	tarhézben	left	4.2192	118	tarhéz	tarhéz	ban	é	Ez itt egy tarhéz.	Ott vagyunk a...	tarhézben	tarhézban	tarhézban	FALSE	dzsungel	NA	NA	PR2001	2001	férfi	nem	2022-03-28_18h13.18.076	hesp_baseline	2021.2.3	Win32
PARTICIPANT_hesp_baseline_2022-03-28_18h13.18.076.csv	2022-03-28	list1.csv	tivencben	tivencban	left	1.9706	119	tivenc	tivenc	ban	e	Ez itt egy tivenc.	Ott vagyunk a...	tivencben	tivencban	tivencben	TRUE	dzsungel	NA	NA	PR2001	2001	férfi	nem	2022-03-28_18h13.18.076	hesp_baseline	2021.2.3	Win32
PARTICIPANT_hesp_baseline_2022-03-28_18h13.18.076.csv	2022-03-28	list1.csv	jutélynél	jutélynál	right	1.6613	120	jutély	jutély	nál	é	Ez itt egy jutély.	Nincs is jobb egy jó...	jutélynél	jutélynál	jutélynál	FALSE	dzsungel	NA	NA	PR2001	2001	férfi	nem	2022-03-28_18h13.18.076	hesp_baseline	2021.2.3	Win32
PARTICIPANT_hesp_baseline_2022-03-28_18h13.18.076.csv	2022-03-28	list1.csv	frágapszok	frágapszom	right	2.092	121	frágapszik	frágapszol	NA	NA	Te bizony sokat frágapszol.	Én is sokat...	frágapszok	frágapszom	frágapszom	FALSE	lakik	-szik	2	PR2001	2001	férfi	nem	2022-03-28_18h13.18.076	hesp_baseline	2021.2.3	Win32
PARTICIPANT_hesp_baseline_2022-03-28_18h13.18.076.csv	2022-03-28	list1.csv	matézban	matézben	left	2.294	122	matéz	matéz	ban	é	Ez itt egy matéz.	Ott vagyunk a...	matézben	matézban	matézban	FALSE	dzsungel	NA	NA	PR2001	2001	férfi	nem	2022-03-28_18h13.18.076	hesp_baseline	2021.2.3	Win32
PARTICIPANT_hesp_baseline_2022-03-28_18h13.18.076.csv	2022-03-28	list1.csv	livaklom	livaklok	left	3.0986	123	livaklik	livaklasz	NA	NA	Te bizony sokat livaklasz.	Én is sokat...	livaklok	livaklom	livaklom	FALSE	lakik	-lik	2	PR2001	2001	férfi	nem	2022-03-28_18h13.18.076	hesp_baseline	2021.2.3	Win32
PARTICIPANT_hesp_baseline_2022-03-28_18h13.18.076.csv	2022-03-28	list1.csv	brigesztnek	brigesztnak	left	2.6208	124	brigeszt	brigeszt	nak	e	Ez itt egy brigeszt.	Elneveztem a kutyámat...	brigesztnek	brigesztnak	brigesztnek	TRUE	dzsungel	NA	NA	PR2001	2001	férfi	nem	2022-03-28_18h13.18.076	hesp_baseline	2021.2.3	Win32
PARTICIPANT_hesp_baseline_2022-03-28_18h13.18.076.csv	2022-03-28	list1.csv	filágzom	filágzok	left	1.6757	125	filágzik	filágzol	NA	NA	Te bizony sokat filágzol.	Én is sokat...	filágzok	filágzom	filágzom	FALSE	lakik	-zik	2	PR2001	2001	férfi	nem	2022-03-28_18h13.18.076	hesp_baseline	2021.2.3	Win32
PARTICIPANT_hesp_baseline_2022-03-28_18h13.18.076.csv	2022-03-28	list1.csv	szibánylok	szibánylom	right	1.7785	126	szibánylik	szibánylasz	NA	NA	Te bizony sokat szibánylasz.	Én is sokat...	szibánylok	szibánylom	szibánylom	FALSE	lakik	-lik	2	PR2001	2001	férfi	nem	2022-03-28_18h13.18.076	hesp_baseline	2021.2.3	Win32
PARTICIPANT_hesp_baseline_2022-03-28_18h13.18.076.csv	2022-03-28	list1.csv	sztremlek	sztremlem	right	2.1702	127	sztremlik	sztremlesz	NA	NA	Te bizony sokat sztremlesz.	Én is sokat...	sztremlek	sztremlem	sztremlem	FALSE	lakik	-lik	1	PR2001	2001	férfi	nem	2022-03-28_18h13.18.076	hesp_baseline	2021.2.3	Win32
PARTICIPANT_hesp_baseline_2022-03-28_18h13.18.076.csv	2022-03-28	list1.csv	sihennél	sihennál	left	3.7668	128	sihen	sihen	nál	e	Ez itt egy sihen.	Nincs is jobb egy jó...	sihennél	sihennál	sihennél	TRUE	dzsungel	NA	NA	PR2001	2001	férfi	nem	2022-03-28_18h13.18.076	hesp_baseline	2021.2.3	Win32
PARTICIPANT_hesp_baseline_2022-03-28_18h13.18.076.csv	2022-03-28	list1.csv	gyibeslem	gyibeslek	left	2.4201	129	gyibeslik	gyibeslesz	NA	NA	Te bizony sokat gyibeslesz.	Én is sokat...	gyibeslek	gyibeslem	gyibeslem	FALSE	lakik	-lik	2	PR2001	2001	férfi	nem	2022-03-28_18h13.18.076	hesp_baseline	2021.2.3	Win32
PARTICIPANT_hesp_baseline_2022-03-28_18h13.18.076.csv	2022-03-28	list1.csv	spatszok	spatszom	right	2.7863	130	spatszik	spatszol	NA	NA	Te bizony sokat spatszol.	Én is sokat...	spatszok	spatszom	spatszom	FALSE	lakik	-szik	1	PR2001	2001	férfi	nem	2022-03-28_18h13.18.076	hesp_baseline	2021.2.3	Win32
PARTICIPANT_hesp_baseline_2022-03-28_18h13.18.076.csv	2022-03-28	list1.csv	drügzök	drügzöm	right	1.0415	131	drügzik	drügzöl	NA	NA	Te bizony sokat drügzöl.	Én is sokat...	drügzök	drügzöm	drügzöm	FALSE	lakik	-zik	1	PR2001	2001	férfi	nem	2022-03-28_18h13.18.076	hesp_baseline	2021.2.3	Win32
PARTICIPANT_hesp_baseline_2022-03-28_18h13.18.076.csv	2022-03-28	list1.csv	jorzégnak	jorzégnek	right	4.8543	132	jorzég	jorzég	nak	é	Ez itt egy jorzég.	Elneveztem a kutyámat...	jorzégnek	jorzégnak	jorzégnek	TRUE	dzsungel	NA	NA	PR2001	2001	férfi	nem	2022-03-28_18h13.18.076	hesp_baseline	2021.2.3	Win32
PARTICIPANT_hesp_baseline_2022-03-28_18h13.18.076.csv	2022-03-28	list1.csv	pilégednek	pilégszenek	right	6.6479	133	pilégszik / pilégedik	pilégszik, pilégedni	nek	NA	János imád pilégedni, ezért sokat pilégszik.	Ők ritkán...	pilégszenek	pilégednek	pilégszenek	TRUE	cselekszik	-szik	2	PR2001	2001	férfi	nem	2022-03-28_18h13.18.076	hesp_baseline	2021.2.3	Win32
PARTICIPANT_hesp_baseline_2022-03-28_18h13.18.076.csv	2022-03-28	list1.csv	huklom	huklok	left	4.2658	134	huklik	huklasz	NA	NA	Te bizony sokat huklasz.	Én is sokat...	huklok	huklom	huklom	FALSE	lakik	-lik	1	PR2001	2001	férfi	nem	2022-03-28_18h13.18.076	hesp_baseline	2021.2.3	Win32
PARTICIPANT_hesp_baseline_2022-03-28_18h13.18.076.csv	2022-03-28	list1.csv	priszkencnek	priszkencnak	left	4.3908	135	priszkenc	priszkenc	nak	e	Ez itt egy priszkenc.	Elneveztem a kutyámat...	priszkencnek	priszkencnak	priszkencnek	TRUE	dzsungel	NA	NA	PR2001	2001	férfi	nem	2022-03-28_18h13.18.076	hesp_baseline	2021.2.3	Win32
PARTICIPANT_hesp_baseline_2022-03-28_18h13.18.076.csv	2022-03-28	list1.csv	fraklunk	frakozunk	left	2.4598	136	fraklik / frakozik	fraklik, frakozni	ünk	NA	János imád frakozni, ezért sokat fraklik.	Mi ritkán...	fraklunk	frakozunk	fraklunk	TRUE	cselekszik	-lik	1	PR2001	2001	férfi	nem	2022-03-28_18h13.18.076	hesp_baseline	2021.2.3	Win32
PARTICIPANT_hesp_baseline_2022-03-28_18h13.18.076.csv	2022-03-28	list1.csv	sztrajlanak	sztrajoznak	left	3.0296	137	sztrajlik / sztrajozik	sztrajlik, sztrajozni	nek	NA	János imád sztrajozni, ezért sokat sztrajlik.	Ők ritkán...	sztrajlanak	sztrajoznak	sztrajlanak	TRUE	cselekszik	-lik	1	PR2001	2001	férfi	nem	2022-03-28_18h13.18.076	hesp_baseline	2021.2.3	Win32
PARTICIPANT_hesp_baseline_2022-03-28_18h13.18.076.csv	2022-03-28	list1.csv	küslünk	küsözünk	left	5.8296	138	küslik / küsözik	küslik, küsözni	ünk	NA	János imád küsözni, ezért sokat küslik.	Mi ritkán...	küslünk	küsözünk	küslünk	TRUE	cselekszik	-lik	1	PR2001	2001	férfi	nem	2022-03-28_18h13.18.076	hesp_baseline	2021.2.3	Win32
PARTICIPANT_hesp_baseline_2022-03-28_18h13.18.076.csv	2022-03-28	list1.csv	bötőrözünk	bötőrzünk	right	2.849	139	bötőrzik / bötőrözik	bötőrzik, bötőrözni	ünk	NA	János imád bötőrözni, ezért sokat bötőrzik.	Mi ritkán...	bötőrzünk	bötőrözünk	bötőrzünk	TRUE	cselekszik	-zik	2	PR2001	2001	férfi	nem	2022-03-28_18h13.18.076	hesp_baseline	2021.2.3	Win32
PARTICIPANT_hesp_baseline_2022-03-28_18h13.18.076.csv	2022-03-28	list1.csv	lihénynek	lihénynak	left	3.263	140	lihény	lihény	nak	é	Ez itt egy lihény.	Elneveztem a kutyámat...	lihénynek	lihénynak	lihénynek	TRUE	dzsungel	NA	NA	PR2001	2001	férfi	nem	2022-03-28_18h13.18.076	hesp_baseline	2021.2.3	Win32
PARTICIPANT_hesp_baseline_2022-03-28_18h13.18.076.csv	2022-03-28	list1.csv	buhényben	buhényban	right	1.9019	141	buhény	buhény	ban	é	Ez itt egy buhény.	Ott vagyunk a...	buhényben	buhényban	buhényban	FALSE	dzsungel	NA	NA	PR2001	2001	férfi	nem	2022-03-28_18h13.18.076	hesp_baseline	2021.2.3	Win32
PARTICIPANT_hesp_baseline_2022-03-28_18h13.18.076.csv	2022-03-28	list1.csv	vodépnek	vodépnak	left	5.3486	142	vodép	vodép	nak	é	Ez itt egy vodép.	Elneveztem a kutyámat...	vodépnek	vodépnak	vodépnek	TRUE	dzsungel	NA	NA	PR2001	2001	férfi	nem	2022-03-28_18h13.18.076	hesp_baseline	2021.2.3	Win32
PARTICIPANT_hesp_baseline_2022-03-28_18h13.18.076.csv	2022-03-28	list1.csv	dunkészban	dunkészben	right	3.0194	143	dunkész	dunkész	ban	é	Ez itt egy dunkész.	Ott vagyunk a...	dunkészben	dunkészban	dunkészben	TRUE	dzsungel	NA	NA	PR2001	2001	férfi	nem	2022-03-28_18h13.18.076	hesp_baseline	2021.2.3	Win32
PARTICIPANT_hesp_baseline_2022-03-28_18h13.18.076.csv	2022-03-28	list1.csv	trihagzok	trihagzom	right	1.9084	144	trihagzik	trihagzol	NA	NA	Te bizony sokat trihagzol.	Én is sokat...	trihagzok	trihagzom	trihagzom	FALSE	lakik	-zik	2	PR2001	2001	férfi	nem	2022-03-28_18h13.18.076	hesp_baseline	2021.2.3	Win32
PARTICIPANT_hesp_baseline_2022-03-28_18h13.18.076.csv	2022-03-28	list1.csv	brivaklotok	brivakoztok	left	2.7054	145	brivaklik / brivakozik	brivaklik, brivakozni	tek	NA	János imád brivakozni, ezért sokat brivaklik.	Ti ritkán...	brivaklotok	brivakoztok	brivaklotok	TRUE	cselekszik	-lik	2	PR2001	2001	férfi	nem	2022-03-28_18h13.18.076	hesp_baseline	2021.2.3	Win32
PARTICIPANT_hesp_baseline_2022-03-28_18h13.18.076.csv	2022-03-28	list1.csv	spihemlek	spihemlem	right	2.7488	146	spihemlik	spihemlesz	NA	NA	Te bizony sokat spihemlesz.	Én is sokat...	spihemlek	spihemlem	spihemlem	FALSE	lakik	-lik	2	PR2001	2001	férfi	nem	2022-03-28_18h13.18.076	hesp_baseline	2021.2.3	Win32
PARTICIPANT_hesp_baseline_2022-03-28_18h13.18.076.csv	2022-03-28	list1.csv	nyülöklenek	nyülököznek	left	12.5614	147	nyülöklik / nyülöközik	nyülöklik, nyülöközni	nek	NA	János imád nyülöközni, ezért sokat nyülöklik.	Ők ritkán...	nyülöklenek	nyülököznek	nyülöklenek	TRUE	cselekszik	-lik	2	PR2001	2001	férfi	nem	2022-03-28_18h13.18.076	hesp_baseline	2021.2.3	Win32
PARTICIPANT_hesp_baseline_2022-03-28_18h13.18.076.csv	2022-03-28	list1.csv	brülöslünk	brülösözünk	left	8.5687	148	brülöslik / brülösözik	brülöslik, brülösözni	ünk	NA	János imád brülösözni, ezért sokat brülöslik.	Mi ritkán...	brülöslünk	brülösözünk	brülöslünk	TRUE	cselekszik	-lik	2	PR2001	2001	férfi	nem	2022-03-28_18h13.18.076	hesp_baseline	2021.2.3	Win32
PARTICIPANT_hesp_baseline_2022-03-28_18h13.18.076.csv	2022-03-28	list1.csv	spivejeznek	spivejlenek	right	5.6772	149	spivejlik / spivejezik	spivejlik, spivejezni	nek	NA	János imád spivejezni, ezért sokat spivejlik.	Ők ritkán...	spivejlenek	spivejeznek	spivejlenek	TRUE	cselekszik	-lik	2	PR2001	2001	férfi	nem	2022-03-28_18h13.18.076	hesp_baseline	2021.2.3	Win32
PARTICIPANT_hesp_baseline_2022-03-28_18h13.18.076.csv	2022-03-28	list1.csv	hivépban	hivépben	right	2.8654	150	hivép	hivép	ban	é	Ez itt egy hivép.	Ott vagyunk a...	hivépben	hivépban	hivépben	TRUE	dzsungel	NA	NA	PR2001	2001	férfi	nem	2022-03-28_18h13.18.076	hesp_baseline	2021.2.3	Win32
PARTICIPANT_hesp_baseline_2022-03-28_18h13.18.076.csv	2022-03-28	list1.csv	dajrensnél	dajrensnál	left	2.2537	151	dajrens	dajrens	nál	e	Ez itt egy dajrens.	Nincs is jobb egy jó...	dajrensnél	dajrensnál	dajrensnél	TRUE	dzsungel	NA	NA	PR2001	2001	férfi	nem	2022-03-28_18h13.18.076	hesp_baseline	2021.2.3	Win32
PARTICIPANT_hesp_baseline_2022-03-28_18h13.18.076.csv	2022-03-28	list1.csv	spibádzom	spibádzok	left	2.6019	152	spibádzik	spibádzol	NA	NA	Te bizony sokat spibádzol.	Én is sokat...	spibádzok	spibádzom	spibádzom	FALSE	lakik	-zik	2	PR2001	2001	férfi	nem	2022-03-28_18h13.18.076	hesp_baseline	2021.2.3	Win32
PARTICIPANT_hesp_baseline_2022-03-28_18h13.18.076.csv	2022-03-28	list1.csv	gonszéknál	gonszéknél	right	2.4874	153	gonszék	gonszék	nál	é	Ez itt egy gonszék.	Nincs is jobb egy jó...	gonszéknél	gonszéknál	gonszéknél	TRUE	dzsungel	NA	NA	PR2001	2001	férfi	nem	2022-03-28_18h13.18.076	hesp_baseline	2021.2.3	Win32
PARTICIPANT_hesp_baseline_2022-03-28_18h13.18.076.csv	2022-03-28	list1.csv	csarténynek	csarténynak	left	2.4086	154	csartény	csartény	nak	é	Ez itt egy csartény.	Elneveztem a kutyámat...	csarténynek	csarténynak	csarténynek	TRUE	dzsungel	NA	NA	PR2001	2001	férfi	nem	2022-03-28_18h13.18.076	hesp_baseline	2021.2.3	Win32
PARTICIPANT_hesp_baseline_2022-03-28_18h13.18.076.csv	2022-03-28	list1.csv	brubzom	brubzok	left	1.4838	155	brubzik	brubzol	NA	NA	Te bizony sokat brubzol.	Én is sokat...	brubzok	brubzom	brubzom	FALSE	lakik	-zik	1	PR2001	2001	férfi	nem	2022-03-28_18h13.18.076	hesp_baseline	2021.2.3	Win32
PARTICIPANT_hesp_baseline_2022-03-28_18h13.18.076.csv	2022-03-28	list1.csv	csibagoztok	csibagzotok	right	1.7903	156	csibagzik / csibagozik	csibagzik, csibagozni	tek	NA	János imád csibagozni, ezért sokat csibagzik.	Ti ritkán...	csibagzotok	csibagoztok	csibagzotok	TRUE	cselekszik	-zik	2	PR2001	2001	férfi	nem	2022-03-28_18h13.18.076	hesp_baseline	2021.2.3	Win32
PARTICIPANT_hesp_baseline_2022-03-28_18h13.18.076.csv	2022-03-28	list1.csv	priszecban	priszecben	right	2.8992	157	priszec	priszec	ban	e	Ez itt egy priszec.	Ott vagyunk a...	priszecben	priszecban	priszecben	TRUE	dzsungel	NA	NA	PR2001	2001	férfi	nem	2022-03-28_18h13.18.076	hesp_baseline	2021.2.3	Win32
PARTICIPANT_hesp_baseline_2022-03-28_18h13.18.076.csv	2022-03-28	list1.csv	prugorzotok	prugoroztok	left	3.4374	158	prugorzik / prugorozik	prugorzik, prugorozni	tek	NA	János imád prugorozni, ezért sokat prugorzik.	Ti ritkán...	prugorzotok	prugoroztok	prugorzotok	TRUE	cselekszik	-zik	2	PR2001	2001	férfi	nem	2022-03-28_18h13.18.076	hesp_baseline	2021.2.3	Win32
PARTICIPANT_hesp_baseline_2022-03-28_18h13.18.076.csv	2022-03-28	list1.csv	prilegzek	prilegzem	right	1.8001	159	prilegzik	prilegzel	NA	NA	Te bizony sokat prilegzel.	Én is sokat...	prilegzek	prilegzem	prilegzem	FALSE	lakik	-zik	2	PR2001	2001	férfi	nem	2022-03-28_18h13.18.076	hesp_baseline	2021.2.3	Win32
PARTICIPANT_hesp_baseline_2022-03-28_18h13.18.076.csv	2022-03-28	list1.csv	galároznak	galárzanak	right	1.6672	160	galárzik / galározik	galárzik, galározni	nek	NA	János imád galározni, ezért sokat galárzik.	Ők ritkán...	galárzanak	galároznak	galárzanak	TRUE	cselekszik	-zik	2	PR2001	2001	férfi	nem	2022-03-28_18h13.18.076	hesp_baseline	2021.2.3	Win32
PARTICIPANT_hesp_baseline_2022-03-28_18h13.18.076.csv	2022-03-28	list1.csv	aglok	aglom	right	2.2498	161	aglik	aglasz	NA	NA	Te bizony sokat aglasz.	Én is sokat...	aglok	aglom	aglom	FALSE	lakik	-lik	1	PR2001	2001	férfi	nem	2022-03-28_18h13.18.076	hesp_baseline	2021.2.3	Win32
PARTICIPANT_hesp_baseline_2022-03-29_16h08.21.422.csv	2022-03-29	list2.csv	szűslök	szűslöm	left	11.965	0	szűslik	szűslesz	NA	NA	Te bizony sokat szűslesz.	Én is sokat...	szűslök	szűslöm	szűslök	TRUE	lakik	-lik	1	PR2002	2000	nő	nem	2022-03-29_16h08.21.422	hesp_baseline	2021.2.3	MacIntel
PARTICIPANT_hesp_baseline_2022-03-29_16h08.21.422.csv	2022-03-29	list2.csv	lorjódzom	lorjódzok	left	5.54	1	lorjódzik	lorjódzol	NA	NA	Te bizony sokat lorjódzol.	Én is sokat...	lorjódzok	lorjódzom	lorjódzom	FALSE	lakik	-zik	2	PR2002	2000	nő	nem	2022-03-29_16h08.21.422	hesp_baseline	2021.2.3	MacIntel
PARTICIPANT_hesp_baseline_2022-03-29_16h08.21.422.csv	2022-03-29	list2.csv	kalrézben	kalrézban	left	4.81	2	kalréz	kalréz	ban	é	Ez itt egy kalréz.	Ott vagyunk a...	kalrézben	kalrézban	kalrézben	TRUE	dzsungel	NA	NA	PR2002	2000	nő	nem	2022-03-29_16h08.21.422	hesp_baseline	2021.2.3	MacIntel
PARTICIPANT_hesp_baseline_2022-03-29_16h08.21.422.csv	2022-03-29	list2.csv	csimennál	csimennél	right	6.461	3	csimen	csimen	nál	e	Ez itt egy csimen.	Nincs is jobb egy jó...	csimennél	csimennál	csimennél	TRUE	dzsungel	NA	NA	PR2002	2000	nő	nem	2022-03-29_16h08.21.422	hesp_baseline	2021.2.3	MacIntel
PARTICIPANT_hesp_baseline_2022-03-29_16h08.21.422.csv	2022-03-29	list2.csv	kluzlotok	kluzoztok	right	26.161	4	kluzlik / kluzozik	kluzlik, kluzozni	tek	NA	János imád kluzozni, ezért sokat kluzlik.	Ti ritkán...	kluzlotok	kluzoztok	kluzoztok	FALSE	cselekszik	-lik	1	PR2002	2000	nő	nem	2022-03-29_16h08.21.422	hesp_baseline	2021.2.3	MacIntel
PARTICIPANT_hesp_baseline_2022-03-29_16h08.21.422.csv	2022-03-29	list2.csv	hákodnak	hákszanak	left	5.326	5	hákszik / hákodik	hákszik, hákodni	nek	NA	János imád hákodni, ezért sokat hákszik.	Ők ritkán...	hákszanak	hákodnak	hákodnak	FALSE	cselekszik	-szik	1	PR2002	2000	nő	nem	2022-03-29_16h08.21.422	hesp_baseline	2021.2.3	MacIntel
PARTICIPANT_hesp_baseline_2022-03-29_16h08.21.422.csv	2022-03-29	list2.csv	sprízemnél	sprízemnál	left	4.084	6	sprízem	sprízem	nál	e	Ez itt egy sprízem.	Nincs is jobb egy jó...	sprízemnél	sprízemnál	sprízemnél	TRUE	dzsungel	NA	NA	PR2002	2000	nő	nem	2022-03-29_16h08.21.422	hesp_baseline	2021.2.3	MacIntel
PARTICIPANT_hesp_baseline_2022-03-29_16h08.21.422.csv	2022-03-29	list2.csv	flűmlöm	flűmlök	right	3.784	7	flűmlik	flűmlesz	NA	NA	Te bizony sokat flűmlesz.	Én is sokat...	flűmlök	flűmlöm	flűmlök	TRUE	lakik	-lik	1	PR2002	2000	nő	nem	2022-03-29_16h08.21.422	hesp_baseline	2021.2.3	MacIntel
PARTICIPANT_hesp_baseline_2022-03-29_16h08.21.422.csv	2022-03-29	list2.csv	garcépnél	garcépnál	left	47.127	8	garcép	garcép	nál	é	Ez itt egy garcép.	Nincs is jobb egy jó...	garcépnél	garcépnál	garcépnél	TRUE	dzsungel	NA	NA	PR2002	2000	nő	nem	2022-03-29_16h08.21.422	hesp_baseline	2021.2.3	MacIntel
PARTICIPANT_hesp_baseline_2022-03-29_16h08.21.422.csv	2022-03-29	list2.csv	flemezünk	flemlünk	left	16.203	9	flemlik / flemezik	flemlik, flemezni	ünk	NA	János imád flemezni, ezért sokat flemlik.	Mi ritkán...	flemlünk	flemezünk	flemezünk	FALSE	cselekszik	-lik	1	PR2002	2000	nő	nem	2022-03-29_16h08.21.422	hesp_baseline	2021.2.3	MacIntel
PARTICIPANT_hesp_baseline_2022-03-29_16h08.21.422.csv	2022-03-29	list2.csv	praslom	praslok	right	52.206	10	praslik	praslasz	NA	NA	Te bizony sokat praslasz.	Én is sokat...	praslok	praslom	praslok	TRUE	lakik	-lik	1	PR2002	2000	nő	nem	2022-03-29_16h08.21.422	hesp_baseline	2021.2.3	MacIntel
PARTICIPANT_hesp_baseline_2022-03-29_16h08.21.422.csv	2022-03-29	list2.csv	pratelynek	pratelynak	left	8.952	11	prately	prately	nak	e	Ez itt egy prately.	Elneveztem a kutyámat...	pratelynek	pratelynak	pratelynek	TRUE	dzsungel	NA	NA	PR2002	2000	nő	nem	2022-03-29_16h08.21.422	hesp_baseline	2021.2.3	MacIntel
PARTICIPANT_hesp_baseline_2022-03-29_16h08.21.422.csv	2022-03-29	list2.csv	prazozunk	prazlunk	right	6.079	12	prazlik / prazozik	prazlik, prazozni	ünk	NA	János imád prazozni, ezért sokat prazlik.	Mi ritkán...	prazlunk	prazozunk	prazlunk	TRUE	cselekszik	-lik	1	PR2002	2000	nő	nem	2022-03-29_16h08.21.422	hesp_baseline	2021.2.3	MacIntel
PARTICIPANT_hesp_baseline_2022-03-29_16h08.21.422.csv	2022-03-29	list2.csv	nyürzenek	nyüröznek	left	11.672	13	nyürzik / nyürözik	nyürzik, nyürözni	nek	NA	János imád nyürözni, ezért sokat nyürzik.	Ők ritkán...	nyürzenek	nyüröznek	nyürzenek	TRUE	cselekszik	-zik	1	PR2002	2000	nő	nem	2022-03-29_16h08.21.422	hesp_baseline	2021.2.3	MacIntel
PARTICIPANT_hesp_baseline_2022-03-29_16h08.21.422.csv	2022-03-29	list2.csv	flűgzünk	flűgözünk	right	21.673	14	flűgzik / flűgözik	flűgzik, flűgözni	ünk	NA	János imád flűgözni, ezért sokat flűgzik.	Mi ritkán...	flűgzünk	flűgözünk	flűgözünk	FALSE	cselekszik	-zik	1	PR2002	2000	nő	nem	2022-03-29_16h08.21.422	hesp_baseline	2021.2.3	MacIntel
PARTICIPANT_hesp_baseline_2022-03-29_16h08.21.422.csv	2022-03-29	list2.csv	fivénylem	fivénylek	left	3.079	15	fivénylik	fivénylesz	NA	NA	Te bizony sokat fivénylesz.	Én is sokat...	fivénylek	fivénylem	fivénylem	FALSE	lakik	-lik	2	PR2002	2000	nő	nem	2022-03-29_16h08.21.422	hesp_baseline	2021.2.3	MacIntel
PARTICIPANT_hesp_baseline_2022-03-29_16h08.21.422.csv	2022-03-29	list2.csv	szirlom	szirlok	left	3.158	16	szirlik	szirlasz	NA	NA	Te bizony sokat szirlasz.	Én is sokat...	szirlok	szirlom	szirlom	FALSE	lakik	-lik	1	PR2002	2000	nő	nem	2022-03-29_16h08.21.422	hesp_baseline	2021.2.3	MacIntel
PARTICIPANT_hesp_baseline_2022-03-29_16h08.21.422.csv	2022-03-29	list2.csv	flűröklöm	flűröklök	left	3.675	17	flűröklik	flűröklesz	NA	NA	Te bizony sokat flűröklesz.	Én is sokat...	flűröklök	flűröklöm	flűröklöm	FALSE	lakik	-lik	2	PR2002	2000	nő	nem	2022-03-29_16h08.21.422	hesp_baseline	2021.2.3	MacIntel
PARTICIPANT_hesp_baseline_2022-03-29_16h08.21.422.csv	2022-03-29	list2.csv	tögöznek	töglenek	right	11.89	18	töglik / tögözik	töglik, tögözni	nek	NA	János imád tögözni, ezért sokat töglik.	Ők ritkán...	töglenek	tögöznek	töglenek	TRUE	cselekszik	-lik	1	PR2002	2000	nő	nem	2022-03-29_16h08.21.422	hesp_baseline	2021.2.3	MacIntel
PARTICIPANT_hesp_baseline_2022-03-29_16h08.21.422.csv	2022-03-29	list2.csv	rapszeknél	rapszeknál	left	3.276	19	rapszek	rapszek	nál	e	Ez itt egy rapszek.	Nincs is jobb egy jó...	rapszeknél	rapszeknál	rapszeknél	TRUE	dzsungel	NA	NA	PR2002	2000	nő	nem	2022-03-29_16h08.21.422	hesp_baseline	2021.2.3	MacIntel
PARTICIPANT_hesp_baseline_2022-03-29_16h08.21.422.csv	2022-03-29	list2.csv	metégszenek	metégednek	right	7.34	20	metégszik / metégedik	metégszik, metégedni	nek	NA	János imád metégedni, ezért sokat metégszik.	Ők ritkán...	metégszenek	metégednek	metégednek	FALSE	cselekszik	-szik	2	PR2002	2000	nő	nem	2022-03-29_16h08.21.422	hesp_baseline	2021.2.3	MacIntel
PARTICIPANT_hesp_baseline_2022-03-29_16h08.21.422.csv	2022-03-29	list2.csv	juszlom	juszlok	left	2.87	21	juszlik	juszlasz	NA	NA	Te bizony sokat juszlasz.	Én is sokat...	juszlok	juszlom	juszlom	FALSE	lakik	-lik	1	PR2002	2000	nő	nem	2022-03-29_16h08.21.422	hesp_baseline	2021.2.3	MacIntel
PARTICIPANT_hesp_baseline_2022-03-29_16h08.21.422.csv	2022-03-29	list2.csv	floglok	floglom	right	3.366	22	floglik	floglasz	NA	NA	Te bizony sokat floglasz.	Én is sokat...	floglok	floglom	floglom	FALSE	lakik	-lik	1	PR2002	2000	nő	nem	2022-03-29_16h08.21.422	hesp_baseline	2021.2.3	MacIntel
PARTICIPANT_hesp_baseline_2022-03-29_16h08.21.422.csv	2022-03-29	list2.csv	ítensben	ítensban	left	3.053	23	ítens	ítens	ban	e	Ez itt egy ítens.	Ott vagyunk a...	ítensben	ítensban	ítensben	TRUE	dzsungel	NA	NA	PR2002	2000	nő	nem	2022-03-29_16h08.21.422	hesp_baseline	2021.2.3	MacIntel
PARTICIPANT_hesp_baseline_2022-03-29_16h08.21.422.csv	2022-03-29	list2.csv	csintékban	csintékben	right	2.716	24	csinték	csinték	ban	é	Ez itt egy csinték.	Ott vagyunk a...	csintékben	csintékban	csintékben	TRUE	dzsungel	NA	NA	PR2002	2000	nő	nem	2022-03-29_16h08.21.422	hesp_baseline	2021.2.3	MacIntel
PARTICIPANT_hesp_baseline_2022-03-29_16h08.21.422.csv	2022-03-29	list2.csv	flibekszek	flibekszem	right	4.356	25	flibekszik	flibekszel	NA	NA	Te bizony sokat flibekszel.	Én is sokat...	flibekszek	flibekszem	flibekszem	FALSE	lakik	-szik	2	PR2002	2000	nő	nem	2022-03-29_16h08.21.422	hesp_baseline	2021.2.3	MacIntel
PARTICIPANT_hesp_baseline_2022-03-29_16h08.21.422.csv	2022-03-29	list2.csv	sprűrlenek	sprűröznek	right	4.46	26	sprűrlik / sprűrözik	sprűrlik, sprűrözni	nek	NA	János imád sprűrözni, ezért sokat sprűrlik.	Ők ritkán...	sprűrlenek	sprűröznek	sprűröznek	FALSE	cselekszik	-lik	1	PR2002	2000	nő	nem	2022-03-29_16h08.21.422	hesp_baseline	2021.2.3	MacIntel
PARTICIPANT_hesp_baseline_2022-03-29_16h08.21.422.csv	2022-03-29	list2.csv	fröjözünk	fröjlünk	left	7.321	27	fröjlik / fröjözik	fröjlik, fröjözni	ünk	NA	János imád fröjözni, ezért sokat fröjlik.	Mi ritkán...	fröjlünk	fröjözünk	fröjözünk	FALSE	cselekszik	-lik	1	PR2002	2000	nő	nem	2022-03-29_16h08.21.422	hesp_baseline	2021.2.3	MacIntel
PARTICIPANT_hesp_baseline_2022-03-29_16h08.21.422.csv	2022-03-29	list2.csv	livényezünk	livénylünk	left	15.217	28	livénylik / livényezik	livénylik, livényezni	ünk	NA	János imád livényezni, ezért sokat livénylik.	Mi ritkán...	livénylünk	livényezünk	livényezünk	FALSE	cselekszik	-lik	2	PR2002	2000	nő	nem	2022-03-29_16h08.21.422	hesp_baseline	2021.2.3	MacIntel
PARTICIPANT_hesp_baseline_2022-03-29_16h08.21.422.csv	2022-03-29	list2.csv	fibamlok	fibamlom	left	3.173	29	fibamlik	fibamlasz	NA	NA	Te bizony sokat fibamlasz.	Én is sokat...	fibamlok	fibamlom	fibamlok	TRUE	lakik	-lik	2	PR2002	2000	nő	nem	2022-03-29_16h08.21.422	hesp_baseline	2021.2.3	MacIntel
PARTICIPANT_hesp_baseline_2022-03-29_16h08.21.422.csv	2022-03-29	list2.csv	flerékedünk	flerékszünk	left	5.595	30	flerékszik / flerékedik	flerékszik, flerékedni	ünk	NA	János imád flerékedni, ezért sokat flerékszik.	Mi ritkán...	flerékszünk	flerékedünk	flerékedünk	FALSE	cselekszik	-szik	2	PR2002	2000	nő	nem	2022-03-29_16h08.21.422	hesp_baseline	2021.2.3	MacIntel
PARTICIPANT_hesp_baseline_2022-03-29_16h08.21.422.csv	2022-03-29	list2.csv	mihágoztok	mihágzotok	left	5.152	31	mihágzik / mihágozik	mihágzik, mihágozni	tek	NA	János imád mihágozni, ezért sokat mihágzik.	Ti ritkán...	mihágzotok	mihágoztok	mihágoztok	FALSE	cselekszik	-zik	2	PR2002	2000	nő	nem	2022-03-29_16h08.21.422	hesp_baseline	2021.2.3	MacIntel
PARTICIPANT_hesp_baseline_2022-03-29_16h08.21.422.csv	2022-03-29	list2.csv	nyádoznak	nyádlanak	left	4.204	32	nyádlik / nyádozik	nyádlik, nyádozni	nek	NA	János imád nyádozni, ezért sokat nyádlik.	Ők ritkán...	nyádlanak	nyádoznak	nyádoznak	FALSE	cselekszik	-lik	1	PR2002	2000	nő	nem	2022-03-29_16h08.21.422	hesp_baseline	2021.2.3	MacIntel
PARTICIPANT_hesp_baseline_2022-03-29_16h08.21.422.csv	2022-03-29	list2.csv	sortemnál	sortemnél	right	3.471	33	sortem	sortem	nál	e	Ez itt egy sortem.	Nincs is jobb egy jó...	sortemnél	sortemnál	sortemnél	TRUE	dzsungel	NA	NA	PR2002	2000	nő	nem	2022-03-29_16h08.21.422	hesp_baseline	2021.2.3	MacIntel
PARTICIPANT_hesp_baseline_2022-03-29_16h08.21.422.csv	2022-03-29	list2.csv	spibeglünk	spibegezünk	left	5.595	34	spibeglik / spibegezik	spibeglik, spibegezni	ünk	NA	János imád spibegezni, ezért sokat spibeglik.	Mi ritkán...	spibeglünk	spibegezünk	spibeglünk	TRUE	cselekszik	-lik	2	PR2002	2000	nő	nem	2022-03-29_16h08.21.422	hesp_baseline	2021.2.3	MacIntel
PARTICIPANT_hesp_baseline_2022-03-29_16h08.21.422.csv	2022-03-29	list2.csv	prohódzom	prohódzok	left	3.144	35	prohódzik	prohódzol	NA	NA	Te bizony sokat prohódzol.	Én is sokat...	prohódzok	prohódzom	prohódzom	FALSE	lakik	-zik	2	PR2002	2000	nő	nem	2022-03-29_16h08.21.422	hesp_baseline	2021.2.3	MacIntel
PARTICIPANT_hesp_baseline_2022-03-29_16h08.21.422.csv	2022-03-29	list2.csv	tosélyben	tosélyban	right	3.48	36	tosély	tosély	ban	é	Ez itt egy tosély.	Ott vagyunk a...	tosélyben	tosélyban	tosélyban	FALSE	dzsungel	NA	NA	PR2002	2000	nő	nem	2022-03-29_16h08.21.422	hesp_baseline	2021.2.3	MacIntel
PARTICIPANT_hesp_baseline_2022-03-29_16h08.21.422.csv	2022-03-29	list2.csv	nuroklunk	nurokozunk	left	3.897	37	nuroklik / nurokozik	nuroklik, nurokozni	ünk	NA	János imád nurokozni, ezért sokat nuroklik.	Mi ritkán...	nuroklunk	nurokozunk	nuroklunk	TRUE	cselekszik	-lik	2	PR2002	2000	nő	nem	2022-03-29_16h08.21.422	hesp_baseline	2021.2.3	MacIntel
PARTICIPANT_hesp_baseline_2022-03-29_16h08.21.422.csv	2022-03-29	list2.csv	gihamoznak	gihamlanak	right	4.66	38	gihamlik / gihamozik	gihamlik, gihamozni	nek	NA	János imád gihamozni, ezért sokat gihamlik.	Ők ritkán...	gihamlanak	gihamoznak	gihamlanak	TRUE	cselekszik	-lik	2	PR2002	2000	nő	nem	2022-03-29_16h08.21.422	hesp_baseline	2021.2.3	MacIntel
PARTICIPANT_hesp_baseline_2022-03-29_16h08.21.422.csv	2022-03-29	list2.csv	tomlok	tomlom	left	4.095	39	tomlik	tomlasz	NA	NA	Te bizony sokat tomlasz.	Én is sokat...	tomlok	tomlom	tomlok	TRUE	lakik	-lik	1	PR2002	2000	nő	nem	2022-03-29_16h08.21.422	hesp_baseline	2021.2.3	MacIntel
PARTICIPANT_hesp_baseline_2022-03-29_16h08.21.422.csv	2022-03-29	list2.csv	zarcégnál	zarcégnél	right	2.339	40	zarcég	zarcég	nál	é	Ez itt egy zarcég.	Nincs is jobb egy jó...	zarcégnél	zarcégnál	zarcégnél	TRUE	dzsungel	NA	NA	PR2002	2000	nő	nem	2022-03-29_16h08.21.422	hesp_baseline	2021.2.3	MacIntel
PARTICIPANT_hesp_baseline_2022-03-29_16h08.21.422.csv	2022-03-29	list2.csv	lihadzom	lihadzok	left	2.817	41	lihadzik	lihadzol	NA	NA	Te bizony sokat lihadzol.	Én is sokat...	lihadzok	lihadzom	lihadzom	FALSE	lakik	-zik	2	PR2002	2000	nő	nem	2022-03-29_16h08.21.422	hesp_baseline	2021.2.3	MacIntel
PARTICIPANT_hesp_baseline_2022-03-29_16h08.21.422.csv	2022-03-29	list2.csv	trigencnak	trigencnek	right	5.347	42	trigenc	trigenc	nak	e	Ez itt egy trigenc.	Elneveztem a kutyámat...	trigencnek	trigencnak	trigencnek	TRUE	dzsungel	NA	NA	PR2002	2000	nő	nem	2022-03-29_16h08.21.422	hesp_baseline	2021.2.3	MacIntel
PARTICIPANT_hesp_baseline_2022-03-29_16h08.21.422.csv	2022-03-29	list2.csv	sponylanak	sponyoznak	right	12.128	43	sponylik / sponyozik	sponylik, sponyozni	nek	NA	János imád sponyozni, ezért sokat sponylik.	Ők ritkán...	sponylanak	sponyoznak	sponyoznak	FALSE	cselekszik	-lik	1	PR2002	2000	nő	nem	2022-03-29_16h08.21.422	hesp_baseline	2021.2.3	MacIntel
PARTICIPANT_hesp_baseline_2022-03-29_16h08.21.422.csv	2022-03-29	list2.csv	pratánylok	pratánylom	left	4.112	44	pratánylik	pratánylasz	NA	NA	Te bizony sokat pratánylasz.	Én is sokat...	pratánylok	pratánylom	pratánylok	TRUE	lakik	-lik	2	PR2002	2000	nő	nem	2022-03-29_16h08.21.422	hesp_baseline	2021.2.3	MacIntel
PARTICIPANT_hesp_baseline_2022-03-29_16h08.21.422.csv	2022-03-29	list2.csv	driládzom	driládzok	left	3.594	45	driládzik	driládzol	NA	NA	Te bizony sokat driládzol.	Én is sokat...	driládzok	driládzom	driládzom	FALSE	lakik	-zik	2	PR2002	2000	nő	nem	2022-03-29_16h08.21.422	hesp_baseline	2021.2.3	MacIntel
PARTICIPANT_hesp_baseline_2022-03-29_16h08.21.422.csv	2022-03-29	list2.csv	friszlok	friszlom	right	3.65	46	friszlik	friszlasz	NA	NA	Te bizony sokat friszlasz.	Én is sokat...	friszlok	friszlom	friszlom	FALSE	lakik	-lik	1	PR2002	2000	nő	nem	2022-03-29_16h08.21.422	hesp_baseline	2021.2.3	MacIntel
PARTICIPANT_hesp_baseline_2022-03-29_16h08.21.422.csv	2022-03-29	list2.csv	nyábétban	nyábétben	right	2.72	47	nyábét	nyábét	ban	é	Ez itt egy nyábét.	Ott vagyunk a...	nyábétben	nyábétban	nyábétben	TRUE	dzsungel	NA	NA	PR2002	2000	nő	nem	2022-03-29_16h08.21.422	hesp_baseline	2021.2.3	MacIntel
PARTICIPANT_hesp_baseline_2022-03-29_16h08.21.422.csv	2022-03-29	list2.csv	spizecnek	spizecnak	left	3.202	48	spizec	spizec	nak	e	Ez itt egy spizec.	Elneveztem a kutyámat...	spizecnek	spizecnak	spizecnek	TRUE	dzsungel	NA	NA	PR2002	2000	nő	nem	2022-03-29_16h08.21.422	hesp_baseline	2021.2.3	MacIntel
PARTICIPANT_hesp_baseline_2022-03-29_16h08.21.422.csv	2022-03-29	list2.csv	gúdenben	gúdenban	left	2.388	49	gúden	gúden	ban	e	Ez itt egy gúden.	Ott vagyunk a...	gúdenben	gúdenban	gúdenben	TRUE	dzsungel	NA	NA	PR2002	2000	nő	nem	2022-03-29_16h08.21.422	hesp_baseline	2021.2.3	MacIntel
PARTICIPANT_hesp_baseline_2022-03-29_16h08.21.422.csv	2022-03-29	list2.csv	péleslek	péleslem	left	4.14	50	péleslik	péleslesz	NA	NA	Te bizony sokat péleslesz.	Én is sokat...	péleslek	péleslem	péleslek	TRUE	lakik	-lik	2	PR2002	2000	nő	nem	2022-03-29_16h08.21.422	hesp_baseline	2021.2.3	MacIntel
PARTICIPANT_hesp_baseline_2022-03-29_16h08.21.422.csv	2022-03-29	list2.csv	navecban	navecben	left	3.224	51	navec	navec	ban	e	Ez itt egy navec.	Ott vagyunk a...	navecben	navecban	navecban	FALSE	dzsungel	NA	NA	PR2002	2000	nő	nem	2022-03-29_16h08.21.422	hesp_baseline	2021.2.3	MacIntel
PARTICIPANT_hesp_baseline_2022-03-29_16h08.21.422.csv	2022-03-29	list2.csv	trugoznak	trugzanak	left	4.841	52	trugzik / trugozik	trugzik, trugozni	nek	NA	János imád trugozni, ezért sokat trugzik.	Ők ritkán...	trugzanak	trugoznak	trugoznak	FALSE	cselekszik	-zik	1	PR2002	2000	nő	nem	2022-03-29_16h08.21.422	hesp_baseline	2021.2.3	MacIntel
PARTICIPANT_hesp_baseline_2022-03-29_16h08.21.422.csv	2022-03-29	list2.csv	spügzünk	spügözünk	right	11.175	53	spügzik / spügözik	spügzik, spügözni	ünk	NA	János imád spügözni, ezért sokat spügzik.	Mi ritkán...	spügzünk	spügözünk	spügözünk	FALSE	cselekszik	-zik	1	PR2002	2000	nő	nem	2022-03-29_16h08.21.422	hesp_baseline	2021.2.3	MacIntel
PARTICIPANT_hesp_baseline_2022-03-29_16h08.21.422.csv	2022-03-29	list2.csv	fligzok	fligzom	right	5.186	54	fligzik	fligzol	NA	NA	Te bizony sokat fligzol.	Én is sokat...	fligzok	fligzom	fligzom	FALSE	lakik	-zik	1	PR2002	2000	nő	nem	2022-03-29_16h08.21.422	hesp_baseline	2021.2.3	MacIntel
PARTICIPANT_hesp_baseline_2022-03-29_16h08.21.422.csv	2022-03-29	list2.csv	sprogzom	sprogzok	left	1.884	55	sprogzik	sprogzol	NA	NA	Te bizony sokat sprogzol.	Én is sokat...	sprogzok	sprogzom	sprogzom	FALSE	lakik	-zik	1	PR2002	2000	nő	nem	2022-03-29_16h08.21.422	hesp_baseline	2021.2.3	MacIntel
PARTICIPANT_hesp_baseline_2022-03-29_16h08.21.422.csv	2022-03-29	list2.csv	sporzemnak	sporzemnek	right	2.13	56	sporzem	sporzem	nak	e	Ez itt egy sporzem.	Elneveztem a kutyámat...	sporzemnek	sporzemnak	sporzemnek	TRUE	dzsungel	NA	NA	PR2002	2000	nő	nem	2022-03-29_16h08.21.422	hesp_baseline	2021.2.3	MacIntel
PARTICIPANT_hesp_baseline_2022-03-29_16h08.21.422.csv	2022-03-29	list2.csv	gyihegeztek	gyihegzetek	left	7.477	57	gyihegzik / gyihegezik	gyihegzik, gyihegezni	tek	NA	János imád gyihegezni, ezért sokat gyihegzik.	Ti ritkán...	gyihegzetek	gyihegeztek	gyihegeztek	FALSE	cselekszik	-zik	2	PR2002	2000	nő	nem	2022-03-29_16h08.21.422	hesp_baseline	2021.2.3	MacIntel
PARTICIPANT_hesp_baseline_2022-03-29_16h08.21.422.csv	2022-03-29	list2.csv	szanéjnek	szanéjnak	right	2.9	58	szanéj	szanéj	nak	é	Ez itt egy szanéj.	Elneveztem a kutyámat...	szanéjnek	szanéjnak	szanéjnak	FALSE	dzsungel	NA	NA	PR2002	2000	nő	nem	2022-03-29_16h08.21.422	hesp_baseline	2021.2.3	MacIntel
PARTICIPANT_hesp_baseline_2022-03-29_16h08.21.422.csv	2022-03-29	list2.csv	dárakszunk	dárakodunk	left	9.246	59	dárakszik / dárakodik	dárakszik, dárakodni	ünk	NA	János imád dárakodni, ezért sokat dárakszik.	Mi ritkán...	dárakszunk	dárakodunk	dárakszunk	TRUE	cselekszik	-szik	2	PR2002	2000	nő	nem	2022-03-29_16h08.21.422	hesp_baseline	2021.2.3	MacIntel
PARTICIPANT_hesp_baseline_2022-03-29_16h08.21.422.csv	2022-03-29	list2.csv	nyöböznek	nyöbzenek	left	4.757	60	nyöbzik / nyöbözik	nyöbzik, nyöbözni	nek	NA	János imád nyöbözni, ezért sokat nyöbzik.	Ők ritkán...	nyöbzenek	nyöböznek	nyöböznek	FALSE	cselekszik	-zik	1	PR2002	2000	nő	nem	2022-03-29_16h08.21.422	hesp_baseline	2021.2.3	MacIntel
PARTICIPANT_hesp_baseline_2022-03-29_16h08.21.422.csv	2022-03-29	list2.csv	kátédnél	kátédnál	left	7.764	61	kátéd	kátéd	nál	é	Ez itt egy kátéd.	Nincs is jobb egy jó...	kátédnél	kátédnál	kátédnél	TRUE	dzsungel	NA	NA	PR2002	2000	nő	nem	2022-03-29_16h08.21.422	hesp_baseline	2021.2.3	MacIntel
PARTICIPANT_hesp_baseline_2022-03-29_16h08.21.422.csv	2022-03-29	list2.csv	frálaslanak	frálasoznak	left	5.947	62	frálaslik / frálasozik	frálaslik, frálasozni	nek	NA	János imád frálasozni, ezért sokat frálaslik.	Ők ritkán...	frálaslanak	frálasoznak	frálaslanak	TRUE	cselekszik	-lik	2	PR2002	2000	nő	nem	2022-03-29_16h08.21.422	hesp_baseline	2021.2.3	MacIntel
PARTICIPANT_hesp_baseline_2022-03-29_16h08.21.422.csv	2022-03-29	list2.csv	ruslom	ruslok	left	2.624	63	ruslik	ruslasz	NA	NA	Te bizony sokat ruslasz.	Én is sokat...	ruslok	ruslom	ruslom	FALSE	lakik	-lik	1	PR2002	2000	nő	nem	2022-03-29_16h08.21.422	hesp_baseline	2021.2.3	MacIntel
PARTICIPANT_hesp_baseline_2022-03-29_16h08.21.422.csv	2022-03-29	list2.csv	kumlom	kumlok	left	1.869	64	kumlik	kumlasz	NA	NA	Te bizony sokat kumlasz.	Én is sokat...	kumlok	kumlom	kumlom	FALSE	lakik	-lik	1	PR2002	2000	nő	nem	2022-03-29_16h08.21.422	hesp_baseline	2021.2.3	MacIntel
PARTICIPANT_hesp_baseline_2022-03-29_16h08.21.422.csv	2022-03-29	list2.csv	sprigzotok	sprigoztok	right	4.313	65	sprigzik / sprigozik	sprigzik, sprigozni	tek	NA	János imád sprigozni, ezért sokat sprigzik.	Ti ritkán...	sprigzotok	sprigoztok	sprigoztok	FALSE	cselekszik	-zik	1	PR2002	2000	nő	nem	2022-03-29_16h08.21.422	hesp_baseline	2021.2.3	MacIntel
PARTICIPANT_hesp_baseline_2022-03-29_16h08.21.422.csv	2022-03-29	list2.csv	prihegszenek	prihegednek	right	8.503	66	prihegszik / prihegedik	prihegszik, prihegedni	nek	NA	János imád prihegedni, ezért sokat prihegszik.	Ők ritkán...	prihegszenek	prihegednek	prihegednek	FALSE	cselekszik	-szik	2	PR2002	2000	nő	nem	2022-03-29_16h08.21.422	hesp_baseline	2021.2.3	MacIntel
PARTICIPANT_hesp_baseline_2022-03-29_16h08.21.422.csv	2022-03-29	list2.csv	csubozunk	csubzunk	left	3.414	67	csubzik / csubozik	csubzik, csubozni	ünk	NA	János imád csubozni, ezért sokat csubzik.	Mi ritkán...	csubzunk	csubozunk	csubozunk	FALSE	cselekszik	-zik	1	PR2002	2000	nő	nem	2022-03-29_16h08.21.422	hesp_baseline	2021.2.3	MacIntel
PARTICIPANT_hesp_baseline_2022-03-29_16h08.21.422.csv	2022-03-29	list2.csv	dingecnek	dingecnak	left	3.211	68	dingec	dingec	nak	e	Ez itt egy dingec.	Elneveztem a kutyámat...	dingecnek	dingecnak	dingecnek	TRUE	dzsungel	NA	NA	PR2002	2000	nő	nem	2022-03-29_16h08.21.422	hesp_baseline	2021.2.3	MacIntel
PARTICIPANT_hesp_baseline_2022-03-29_16h08.21.422.csv	2022-03-29	list2.csv	jóbecnak	jóbecnek	right	2.445	69	jóbec	jóbec	nak	e	Ez itt egy jóbec.	Elneveztem a kutyámat...	jóbecnek	jóbecnak	jóbecnek	TRUE	dzsungel	NA	NA	PR2002	2000	nő	nem	2022-03-29_16h08.21.422	hesp_baseline	2021.2.3	MacIntel
PARTICIPANT_hesp_baseline_2022-03-29_16h08.21.422.csv	2022-03-29	list2.csv	ribzok	ribzom	right	2.577	70	ribzik	ribzol	NA	NA	Te bizony sokat ribzol.	Én is sokat...	ribzok	ribzom	ribzom	FALSE	lakik	-zik	1	PR2002	2000	nő	nem	2022-03-29_16h08.21.422	hesp_baseline	2021.2.3	MacIntel
PARTICIPANT_hesp_baseline_2022-03-29_16h08.21.422.csv	2022-03-29	list2.csv	flubokoztok	fluboklotok	left	4.855	71	fluboklik / flubokozik	fluboklik, flubokozni	tek	NA	János imád flubokozni, ezért sokat fluboklik.	Ti ritkán...	fluboklotok	flubokoztok	flubokoztok	FALSE	cselekszik	-lik	2	PR2002	2000	nő	nem	2022-03-29_16h08.21.422	hesp_baseline	2021.2.3	MacIntel
PARTICIPANT_hesp_baseline_2022-03-29_16h08.21.422.csv	2022-03-29	list2.csv	bivégszem	bivégszek	left	6.047	72	bivégszik	bivégszel	NA	NA	Te bizony sokat bivégszel.	Én is sokat...	bivégszek	bivégszem	bivégszem	FALSE	lakik	-szik	2	PR2002	2000	nő	nem	2022-03-29_16h08.21.422	hesp_baseline	2021.2.3	MacIntel
PARTICIPANT_hesp_baseline_2022-03-29_16h08.21.422.csv	2022-03-29	list2.csv	spüjzök	spüjzöm	left	3.35	73	spüjzik	spüjzöl	NA	NA	Te bizony sokat spüjzöl.	Én is sokat...	spüjzök	spüjzöm	spüjzök	TRUE	lakik	-zik	1	PR2002	2000	nő	nem	2022-03-29_16h08.21.422	hesp_baseline	2021.2.3	MacIntel
PARTICIPANT_hesp_baseline_2022-03-29_16h08.21.422.csv	2022-03-29	list2.csv	míjozunk	míjzunk	right	4.782	74	míjzik / míjozik	míjzik, míjozni	ünk	NA	János imád míjozni, ezért sokat míjzik.	Mi ritkán...	míjzunk	míjozunk	míjzunk	TRUE	cselekszik	-zik	1	PR2002	2000	nő	nem	2022-03-29_16h08.21.422	hesp_baseline	2021.2.3	MacIntel
PARTICIPANT_hesp_baseline_2022-03-29_16h08.21.422.csv	2022-03-29	list2.csv	dihelynak	dihelynek	right	2.396	75	dihely	dihely	nak	e	Ez itt egy dihely.	Elneveztem a kutyámat...	dihelynek	dihelynak	dihelynek	TRUE	dzsungel	NA	NA	PR2002	2000	nő	nem	2022-03-29_16h08.21.422	hesp_baseline	2021.2.3	MacIntel
PARTICIPANT_hesp_baseline_2022-03-29_16h08.21.422.csv	2022-03-29	list2.csv	ribegzek	ribegzem	right	2.529	76	ribegzik	ribegzel	NA	NA	Te bizony sokat ribegzel.	Én is sokat...	ribegzek	ribegzem	ribegzem	FALSE	lakik	-zik	2	PR2002	2000	nő	nem	2022-03-29_16h08.21.422	hesp_baseline	2021.2.3	MacIntel
PARTICIPANT_hesp_baseline_2022-03-29_16h08.21.422.csv	2022-03-29	list2.csv	klűmöztök	klűmlötök	left	4.212	77	klűmlik / klűmözik	klűmlik, klűmözni	tek	NA	János imád klűmözni, ezért sokat klűmlik.	Ti ritkán...	klűmlötök	klűmöztök	klűmöztök	FALSE	cselekszik	-lik	1	PR2002	2000	nő	nem	2022-03-29_16h08.21.422	hesp_baseline	2021.2.3	MacIntel
PARTICIPANT_hesp_baseline_2022-03-29_16h08.21.422.csv	2022-03-29	list2.csv	dóbemnek	dóbemnak	left	2.172	78	dóbem	dóbem	nak	e	Ez itt egy dóbem.	Elneveztem a kutyámat...	dóbemnek	dóbemnak	dóbemnek	TRUE	dzsungel	NA	NA	PR2002	2000	nő	nem	2022-03-29_16h08.21.422	hesp_baseline	2021.2.3	MacIntel
PARTICIPANT_hesp_baseline_2022-03-29_16h08.21.422.csv	2022-03-29	list2.csv	prilepszünk	prilepedünk	left	3.836	79	prilepszik / prilepedik	prilepszik, prilepedni	ünk	NA	János imád prilepedni, ezért sokat prilepszik.	Mi ritkán...	prilepszünk	prilepedünk	prilepszünk	TRUE	cselekszik	-szik	2	PR2002	2000	nő	nem	2022-03-29_16h08.21.422	hesp_baseline	2021.2.3	MacIntel
PARTICIPANT_hesp_baseline_2022-03-29_16h08.21.422.csv	2022-03-29	list2.csv	poslotok	posoztok	left	3.907	80	poslik / posozik	poslik, posozni	tek	NA	János imád posozni, ezért sokat poslik.	Ti ritkán...	poslotok	posoztok	poslotok	TRUE	cselekszik	-lik	1	PR2002	2000	nő	nem	2022-03-29_16h08.21.422	hesp_baseline	2021.2.3	MacIntel
PARTICIPANT_hesp_baseline_2022-03-29_16h08.21.422.csv	2022-03-29	list2.csv	spihegzek	spihegzem	right	3.079	81	spihegzik	spihegzel	NA	NA	Te bizony sokat spihegzel.	Én is sokat...	spihegzek	spihegzem	spihegzem	FALSE	lakik	-zik	2	PR2002	2000	nő	nem	2022-03-29_16h08.21.422	hesp_baseline	2021.2.3	MacIntel
PARTICIPANT_hesp_baseline_2022-03-29_16h08.21.422.csv	2022-03-29	list2.csv	dabzotok	daboztok	right	5.354	82	dabzik / dabozik	dabzik, dabozni	tek	NA	János imád dabozni, ezért sokat dabzik.	Ti ritkán...	dabzotok	daboztok	daboztok	FALSE	cselekszik	-zik	1	PR2002	2000	nő	nem	2022-03-29_16h08.21.422	hesp_baseline	2021.2.3	MacIntel
PARTICIPANT_hesp_baseline_2022-03-29_16h08.21.422.csv	2022-03-29	list2.csv	lingéknál	lingéknél	right	3.939	83	lingék	lingék	nál	é	Ez itt egy lingék.	Nincs is jobb egy jó...	lingéknél	lingéknál	lingéknél	TRUE	dzsungel	NA	NA	PR2002	2000	nő	nem	2022-03-29_16h08.21.422	hesp_baseline	2021.2.3	MacIntel
PARTICIPANT_hesp_baseline_2022-03-29_16h08.21.422.csv	2022-03-29	list2.csv	klajrénnek	klajrénnak	left	7.622	84	klajrén	klajrén	nak	é	Ez itt egy klajrén.	Elneveztem a kutyámat...	klajrénnek	klajrénnak	klajrénnek	TRUE	dzsungel	NA	NA	PR2002	2000	nő	nem	2022-03-29_16h08.21.422	hesp_baseline	2021.2.3	MacIntel
PARTICIPANT_hesp_baseline_2022-03-29_16h08.21.422.csv	2022-03-29	list2.csv	fréslünk	frésezünk	right	9.288	85	fréslik / frésezik	fréslik, frésezni	ünk	NA	János imád frésezni, ezért sokat fréslik.	Mi ritkán...	fréslünk	frésezünk	frésezünk	FALSE	cselekszik	-lik	1	PR2002	2000	nő	nem	2022-03-29_16h08.21.422	hesp_baseline	2021.2.3	MacIntel
PARTICIPANT_hesp_baseline_2022-03-29_16h08.21.422.csv	2022-03-29	list2.csv	klidlok	klidlom	right	5.741	86	klidlik	klidlasz	NA	NA	Te bizony sokat klidlasz.	Én is sokat...	klidlok	klidlom	klidlom	FALSE	lakik	-lik	1	PR2002	2000	nő	nem	2022-03-29_16h08.21.422	hesp_baseline	2021.2.3	MacIntel
PARTICIPANT_hesp_baseline_2022-03-29_16h08.21.422.csv	2022-03-29	list2.csv	tranékban	tranékben	left	2.922	87	tranék	tranék	ban	é	Ez itt egy tranék.	Ott vagyunk a...	tranékben	tranékban	tranékban	FALSE	dzsungel	NA	NA	PR2002	2000	nő	nem	2022-03-29_16h08.21.422	hesp_baseline	2021.2.3	MacIntel
PARTICIPANT_hesp_baseline_2022-03-29_16h08.21.422.csv	2022-03-29	list2.csv	spatárzom	spatárzok	left	2.621	88	spatárzik	spatárzol	NA	NA	Te bizony sokat spatárzol.	Én is sokat...	spatárzok	spatárzom	spatárzom	FALSE	lakik	-zik	2	PR2002	2000	nő	nem	2022-03-29_16h08.21.422	hesp_baseline	2021.2.3	MacIntel
PARTICIPANT_hesp_baseline_2022-03-29_16h08.21.422.csv	2022-03-29	list2.csv	trírzunk	trírozunk	left	3.537	89	trírzik / trírozik	trírzik, trírozni	ünk	NA	János imád trírozni, ezért sokat trírzik.	Mi ritkán...	trírzunk	trírozunk	trírzunk	TRUE	cselekszik	-zik	1	PR2002	2000	nő	nem	2022-03-29_16h08.21.422	hesp_baseline	2021.2.3	MacIntel
PARTICIPANT_hesp_baseline_2022-03-29_16h08.21.422.csv	2022-03-29	list2.csv	spáraklom	spáraklok	left	3.339	90	spáraklik	spáraklasz	NA	NA	Te bizony sokat spáraklasz.	Én is sokat...	spáraklok	spáraklom	spáraklom	FALSE	lakik	-lik	2	PR2002	2000	nő	nem	2022-03-29_16h08.21.422	hesp_baseline	2021.2.3	MacIntel
PARTICIPANT_hesp_baseline_2022-03-29_16h08.21.422.csv	2022-03-29	list2.csv	nűröklök	nűröklöm	right	4.425	91	nűröklik	nűröklesz	NA	NA	Te bizony sokat nűröklesz.	Én is sokat...	nűröklök	nűröklöm	nűröklöm	FALSE	lakik	-lik	2	PR2002	2000	nő	nem	2022-03-29_16h08.21.422	hesp_baseline	2021.2.3	MacIntel
PARTICIPANT_hesp_baseline_2022-03-29_16h08.21.422.csv	2022-03-29	list2.csv	lijeznek	lijeznak	left	2.142	92	lijez	lijez	nak	e	Ez itt egy lijez.	Elneveztem a kutyámat...	lijeznek	lijeznak	lijeznek	TRUE	dzsungel	NA	NA	PR2002	2000	nő	nem	2022-03-29_16h08.21.422	hesp_baseline	2021.2.3	MacIntel
PARTICIPANT_hesp_baseline_2022-03-29_16h08.21.422.csv	2022-03-29	list2.csv	jonylok	jonylom	right	2.758	93	jonylik	jonylasz	NA	NA	Te bizony sokat jonylasz.	Én is sokat...	jonylok	jonylom	jonylom	FALSE	lakik	-lik	1	PR2002	2000	nő	nem	2022-03-29_16h08.21.422	hesp_baseline	2021.2.3	MacIntel
PARTICIPANT_hesp_baseline_2022-03-29_16h08.21.422.csv	2022-03-29	list2.csv	tribejeztek	tribejletek	right	9.359	94	tribejlik / tribejezik	tribejlik, tribejezni	tek	NA	János imád tribejezni, ezért sokat tribejlik.	Ti ritkán...	tribejletek	tribejeztek	tribejletek	TRUE	cselekszik	-lik	2	PR2002	2000	nő	nem	2022-03-29_16h08.21.422	hesp_baseline	2021.2.3	MacIntel
PARTICIPANT_hesp_baseline_2022-03-29_16h08.21.422.csv	2022-03-29	list2.csv	spivélnek	spivélnak	left	2.214	95	spivél	spivél	nak	é	Ez itt egy spivél.	Elneveztem a kutyámat...	spivélnek	spivélnak	spivélnek	TRUE	dzsungel	NA	NA	PR2002	2000	nő	nem	2022-03-29_16h08.21.422	hesp_baseline	2021.2.3	MacIntel
PARTICIPANT_hesp_baseline_2022-03-29_16h08.21.422.csv	2022-03-29	list2.csv	femlek	femlem	left	3.139	96	femlik	femlesz	NA	NA	Te bizony sokat femlesz.	Én is sokat...	femlek	femlem	femlek	TRUE	lakik	-lik	1	PR2002	2000	nő	nem	2022-03-29_16h08.21.422	hesp_baseline	2021.2.3	MacIntel
PARTICIPANT_hesp_baseline_2022-03-29_16h08.21.422.csv	2022-03-29	list2.csv	csólorzom	csólorzok	left	5.839	97	csólorzik	csólorzol	NA	NA	Te bizony sokat csólorzol.	Én is sokat...	csólorzok	csólorzom	csólorzom	FALSE	lakik	-zik	2	PR2002	2000	nő	nem	2022-03-29_16h08.21.422	hesp_baseline	2021.2.3	MacIntel
PARTICIPANT_hesp_baseline_2022-03-29_16h08.21.422.csv	2022-03-29	list2.csv	lírlanak	líroznak	right	5.169	98	lírlik / lírozik	lírlik, lírozni	nek	NA	János imád lírozni, ezért sokat lírlik.	Ők ritkán...	lírlanak	líroznak	líroznak	FALSE	cselekszik	-lik	1	PR2002	2000	nő	nem	2022-03-29_16h08.21.422	hesp_baseline	2021.2.3	MacIntel
PARTICIPANT_hesp_baseline_2022-03-29_16h08.21.422.csv	2022-03-29	list2.csv	spülűdzök	spülűdzöm	left	14.023	99	spülűdzik	spülűdzöl	NA	NA	Te bizony sokat spülűdzöl.	Én is sokat...	spülűdzök	spülűdzöm	spülűdzök	TRUE	lakik	-zik	2	PR2002	2000	nő	nem	2022-03-29_16h08.21.422	hesp_baseline	2021.2.3	MacIntel
PARTICIPANT_hesp_baseline_2022-03-29_16h08.21.422.csv	2022-03-29	list2.csv	frivamlunk	frivamozunk	right	7.139	100	frivamlik / frivamozik	frivamlik, frivamozni	ünk	NA	János imád frivamozni, ezért sokat frivamlik.	Mi ritkán...	frivamlunk	frivamozunk	frivamozunk	FALSE	cselekszik	-lik	2	PR2002	2000	nő	nem	2022-03-29_16h08.21.422	hesp_baseline	2021.2.3	MacIntel
PARTICIPANT_hesp_baseline_2022-03-29_16h08.21.422.csv	2022-03-29	list2.csv	játlunk	játozunk	left	3.464	101	játlik / játozik	játlik, játozni	ünk	NA	János imád játozni, ezért sokat játlik.	Mi ritkán...	játlunk	játozunk	játlunk	TRUE	cselekszik	-lik	1	PR2002	2000	nő	nem	2022-03-29_16h08.21.422	hesp_baseline	2021.2.3	MacIntel
PARTICIPANT_hesp_baseline_2022-03-29_16h08.21.422.csv	2022-03-29	list2.csv	flézeztek	flézletek	left	4.809	102	flézlik / flézezik	flézlik, flézezni	tek	NA	János imád flézezni, ezért sokat flézlik.	Ti ritkán...	flézletek	flézeztek	flézeztek	FALSE	cselekszik	-lik	1	PR2002	2000	nő	nem	2022-03-29_16h08.21.422	hesp_baseline	2021.2.3	MacIntel
PARTICIPANT_hesp_baseline_2022-03-29_16h08.21.422.csv	2022-03-29	list2.csv	flüröklötök	flürököztök	right	3.882	103	flüröklik / flüröközik	flüröklik, flüröközni	tek	NA	János imád flüröközni, ezért sokat flüröklik.	Ti ritkán...	flüröklötök	flürököztök	flürököztök	FALSE	cselekszik	-lik	2	PR2002	2000	nő	nem	2022-03-29_16h08.21.422	hesp_baseline	2021.2.3	MacIntel
PARTICIPANT_hesp_baseline_2022-03-29_16h08.21.422.csv	2022-03-29	list2.csv	branyoznak	branylanak	left	7.545	104	branylik / branyozik	branylik, branyozni	nek	NA	János imád branyozni, ezért sokat branylik.	Ők ritkán...	branylanak	branyoznak	branyoznak	FALSE	cselekszik	-lik	1	PR2002	2000	nő	nem	2022-03-29_16h08.21.422	hesp_baseline	2021.2.3	MacIntel
PARTICIPANT_hesp_baseline_2022-03-29_16h08.21.422.csv	2022-03-29	list2.csv	figlok	figlom	left	3.857	105	figlik	figlasz	NA	NA	Te bizony sokat figlasz.	Én is sokat...	figlok	figlom	figlok	TRUE	lakik	-lik	1	PR2002	2000	nő	nem	2022-03-29_16h08.21.422	hesp_baseline	2021.2.3	MacIntel
PARTICIPANT_hesp_baseline_2022-03-29_16h08.21.422.csv	2022-03-29	list2.csv	ikszertban	ikszertben	right	2.365	106	ikszert	ikszert	ban	e	Ez itt egy ikszert.	Ott vagyunk a...	ikszertben	ikszertban	ikszertben	TRUE	dzsungel	NA	NA	PR2002	2000	nő	nem	2022-03-29_16h08.21.422	hesp_baseline	2021.2.3	MacIntel
PARTICIPANT_hesp_baseline_2022-03-29_16h08.21.422.csv	2022-03-29	list2.csv	spöklünk	spöközünk	right	4.272	107	spöklik / spöközik	spöklik, spöközni	ünk	NA	János imád spöközni, ezért sokat spöklik.	Mi ritkán...	spöklünk	spöközünk	spöközünk	FALSE	cselekszik	-lik	1	PR2002	2000	nő	nem	2022-03-29_16h08.21.422	hesp_baseline	2021.2.3	MacIntel
PARTICIPANT_hesp_baseline_2022-03-29_16h08.21.422.csv	2022-03-29	list2.csv	hubonylotok	hubonyoztok	right	4.299	108	hubonylik / hubonyozik	hubonylik, hubonyozni	tek	NA	János imád hubonyozni, ezért sokat hubonylik.	Ti ritkán...	hubonylotok	hubonyoztok	hubonyoztok	FALSE	cselekszik	-lik	2	PR2002	2000	nő	nem	2022-03-29_16h08.21.422	hesp_baseline	2021.2.3	MacIntel
PARTICIPANT_hesp_baseline_2022-03-29_16h08.21.422.csv	2022-03-29	list2.csv	fojlegynek	fojlegynak	left	2.211	109	fojlegy	fojlegy	nak	e	Ez itt egy fojlegy.	Elneveztem a kutyámat...	fojlegynek	fojlegynak	fojlegynek	TRUE	dzsungel	NA	NA	PR2002	2000	nő	nem	2022-03-29_16h08.21.422	hesp_baseline	2021.2.3	MacIntel
PARTICIPANT_hesp_baseline_2022-03-29_16h08.21.422.csv	2022-03-29	list2.csv	prihekszek	prihekszem	right	3.873	110	prihekszik	prihekszel	NA	NA	Te bizony sokat prihekszel.	Én is sokat...	prihekszek	prihekszem	prihekszem	FALSE	lakik	-szik	2	PR2002	2000	nő	nem	2022-03-29_16h08.21.422	hesp_baseline	2021.2.3	MacIntel
PARTICIPANT_hesp_baseline_2022-03-29_16h08.21.422.csv	2022-03-29	list2.csv	fröjöztök	fröjzötök	left	4.305	111	fröjzik / fröjözik	fröjzik, fröjözni	tek	NA	János imád fröjözni, ezért sokat fröjzik.	Ti ritkán...	fröjzötök	fröjöztök	fröjöztök	FALSE	cselekszik	-zik	1	PR2002	2000	nő	nem	2022-03-29_16h08.21.422	hesp_baseline	2021.2.3	MacIntel
PARTICIPANT_hesp_baseline_2022-03-29_16h08.21.422.csv	2022-03-29	list2.csv	csíszlok	csíszlom	right	2.22	112	csíszlik	csíszlasz	NA	NA	Te bizony sokat csíszlasz.	Én is sokat...	csíszlok	csíszlom	csíszlom	FALSE	lakik	-lik	1	PR2002	2000	nő	nem	2022-03-29_16h08.21.422	hesp_baseline	2021.2.3	MacIntel
PARTICIPANT_hesp_baseline_2022-03-29_16h08.21.422.csv	2022-03-29	list2.csv	zutennél	zutennál	left	3.272	113	zuten	zuten	nál	e	Ez itt egy zuten.	Nincs is jobb egy jó...	zutennél	zutennál	zutennél	TRUE	dzsungel	NA	NA	PR2002	2000	nő	nem	2022-03-29_16h08.21.422	hesp_baseline	2021.2.3	MacIntel
PARTICIPANT_hesp_baseline_2022-03-29_16h08.21.422.csv	2022-03-29	list2.csv	spátennak	spátennek	right	2.34	114	spáten	spáten	nak	e	Ez itt egy spáten.	Elneveztem a kutyámat...	spátennek	spátennak	spátennek	TRUE	dzsungel	NA	NA	PR2002	2000	nő	nem	2022-03-29_16h08.21.422	hesp_baseline	2021.2.3	MacIntel
PARTICIPANT_hesp_baseline_2022-03-29_16h08.21.422.csv	2022-03-29	list2.csv	bingéjnek	bingéjnak	left	2.077	115	bingéj	bingéj	nak	é	Ez itt egy bingéj.	Elneveztem a kutyámat...	bingéjnek	bingéjnak	bingéjnek	TRUE	dzsungel	NA	NA	PR2002	2000	nő	nem	2022-03-29_16h08.21.422	hesp_baseline	2021.2.3	MacIntel
PARTICIPANT_hesp_baseline_2022-03-29_16h08.21.422.csv	2022-03-29	list2.csv	forzédnak	forzédnek	right	2.779	116	forzéd	forzéd	nak	é	Ez itt egy forzéd.	Elneveztem a kutyámat...	forzédnek	forzédnak	forzédnek	TRUE	dzsungel	NA	NA	PR2002	2000	nő	nem	2022-03-29_16h08.21.422	hesp_baseline	2021.2.3	MacIntel
PARTICIPANT_hesp_baseline_2022-03-29_16h08.21.422.csv	2022-03-29	list2.csv	zihencnek	zihencnak	left	2.394	117	zihenc	zihenc	nak	e	Ez itt egy zihenc.	Elneveztem a kutyámat...	zihencnek	zihencnak	zihencnek	TRUE	dzsungel	NA	NA	PR2002	2000	nő	nem	2022-03-29_16h08.21.422	hesp_baseline	2021.2.3	MacIntel
PARTICIPANT_hesp_baseline_2022-03-29_16h08.21.422.csv	2022-03-29	list2.csv	pivegszem	pivegszek	left	2.214	118	pivegszik	pivegszel	NA	NA	Te bizony sokat pivegszel.	Én is sokat...	pivegszek	pivegszem	pivegszem	FALSE	lakik	-szik	2	PR2002	2000	nő	nem	2022-03-29_16h08.21.422	hesp_baseline	2021.2.3	MacIntel
PARTICIPANT_hesp_baseline_2022-03-29_16h08.21.422.csv	2022-03-29	list2.csv	klingeszben	klingeszban	left	4.088	119	klingesz	klingesz	ban	e	Ez itt egy klingesz.	Ott vagyunk a...	klingeszben	klingeszban	klingeszben	TRUE	dzsungel	NA	NA	PR2002	2000	nő	nem	2022-03-29_16h08.21.422	hesp_baseline	2021.2.3	MacIntel
PARTICIPANT_hesp_baseline_2022-03-29_16h08.21.422.csv	2022-03-29	list2.csv	nidétban	nidétben	right	2.501	120	nidét	nidét	ban	é	Ez itt egy nidét.	Ott vagyunk a...	nidétben	nidétban	nidétben	TRUE	dzsungel	NA	NA	PR2002	2000	nő	nem	2022-03-29_16h08.21.422	hesp_baseline	2021.2.3	MacIntel
PARTICIPANT_hesp_baseline_2022-03-29_16h08.21.422.csv	2022-03-29	list2.csv	spiharzotok	spiharoztok	right	3.989	121	spiharzik / spiharozik	spiharzik, spiharozni	tek	NA	János imád spiharozni, ezért sokat spiharzik.	Ti ritkán...	spiharzotok	spiharoztok	spiharoztok	FALSE	cselekszik	-zik	2	PR2002	2000	nő	nem	2022-03-29_16h08.21.422	hesp_baseline	2021.2.3	MacIntel
PARTICIPANT_hesp_baseline_2022-03-29_16h08.21.422.csv	2022-03-29	list2.csv	cságyeltben	cságyeltban	left	3.454	122	cságyelt	cságyelt	ban	e	Ez itt egy cságyelt.	Ott vagyunk a...	cságyeltben	cságyeltban	cságyeltben	TRUE	dzsungel	NA	NA	PR2002	2000	nő	nem	2022-03-29_16h08.21.422	hesp_baseline	2021.2.3	MacIntel
PARTICIPANT_hesp_baseline_2022-03-29_16h08.21.422.csv	2022-03-29	list2.csv	plugzom	plugzok	left	2.123	123	plugzik	plugzol	NA	NA	Te bizony sokat plugzol.	Én is sokat...	plugzok	plugzom	plugzom	FALSE	lakik	-zik	1	PR2002	2000	nő	nem	2022-03-29_16h08.21.422	hesp_baseline	2021.2.3	MacIntel
PARTICIPANT_hesp_baseline_2022-03-29_16h08.21.422.csv	2022-03-29	list2.csv	dilakoztok	dilaklotok	left	4.498	124	dilaklik / dilakozik	dilaklik, dilakozni	tek	NA	János imád dilakozni, ezért sokat dilaklik.	Ti ritkán...	dilaklotok	dilakoztok	dilakoztok	FALSE	cselekszik	-lik	2	PR2002	2000	nő	nem	2022-03-29_16h08.21.422	hesp_baseline	2021.2.3	MacIntel
PARTICIPANT_hesp_baseline_2022-03-29_16h08.21.422.csv	2022-03-29	list2.csv	spubonylok	spubonylom	left	4.249	125	spubonylik	spubonylasz	NA	NA	Te bizony sokat spubonylasz.	Én is sokat...	spubonylok	spubonylom	spubonylok	TRUE	lakik	-lik	2	PR2002	2000	nő	nem	2022-03-29_16h08.21.422	hesp_baseline	2021.2.3	MacIntel
PARTICIPANT_hesp_baseline_2022-03-29_16h08.21.422.csv	2022-03-29	list2.csv	flátszom	flátszok	left	2.701	126	flátszik	flátszol	NA	NA	Te bizony sokat flátszol.	Én is sokat...	flátszok	flátszom	flátszom	FALSE	lakik	-szik	1	PR2002	2000	nő	nem	2022-03-29_16h08.21.422	hesp_baseline	2021.2.3	MacIntel
PARTICIPANT_hesp_baseline_2022-03-29_16h08.21.422.csv	2022-03-29	list2.csv	vorszennél	vorszennál	left	2.998	127	vorszen	vorszen	nál	e	Ez itt egy vorszen.	Nincs is jobb egy jó...	vorszennél	vorszennál	vorszennél	TRUE	dzsungel	NA	NA	PR2002	2000	nő	nem	2022-03-29_16h08.21.422	hesp_baseline	2021.2.3	MacIntel
PARTICIPANT_hesp_baseline_2022-03-29_16h08.21.422.csv	2022-03-29	list2.csv	klazérban	klazérben	left	2.645	128	klazér	klazér	ban	é	Ez itt egy klazér.	Ott vagyunk a...	klazérben	klazérban	klazérban	FALSE	dzsungel	NA	NA	PR2002	2000	nő	nem	2022-03-29_16h08.21.422	hesp_baseline	2021.2.3	MacIntel
PARTICIPANT_hesp_baseline_2022-03-29_16h08.21.422.csv	2022-03-29	list2.csv	dibágoztok	dibáglotok	left	5.865	129	dibáglik / dibágozik	dibáglik, dibágozni	tek	NA	János imád dibágozni, ezért sokat dibáglik.	Ti ritkán...	dibáglotok	dibágoztok	dibágoztok	FALSE	cselekszik	-lik	2	PR2002	2000	nő	nem	2022-03-29_16h08.21.422	hesp_baseline	2021.2.3	MacIntel
PARTICIPANT_hesp_baseline_2022-03-29_16h08.21.422.csv	2022-03-29	list2.csv	pítendban	pítendben	right	2.328	130	pítend	pítend	ban	e	Ez itt egy pítend.	Ott vagyunk a...	pítendben	pítendban	pítendben	TRUE	dzsungel	NA	NA	PR2002	2000	nő	nem	2022-03-29_16h08.21.422	hesp_baseline	2021.2.3	MacIntel
PARTICIPANT_hesp_baseline_2022-03-29_16h08.21.422.csv	2022-03-29	list2.csv	sojzom	sojzok	left	3.404	131	sojzik	sojzol	NA	NA	Te bizony sokat sojzol.	Én is sokat...	sojzok	sojzom	sojzom	FALSE	lakik	-zik	1	PR2002	2000	nő	nem	2022-03-29_16h08.21.422	hesp_baseline	2021.2.3	MacIntel
PARTICIPANT_hesp_baseline_2022-03-29_16h08.21.422.csv	2022-03-29	list2.csv	flehékszek	flehékszem	left	2.462	132	flehékszik	flehékszel	NA	NA	Te bizony sokat flehékszel.	Én is sokat...	flehékszek	flehékszem	flehékszek	TRUE	lakik	-szik	2	PR2002	2000	nő	nem	2022-03-29_16h08.21.422	hesp_baseline	2021.2.3	MacIntel
PARTICIPANT_hesp_baseline_2022-03-29_16h08.21.422.csv	2022-03-29	list2.csv	jábézben	jábézban	left	2.642	133	jábéz	jábéz	ban	é	Ez itt egy jábéz.	Ott vagyunk a...	jábézben	jábézban	jábézben	TRUE	dzsungel	NA	NA	PR2002	2000	nő	nem	2022-03-29_16h08.21.422	hesp_baseline	2021.2.3	MacIntel
PARTICIPANT_hesp_baseline_2022-03-29_16h08.21.422.csv	2022-03-29	list2.csv	gilárzok	gilárzom	right	4.658	134	gilárzik	gilárzol	NA	NA	Te bizony sokat gilárzol.	Én is sokat...	gilárzok	gilárzom	gilárzom	FALSE	lakik	-zik	2	PR2002	2000	nő	nem	2022-03-29_16h08.21.422	hesp_baseline	2021.2.3	MacIntel
PARTICIPANT_hesp_baseline_2022-03-29_16h08.21.422.csv	2022-03-29	list2.csv	sprebeznek	sprebzenek	left	5.247	135	sprebzik / sprebezik	sprebzik, sprebezni	nek	NA	János imád sprebezni, ezért sokat sprebzik.	Ők ritkán...	sprebzenek	sprebeznek	sprebeznek	FALSE	cselekszik	-zik	1	PR2002	2000	nő	nem	2022-03-29_16h08.21.422	hesp_baseline	2021.2.3	MacIntel
PARTICIPANT_hesp_baseline_2022-03-29_16h08.21.422.csv	2022-03-29	list2.csv	pribemlek	pribemlem	right	2.656	136	pribemlik	pribemlesz	NA	NA	Te bizony sokat pribemlesz.	Én is sokat...	pribemlek	pribemlem	pribemlem	FALSE	lakik	-lik	2	PR2002	2000	nő	nem	2022-03-29_16h08.21.422	hesp_baseline	2021.2.3	MacIntel
PARTICIPANT_hesp_baseline_2022-03-29_16h08.21.422.csv	2022-03-29	list2.csv	klehényletek	klehényeztek	left	8.554	137	klehénylik / klehényezik	klehénylik, klehényezni	tek	NA	János imád klehényezni, ezért sokat klehénylik.	Ti ritkán...	klehényletek	klehényeztek	klehényletek	TRUE	cselekszik	-lik	2	PR2002	2000	nő	nem	2022-03-29_16h08.21.422	hesp_baseline	2021.2.3	MacIntel
PARTICIPANT_hesp_baseline_2022-03-29_16h08.21.422.csv	2022-03-29	list2.csv	flüröslök	flüröslöm	left	2.786	138	flüröslik	flüröslesz	NA	NA	Te bizony sokat flüröslesz.	Én is sokat...	flüröslök	flüröslöm	flüröslök	TRUE	lakik	-lik	2	PR2002	2000	nő	nem	2022-03-29_16h08.21.422	hesp_baseline	2021.2.3	MacIntel
PARTICIPANT_hesp_baseline_2022-03-29_16h08.21.422.csv	2022-03-29	list2.csv	júdernek	júdernak	left	2.686	139	júder	júder	nak	e	Ez itt egy júder.	Elneveztem a kutyámat...	júdernek	júdernak	júdernek	TRUE	dzsungel	NA	NA	PR2002	2000	nő	nem	2022-03-29_16h08.21.422	hesp_baseline	2021.2.3	MacIntel
PARTICIPANT_hesp_baseline_2022-03-29_16h08.21.422.csv	2022-03-29	list2.csv	zsigénnél	zsigénnál	left	2.549	140	zsigén	zsigén	nál	é	Ez itt egy zsigén.	Nincs is jobb egy jó...	zsigénnél	zsigénnál	zsigénnél	TRUE	dzsungel	NA	NA	PR2002	2000	nő	nem	2022-03-29_16h08.21.422	hesp_baseline	2021.2.3	MacIntel
PARTICIPANT_hesp_baseline_2022-03-29_16h08.21.422.csv	2022-03-29	list2.csv	brágédnak	brágédnek	left	3.288	141	brágéd	brágéd	nak	é	Ez itt egy brágéd.	Elneveztem a kutyámat...	brágédnek	brágédnak	brágédnak	FALSE	dzsungel	NA	NA	PR2002	2000	nő	nem	2022-03-29_16h08.21.422	hesp_baseline	2021.2.3	MacIntel
PARTICIPANT_hesp_baseline_2022-03-29_16h08.21.422.csv	2022-03-29	list2.csv	huroslom	huroslok	left	2.69	142	huroslik	huroslasz	NA	NA	Te bizony sokat huroslasz.	Én is sokat...	huroslok	huroslom	huroslom	FALSE	lakik	-lik	2	PR2002	2000	nő	nem	2022-03-29_16h08.21.422	hesp_baseline	2021.2.3	MacIntel
PARTICIPANT_hesp_baseline_2022-03-29_16h08.21.422.csv	2022-03-29	list2.csv	klítegynél	klítegynál	left	3.057	143	klítegy	klítegy	nál	e	Ez itt egy klítegy.	Nincs is jobb egy jó...	klítegynél	klítegynál	klítegynél	TRUE	dzsungel	NA	NA	PR2002	2000	nő	nem	2022-03-29_16h08.21.422	hesp_baseline	2021.2.3	MacIntel
PARTICIPANT_hesp_baseline_2022-03-29_16h08.21.422.csv	2022-03-29	list2.csv	flitlok	flitlom	left	3.642	144	flitlik	flitlasz	NA	NA	Te bizony sokat flitlasz.	Én is sokat...	flitlok	flitlom	flitlok	TRUE	lakik	-lik	1	PR2002	2000	nő	nem	2022-03-29_16h08.21.422	hesp_baseline	2021.2.3	MacIntel
PARTICIPANT_hesp_baseline_2022-03-29_16h08.21.422.csv	2022-03-29	list2.csv	kluhéjnél	kluhéjnál	left	3.22	145	kluhéj	kluhéj	nál	é	Ez itt egy kluhéj.	Nincs is jobb egy jó...	kluhéjnél	kluhéjnál	kluhéjnél	TRUE	dzsungel	NA	NA	PR2002	2000	nő	nem	2022-03-29_16h08.21.422	hesp_baseline	2021.2.3	MacIntel
PARTICIPANT_hesp_baseline_2022-03-29_16h08.21.422.csv	2022-03-29	list2.csv	tumélynál	tumélynél	right	2.227	146	tumély	tumély	nál	é	Ez itt egy tumély.	Nincs is jobb egy jó...	tumélynél	tumélynál	tumélynél	TRUE	dzsungel	NA	NA	PR2002	2000	nő	nem	2022-03-29_16h08.21.422	hesp_baseline	2021.2.3	MacIntel
PARTICIPANT_hesp_baseline_2022-03-29_16h08.21.422.csv	2022-03-29	list2.csv	flodoztok	flodlotok	left	3.639	147	flodlik / flodozik	flodlik, flodozni	tek	NA	János imád flodozni, ezért sokat flodlik.	Ti ritkán...	flodlotok	flodoztok	flodoztok	FALSE	cselekszik	-lik	1	PR2002	2000	nő	nem	2022-03-29_16h08.21.422	hesp_baseline	2021.2.3	MacIntel
PARTICIPANT_hesp_baseline_2022-03-29_16h08.21.422.csv	2022-03-29	list2.csv	drojozunk	drojzunk	right	4.848	148	drojzik / drojozik	drojzik, drojozni	ünk	NA	János imád drojozni, ezért sokat drojzik.	Mi ritkán...	drojzunk	drojozunk	drojzunk	TRUE	cselekszik	-zik	1	PR2002	2000	nő	nem	2022-03-29_16h08.21.422	hesp_baseline	2021.2.3	MacIntel
PARTICIPANT_hesp_baseline_2022-03-29_16h08.21.422.csv	2022-03-29	list2.csv	flagánylom	flagánylok	right	3.438	149	flagánylik	flagánylasz	NA	NA	Te bizony sokat flagánylasz.	Én is sokat...	flagánylok	flagánylom	flagánylok	TRUE	lakik	-lik	2	PR2002	2000	nő	nem	2022-03-29_16h08.21.422	hesp_baseline	2021.2.3	MacIntel
PARTICIPANT_hesp_baseline_2022-03-29_16h08.21.422.csv	2022-03-29	list2.csv	brivegzem	brivegzek	left	2.677	150	brivegzik	brivegzel	NA	NA	Te bizony sokat brivegzel.	Én is sokat...	brivegzek	brivegzem	brivegzem	FALSE	lakik	-zik	2	PR2002	2000	nő	nem	2022-03-29_16h08.21.422	hesp_baseline	2021.2.3	MacIntel
PARTICIPANT_hesp_baseline_2022-03-29_16h08.21.422.csv	2022-03-29	list2.csv	molszotok	molodtok	right	6.242	151	molszik / molodik	molszik, molodni	tek	NA	János imád molodni, ezért sokat molszik.	Ti ritkán...	molszotok	molodtok	molodtok	FALSE	cselekszik	-szik	1	PR2002	2000	nő	nem	2022-03-29_16h08.21.422	hesp_baseline	2021.2.3	MacIntel
PARTICIPANT_hesp_baseline_2022-03-29_16h08.21.422.csv	2022-03-29	list2.csv	ronvetnak	ronvetnek	right	7.774	152	ronvet	ronvet	nak	e	Ez itt egy ronvet.	Elneveztem a kutyámat...	ronvetnek	ronvetnak	ronvetnek	TRUE	dzsungel	NA	NA	PR2002	2000	nő	nem	2022-03-29_16h08.21.422	hesp_baseline	2021.2.3	MacIntel
PARTICIPANT_hesp_baseline_2022-03-29_16h08.21.422.csv	2022-03-29	list2.csv	brágaklok	brágaklom	left	7.511	153	brágaklik	brágaklasz	NA	NA	Te bizony sokat brágaklasz.	Én is sokat...	brágaklok	brágaklom	brágaklok	TRUE	lakik	-lik	2	PR2002	2000	nő	nem	2022-03-29_16h08.21.422	hesp_baseline	2021.2.3	MacIntel
PARTICIPANT_hesp_baseline_2022-03-29_16h08.21.422.csv	2022-03-29	list2.csv	tiregzek	tiregzem	left	19.914	154	tiregzik	tiregzel	NA	NA	Te bizony sokat tiregzel.	Én is sokat...	tiregzek	tiregzem	tiregzek	TRUE	lakik	-zik	2	PR2002	2000	nő	nem	2022-03-29_16h08.21.422	hesp_baseline	2021.2.3	MacIntel
PARTICIPANT_hesp_baseline_2022-03-29_16h08.21.422.csv	2022-03-29	list2.csv	gihesztnak	gihesztnek	right	2.183	155	giheszt	giheszt	nak	e	Ez itt egy giheszt.	Elneveztem a kutyámat...	gihesztnek	gihesztnak	gihesztnek	TRUE	dzsungel	NA	NA	PR2002	2000	nő	nem	2022-03-29_16h08.21.422	hesp_baseline	2021.2.3	MacIntel
